build	computer.platform	date	time	timestamp	time_elapsed_ms	subject	group	session	blockcode	blocknum	trialcode	trialnum	stimulus_left	stimulus_right	stim_index	target_present	response	correct	latency	headphonecheck_countTestTrials	headphonecheck_index	headphonecheck_testSound	headphonecheck_correctResponse	stereocheck_countTestTrials	stereocheck_index	stereocheck_testSound	stereocheck_correctResponse	DL_index	DL_soundfile	DL_leftSound	DL_rightSound	DL_dualSound	DL_choice
6.6.1	win	2023-06-13	02:03:57	02:06:49	168434	6441890f4ea5d3738776aff4	3	1	practice_slash	5	practice_slash	1	stimuli_distractor_diamondtriangles.svg	stimuli_target_trianglerectangles.svg	9	yes	0	0	2000	0	0			0	0			1				0	
6.6.1	win	2023-06-13	02:03:57	02:06:49	168434	6441890f4ea5d3738776aff4	3	1	practice_slash	5	advance_on_keypress_SLASH	2	stimuli_distractor_diamondtriangles.svg	stimuli_target_trianglerectangles.svg	9	yes	57	0	603	0	0			0	0			1				0	
6.6.1	win	2023-06-13	02:03:57	02:06:52	171696	6441890f4ea5d3738776aff4	3	1	practice_slash	5	practice_slash	3	stimuli_distractor_diamondtriangles.svg	stimuli_target_diamondrectangles.svg	8	yes	53	1	1009	0	0			0	0			1				0	
6.6.1	win	2023-06-13	02:03:57	02:06:52	171696	6441890f4ea5d3738776aff4	3	1	practice_slash	5	advance_on_keypress_SLASH	4	stimuli_distractor_diamondtriangles.svg	stimuli_target_diamondrectangles.svg	8	yes	57	0	614	0	0			0	0			1				0	
6.6.1	win	2023-06-13	02:03:57	02:06:55	174968	6441890f4ea5d3738776aff4	3	1	practice_slash	5	practice_slash	5	stimuli_target_rectanglediamonds.svg	stimuli_distractor_diamondtriangles.svg	1	yes	53	1	1010	0	0			0	0			1				0	
6.6.1	win	2023-06-13	02:03:57	02:06:55	174968	6441890f4ea5d3738776aff4	3	1	practice_slash	5	advance_on_keypress_SLASH	6	stimuli_target_rectanglediamonds.svg	stimuli_distractor_diamondtriangles.svg	1	yes	57	0	650	0	0			0	0			1				0	
6.6.1	win	2023-06-13	02:03:57	02:06:59	178488	6441890f4ea5d3738776aff4	3	1	practice_slash	5	practice_slash	7	stimuli_target_rectanglediamonds.svg	stimuli_distractor_trianglediamonds.svg	4	yes	53	1	1229	0	0			0	0			1				0	
6.6.1	win	2023-06-13	02:03:57	02:06:59	178488	6441890f4ea5d3738776aff4	3	1	practice_slash	5	advance_on_keypress_SLASH	8	stimuli_target_rectanglediamonds.svg	stimuli_distractor_trianglediamonds.svg	4	yes	57	0	753	0	0			0	0			1				0	
6.6.1	win	2023-06-13	02:03:57	02:07:03	182513	6441890f4ea5d3738776aff4	3	1	practice_slash	5	practice_slash	9	stimuli_distractor_trianglediamonds.svg	stimuli_target_rectanglediamonds.svg	10	yes	53	1	1634	0	0			0	0			1				0	
6.6.1	win	2023-06-13	02:03:57	02:07:03	182513	6441890f4ea5d3738776aff4	3	1	practice_slash	5	advance_on_keypress_SLASH	10	stimuli_distractor_trianglediamonds.svg	stimuli_target_rectanglediamonds.svg	10	yes	57	0	452	0	0			0	0			1				0	
6.6.1	win	2023-06-13	02:03:57	02:07:07	186616	6441890f4ea5d3738776aff4	3	1	practice_slash	5	practice_slash	11	stimuli_distractor_diamondtriangles.svg	stimuli_distractor_diamondtriangles.svg	13	no	0	1	2000	0	0			0	0			1				0	
6.6.1	win	2023-06-13	02:03:57	02:07:07	186616	6441890f4ea5d3738776aff4	3	1	practice_slash	5	advance_on_keypress_SLASH	12	stimuli_distractor_diamondtriangles.svg	stimuli_distractor_diamondtriangles.svg	13	no	57	0	477	0	0			0	0			1				0	
6.6.1	win	2023-06-13	02:03:57	02:07:11	190648	6441890f4ea5d3738776aff4	3	1	practice_slash	5	practice_slash	13	stimuli_target_squarediamonds.svg	stimuli_distractor_trianglediamonds.svg	5	yes	53	1	1913	0	0			0	0			1				0	
6.6.1	win	2023-06-13	02:03:57	02:07:11	190648	6441890f4ea5d3738776aff4	3	1	practice_slash	5	advance_on_keypress_SLASH	14	stimuli_target_squarediamonds.svg	stimuli_distractor_trianglediamonds.svg	5	yes	57	0	1689	0	0			0	0			1				0	
6.6.1	win	2023-06-13	02:03:57	02:07:16	195399	6441890f4ea5d3738776aff4	3	1	practice_slash	5	practice_slash	15	stimuli_distractor_diamondtriangles.svg	stimuli_target_rectangletriangles.svg	7	yes	53	1	1427	0	0			0	0			1				0	
6.6.1	win	2023-06-13	02:03:57	02:07:16	195399	6441890f4ea5d3738776aff4	3	1	practice_slash	5	advance_on_keypress_SLASH	16	stimuli_distractor_diamondtriangles.svg	stimuli_target_rectangletriangles.svg	7	yes	57	0	455	0	0			0	0			1				0	
6.6.1	win	2023-06-13	02:03:57	02:07:19	198817	6441890f4ea5d3738776aff4	3	1	practice_slash	5	practice_slash	17	stimuli_distractor_trianglediamonds.svg	stimuli_target_diamondrectangles.svg	12	yes	53	1	1323	0	0			0	0			1				0	
6.6.1	win	2023-06-13	02:03:57	02:07:19	198817	6441890f4ea5d3738776aff4	3	1	practice_slash	5	advance_on_keypress_SLASH	18	stimuli_distractor_trianglediamonds.svg	stimuli_target_diamondrectangles.svg	12	yes	57	0	395	0	0			0	0			1				0	
6.6.1	win	2023-06-13	02:03:57	02:07:23	202864	6441890f4ea5d3738776aff4	3	1	practice_slash	5	practice_slash	19	stimuli_target_diamondsquares.svg	stimuli_distractor_trianglediamonds.svg	6	yes	0	0	2000	0	0			0	0			1				0	
6.6.1	win	2023-06-13	02:03:57	02:07:23	202864	6441890f4ea5d3738776aff4	3	1	practice_slash	5	advance_on_keypress_SLASH	20	stimuli_target_diamondsquares.svg	stimuli_distractor_trianglediamonds.svg	6	yes	57	0	374	0	0			0	0			1				0	
6.6.1	win	2023-06-13	02:03:57	02:07:27	206883	6441890f4ea5d3738776aff4	3	1	practice_slash	5	practice_slash	21	stimuli_distractor_diamondtriangles.svg	stimuli_distractor_trianglediamonds.svg	14	no	0	1	2000	0	0			0	0			1				0	
6.6.1	win	2023-06-13	02:03:57	02:07:27	206883	6441890f4ea5d3738776aff4	3	1	practice_slash	5	advance_on_keypress_SLASH	22	stimuli_distractor_diamondtriangles.svg	stimuli_distractor_trianglediamonds.svg	14	no	57	0	506	0	0			0	0			1				0	
6.6.1	win	2023-06-13	02:03:57	02:07:31	211036	6441890f4ea5d3738776aff4	3	1	practice_slash	5	practice_slash	23	stimuli_target_squarediamonds.svg	stimuli_distractor_diamondtriangles.svg	2	yes	0	0	2000	0	0			0	0			1				0	
6.6.1	win	2023-06-13	02:03:57	02:07:31	211036	6441890f4ea5d3738776aff4	3	1	practice_slash	5	advance_on_keypress_SLASH	24	stimuli_target_squarediamonds.svg	stimuli_distractor_diamondtriangles.svg	2	yes	57	0	488	0	0			0	0			1				0	
6.6.1	win	2023-06-13	02:03:57	02:07:35	214680	6441890f4ea5d3738776aff4	3	1	practice_slash	5	practice_slash	25	stimuli_distractor_trianglediamonds.svg	stimuli_distractor_trianglediamonds.svg	15	no	53	0	1507	0	0			0	0			1				0	
6.6.1	win	2023-06-13	02:03:57	02:07:35	214680	6441890f4ea5d3738776aff4	3	1	practice_slash	5	advance_on_keypress_SLASH	26	stimuli_distractor_trianglediamonds.svg	stimuli_distractor_trianglediamonds.svg	15	no	57	0	420	0	0			0	0			1				0	
6.6.1	win	2023-06-13	02:03:57	02:07:38	218112	6441890f4ea5d3738776aff4	3	1	practice_slash	5	practice_slash	27	stimuli_distractor_trianglediamonds.svg	stimuli_target_squarediamonds.svg	11	yes	53	1	1370	0	0			0	0			1				0	
6.6.1	win	2023-06-13	02:03:57	02:07:38	218112	6441890f4ea5d3738776aff4	3	1	practice_slash	5	advance_on_keypress_SLASH	28	stimuli_distractor_trianglediamonds.svg	stimuli_target_squarediamonds.svg	11	yes	57	0	464	0	0			0	0			1				0	
6.6.1	win	2023-06-13	02:03:57	02:07:42	222212	6441890f4ea5d3738776aff4	3	1	practice_slash	5	practice_slash	29	stimuli_distractor_trianglediamonds.svg	stimuli_distractor_diamondtriangles.svg	16	no	0	1	2000	0	0			0	0			1				0	
6.6.1	win	2023-06-13	02:03:57	02:07:42	222212	6441890f4ea5d3738776aff4	3	1	practice_slash	5	advance_on_keypress_SLASH	30	stimuli_distractor_trianglediamonds.svg	stimuli_distractor_diamondtriangles.svg	16	no	57	0	417	0	0			0	0			1				0	
6.6.1	win	2023-06-13	02:03:57	02:07:46	225791	6441890f4ea5d3738776aff4	3	1	practice_slash	5	practice_slash	31	stimuli_target_diamondsquares.svg	stimuli_distractor_diamondtriangles.svg	3	yes	53	1	1510	0	0			0	0			1				0	
6.6.1	win	2023-06-13	02:03:57	02:07:46	225791	6441890f4ea5d3738776aff4	3	1	practice_slash	5	advance_on_keypress_SLASH	32	stimuli_target_diamondsquares.svg	stimuli_distractor_diamondtriangles.svg	3	yes	57	0	183	0	0			0	0			1				0	
6.6.1	win	2023-06-13	02:03:57	02:07:58	237655	6441890f4ea5d3738776aff4	3	1	main_slash	7	main_slash	1	stimuli_distractor_trianglediamonds.svg	stimuli_distractor_trianglediamonds.svg	34	no	53	0	1046	0	0			0	0			1				0	
6.6.1	win	2023-06-13	02:03:57	02:07:58	237655	6441890f4ea5d3738776aff4	3	1	main_slash	7	advance_on_keypress_SLASH	2	stimuli_distractor_trianglediamonds.svg	stimuli_distractor_trianglediamonds.svg	34	no	57	0	1299	0	0			0	0			1				0	
6.6.1	win	2023-06-13	02:03:57	02:08:02	241595	6441890f4ea5d3738776aff4	3	1	main_slash	7	main_slash	3	stimuli_target_diamondrectangles.svg	stimuli_distractor_diamondtriangles.svg	23	yes	0	0	2000	0	0			0	0			1				0	
6.6.1	win	2023-06-13	02:03:57	02:08:02	241595	6441890f4ea5d3738776aff4	3	1	main_slash	7	advance_on_keypress_SLASH	4	stimuli_target_diamondrectangles.svg	stimuli_distractor_diamondtriangles.svg	23	yes	57	0	561	0	0			0	0			1				0	
6.6.1	win	2023-06-13	02:03:57	02:08:04	244255	6441890f4ea5d3738776aff4	3	1	main_slash	7	main_slash	5	stimuli_target_squaretriangles.svg	stimuli_distractor_diamondtriangles.svg	7	yes	53	1	1457	0	0			0	0			1				0	
6.6.1	win	2023-06-13	02:03:57	02:08:04	244255	6441890f4ea5d3738776aff4	3	1	main_slash	7	advance_on_keypress_SLASH	6	stimuli_target_squaretriangles.svg	stimuli_distractor_diamondtriangles.svg	7	yes	57	0	677	0	0			0	0			1				0	
6.6.1	win	2023-06-13	02:03:57	02:08:08	247567	6441890f4ea5d3738776aff4	3	1	main_slash	7	main_slash	7	stimuli_target_trianglesquares.svg	stimuli_distractor_diamondtriangles.svg	22	yes	0	0	2000	0	0			0	0			1				0	
6.6.1	win	2023-06-13	02:03:57	02:08:08	247567	6441890f4ea5d3738776aff4	3	1	main_slash	7	advance_on_keypress_SLASH	8	stimuli_target_trianglesquares.svg	stimuli_distractor_diamondtriangles.svg	22	yes	57	0	558	0	0			0	0			1				0	
6.6.1	win	2023-06-13	02:03:57	02:08:11	250447	6441890f4ea5d3738776aff4	3	1	main_slash	7	main_slash	9	stimuli_target_trianglerectangles.svg	stimuli_distractor_diamondtriangles.svg	21	yes	53	1	1678	0	0			0	0			1				0	
6.6.1	win	2023-06-13	02:03:57	02:08:11	250447	6441890f4ea5d3738776aff4	3	1	main_slash	7	advance_on_keypress_SLASH	10	stimuli_target_trianglerectangles.svg	stimuli_distractor_diamondtriangles.svg	21	yes	57	0	736	0	0			0	0			1				0	
6.6.1	win	2023-06-13	02:03:57	02:08:14	253822	6441890f4ea5d3738776aff4	3	1	main_slash	7	main_slash	11	stimuli_distractor_diamondtriangles.svg	stimuli_distractor_trianglediamonds.svg	37	no	0	1	2000	0	0			0	0			1				0	
6.6.1	win	2023-06-13	02:03:57	02:08:14	253822	6441890f4ea5d3738776aff4	3	1	main_slash	7	advance_on_keypress_SLASH	12	stimuli_distractor_diamondtriangles.svg	stimuli_distractor_trianglediamonds.svg	37	no	57	0	2470	0	0			0	0			1				0	
6.6.1	win	2023-06-13	02:03:57	02:08:19	258943	6441890f4ea5d3738776aff4	3	1	main_slash	7	main_slash	13	stimuli_target_trianglerectangles.svg	stimuli_distractor_trianglediamonds.svg	17	yes	0	0	2000	0	0			0	0			1				0	
6.6.1	win	2023-06-13	02:03:57	02:08:19	258943	6441890f4ea5d3738776aff4	3	1	main_slash	7	advance_on_keypress_SLASH	14	stimuli_target_trianglerectangles.svg	stimuli_distractor_trianglediamonds.svg	17	yes	57	0	605	0	0			0	0			1				0	
6.6.1	win	2023-06-13	02:03:57	02:08:22	261671	6441890f4ea5d3738776aff4	3	1	main_slash	7	main_slash	15	stimuli_distractor_trianglediamonds.svg	stimuli_target_diamondsquares.svg	28	yes	53	1	1475	0	0			0	0			1				0	
6.6.1	win	2023-06-13	02:03:57	02:08:22	261671	6441890f4ea5d3738776aff4	3	1	main_slash	7	advance_on_keypress_SLASH	16	stimuli_distractor_trianglediamonds.svg	stimuli_target_diamondsquares.svg	28	yes	57	0	1326	0	0			0	0			1				0	
6.6.1	win	2023-06-13	02:03:57	02:08:26	265632	6441890f4ea5d3738776aff4	3	1	main_slash	7	main_slash	17	stimuli_target_diamondrectangles.svg	stimuli_distractor_trianglediamonds.svg	19	yes	0	0	2000	0	0			0	0			1				0	
6.6.1	win	2023-06-13	02:03:57	02:08:26	265632	6441890f4ea5d3738776aff4	3	1	main_slash	7	advance_on_keypress_SLASH	18	stimuli_target_diamondrectangles.svg	stimuli_distractor_trianglediamonds.svg	19	yes	57	0	428	0	0			0	0			1				0	
6.6.1	win	2023-06-13	02:03:57	02:08:29	268701	6441890f4ea5d3738776aff4	3	1	main_slash	7	main_slash	19	stimuli_distractor_trianglediamonds.svg	stimuli_target_diamondrectangles.svg	27	yes	0	0	2000	0	0			0	0			1				0	
6.6.1	win	2023-06-13	02:03:57	02:08:29	268701	6441890f4ea5d3738776aff4	3	1	main_slash	7	advance_on_keypress_SLASH	20	stimuli_distractor_trianglediamonds.svg	stimuli_target_diamondrectangles.svg	27	yes	57	0	984	0	0			0	0			1				0	
6.6.1	win	2023-06-13	02:03:57	02:08:32	271456	6441890f4ea5d3738776aff4	3	1	main_slash	7	main_slash	21	stimuli_target_diamondsquares.svg	stimuli_distractor_diamondtriangles.svg	24	yes	53	1	1135	0	0			0	0			1				0	
6.6.1	win	2023-06-13	02:03:57	02:08:32	271456	6441890f4ea5d3738776aff4	3	1	main_slash	7	advance_on_keypress_SLASH	22	stimuli_target_diamondsquares.svg	stimuli_distractor_diamondtriangles.svg	24	yes	57	0	799	0	0			0	0			1				0	
6.6.1	win	2023-06-13	02:03:57	02:08:34	273887	6441890f4ea5d3738776aff4	3	1	main_slash	7	main_slash	23	stimuli_target_squaretriangles.svg	stimuli_distractor_trianglediamonds.svg	3	yes	53	1	981	0	0			0	0			1				0	
6.6.1	win	2023-06-13	02:03:57	02:08:34	273887	6441890f4ea5d3738776aff4	3	1	main_slash	7	advance_on_keypress_SLASH	24	stimuli_target_squaretriangles.svg	stimuli_distractor_trianglediamonds.svg	3	yes	57	0	580	0	0			0	0			1				0	
6.6.1	win	2023-06-13	02:03:57	02:08:36	276087	6441890f4ea5d3738776aff4	3	1	main_slash	7	main_slash	25	stimuli_target_rectanglediamonds.svg	stimuli_distractor_diamondtriangles.svg	6	yes	53	1	996	0	0			0	0			1				0	
6.6.1	win	2023-06-13	02:03:57	02:08:36	276087	6441890f4ea5d3738776aff4	3	1	main_slash	7	advance_on_keypress_SLASH	26	stimuli_target_rectanglediamonds.svg	stimuli_distractor_diamondtriangles.svg	6	yes	57	0	618	0	0			0	0			1				0	
6.6.1	win	2023-06-13	02:03:57	02:08:39	278703	6441890f4ea5d3738776aff4	3	1	main_slash	7	main_slash	27	stimuli_target_rectangletriangles.svg	stimuli_distractor_trianglediamonds.svg	1	yes	53	1	1360	0	0			0	0			1				0	
6.6.1	win	2023-06-13	02:03:57	02:08:39	278703	6441890f4ea5d3738776aff4	3	1	main_slash	7	advance_on_keypress_SLASH	28	stimuli_target_rectangletriangles.svg	stimuli_distractor_trianglediamonds.svg	1	yes	57	0	599	0	0			0	0			1				0	
6.6.1	win	2023-06-13	02:03:57	02:08:41	281047	6441890f4ea5d3738776aff4	3	1	main_slash	7	main_slash	29	stimuli_target_rectangletriangles.svg	stimuli_distractor_diamondtriangles.svg	5	yes	53	1	1101	0	0			0	0			1				0	
6.6.1	win	2023-06-13	02:03:57	02:08:41	281047	6441890f4ea5d3738776aff4	3	1	main_slash	7	advance_on_keypress_SLASH	30	stimuli_target_rectangletriangles.svg	stimuli_distractor_diamondtriangles.svg	5	yes	57	0	775	0	0			0	0			1				0	
6.6.1	win	2023-06-13	02:03:57	02:08:45	284464	6441890f4ea5d3738776aff4	3	1	main_slash	7	main_slash	31	stimuli_distractor_diamondtriangles.svg	stimuli_target_diamondrectangles.svg	31	yes	0	0	2000	0	0			0	0			1				0	
6.6.1	win	2023-06-13	02:03:57	02:08:45	284464	6441890f4ea5d3738776aff4	3	1	main_slash	7	advance_on_keypress_SLASH	32	stimuli_distractor_diamondtriangles.svg	stimuli_target_diamondrectangles.svg	31	yes	57	0	732	0	0			0	0			1				0	
6.6.1	win	2023-06-13	02:03:57	02:08:48	287407	6441890f4ea5d3738776aff4	3	1	main_slash	7	main_slash	33	stimuli_target_rectanglediamonds.svg	stimuli_distractor_trianglediamonds.svg	2	yes	53	1	1556	0	0			0	0			1				0	
6.6.1	win	2023-06-13	02:03:57	02:08:48	287407	6441890f4ea5d3738776aff4	3	1	main_slash	7	advance_on_keypress_SLASH	34	stimuli_target_rectanglediamonds.svg	stimuli_distractor_trianglediamonds.svg	2	yes	57	0	828	0	0			0	0			1				0	
6.6.1	win	2023-06-13	02:03:57	02:08:51	290471	6441890f4ea5d3738776aff4	3	1	main_slash	7	main_slash	35	stimuli_distractor_diamondtriangles.svg	stimuli_target_squaretriangles.svg	15	yes	53	1	1601	0	0			0	0			1				0	
6.6.1	win	2023-06-13	02:03:57	02:08:51	290471	6441890f4ea5d3738776aff4	3	1	main_slash	7	advance_on_keypress_SLASH	36	stimuli_distractor_diamondtriangles.svg	stimuli_target_squaretriangles.svg	15	yes	57	0	527	0	0			0	0			1				0	
6.6.1	win	2023-06-13	02:03:57	02:08:54	293639	6441890f4ea5d3738776aff4	3	1	main_slash	7	main_slash	37	stimuli_distractor_diamondtriangles.svg	stimuli_distractor_diamondtriangles.svg	40	no	0	1	2000	0	0			0	0			1				0	
6.6.1	win	2023-06-13	02:03:57	02:08:54	293639	6441890f4ea5d3738776aff4	3	1	main_slash	7	advance_on_keypress_SLASH	38	stimuli_distractor_diamondtriangles.svg	stimuli_distractor_diamondtriangles.svg	40	no	57	0	461	0	0			0	0			1				0	
6.6.1	win	2023-06-13	02:03:57	02:08:57	296741	6441890f4ea5d3738776aff4	3	1	main_slash	7	main_slash	39	stimuli_distractor_trianglediamonds.svg	stimuli_distractor_diamondtriangles.svg	36	no	0	1	2000	0	0			0	0			1				0	
6.6.1	win	2023-06-13	02:03:57	02:08:57	296741	6441890f4ea5d3738776aff4	3	1	main_slash	7	advance_on_keypress_SLASH	40	stimuli_distractor_trianglediamonds.svg	stimuli_distractor_diamondtriangles.svg	36	no	57	0	415	0	0			0	0			1				0	
6.6.1	win	2023-06-13	02:03:57	02:08:59	299127	6441890f4ea5d3738776aff4	3	1	main_slash	7	main_slash	41	stimuli_distractor_diamondtriangles.svg	stimuli_distractor_trianglediamonds.svg	38	no	53	0	1316	0	0			0	0			1				0	
6.6.1	win	2023-06-13	02:03:57	02:08:59	299127	6441890f4ea5d3738776aff4	3	1	main_slash	7	advance_on_keypress_SLASH	42	stimuli_distractor_diamondtriangles.svg	stimuli_distractor_trianglediamonds.svg	38	no	57	0	773	0	0			0	0			1				0	
6.6.1	win	2023-06-13	02:03:57	02:09:02	301871	6441890f4ea5d3738776aff4	3	1	main_slash	7	main_slash	43	stimuli_target_squarediamonds.svg	stimuli_distractor_trianglediamonds.svg	4	yes	53	1	1325	0	0			0	0			1				0	
6.6.1	win	2023-06-13	02:03:57	02:09:02	301871	6441890f4ea5d3738776aff4	3	1	main_slash	7	advance_on_keypress_SLASH	44	stimuli_target_squarediamonds.svg	stimuli_distractor_trianglediamonds.svg	4	yes	57	0	782	0	0			0	0			1				0	
6.6.1	win	2023-06-13	02:03:57	02:09:05	305298	6441890f4ea5d3738776aff4	3	1	main_slash	7	main_slash	45	stimuli_distractor_diamondtriangles.svg	stimuli_target_diamondsquares.svg	32	yes	0	0	2000	0	0			0	0			1				0	
6.6.1	win	2023-06-13	02:03:57	02:09:05	305298	6441890f4ea5d3738776aff4	3	1	main_slash	7	advance_on_keypress_SLASH	46	stimuli_distractor_diamondtriangles.svg	stimuli_target_diamondsquares.svg	32	yes	57	0	497	0	0			0	0			1				0	
6.6.1	win	2023-06-13	02:03:57	02:09:08	307407	6441890f4ea5d3738776aff4	3	1	main_slash	7	main_slash	47	stimuli_distractor_diamondtriangles.svg	stimuli_target_trianglerectangles.svg	29	yes	53	1	972	0	0			0	0			1				0	
6.6.1	win	2023-06-13	02:03:57	02:09:08	307407	6441890f4ea5d3738776aff4	3	1	main_slash	7	advance_on_keypress_SLASH	48	stimuli_distractor_diamondtriangles.svg	stimuli_target_trianglerectangles.svg	29	yes	57	0	804	0	0			0	0			1				0	
6.6.1	win	2023-06-13	02:03:57	02:09:11	310853	6441890f4ea5d3738776aff4	3	1	main_slash	7	main_slash	49	stimuli_distractor_trianglediamonds.svg	stimuli_distractor_trianglediamonds.svg	33	no	0	1	2000	0	0			0	0			1				0	
6.6.1	win	2023-06-13	02:03:57	02:09:11	310853	6441890f4ea5d3738776aff4	3	1	main_slash	7	advance_on_keypress_SLASH	50	stimuli_distractor_trianglediamonds.svg	stimuli_distractor_trianglediamonds.svg	33	no	57	0	343	0	0			0	0			1				0	
6.6.1	win	2023-06-13	02:03:57	02:09:13	313143	6441890f4ea5d3738776aff4	3	1	main_slash	7	main_slash	51	stimuli_distractor_trianglediamonds.svg	stimuli_target_squarediamonds.svg	12	yes	53	1	1304	0	0			0	0			1				0	
6.6.1	win	2023-06-13	02:03:57	02:09:13	313143	6441890f4ea5d3738776aff4	3	1	main_slash	7	advance_on_keypress_SLASH	52	stimuli_distractor_trianglediamonds.svg	stimuli_target_squarediamonds.svg	12	yes	57	0	762	0	0			0	0			1				0	
6.6.1	win	2023-06-13	02:03:57	02:09:16	315855	6441890f4ea5d3738776aff4	3	1	main_slash	7	main_slash	53	stimuli_distractor_trianglediamonds.svg	stimuli_target_trianglerectangles.svg	25	yes	53	1	1314	0	0			0	0			1				0	
6.6.1	win	2023-06-13	02:03:57	02:09:16	315855	6441890f4ea5d3738776aff4	3	1	main_slash	7	advance_on_keypress_SLASH	54	stimuli_distractor_trianglediamonds.svg	stimuli_target_trianglerectangles.svg	25	yes	57	0	603	0	0			0	0			1				0	
6.6.1	win	2023-06-13	02:03:57	02:09:19	318503	6441890f4ea5d3738776aff4	3	1	main_slash	7	main_slash	55	stimuli_distractor_trianglediamonds.svg	stimuli_target_rectanglediamonds.svg	10	yes	53	1	1409	0	0			0	0			1				0	
6.6.1	win	2023-06-13	02:03:57	02:09:19	318503	6441890f4ea5d3738776aff4	3	1	main_slash	7	advance_on_keypress_SLASH	56	stimuli_distractor_trianglediamonds.svg	stimuli_target_rectanglediamonds.svg	10	yes	57	0	1151	0	0			0	0			1				0	
6.6.1	win	2023-06-13	02:03:57	02:09:23	322313	6441890f4ea5d3738776aff4	3	1	main_slash	7	main_slash	57	stimuli_distractor_trianglediamonds.svg	stimuli_distractor_diamondtriangles.svg	35	no	0	1	2000	0	0			0	0			1				0	
6.6.1	win	2023-06-13	02:03:57	02:09:23	322313	6441890f4ea5d3738776aff4	3	1	main_slash	7	advance_on_keypress_SLASH	58	stimuli_distractor_trianglediamonds.svg	stimuli_distractor_diamondtriangles.svg	35	no	57	0	331	0	0			0	0			1				0	
6.6.1	win	2023-06-13	02:03:57	02:09:25	324839	6441890f4ea5d3738776aff4	3	1	main_slash	7	main_slash	59	stimuli_target_squarediamonds.svg	stimuli_distractor_diamondtriangles.svg	8	yes	53	1	1540	0	0			0	0			1				0	
6.6.1	win	2023-06-13	02:03:57	02:09:25	324839	6441890f4ea5d3738776aff4	3	1	main_slash	7	advance_on_keypress_SLASH	60	stimuli_target_squarediamonds.svg	stimuli_distractor_diamondtriangles.svg	8	yes	57	0	756	0	0			0	0			1				0	
6.6.1	win	2023-06-13	02:03:57	02:09:28	328235	6441890f4ea5d3738776aff4	3	1	main_slash	7	main_slash	61	stimuli_distractor_diamondtriangles.svg	stimuli_distractor_diamondtriangles.svg	39	no	0	1	2000	0	0			0	0			1				0	
6.6.1	win	2023-06-13	02:03:57	02:09:28	328235	6441890f4ea5d3738776aff4	3	1	main_slash	7	advance_on_keypress_SLASH	62	stimuli_distractor_diamondtriangles.svg	stimuli_distractor_diamondtriangles.svg	39	no	57	0	561	0	0			0	0			1				0	
6.6.1	win	2023-06-13	02:03:57	02:09:31	330806	6441890f4ea5d3738776aff4	3	1	main_slash	7	main_slash	63	stimuli_distractor_trianglediamonds.svg	stimuli_target_squaretriangles.svg	11	yes	53	1	1370	0	0			0	0			1				0	
6.6.1	win	2023-06-13	02:03:57	02:09:31	330806	6441890f4ea5d3738776aff4	3	1	main_slash	7	advance_on_keypress_SLASH	64	stimuli_distractor_trianglediamonds.svg	stimuli_target_squaretriangles.svg	11	yes	57	0	825	0	0			0	0			1				0	
6.6.1	win	2023-06-13	02:03:57	02:09:34	334273	6441890f4ea5d3738776aff4	3	1	main_slash	7	main_slash	65	stimuli_distractor_trianglediamonds.svg	stimuli_target_trianglesquares.svg	26	yes	0	0	2000	0	0			0	0			1				0	
6.6.1	win	2023-06-13	02:03:57	02:09:34	334273	6441890f4ea5d3738776aff4	3	1	main_slash	7	advance_on_keypress_SLASH	66	stimuli_distractor_trianglediamonds.svg	stimuli_target_trianglesquares.svg	26	yes	57	0	891	0	0			0	0			1				0	
6.6.1	win	2023-06-13	02:03:57	02:09:37	336935	6441890f4ea5d3738776aff4	3	1	main_slash	7	main_slash	67	stimuli_distractor_diamondtriangles.svg	stimuli_target_rectangletriangles.svg	13	yes	53	1	1126	0	0			0	0			1				0	
6.6.1	win	2023-06-13	02:03:57	02:09:37	336935	6441890f4ea5d3738776aff4	3	1	main_slash	7	advance_on_keypress_SLASH	68	stimuli_distractor_diamondtriangles.svg	stimuli_target_rectangletriangles.svg	13	yes	57	0	543	0	0			0	0			1				0	
6.6.1	win	2023-06-13	02:03:57	02:09:39	339063	6441890f4ea5d3738776aff4	3	1	main_slash	7	main_slash	69	stimuli_target_diamondsquares.svg	stimuli_distractor_trianglediamonds.svg	20	yes	53	1	952	0	0			0	0			1				0	
6.6.1	win	2023-06-13	02:03:57	02:09:39	339063	6441890f4ea5d3738776aff4	3	1	main_slash	7	advance_on_keypress_SLASH	70	stimuli_target_diamondsquares.svg	stimuli_distractor_trianglediamonds.svg	20	yes	57	0	424	0	0			0	0			1				0	
6.6.1	win	2023-06-13	02:03:57	02:09:42	342130	6441890f4ea5d3738776aff4	3	1	main_slash	7	main_slash	71	stimuli_distractor_diamondtriangles.svg	stimuli_target_rectanglediamonds.svg	14	yes	0	0	2000	0	0			0	0			1				0	
6.6.1	win	2023-06-13	02:03:57	02:09:42	342130	6441890f4ea5d3738776aff4	3	1	main_slash	7	advance_on_keypress_SLASH	72	stimuli_distractor_diamondtriangles.svg	stimuli_target_rectanglediamonds.svg	14	yes	57	0	291	0	0			0	0			1				0	
6.6.1	win	2023-06-13	02:03:57	02:09:44	344135	6441890f4ea5d3738776aff4	3	1	main_slash	7	main_slash	73	stimuli_distractor_trianglediamonds.svg	stimuli_target_rectangletriangles.svg	9	yes	53	1	1070	0	0			0	0			1				0	
6.6.1	win	2023-06-13	02:03:57	02:09:44	344135	6441890f4ea5d3738776aff4	3	1	main_slash	7	advance_on_keypress_SLASH	74	stimuli_distractor_trianglediamonds.svg	stimuli_target_rectangletriangles.svg	9	yes	57	0	657	0	0			0	0			1				0	
6.6.1	win	2023-06-13	02:03:57	02:09:47	346607	6441890f4ea5d3738776aff4	3	1	main_slash	7	main_slash	75	stimuli_distractor_diamondtriangles.svg	stimuli_target_trianglesquares.svg	30	yes	53	1	1173	0	0			0	0			1				0	
6.6.1	win	2023-06-13	02:03:57	02:09:47	346607	6441890f4ea5d3738776aff4	3	1	main_slash	7	advance_on_keypress_SLASH	76	stimuli_distractor_diamondtriangles.svg	stimuli_target_trianglesquares.svg	30	yes	57	0	436	0	0			0	0			1				0	
6.6.1	win	2023-06-13	02:03:57	02:09:50	349686	6441890f4ea5d3738776aff4	3	1	main_slash	7	main_slash	77	stimuli_distractor_diamondtriangles.svg	stimuli_target_squarediamonds.svg	16	yes	0	0	2000	0	0			0	0			1				0	
6.6.1	win	2023-06-13	02:03:57	02:09:50	349686	6441890f4ea5d3738776aff4	3	1	main_slash	7	advance_on_keypress_SLASH	78	stimuli_distractor_diamondtriangles.svg	stimuli_target_squarediamonds.svg	16	yes	57	0	422	0	0			0	0			1				0	
6.6.1	win	2023-06-13	02:03:57	02:09:53	352335	6441890f4ea5d3738776aff4	3	1	main_slash	7	main_slash	79	stimuli_target_trianglesquares.svg	stimuli_distractor_trianglediamonds.svg	18	yes	53	1	1580	0	0			0	0			1				0	
6.6.1	win	2023-06-13	02:03:57	02:09:53	352335	6441890f4ea5d3738776aff4	3	1	main_slash	7	advance_on_keypress_SLASH	80	stimuli_target_trianglesquares.svg	stimuli_distractor_trianglediamonds.svg	18	yes	57	0	899	0	0			0	0			1				0	
6.6.1	win	2023-06-13	02:03:57	02:09:55	355223	6441890f4ea5d3738776aff4	3	1	main_slash	7	main_slash	81	stimuli_distractor_trianglediamonds.svg	stimuli_target_squaretriangles.svg	11	yes	53	1	1348	0	0			0	0			1				0	
6.6.1	win	2023-06-13	02:03:57	02:09:55	355223	6441890f4ea5d3738776aff4	3	1	main_slash	7	advance_on_keypress_SLASH	82	stimuli_distractor_trianglediamonds.svg	stimuli_target_squaretriangles.svg	11	yes	57	0	725	0	0			0	0			1				0	
6.6.1	win	2023-06-13	02:03:57	02:09:59	358577	6441890f4ea5d3738776aff4	3	1	main_slash	7	main_slash	83	stimuli_target_diamondrectangles.svg	stimuli_distractor_diamondtriangles.svg	23	yes	0	0	2000	0	0			0	0			1				0	
6.6.1	win	2023-06-13	02:03:57	02:09:59	358577	6441890f4ea5d3738776aff4	3	1	main_slash	7	advance_on_keypress_SLASH	84	stimuli_target_diamondrectangles.svg	stimuli_distractor_diamondtriangles.svg	23	yes	57	0	371	0	0			0	0			1				0	
6.6.1	win	2023-06-13	02:03:57	02:10:01	360967	6441890f4ea5d3738776aff4	3	1	main_slash	7	main_slash	85	stimuli_distractor_diamondtriangles.svg	stimuli_target_diamondsquares.svg	32	yes	53	1	1371	0	0			0	0			1				0	
6.6.1	win	2023-06-13	02:03:57	02:10:01	360967	6441890f4ea5d3738776aff4	3	1	main_slash	7	advance_on_keypress_SLASH	86	stimuli_distractor_diamondtriangles.svg	stimuli_target_diamondsquares.svg	32	yes	57	0	650	0	0			0	0			1				0	
6.6.1	win	2023-06-13	02:03:57	02:10:04	364265	6441890f4ea5d3738776aff4	3	1	main_slash	7	main_slash	87	stimuli_distractor_diamondtriangles.svg	stimuli_distractor_diamondtriangles.svg	39	no	0	1	2000	0	0			0	0			1				0	
6.6.1	win	2023-06-13	02:03:57	02:10:04	364265	6441890f4ea5d3738776aff4	3	1	main_slash	7	advance_on_keypress_SLASH	88	stimuli_distractor_diamondtriangles.svg	stimuli_distractor_diamondtriangles.svg	39	no	57	0	411	0	0			0	0			1				0	
6.6.1	win	2023-06-13	02:03:57	02:10:07	366807	6441890f4ea5d3738776aff4	3	1	main_slash	7	main_slash	89	stimuli_target_squaretriangles.svg	stimuli_distractor_trianglediamonds.svg	3	yes	53	1	1490	0	0			0	0			1				0	
6.6.1	win	2023-06-13	02:03:57	02:10:07	366807	6441890f4ea5d3738776aff4	3	1	main_slash	7	advance_on_keypress_SLASH	90	stimuli_target_squaretriangles.svg	stimuli_distractor_trianglediamonds.svg	3	yes	57	0	1092	0	0			0	0			1				0	
6.6.1	win	2023-06-13	02:03:57	02:10:11	370439	6441890f4ea5d3738776aff4	3	1	main_slash	7	main_slash	91	stimuli_distractor_trianglediamonds.svg	stimuli_target_trianglerectangles.svg	25	yes	53	1	1901	0	0			0	0			1				0	
6.6.1	win	2023-06-13	02:03:57	02:10:11	370439	6441890f4ea5d3738776aff4	3	1	main_slash	7	advance_on_keypress_SLASH	92	stimuli_distractor_trianglediamonds.svg	stimuli_target_trianglerectangles.svg	25	yes	57	0	959	0	0			0	0			1				0	
6.6.1	win	2023-06-13	02:03:57	02:10:14	373687	6441890f4ea5d3738776aff4	3	1	main_slash	7	main_slash	93	stimuli_distractor_diamondtriangles.svg	stimuli_target_squarediamonds.svg	16	yes	53	1	1647	0	0			0	0			1				0	
6.6.1	win	2023-06-13	02:03:57	02:10:14	373687	6441890f4ea5d3738776aff4	3	1	main_slash	7	advance_on_keypress_SLASH	94	stimuli_distractor_diamondtriangles.svg	stimuli_target_squarediamonds.svg	16	yes	57	0	1051	0	0			0	0			1				0	
6.6.1	win	2023-06-13	02:03:57	02:10:17	376927	6441890f4ea5d3738776aff4	3	1	main_slash	7	main_slash	95	stimuli_distractor_trianglediamonds.svg	stimuli_distractor_trianglediamonds.svg	33	no	53	0	1551	0	0			0	0			1				0	
6.6.1	win	2023-06-13	02:03:57	02:10:17	376927	6441890f4ea5d3738776aff4	3	1	main_slash	7	advance_on_keypress_SLASH	96	stimuli_distractor_trianglediamonds.svg	stimuli_distractor_trianglediamonds.svg	33	no	57	0	422	0	0			0	0			1				0	
6.6.1	win	2023-06-13	02:03:57	02:10:20	379995	6441890f4ea5d3738776aff4	3	1	main_slash	7	main_slash	97	stimuli_target_trianglesquares.svg	stimuli_distractor_trianglediamonds.svg	18	yes	0	0	2000	0	0			0	0			1				0	
6.6.1	win	2023-06-13	02:03:57	02:10:20	379995	6441890f4ea5d3738776aff4	3	1	main_slash	7	advance_on_keypress_SLASH	98	stimuli_target_trianglesquares.svg	stimuli_distractor_trianglediamonds.svg	18	yes	57	0	785	0	0			0	0			1				0	
6.6.1	win	2023-06-13	02:03:57	02:10:23	382599	6441890f4ea5d3738776aff4	3	1	main_slash	7	main_slash	99	stimuli_distractor_trianglediamonds.svg	stimuli_target_trianglesquares.svg	26	yes	53	1	1168	0	0			0	0			1				0	
6.6.1	win	2023-06-13	02:03:57	02:10:23	382599	6441890f4ea5d3738776aff4	3	1	main_slash	7	advance_on_keypress_SLASH	100	stimuli_distractor_trianglediamonds.svg	stimuli_target_trianglesquares.svg	26	yes	57	0	807	0	0			0	0			1				0	
6.6.1	win	2023-06-13	02:03:57	02:10:25	384783	6441890f4ea5d3738776aff4	3	1	main_slash	7	main_slash	101	stimuli_target_diamondsquares.svg	stimuli_distractor_diamondtriangles.svg	24	yes	53	1	733	0	0			0	0			1				0	
6.6.1	win	2023-06-13	02:03:57	02:10:25	384783	6441890f4ea5d3738776aff4	3	1	main_slash	7	advance_on_keypress_SLASH	102	stimuli_target_diamondsquares.svg	stimuli_distractor_diamondtriangles.svg	24	yes	57	0	598	0	0			0	0			1				0	
6.6.1	win	2023-06-13	02:03:57	02:10:27	387071	6441890f4ea5d3738776aff4	3	1	main_slash	7	main_slash	103	stimuli_distractor_trianglediamonds.svg	stimuli_distractor_trianglediamonds.svg	34	no	53	0	1053	0	0			0	0			1				0	
6.6.1	win	2023-06-13	02:03:57	02:10:27	387071	6441890f4ea5d3738776aff4	3	1	main_slash	7	advance_on_keypress_SLASH	104	stimuli_distractor_trianglediamonds.svg	stimuli_distractor_trianglediamonds.svg	34	no	57	0	561	0	0			0	0			1				0	
6.6.1	win	2023-06-13	02:03:57	02:10:30	389359	6441890f4ea5d3738776aff4	3	1	main_slash	7	main_slash	105	stimuli_distractor_trianglediamonds.svg	stimuli_target_diamondrectangles.svg	27	yes	53	1	1089	0	0			0	0			1				0	
6.6.1	win	2023-06-13	02:03:57	02:10:30	389359	6441890f4ea5d3738776aff4	3	1	main_slash	7	advance_on_keypress_SLASH	106	stimuli_distractor_trianglediamonds.svg	stimuli_target_diamondrectangles.svg	27	yes	57	0	547	0	0			0	0			1				0	
6.6.1	win	2023-06-13	02:03:57	02:10:33	392539	6441890f4ea5d3738776aff4	3	1	main_slash	7	main_slash	107	stimuli_target_diamondsquares.svg	stimuli_distractor_trianglediamonds.svg	20	yes	0	0	2000	0	0			0	0			1				0	
6.6.1	win	2023-06-13	02:03:57	02:10:33	392539	6441890f4ea5d3738776aff4	3	1	main_slash	7	advance_on_keypress_SLASH	108	stimuli_target_diamondsquares.svg	stimuli_distractor_trianglediamonds.svg	20	yes	57	0	321	0	0			0	0			1				0	
6.6.1	win	2023-06-13	02:03:57	02:10:35	395063	6441890f4ea5d3738776aff4	3	1	main_slash	7	main_slash	109	stimuli_target_squarediamonds.svg	stimuli_distractor_diamondtriangles.svg	8	yes	53	1	1555	0	0			0	0			1				0	
6.6.1	win	2023-06-13	02:03:57	02:10:35	395063	6441890f4ea5d3738776aff4	3	1	main_slash	7	advance_on_keypress_SLASH	110	stimuli_target_squarediamonds.svg	stimuli_distractor_diamondtriangles.svg	8	yes	57	0	1179	0	0			0	0			1				0	
6.6.1	win	2023-06-13	02:03:57	02:10:38	398103	6441890f4ea5d3738776aff4	3	1	main_slash	7	main_slash	111	stimuli_distractor_diamondtriangles.svg	stimuli_target_trianglerectangles.svg	29	yes	53	1	1226	0	0			0	0			1				0	
6.6.1	win	2023-06-13	02:03:57	02:10:38	398103	6441890f4ea5d3738776aff4	3	1	main_slash	7	advance_on_keypress_SLASH	112	stimuli_distractor_diamondtriangles.svg	stimuli_target_trianglerectangles.svg	29	yes	57	0	799	0	0			0	0			1				0	
6.6.1	win	2023-06-13	02:03:57	02:10:42	401546	6441890f4ea5d3738776aff4	3	1	main_slash	7	main_slash	113	stimuli_distractor_diamondtriangles.svg	stimuli_distractor_diamondtriangles.svg	40	no	0	1	2000	0	0			0	0			1				0	
6.6.1	win	2023-06-13	02:03:57	02:10:42	401546	6441890f4ea5d3738776aff4	3	1	main_slash	7	advance_on_keypress_SLASH	114	stimuli_distractor_diamondtriangles.svg	stimuli_distractor_diamondtriangles.svg	40	no	57	0	282	0	0			0	0			1				0	
6.6.1	win	2023-06-13	02:03:57	02:10:44	403951	6441890f4ea5d3738776aff4	3	1	main_slash	7	main_slash	115	stimuli_distractor_diamondtriangles.svg	stimuli_target_trianglesquares.svg	30	yes	53	1	1469	0	0			0	0			1				0	
6.6.1	win	2023-06-13	02:03:57	02:10:44	403951	6441890f4ea5d3738776aff4	3	1	main_slash	7	advance_on_keypress_SLASH	116	stimuli_distractor_diamondtriangles.svg	stimuli_target_trianglesquares.svg	30	yes	57	0	1136	0	0			0	0			1				0	
6.6.1	win	2023-06-13	02:03:57	02:10:47	406767	6441890f4ea5d3738776aff4	3	1	main_slash	7	main_slash	117	stimuli_distractor_diamondtriangles.svg	stimuli_target_rectangletriangles.svg	13	yes	53	1	1032	0	0			0	0			1				0	
6.6.1	win	2023-06-13	02:03:57	02:10:47	406767	6441890f4ea5d3738776aff4	3	1	main_slash	7	advance_on_keypress_SLASH	118	stimuli_distractor_diamondtriangles.svg	stimuli_target_rectangletriangles.svg	13	yes	57	0	1637	0	0			0	0			1				0	
6.6.1	win	2023-06-13	02:03:57	02:10:51	410855	6441890f4ea5d3738776aff4	3	1	main_slash	7	main_slash	119	stimuli_distractor_diamondtriangles.svg	stimuli_distractor_trianglediamonds.svg	38	no	53	0	1817	0	0			0	0			1				0	
6.6.1	win	2023-06-13	02:03:57	02:10:51	410855	6441890f4ea5d3738776aff4	3	1	main_slash	7	advance_on_keypress_SLASH	120	stimuli_distractor_diamondtriangles.svg	stimuli_distractor_trianglediamonds.svg	38	no	57	0	438	0	0			0	0			1				0	
6.6.1	win	2023-06-13	02:03:57	02:10:53	413087	6441890f4ea5d3738776aff4	3	1	main_slash	7	main_slash	121	stimuli_target_squaretriangles.svg	stimuli_distractor_diamondtriangles.svg	7	yes	53	1	1147	0	0			0	0			1				0	
6.6.1	win	2023-06-13	02:03:57	02:10:53	413087	6441890f4ea5d3738776aff4	3	1	main_slash	7	advance_on_keypress_SLASH	122	stimuli_target_squaretriangles.svg	stimuli_distractor_diamondtriangles.svg	7	yes	57	0	939	0	0			0	0			1				0	
6.6.1	win	2023-06-13	02:03:57	02:10:56	415583	6441890f4ea5d3738776aff4	3	1	main_slash	7	main_slash	123	stimuli_target_rectangletriangles.svg	stimuli_distractor_trianglediamonds.svg	1	yes	53	1	924	0	0			0	0			1				0	
6.6.1	win	2023-06-13	02:03:57	02:10:56	415583	6441890f4ea5d3738776aff4	3	1	main_slash	7	advance_on_keypress_SLASH	124	stimuli_target_rectangletriangles.svg	stimuli_distractor_trianglediamonds.svg	1	yes	57	0	733	0	0			0	0			1				0	
6.6.1	win	2023-06-13	02:03:57	02:10:58	417679	6441890f4ea5d3738776aff4	3	1	main_slash	7	main_slash	125	stimuli_distractor_trianglediamonds.svg	stimuli_target_rectanglediamonds.svg	10	yes	53	1	718	0	0			0	0			1				0	
6.6.1	win	2023-06-13	02:03:57	02:10:58	417679	6441890f4ea5d3738776aff4	3	1	main_slash	7	advance_on_keypress_SLASH	126	stimuli_distractor_trianglediamonds.svg	stimuli_target_rectanglediamonds.svg	10	yes	57	0	440	0	0			0	0			1				0	
6.6.1	win	2023-06-13	02:03:57	02:11:00	419703	6441890f4ea5d3738776aff4	3	1	main_slash	7	main_slash	127	stimuli_distractor_diamondtriangles.svg	stimuli_target_squaretriangles.svg	15	yes	53	1	941	0	0			0	0			1				0	
6.6.1	win	2023-06-13	02:03:57	02:11:00	419703	6441890f4ea5d3738776aff4	3	1	main_slash	7	advance_on_keypress_SLASH	128	stimuli_distractor_diamondtriangles.svg	stimuli_target_squaretriangles.svg	15	yes	57	0	421	0	0			0	0			1				0	
6.6.1	win	2023-06-13	02:03:57	02:11:03	422764	6441890f4ea5d3738776aff4	3	1	main_slash	7	main_slash	129	stimuli_distractor_diamondtriangles.svg	stimuli_distractor_trianglediamonds.svg	37	no	0	1	2000	0	0			0	0			1				0	
6.6.1	win	2023-06-13	02:03:57	02:11:03	422764	6441890f4ea5d3738776aff4	3	1	main_slash	7	advance_on_keypress_SLASH	130	stimuli_distractor_diamondtriangles.svg	stimuli_distractor_trianglediamonds.svg	37	no	57	0	320	0	0			0	0			1				0	
6.6.1	win	2023-06-13	02:03:57	02:11:05	424847	6441890f4ea5d3738776aff4	3	1	main_slash	7	main_slash	131	stimuli_target_trianglesquares.svg	stimuli_distractor_diamondtriangles.svg	22	yes	53	1	1114	0	0			0	0			1				0	
6.6.1	win	2023-06-13	02:03:57	02:11:05	424847	6441890f4ea5d3738776aff4	3	1	main_slash	7	advance_on_keypress_SLASH	132	stimuli_target_trianglesquares.svg	stimuli_distractor_diamondtriangles.svg	22	yes	57	0	412	0	0			0	0			1				0	
6.6.1	win	2023-06-13	02:03:57	02:11:08	427885	6441890f4ea5d3738776aff4	3	1	main_slash	7	main_slash	133	stimuli_distractor_trianglediamonds.svg	stimuli_distractor_diamondtriangles.svg	36	no	0	1	2000	0	0			0	0			1				0	
6.6.1	win	2023-06-13	02:03:57	02:11:08	427885	6441890f4ea5d3738776aff4	3	1	main_slash	7	advance_on_keypress_SLASH	134	stimuli_distractor_trianglediamonds.svg	stimuli_distractor_diamondtriangles.svg	36	no	57	0	375	0	0			0	0			1				0	
6.6.1	win	2023-06-13	02:03:57	02:11:11	430904	6441890f4ea5d3738776aff4	3	1	main_slash	7	main_slash	135	stimuli_distractor_trianglediamonds.svg	stimuli_distractor_diamondtriangles.svg	35	no	0	1	2000	0	0			0	0			1				0	
6.6.1	win	2023-06-13	02:03:57	02:11:11	430904	6441890f4ea5d3738776aff4	3	1	main_slash	7	advance_on_keypress_SLASH	136	stimuli_distractor_trianglediamonds.svg	stimuli_distractor_diamondtriangles.svg	35	no	57	0	316	0	0			0	0			1				0	
6.6.1	win	2023-06-13	02:03:57	02:11:14	433439	6441890f4ea5d3738776aff4	3	1	main_slash	7	main_slash	137	stimuli_distractor_diamondtriangles.svg	stimuli_target_rectanglediamonds.svg	14	yes	53	1	1582	0	0			0	0			1				0	
6.6.1	win	2023-06-13	02:03:57	02:11:14	433439	6441890f4ea5d3738776aff4	3	1	main_slash	7	advance_on_keypress_SLASH	138	stimuli_distractor_diamondtriangles.svg	stimuli_target_rectanglediamonds.svg	14	yes	57	0	957	0	0			0	0			1				0	
6.6.1	win	2023-06-13	02:03:57	02:11:17	436383	6441890f4ea5d3738776aff4	3	1	main_slash	7	main_slash	139	stimuli_target_squarediamonds.svg	stimuli_distractor_trianglediamonds.svg	4	yes	53	1	1357	0	0			0	0			1				0	
6.6.1	win	2023-06-13	02:03:57	02:11:17	436383	6441890f4ea5d3738776aff4	3	1	main_slash	7	advance_on_keypress_SLASH	140	stimuli_target_squarediamonds.svg	stimuli_distractor_trianglediamonds.svg	4	yes	57	0	716	0	0			0	0			1				0	
6.6.1	win	2023-06-13	02:03:57	02:11:20	439745	6441890f4ea5d3738776aff4	3	1	main_slash	7	main_slash	141	stimuli_target_diamondrectangles.svg	stimuli_distractor_trianglediamonds.svg	19	yes	0	0	2000	0	0			0	0			1				0	
6.6.1	win	2023-06-13	02:03:57	02:11:20	439745	6441890f4ea5d3738776aff4	3	1	main_slash	7	advance_on_keypress_SLASH	142	stimuli_target_diamondrectangles.svg	stimuli_distractor_trianglediamonds.svg	19	yes	57	0	851	0	0			0	0			1				0	
6.6.1	win	2023-06-13	02:03:57	02:11:22	442151	6441890f4ea5d3738776aff4	3	1	main_slash	7	main_slash	143	stimuli_target_rectanglediamonds.svg	stimuli_distractor_trianglediamonds.svg	2	yes	53	1	903	0	0			0	0			1				0	
6.6.1	win	2023-06-13	02:03:57	02:11:22	442151	6441890f4ea5d3738776aff4	3	1	main_slash	7	advance_on_keypress_SLASH	144	stimuli_target_rectanglediamonds.svg	stimuli_distractor_trianglediamonds.svg	2	yes	57	0	1377	0	0			0	0			1				0	
6.6.1	win	2023-06-13	02:03:57	02:11:26	446039	6441890f4ea5d3738776aff4	3	1	main_slash	7	main_slash	145	stimuli_target_trianglerectangles.svg	stimuli_distractor_trianglediamonds.svg	17	yes	53	1	1872	0	0			0	0			1				0	
6.6.1	win	2023-06-13	02:03:57	02:11:26	446039	6441890f4ea5d3738776aff4	3	1	main_slash	7	advance_on_keypress_SLASH	146	stimuli_target_trianglerectangles.svg	stimuli_distractor_trianglediamonds.svg	17	yes	57	0	410	0	0			0	0			1				0	
6.6.1	win	2023-06-13	02:03:57	02:11:28	447911	6441890f4ea5d3738776aff4	3	1	main_slash	7	main_slash	147	stimuli_target_rectanglediamonds.svg	stimuli_distractor_diamondtriangles.svg	6	yes	53	1	825	0	0			0	0			1				0	
6.6.1	win	2023-06-13	02:03:57	02:11:28	447911	6441890f4ea5d3738776aff4	3	1	main_slash	7	advance_on_keypress_SLASH	148	stimuli_target_rectanglediamonds.svg	stimuli_distractor_diamondtriangles.svg	6	yes	57	0	862	0	0			0	0			1				0	
6.6.1	win	2023-06-13	02:03:57	02:11:31	450431	6441890f4ea5d3738776aff4	3	1	main_slash	7	main_slash	149	stimuli_target_trianglerectangles.svg	stimuli_distractor_diamondtriangles.svg	21	yes	53	1	1026	0	0			0	0			1				0	
6.6.1	win	2023-06-13	02:03:57	02:11:31	450431	6441890f4ea5d3738776aff4	3	1	main_slash	7	advance_on_keypress_SLASH	150	stimuli_target_trianglerectangles.svg	stimuli_distractor_diamondtriangles.svg	21	yes	57	0	703	0	0			0	0			1				0	
6.6.1	win	2023-06-13	02:03:57	02:11:33	452415	6441890f4ea5d3738776aff4	3	1	main_slash	7	main_slash	151	stimuli_target_rectangletriangles.svg	stimuli_distractor_diamondtriangles.svg	5	yes	53	1	642	0	0			0	0			1				0	
6.6.1	win	2023-06-13	02:03:57	02:11:33	452415	6441890f4ea5d3738776aff4	3	1	main_slash	7	advance_on_keypress_SLASH	152	stimuli_target_rectangletriangles.svg	stimuli_distractor_diamondtriangles.svg	5	yes	57	0	1038	0	0			0	0			1				0	
6.6.1	win	2023-06-13	02:03:57	02:11:36	456092	6441890f4ea5d3738776aff4	3	1	main_slash	7	main_slash	153	stimuli_distractor_trianglediamonds.svg	stimuli_target_diamondsquares.svg	28	yes	0	0	2000	0	0			0	0			1				0	
6.6.1	win	2023-06-13	02:03:57	02:11:36	456092	6441890f4ea5d3738776aff4	3	1	main_slash	7	advance_on_keypress_SLASH	154	stimuli_distractor_trianglediamonds.svg	stimuli_target_diamondsquares.svg	28	yes	57	0	792	0	0			0	0			1				0	
6.6.1	win	2023-06-13	02:03:57	02:11:39	458967	6441890f4ea5d3738776aff4	3	1	main_slash	7	main_slash	155	stimuli_distractor_diamondtriangles.svg	stimuli_target_diamondrectangles.svg	31	yes	53	1	1438	0	0			0	0			1				0	
6.6.1	win	2023-06-13	02:03:57	02:11:39	458967	6441890f4ea5d3738776aff4	3	1	main_slash	7	advance_on_keypress_SLASH	156	stimuli_distractor_diamondtriangles.svg	stimuli_target_diamondrectangles.svg	31	yes	57	0	1091	0	0			0	0			1				0	
6.6.1	win	2023-06-13	02:03:57	02:11:42	461695	6441890f4ea5d3738776aff4	3	1	main_slash	7	main_slash	157	stimuli_distractor_trianglediamonds.svg	stimuli_target_rectangletriangles.svg	9	yes	53	1	997	0	0			0	0			1				0	
6.6.1	win	2023-06-13	02:03:57	02:11:42	461695	6441890f4ea5d3738776aff4	3	1	main_slash	7	advance_on_keypress_SLASH	158	stimuli_distractor_trianglediamonds.svg	stimuli_target_rectangletriangles.svg	9	yes	57	0	1020	0	0			0	0			1				0	
6.6.1	win	2023-06-13	02:03:57	02:11:44	464191	6441890f4ea5d3738776aff4	3	1	main_slash	7	main_slash	159	stimuli_distractor_trianglediamonds.svg	stimuli_target_squarediamonds.svg	12	yes	53	1	841	0	0			0	0			1				0	
6.6.1	win	2023-06-13	02:03:57	02:11:44	464191	6441890f4ea5d3738776aff4	3	1	main_slash	7	advance_on_keypress_SLASH	160	stimuli_distractor_trianglediamonds.svg	stimuli_target_squarediamonds.svg	12	yes	57	0	982	0	0			0	0			1				0	
6.6.1	win	2023-06-13	02:03:57	02:12:17	497077	6441890f4ea5d3738776aff4	3	1	practice_z	9	practice_z	1	stimuli_distractor_diamondtriangles.svg	stimuli_target_diamondrectangles.svg	8	yes	0	0	2000	0	0			0	0			1				0	
6.6.1	win	2023-06-13	02:03:57	02:12:17	497077	6441890f4ea5d3738776aff4	3	1	practice_z	9	advance_on_keypress_ZEE	2	stimuli_distractor_diamondtriangles.svg	stimuli_target_diamondrectangles.svg	8	yes	57	0	439	0	0			0	0			1				0	
6.6.1	win	2023-06-13	02:03:57	02:12:20	499656	6441890f4ea5d3738776aff4	3	1	practice_z	9	practice_z	3	stimuli_target_rectanglediamonds.svg	stimuli_distractor_trianglediamonds.svg	4	yes	44	1	492	0	0			0	0			1				0	
6.6.1	win	2023-06-13	02:03:57	02:12:20	499656	6441890f4ea5d3738776aff4	3	1	practice_z	9	advance_on_keypress_ZEE	4	stimuli_target_rectanglediamonds.svg	stimuli_distractor_trianglediamonds.svg	4	yes	57	0	406	0	0			0	0			1				0	
6.6.1	win	2023-06-13	02:03:57	02:12:22	502095	6441890f4ea5d3738776aff4	3	1	practice_z	9	practice_z	5	stimuli_target_squarediamonds.svg	stimuli_distractor_diamondtriangles.svg	2	yes	44	1	397	0	0			0	0			1				0	
6.6.1	win	2023-06-13	02:03:57	02:12:22	502095	6441890f4ea5d3738776aff4	3	1	practice_z	9	advance_on_keypress_ZEE	6	stimuli_target_squarediamonds.svg	stimuli_distractor_diamondtriangles.svg	2	yes	57	0	339	0	0			0	0			1				0	
6.6.1	win	2023-06-13	02:03:57	02:12:25	504464	6441890f4ea5d3738776aff4	3	1	practice_z	9	practice_z	7	stimuli_distractor_trianglediamonds.svg	stimuli_target_rectanglediamonds.svg	10	yes	44	1	396	0	0			0	0			1				0	
6.6.1	win	2023-06-13	02:03:57	02:12:25	504464	6441890f4ea5d3738776aff4	3	1	practice_z	9	advance_on_keypress_ZEE	8	stimuli_distractor_trianglediamonds.svg	stimuli_target_rectanglediamonds.svg	10	yes	57	0	355	0	0			0	0			1				0	
6.6.1	win	2023-06-13	02:03:57	02:12:29	508453	6441890f4ea5d3738776aff4	3	1	practice_z	9	practice_z	9	stimuli_distractor_trianglediamonds.svg	stimuli_distractor_trianglediamonds.svg	15	no	0	1	2000	0	0			0	0			1				0	
6.6.1	win	2023-06-13	02:03:57	02:12:29	508453	6441890f4ea5d3738776aff4	3	1	practice_z	9	advance_on_keypress_ZEE	10	stimuli_distractor_trianglediamonds.svg	stimuli_distractor_trianglediamonds.svg	15	no	57	0	471	0	0			0	0			1				0	
6.6.1	win	2023-06-13	02:03:57	02:12:32	511655	6441890f4ea5d3738776aff4	3	1	practice_z	9	practice_z	11	stimuli_target_diamondsquares.svg	stimuli_distractor_diamondtriangles.svg	3	yes	44	1	1083	0	0			0	0			1				0	
6.6.1	win	2023-06-13	02:03:57	02:12:32	511655	6441890f4ea5d3738776aff4	3	1	practice_z	9	advance_on_keypress_ZEE	12	stimuli_target_diamondsquares.svg	stimuli_distractor_diamondtriangles.svg	3	yes	57	0	485	0	0			0	0			1				0	
6.6.1	win	2023-06-13	02:03:57	02:12:35	514383	6441890f4ea5d3738776aff4	3	1	practice_z	9	practice_z	13	stimuli_target_squarediamonds.svg	stimuli_distractor_trianglediamonds.svg	5	yes	44	1	608	0	0			0	0			1				0	
6.6.1	win	2023-06-13	02:03:57	02:12:35	514383	6441890f4ea5d3738776aff4	3	1	practice_z	9	advance_on_keypress_ZEE	14	stimuli_target_squarediamonds.svg	stimuli_distractor_trianglediamonds.svg	5	yes	57	0	301	0	0			0	0			1				0	
6.6.1	win	2023-06-13	02:03:57	02:12:38	517376	6441890f4ea5d3738776aff4	3	1	practice_z	9	practice_z	15	stimuli_distractor_trianglediamonds.svg	stimuli_distractor_diamondtriangles.svg	16	no	44	0	1048	0	0			0	0			1				0	
6.6.1	win	2023-06-13	02:03:57	02:12:38	517376	6441890f4ea5d3738776aff4	3	1	practice_z	9	advance_on_keypress_ZEE	16	stimuli_distractor_trianglediamonds.svg	stimuli_distractor_diamondtriangles.svg	16	no	57	0	364	0	0			0	0			1				0	
6.6.1	win	2023-06-13	02:03:57	02:12:42	521364	6441890f4ea5d3738776aff4	3	1	practice_z	9	practice_z	17	stimuli_distractor_trianglediamonds.svg	stimuli_target_diamondrectangles.svg	12	yes	0	0	2000	0	0			0	0			1				0	
6.6.1	win	2023-06-13	02:03:57	02:12:42	521364	6441890f4ea5d3738776aff4	3	1	practice_z	9	advance_on_keypress_ZEE	18	stimuli_distractor_trianglediamonds.svg	stimuli_target_diamondrectangles.svg	12	yes	57	0	440	0	0			0	0			1				0	
6.6.1	win	2023-06-13	02:03:57	02:12:45	524487	6441890f4ea5d3738776aff4	3	1	practice_z	9	practice_z	19	stimuli_target_diamondsquares.svg	stimuli_distractor_trianglediamonds.svg	6	yes	44	1	1037	0	0			0	0			1				0	
6.6.1	win	2023-06-13	02:03:57	02:12:45	524487	6441890f4ea5d3738776aff4	3	1	practice_z	9	advance_on_keypress_ZEE	20	stimuli_target_diamondsquares.svg	stimuli_distractor_trianglediamonds.svg	6	yes	57	0	345	0	0			0	0			1				0	
6.6.1	win	2023-06-13	02:03:57	02:12:48	527864	6441890f4ea5d3738776aff4	3	1	practice_z	9	practice_z	21	stimuli_distractor_trianglediamonds.svg	stimuli_target_squarediamonds.svg	11	yes	44	1	1394	0	0			0	0			1				0	
6.6.1	win	2023-06-13	02:03:57	02:12:48	527864	6441890f4ea5d3738776aff4	3	1	practice_z	9	advance_on_keypress_ZEE	22	stimuli_distractor_trianglediamonds.svg	stimuli_target_squarediamonds.svg	11	yes	57	0	463	0	0			0	0			1				0	
6.6.1	win	2023-06-13	02:03:57	02:12:51	530695	6441890f4ea5d3738776aff4	3	1	practice_z	9	practice_z	23	stimuli_target_rectanglediamonds.svg	stimuli_distractor_diamondtriangles.svg	1	yes	44	1	740	0	0			0	0			1				0	
6.6.1	win	2023-06-13	02:03:57	02:12:51	530695	6441890f4ea5d3738776aff4	3	1	practice_z	9	advance_on_keypress_ZEE	24	stimuli_target_rectanglediamonds.svg	stimuli_distractor_diamondtriangles.svg	1	yes	57	0	676	0	0			0	0			1				0	
6.6.1	win	2023-06-13	02:03:57	02:12:55	535009	6441890f4ea5d3738776aff4	3	1	practice_z	9	practice_z	25	stimuli_distractor_diamondtriangles.svg	stimuli_distractor_diamondtriangles.svg	13	no	0	1	2000	0	0			0	0			1				0	
6.6.1	win	2023-06-13	02:03:57	02:12:55	535009	6441890f4ea5d3738776aff4	3	1	practice_z	9	advance_on_keypress_ZEE	26	stimuli_distractor_diamondtriangles.svg	stimuli_distractor_diamondtriangles.svg	13	no	57	0	403	0	0			0	0			1				0	
6.6.1	win	2023-06-13	02:03:57	02:12:58	538032	6441890f4ea5d3738776aff4	3	1	practice_z	9	practice_z	27	stimuli_distractor_diamondtriangles.svg	stimuli_target_trianglerectangles.svg	9	yes	44	1	970	0	0			0	0			1				0	
6.6.1	win	2023-06-13	02:03:57	02:12:58	538032	6441890f4ea5d3738776aff4	3	1	practice_z	9	advance_on_keypress_ZEE	28	stimuli_distractor_diamondtriangles.svg	stimuli_target_trianglerectangles.svg	9	yes	57	0	448	0	0			0	0			1				0	
6.6.1	win	2023-06-13	02:03:57	02:13:01	540752	6441890f4ea5d3738776aff4	3	1	practice_z	9	practice_z	29	stimuli_distractor_diamondtriangles.svg	stimuli_target_rectangletriangles.svg	7	yes	44	1	620	0	0			0	0			1				0	
6.6.1	win	2023-06-13	02:03:57	02:13:01	540752	6441890f4ea5d3738776aff4	3	1	practice_z	9	advance_on_keypress_ZEE	30	stimuli_distractor_diamondtriangles.svg	stimuli_target_rectangletriangles.svg	7	yes	57	0	137	0	0			0	0			1				0	
6.6.1	win	2023-06-13	02:03:57	02:13:04	543456	6441890f4ea5d3738776aff4	3	1	practice_z	9	practice_z	31	stimuli_distractor_diamondtriangles.svg	stimuli_distractor_trianglediamonds.svg	14	no	44	0	922	0	0			0	0			1				0	
6.6.1	win	2023-06-13	02:03:57	02:13:04	543456	6441890f4ea5d3738776aff4	3	1	practice_z	9	advance_on_keypress_ZEE	32	stimuli_distractor_diamondtriangles.svg	stimuli_distractor_trianglediamonds.svg	14	no	57	0	387	0	0			0	0			1				0	
6.6.1	win	2023-06-13	02:03:57	02:13:20	559646	6441890f4ea5d3738776aff4	3	1	main_z	11	main_z	1	stimuli_target_diamondrectangles.svg	stimuli_distractor_diamondtriangles.svg	23	yes	0	0	2000	0	0			0	0			1				0	
6.6.1	win	2023-06-13	02:03:57	02:13:20	559646	6441890f4ea5d3738776aff4	3	1	main_z	11	advance_on_keypress_ZEE	2	stimuli_target_diamondrectangles.svg	stimuli_distractor_diamondtriangles.svg	23	yes	57	0	494	0	0			0	0			1				0	
6.6.1	win	2023-06-13	02:03:57	02:13:22	561327	6441890f4ea5d3738776aff4	3	1	main_z	11	main_z	3	stimuli_target_rectangletriangles.svg	stimuli_distractor_trianglediamonds.svg	1	yes	44	1	545	0	0			0	0			1				0	
6.6.1	win	2023-06-13	02:03:57	02:13:22	561327	6441890f4ea5d3738776aff4	3	1	main_z	11	advance_on_keypress_ZEE	4	stimuli_target_rectangletriangles.svg	stimuli_distractor_trianglediamonds.svg	1	yes	57	0	658	0	0			0	0			1				0	
6.6.1	win	2023-06-13	02:03:57	02:13:24	563511	6441890f4ea5d3738776aff4	3	1	main_z	11	main_z	5	stimuli_distractor_diamondtriangles.svg	stimuli_distractor_trianglediamonds.svg	38	no	44	0	894	0	0			0	0			1				0	
6.6.1	win	2023-06-13	02:03:57	02:13:24	563511	6441890f4ea5d3738776aff4	3	1	main_z	11	advance_on_keypress_ZEE	6	stimuli_distractor_diamondtriangles.svg	stimuli_distractor_trianglediamonds.svg	38	no	57	0	329	0	0			0	0			1				0	
6.6.1	win	2023-06-13	02:03:57	02:13:26	565455	6441890f4ea5d3738776aff4	3	1	main_z	11	main_z	7	stimuli_distractor_diamondtriangles.svg	stimuli_target_rectangletriangles.svg	13	yes	44	1	986	0	0			0	0			1				0	
6.6.1	win	2023-06-13	02:03:57	02:13:26	565455	6441890f4ea5d3738776aff4	3	1	main_z	11	advance_on_keypress_ZEE	8	stimuli_distractor_diamondtriangles.svg	stimuli_target_rectangletriangles.svg	13	yes	57	0	409	0	0			0	0			1				0	
6.6.1	win	2023-06-13	02:03:57	02:13:29	568504	6441890f4ea5d3738776aff4	3	1	main_z	11	main_z	9	stimuli_distractor_diamondtriangles.svg	stimuli_distractor_trianglediamonds.svg	37	no	0	1	2000	0	0			0	0			1				0	
6.6.1	win	2023-06-13	02:03:57	02:13:29	568504	6441890f4ea5d3738776aff4	3	1	main_z	11	advance_on_keypress_ZEE	10	stimuli_distractor_diamondtriangles.svg	stimuli_distractor_trianglediamonds.svg	37	no	57	0	340	0	0			0	0			1				0	
6.6.1	win	2023-06-13	02:03:57	02:13:30	570007	6441890f4ea5d3738776aff4	3	1	main_z	11	main_z	11	stimuli_target_rectangletriangles.svg	stimuli_distractor_diamondtriangles.svg	5	yes	44	1	509	0	0			0	0			1				0	
6.6.1	win	2023-06-13	02:03:57	02:13:30	570007	6441890f4ea5d3738776aff4	3	1	main_z	11	advance_on_keypress_ZEE	12	stimuli_target_rectangletriangles.svg	stimuli_distractor_diamondtriangles.svg	5	yes	57	0	367	0	0			0	0			1				0	
6.6.1	win	2023-06-13	02:03:57	02:13:32	571895	6441890f4ea5d3738776aff4	3	1	main_z	11	main_z	13	stimuli_distractor_diamondtriangles.svg	stimuli_target_diamondsquares.svg	32	yes	44	1	871	0	0			0	0			1				0	
6.6.1	win	2023-06-13	02:03:57	02:13:32	571895	6441890f4ea5d3738776aff4	3	1	main_z	11	advance_on_keypress_ZEE	14	stimuli_distractor_diamondtriangles.svg	stimuli_target_diamondsquares.svg	32	yes	57	0	314	0	0			0	0			1				0	
6.6.1	win	2023-06-13	02:03:57	02:13:35	574842	6441890f4ea5d3738776aff4	3	1	main_z	11	main_z	15	stimuli_distractor_diamondtriangles.svg	stimuli_distractor_diamondtriangles.svg	39	no	0	1	2000	0	0			0	0			1				0	
6.6.1	win	2023-06-13	02:03:57	02:13:35	574842	6441890f4ea5d3738776aff4	3	1	main_z	11	advance_on_keypress_ZEE	16	stimuli_distractor_diamondtriangles.svg	stimuli_distractor_diamondtriangles.svg	39	no	57	0	402	0	0			0	0			1				0	
6.6.1	win	2023-06-13	02:03:57	02:13:38	577895	6441890f4ea5d3738776aff4	3	1	main_z	11	main_z	17	stimuli_target_trianglerectangles.svg	stimuli_distractor_trianglediamonds.svg	17	yes	0	0	2000	0	0			0	0			1				0	
6.6.1	win	2023-06-13	02:03:57	02:13:38	577895	6441890f4ea5d3738776aff4	3	1	main_z	11	advance_on_keypress_ZEE	18	stimuli_target_trianglerectangles.svg	stimuli_distractor_trianglediamonds.svg	17	yes	57	0	373	0	0			0	0			1				0	
6.6.1	win	2023-06-13	02:03:57	02:13:41	580359	6441890f4ea5d3738776aff4	3	1	main_z	11	main_z	19	stimuli_distractor_trianglediamonds.svg	stimuli_distractor_trianglediamonds.svg	33	no	44	0	1445	0	0			0	0			1				0	
6.6.1	win	2023-06-13	02:03:57	02:13:41	580359	6441890f4ea5d3738776aff4	3	1	main_z	11	advance_on_keypress_ZEE	20	stimuli_distractor_trianglediamonds.svg	stimuli_distractor_trianglediamonds.svg	33	no	57	0	497	0	0			0	0			1				0	
6.6.1	win	2023-06-13	02:03:57	02:13:44	583483	6441890f4ea5d3738776aff4	3	1	main_z	11	main_z	21	stimuli_distractor_trianglediamonds.svg	stimuli_distractor_trianglediamonds.svg	34	no	0	1	2000	0	0			0	0			1				0	
6.6.1	win	2023-06-13	02:03:57	02:13:44	583483	6441890f4ea5d3738776aff4	3	1	main_z	11	advance_on_keypress_ZEE	22	stimuli_distractor_trianglediamonds.svg	stimuli_distractor_trianglediamonds.svg	34	no	57	0	537	0	0			0	0			1				0	
6.6.1	win	2023-06-13	02:03:57	02:13:46	585967	6441890f4ea5d3738776aff4	3	1	main_z	11	main_z	23	stimuli_target_trianglerectangles.svg	stimuli_distractor_diamondtriangles.svg	21	yes	44	1	1298	0	0			0	0			1				0	
6.6.1	win	2023-06-13	02:03:57	02:13:46	585967	6441890f4ea5d3738776aff4	3	1	main_z	11	advance_on_keypress_ZEE	24	stimuli_target_trianglerectangles.svg	stimuli_distractor_diamondtriangles.svg	21	yes	57	0	684	0	0			0	0			1				0	
6.6.1	win	2023-06-13	02:03:57	02:13:48	588031	6441890f4ea5d3738776aff4	3	1	main_z	11	main_z	25	stimuli_target_diamondsquares.svg	stimuli_distractor_diamondtriangles.svg	24	yes	44	1	743	0	0			0	0			1				0	
6.6.1	win	2023-06-13	02:03:57	02:13:48	588031	6441890f4ea5d3738776aff4	3	1	main_z	11	advance_on_keypress_ZEE	26	stimuli_target_diamondsquares.svg	stimuli_distractor_diamondtriangles.svg	24	yes	57	0	360	0	0			0	0			1				0	
6.6.1	win	2023-06-13	02:03:57	02:13:51	591023	6441890f4ea5d3738776aff4	3	1	main_z	11	main_z	27	stimuli_distractor_trianglediamonds.svg	stimuli_target_diamondrectangles.svg	27	yes	0	0	2000	0	0			0	0			1				0	
6.6.1	win	2023-06-13	02:03:57	02:13:51	591023	6441890f4ea5d3738776aff4	3	1	main_z	11	advance_on_keypress_ZEE	28	stimuli_distractor_trianglediamonds.svg	stimuli_target_diamondrectangles.svg	27	yes	57	0	333	0	0			0	0			1				0	
6.6.1	win	2023-06-13	02:03:57	02:13:53	592703	6441890f4ea5d3738776aff4	3	1	main_z	11	main_z	29	stimuli_distractor_trianglediamonds.svg	stimuli_target_squaretriangles.svg	11	yes	44	1	694	0	0			0	0			1				0	
6.6.1	win	2023-06-13	02:03:57	02:13:53	592703	6441890f4ea5d3738776aff4	3	1	main_z	11	advance_on_keypress_ZEE	30	stimuli_distractor_trianglediamonds.svg	stimuli_target_squaretriangles.svg	11	yes	57	0	1553	0	0			0	0			1				0	
6.6.1	win	2023-06-13	02:03:57	02:13:56	595663	6441890f4ea5d3738776aff4	3	1	main_z	11	main_z	31	stimuli_distractor_diamondtriangles.svg	stimuli_target_squarediamonds.svg	16	yes	44	1	769	0	0			0	0			1				0	
6.6.1	win	2023-06-13	02:03:57	02:13:56	595663	6441890f4ea5d3738776aff4	3	1	main_z	11	advance_on_keypress_ZEE	32	stimuli_distractor_diamondtriangles.svg	stimuli_target_squarediamonds.svg	16	yes	57	0	480	0	0			0	0			1				0	
6.6.1	win	2023-06-13	02:03:57	02:13:58	597351	6441890f4ea5d3738776aff4	3	1	main_z	11	main_z	33	stimuli_distractor_trianglediamonds.svg	stimuli_target_squarediamonds.svg	12	yes	44	1	572	0	0			0	0			1				0	
6.6.1	win	2023-06-13	02:03:57	02:13:58	597351	6441890f4ea5d3738776aff4	3	1	main_z	11	advance_on_keypress_ZEE	34	stimuli_distractor_trianglediamonds.svg	stimuli_target_squarediamonds.svg	12	yes	57	0	355	0	0			0	0			1				0	
6.6.1	win	2023-06-13	02:03:57	02:13:59	598775	6441890f4ea5d3738776aff4	3	1	main_z	11	main_z	35	stimuli_target_rectanglediamonds.svg	stimuli_distractor_diamondtriangles.svg	6	yes	44	1	428	0	0			0	0			1				0	
6.6.1	win	2023-06-13	02:03:57	02:13:59	598775	6441890f4ea5d3738776aff4	3	1	main_z	11	advance_on_keypress_ZEE	36	stimuli_target_rectanglediamonds.svg	stimuli_distractor_diamondtriangles.svg	6	yes	57	0	314	0	0			0	0			1				0	
6.6.1	win	2023-06-13	02:03:57	02:14:01	600415	6441890f4ea5d3738776aff4	3	1	main_z	11	main_z	37	stimuli_distractor_diamondtriangles.svg	stimuli_target_trianglesquares.svg	30	yes	44	1	700	0	0			0	0			1				0	
6.6.1	win	2023-06-13	02:03:57	02:14:01	600415	6441890f4ea5d3738776aff4	3	1	main_z	11	advance_on_keypress_ZEE	38	stimuli_distractor_diamondtriangles.svg	stimuli_target_trianglesquares.svg	30	yes	57	0	382	0	0			0	0			1				0	
6.6.1	win	2023-06-13	02:03:57	02:14:04	603450	6441890f4ea5d3738776aff4	3	1	main_z	11	main_z	39	stimuli_distractor_diamondtriangles.svg	stimuli_target_diamondrectangles.svg	31	yes	0	0	2000	0	0			0	0			1				0	
6.6.1	win	2023-06-13	02:03:57	02:14:04	603450	6441890f4ea5d3738776aff4	3	1	main_z	11	advance_on_keypress_ZEE	40	stimuli_distractor_diamondtriangles.svg	stimuli_target_diamondrectangles.svg	31	yes	57	0	410	0	0			0	0			1				0	
6.6.1	win	2023-06-13	02:03:57	02:14:05	605019	6441890f4ea5d3738776aff4	3	1	main_z	11	main_z	41	stimuli_distractor_trianglediamonds.svg	stimuli_distractor_diamondtriangles.svg	36	no	44	0	513	0	0			0	0			1				0	
6.6.1	win	2023-06-13	02:03:57	02:14:05	605019	6441890f4ea5d3738776aff4	3	1	main_z	11	advance_on_keypress_ZEE	42	stimuli_distractor_trianglediamonds.svg	stimuli_distractor_diamondtriangles.svg	36	no	57	0	434	0	0			0	0			1				0	
6.6.1	win	2023-06-13	02:03:57	02:14:07	606630	6441890f4ea5d3738776aff4	3	1	main_z	11	main_z	43	stimuli_target_squarediamonds.svg	stimuli_distractor_trianglediamonds.svg	4	yes	44	1	526	0	0			0	0			1				0	
6.6.1	win	2023-06-13	02:03:57	02:14:07	606630	6441890f4ea5d3738776aff4	3	1	main_z	11	advance_on_keypress_ZEE	44	stimuli_target_squarediamonds.svg	stimuli_distractor_trianglediamonds.svg	4	yes	57	0	273	0	0			0	0			1				0	
6.6.1	win	2023-06-13	02:03:57	02:14:08	607967	6441890f4ea5d3738776aff4	3	1	main_z	11	main_z	45	stimuli_target_squaretriangles.svg	stimuli_distractor_diamondtriangles.svg	7	yes	44	1	429	0	0			0	0			1				0	
6.6.1	win	2023-06-13	02:03:57	02:14:08	607967	6441890f4ea5d3738776aff4	3	1	main_z	11	advance_on_keypress_ZEE	46	stimuli_target_squaretriangles.svg	stimuli_distractor_diamondtriangles.svg	7	yes	57	0	243	0	0			0	0			1				0	
6.6.1	win	2023-06-13	02:03:57	02:14:10	609356	6441890f4ea5d3738776aff4	3	1	main_z	11	main_z	47	stimuli_distractor_diamondtriangles.svg	stimuli_target_rectanglediamonds.svg	14	yes	44	1	504	0	0			0	0			1				0	
6.6.1	win	2023-06-13	02:03:57	02:14:10	609356	6441890f4ea5d3738776aff4	3	1	main_z	11	advance_on_keypress_ZEE	48	stimuli_distractor_diamondtriangles.svg	stimuli_target_rectanglediamonds.svg	14	yes	57	0	201	0	0			0	0			1				0	
6.6.1	win	2023-06-13	02:03:57	02:14:11	610543	6441890f4ea5d3738776aff4	3	1	main_z	11	main_z	49	stimuli_distractor_trianglediamonds.svg	stimuli_target_rectanglediamonds.svg	10	yes	44	1	336	0	0			0	0			1				0	
6.6.1	win	2023-06-13	02:03:57	02:14:11	610543	6441890f4ea5d3738776aff4	3	1	main_z	11	advance_on_keypress_ZEE	50	stimuli_distractor_trianglediamonds.svg	stimuli_target_rectanglediamonds.svg	10	yes	57	0	201	0	0			0	0			1				0	
6.6.1	win	2023-06-13	02:03:57	02:14:14	613392	6441890f4ea5d3738776aff4	3	1	main_z	11	main_z	51	stimuli_distractor_trianglediamonds.svg	stimuli_target_diamondsquares.svg	28	yes	0	0	2000	0	0			0	0			1				0	
6.6.1	win	2023-06-13	02:03:57	02:14:14	613392	6441890f4ea5d3738776aff4	3	1	main_z	11	advance_on_keypress_ZEE	52	stimuli_distractor_trianglediamonds.svg	stimuli_target_diamondsquares.svg	28	yes	57	0	701	0	0			0	0			1				0	
6.6.1	win	2023-06-13	02:03:57	02:14:15	615103	6441890f4ea5d3738776aff4	3	1	main_z	11	main_z	53	stimuli_target_squarediamonds.svg	stimuli_distractor_diamondtriangles.svg	8	yes	44	1	359	0	0			0	0			1				0	
6.6.1	win	2023-06-13	02:03:57	02:14:15	615103	6441890f4ea5d3738776aff4	3	1	main_z	11	advance_on_keypress_ZEE	54	stimuli_target_squarediamonds.svg	stimuli_distractor_diamondtriangles.svg	8	yes	57	0	247	0	0			0	0			1				0	
6.6.1	win	2023-06-13	02:03:57	02:14:17	616575	6441890f4ea5d3738776aff4	3	1	main_z	11	main_z	55	stimuli_target_diamondsquares.svg	stimuli_distractor_trianglediamonds.svg	20	yes	44	1	596	0	0			0	0			1				0	
6.6.1	win	2023-06-13	02:03:57	02:14:17	616575	6441890f4ea5d3738776aff4	3	1	main_z	11	advance_on_keypress_ZEE	56	stimuli_target_diamondsquares.svg	stimuli_distractor_trianglediamonds.svg	20	yes	57	0	275	0	0			0	0			1				0	
6.6.1	win	2023-06-13	02:03:57	02:14:20	619480	6441890f4ea5d3738776aff4	3	1	main_z	11	main_z	57	stimuli_distractor_trianglediamonds.svg	stimuli_target_trianglerectangles.svg	25	yes	0	0	2000	0	0			0	0			1				0	
6.6.1	win	2023-06-13	02:03:57	02:14:20	619480	6441890f4ea5d3738776aff4	3	1	main_z	11	advance_on_keypress_ZEE	58	stimuli_distractor_trianglediamonds.svg	stimuli_target_trianglerectangles.svg	25	yes	57	0	756	0	0			0	0			1				0	
6.6.1	win	2023-06-13	02:03:57	02:14:21	621247	6441890f4ea5d3738776aff4	3	1	main_z	11	main_z	59	stimuli_target_squaretriangles.svg	stimuli_distractor_trianglediamonds.svg	3	yes	44	1	364	0	0			0	0			1				0	
6.6.1	win	2023-06-13	02:03:57	02:14:21	621247	6441890f4ea5d3738776aff4	3	1	main_z	11	advance_on_keypress_ZEE	60	stimuli_target_squaretriangles.svg	stimuli_distractor_trianglediamonds.svg	3	yes	57	0	269	0	0			0	0			1				0	
6.6.1	win	2023-06-13	02:03:57	02:14:23	622623	6441890f4ea5d3738776aff4	3	1	main_z	11	main_z	61	stimuli_distractor_diamondtriangles.svg	stimuli_target_trianglerectangles.svg	29	yes	44	1	472	0	0			0	0			1				0	
6.6.1	win	2023-06-13	02:03:57	02:14:23	622623	6441890f4ea5d3738776aff4	3	1	main_z	11	advance_on_keypress_ZEE	62	stimuli_distractor_diamondtriangles.svg	stimuli_target_trianglerectangles.svg	29	yes	57	0	324	0	0			0	0			1				0	
6.6.1	win	2023-06-13	02:03:57	02:14:24	624263	6441890f4ea5d3738776aff4	3	1	main_z	11	main_z	63	stimuli_target_trianglesquares.svg	stimuli_distractor_diamondtriangles.svg	22	yes	44	1	678	0	0			0	0			1				0	
6.6.1	win	2023-06-13	02:03:57	02:14:24	624263	6441890f4ea5d3738776aff4	3	1	main_z	11	advance_on_keypress_ZEE	64	stimuli_target_trianglesquares.svg	stimuli_distractor_diamondtriangles.svg	22	yes	57	0	241	0	0			0	0			1				0	
6.6.1	win	2023-06-13	02:03:57	02:14:26	625654	6441890f4ea5d3738776aff4	3	1	main_z	11	main_z	65	stimuli_distractor_trianglediamonds.svg	stimuli_target_trianglesquares.svg	26	yes	44	1	503	0	0			0	0			1				0	
6.6.1	win	2023-06-13	02:03:57	02:14:26	625654	6441890f4ea5d3738776aff4	3	1	main_z	11	advance_on_keypress_ZEE	66	stimuli_distractor_trianglediamonds.svg	stimuli_target_trianglesquares.svg	26	yes	57	0	208	0	0			0	0			1				0	
6.6.1	win	2023-06-13	02:03:57	02:14:27	626935	6441890f4ea5d3738776aff4	3	1	main_z	11	main_z	67	stimuli_target_rectanglediamonds.svg	stimuli_distractor_trianglediamonds.svg	2	yes	44	1	431	0	0			0	0			1				0	
6.6.1	win	2023-06-13	02:03:57	02:14:27	626935	6441890f4ea5d3738776aff4	3	1	main_z	11	advance_on_keypress_ZEE	68	stimuli_target_rectanglediamonds.svg	stimuli_distractor_trianglediamonds.svg	2	yes	57	0	245	0	0			0	0			1				0	
6.6.1	win	2023-06-13	02:03:57	02:14:30	629805	6441890f4ea5d3738776aff4	3	1	main_z	11	main_z	69	stimuli_distractor_trianglediamonds.svg	stimuli_distractor_diamondtriangles.svg	35	no	0	1	2000	0	0			0	0			1				0	
6.6.1	win	2023-06-13	02:03:57	02:14:30	629805	6441890f4ea5d3738776aff4	3	1	main_z	11	advance_on_keypress_ZEE	70	stimuli_distractor_trianglediamonds.svg	stimuli_distractor_diamondtriangles.svg	35	no	57	0	447	0	0			0	0			1				0	
6.6.1	win	2023-06-13	02:03:57	02:14:33	632891	6441890f4ea5d3738776aff4	3	1	main_z	11	main_z	71	stimuli_target_diamondrectangles.svg	stimuli_distractor_trianglediamonds.svg	19	yes	0	0	2000	0	0			0	0			1				0	
6.6.1	win	2023-06-13	02:03:57	02:14:33	632891	6441890f4ea5d3738776aff4	3	1	main_z	11	advance_on_keypress_ZEE	72	stimuli_target_diamondrectangles.svg	stimuli_distractor_trianglediamonds.svg	19	yes	57	0	345	0	0			0	0			1				0	
6.6.1	win	2023-06-13	02:03:57	02:14:35	634407	6441890f4ea5d3738776aff4	3	1	main_z	11	main_z	73	stimuli_distractor_trianglediamonds.svg	stimuli_target_rectangletriangles.svg	9	yes	44	1	530	0	0			0	0			1				0	
6.6.1	win	2023-06-13	02:03:57	02:14:35	634407	6441890f4ea5d3738776aff4	3	1	main_z	11	advance_on_keypress_ZEE	74	stimuli_distractor_trianglediamonds.svg	stimuli_target_rectangletriangles.svg	9	yes	57	0	268	0	0			0	0			1				0	
6.6.1	win	2023-06-13	02:03:57	02:14:36	635752	6441890f4ea5d3738776aff4	3	1	main_z	11	main_z	75	stimuli_distractor_diamondtriangles.svg	stimuli_target_squaretriangles.svg	15	yes	44	1	440	0	0			0	0			1				0	
6.6.1	win	2023-06-13	02:03:57	02:14:36	635752	6441890f4ea5d3738776aff4	3	1	main_z	11	advance_on_keypress_ZEE	76	stimuli_distractor_diamondtriangles.svg	stimuli_target_squaretriangles.svg	15	yes	57	0	132	0	0			0	0			1				0	
6.6.1	win	2023-06-13	02:03:57	02:14:39	638529	6441890f4ea5d3738776aff4	3	1	main_z	11	main_z	77	stimuli_distractor_diamondtriangles.svg	stimuli_distractor_diamondtriangles.svg	40	no	0	1	2000	0	0			0	0			1				0	
6.6.1	win	2023-06-13	02:03:57	02:14:39	638529	6441890f4ea5d3738776aff4	3	1	main_z	11	advance_on_keypress_ZEE	78	stimuli_distractor_diamondtriangles.svg	stimuli_distractor_diamondtriangles.svg	40	no	57	0	603	0	0			0	0			1				0	
6.6.1	win	2023-06-13	02:03:57	02:14:41	640527	6441890f4ea5d3738776aff4	3	1	main_z	11	main_z	79	stimuli_target_trianglesquares.svg	stimuli_distractor_trianglediamonds.svg	18	yes	44	1	745	0	0			0	0			1				0	
6.6.1	win	2023-06-13	02:03:57	02:14:41	640527	6441890f4ea5d3738776aff4	3	1	main_z	11	advance_on_keypress_ZEE	80	stimuli_target_trianglesquares.svg	stimuli_distractor_trianglediamonds.svg	18	yes	57	0	282	0	0			0	0			1				0	
6.6.1	win	2023-06-13	02:03:57	02:14:42	641967	6441890f4ea5d3738776aff4	3	1	main_z	11	main_z	81	stimuli_target_squarediamonds.svg	stimuli_distractor_diamondtriangles.svg	8	yes	44	1	501	0	0			0	0			1				0	
6.6.1	win	2023-06-13	02:03:57	02:14:42	641967	6441890f4ea5d3738776aff4	3	1	main_z	11	advance_on_keypress_ZEE	82	stimuli_target_squarediamonds.svg	stimuli_distractor_diamondtriangles.svg	8	yes	57	0	206	0	0			0	0			1				0	
6.6.1	win	2023-06-13	02:03:57	02:14:44	643399	6441890f4ea5d3738776aff4	3	1	main_z	11	main_z	83	stimuli_distractor_diamondtriangles.svg	stimuli_target_diamondsquares.svg	32	yes	44	1	581	0	0			0	0			1				0	
6.6.1	win	2023-06-13	02:03:57	02:14:44	643399	6441890f4ea5d3738776aff4	3	1	main_z	11	advance_on_keypress_ZEE	84	stimuli_distractor_diamondtriangles.svg	stimuli_target_diamondsquares.svg	32	yes	57	0	221	0	0			0	0			1				0	
6.6.1	win	2023-06-13	02:03:57	02:14:46	646253	6441890f4ea5d3738776aff4	3	1	main_z	11	main_z	85	stimuli_distractor_diamondtriangles.svg	stimuli_distractor_trianglediamonds.svg	37	no	0	1	2000	0	0			0	0			1				0	
6.6.1	win	2023-06-13	02:03:57	02:14:46	646253	6441890f4ea5d3738776aff4	3	1	main_z	11	advance_on_keypress_ZEE	86	stimuli_distractor_diamondtriangles.svg	stimuli_distractor_trianglediamonds.svg	37	no	57	0	344	0	0			0	0			1				0	
6.6.1	win	2023-06-13	02:03:57	02:14:48	647679	6441890f4ea5d3738776aff4	3	1	main_z	11	main_z	87	stimuli_distractor_diamondtriangles.svg	stimuli_target_rectanglediamonds.svg	14	yes	44	1	441	0	0			0	0			1				0	
6.6.1	win	2023-06-13	02:03:57	02:14:48	647679	6441890f4ea5d3738776aff4	3	1	main_z	11	advance_on_keypress_ZEE	88	stimuli_distractor_diamondtriangles.svg	stimuli_target_rectanglediamonds.svg	14	yes	57	0	222	0	0			0	0			1				0	
6.6.1	win	2023-06-13	02:03:57	02:14:49	648927	6441890f4ea5d3738776aff4	3	1	main_z	11	main_z	89	stimuli_target_rectanglediamonds.svg	stimuli_distractor_diamondtriangles.svg	6	yes	44	1	387	0	0			0	0			1				0	
6.6.1	win	2023-06-13	02:03:57	02:14:49	648927	6441890f4ea5d3738776aff4	3	1	main_z	11	advance_on_keypress_ZEE	90	stimuli_target_rectanglediamonds.svg	stimuli_distractor_diamondtriangles.svg	6	yes	57	0	291	0	0			0	0			1				0	
6.6.1	win	2023-06-13	02:03:57	02:14:52	651857	6441890f4ea5d3738776aff4	3	1	main_z	11	main_z	91	stimuli_distractor_diamondtriangles.svg	stimuli_distractor_trianglediamonds.svg	38	no	0	1	2000	0	0			0	0			1				0	
6.6.1	win	2023-06-13	02:03:57	02:14:52	651857	6441890f4ea5d3738776aff4	3	1	main_z	11	advance_on_keypress_ZEE	92	stimuli_distractor_diamondtriangles.svg	stimuli_distractor_trianglediamonds.svg	38	no	57	0	340	0	0			0	0			1				0	
6.6.1	win	2023-06-13	02:03:57	02:14:53	653247	6441890f4ea5d3738776aff4	3	1	main_z	11	main_z	93	stimuli_target_rectangletriangles.svg	stimuli_distractor_trianglediamonds.svg	1	yes	44	1	404	0	0			0	0			1				0	
6.6.1	win	2023-06-13	02:03:57	02:14:53	653247	6441890f4ea5d3738776aff4	3	1	main_z	11	advance_on_keypress_ZEE	94	stimuli_target_rectangletriangles.svg	stimuli_distractor_trianglediamonds.svg	1	yes	57	0	218	0	0			0	0			1				0	
6.6.1	win	2023-06-13	02:03:57	02:14:55	654535	6441890f4ea5d3738776aff4	3	1	main_z	11	main_z	95	stimuli_distractor_trianglediamonds.svg	stimuli_target_rectanglediamonds.svg	10	yes	44	1	424	0	0			0	0			1				0	
6.6.1	win	2023-06-13	02:03:57	02:14:55	654535	6441890f4ea5d3738776aff4	3	1	main_z	11	advance_on_keypress_ZEE	96	stimuli_distractor_trianglediamonds.svg	stimuli_target_rectanglediamonds.svg	10	yes	57	0	158	0	0			0	0			1				0	
6.6.1	win	2023-06-13	02:03:57	02:14:58	657329	6441890f4ea5d3738776aff4	3	1	main_z	11	main_z	97	stimuli_distractor_trianglediamonds.svg	stimuli_target_diamondrectangles.svg	27	yes	0	0	2000	0	0			0	0			1				0	
6.6.1	win	2023-06-13	02:03:57	02:14:58	657329	6441890f4ea5d3738776aff4	3	1	main_z	11	advance_on_keypress_ZEE	98	stimuli_distractor_trianglediamonds.svg	stimuli_target_diamondrectangles.svg	27	yes	57	0	324	0	0			0	0			1				0	
6.6.1	win	2023-06-13	02:03:57	02:15:00	659312	6441890f4ea5d3738776aff4	3	1	main_z	11	main_z	99	stimuli_distractor_trianglediamonds.svg	stimuli_target_trianglesquares.svg	26	yes	44	1	1013	0	0			0	0			1				0	
6.6.1	win	2023-06-13	02:03:57	02:15:00	659312	6441890f4ea5d3738776aff4	3	1	main_z	11	advance_on_keypress_ZEE	100	stimuli_distractor_trianglediamonds.svg	stimuli_target_trianglesquares.svg	26	yes	57	0	171	0	0			0	0			1				0	
6.6.1	win	2023-06-13	02:03:57	02:15:01	660633	6441890f4ea5d3738776aff4	3	1	main_z	11	main_z	101	stimuli_target_rectangletriangles.svg	stimuli_distractor_diamondtriangles.svg	5	yes	44	1	515	0	0			0	0			1				0	
6.6.1	win	2023-06-13	02:03:57	02:15:01	660633	6441890f4ea5d3738776aff4	3	1	main_z	11	advance_on_keypress_ZEE	102	stimuli_target_rectangletriangles.svg	stimuli_distractor_diamondtriangles.svg	5	yes	57	0	181	0	0			0	0			1				0	
6.6.1	win	2023-06-13	02:03:57	02:15:04	663450	6441890f4ea5d3738776aff4	3	1	main_z	11	main_z	103	stimuli_target_diamondrectangles.svg	stimuli_distractor_trianglediamonds.svg	19	yes	0	0	2000	0	0			0	0			1				0	
6.6.1	win	2023-06-13	02:03:57	02:15:04	663450	6441890f4ea5d3738776aff4	3	1	main_z	11	advance_on_keypress_ZEE	104	stimuli_target_diamondrectangles.svg	stimuli_distractor_trianglediamonds.svg	19	yes	57	0	370	0	0			0	0			1				0	
6.6.1	win	2023-06-13	02:03:57	02:15:05	665271	6441890f4ea5d3738776aff4	3	1	main_z	11	main_z	105	stimuli_distractor_trianglediamonds.svg	stimuli_target_diamondsquares.svg	28	yes	44	1	801	0	0			0	0			1				0	
6.6.1	win	2023-06-13	02:03:57	02:15:05	665271	6441890f4ea5d3738776aff4	3	1	main_z	11	advance_on_keypress_ZEE	106	stimuli_distractor_trianglediamonds.svg	stimuli_target_diamondsquares.svg	28	yes	57	0	279	0	0			0	0			1				0	
6.6.1	win	2023-06-13	02:03:57	02:15:07	666647	6441890f4ea5d3738776aff4	3	1	main_z	11	main_z	107	stimuli_distractor_trianglediamonds.svg	stimuli_target_squarediamonds.svg	12	yes	44	1	459	0	0			0	0			1				0	
6.6.1	win	2023-06-13	02:03:57	02:15:07	666647	6441890f4ea5d3738776aff4	3	1	main_z	11	advance_on_keypress_ZEE	108	stimuli_distractor_trianglediamonds.svg	stimuli_target_squarediamonds.svg	12	yes	57	0	208	0	0			0	0			1				0	
6.6.1	win	2023-06-13	02:03:57	02:15:10	669489	6441890f4ea5d3738776aff4	3	1	main_z	11	main_z	109	stimuli_distractor_trianglediamonds.svg	stimuli_distractor_trianglediamonds.svg	33	no	0	1	2000	0	0			0	0			1				0	
6.6.1	win	2023-06-13	02:03:57	02:15:10	669489	6441890f4ea5d3738776aff4	3	1	main_z	11	advance_on_keypress_ZEE	110	stimuli_distractor_trianglediamonds.svg	stimuli_distractor_trianglediamonds.svg	33	no	57	0	435	0	0			0	0			1				0	
6.6.1	win	2023-06-13	02:03:57	02:15:13	672575	6441890f4ea5d3738776aff4	3	1	main_z	11	main_z	111	stimuli_target_diamondsquares.svg	stimuli_distractor_trianglediamonds.svg	20	yes	0	0	2000	0	0			0	0			1				0	
6.6.1	win	2023-06-13	02:03:57	02:15:13	672575	6441890f4ea5d3738776aff4	3	1	main_z	11	advance_on_keypress_ZEE	112	stimuli_target_diamondsquares.svg	stimuli_distractor_trianglediamonds.svg	20	yes	57	0	325	0	0			0	0			1				0	
6.6.1	win	2023-06-13	02:03:57	02:15:14	674039	6441890f4ea5d3738776aff4	3	1	main_z	11	main_z	113	stimuli_target_rectanglediamonds.svg	stimuli_distractor_trianglediamonds.svg	2	yes	44	1	495	0	0			0	0			1				0	
6.6.1	win	2023-06-13	02:03:57	02:15:14	674039	6441890f4ea5d3738776aff4	3	1	main_z	11	advance_on_keypress_ZEE	114	stimuli_target_rectanglediamonds.svg	stimuli_distractor_trianglediamonds.svg	2	yes	57	0	226	0	0			0	0			1				0	
6.6.1	win	2023-06-13	02:03:57	02:15:17	676895	6441890f4ea5d3738776aff4	3	1	main_z	11	main_z	115	stimuli_distractor_trianglediamonds.svg	stimuli_distractor_trianglediamonds.svg	34	no	0	1	2000	0	0			0	0			1				0	
6.6.1	win	2023-06-13	02:03:57	02:15:17	676895	6441890f4ea5d3738776aff4	3	1	main_z	11	advance_on_keypress_ZEE	116	stimuli_distractor_trianglediamonds.svg	stimuli_distractor_trianglediamonds.svg	34	no	57	0	301	0	0			0	0			1				0	
6.6.1	win	2023-06-13	02:03:57	02:15:19	678423	6441890f4ea5d3738776aff4	3	1	main_z	11	main_z	117	stimuli_distractor_diamondtriangles.svg	stimuli_target_squaretriangles.svg	15	yes	44	1	575	0	0			0	0			1				0	
6.6.1	win	2023-06-13	02:03:57	02:15:19	678423	6441890f4ea5d3738776aff4	3	1	main_z	11	advance_on_keypress_ZEE	118	stimuli_distractor_diamondtriangles.svg	stimuli_target_squaretriangles.svg	15	yes	57	0	2839	0	0			0	0			1				0	
6.6.1	win	2023-06-13	02:03:57	02:15:23	682447	6441890f4ea5d3738776aff4	3	1	main_z	11	main_z	119	stimuli_distractor_diamondtriangles.svg	stimuli_target_trianglesquares.svg	30	yes	44	1	546	0	0			0	0			1				0	
6.6.1	win	2023-06-13	02:03:57	02:15:23	682447	6441890f4ea5d3738776aff4	3	1	main_z	11	advance_on_keypress_ZEE	120	stimuli_distractor_diamondtriangles.svg	stimuli_target_trianglesquares.svg	30	yes	57	0	515	0	0			0	0			1				0	
6.6.1	win	2023-06-13	02:03:57	02:15:24	684175	6441890f4ea5d3738776aff4	3	1	main_z	11	main_z	121	stimuli_target_trianglerectangles.svg	stimuli_distractor_diamondtriangles.svg	21	yes	44	1	573	0	0			0	0			1				0	
6.6.1	win	2023-06-13	02:03:57	02:15:24	684175	6441890f4ea5d3738776aff4	3	1	main_z	11	advance_on_keypress_ZEE	122	stimuli_target_trianglerectangles.svg	stimuli_distractor_diamondtriangles.svg	21	yes	57	0	364	0	0			0	0			1				0	
6.6.1	win	2023-06-13	02:03:57	02:15:26	685551	6441890f4ea5d3738776aff4	3	1	main_z	11	main_z	123	stimuli_target_squaretriangles.svg	stimuli_distractor_trianglediamonds.svg	3	yes	44	1	364	0	0			0	0			1				0	
6.6.1	win	2023-06-13	02:03:57	02:15:26	685551	6441890f4ea5d3738776aff4	3	1	main_z	11	advance_on_keypress_ZEE	124	stimuli_target_squaretriangles.svg	stimuli_distractor_trianglediamonds.svg	3	yes	57	0	334	0	0			0	0			1				0	
6.6.1	win	2023-06-13	02:03:57	02:15:27	686879	6441890f4ea5d3738776aff4	3	1	main_z	11	main_z	125	stimuli_distractor_trianglediamonds.svg	stimuli_target_squaretriangles.svg	11	yes	44	1	357	0	0			0	0			1				0	
6.6.1	win	2023-06-13	02:03:57	02:15:27	686879	6441890f4ea5d3738776aff4	3	1	main_z	11	advance_on_keypress_ZEE	126	stimuli_distractor_trianglediamonds.svg	stimuli_target_squaretriangles.svg	11	yes	57	0	286	0	0			0	0			1				0	
6.6.1	win	2023-06-13	02:03:57	02:15:28	688239	6441890f4ea5d3738776aff4	3	1	main_z	11	main_z	127	stimuli_distractor_trianglediamonds.svg	stimuli_target_rectangletriangles.svg	9	yes	44	1	433	0	0			0	0			1				0	
6.6.1	win	2023-06-13	02:03:57	02:15:28	688239	6441890f4ea5d3738776aff4	3	1	main_z	11	advance_on_keypress_ZEE	128	stimuli_distractor_trianglediamonds.svg	stimuli_target_rectangletriangles.svg	9	yes	57	0	198	0	0			0	0			1				0	
6.6.1	win	2023-06-13	02:03:57	02:15:31	691090	6441890f4ea5d3738776aff4	3	1	main_z	11	main_z	129	stimuli_distractor_diamondtriangles.svg	stimuli_target_diamondrectangles.svg	31	yes	0	0	2000	0	0			0	0			1				0	
6.6.1	win	2023-06-13	02:03:57	02:15:31	691090	6441890f4ea5d3738776aff4	3	1	main_z	11	advance_on_keypress_ZEE	130	stimuli_distractor_diamondtriangles.svg	stimuli_target_diamondrectangles.svg	31	yes	57	0	491	0	0			0	0			1				0	
6.6.1	win	2023-06-13	02:03:57	02:15:34	694209	6441890f4ea5d3738776aff4	3	1	main_z	11	main_z	131	stimuli_distractor_trianglediamonds.svg	stimuli_distractor_diamondtriangles.svg	35	no	0	1	2000	0	0			0	0			1				0	
6.6.1	win	2023-06-13	02:03:57	02:15:34	694209	6441890f4ea5d3738776aff4	3	1	main_z	11	advance_on_keypress_ZEE	132	stimuli_distractor_trianglediamonds.svg	stimuli_distractor_diamondtriangles.svg	35	no	57	0	491	0	0			0	0			1				0	
6.6.1	win	2023-06-13	02:03:57	02:15:36	695903	6441890f4ea5d3738776aff4	3	1	main_z	11	main_z	133	stimuli_distractor_diamondtriangles.svg	stimuli_target_squarediamonds.svg	16	yes	44	1	574	0	0			0	0			1				0	
6.6.1	win	2023-06-13	02:03:57	02:15:36	695903	6441890f4ea5d3738776aff4	3	1	main_z	11	advance_on_keypress_ZEE	134	stimuli_distractor_diamondtriangles.svg	stimuli_target_squarediamonds.svg	16	yes	57	0	270	0	0			0	0			1				0	
6.6.1	win	2023-06-13	02:03:57	02:15:37	697201	6441890f4ea5d3738776aff4	3	1	main_z	11	main_z	135	stimuli_target_squaretriangles.svg	stimuli_distractor_diamondtriangles.svg	7	yes	44	1	385	0	0			0	0			1				0	
6.6.1	win	2023-06-13	02:03:57	02:15:37	697201	6441890f4ea5d3738776aff4	3	1	main_z	11	advance_on_keypress_ZEE	136	stimuli_target_squaretriangles.svg	stimuli_distractor_diamondtriangles.svg	7	yes	57	0	289	0	0			0	0			1				0	
6.6.1	win	2023-06-13	02:03:57	02:15:39	698863	6441890f4ea5d3738776aff4	3	1	main_z	11	main_z	137	stimuli_target_trianglesquares.svg	stimuli_distractor_diamondtriangles.svg	22	yes	44	1	732	0	0			0	0			1				0	
6.6.1	win	2023-06-13	02:03:57	02:15:39	698863	6441890f4ea5d3738776aff4	3	1	main_z	11	advance_on_keypress_ZEE	138	stimuli_target_trianglesquares.svg	stimuli_distractor_diamondtriangles.svg	22	yes	57	0	301	0	0			0	0			1				0	
6.6.1	win	2023-06-13	02:03:57	02:15:42	701799	6441890f4ea5d3738776aff4	3	1	main_z	11	main_z	139	stimuli_target_diamondrectangles.svg	stimuli_distractor_diamondtriangles.svg	23	yes	0	0	2000	0	0			0	0			1				0	
6.6.1	win	2023-06-13	02:03:57	02:15:42	701799	6441890f4ea5d3738776aff4	3	1	main_z	11	advance_on_keypress_ZEE	140	stimuli_target_diamondrectangles.svg	stimuli_distractor_diamondtriangles.svg	23	yes	57	0	461	0	0			0	0			1				0	
6.6.1	win	2023-06-13	02:03:57	02:15:44	703439	6441890f4ea5d3738776aff4	3	1	main_z	11	main_z	141	stimuli_distractor_diamondtriangles.svg	stimuli_target_rectangletriangles.svg	13	yes	44	1	537	0	0			0	0			1				0	
6.6.1	win	2023-06-13	02:03:57	02:15:44	703439	6441890f4ea5d3738776aff4	3	1	main_z	11	advance_on_keypress_ZEE	142	stimuli_distractor_diamondtriangles.svg	stimuli_target_rectangletriangles.svg	13	yes	57	0	282	0	0			0	0			1				0	
6.6.1	win	2023-06-13	02:03:57	02:15:47	706370	6441890f4ea5d3738776aff4	3	1	main_z	11	main_z	143	stimuli_target_diamondsquares.svg	stimuli_distractor_diamondtriangles.svg	24	yes	0	0	2000	0	0			0	0			1				0	
6.6.1	win	2023-06-13	02:03:57	02:15:47	706370	6441890f4ea5d3738776aff4	3	1	main_z	11	advance_on_keypress_ZEE	144	stimuli_target_diamondsquares.svg	stimuli_distractor_diamondtriangles.svg	24	yes	57	0	322	0	0			0	0			1				0	
6.6.1	win	2023-06-13	02:03:57	02:15:49	708607	6441890f4ea5d3738776aff4	3	1	main_z	11	main_z	145	stimuli_distractor_trianglediamonds.svg	stimuli_distractor_diamondtriangles.svg	36	no	44	0	1268	0	0			0	0			1				0	
6.6.1	win	2023-06-13	02:03:57	02:15:49	708607	6441890f4ea5d3738776aff4	3	1	main_z	11	advance_on_keypress_ZEE	146	stimuli_distractor_trianglediamonds.svg	stimuli_distractor_diamondtriangles.svg	36	no	57	0	327	0	0			0	0			1				0	
6.6.1	win	2023-06-13	02:03:57	02:15:52	711574	6441890f4ea5d3738776aff4	3	1	main_z	11	main_z	147	stimuli_distractor_diamondtriangles.svg	stimuli_distractor_diamondtriangles.svg	39	no	0	1	2000	0	0			0	0			1				0	
6.6.1	win	2023-06-13	02:03:57	02:15:52	711574	6441890f4ea5d3738776aff4	3	1	main_z	11	advance_on_keypress_ZEE	148	stimuli_distractor_diamondtriangles.svg	stimuli_distractor_diamondtriangles.svg	39	no	57	0	414	0	0			0	0			1				0	
6.6.1	win	2023-06-13	02:03:57	02:15:53	713119	6441890f4ea5d3738776aff4	3	1	main_z	11	main_z	149	stimuli_target_trianglesquares.svg	stimuli_distractor_trianglediamonds.svg	18	yes	44	1	492	0	0			0	0			1				0	
6.6.1	win	2023-06-13	02:03:57	02:15:53	713119	6441890f4ea5d3738776aff4	3	1	main_z	11	advance_on_keypress_ZEE	150	stimuli_target_trianglesquares.svg	stimuli_distractor_trianglediamonds.svg	18	yes	57	0	375	0	0			0	0			1				0	
6.6.1	win	2023-06-13	02:03:57	02:15:55	715095	6441890f4ea5d3738776aff4	3	1	main_z	11	main_z	151	stimuli_distractor_trianglediamonds.svg	stimuli_target_trianglerectangles.svg	25	yes	44	1	967	0	0			0	0			1				0	
6.6.1	win	2023-06-13	02:03:57	02:15:55	715095	6441890f4ea5d3738776aff4	3	1	main_z	11	advance_on_keypress_ZEE	152	stimuli_distractor_trianglediamonds.svg	stimuli_target_trianglerectangles.svg	25	yes	57	0	326	0	0			0	0			1				0	
6.6.1	win	2023-06-13	02:03:57	02:15:58	718063	6441890f4ea5d3738776aff4	3	1	main_z	11	main_z	153	stimuli_distractor_diamondtriangles.svg	stimuli_distractor_diamondtriangles.svg	40	no	0	1	2000	0	0			0	0			1				0	
6.6.1	win	2023-06-13	02:03:57	02:15:58	718063	6441890f4ea5d3738776aff4	3	1	main_z	11	advance_on_keypress_ZEE	154	stimuli_distractor_diamondtriangles.svg	stimuli_distractor_diamondtriangles.svg	40	no	57	0	469	0	0			0	0			1				0	
6.6.1	win	2023-06-13	02:03:57	02:16:01	721182	6441890f4ea5d3738776aff4	3	1	main_z	11	main_z	155	stimuli_distractor_diamondtriangles.svg	stimuli_target_trianglerectangles.svg	29	yes	0	0	2000	0	0			0	0			1				0	
6.6.1	win	2023-06-13	02:03:57	02:16:01	721182	6441890f4ea5d3738776aff4	3	1	main_z	11	advance_on_keypress_ZEE	156	stimuli_distractor_diamondtriangles.svg	stimuli_target_trianglerectangles.svg	29	yes	57	0	358	0	0			0	0			1				0	
6.6.1	win	2023-06-13	02:03:57	02:16:03	722607	6441890f4ea5d3738776aff4	3	1	main_z	11	main_z	157	stimuli_target_squarediamonds.svg	stimuli_distractor_trianglediamonds.svg	4	yes	44	1	422	0	0			0	0			1				0	
6.6.1	win	2023-06-13	02:03:57	02:16:03	722607	6441890f4ea5d3738776aff4	3	1	main_z	11	advance_on_keypress_ZEE	158	stimuli_target_squarediamonds.svg	stimuli_distractor_trianglediamonds.svg	4	yes	57	0	332	0	0			0	0			1				0	
6.6.1	win	2023-06-13	02:03:57	02:16:06	725586	6441890f4ea5d3738776aff4	3	1	main_z	11	main_z	159	stimuli_target_trianglerectangles.svg	stimuli_distractor_trianglediamonds.svg	17	yes	0	0	2000	0	0			0	0			1				0	
6.6.1	win	2023-06-13	02:03:57	02:16:06	725586	6441890f4ea5d3738776aff4	3	1	main_z	11	advance_on_keypress_ZEE	160	stimuli_target_trianglerectangles.svg	stimuli_distractor_trianglediamonds.svg	17	yes	57	0	314	0	0			0	0			1				0	
6.6.1	win	2023-06-13	02:03:57	02:16:06	725586	6441890f4ea5d3738776aff4	3	1	headphonecheck_calibration	14	headphonecheck_calibrationIntro	1	stimuli_target_trianglerectangles.svg	stimuli_distractor_trianglediamonds.svg	17	yes	calibrationButton	0	4052	0	0			0	0			1				0	
6.6.1	win	2023-06-13	02:03:57	02:16:06	725586	6441890f4ea5d3738776aff4	3	1	headphonecheck_testphase	15	test_collectResponse	3	stimuli_target_trianglerectangles.svg	stimuli_distractor_trianglediamonds.svg	17	yes	third	1	2760	1	6	antiphase_hc_ois.wav	3	0	0			1				0	
6.6.1	win	2023-06-13	02:03:57	02:16:06	725586	6441890f4ea5d3738776aff4	3	1	headphonecheck_testphase	15	test_collectResponse	6	stimuli_target_trianglerectangles.svg	stimuli_distractor_trianglediamonds.svg	17	yes	first	1	565	2	4	antiphase_hc_sio.wav	1	0	0			1				0	
6.6.1	win	2023-06-13	02:03:57	02:16:06	725586	6441890f4ea5d3738776aff4	3	1	headphonecheck_testphase	15	test_collectResponse	9	stimuli_target_trianglerectangles.svg	stimuli_distractor_trianglediamonds.svg	17	yes	first	1	354	3	3	antiphase_hc_soi.wav	1	0	0			1				0	
6.6.1	win	2023-06-13	02:03:57	02:16:06	725586	6441890f4ea5d3738776aff4	3	1	headphonecheck_testphase	15	test_collectResponse	12	stimuli_target_trianglerectangles.svg	stimuli_distractor_trianglediamonds.svg	17	yes	third	1	442	4	2	antiphase_hc_ios.wav	3	0	0			1				0	
6.6.1	win	2023-06-13	02:03:57	02:16:06	725586	6441890f4ea5d3738776aff4	3	1	headphonecheck_testphase	15	test_collectResponse	15	stimuli_target_trianglerectangles.svg	stimuli_distractor_trianglediamonds.svg	17	yes	second	1	319	5	5	antiphase_hc_osi.wav	2	0	0			1				0	
6.6.1	win	2023-06-13	02:03:57	02:16:06	725586	6441890f4ea5d3738776aff4	3	1	headphonecheck_testphase	15	test_collectResponse	18	stimuli_target_trianglerectangles.svg	stimuli_distractor_trianglediamonds.svg	17	yes	second	1	690	6	1	antiphase_hc_iso.wav	2	0	0			1				0	
6.6.1	win	2023-06-13	02:03:57	02:16:06	725586	6441890f4ea5d3738776aff4	3	1	stereocheck_calibration	17	stereocheck_calibrationIntro	1	stimuli_target_trianglerectangles.svg	stimuli_distractor_trianglediamonds.svg	17	yes	stereocheck_calibrationButton	0	7146	6	1	antiphase_hc_iso.wav	2	0	0			1				0	
6.6.1	win	2023-06-13	02:03:57	02:16:06	725586	6441890f4ea5d3738776aff4	3	1	stereocheck_testphase	18	stereocheck_test_collectResponse	3	stimuli_target_trianglerectangles.svg	stimuli_distractor_trianglediamonds.svg	17	yes	stereocheck_left	1	1161	6	1	antiphase_hc_iso.wav	2	1	1	noise_calib_stim_LEFT.wav	1	1				0	
6.6.1	win	2023-06-13	02:03:57	02:16:06	725586	6441890f4ea5d3738776aff4	3	1	stereocheck_testphase	18	stereocheck_test_collectResponse	6	stimuli_target_trianglerectangles.svg	stimuli_distractor_trianglediamonds.svg	17	yes	stereocheck_right	1	347	6	1	antiphase_hc_iso.wav	2	2	6	noise_calib_stim_RIGHT.wav	2	1				0	
6.6.1	win	2023-06-13	02:03:57	02:16:06	725586	6441890f4ea5d3738776aff4	3	1	stereocheck_testphase	18	stereocheck_test_collectResponse	9	stimuli_target_trianglerectangles.svg	stimuli_distractor_trianglediamonds.svg	17	yes	stereocheck_right	1	295	6	1	antiphase_hc_iso.wav	2	3	5	noise_calib_stim_RIGHT.wav	2	1				0	
6.6.1	win	2023-06-13	02:03:57	02:16:06	725586	6441890f4ea5d3738776aff4	3	1	stereocheck_testphase	18	stereocheck_test_collectResponse	12	stimuli_target_trianglerectangles.svg	stimuli_distractor_trianglediamonds.svg	17	yes	stereocheck_right	1	330	6	1	antiphase_hc_iso.wav	2	4	4	noise_calib_stim_RIGHT.wav	2	1				0	
6.6.1	win	2023-06-13	02:03:57	02:16:06	725586	6441890f4ea5d3738776aff4	3	1	stereocheck_testphase	18	stereocheck_test_collectResponse	15	stimuli_target_trianglerectangles.svg	stimuli_distractor_trianglediamonds.svg	17	yes	stereocheck_left	1	264	6	1	antiphase_hc_iso.wav	2	5	3	noise_calib_stim_LEFT.wav	1	1				0	
6.6.1	win	2023-06-13	02:03:57	02:16:06	725586	6441890f4ea5d3738776aff4	3	1	stereocheck_testphase	18	stereocheck_test_collectResponse	18	stimuli_target_trianglerectangles.svg	stimuli_distractor_trianglediamonds.svg	17	yes	stereocheck_left	1	308	6	1	antiphase_hc_iso.wav	2	6	2	noise_calib_stim_LEFT.wav	1	1				0	
6.6.1	win	2023-06-13	02:03:57	02:16:06	725586	6441890f4ea5d3738776aff4	3	1	DL_practice	21	DL_practice	2	stimuli_target_trianglerectangles.svg	stimuli_distractor_trianglediamonds.svg	17	yes	ka	1	756	6	1	antiphase_hc_iso.wav	2	6	2	noise_calib_stim_LEFT.wav	1	22	blb_dichoticlistening_ka-ka.mp3	ka	ka	0	left
6.6.1	win	2023-06-13	02:03:57	02:16:06	725586	6441890f4ea5d3738776aff4	3	1	DL_practice	21	DL_practice	3	stimuli_target_trianglerectangles.svg	stimuli_distractor_trianglediamonds.svg	17	yes	da	1	1021	6	1	antiphase_hc_iso.wav	2	6	2	noise_calib_stim_LEFT.wav	1	8	blb_dichoticlistening_da-da.mp3	da	da	0	left
6.6.1	win	2023-06-13	02:03:57	02:16:06	725586	6441890f4ea5d3738776aff4	3	1	DL_practice	21	DL_practice	4	stimuli_target_trianglerectangles.svg	stimuli_distractor_trianglediamonds.svg	17	yes	ga	1	505	6	1	antiphase_hc_iso.wav	2	6	2	noise_calib_stim_LEFT.wav	1	15	blb_dichoticlistening_ga-ga.mp3	ga	ga	0	left
6.6.1	win	2023-06-13	02:03:57	02:16:06	725586	6441890f4ea5d3738776aff4	3	1	DL_practice	21	DL_practice	5	stimuli_target_trianglerectangles.svg	stimuli_distractor_trianglediamonds.svg	17	yes	ga	1	775	6	1	antiphase_hc_iso.wav	2	6	2	noise_calib_stim_LEFT.wav	1	18	blb_dichoticlistening_ga-ta.mp3	ga	ta	1	left
6.6.1	win	2023-06-13	02:03:57	02:16:06	725586	6441890f4ea5d3738776aff4	3	1	DL_practice	21	DL_practice	6	stimuli_target_trianglerectangles.svg	stimuli_distractor_trianglediamonds.svg	17	yes	ba	1	1840	6	1	antiphase_hc_iso.wav	2	6	2	noise_calib_stim_LEFT.wav	1	7	blb_dichoticlistening_da-ba.mp3	da	ba	1	right
6.6.1	win	2023-06-13	02:03:57	02:16:06	725586	6441890f4ea5d3738776aff4	3	1	DL_practice	21	DL_practice	7	stimuli_target_trianglerectangles.svg	stimuli_distractor_trianglediamonds.svg	17	yes	pa	1	1282	6	1	antiphase_hc_iso.wav	2	6	2	noise_calib_stim_LEFT.wav	1	29	blb_dichoticlistening_pa-pa.mp3	pa	pa	0	left
6.6.1	win	2023-06-13	02:03:57	02:16:06	725586	6441890f4ea5d3738776aff4	3	1	DL_practice	21	DL_practice	8	stimuli_target_trianglerectangles.svg	stimuli_distractor_trianglediamonds.svg	17	yes	ta	1	848	6	1	antiphase_hc_iso.wav	2	6	2	noise_calib_stim_LEFT.wav	1	36	blb_dichoticlistening_ta-ta.mp3	ta	ta	0	left
6.6.1	win	2023-06-13	02:03:57	02:16:06	725586	6441890f4ea5d3738776aff4	3	1	DL_practice	21	DL_practice	9	stimuli_target_trianglerectangles.svg	stimuli_distractor_trianglediamonds.svg	17	yes	ba	1	2216	6	1	antiphase_hc_iso.wav	2	6	2	noise_calib_stim_LEFT.wav	1	1	blb_dichoticlistening_ba-ba.mp3	ba	ba	0	left
6.6.1	win	2023-06-13	02:03:57	02:16:06	725586	6441890f4ea5d3738776aff4	3	1	DL_practice	21	DL_practice	10	stimuli_target_trianglerectangles.svg	stimuli_distractor_trianglediamonds.svg	17	yes	ka	1	979	6	1	antiphase_hc_iso.wav	2	6	2	noise_calib_stim_LEFT.wav	1	23	blb_dichoticlistening_ka-pa.mp3	ka	pa	1	left
6.6.1	win	2023-06-13	02:03:57	02:16:06	725586	6441890f4ea5d3738776aff4	3	1	DL_test	23	DL_test	1	stimuli_target_trianglerectangles.svg	stimuli_distractor_trianglediamonds.svg	17	yes	da	1	840	6	1	antiphase_hc_iso.wav	2	6	2	noise_calib_stim_LEFT.wav	1	8	blb_dichoticlistening_da-da.mp3	da	da	0	left
6.6.1	win	2023-06-13	02:03:57	02:16:06	725586	6441890f4ea5d3738776aff4	3	1	DL_test	23	DL_test	2	stimuli_target_trianglerectangles.svg	stimuli_distractor_trianglediamonds.svg	17	yes	da	1	954	6	1	antiphase_hc_iso.wav	2	6	2	noise_calib_stim_LEFT.wav	1	9	blb_dichoticlistening_da-ga.mp3	da	ga	1	left
6.6.1	win	2023-06-13	02:03:57	02:16:06	725586	6441890f4ea5d3738776aff4	3	1	DL_test	23	DL_test	3	stimuli_target_trianglerectangles.svg	stimuli_distractor_trianglediamonds.svg	17	yes	ta	1	1161	6	1	antiphase_hc_iso.wav	2	6	2	noise_calib_stim_LEFT.wav	1	30	blb_dichoticlistening_pa-ta.mp3	pa	ta	1	right
6.6.1	win	2023-06-13	02:03:57	02:16:06	725586	6441890f4ea5d3738776aff4	3	1	DL_test	23	DL_test	4	stimuli_target_trianglerectangles.svg	stimuli_distractor_trianglediamonds.svg	17	yes	ka	1	617	6	1	antiphase_hc_iso.wav	2	6	2	noise_calib_stim_LEFT.wav	1	28	blb_dichoticlistening_pa-ka.mp3	pa	ka	1	right
6.6.1	win	2023-06-13	02:03:57	02:16:06	725586	6441890f4ea5d3738776aff4	3	1	DL_test	23	DL_test	5	stimuli_target_trianglerectangles.svg	stimuli_distractor_trianglediamonds.svg	17	yes	pa	0	1592	6	1	antiphase_hc_iso.wav	2	6	2	noise_calib_stim_LEFT.wav	1	6	blb_dichoticlistening_ba-ta.mp3	ba	ta	1	other
6.6.1	win	2023-06-13	02:03:57	02:16:06	725586	6441890f4ea5d3738776aff4	3	1	DL_test	23	DL_test	6	stimuli_target_trianglerectangles.svg	stimuli_distractor_trianglediamonds.svg	17	yes	ta	1	1614	6	1	antiphase_hc_iso.wav	2	6	2	noise_calib_stim_LEFT.wav	1	31	blb_dichoticlistening_ta-ba.mp3	ta	ba	1	left
6.6.1	win	2023-06-13	02:03:57	02:16:06	725586	6441890f4ea5d3738776aff4	3	1	DL_test	23	DL_test	7	stimuli_target_trianglerectangles.svg	stimuli_distractor_trianglediamonds.svg	17	yes	ga	0	1597	6	1	antiphase_hc_iso.wav	2	6	2	noise_calib_stim_LEFT.wav	1	20	blb_dichoticlistening_ka-da.mp3	ka	da	1	other
6.6.1	win	2023-06-13	02:03:57	02:16:06	725586	6441890f4ea5d3738776aff4	3	1	DL_test	23	DL_test	8	stimuli_target_trianglerectangles.svg	stimuli_distractor_trianglediamonds.svg	17	yes	ka	1	869	6	1	antiphase_hc_iso.wav	2	6	2	noise_calib_stim_LEFT.wav	1	34	blb_dichoticlistening_ta-ka.mp3	ta	ka	1	right
6.6.1	win	2023-06-13	02:03:57	02:16:06	725586	6441890f4ea5d3738776aff4	3	1	DL_test	23	DL_test	9	stimuli_target_trianglerectangles.svg	stimuli_distractor_trianglediamonds.svg	17	yes	ta	1	2552	6	1	antiphase_hc_iso.wav	2	6	2	noise_calib_stim_LEFT.wav	1	12	blb_dichoticlistening_da-ta.mp3	da	ta	1	right
6.6.1	win	2023-06-13	02:03:57	02:16:06	725586	6441890f4ea5d3738776aff4	3	1	DL_test	23	DL_test	10	stimuli_target_trianglerectangles.svg	stimuli_distractor_trianglediamonds.svg	17	yes	ta	0	1816	6	1	antiphase_hc_iso.wav	2	6	2	noise_calib_stim_LEFT.wav	1	11	blb_dichoticlistening_da-pa.mp3	da	pa	1	other
6.6.1	win	2023-06-13	02:03:57	02:16:06	725586	6441890f4ea5d3738776aff4	3	1	DL_test	23	DL_test	11	stimuli_target_trianglerectangles.svg	stimuli_distractor_trianglediamonds.svg	17	yes	ga	1	1171	6	1	antiphase_hc_iso.wav	2	6	2	noise_calib_stim_LEFT.wav	1	21	blb_dichoticlistening_ka-ga.mp3	ka	ga	1	right
6.6.1	win	2023-06-13	02:03:57	02:16:06	725586	6441890f4ea5d3738776aff4	3	1	DL_test	23	DL_test	12	stimuli_target_trianglerectangles.svg	stimuli_distractor_trianglediamonds.svg	17	yes	ga	1	748	6	1	antiphase_hc_iso.wav	2	6	2	noise_calib_stim_LEFT.wav	1	15	blb_dichoticlistening_ga-ga.mp3	ga	ga	0	left
6.6.1	win	2023-06-13	02:03:57	02:16:06	725586	6441890f4ea5d3738776aff4	3	1	DL_test	23	DL_test	13	stimuli_target_trianglerectangles.svg	stimuli_distractor_trianglediamonds.svg	17	yes	ba	1	1200	6	1	antiphase_hc_iso.wav	2	6	2	noise_calib_stim_LEFT.wav	1	13	blb_dichoticlistening_ga-ba.mp3	ga	ba	1	right
6.6.1	win	2023-06-13	02:03:57	02:16:06	725586	6441890f4ea5d3738776aff4	3	1	DL_test	23	DL_test	14	stimuli_target_trianglerectangles.svg	stimuli_distractor_trianglediamonds.svg	17	yes	pa	1	1253	6	1	antiphase_hc_iso.wav	2	6	2	noise_calib_stim_LEFT.wav	1	29	blb_dichoticlistening_pa-pa.mp3	pa	pa	0	left
6.6.1	win	2023-06-13	02:03:57	02:16:06	725586	6441890f4ea5d3738776aff4	3	1	DL_test	23	DL_test	15	stimuli_target_trianglerectangles.svg	stimuli_distractor_trianglediamonds.svg	17	yes	ga	1	663	6	1	antiphase_hc_iso.wav	2	6	2	noise_calib_stim_LEFT.wav	1	16	blb_dichoticlistening_ga-ka.mp3	ga	ka	1	left
6.6.1	win	2023-06-13	02:03:57	02:16:06	725586	6441890f4ea5d3738776aff4	3	1	DL_test	23	DL_test	16	stimuli_target_trianglerectangles.svg	stimuli_distractor_trianglediamonds.svg	17	yes	da	1	1913	6	1	antiphase_hc_iso.wav	2	6	2	noise_calib_stim_LEFT.wav	1	2	blb_dichoticlistening_ba-da.mp3	ba	da	1	right
6.6.1	win	2023-06-13	02:03:57	02:16:06	725586	6441890f4ea5d3738776aff4	3	1	DL_test	23	DL_test	17	stimuli_target_trianglerectangles.svg	stimuli_distractor_trianglediamonds.svg	17	yes	ka	0	2460	6	1	antiphase_hc_iso.wav	2	6	2	noise_calib_stim_LEFT.wav	1	17	blb_dichoticlistening_ga-pa.mp3	ga	pa	1	other
6.6.1	win	2023-06-13	02:03:57	02:16:06	725586	6441890f4ea5d3738776aff4	3	1	DL_test	23	DL_test	18	stimuli_target_trianglerectangles.svg	stimuli_distractor_trianglediamonds.svg	17	yes	ka	1	706	6	1	antiphase_hc_iso.wav	2	6	2	noise_calib_stim_LEFT.wav	1	24	blb_dichoticlistening_ka-ta.mp3	ka	ta	1	left
6.6.1	win	2023-06-13	02:03:57	02:16:06	725586	6441890f4ea5d3738776aff4	3	1	DL_test	23	DL_test	19	stimuli_target_trianglerectangles.svg	stimuli_distractor_trianglediamonds.svg	17	yes	da	1	975	6	1	antiphase_hc_iso.wav	2	6	2	noise_calib_stim_LEFT.wav	1	32	blb_dichoticlistening_ta-da.mp3	ta	da	1	right
6.6.1	win	2023-06-13	02:03:57	02:16:06	725586	6441890f4ea5d3738776aff4	3	1	DL_test	23	DL_test	20	stimuli_target_trianglerectangles.svg	stimuli_distractor_trianglediamonds.svg	17	yes	ba	1	2049	6	1	antiphase_hc_iso.wav	2	6	2	noise_calib_stim_LEFT.wav	1	25	blb_dichoticlistening_pa-ba.mp3	pa	ba	1	right
6.6.1	win	2023-06-13	02:03:57	02:16:06	725586	6441890f4ea5d3738776aff4	3	1	DL_test	23	DL_test	21	stimuli_target_trianglerectangles.svg	stimuli_distractor_trianglediamonds.svg	17	yes	ka	1	905	6	1	antiphase_hc_iso.wav	2	6	2	noise_calib_stim_LEFT.wav	1	22	blb_dichoticlistening_ka-ka.mp3	ka	ka	0	left
6.6.1	win	2023-06-13	02:03:57	02:16:06	725586	6441890f4ea5d3738776aff4	3	1	DL_test	23	DL_test	22	stimuli_target_trianglerectangles.svg	stimuli_distractor_trianglediamonds.svg	17	yes	ga	1	1322	6	1	antiphase_hc_iso.wav	2	6	2	noise_calib_stim_LEFT.wav	1	33	blb_dichoticlistening_ta-ga.mp3	ta	ga	1	right
6.6.1	win	2023-06-13	02:03:57	02:16:06	725586	6441890f4ea5d3738776aff4	3	1	DL_test	23	DL_test	23	stimuli_target_trianglerectangles.svg	stimuli_distractor_trianglediamonds.svg	17	yes	ba	1	1080	6	1	antiphase_hc_iso.wav	2	6	2	noise_calib_stim_LEFT.wav	1	1	blb_dichoticlistening_ba-ba.mp3	ba	ba	0	left
6.6.1	win	2023-06-13	02:03:57	02:16:06	725586	6441890f4ea5d3738776aff4	3	1	DL_test	23	DL_test	24	stimuli_target_trianglerectangles.svg	stimuli_distractor_trianglediamonds.svg	17	yes	ka	1	1304	6	1	antiphase_hc_iso.wav	2	6	2	noise_calib_stim_LEFT.wav	1	4	blb_dichoticlistening_ba-ka.mp3	ba	ka	1	right
6.6.1	win	2023-06-13	02:03:57	02:16:06	725586	6441890f4ea5d3738776aff4	3	1	DL_test	23	DL_test	25	stimuli_target_trianglerectangles.svg	stimuli_distractor_trianglediamonds.svg	17	yes	ka	0	1205	6	1	antiphase_hc_iso.wav	2	6	2	noise_calib_stim_LEFT.wav	1	3	blb_dichoticlistening_ba-ga.mp3	ba	ga	1	other
6.6.1	win	2023-06-13	02:03:57	02:16:06	725586	6441890f4ea5d3738776aff4	3	1	DL_test	23	DL_test	26	stimuli_target_trianglerectangles.svg	stimuli_distractor_trianglediamonds.svg	17	yes	da	1	1136	6	1	antiphase_hc_iso.wav	2	6	2	noise_calib_stim_LEFT.wav	1	14	blb_dichoticlistening_ga-da.mp3	ga	da	1	right
