build	computer.platform	date	time	timestamp	time_elapsed_ms	subject	group	session	blockcode	blocknum	trialcode	trialnum	stimulus_left	stimulus_right	stim_index	target_present	response	correct	latency	headphonecheck_countTestTrials	headphonecheck_index	headphonecheck_testSound	headphonecheck_correctResponse	stereocheck_countTestTrials	stereocheck_index	stereocheck_testSound	stereocheck_correctResponse	DL_index	DL_soundfile	DL_leftSound	DL_rightSound	DL_dualSound	DL_choice
6.6.1	win	2023-07-09	14:58:06	15:00:47	159236	60fd006a5893cbce502dffd4	4	1	practice_z	5	practice_z	1	stimuli_target_squarediamonds.svg	stimuli_distractor_trianglediamonds.svg	5	yes	0	0	2000	0	0			0	0			1				0	
6.6.1	win	2023-07-09	14:58:06	15:00:47	159236	60fd006a5893cbce502dffd4	4	1	practice_z	5	advance_on_keypress_ZEE	2	stimuli_target_squarediamonds.svg	stimuli_distractor_trianglediamonds.svg	5	yes	57	0	1742	0	0			0	0			1				0	
6.6.1	win	2023-07-09	14:58:06	15:00:51	163118	60fd006a5893cbce502dffd4	4	1	practice_z	5	practice_z	3	stimuli_distractor_diamondtriangles.svg	stimuli_target_rectangletriangles.svg	7	yes	44	1	477	0	0			0	0			1				0	
6.6.1	win	2023-07-09	14:58:06	15:00:51	163118	60fd006a5893cbce502dffd4	4	1	practice_z	5	advance_on_keypress_ZEE	4	stimuli_distractor_diamondtriangles.svg	stimuli_target_rectangletriangles.svg	7	yes	57	0	1270	0	0			0	0			1				0	
6.6.1	win	2023-07-09	14:58:06	15:00:55	166752	60fd006a5893cbce502dffd4	4	1	practice_z	5	practice_z	5	stimuli_target_rectanglediamonds.svg	stimuli_distractor_trianglediamonds.svg	4	yes	44	1	702	0	0			0	0			1				0	
6.6.1	win	2023-07-09	14:58:06	15:00:55	166752	60fd006a5893cbce502dffd4	4	1	practice_z	5	advance_on_keypress_ZEE	6	stimuli_target_rectanglediamonds.svg	stimuli_distractor_trianglediamonds.svg	4	yes	57	0	1955	0	0			0	0			1				0	
6.6.1	win	2023-07-09	14:58:06	15:00:59	170757	60fd006a5893cbce502dffd4	4	1	practice_z	5	practice_z	7	stimuli_target_diamondsquares.svg	stimuli_distractor_diamondtriangles.svg	3	yes	44	1	381	0	0			0	0			1				0	
6.6.1	win	2023-07-09	14:58:06	15:00:59	170757	60fd006a5893cbce502dffd4	4	1	practice_z	5	advance_on_keypress_ZEE	8	stimuli_target_diamondsquares.svg	stimuli_distractor_diamondtriangles.svg	3	yes	57	0	866	0	0			0	0			1				0	
6.6.1	win	2023-07-09	14:58:06	15:01:03	174834	60fd006a5893cbce502dffd4	4	1	practice_z	5	practice_z	9	stimuli_distractor_diamondtriangles.svg	stimuli_distractor_trianglediamonds.svg	14	no	44	0	1548	0	0			0	0			1				0	
6.6.1	win	2023-07-09	14:58:06	15:01:03	174834	60fd006a5893cbce502dffd4	4	1	practice_z	5	advance_on_keypress_ZEE	10	stimuli_distractor_diamondtriangles.svg	stimuli_distractor_trianglediamonds.svg	14	no	57	0	1572	0	0			0	0			1				0	
6.6.1	win	2023-07-09	14:58:06	15:01:08	180069	60fd006a5893cbce502dffd4	4	1	practice_z	5	practice_z	11	stimuli_distractor_diamondtriangles.svg	stimuli_distractor_diamondtriangles.svg	13	no	0	1	2000	0	0			0	0			1				0	
6.6.1	win	2023-07-09	14:58:06	15:01:08	180069	60fd006a5893cbce502dffd4	4	1	practice_z	5	advance_on_keypress_ZEE	12	stimuli_distractor_diamondtriangles.svg	stimuli_distractor_diamondtriangles.svg	13	no	57	0	1996	0	0			0	0			1				0	
6.6.1	win	2023-07-09	14:58:06	15:01:12	184649	60fd006a5893cbce502dffd4	4	1	practice_z	5	practice_z	13	stimuli_distractor_diamondtriangles.svg	stimuli_target_trianglerectangles.svg	9	yes	44	1	923	0	0			0	0			1				0	
6.6.1	win	2023-07-09	14:58:06	15:01:12	184649	60fd006a5893cbce502dffd4	4	1	practice_z	5	advance_on_keypress_ZEE	14	stimuli_distractor_diamondtriangles.svg	stimuli_target_trianglerectangles.svg	9	yes	57	0	1650	0	0			0	0			1				0	
6.6.1	win	2023-07-09	14:58:06	15:01:18	189962	60fd006a5893cbce502dffd4	4	1	practice_z	5	practice_z	15	stimuli_distractor_trianglediamonds.svg	stimuli_target_diamondrectangles.svg	12	yes	0	0	2000	0	0			0	0			1				0	
6.6.1	win	2023-07-09	14:58:06	15:01:18	189962	60fd006a5893cbce502dffd4	4	1	practice_z	5	advance_on_keypress_ZEE	16	stimuli_distractor_trianglediamonds.svg	stimuli_target_diamondrectangles.svg	12	yes	57	0	1092	0	0			0	0			1				0	
6.6.1	win	2023-07-09	14:58:06	15:01:21	193447	60fd006a5893cbce502dffd4	4	1	practice_z	5	practice_z	17	stimuli_target_rectanglediamonds.svg	stimuli_distractor_diamondtriangles.svg	1	yes	44	1	732	0	0			0	0			1				0	
6.6.1	win	2023-07-09	14:58:06	15:01:21	193447	60fd006a5893cbce502dffd4	4	1	practice_z	5	advance_on_keypress_ZEE	18	stimuli_target_rectanglediamonds.svg	stimuli_distractor_diamondtriangles.svg	1	yes	57	0	847	0	0			0	0			1				0	
6.6.1	win	2023-07-09	14:58:06	15:01:24	196484	60fd006a5893cbce502dffd4	4	1	practice_z	5	practice_z	19	stimuli_distractor_trianglediamonds.svg	stimuli_target_rectanglediamonds.svg	10	yes	44	1	530	0	0			0	0			1				0	
6.6.1	win	2023-07-09	14:58:06	15:01:24	196484	60fd006a5893cbce502dffd4	4	1	practice_z	5	advance_on_keypress_ZEE	20	stimuli_distractor_trianglediamonds.svg	stimuli_target_rectanglediamonds.svg	10	yes	57	0	646	0	0			0	0			1				0	
6.6.1	win	2023-07-09	14:58:06	15:01:29	200792	60fd006a5893cbce502dffd4	4	1	practice_z	5	practice_z	21	stimuli_distractor_trianglediamonds.svg	stimuli_distractor_diamondtriangles.svg	16	no	0	1	2000	0	0			0	0			1				0	
6.6.1	win	2023-07-09	14:58:06	15:01:29	200792	60fd006a5893cbce502dffd4	4	1	practice_z	5	advance_on_keypress_ZEE	22	stimuli_distractor_trianglediamonds.svg	stimuli_distractor_diamondtriangles.svg	16	no	57	0	790	0	0			0	0			1				0	
6.6.1	win	2023-07-09	14:58:06	15:01:33	205245	60fd006a5893cbce502dffd4	4	1	practice_z	5	practice_z	23	stimuli_distractor_trianglediamonds.svg	stimuli_distractor_trianglediamonds.svg	15	no	0	1	2000	0	0			0	0			1				0	
6.6.1	win	2023-07-09	14:58:06	15:01:33	205245	60fd006a5893cbce502dffd4	4	1	practice_z	5	advance_on_keypress_ZEE	24	stimuli_distractor_trianglediamonds.svg	stimuli_distractor_trianglediamonds.svg	15	no	57	0	453	0	0			0	0			1				0	
6.6.1	win	2023-07-09	14:58:06	15:01:37	209341	60fd006a5893cbce502dffd4	4	1	practice_z	5	practice_z	25	stimuli_target_diamondsquares.svg	stimuli_distractor_trianglediamonds.svg	6	yes	0	0	2000	0	0			0	0			1				0	
6.6.1	win	2023-07-09	14:58:06	15:01:37	209341	60fd006a5893cbce502dffd4	4	1	practice_z	5	advance_on_keypress_ZEE	26	stimuli_target_diamondsquares.svg	stimuli_distractor_trianglediamonds.svg	6	yes	57	0	526	0	0			0	0			1				0	
6.6.1	win	2023-07-09	14:58:06	15:01:41	213512	60fd006a5893cbce502dffd4	4	1	practice_z	5	practice_z	27	stimuli_distractor_diamondtriangles.svg	stimuli_target_diamondrectangles.svg	8	yes	0	0	2000	0	0			0	0			1				0	
6.6.1	win	2023-07-09	14:58:06	15:01:41	213512	60fd006a5893cbce502dffd4	4	1	practice_z	5	advance_on_keypress_ZEE	28	stimuli_distractor_diamondtriangles.svg	stimuli_target_diamondrectangles.svg	8	yes	57	0	827	0	0			0	0			1				0	
6.6.1	win	2023-07-09	14:58:06	15:01:45	216686	60fd006a5893cbce502dffd4	4	1	practice_z	5	practice_z	29	stimuli_target_squarediamonds.svg	stimuli_distractor_diamondtriangles.svg	2	yes	44	1	687	0	0			0	0			1				0	
6.6.1	win	2023-07-09	14:58:06	15:01:45	216686	60fd006a5893cbce502dffd4	4	1	practice_z	5	advance_on_keypress_ZEE	30	stimuli_target_squarediamonds.svg	stimuli_distractor_diamondtriangles.svg	2	yes	57	0	995	0	0			0	0			1				0	
6.6.1	win	2023-07-09	14:58:06	15:01:48	219929	60fd006a5893cbce502dffd4	4	1	practice_z	5	practice_z	31	stimuli_distractor_trianglediamonds.svg	stimuli_target_squarediamonds.svg	11	yes	44	1	605	0	0			0	0			1				0	
6.6.1	win	2023-07-09	14:58:06	15:01:48	219929	60fd006a5893cbce502dffd4	4	1	practice_z	5	advance_on_keypress_ZEE	32	stimuli_distractor_trianglediamonds.svg	stimuli_target_squarediamonds.svg	11	yes	57	0	725	0	0			0	0			1				0	
6.6.1	win	2023-07-09	14:58:06	15:01:59	231537	60fd006a5893cbce502dffd4	4	1	main_z	7	main_z	1	stimuli_distractor_trianglediamonds.svg	stimuli_target_squaretriangles.svg	11	yes	44	1	711	0	0			0	0			1				0	
6.6.1	win	2023-07-09	14:58:06	15:01:59	231537	60fd006a5893cbce502dffd4	4	1	main_z	7	advance_on_keypress_ZEE	2	stimuli_distractor_trianglediamonds.svg	stimuli_target_squaretriangles.svg	11	yes	57	0	1285	0	0			0	0			1				0	
6.6.1	win	2023-07-09	14:58:06	15:02:02	234013	60fd006a5893cbce502dffd4	4	1	main_z	7	main_z	3	stimuli_target_rectanglediamonds.svg	stimuli_distractor_diamondtriangles.svg	6	yes	44	1	546	0	0			0	0			1				0	
6.6.1	win	2023-07-09	14:58:06	15:02:02	234013	60fd006a5893cbce502dffd4	4	1	main_z	7	advance_on_keypress_ZEE	4	stimuli_target_rectanglediamonds.svg	stimuli_distractor_diamondtriangles.svg	6	yes	57	0	686	0	0			0	0			1				0	
6.6.1	win	2023-07-09	14:58:06	15:02:05	237348	60fd006a5893cbce502dffd4	4	1	main_z	7	main_z	5	stimuli_target_trianglerectangles.svg	stimuli_distractor_trianglediamonds.svg	17	yes	0	0	2000	0	0			0	0			1				0	
6.6.1	win	2023-07-09	14:58:06	15:02:05	237348	60fd006a5893cbce502dffd4	4	1	main_z	7	advance_on_keypress_ZEE	6	stimuli_target_trianglerectangles.svg	stimuli_distractor_trianglediamonds.svg	17	yes	57	0	722	0	0			0	0			1				0	
6.6.1	win	2023-07-09	14:58:06	15:02:07	239471	60fd006a5893cbce502dffd4	4	1	main_z	7	main_z	7	stimuli_distractor_diamondtriangles.svg	stimuli_target_rectanglediamonds.svg	14	yes	44	1	744	0	0			0	0			1				0	
6.6.1	win	2023-07-09	14:58:06	15:02:07	239471	60fd006a5893cbce502dffd4	4	1	main_z	7	advance_on_keypress_ZEE	8	stimuli_distractor_diamondtriangles.svg	stimuli_target_rectanglediamonds.svg	14	yes	57	0	765	0	0			0	0			1				0	
6.6.1	win	2023-07-09	14:58:06	15:02:11	242898	60fd006a5893cbce502dffd4	4	1	main_z	7	main_z	9	stimuli_target_trianglesquares.svg	stimuli_distractor_diamondtriangles.svg	22	yes	0	0	2000	0	0			0	0			1				0	
6.6.1	win	2023-07-09	14:58:06	15:02:11	242898	60fd006a5893cbce502dffd4	4	1	main_z	7	advance_on_keypress_ZEE	10	stimuli_target_trianglesquares.svg	stimuli_distractor_diamondtriangles.svg	22	yes	57	0	607	0	0			0	0			1				0	
6.6.1	win	2023-07-09	14:58:06	15:02:13	245072	60fd006a5893cbce502dffd4	4	1	main_z	7	main_z	11	stimuli_distractor_diamondtriangles.svg	stimuli_target_trianglesquares.svg	30	yes	44	1	906	0	0			0	0			1				0	
6.6.1	win	2023-07-09	14:58:06	15:02:13	245072	60fd006a5893cbce502dffd4	4	1	main_z	7	advance_on_keypress_ZEE	12	stimuli_distractor_diamondtriangles.svg	stimuli_target_trianglesquares.svg	30	yes	57	0	1057	0	0			0	0			1				0	
6.6.1	win	2023-07-09	14:58:06	15:02:17	248790	60fd006a5893cbce502dffd4	4	1	main_z	7	main_z	13	stimuli_distractor_trianglediamonds.svg	stimuli_distractor_trianglediamonds.svg	34	no	0	1	2000	0	0			0	0			1				0	
6.6.1	win	2023-07-09	14:58:06	15:02:17	248790	60fd006a5893cbce502dffd4	4	1	main_z	7	advance_on_keypress_ZEE	14	stimuli_distractor_trianglediamonds.svg	stimuli_distractor_trianglediamonds.svg	34	no	57	0	565	0	0			0	0			1				0	
6.6.1	win	2023-07-09	14:58:06	15:02:19	250602	60fd006a5893cbce502dffd4	4	1	main_z	7	main_z	15	stimuli_target_rectangletriangles.svg	stimuli_distractor_trianglediamonds.svg	1	yes	44	1	587	0	0			0	0			1				0	
6.6.1	win	2023-07-09	14:58:06	15:02:19	250602	60fd006a5893cbce502dffd4	4	1	main_z	7	advance_on_keypress_ZEE	16	stimuli_target_rectangletriangles.svg	stimuli_distractor_trianglediamonds.svg	1	yes	57	0	751	0	0			0	0			1				0	
6.6.1	win	2023-07-09	14:58:06	15:02:22	254010	60fd006a5893cbce502dffd4	4	1	main_z	7	main_z	17	stimuli_distractor_trianglediamonds.svg	stimuli_target_diamondsquares.svg	28	yes	0	0	2000	0	0			0	0			1				0	
6.6.1	win	2023-07-09	14:58:06	15:02:22	254010	60fd006a5893cbce502dffd4	4	1	main_z	7	advance_on_keypress_ZEE	18	stimuli_distractor_trianglediamonds.svg	stimuli_target_diamondsquares.svg	28	yes	57	0	555	0	0			0	0			1				0	
6.6.1	win	2023-07-09	14:58:06	15:02:24	255916	60fd006a5893cbce502dffd4	4	1	main_z	7	main_z	19	stimuli_target_diamondsquares.svg	stimuli_distractor_diamondtriangles.svg	24	yes	44	1	691	0	0			0	0			1				0	
6.6.1	win	2023-07-09	14:58:06	15:02:24	255916	60fd006a5893cbce502dffd4	4	1	main_z	7	advance_on_keypress_ZEE	20	stimuli_target_diamondsquares.svg	stimuli_distractor_diamondtriangles.svg	24	yes	57	0	819	0	0			0	0			1				0	
6.6.1	win	2023-07-09	14:58:06	15:02:27	259393	60fd006a5893cbce502dffd4	4	1	main_z	7	main_z	21	stimuli_distractor_diamondtriangles.svg	stimuli_distractor_trianglediamonds.svg	38	no	0	1	2000	0	0			0	0			1				0	
6.6.1	win	2023-07-09	14:58:06	15:02:27	259393	60fd006a5893cbce502dffd4	4	1	main_z	7	advance_on_keypress_ZEE	22	stimuli_distractor_diamondtriangles.svg	stimuli_distractor_trianglediamonds.svg	38	no	57	0	713	0	0			0	0			1				0	
6.6.1	win	2023-07-09	14:58:06	15:02:30	262081	60fd006a5893cbce502dffd4	4	1	main_z	7	main_z	23	stimuli_distractor_diamondtriangles.svg	stimuli_target_diamondrectangles.svg	31	yes	44	1	1315	0	0			0	0			1				0	
6.6.1	win	2023-07-09	14:58:06	15:02:30	262081	60fd006a5893cbce502dffd4	4	1	main_z	7	advance_on_keypress_ZEE	24	stimuli_distractor_diamondtriangles.svg	stimuli_target_diamondrectangles.svg	31	yes	57	0	885	0	0			0	0			1				0	
6.6.1	win	2023-07-09	14:58:06	15:02:33	264519	60fd006a5893cbce502dffd4	4	1	main_z	7	main_z	25	stimuli_target_rectangletriangles.svg	stimuli_distractor_diamondtriangles.svg	5	yes	44	1	911	0	0			0	0			1				0	
6.6.1	win	2023-07-09	14:58:06	15:02:33	264519	60fd006a5893cbce502dffd4	4	1	main_z	7	advance_on_keypress_ZEE	26	stimuli_target_rectangletriangles.svg	stimuli_distractor_diamondtriangles.svg	5	yes	57	0	729	0	0			0	0			1				0	
6.6.1	win	2023-07-09	14:58:06	15:02:35	266732	60fd006a5893cbce502dffd4	4	1	main_z	7	main_z	27	stimuli_distractor_diamondtriangles.svg	stimuli_target_rectangletriangles.svg	13	yes	44	1	824	0	0			0	0			1				0	
6.6.1	win	2023-07-09	14:58:06	15:02:35	266732	60fd006a5893cbce502dffd4	4	1	main_z	7	advance_on_keypress_ZEE	28	stimuli_distractor_diamondtriangles.svg	stimuli_target_rectangletriangles.svg	13	yes	57	0	722	0	0			0	0			1				0	
6.6.1	win	2023-07-09	14:58:06	15:02:37	269086	60fd006a5893cbce502dffd4	4	1	main_z	7	main_z	29	stimuli_distractor_trianglediamonds.svg	stimuli_target_trianglerectangles.svg	25	yes	44	1	971	0	0			0	0			1				0	
6.6.1	win	2023-07-09	14:58:06	15:02:37	269086	60fd006a5893cbce502dffd4	4	1	main_z	7	advance_on_keypress_ZEE	30	stimuli_distractor_trianglediamonds.svg	stimuli_target_trianglerectangles.svg	25	yes	57	0	1108	0	0			0	0			1				0	
6.6.1	win	2023-07-09	14:58:06	15:02:40	271561	60fd006a5893cbce502dffd4	4	1	main_z	7	main_z	31	stimuli_distractor_diamondtriangles.svg	stimuli_target_trianglerectangles.svg	29	yes	44	1	724	0	0			0	0			1				0	
6.6.1	win	2023-07-09	14:58:06	15:02:40	271561	60fd006a5893cbce502dffd4	4	1	main_z	7	advance_on_keypress_ZEE	32	stimuli_distractor_diamondtriangles.svg	stimuli_target_trianglerectangles.svg	29	yes	57	0	778	0	0			0	0			1				0	
6.6.1	win	2023-07-09	14:58:06	15:02:42	273843	60fd006a5893cbce502dffd4	4	1	main_z	7	main_z	33	stimuli_target_diamondsquares.svg	stimuli_distractor_trianglediamonds.svg	20	yes	44	1	860	0	0			0	0			1				0	
6.6.1	win	2023-07-09	14:58:06	15:02:42	273843	60fd006a5893cbce502dffd4	4	1	main_z	7	advance_on_keypress_ZEE	34	stimuli_target_diamondsquares.svg	stimuli_distractor_trianglediamonds.svg	20	yes	57	0	628	0	0			0	0			1				0	
6.6.1	win	2023-07-09	14:58:06	15:02:44	276276	60fd006a5893cbce502dffd4	4	1	main_z	7	main_z	35	stimuli_distractor_diamondtriangles.svg	stimuli_target_squaretriangles.svg	15	yes	44	1	1146	0	0			0	0			1				0	
6.6.1	win	2023-07-09	14:58:06	15:02:44	276276	60fd006a5893cbce502dffd4	4	1	main_z	7	advance_on_keypress_ZEE	36	stimuli_distractor_diamondtriangles.svg	stimuli_target_squaretriangles.svg	15	yes	57	0	947	0	0			0	0			1				0	
6.6.1	win	2023-07-09	14:58:06	15:02:48	279884	60fd006a5893cbce502dffd4	4	1	main_z	7	main_z	37	stimuli_distractor_trianglediamonds.svg	stimuli_distractor_diamondtriangles.svg	36	no	0	1	2000	0	0			0	0			1				0	
6.6.1	win	2023-07-09	14:58:06	15:02:48	279884	60fd006a5893cbce502dffd4	4	1	main_z	7	advance_on_keypress_ZEE	38	stimuli_distractor_trianglediamonds.svg	stimuli_distractor_diamondtriangles.svg	36	no	57	0	636	0	0			0	0			1				0	
6.6.1	win	2023-07-09	14:58:06	15:02:50	281903	60fd006a5893cbce502dffd4	4	1	main_z	7	main_z	39	stimuli_distractor_trianglediamonds.svg	stimuli_target_trianglesquares.svg	26	yes	44	1	723	0	0			0	0			1				0	
6.6.1	win	2023-07-09	14:58:06	15:02:50	281903	60fd006a5893cbce502dffd4	4	1	main_z	7	advance_on_keypress_ZEE	40	stimuli_distractor_trianglediamonds.svg	stimuli_target_trianglesquares.svg	26	yes	57	0	922	0	0			0	0			1				0	
6.6.1	win	2023-07-09	14:58:06	15:02:52	284145	60fd006a5893cbce502dffd4	4	1	main_z	7	main_z	41	stimuli_target_squarediamonds.svg	stimuli_distractor_trianglediamonds.svg	4	yes	44	1	659	0	0			0	0			1				0	
6.6.1	win	2023-07-09	14:58:06	15:02:52	284145	60fd006a5893cbce502dffd4	4	1	main_z	7	advance_on_keypress_ZEE	42	stimuli_target_squarediamonds.svg	stimuli_distractor_trianglediamonds.svg	4	yes	57	0	720	0	0			0	0			1				0	
6.6.1	win	2023-07-09	14:58:06	15:02:56	287523	60fd006a5893cbce502dffd4	4	1	main_z	7	main_z	43	stimuli_distractor_trianglediamonds.svg	stimuli_distractor_trianglediamonds.svg	33	no	0	1	2000	0	0			0	0			1				0	
6.6.1	win	2023-07-09	14:58:06	15:02:56	287523	60fd006a5893cbce502dffd4	4	1	main_z	7	advance_on_keypress_ZEE	44	stimuli_distractor_trianglediamonds.svg	stimuli_distractor_trianglediamonds.svg	33	no	57	0	2232	0	0			0	0			1				0	
6.6.1	win	2023-07-09	14:58:06	15:03:01	292417	60fd006a5893cbce502dffd4	4	1	main_z	7	main_z	45	stimuli_distractor_trianglediamonds.svg	stimuli_target_diamondrectangles.svg	27	yes	0	0	2000	0	0			0	0			1				0	
6.6.1	win	2023-07-09	14:58:06	15:03:01	292417	60fd006a5893cbce502dffd4	4	1	main_z	7	advance_on_keypress_ZEE	46	stimuli_distractor_trianglediamonds.svg	stimuli_target_diamondrectangles.svg	27	yes	57	0	503	0	0			0	0			1				0	
6.6.1	win	2023-07-09	14:58:06	15:03:02	294101	60fd006a5893cbce502dffd4	4	1	main_z	7	main_z	47	stimuli_distractor_diamondtriangles.svg	stimuli_target_squarediamonds.svg	16	yes	44	1	518	0	0			0	0			1				0	
6.6.1	win	2023-07-09	14:58:06	15:03:02	294101	60fd006a5893cbce502dffd4	4	1	main_z	7	advance_on_keypress_ZEE	48	stimuli_distractor_diamondtriangles.svg	stimuli_target_squarediamonds.svg	16	yes	57	0	660	0	0			0	0			1				0	
6.6.1	win	2023-07-09	14:58:06	15:03:04	296146	60fd006a5893cbce502dffd4	4	1	main_z	7	main_z	49	stimuli_distractor_diamondtriangles.svg	stimuli_target_diamondsquares.svg	32	yes	44	1	728	0	0			0	0			1				0	
6.6.1	win	2023-07-09	14:58:06	15:03:04	296146	60fd006a5893cbce502dffd4	4	1	main_z	7	advance_on_keypress_ZEE	50	stimuli_distractor_diamondtriangles.svg	stimuli_target_diamondsquares.svg	32	yes	57	0	472	0	0			0	0			1				0	
6.6.1	win	2023-07-09	14:58:06	15:03:07	299278	60fd006a5893cbce502dffd4	4	1	main_z	7	main_z	51	stimuli_distractor_diamondtriangles.svg	stimuli_distractor_diamondtriangles.svg	40	no	0	1	2000	0	0			0	0			1				0	
6.6.1	win	2023-07-09	14:58:06	15:03:07	299278	60fd006a5893cbce502dffd4	4	1	main_z	7	advance_on_keypress_ZEE	52	stimuli_distractor_diamondtriangles.svg	stimuli_distractor_diamondtriangles.svg	40	no	57	0	560	0	0			0	0			1				0	
6.6.1	win	2023-07-09	14:58:06	15:03:09	301194	60fd006a5893cbce502dffd4	4	1	main_z	7	main_z	53	stimuli_distractor_trianglediamonds.svg	stimuli_target_squarediamonds.svg	12	yes	44	1	696	0	0			0	0			1				0	
6.6.1	win	2023-07-09	14:58:06	15:03:09	301194	60fd006a5893cbce502dffd4	4	1	main_z	7	advance_on_keypress_ZEE	54	stimuli_distractor_trianglediamonds.svg	stimuli_target_squarediamonds.svg	12	yes	57	0	678	0	0			0	0			1				0	
6.6.1	win	2023-07-09	14:58:06	15:03:11	303343	60fd006a5893cbce502dffd4	4	1	main_z	7	main_z	55	stimuli_target_diamondrectangles.svg	stimuli_distractor_trianglediamonds.svg	19	yes	44	1	814	0	0			0	0			1				0	
6.6.1	win	2023-07-09	14:58:06	15:03:11	303343	60fd006a5893cbce502dffd4	4	1	main_z	7	advance_on_keypress_ZEE	56	stimuli_target_diamondrectangles.svg	stimuli_distractor_trianglediamonds.svg	19	yes	57	0	664	0	0			0	0			1				0	
6.6.1	win	2023-07-09	14:58:06	15:03:13	305213	60fd006a5893cbce502dffd4	4	1	main_z	7	main_z	57	stimuli_target_rectanglediamonds.svg	stimuli_distractor_trianglediamonds.svg	2	yes	44	1	563	0	0			0	0			1				0	
6.6.1	win	2023-07-09	14:58:06	15:03:13	305213	60fd006a5893cbce502dffd4	4	1	main_z	7	advance_on_keypress_ZEE	58	stimuli_target_rectanglediamonds.svg	stimuli_distractor_trianglediamonds.svg	2	yes	57	0	727	0	0			0	0			1				0	
6.6.1	win	2023-07-09	14:58:06	15:03:15	307126	60fd006a5893cbce502dffd4	4	1	main_z	7	main_z	59	stimuli_target_squarediamonds.svg	stimuli_distractor_diamondtriangles.svg	8	yes	44	1	537	0	0			0	0			1				0	
6.6.1	win	2023-07-09	14:58:06	15:03:15	307126	60fd006a5893cbce502dffd4	4	1	main_z	7	advance_on_keypress_ZEE	60	stimuli_target_squarediamonds.svg	stimuli_distractor_diamondtriangles.svg	8	yes	57	0	555	0	0			0	0			1				0	
6.6.1	win	2023-07-09	14:58:06	15:03:17	308890	60fd006a5893cbce502dffd4	4	1	main_z	7	main_z	61	stimuli_target_trianglesquares.svg	stimuli_distractor_trianglediamonds.svg	18	yes	44	1	553	0	0			0	0			1				0	
6.6.1	win	2023-07-09	14:58:06	15:03:17	308890	60fd006a5893cbce502dffd4	4	1	main_z	7	advance_on_keypress_ZEE	62	stimuli_target_trianglesquares.svg	stimuli_distractor_trianglediamonds.svg	18	yes	57	0	1221	0	0			0	0			1				0	
6.6.1	win	2023-07-09	14:58:06	15:03:21	312772	60fd006a5893cbce502dffd4	4	1	main_z	7	main_z	63	stimuli_distractor_trianglediamonds.svg	stimuli_distractor_diamondtriangles.svg	35	no	0	1	2000	0	0			0	0			1				0	
6.6.1	win	2023-07-09	14:58:06	15:03:21	312772	60fd006a5893cbce502dffd4	4	1	main_z	7	advance_on_keypress_ZEE	64	stimuli_distractor_trianglediamonds.svg	stimuli_distractor_diamondtriangles.svg	35	no	57	0	511	0	0			0	0			1				0	
6.6.1	win	2023-07-09	14:58:06	15:03:24	315944	60fd006a5893cbce502dffd4	4	1	main_z	7	main_z	65	stimuli_distractor_diamondtriangles.svg	stimuli_distractor_trianglediamonds.svg	37	no	0	1	2000	0	0			0	0			1				0	
6.6.1	win	2023-07-09	14:58:06	15:03:24	315944	60fd006a5893cbce502dffd4	4	1	main_z	7	advance_on_keypress_ZEE	66	stimuli_distractor_diamondtriangles.svg	stimuli_distractor_trianglediamonds.svg	37	no	57	0	401	0	0			0	0			1				0	
6.6.1	win	2023-07-09	14:58:06	15:03:26	317695	60fd006a5893cbce502dffd4	4	1	main_z	7	main_z	67	stimuli_distractor_trianglediamonds.svg	stimuli_target_rectangletriangles.svg	9	yes	44	1	691	0	0			0	0			1				0	
6.6.1	win	2023-07-09	14:58:06	15:03:26	317695	60fd006a5893cbce502dffd4	4	1	main_z	7	advance_on_keypress_ZEE	68	stimuli_distractor_trianglediamonds.svg	stimuli_target_rectangletriangles.svg	9	yes	57	0	566	0	0			0	0			1				0	
6.6.1	win	2023-07-09	14:58:06	15:03:27	319256	60fd006a5893cbce502dffd4	4	1	main_z	7	main_z	69	stimuli_distractor_trianglediamonds.svg	stimuli_target_rectanglediamonds.svg	10	yes	44	1	343	0	0			0	0			1				0	
6.6.1	win	2023-07-09	14:58:06	15:03:27	319256	60fd006a5893cbce502dffd4	4	1	main_z	7	advance_on_keypress_ZEE	70	stimuli_distractor_trianglediamonds.svg	stimuli_target_rectanglediamonds.svg	10	yes	57	0	644	0	0			0	0			1				0	
6.6.1	win	2023-07-09	14:58:06	15:03:30	321342	60fd006a5893cbce502dffd4	4	1	main_z	7	main_z	71	stimuli_target_squaretriangles.svg	stimuli_distractor_trianglediamonds.svg	3	yes	44	1	783	0	0			0	0			1				0	
6.6.1	win	2023-07-09	14:58:06	15:03:30	321342	60fd006a5893cbce502dffd4	4	1	main_z	7	advance_on_keypress_ZEE	72	stimuli_target_squaretriangles.svg	stimuli_distractor_trianglediamonds.svg	3	yes	57	0	635	0	0			0	0			1				0	
6.6.1	win	2023-07-09	14:58:06	15:03:33	324621	60fd006a5893cbce502dffd4	4	1	main_z	7	main_z	73	stimuli_distractor_diamondtriangles.svg	stimuli_distractor_diamondtriangles.svg	39	no	0	1	2000	0	0			0	0			1				0	
6.6.1	win	2023-07-09	14:58:06	15:03:33	324621	60fd006a5893cbce502dffd4	4	1	main_z	7	advance_on_keypress_ZEE	74	stimuli_distractor_diamondtriangles.svg	stimuli_distractor_diamondtriangles.svg	39	no	57	0	601	0	0			0	0			1				0	
6.6.1	win	2023-07-09	14:58:06	15:03:35	326820	60fd006a5893cbce502dffd4	4	1	main_z	7	main_z	75	stimuli_target_trianglerectangles.svg	stimuli_distractor_diamondtriangles.svg	21	yes	44	1	939	0	0			0	0			1				0	
6.6.1	win	2023-07-09	14:58:06	15:03:35	326820	60fd006a5893cbce502dffd4	4	1	main_z	7	advance_on_keypress_ZEE	76	stimuli_target_trianglerectangles.svg	stimuli_distractor_diamondtriangles.svg	21	yes	57	0	591	0	0			0	0			1				0	
6.6.1	win	2023-07-09	14:58:06	15:03:37	329082	60fd006a5893cbce502dffd4	4	1	main_z	7	main_z	77	stimuli_target_diamondrectangles.svg	stimuli_distractor_diamondtriangles.svg	23	yes	44	1	1023	0	0			0	0			1				0	
6.6.1	win	2023-07-09	14:58:06	15:03:37	329082	60fd006a5893cbce502dffd4	4	1	main_z	7	advance_on_keypress_ZEE	78	stimuli_target_diamondrectangles.svg	stimuli_distractor_diamondtriangles.svg	23	yes	57	0	641	0	0			0	0			1				0	
6.6.1	win	2023-07-09	14:58:06	15:03:39	331156	60fd006a5893cbce502dffd4	4	1	main_z	7	main_z	79	stimuli_target_squaretriangles.svg	stimuli_distractor_diamondtriangles.svg	7	yes	44	1	772	0	0			0	0			1				0	
6.6.1	win	2023-07-09	14:58:06	15:03:39	331156	60fd006a5893cbce502dffd4	4	1	main_z	7	advance_on_keypress_ZEE	80	stimuli_target_squaretriangles.svg	stimuli_distractor_diamondtriangles.svg	7	yes	57	0	620	0	0			0	0			1				0	
6.6.1	win	2023-07-09	14:58:06	15:03:42	333568	60fd006a5893cbce502dffd4	4	1	main_z	7	main_z	81	stimuli_distractor_trianglediamonds.svg	stimuli_target_diamondrectangles.svg	27	yes	44	1	1132	0	0			0	0			1				0	
6.6.1	win	2023-07-09	14:58:06	15:03:42	333568	60fd006a5893cbce502dffd4	4	1	main_z	7	advance_on_keypress_ZEE	82	stimuli_distractor_trianglediamonds.svg	stimuli_target_diamondrectangles.svg	27	yes	57	0	720	0	0			0	0			1				0	
6.6.1	win	2023-07-09	14:58:06	15:03:44	335564	60fd006a5893cbce502dffd4	4	1	main_z	7	main_z	83	stimuli_distractor_diamondtriangles.svg	stimuli_target_rectanglediamonds.svg	14	yes	44	1	614	0	0			0	0			1				0	
6.6.1	win	2023-07-09	14:58:06	15:03:44	335564	60fd006a5893cbce502dffd4	4	1	main_z	7	advance_on_keypress_ZEE	84	stimuli_distractor_diamondtriangles.svg	stimuli_target_rectanglediamonds.svg	14	yes	57	0	496	0	0			0	0			1				0	
6.6.1	win	2023-07-09	14:58:06	15:03:45	337148	60fd006a5893cbce502dffd4	4	1	main_z	7	main_z	85	stimuli_distractor_diamondtriangles.svg	stimuli_target_diamondsquares.svg	32	yes	44	1	444	0	0			0	0			1				0	
6.6.1	win	2023-07-09	14:58:06	15:03:45	337148	60fd006a5893cbce502dffd4	4	1	main_z	7	advance_on_keypress_ZEE	86	stimuli_distractor_diamondtriangles.svg	stimuli_target_diamondsquares.svg	32	yes	57	0	681	0	0			0	0			1				0	
6.6.1	win	2023-07-09	14:58:06	15:03:49	340482	60fd006a5893cbce502dffd4	4	1	main_z	7	main_z	87	stimuli_distractor_diamondtriangles.svg	stimuli_distractor_diamondtriangles.svg	40	no	0	1	2000	0	0			0	0			1				0	
6.6.1	win	2023-07-09	14:58:06	15:03:49	340482	60fd006a5893cbce502dffd4	4	1	main_z	7	advance_on_keypress_ZEE	88	stimuli_distractor_diamondtriangles.svg	stimuli_distractor_diamondtriangles.svg	40	no	57	0	623	0	0			0	0			1				0	
6.6.1	win	2023-07-09	14:58:06	15:03:51	342442	60fd006a5893cbce502dffd4	4	1	main_z	7	main_z	89	stimuli_distractor_trianglediamonds.svg	stimuli_target_diamondsquares.svg	28	yes	44	1	677	0	0			0	0			1				0	
6.6.1	win	2023-07-09	14:58:06	15:03:51	342442	60fd006a5893cbce502dffd4	4	1	main_z	7	advance_on_keypress_ZEE	90	stimuli_distractor_trianglediamonds.svg	stimuli_target_diamondsquares.svg	28	yes	57	0	636	0	0			0	0			1				0	
6.6.1	win	2023-07-09	14:58:06	15:03:52	344256	60fd006a5893cbce502dffd4	4	1	main_z	7	main_z	91	stimuli_distractor_trianglediamonds.svg	stimuli_target_trianglesquares.svg	26	yes	44	1	536	0	0			0	0			1				0	
6.6.1	win	2023-07-09	14:58:06	15:03:52	344256	60fd006a5893cbce502dffd4	4	1	main_z	7	advance_on_keypress_ZEE	92	stimuli_distractor_trianglediamonds.svg	stimuli_target_trianglesquares.svg	26	yes	57	0	486	0	0			0	0			1				0	
6.6.1	win	2023-07-09	14:58:06	15:03:56	347305	60fd006a5893cbce502dffd4	4	1	main_z	7	main_z	93	stimuli_target_trianglerectangles.svg	stimuli_distractor_diamondtriangles.svg	21	yes	44	1	1920	0	0			0	0			1				0	
6.6.1	win	2023-07-09	14:58:06	15:03:56	347305	60fd006a5893cbce502dffd4	4	1	main_z	7	advance_on_keypress_ZEE	94	stimuli_target_trianglerectangles.svg	stimuli_distractor_diamondtriangles.svg	21	yes	57	0	828	0	0			0	0			1				0	
6.6.1	win	2023-07-09	14:58:06	15:03:58	349616	60fd006a5893cbce502dffd4	4	1	main_z	7	main_z	95	stimuli_target_diamondrectangles.svg	stimuli_distractor_diamondtriangles.svg	23	yes	44	1	823	0	0			0	0			1				0	
6.6.1	win	2023-07-09	14:58:06	15:03:58	349616	60fd006a5893cbce502dffd4	4	1	main_z	7	advance_on_keypress_ZEE	96	stimuli_target_diamondrectangles.svg	stimuli_distractor_diamondtriangles.svg	23	yes	57	0	499	0	0			0	0			1				0	
6.6.1	win	2023-07-09	14:58:06	15:04:01	352776	60fd006a5893cbce502dffd4	4	1	main_z	7	main_z	97	stimuli_distractor_diamondtriangles.svg	stimuli_target_squarediamonds.svg	16	yes	0	0	2000	0	0			0	0			1				0	
6.6.1	win	2023-07-09	14:58:06	15:04:01	352776	60fd006a5893cbce502dffd4	4	1	main_z	7	advance_on_keypress_ZEE	98	stimuli_distractor_diamondtriangles.svg	stimuli_target_squarediamonds.svg	16	yes	57	0	1176	0	0			0	0			1				0	
6.6.1	win	2023-07-09	14:58:06	15:04:04	355309	60fd006a5893cbce502dffd4	4	1	main_z	7	main_z	99	stimuli_target_diamondrectangles.svg	stimuli_distractor_trianglediamonds.svg	19	yes	44	1	708	0	0			0	0			1				0	
6.6.1	win	2023-07-09	14:58:06	15:04:04	355309	60fd006a5893cbce502dffd4	4	1	main_z	7	advance_on_keypress_ZEE	100	stimuli_target_diamondrectangles.svg	stimuli_distractor_trianglediamonds.svg	19	yes	57	0	555	0	0			0	0			1				0	
6.6.1	win	2023-07-09	14:58:06	15:04:05	357172	60fd006a5893cbce502dffd4	4	1	main_z	7	main_z	101	stimuli_target_trianglesquares.svg	stimuli_distractor_diamondtriangles.svg	22	yes	44	1	646	0	0			0	0			1				0	
6.6.1	win	2023-07-09	14:58:06	15:04:05	357172	60fd006a5893cbce502dffd4	4	1	main_z	7	advance_on_keypress_ZEE	102	stimuli_target_trianglesquares.svg	stimuli_distractor_diamondtriangles.svg	22	yes	57	0	570	0	0			0	0			1				0	
6.6.1	win	2023-07-09	14:58:06	15:04:07	358956	60fd006a5893cbce502dffd4	4	1	main_z	7	main_z	103	stimuli_target_diamondsquares.svg	stimuli_distractor_diamondtriangles.svg	24	yes	44	1	554	0	0			0	0			1				0	
6.6.1	win	2023-07-09	14:58:06	15:04:07	358956	60fd006a5893cbce502dffd4	4	1	main_z	7	advance_on_keypress_ZEE	104	stimuli_target_diamondsquares.svg	stimuli_distractor_diamondtriangles.svg	24	yes	57	0	533	0	0			0	0			1				0	
6.6.1	win	2023-07-09	14:58:06	15:04:09	360918	60fd006a5893cbce502dffd4	4	1	main_z	7	main_z	105	stimuli_distractor_trianglediamonds.svg	stimuli_target_rectangletriangles.svg	9	yes	44	1	772	0	0			0	0			1				0	
6.6.1	win	2023-07-09	14:58:06	15:04:09	360918	60fd006a5893cbce502dffd4	4	1	main_z	7	advance_on_keypress_ZEE	106	stimuli_distractor_trianglediamonds.svg	stimuli_target_rectangletriangles.svg	9	yes	57	0	740	0	0			0	0			1				0	
6.6.1	win	2023-07-09	14:58:06	15:04:11	363046	60fd006a5893cbce502dffd4	4	1	main_z	7	main_z	107	stimuli_target_squaretriangles.svg	stimuli_distractor_diamondtriangles.svg	7	yes	44	1	724	0	0			0	0			1				0	
6.6.1	win	2023-07-09	14:58:06	15:04:11	363046	60fd006a5893cbce502dffd4	4	1	main_z	7	advance_on_keypress_ZEE	108	stimuli_target_squaretriangles.svg	stimuli_distractor_diamondtriangles.svg	7	yes	57	0	577	0	0			0	0			1				0	
6.6.1	win	2023-07-09	14:58:06	15:04:13	364833	60fd006a5893cbce502dffd4	4	1	main_z	7	main_z	109	stimuli_distractor_trianglediamonds.svg	stimuli_target_squarediamonds.svg	12	yes	44	1	552	0	0			0	0			1				0	
6.6.1	win	2023-07-09	14:58:06	15:04:13	364833	60fd006a5893cbce502dffd4	4	1	main_z	7	advance_on_keypress_ZEE	110	stimuli_distractor_trianglediamonds.svg	stimuli_target_squarediamonds.svg	12	yes	57	0	831	0	0			0	0			1				0	
6.6.1	win	2023-07-09	14:58:06	15:04:17	368306	60fd006a5893cbce502dffd4	4	1	main_z	7	main_z	111	stimuli_distractor_trianglediamonds.svg	stimuli_distractor_trianglediamonds.svg	33	no	0	1	2000	0	0			0	0			1				0	
6.6.1	win	2023-07-09	14:58:06	15:04:17	368306	60fd006a5893cbce502dffd4	4	1	main_z	7	advance_on_keypress_ZEE	112	stimuli_distractor_trianglediamonds.svg	stimuli_distractor_trianglediamonds.svg	33	no	57	0	1402	0	0			0	0			1				0	
6.6.1	win	2023-07-09	14:58:06	15:04:21	372367	60fd006a5893cbce502dffd4	4	1	main_z	7	main_z	113	stimuli_distractor_diamondtriangles.svg	stimuli_distractor_trianglediamonds.svg	37	no	0	1	2000	0	0			0	0			1				0	
6.6.1	win	2023-07-09	14:58:06	15:04:21	372367	60fd006a5893cbce502dffd4	4	1	main_z	7	advance_on_keypress_ZEE	114	stimuli_distractor_diamondtriangles.svg	stimuli_distractor_trianglediamonds.svg	37	no	57	0	563	0	0			0	0			1				0	
6.6.1	win	2023-07-09	14:58:06	15:04:23	374333	60fd006a5893cbce502dffd4	4	1	main_z	7	main_z	115	stimuli_target_trianglerectangles.svg	stimuli_distractor_trianglediamonds.svg	17	yes	44	1	741	0	0			0	0			1				0	
6.6.1	win	2023-07-09	14:58:06	15:04:23	374333	60fd006a5893cbce502dffd4	4	1	main_z	7	advance_on_keypress_ZEE	116	stimuli_target_trianglerectangles.svg	stimuli_distractor_trianglediamonds.svg	17	yes	57	0	507	0	0			0	0			1				0	
6.6.1	win	2023-07-09	14:58:06	15:04:25	376350	60fd006a5893cbce502dffd4	4	1	main_z	7	main_z	117	stimuli_distractor_diamondtriangles.svg	stimuli_target_rectangletriangles.svg	13	yes	44	1	848	0	0			0	0			1				0	
6.6.1	win	2023-07-09	14:58:06	15:04:25	376350	60fd006a5893cbce502dffd4	4	1	main_z	7	advance_on_keypress_ZEE	118	stimuli_distractor_diamondtriangles.svg	stimuli_target_rectangletriangles.svg	13	yes	57	0	749	0	0			0	0			1				0	
6.6.1	win	2023-07-09	14:58:06	15:04:27	378655	60fd006a5893cbce502dffd4	4	1	main_z	7	main_z	119	stimuli_distractor_trianglediamonds.svg	stimuli_target_squaretriangles.svg	11	yes	44	1	895	0	0			0	0			1				0	
6.6.1	win	2023-07-09	14:58:06	15:04:27	378655	60fd006a5893cbce502dffd4	4	1	main_z	7	advance_on_keypress_ZEE	120	stimuli_distractor_trianglediamonds.svg	stimuli_target_squaretriangles.svg	11	yes	57	0	587	0	0			0	0			1				0	
6.6.1	win	2023-07-09	14:58:06	15:04:29	380471	60fd006a5893cbce502dffd4	4	1	main_z	7	main_z	121	stimuli_target_rectangletriangles.svg	stimuli_distractor_trianglediamonds.svg	1	yes	44	1	586	0	0			0	0			1				0	
6.6.1	win	2023-07-09	14:58:06	15:04:29	380471	60fd006a5893cbce502dffd4	4	1	main_z	7	advance_on_keypress_ZEE	122	stimuli_target_rectangletriangles.svg	stimuli_distractor_trianglediamonds.svg	1	yes	57	0	477	0	0			0	0			1				0	
6.6.1	win	2023-07-09	14:58:06	15:04:31	382394	60fd006a5893cbce502dffd4	4	1	main_z	7	main_z	123	stimuli_target_diamondsquares.svg	stimuli_distractor_trianglediamonds.svg	20	yes	44	1	789	0	0			0	0			1				0	
6.6.1	win	2023-07-09	14:58:06	15:04:31	382394	60fd006a5893cbce502dffd4	4	1	main_z	7	advance_on_keypress_ZEE	124	stimuli_target_diamondsquares.svg	stimuli_distractor_trianglediamonds.svg	20	yes	57	0	488	0	0			0	0			1				0	
6.6.1	win	2023-07-09	14:58:06	15:04:32	383996	60fd006a5893cbce502dffd4	4	1	main_z	7	main_z	125	stimuli_target_rectanglediamonds.svg	stimuli_distractor_trianglediamonds.svg	2	yes	44	1	456	0	0			0	0			1				0	
6.6.1	win	2023-07-09	14:58:06	15:04:32	383996	60fd006a5893cbce502dffd4	4	1	main_z	7	advance_on_keypress_ZEE	126	stimuli_target_rectanglediamonds.svg	stimuli_distractor_trianglediamonds.svg	2	yes	57	0	715	0	0			0	0			1				0	
6.6.1	win	2023-07-09	14:58:06	15:04:34	385813	60fd006a5893cbce502dffd4	4	1	main_z	7	main_z	127	stimuli_target_squaretriangles.svg	stimuli_distractor_trianglediamonds.svg	3	yes	44	1	447	0	0			0	0			1				0	
6.6.1	win	2023-07-09	14:58:06	15:04:34	385813	60fd006a5893cbce502dffd4	4	1	main_z	7	advance_on_keypress_ZEE	128	stimuli_target_squaretriangles.svg	stimuli_distractor_trianglediamonds.svg	3	yes	57	0	578	0	0			0	0			1				0	
6.6.1	win	2023-07-09	14:58:06	15:04:36	387575	60fd006a5893cbce502dffd4	4	1	main_z	7	main_z	129	stimuli_distractor_diamondtriangles.svg	stimuli_target_trianglerectangles.svg	29	yes	44	1	538	0	0			0	0			1				0	
6.6.1	win	2023-07-09	14:58:06	15:04:36	387575	60fd006a5893cbce502dffd4	4	1	main_z	7	advance_on_keypress_ZEE	130	stimuli_distractor_diamondtriangles.svg	stimuli_target_trianglerectangles.svg	29	yes	57	0	456	0	0			0	0			1				0	
6.6.1	win	2023-07-09	14:58:06	15:04:38	389220	60fd006a5893cbce502dffd4	4	1	main_z	7	main_z	131	stimuli_distractor_trianglediamonds.svg	stimuli_target_rectanglediamonds.svg	10	yes	44	1	535	0	0			0	0			1				0	
6.6.1	win	2023-07-09	14:58:06	15:04:38	389220	60fd006a5893cbce502dffd4	4	1	main_z	7	advance_on_keypress_ZEE	132	stimuli_distractor_trianglediamonds.svg	stimuli_target_rectanglediamonds.svg	10	yes	57	0	546	0	0			0	0			1				0	
6.6.1	win	2023-07-09	14:58:06	15:04:41	392403	60fd006a5893cbce502dffd4	4	1	main_z	7	main_z	133	stimuli_distractor_diamondtriangles.svg	stimuli_target_squaretriangles.svg	15	yes	0	0	2000	0	0			0	0			1				0	
6.6.1	win	2023-07-09	14:58:06	15:04:41	392403	60fd006a5893cbce502dffd4	4	1	main_z	7	advance_on_keypress_ZEE	134	stimuli_distractor_diamondtriangles.svg	stimuli_target_squaretriangles.svg	15	yes	57	0	540	0	0			0	0			1				0	
6.6.1	win	2023-07-09	14:58:06	15:04:43	394394	60fd006a5893cbce502dffd4	4	1	main_z	7	main_z	135	stimuli_target_squarediamonds.svg	stimuli_distractor_diamondtriangles.svg	8	yes	44	1	825	0	0			0	0			1				0	
6.6.1	win	2023-07-09	14:58:06	15:04:43	394394	60fd006a5893cbce502dffd4	4	1	main_z	7	advance_on_keypress_ZEE	136	stimuli_target_squarediamonds.svg	stimuli_distractor_diamondtriangles.svg	8	yes	57	0	651	0	0			0	0			1				0	
6.6.1	win	2023-07-09	14:58:06	15:04:46	397706	60fd006a5893cbce502dffd4	4	1	main_z	7	main_z	137	stimuli_distractor_diamondtriangles.svg	stimuli_distractor_trianglediamonds.svg	38	no	0	1	2000	0	0			0	0			1				0	
6.6.1	win	2023-07-09	14:58:06	15:04:46	397706	60fd006a5893cbce502dffd4	4	1	main_z	7	advance_on_keypress_ZEE	138	stimuli_distractor_diamondtriangles.svg	stimuli_distractor_trianglediamonds.svg	38	no	57	0	479	0	0			0	0			1				0	
6.6.1	win	2023-07-09	14:58:06	15:04:49	400846	60fd006a5893cbce502dffd4	4	1	main_z	7	main_z	139	stimuli_distractor_trianglediamonds.svg	stimuli_distractor_diamondtriangles.svg	36	no	0	1	2000	0	0			0	0			1				0	
6.6.1	win	2023-07-09	14:58:06	15:04:49	400846	60fd006a5893cbce502dffd4	4	1	main_z	7	advance_on_keypress_ZEE	140	stimuli_distractor_trianglediamonds.svg	stimuli_distractor_diamondtriangles.svg	36	no	57	0	624	0	0			0	0			1				0	
6.6.1	win	2023-07-09	14:58:06	15:04:51	402807	60fd006a5893cbce502dffd4	4	1	main_z	7	main_z	141	stimuli_target_rectangletriangles.svg	stimuli_distractor_diamondtriangles.svg	5	yes	44	1	677	0	0			0	0			1				0	
6.6.1	win	2023-07-09	14:58:06	15:04:51	402807	60fd006a5893cbce502dffd4	4	1	main_z	7	advance_on_keypress_ZEE	142	stimuli_target_rectangletriangles.svg	stimuli_distractor_diamondtriangles.svg	5	yes	57	0	438	0	0			0	0			1				0	
6.6.1	win	2023-07-09	14:58:06	15:04:53	404615	60fd006a5893cbce502dffd4	4	1	main_z	7	main_z	143	stimuli_distractor_trianglediamonds.svg	stimuli_target_trianglerectangles.svg	25	yes	44	1	727	0	0			0	0			1				0	
6.6.1	win	2023-07-09	14:58:06	15:04:53	404615	60fd006a5893cbce502dffd4	4	1	main_z	7	advance_on_keypress_ZEE	144	stimuli_distractor_trianglediamonds.svg	stimuli_target_trianglerectangles.svg	25	yes	57	0	413	0	0			0	0			1				0	
6.6.1	win	2023-07-09	14:58:06	15:04:55	406425	60fd006a5893cbce502dffd4	4	1	main_z	7	main_z	145	stimuli_distractor_diamondtriangles.svg	stimuli_target_diamondrectangles.svg	31	yes	44	1	752	0	0			0	0			1				0	
6.6.1	win	2023-07-09	14:58:06	15:04:55	406425	60fd006a5893cbce502dffd4	4	1	main_z	7	advance_on_keypress_ZEE	146	stimuli_distractor_diamondtriangles.svg	stimuli_target_diamondrectangles.svg	31	yes	57	0	415	0	0			0	0			1				0	
6.6.1	win	2023-07-09	14:58:06	15:04:58	409500	60fd006a5893cbce502dffd4	4	1	main_z	7	main_z	147	stimuli_distractor_diamondtriangles.svg	stimuli_distractor_diamondtriangles.svg	39	no	0	1	2000	0	0			0	0			1				0	
6.6.1	win	2023-07-09	14:58:06	15:04:58	409500	60fd006a5893cbce502dffd4	4	1	main_z	7	advance_on_keypress_ZEE	148	stimuli_distractor_diamondtriangles.svg	stimuli_distractor_diamondtriangles.svg	39	no	57	0	564	0	0			0	0			1				0	
6.6.1	win	2023-07-09	14:58:06	15:05:00	411333	60fd006a5893cbce502dffd4	4	1	main_z	7	main_z	149	stimuli_target_rectanglediamonds.svg	stimuli_distractor_diamondtriangles.svg	6	yes	44	1	625	0	0			0	0			1				0	
6.6.1	win	2023-07-09	14:58:06	15:05:00	411333	60fd006a5893cbce502dffd4	4	1	main_z	7	advance_on_keypress_ZEE	150	stimuli_target_rectanglediamonds.svg	stimuli_distractor_diamondtriangles.svg	6	yes	57	0	404	0	0			0	0			1				0	
6.6.1	win	2023-07-09	14:58:06	15:05:01	412981	60fd006a5893cbce502dffd4	4	1	main_z	7	main_z	151	stimuli_distractor_diamondtriangles.svg	stimuli_target_trianglesquares.svg	30	yes	44	1	584	0	0			0	0			1				0	
6.6.1	win	2023-07-09	14:58:06	15:05:01	412981	60fd006a5893cbce502dffd4	4	1	main_z	7	advance_on_keypress_ZEE	152	stimuli_distractor_diamondtriangles.svg	stimuli_target_trianglesquares.svg	30	yes	57	0	393	0	0			0	0			1				0	
6.6.1	win	2023-07-09	14:58:06	15:05:03	414493	60fd006a5893cbce502dffd4	4	1	main_z	7	main_z	153	stimuli_target_squarediamonds.svg	stimuli_distractor_trianglediamonds.svg	4	yes	44	1	478	0	0			0	0			1				0	
6.6.1	win	2023-07-09	14:58:06	15:05:03	414493	60fd006a5893cbce502dffd4	4	1	main_z	7	advance_on_keypress_ZEE	154	stimuli_target_squarediamonds.svg	stimuli_distractor_trianglediamonds.svg	4	yes	57	0	459	0	0			0	0			1				0	
6.6.1	win	2023-07-09	14:58:06	15:05:06	417602	60fd006a5893cbce502dffd4	4	1	main_z	7	main_z	155	stimuli_distractor_trianglediamonds.svg	stimuli_distractor_diamondtriangles.svg	35	no	0	1	2000	0	0			0	0			1				0	
6.6.1	win	2023-07-09	14:58:06	15:05:06	417602	60fd006a5893cbce502dffd4	4	1	main_z	7	advance_on_keypress_ZEE	156	stimuli_distractor_trianglediamonds.svg	stimuli_distractor_diamondtriangles.svg	35	no	57	0	613	0	0			0	0			1				0	
6.6.1	win	2023-07-09	14:58:06	15:05:08	419427	60fd006a5893cbce502dffd4	4	1	main_z	7	main_z	157	stimuli_target_trianglesquares.svg	stimuli_distractor_trianglediamonds.svg	18	yes	44	1	550	0	0			0	0			1				0	
6.6.1	win	2023-07-09	14:58:06	15:05:08	419427	60fd006a5893cbce502dffd4	4	1	main_z	7	advance_on_keypress_ZEE	158	stimuli_target_trianglesquares.svg	stimuli_distractor_trianglediamonds.svg	18	yes	57	0	356	0	0			0	0			1				0	
6.6.1	win	2023-07-09	14:58:06	15:05:09	420980	60fd006a5893cbce502dffd4	4	1	main_z	7	main_z	159	stimuli_distractor_trianglediamonds.svg	stimuli_distractor_trianglediamonds.svg	34	no	44	0	522	0	0			0	0			1				0	
6.6.1	win	2023-07-09	14:58:06	15:05:09	420980	60fd006a5893cbce502dffd4	4	1	main_z	7	advance_on_keypress_ZEE	160	stimuli_distractor_trianglediamonds.svg	stimuli_distractor_trianglediamonds.svg	34	no	57	0	1561	0	0			0	0			1				0	
6.6.1	win	2023-07-09	14:58:06	15:05:36	447603	60fd006a5893cbce502dffd4	4	1	practice_slash	9	practice_slash	1	stimuli_target_diamondsquares.svg	stimuli_distractor_diamondtriangles.svg	3	yes	0	0	2000	0	0			0	0			1				0	
6.6.1	win	2023-07-09	14:58:06	15:05:36	447603	60fd006a5893cbce502dffd4	4	1	practice_slash	9	advance_on_keypress_SLASH	2	stimuli_target_diamondsquares.svg	stimuli_distractor_diamondtriangles.svg	3	yes	57	0	721	0	0			0	0			1				0	
6.6.1	win	2023-07-09	14:58:06	15:05:39	450505	60fd006a5893cbce502dffd4	4	1	practice_slash	9	practice_slash	3	stimuli_distractor_diamondtriangles.svg	stimuli_distractor_trianglediamonds.svg	14	no	53	0	512	0	0			0	0			1				0	
6.6.1	win	2023-07-09	14:58:06	15:05:39	450505	60fd006a5893cbce502dffd4	4	1	practice_slash	9	advance_on_keypress_SLASH	4	stimuli_distractor_diamondtriangles.svg	stimuli_distractor_trianglediamonds.svg	14	no	57	0	728	0	0			0	0			1				0	
6.6.1	win	2023-07-09	14:58:06	15:05:42	453533	60fd006a5893cbce502dffd4	4	1	practice_slash	9	practice_slash	5	stimuli_target_rectanglediamonds.svg	stimuli_distractor_diamondtriangles.svg	1	yes	53	1	654	0	0			0	0			1				0	
6.6.1	win	2023-07-09	14:58:06	15:05:42	453533	60fd006a5893cbce502dffd4	4	1	practice_slash	9	advance_on_keypress_SLASH	6	stimuli_target_rectanglediamonds.svg	stimuli_distractor_diamondtriangles.svg	1	yes	57	0	782	0	0			0	0			1				0	
6.6.1	win	2023-07-09	14:58:06	15:05:45	456527	60fd006a5893cbce502dffd4	4	1	practice_slash	9	practice_slash	7	stimuli_target_diamondsquares.svg	stimuli_distractor_trianglediamonds.svg	6	yes	53	1	551	0	0			0	0			1				0	
6.6.1	win	2023-07-09	14:58:06	15:05:45	456527	60fd006a5893cbce502dffd4	4	1	practice_slash	9	advance_on_keypress_SLASH	8	stimuli_target_diamondsquares.svg	stimuli_distractor_trianglediamonds.svg	6	yes	57	0	696	0	0			0	0			1				0	
6.6.1	win	2023-07-09	14:58:06	15:05:48	459440	60fd006a5893cbce502dffd4	4	1	practice_slash	9	practice_slash	9	stimuli_distractor_trianglediamonds.svg	stimuli_target_rectanglediamonds.svg	10	yes	53	1	556	0	0			0	0			1				0	
6.6.1	win	2023-07-09	14:58:06	15:05:48	459440	60fd006a5893cbce502dffd4	4	1	practice_slash	9	advance_on_keypress_SLASH	10	stimuli_distractor_trianglediamonds.svg	stimuli_target_rectanglediamonds.svg	10	yes	57	0	2031	0	0			0	0			1				0	
6.6.1	win	2023-07-09	14:58:06	15:05:52	463636	60fd006a5893cbce502dffd4	4	1	practice_slash	9	practice_slash	11	stimuli_distractor_diamondtriangles.svg	stimuli_target_rectangletriangles.svg	7	yes	53	1	511	0	0			0	0			1				0	
6.6.1	win	2023-07-09	14:58:06	15:05:52	463636	60fd006a5893cbce502dffd4	4	1	practice_slash	9	advance_on_keypress_SLASH	12	stimuli_distractor_diamondtriangles.svg	stimuli_target_rectangletriangles.svg	7	yes	57	0	550	0	0			0	0			1				0	
6.6.1	win	2023-07-09	14:58:06	15:05:55	466629	60fd006a5893cbce502dffd4	4	1	practice_slash	9	practice_slash	13	stimuli_target_rectanglediamonds.svg	stimuli_distractor_trianglediamonds.svg	4	yes	53	1	782	0	0			0	0			1				0	
6.6.1	win	2023-07-09	14:58:06	15:05:55	466629	60fd006a5893cbce502dffd4	4	1	practice_slash	9	advance_on_keypress_SLASH	14	stimuli_target_rectanglediamonds.svg	stimuli_distractor_trianglediamonds.svg	4	yes	57	0	768	0	0			0	0			1				0	
6.6.1	win	2023-07-09	14:58:06	15:05:58	469823	60fd006a5893cbce502dffd4	4	1	practice_slash	9	practice_slash	15	stimuli_target_squarediamonds.svg	stimuli_distractor_trianglediamonds.svg	5	yes	53	1	765	0	0			0	0			1				0	
6.6.1	win	2023-07-09	14:58:06	15:05:58	469823	60fd006a5893cbce502dffd4	4	1	practice_slash	9	advance_on_keypress_SLASH	16	stimuli_target_squarediamonds.svg	stimuli_distractor_trianglediamonds.svg	5	yes	57	0	625	0	0			0	0			1				0	
6.6.1	win	2023-07-09	14:58:06	15:06:01	472729	60fd006a5893cbce502dffd4	4	1	practice_slash	9	practice_slash	17	stimuli_distractor_trianglediamonds.svg	stimuli_target_squarediamonds.svg	11	yes	53	1	618	0	0			0	0			1				0	
6.6.1	win	2023-07-09	14:58:06	15:06:01	472729	60fd006a5893cbce502dffd4	4	1	practice_slash	9	advance_on_keypress_SLASH	18	stimuli_distractor_trianglediamonds.svg	stimuli_target_squarediamonds.svg	11	yes	57	0	719	0	0			0	0			1				0	
6.6.1	win	2023-07-09	14:58:06	15:06:04	475781	60fd006a5893cbce502dffd4	4	1	practice_slash	9	practice_slash	19	stimuli_distractor_diamondtriangles.svg	stimuli_target_trianglerectangles.svg	9	yes	53	1	671	0	0			0	0			1				0	
6.6.1	win	2023-07-09	14:58:06	15:06:04	475781	60fd006a5893cbce502dffd4	4	1	practice_slash	9	advance_on_keypress_SLASH	20	stimuli_distractor_diamondtriangles.svg	stimuli_target_trianglerectangles.svg	9	yes	57	0	582	0	0			0	0			1				0	
6.6.1	win	2023-07-09	14:58:06	15:06:08	479591	60fd006a5893cbce502dffd4	4	1	practice_slash	9	practice_slash	21	stimuli_distractor_trianglediamonds.svg	stimuli_distractor_diamondtriangles.svg	16	no	53	0	1568	0	0			0	0			1				0	
6.6.1	win	2023-07-09	14:58:06	15:06:08	479591	60fd006a5893cbce502dffd4	4	1	practice_slash	9	advance_on_keypress_SLASH	22	stimuli_distractor_trianglediamonds.svg	stimuli_distractor_diamondtriangles.svg	16	no	57	0	708	0	0			0	0			1				0	
6.6.1	win	2023-07-09	14:58:06	15:06:11	482759	60fd006a5893cbce502dffd4	4	1	practice_slash	9	practice_slash	23	stimuli_distractor_diamondtriangles.svg	stimuli_target_diamondrectangles.svg	8	yes	53	1	798	0	0			0	0			1				0	
6.6.1	win	2023-07-09	14:58:06	15:06:11	482759	60fd006a5893cbce502dffd4	4	1	practice_slash	9	advance_on_keypress_SLASH	24	stimuli_distractor_diamondtriangles.svg	stimuli_target_diamondrectangles.svg	8	yes	57	0	598	0	0			0	0			1				0	
6.6.1	win	2023-07-09	14:58:06	15:06:14	485944	60fd006a5893cbce502dffd4	4	1	practice_slash	9	practice_slash	25	stimuli_distractor_trianglediamonds.svg	stimuli_target_diamondrectangles.svg	12	yes	53	1	926	0	0			0	0			1				0	
6.6.1	win	2023-07-09	14:58:06	15:06:14	485944	60fd006a5893cbce502dffd4	4	1	practice_slash	9	advance_on_keypress_SLASH	26	stimuli_distractor_trianglediamonds.svg	stimuli_target_diamondrectangles.svg	12	yes	57	0	681	0	0			0	0			1				0	
6.6.1	win	2023-07-09	14:58:06	15:06:18	489671	60fd006a5893cbce502dffd4	4	1	practice_slash	9	practice_slash	27	stimuli_distractor_trianglediamonds.svg	stimuli_distractor_trianglediamonds.svg	15	no	53	0	1383	0	0			0	0			1				0	
6.6.1	win	2023-07-09	14:58:06	15:06:18	489671	60fd006a5893cbce502dffd4	4	1	practice_slash	9	advance_on_keypress_SLASH	28	stimuli_distractor_trianglediamonds.svg	stimuli_distractor_trianglediamonds.svg	15	no	57	0	705	0	0			0	0			1				0	
6.6.1	win	2023-07-09	14:58:06	15:06:22	494039	60fd006a5893cbce502dffd4	4	1	practice_slash	9	practice_slash	29	stimuli_distractor_diamondtriangles.svg	stimuli_distractor_diamondtriangles.svg	13	no	0	1	2000	0	0			0	0			1				0	
6.6.1	win	2023-07-09	14:58:06	15:06:22	494039	60fd006a5893cbce502dffd4	4	1	practice_slash	9	advance_on_keypress_SLASH	30	stimuli_distractor_diamondtriangles.svg	stimuli_distractor_diamondtriangles.svg	13	no	57	0	495	0	0			0	0			1				0	
6.6.1	win	2023-07-09	14:58:06	15:06:25	496732	60fd006a5893cbce502dffd4	4	1	practice_slash	9	practice_slash	31	stimuli_target_squarediamonds.svg	stimuli_distractor_diamondtriangles.svg	2	yes	53	1	538	0	0			0	0			1				0	
6.6.1	win	2023-07-09	14:58:06	15:06:25	496732	60fd006a5893cbce502dffd4	4	1	practice_slash	9	advance_on_keypress_SLASH	32	stimuli_target_squarediamonds.svg	stimuli_distractor_diamondtriangles.svg	2	yes	57	0	765	0	0			0	0			1				0	
6.6.1	win	2023-07-09	14:58:06	15:06:30	501752	60fd006a5893cbce502dffd4	4	1	main_slash	11	main_slash	1	stimuli_distractor_diamondtriangles.svg	stimuli_distractor_trianglediamonds.svg	38	no	53	0	862	0	0			0	0			1				0	
6.6.1	win	2023-07-09	14:58:06	15:06:30	501752	60fd006a5893cbce502dffd4	4	1	main_slash	11	advance_on_keypress_SLASH	2	stimuli_distractor_diamondtriangles.svg	stimuli_distractor_trianglediamonds.svg	38	no	57	0	1081	0	0			0	0			1				0	
6.6.1	win	2023-07-09	14:58:06	15:06:33	504211	60fd006a5893cbce502dffd4	4	1	main_slash	11	main_slash	3	stimuli_distractor_trianglediamonds.svg	stimuli_target_trianglesquares.svg	26	yes	53	1	734	0	0			0	0			1				0	
6.6.1	win	2023-07-09	14:58:06	15:06:33	504211	60fd006a5893cbce502dffd4	4	1	main_slash	11	advance_on_keypress_SLASH	4	stimuli_distractor_trianglediamonds.svg	stimuli_target_trianglesquares.svg	26	yes	57	0	676	0	0			0	0			1				0	
6.6.1	win	2023-07-09	14:58:06	15:06:36	507546	60fd006a5893cbce502dffd4	4	1	main_slash	11	main_slash	5	stimuli_distractor_trianglediamonds.svg	stimuli_distractor_diamondtriangles.svg	35	no	0	1	2000	0	0			0	0			1				0	
6.6.1	win	2023-07-09	14:58:06	15:06:36	507546	60fd006a5893cbce502dffd4	4	1	main_slash	11	advance_on_keypress_SLASH	6	stimuli_distractor_trianglediamonds.svg	stimuli_distractor_diamondtriangles.svg	35	no	57	0	533	0	0			0	0			1				0	
6.6.1	win	2023-07-09	14:58:06	15:06:38	509503	60fd006a5893cbce502dffd4	4	1	main_slash	11	main_slash	7	stimuli_distractor_diamondtriangles.svg	stimuli_target_trianglerectangles.svg	29	yes	53	1	779	0	0			0	0			1				0	
6.6.1	win	2023-07-09	14:58:06	15:06:38	509503	60fd006a5893cbce502dffd4	4	1	main_slash	11	advance_on_keypress_SLASH	8	stimuli_distractor_diamondtriangles.svg	stimuli_target_trianglerectangles.svg	29	yes	57	0	1032	0	0			0	0			1				0	
6.6.1	win	2023-07-09	14:58:06	15:06:41	512703	60fd006a5893cbce502dffd4	4	1	main_slash	11	main_slash	9	stimuli_target_rectanglediamonds.svg	stimuli_distractor_diamondtriangles.svg	6	yes	53	1	1507	0	0			0	0			1				0	
6.6.1	win	2023-07-09	14:58:06	15:06:41	512703	60fd006a5893cbce502dffd4	4	1	main_slash	11	advance_on_keypress_SLASH	10	stimuli_target_rectanglediamonds.svg	stimuli_distractor_diamondtriangles.svg	6	yes	57	0	1641	0	0			0	0			1				0	
6.6.1	win	2023-07-09	14:58:06	15:06:44	515543	60fd006a5893cbce502dffd4	4	1	main_slash	11	main_slash	11	stimuli_distractor_trianglediamonds.svg	stimuli_target_squarediamonds.svg	12	yes	53	1	540	0	0			0	0			1				0	
6.6.1	win	2023-07-09	14:58:06	15:06:44	515543	60fd006a5893cbce502dffd4	4	1	main_slash	11	advance_on_keypress_SLASH	12	stimuli_distractor_trianglediamonds.svg	stimuli_target_squarediamonds.svg	12	yes	57	0	915	0	0			0	0			1				0	
6.6.1	win	2023-07-09	14:58:06	15:06:47	518782	60fd006a5893cbce502dffd4	4	1	main_slash	11	main_slash	13	stimuli_target_rectanglediamonds.svg	stimuli_distractor_trianglediamonds.svg	2	yes	53	1	1668	0	0			0	0			1				0	
6.6.1	win	2023-07-09	14:58:06	15:06:47	518782	60fd006a5893cbce502dffd4	4	1	main_slash	11	advance_on_keypress_SLASH	14	stimuli_target_rectanglediamonds.svg	stimuli_distractor_trianglediamonds.svg	2	yes	57	0	707	0	0			0	0			1				0	
6.6.1	win	2023-07-09	14:58:06	15:06:51	522150	60fd006a5893cbce502dffd4	4	1	main_slash	11	main_slash	15	stimuli_distractor_diamondtriangles.svg	stimuli_target_squaretriangles.svg	15	yes	0	0	2000	0	0			0	0			1				0	
6.6.1	win	2023-07-09	14:58:06	15:06:51	522150	60fd006a5893cbce502dffd4	4	1	main_slash	11	advance_on_keypress_SLASH	16	stimuli_distractor_diamondtriangles.svg	stimuli_target_squaretriangles.svg	15	yes	57	0	536	0	0			0	0			1				0	
6.6.1	win	2023-07-09	14:58:06	15:06:54	525346	60fd006a5893cbce502dffd4	4	1	main_slash	11	main_slash	17	stimuli_distractor_diamondtriangles.svg	stimuli_distractor_diamondtriangles.svg	39	no	0	1	2000	0	0			0	0			1				0	
6.6.1	win	2023-07-09	14:58:06	15:06:54	525346	60fd006a5893cbce502dffd4	4	1	main_slash	11	advance_on_keypress_SLASH	18	stimuli_distractor_diamondtriangles.svg	stimuli_distractor_diamondtriangles.svg	39	no	57	0	628	0	0			0	0			1				0	
6.6.1	win	2023-07-09	14:58:06	15:06:56	527384	60fd006a5893cbce502dffd4	4	1	main_slash	11	main_slash	19	stimuli_target_trianglerectangles.svg	stimuli_distractor_trianglediamonds.svg	17	yes	53	1	751	0	0			0	0			1				0	
6.6.1	win	2023-07-09	14:58:06	15:06:56	527384	60fd006a5893cbce502dffd4	4	1	main_slash	11	advance_on_keypress_SLASH	20	stimuli_target_trianglerectangles.svg	stimuli_distractor_trianglediamonds.svg	17	yes	57	0	868	0	0			0	0			1				0	
6.6.1	win	2023-07-09	14:58:06	15:06:58	529455	60fd006a5893cbce502dffd4	4	1	main_slash	11	main_slash	21	stimuli_target_squarediamonds.svg	stimuli_distractor_trianglediamonds.svg	4	yes	53	1	544	0	0			0	0			1				0	
6.6.1	win	2023-07-09	14:58:06	15:06:58	529455	60fd006a5893cbce502dffd4	4	1	main_slash	11	advance_on_keypress_SLASH	22	stimuli_target_squarediamonds.svg	stimuli_distractor_trianglediamonds.svg	4	yes	57	0	1065	0	0			0	0			1				0	
6.6.1	win	2023-07-09	14:58:06	15:07:02	533171	60fd006a5893cbce502dffd4	4	1	main_slash	11	main_slash	23	stimuli_target_trianglerectangles.svg	stimuli_distractor_diamondtriangles.svg	21	yes	0	0	2000	0	0			0	0			1				0	
6.6.1	win	2023-07-09	14:58:06	15:07:02	533171	60fd006a5893cbce502dffd4	4	1	main_slash	11	advance_on_keypress_SLASH	24	stimuli_target_trianglerectangles.svg	stimuli_distractor_diamondtriangles.svg	21	yes	57	0	553	0	0			0	0			1				0	
6.6.1	win	2023-07-09	14:58:06	15:07:04	535133	60fd006a5893cbce502dffd4	4	1	main_slash	11	main_slash	25	stimuli_distractor_diamondtriangles.svg	stimuli_target_rectangletriangles.svg	13	yes	53	1	748	0	0			0	0			1				0	
6.6.1	win	2023-07-09	14:58:06	15:07:04	535133	60fd006a5893cbce502dffd4	4	1	main_slash	11	advance_on_keypress_SLASH	26	stimuli_distractor_diamondtriangles.svg	stimuli_target_rectangletriangles.svg	13	yes	57	0	631	0	0			0	0			1				0	
6.6.1	win	2023-07-09	14:58:06	15:07:05	537092	60fd006a5893cbce502dffd4	4	1	main_slash	11	main_slash	27	stimuli_distractor_trianglediamonds.svg	stimuli_target_diamondsquares.svg	28	yes	53	1	667	0	0			0	0			1				0	
6.6.1	win	2023-07-09	14:58:06	15:07:05	537092	60fd006a5893cbce502dffd4	4	1	main_slash	11	advance_on_keypress_SLASH	28	stimuli_distractor_trianglediamonds.svg	stimuli_target_diamondsquares.svg	28	yes	57	0	631	0	0			0	0			1				0	
6.6.1	win	2023-07-09	14:58:06	15:07:09	540373	60fd006a5893cbce502dffd4	4	1	main_slash	11	main_slash	29	stimuli_distractor_trianglediamonds.svg	stimuli_distractor_trianglediamonds.svg	33	no	0	1	2000	0	0			0	0			1				0	
6.6.1	win	2023-07-09	14:58:06	15:07:09	540373	60fd006a5893cbce502dffd4	4	1	main_slash	11	advance_on_keypress_SLASH	30	stimuli_distractor_trianglediamonds.svg	stimuli_distractor_trianglediamonds.svg	33	no	57	0	649	0	0			0	0			1				0	
6.6.1	win	2023-07-09	14:58:06	15:07:12	543683	60fd006a5893cbce502dffd4	4	1	main_slash	11	main_slash	31	stimuli_distractor_trianglediamonds.svg	stimuli_distractor_trianglediamonds.svg	34	no	0	1	2000	0	0			0	0			1				0	
6.6.1	win	2023-07-09	14:58:06	15:07:12	543683	60fd006a5893cbce502dffd4	4	1	main_slash	11	advance_on_keypress_SLASH	32	stimuli_distractor_trianglediamonds.svg	stimuli_distractor_trianglediamonds.svg	34	no	57	0	671	0	0			0	0			1				0	
6.6.1	win	2023-07-09	14:58:06	15:07:14	545701	60fd006a5893cbce502dffd4	4	1	main_slash	11	main_slash	33	stimuli_target_diamondsquares.svg	stimuli_distractor_trianglediamonds.svg	20	yes	53	1	688	0	0			0	0			1				0	
6.6.1	win	2023-07-09	14:58:06	15:07:14	545701	60fd006a5893cbce502dffd4	4	1	main_slash	11	advance_on_keypress_SLASH	34	stimuli_target_diamondsquares.svg	stimuli_distractor_trianglediamonds.svg	20	yes	57	0	536	0	0			0	0			1				0	
6.6.1	win	2023-07-09	14:58:06	15:07:16	547928	60fd006a5893cbce502dffd4	4	1	main_slash	11	main_slash	35	stimuli_distractor_trianglediamonds.svg	stimuli_target_squaretriangles.svg	11	yes	53	1	1038	0	0			0	0			1				0	
6.6.1	win	2023-07-09	14:58:06	15:07:16	547928	60fd006a5893cbce502dffd4	4	1	main_slash	11	advance_on_keypress_SLASH	36	stimuli_distractor_trianglediamonds.svg	stimuli_target_squaretriangles.svg	11	yes	57	0	664	0	0			0	0			1				0	
6.6.1	win	2023-07-09	14:58:06	15:07:18	549883	60fd006a5893cbce502dffd4	4	1	main_slash	11	main_slash	37	stimuli_distractor_trianglediamonds.svg	stimuli_target_rectangletriangles.svg	9	yes	53	1	632	0	0			0	0			1				0	
6.6.1	win	2023-07-09	14:58:06	15:07:18	549883	60fd006a5893cbce502dffd4	4	1	main_slash	11	advance_on_keypress_SLASH	38	stimuli_distractor_trianglediamonds.svg	stimuli_target_rectangletriangles.svg	9	yes	57	0	525	0	0			0	0			1				0	
6.6.1	win	2023-07-09	14:58:06	15:07:20	551645	60fd006a5893cbce502dffd4	4	1	main_slash	11	main_slash	39	stimuli_target_squarediamonds.svg	stimuli_distractor_diamondtriangles.svg	8	yes	53	1	577	0	0			0	0			1				0	
6.6.1	win	2023-07-09	14:58:06	15:07:20	551645	60fd006a5893cbce502dffd4	4	1	main_slash	11	advance_on_keypress_SLASH	40	stimuli_target_squarediamonds.svg	stimuli_distractor_diamondtriangles.svg	8	yes	57	0	474	0	0			0	0			1				0	
6.6.1	win	2023-07-09	14:58:06	15:07:23	554770	60fd006a5893cbce502dffd4	4	1	main_slash	11	main_slash	41	stimuli_distractor_trianglediamonds.svg	stimuli_distractor_diamondtriangles.svg	36	no	0	1	2000	0	0			0	0			1				0	
6.6.1	win	2023-07-09	14:58:06	15:07:23	554770	60fd006a5893cbce502dffd4	4	1	main_slash	11	advance_on_keypress_SLASH	42	stimuli_distractor_trianglediamonds.svg	stimuli_distractor_diamondtriangles.svg	36	no	57	0	595	0	0			0	0			1				0	
6.6.1	win	2023-07-09	14:58:06	15:07:26	558027	60fd006a5893cbce502dffd4	4	1	main_slash	11	main_slash	43	stimuli_distractor_diamondtriangles.svg	stimuli_distractor_diamondtriangles.svg	40	no	0	1	2000	0	0			0	0			1				0	
6.6.1	win	2023-07-09	14:58:06	15:07:26	558027	60fd006a5893cbce502dffd4	4	1	main_slash	11	advance_on_keypress_SLASH	44	stimuli_distractor_diamondtriangles.svg	stimuli_distractor_diamondtriangles.svg	40	no	57	0	716	0	0			0	0			1				0	
6.6.1	win	2023-07-09	14:58:06	15:07:28	560072	60fd006a5893cbce502dffd4	4	1	main_slash	11	main_slash	45	stimuli_target_diamondrectangles.svg	stimuli_distractor_trianglediamonds.svg	19	yes	53	1	670	0	0			0	0			1				0	
6.6.1	win	2023-07-09	14:58:06	15:07:28	560072	60fd006a5893cbce502dffd4	4	1	main_slash	11	advance_on_keypress_SLASH	46	stimuli_target_diamondrectangles.svg	stimuli_distractor_trianglediamonds.svg	19	yes	57	0	537	0	0			0	0			1				0	
6.6.1	win	2023-07-09	14:58:06	15:07:30	561831	60fd006a5893cbce502dffd4	4	1	main_slash	11	main_slash	47	stimuli_distractor_trianglediamonds.svg	stimuli_target_trianglerectangles.svg	25	yes	53	1	575	0	0			0	0			1				0	
6.6.1	win	2023-07-09	14:58:06	15:07:30	561831	60fd006a5893cbce502dffd4	4	1	main_slash	11	advance_on_keypress_SLASH	48	stimuli_distractor_trianglediamonds.svg	stimuli_target_trianglerectangles.svg	25	yes	57	0	658	0	0			0	0			1				0	
6.6.1	win	2023-07-09	14:58:06	15:07:34	565142	60fd006a5893cbce502dffd4	4	1	main_slash	11	main_slash	49	stimuli_distractor_diamondtriangles.svg	stimuli_distractor_trianglediamonds.svg	37	no	0	1	2000	0	0			0	0			1				0	
6.6.1	win	2023-07-09	14:58:06	15:07:34	565142	60fd006a5893cbce502dffd4	4	1	main_slash	11	advance_on_keypress_SLASH	50	stimuli_distractor_diamondtriangles.svg	stimuli_distractor_trianglediamonds.svg	37	no	57	0	646	0	0			0	0			1				0	
6.6.1	win	2023-07-09	14:58:06	15:07:35	567086	60fd006a5893cbce502dffd4	4	1	main_slash	11	main_slash	51	stimuli_target_rectangletriangles.svg	stimuli_distractor_trianglediamonds.svg	1	yes	53	1	641	0	0			0	0			1				0	
6.6.1	win	2023-07-09	14:58:06	15:07:35	567086	60fd006a5893cbce502dffd4	4	1	main_slash	11	advance_on_keypress_SLASH	52	stimuli_target_rectangletriangles.svg	stimuli_distractor_trianglediamonds.svg	1	yes	57	0	544	0	0			0	0			1				0	
6.6.1	win	2023-07-09	14:58:06	15:07:37	568805	60fd006a5893cbce502dffd4	4	1	main_slash	11	main_slash	53	stimuli_target_squaretriangles.svg	stimuli_distractor_diamondtriangles.svg	7	yes	53	1	510	0	0			0	0			1				0	
6.6.1	win	2023-07-09	14:58:06	15:07:37	568805	60fd006a5893cbce502dffd4	4	1	main_slash	11	advance_on_keypress_SLASH	54	stimuli_target_squaretriangles.svg	stimuli_distractor_diamondtriangles.svg	7	yes	57	0	650	0	0			0	0			1				0	
6.6.1	win	2023-07-09	14:58:06	15:07:39	570927	60fd006a5893cbce502dffd4	4	1	main_slash	11	main_slash	55	stimuli_target_diamondsquares.svg	stimuli_distractor_diamondtriangles.svg	24	yes	53	1	814	0	0			0	0			1				0	
6.6.1	win	2023-07-09	14:58:06	15:07:39	570927	60fd006a5893cbce502dffd4	4	1	main_slash	11	advance_on_keypress_SLASH	56	stimuli_target_diamondsquares.svg	stimuli_distractor_diamondtriangles.svg	24	yes	57	0	673	0	0			0	0			1				0	
6.6.1	win	2023-07-09	14:58:06	15:07:41	572823	60fd006a5893cbce502dffd4	4	1	main_slash	11	main_slash	57	stimuli_target_trianglesquares.svg	stimuli_distractor_diamondtriangles.svg	22	yes	53	1	563	0	0			0	0			1				0	
6.6.1	win	2023-07-09	14:58:06	15:07:41	572823	60fd006a5893cbce502dffd4	4	1	main_slash	11	advance_on_keypress_SLASH	58	stimuli_target_trianglesquares.svg	stimuli_distractor_diamondtriangles.svg	22	yes	57	0	766	0	0			0	0			1				0	
6.6.1	win	2023-07-09	14:58:06	15:07:43	575029	60fd006a5893cbce502dffd4	4	1	main_slash	11	main_slash	59	stimuli_target_squaretriangles.svg	stimuli_distractor_trianglediamonds.svg	3	yes	53	1	793	0	0			0	0			1				0	
6.6.1	win	2023-07-09	14:58:06	15:07:43	575029	60fd006a5893cbce502dffd4	4	1	main_slash	11	advance_on_keypress_SLASH	60	stimuli_target_squaretriangles.svg	stimuli_distractor_trianglediamonds.svg	3	yes	57	0	530	0	0			0	0			1				0	
6.6.1	win	2023-07-09	14:58:06	15:07:45	577055	60fd006a5893cbce502dffd4	4	1	main_slash	11	main_slash	61	stimuli_distractor_trianglediamonds.svg	stimuli_target_diamondrectangles.svg	27	yes	53	1	835	0	0			0	0			1				0	
6.6.1	win	2023-07-09	14:58:06	15:07:45	577055	60fd006a5893cbce502dffd4	4	1	main_slash	11	advance_on_keypress_SLASH	62	stimuli_distractor_trianglediamonds.svg	stimuli_target_diamondrectangles.svg	27	yes	57	0	720	0	0			0	0			1				0	
6.6.1	win	2023-07-09	14:58:06	15:07:47	578957	60fd006a5893cbce502dffd4	4	1	main_slash	11	main_slash	63	stimuli_distractor_diamondtriangles.svg	stimuli_target_trianglesquares.svg	30	yes	53	1	523	0	0			0	0			1				0	
6.6.1	win	2023-07-09	14:58:06	15:07:47	578957	60fd006a5893cbce502dffd4	4	1	main_slash	11	advance_on_keypress_SLASH	64	stimuli_distractor_diamondtriangles.svg	stimuli_target_trianglesquares.svg	30	yes	57	0	551	0	0			0	0			1				0	
6.6.1	win	2023-07-09	14:58:06	15:07:49	580682	60fd006a5893cbce502dffd4	4	1	main_slash	11	main_slash	65	stimuli_target_diamondrectangles.svg	stimuli_distractor_diamondtriangles.svg	23	yes	53	1	513	0	0			0	0			1				0	
6.6.1	win	2023-07-09	14:58:06	15:07:49	580682	60fd006a5893cbce502dffd4	4	1	main_slash	11	advance_on_keypress_SLASH	66	stimuli_target_diamondrectangles.svg	stimuli_distractor_diamondtriangles.svg	23	yes	57	0	571	0	0			0	0			1				0	
6.6.1	win	2023-07-09	14:58:06	15:07:51	582437	60fd006a5893cbce502dffd4	4	1	main_slash	11	main_slash	67	stimuli_distractor_diamondtriangles.svg	stimuli_target_diamondsquares.svg	32	yes	53	1	528	0	0			0	0			1				0	
6.6.1	win	2023-07-09	14:58:06	15:07:51	582437	60fd006a5893cbce502dffd4	4	1	main_slash	11	advance_on_keypress_SLASH	68	stimuli_distractor_diamondtriangles.svg	stimuli_target_diamondsquares.svg	32	yes	57	0	507	0	0			0	0			1				0	
6.6.1	win	2023-07-09	14:58:06	15:07:53	584108	60fd006a5893cbce502dffd4	4	1	main_slash	11	main_slash	69	stimuli_target_trianglesquares.svg	stimuli_distractor_trianglediamonds.svg	18	yes	53	1	517	0	0			0	0			1				0	
6.6.1	win	2023-07-09	14:58:06	15:07:53	584108	60fd006a5893cbce502dffd4	4	1	main_slash	11	advance_on_keypress_SLASH	70	stimuli_target_trianglesquares.svg	stimuli_distractor_trianglediamonds.svg	18	yes	57	0	594	0	0			0	0			1				0	
6.6.1	win	2023-07-09	14:58:06	15:07:54	585759	60fd006a5893cbce502dffd4	4	1	main_slash	11	main_slash	71	stimuli_target_rectangletriangles.svg	stimuli_distractor_diamondtriangles.svg	5	yes	53	1	414	0	0			0	0			1				0	
6.6.1	win	2023-07-09	14:58:06	15:07:54	585759	60fd006a5893cbce502dffd4	4	1	main_slash	11	advance_on_keypress_SLASH	72	stimuli_target_rectangletriangles.svg	stimuli_distractor_diamondtriangles.svg	5	yes	57	0	635	0	0			0	0			1				0	
6.6.1	win	2023-07-09	14:58:06	15:07:56	587509	60fd006a5893cbce502dffd4	4	1	main_slash	11	main_slash	73	stimuli_distractor_diamondtriangles.svg	stimuli_target_diamondrectangles.svg	31	yes	53	1	469	0	0			0	0			1				0	
6.6.1	win	2023-07-09	14:58:06	15:07:56	587509	60fd006a5893cbce502dffd4	4	1	main_slash	11	advance_on_keypress_SLASH	74	stimuli_distractor_diamondtriangles.svg	stimuli_target_diamondrectangles.svg	31	yes	57	0	618	0	0			0	0			1				0	
6.6.1	win	2023-07-09	14:58:06	15:07:58	589313	60fd006a5893cbce502dffd4	4	1	main_slash	11	main_slash	75	stimuli_distractor_diamondtriangles.svg	stimuli_target_rectanglediamonds.svg	14	yes	53	1	529	0	0			0	0			1				0	
6.6.1	win	2023-07-09	14:58:06	15:07:58	589313	60fd006a5893cbce502dffd4	4	1	main_slash	11	advance_on_keypress_SLASH	76	stimuli_distractor_diamondtriangles.svg	stimuli_target_rectanglediamonds.svg	14	yes	57	0	553	0	0			0	0			1				0	
6.6.1	win	2023-07-09	14:58:06	15:08:00	591290	60fd006a5893cbce502dffd4	4	1	main_slash	11	main_slash	77	stimuli_distractor_diamondtriangles.svg	stimuli_target_squarediamonds.svg	16	yes	53	1	773	0	0			0	0			1				0	
6.6.1	win	2023-07-09	14:58:06	15:08:00	591290	60fd006a5893cbce502dffd4	4	1	main_slash	11	advance_on_keypress_SLASH	78	stimuli_distractor_diamondtriangles.svg	stimuli_target_squarediamonds.svg	16	yes	57	0	564	0	0			0	0			1				0	
6.6.1	win	2023-07-09	14:58:06	15:08:02	593170	60fd006a5893cbce502dffd4	4	1	main_slash	11	main_slash	79	stimuli_distractor_trianglediamonds.svg	stimuli_target_rectanglediamonds.svg	10	yes	53	1	662	0	0			0	0			1				0	
6.6.1	win	2023-07-09	14:58:06	15:08:02	593170	60fd006a5893cbce502dffd4	4	1	main_slash	11	advance_on_keypress_SLASH	80	stimuli_distractor_trianglediamonds.svg	stimuli_target_rectanglediamonds.svg	10	yes	57	0	728	0	0			0	0			1				0	
6.6.1	win	2023-07-09	14:58:06	15:08:04	595227	60fd006a5893cbce502dffd4	4	1	main_slash	11	main_slash	81	stimuli_target_rectanglediamonds.svg	stimuli_distractor_diamondtriangles.svg	6	yes	53	1	670	0	0			0	0			1				0	
6.6.1	win	2023-07-09	14:58:06	15:08:04	595227	60fd006a5893cbce502dffd4	4	1	main_slash	11	advance_on_keypress_SLASH	82	stimuli_target_rectanglediamonds.svg	stimuli_distractor_diamondtriangles.svg	6	yes	57	0	1908	0	0			0	0			1				0	
6.6.1	win	2023-07-09	14:58:06	15:08:07	598229	60fd006a5893cbce502dffd4	4	1	main_slash	11	main_slash	83	stimuli_target_rectanglediamonds.svg	stimuli_distractor_trianglediamonds.svg	2	yes	53	1	437	0	0			0	0			1				0	
6.6.1	win	2023-07-09	14:58:06	15:08:07	598229	60fd006a5893cbce502dffd4	4	1	main_slash	11	advance_on_keypress_SLASH	84	stimuli_target_rectanglediamonds.svg	stimuli_distractor_trianglediamonds.svg	2	yes	57	0	850	0	0			0	0			1				0	
6.6.1	win	2023-07-09	14:58:06	15:08:09	600257	60fd006a5893cbce502dffd4	4	1	main_slash	11	main_slash	85	stimuli_target_diamondsquares.svg	stimuli_distractor_diamondtriangles.svg	24	yes	53	1	502	0	0			0	0			1				0	
6.6.1	win	2023-07-09	14:58:06	15:08:09	600257	60fd006a5893cbce502dffd4	4	1	main_slash	11	advance_on_keypress_SLASH	86	stimuli_target_diamondsquares.svg	stimuli_distractor_diamondtriangles.svg	24	yes	57	0	488	0	0			0	0			1				0	
6.6.1	win	2023-07-09	14:58:06	15:08:10	601948	60fd006a5893cbce502dffd4	4	1	main_slash	11	main_slash	87	stimuli_distractor_diamondtriangles.svg	stimuli_target_rectanglediamonds.svg	14	yes	53	1	549	0	0			0	0			1				0	
6.6.1	win	2023-07-09	14:58:06	15:08:10	601948	60fd006a5893cbce502dffd4	4	1	main_slash	11	advance_on_keypress_SLASH	88	stimuli_distractor_diamondtriangles.svg	stimuli_target_rectanglediamonds.svg	14	yes	57	0	1084	0	0			0	0			1				0	
6.6.1	win	2023-07-09	14:58:06	15:08:13	604473	60fd006a5893cbce502dffd4	4	1	main_slash	11	main_slash	89	stimuli_target_trianglerectangles.svg	stimuli_distractor_trianglediamonds.svg	17	yes	53	1	794	0	0			0	0			1				0	
6.6.1	win	2023-07-09	14:58:06	15:08:13	604473	60fd006a5893cbce502dffd4	4	1	main_slash	11	advance_on_keypress_SLASH	90	stimuli_target_trianglerectangles.svg	stimuli_distractor_trianglediamonds.svg	17	yes	57	0	642	0	0			0	0			1				0	
6.6.1	win	2023-07-09	14:58:06	15:08:15	606251	60fd006a5893cbce502dffd4	4	1	main_slash	11	main_slash	91	stimuli_target_rectangletriangles.svg	stimuli_distractor_trianglediamonds.svg	1	yes	53	1	478	0	0			0	0			1				0	
6.6.1	win	2023-07-09	14:58:06	15:08:15	606251	60fd006a5893cbce502dffd4	4	1	main_slash	11	advance_on_keypress_SLASH	92	stimuli_target_rectangletriangles.svg	stimuli_distractor_trianglediamonds.svg	1	yes	57	0	445	0	0			0	0			1				0	
6.6.1	win	2023-07-09	14:58:06	15:08:17	608220	60fd006a5893cbce502dffd4	4	1	main_slash	11	main_slash	93	stimuli_distractor_trianglediamonds.svg	stimuli_target_trianglesquares.svg	26	yes	53	1	873	0	0			0	0			1				0	
6.6.1	win	2023-07-09	14:58:06	15:08:17	608220	60fd006a5893cbce502dffd4	4	1	main_slash	11	advance_on_keypress_SLASH	94	stimuli_distractor_trianglediamonds.svg	stimuli_target_trianglesquares.svg	26	yes	57	0	664	0	0			0	0			1				0	
6.6.1	win	2023-07-09	14:58:06	15:08:20	611545	60fd006a5893cbce502dffd4	4	1	main_slash	11	main_slash	95	stimuli_target_squarediamonds.svg	stimuli_distractor_diamondtriangles.svg	8	yes	0	0	2000	0	0			0	0			1				0	
6.6.1	win	2023-07-09	14:58:06	15:08:20	611545	60fd006a5893cbce502dffd4	4	1	main_slash	11	advance_on_keypress_SLASH	96	stimuli_target_squarediamonds.svg	stimuli_distractor_diamondtriangles.svg	8	yes	57	0	1034	0	0			0	0			1				0	
6.6.1	win	2023-07-09	14:58:06	15:08:22	613761	60fd006a5893cbce502dffd4	4	1	main_slash	11	main_slash	97	stimuli_target_trianglerectangles.svg	stimuli_distractor_diamondtriangles.svg	21	yes	53	1	522	0	0			0	0			1				0	
6.6.1	win	2023-07-09	14:58:06	15:08:22	613761	60fd006a5893cbce502dffd4	4	1	main_slash	11	advance_on_keypress_SLASH	98	stimuli_target_trianglerectangles.svg	stimuli_distractor_diamondtriangles.svg	21	yes	57	0	794	0	0			0	0			1				0	
6.6.1	win	2023-07-09	14:58:06	15:08:24	615874	60fd006a5893cbce502dffd4	4	1	main_slash	11	main_slash	99	stimuli_distractor_trianglediamonds.svg	stimuli_target_diamondrectangles.svg	27	yes	53	1	666	0	0			0	0			1				0	
6.6.1	win	2023-07-09	14:58:06	15:08:24	615874	60fd006a5893cbce502dffd4	4	1	main_slash	11	advance_on_keypress_SLASH	100	stimuli_distractor_trianglediamonds.svg	stimuli_target_diamondrectangles.svg	27	yes	57	0	604	0	0			0	0			1				0	
6.6.1	win	2023-07-09	14:58:06	15:08:27	618465	60fd006a5893cbce502dffd4	4	1	main_slash	11	main_slash	101	stimuli_distractor_trianglediamonds.svg	stimuli_distractor_diamondtriangles.svg	36	no	53	0	1343	0	0			0	0			1				0	
6.6.1	win	2023-07-09	14:58:06	15:08:27	618465	60fd006a5893cbce502dffd4	4	1	main_slash	11	advance_on_keypress_SLASH	102	stimuli_distractor_trianglediamonds.svg	stimuli_distractor_diamondtriangles.svg	36	no	57	0	938	0	0			0	0			1				0	
6.6.1	win	2023-07-09	14:58:06	15:08:29	620693	60fd006a5893cbce502dffd4	4	1	main_slash	11	main_slash	103	stimuli_distractor_trianglediamonds.svg	stimuli_target_squarediamonds.svg	12	yes	53	1	631	0	0			0	0			1				0	
6.6.1	win	2023-07-09	14:58:06	15:08:29	620693	60fd006a5893cbce502dffd4	4	1	main_slash	11	advance_on_keypress_SLASH	104	stimuli_distractor_trianglediamonds.svg	stimuli_target_squarediamonds.svg	12	yes	57	0	484	0	0			0	0			1				0	
6.6.1	win	2023-07-09	14:58:06	15:08:31	622960	60fd006a5893cbce502dffd4	4	1	main_slash	11	main_slash	105	stimuli_target_trianglesquares.svg	stimuli_distractor_trianglediamonds.svg	18	yes	53	1	1123	0	0			0	0			1				0	
6.6.1	win	2023-07-09	14:58:06	15:08:31	622960	60fd006a5893cbce502dffd4	4	1	main_slash	11	advance_on_keypress_SLASH	106	stimuli_target_trianglesquares.svg	stimuli_distractor_trianglediamonds.svg	18	yes	57	0	440	0	0			0	0			1				0	
6.6.1	win	2023-07-09	14:58:06	15:08:33	625038	60fd006a5893cbce502dffd4	4	1	main_slash	11	main_slash	107	stimuli_distractor_diamondtriangles.svg	stimuli_target_squaretriangles.svg	15	yes	53	1	977	0	0			0	0			1				0	
6.6.1	win	2023-07-09	14:58:06	15:08:33	625038	60fd006a5893cbce502dffd4	4	1	main_slash	11	advance_on_keypress_SLASH	108	stimuli_distractor_diamondtriangles.svg	stimuli_target_squaretriangles.svg	15	yes	57	0	683	0	0			0	0			1				0	
6.6.1	win	2023-07-09	14:58:06	15:08:37	628380	60fd006a5893cbce502dffd4	4	1	main_slash	11	main_slash	109	stimuli_distractor_trianglediamonds.svg	stimuli_distractor_trianglediamonds.svg	33	no	0	1	2000	0	0			0	0			1				0	
6.6.1	win	2023-07-09	14:58:06	15:08:37	628380	60fd006a5893cbce502dffd4	4	1	main_slash	11	advance_on_keypress_SLASH	110	stimuli_distractor_trianglediamonds.svg	stimuli_distractor_trianglediamonds.svg	33	no	57	0	518	0	0			0	0			1				0	
6.6.1	win	2023-07-09	14:58:06	15:08:40	631257	60fd006a5893cbce502dffd4	4	1	main_slash	11	main_slash	111	stimuli_distractor_trianglediamonds.svg	stimuli_target_rectanglediamonds.svg	10	yes	53	1	1713	0	0			0	0			1				0	
6.6.1	win	2023-07-09	14:58:06	15:08:40	631257	60fd006a5893cbce502dffd4	4	1	main_slash	11	advance_on_keypress_SLASH	112	stimuli_distractor_trianglediamonds.svg	stimuli_target_rectanglediamonds.svg	10	yes	57	0	641	0	0			0	0			1				0	
6.6.1	win	2023-07-09	14:58:06	15:08:42	633109	60fd006a5893cbce502dffd4	4	1	main_slash	11	main_slash	113	stimuli_distractor_diamondtriangles.svg	stimuli_target_trianglerectangles.svg	29	yes	53	1	551	0	0			0	0			1				0	
6.6.1	win	2023-07-09	14:58:06	15:08:42	633109	60fd006a5893cbce502dffd4	4	1	main_slash	11	advance_on_keypress_SLASH	114	stimuli_distractor_diamondtriangles.svg	stimuli_target_trianglerectangles.svg	29	yes	57	0	513	0	0			0	0			1				0	
6.6.1	win	2023-07-09	14:58:06	15:08:43	634830	60fd006a5893cbce502dffd4	4	1	main_slash	11	main_slash	115	stimuli_target_trianglesquares.svg	stimuli_distractor_diamondtriangles.svg	22	yes	53	1	565	0	0			0	0			1				0	
6.6.1	win	2023-07-09	14:58:06	15:08:43	634830	60fd006a5893cbce502dffd4	4	1	main_slash	11	advance_on_keypress_SLASH	116	stimuli_target_trianglesquares.svg	stimuli_distractor_diamondtriangles.svg	22	yes	57	0	491	0	0			0	0			1				0	
6.6.1	win	2023-07-09	14:58:06	15:08:46	637968	60fd006a5893cbce502dffd4	4	1	main_slash	11	main_slash	117	stimuli_distractor_diamondtriangles.svg	stimuli_distractor_diamondtriangles.svg	40	no	0	1	2000	0	0			0	0			1				0	
6.6.1	win	2023-07-09	14:58:06	15:08:46	637968	60fd006a5893cbce502dffd4	4	1	main_slash	11	advance_on_keypress_SLASH	118	stimuli_distractor_diamondtriangles.svg	stimuli_distractor_diamondtriangles.svg	40	no	57	0	565	0	0			0	0			1				0	
6.6.1	win	2023-07-09	14:58:06	15:08:48	639951	60fd006a5893cbce502dffd4	4	1	main_slash	11	main_slash	119	stimuli_distractor_diamondtriangles.svg	stimuli_distractor_trianglediamonds.svg	37	no	53	0	757	0	0			0	0			1				0	
6.6.1	win	2023-07-09	14:58:06	15:08:48	639951	60fd006a5893cbce502dffd4	4	1	main_slash	11	advance_on_keypress_SLASH	120	stimuli_distractor_diamondtriangles.svg	stimuli_distractor_trianglediamonds.svg	37	no	57	0	714	0	0			0	0			1				0	
6.6.1	win	2023-07-09	14:58:06	15:08:52	643327	60fd006a5893cbce502dffd4	4	1	main_slash	11	main_slash	121	stimuli_target_diamondrectangles.svg	stimuli_distractor_trianglediamonds.svg	19	yes	0	0	2000	0	0			0	0			1				0	
6.6.1	win	2023-07-09	14:58:06	15:08:52	643327	60fd006a5893cbce502dffd4	4	1	main_slash	11	advance_on_keypress_SLASH	122	stimuli_target_diamondrectangles.svg	stimuli_distractor_trianglediamonds.svg	19	yes	57	0	694	0	0			0	0			1				0	
6.6.1	win	2023-07-09	14:58:06	15:08:55	646682	60fd006a5893cbce502dffd4	4	1	main_slash	11	main_slash	123	stimuli_distractor_diamondtriangles.svg	stimuli_target_squarediamonds.svg	16	yes	0	0	2000	0	0			0	0			1				0	
6.6.1	win	2023-07-09	14:58:06	15:08:55	646682	60fd006a5893cbce502dffd4	4	1	main_slash	11	advance_on_keypress_SLASH	124	stimuli_distractor_diamondtriangles.svg	stimuli_target_squarediamonds.svg	16	yes	57	0	613	0	0			0	0			1				0	
6.6.1	win	2023-07-09	14:58:06	15:08:57	648530	60fd006a5893cbce502dffd4	4	1	main_slash	11	main_slash	125	stimuli_target_diamondrectangles.svg	stimuli_distractor_diamondtriangles.svg	23	yes	53	1	577	0	0			0	0			1				0	
6.6.1	win	2023-07-09	14:58:06	15:08:57	648530	60fd006a5893cbce502dffd4	4	1	main_slash	11	advance_on_keypress_SLASH	126	stimuli_target_diamondrectangles.svg	stimuli_distractor_diamondtriangles.svg	23	yes	57	0	885	0	0			0	0			1				0	
6.6.1	win	2023-07-09	14:58:06	15:08:59	650571	60fd006a5893cbce502dffd4	4	1	main_slash	11	main_slash	127	stimuli_target_rectangletriangles.svg	stimuli_distractor_diamondtriangles.svg	5	yes	53	1	489	0	0			0	0			1				0	
6.6.1	win	2023-07-09	14:58:06	15:08:59	650571	60fd006a5893cbce502dffd4	4	1	main_slash	11	advance_on_keypress_SLASH	128	stimuli_target_rectangletriangles.svg	stimuli_distractor_diamondtriangles.svg	5	yes	57	0	617	0	0			0	0			1				0	
6.6.1	win	2023-07-09	14:58:06	15:09:01	652380	60fd006a5893cbce502dffd4	4	1	main_slash	11	main_slash	129	stimuli_distractor_trianglediamonds.svg	stimuli_target_trianglerectangles.svg	25	yes	53	1	549	0	0			0	0			1				0	
6.6.1	win	2023-07-09	14:58:06	15:09:01	652380	60fd006a5893cbce502dffd4	4	1	main_slash	11	advance_on_keypress_SLASH	130	stimuli_distractor_trianglediamonds.svg	stimuli_target_trianglerectangles.svg	25	yes	57	0	1115	0	0			0	0			1				0	
6.6.1	win	2023-07-09	14:58:06	15:09:03	654661	60fd006a5893cbce502dffd4	4	1	main_slash	11	main_slash	131	stimuli_distractor_diamondtriangles.svg	stimuli_target_rectangletriangles.svg	13	yes	53	1	518	0	0			0	0			1				0	
6.6.1	win	2023-07-09	14:58:06	15:09:03	654661	60fd006a5893cbce502dffd4	4	1	main_slash	11	advance_on_keypress_SLASH	132	stimuli_distractor_diamondtriangles.svg	stimuli_target_rectangletriangles.svg	13	yes	57	0	626	0	0			0	0			1				0	
6.6.1	win	2023-07-09	14:58:06	15:09:06	657944	60fd006a5893cbce502dffd4	4	1	main_slash	11	main_slash	133	stimuli_distractor_trianglediamonds.svg	stimuli_distractor_trianglediamonds.svg	34	no	0	1	2000	0	0			0	0			1				0	
6.6.1	win	2023-07-09	14:58:06	15:09:06	657944	60fd006a5893cbce502dffd4	4	1	main_slash	11	advance_on_keypress_SLASH	134	stimuli_distractor_trianglediamonds.svg	stimuli_distractor_trianglediamonds.svg	34	no	57	0	691	0	0			0	0			1				0	
6.6.1	win	2023-07-09	14:58:06	15:09:10	661295	60fd006a5893cbce502dffd4	4	1	main_slash	11	main_slash	135	stimuli_distractor_diamondtriangles.svg	stimuli_distractor_trianglediamonds.svg	38	no	0	1	2000	0	0			0	0			1				0	
6.6.1	win	2023-07-09	14:58:06	15:09:10	661295	60fd006a5893cbce502dffd4	4	1	main_slash	11	advance_on_keypress_SLASH	136	stimuli_distractor_diamondtriangles.svg	stimuli_distractor_trianglediamonds.svg	38	no	57	0	370	0	0			0	0			1				0	
6.6.1	win	2023-07-09	14:58:06	15:09:11	662952	60fd006a5893cbce502dffd4	4	1	main_slash	11	main_slash	137	stimuli_distractor_diamondtriangles.svg	stimuli_target_diamondsquares.svg	32	yes	53	1	624	0	0			0	0			1				0	
6.6.1	win	2023-07-09	14:58:06	15:09:11	662952	60fd006a5893cbce502dffd4	4	1	main_slash	11	advance_on_keypress_SLASH	138	stimuli_distractor_diamondtriangles.svg	stimuli_target_diamondsquares.svg	32	yes	57	0	684	0	0			0	0			1				0	
6.6.1	win	2023-07-09	14:58:06	15:09:13	664816	60fd006a5893cbce502dffd4	4	1	main_slash	11	main_slash	139	stimuli_distractor_trianglediamonds.svg	stimuli_target_diamondsquares.svg	28	yes	53	1	537	0	0			0	0			1				0	
6.6.1	win	2023-07-09	14:58:06	15:09:13	664816	60fd006a5893cbce502dffd4	4	1	main_slash	11	advance_on_keypress_SLASH	140	stimuli_distractor_trianglediamonds.svg	stimuli_target_diamondsquares.svg	28	yes	57	0	826	0	0			0	0			1				0	
6.6.1	win	2023-07-09	14:58:06	15:09:17	668300	60fd006a5893cbce502dffd4	4	1	main_slash	11	main_slash	141	stimuli_distractor_trianglediamonds.svg	stimuli_distractor_diamondtriangles.svg	35	no	0	1	2000	0	0			0	0			1				0	
6.6.1	win	2023-07-09	14:58:06	15:09:17	668300	60fd006a5893cbce502dffd4	4	1	main_slash	11	advance_on_keypress_SLASH	142	stimuli_distractor_trianglediamonds.svg	stimuli_distractor_diamondtriangles.svg	35	no	57	0	629	0	0			0	0			1				0	
6.6.1	win	2023-07-09	14:58:06	15:09:20	671590	60fd006a5893cbce502dffd4	4	1	main_slash	11	main_slash	143	stimuli_distractor_trianglediamonds.svg	stimuli_target_squaretriangles.svg	11	yes	0	0	2000	0	0			0	0			1				0	
6.6.1	win	2023-07-09	14:58:06	15:09:20	671590	60fd006a5893cbce502dffd4	4	1	main_slash	11	advance_on_keypress_SLASH	144	stimuli_distractor_trianglediamonds.svg	stimuli_target_squaretriangles.svg	11	yes	57	0	409	0	0			0	0			1				0	
6.6.1	win	2023-07-09	14:58:06	15:09:22	673207	60fd006a5893cbce502dffd4	4	1	main_slash	11	main_slash	145	stimuli_target_squaretriangles.svg	stimuli_distractor_diamondtriangles.svg	7	yes	53	1	548	0	0			0	0			1				0	
6.6.1	win	2023-07-09	14:58:06	15:09:22	673207	60fd006a5893cbce502dffd4	4	1	main_slash	11	advance_on_keypress_SLASH	146	stimuli_target_squaretriangles.svg	stimuli_distractor_diamondtriangles.svg	7	yes	57	0	594	0	0			0	0			1				0	
6.6.1	win	2023-07-09	14:58:06	15:09:23	674969	60fd006a5893cbce502dffd4	4	1	main_slash	11	main_slash	147	stimuli_target_squaretriangles.svg	stimuli_distractor_trianglediamonds.svg	3	yes	53	1	522	0	0			0	0			1				0	
6.6.1	win	2023-07-09	14:58:06	15:09:23	674969	60fd006a5893cbce502dffd4	4	1	main_slash	11	advance_on_keypress_SLASH	148	stimuli_target_squaretriangles.svg	stimuli_distractor_trianglediamonds.svg	3	yes	57	0	1073	0	0			0	0			1				0	
6.6.1	win	2023-07-09	14:58:06	15:09:26	677252	60fd006a5893cbce502dffd4	4	1	main_slash	11	main_slash	149	stimuli_target_squarediamonds.svg	stimuli_distractor_trianglediamonds.svg	4	yes	53	1	556	0	0			0	0			1				0	
6.6.1	win	2023-07-09	14:58:06	15:09:26	677252	60fd006a5893cbce502dffd4	4	1	main_slash	11	advance_on_keypress_SLASH	150	stimuli_target_squarediamonds.svg	stimuli_distractor_trianglediamonds.svg	4	yes	57	0	1520	0	0			0	0			1				0	
6.6.1	win	2023-07-09	14:58:06	15:09:30	681428	60fd006a5893cbce502dffd4	4	1	main_slash	11	main_slash	151	stimuli_distractor_diamondtriangles.svg	stimuli_distractor_diamondtriangles.svg	39	no	0	1	2000	0	0			0	0			1				0	
6.6.1	win	2023-07-09	14:58:06	15:09:30	681428	60fd006a5893cbce502dffd4	4	1	main_slash	11	advance_on_keypress_SLASH	152	stimuli_distractor_diamondtriangles.svg	stimuli_distractor_diamondtriangles.svg	39	no	57	0	332	0	0			0	0			1				0	
6.6.1	win	2023-07-09	14:58:06	15:09:31	683071	60fd006a5893cbce502dffd4	4	1	main_slash	11	main_slash	153	stimuli_distractor_trianglediamonds.svg	stimuli_target_rectangletriangles.svg	9	yes	53	1	651	0	0			0	0			1				0	
6.6.1	win	2023-07-09	14:58:06	15:09:31	683071	60fd006a5893cbce502dffd4	4	1	main_slash	11	advance_on_keypress_SLASH	154	stimuli_distractor_trianglediamonds.svg	stimuli_target_rectangletriangles.svg	9	yes	57	0	802	0	0			0	0			1				0	
6.6.1	win	2023-07-09	14:58:06	15:09:33	685067	60fd006a5893cbce502dffd4	4	1	main_slash	11	main_slash	155	stimuli_target_diamondsquares.svg	stimuli_distractor_trianglediamonds.svg	20	yes	53	1	561	0	0			0	0			1				0	
6.6.1	win	2023-07-09	14:58:06	15:09:33	685067	60fd006a5893cbce502dffd4	4	1	main_slash	11	advance_on_keypress_SLASH	156	stimuli_target_diamondsquares.svg	stimuli_distractor_trianglediamonds.svg	20	yes	57	0	489	0	0			0	0			1				0	
6.6.1	win	2023-07-09	14:58:06	15:09:35	686739	60fd006a5893cbce502dffd4	4	1	main_slash	11	main_slash	157	stimuli_distractor_diamondtriangles.svg	stimuli_target_diamondrectangles.svg	31	yes	53	1	534	0	0			0	0			1				0	
6.6.1	win	2023-07-09	14:58:06	15:09:35	686739	60fd006a5893cbce502dffd4	4	1	main_slash	11	advance_on_keypress_SLASH	158	stimuli_distractor_diamondtriangles.svg	stimuli_target_diamondrectangles.svg	31	yes	57	0	484	0	0			0	0			1				0	
6.6.1	win	2023-07-09	14:58:06	15:09:37	688336	60fd006a5893cbce502dffd4	4	1	main_slash	11	main_slash	159	stimuli_distractor_diamondtriangles.svg	stimuli_target_trianglesquares.svg	30	yes	53	1	472	0	0			0	0			1				0	
6.6.1	win	2023-07-09	14:58:06	15:09:37	688336	60fd006a5893cbce502dffd4	4	1	main_slash	11	advance_on_keypress_SLASH	160	stimuli_distractor_diamondtriangles.svg	stimuli_target_trianglesquares.svg	30	yes	57	0	454	0	0			0	0			1				0	
6.6.1	win	2023-07-09	14:58:06	15:09:37	688336	60fd006a5893cbce502dffd4	4	1	headphonecheck_calibration	14	headphonecheck_calibrationIntro	1	stimuli_distractor_diamondtriangles.svg	stimuli_target_trianglesquares.svg	30	yes	calibrationButton	0	6256	0	0			0	0			1				0	
6.6.1	win	2023-07-09	14:58:06	15:09:37	688336	60fd006a5893cbce502dffd4	4	1	headphonecheck_testphase	15	test_collectResponse	3	stimuli_distractor_diamondtriangles.svg	stimuli_target_trianglesquares.svg	30	yes	second	0	3603	1	3	antiphase_hc_soi.wav	1	0	0			1				0	
6.6.1	win	2023-07-09	14:58:06	15:09:37	688336	60fd006a5893cbce502dffd4	4	1	headphonecheck_testphase	15	test_collectResponse	6	stimuli_distractor_diamondtriangles.svg	stimuli_target_trianglesquares.svg	30	yes	first	1	545	2	4	antiphase_hc_sio.wav	1	0	0			1				0	
6.6.1	win	2023-07-09	14:58:06	15:09:37	688336	60fd006a5893cbce502dffd4	4	1	headphonecheck_testphase	15	test_collectResponse	9	stimuli_distractor_diamondtriangles.svg	stimuli_target_trianglesquares.svg	30	yes	third	0	611	3	1	antiphase_hc_iso.wav	2	0	0			1				0	
6.6.1	win	2023-07-09	14:58:06	15:09:37	688336	60fd006a5893cbce502dffd4	4	1	headphonecheck_testphase	15	test_collectResponse	12	stimuli_distractor_diamondtriangles.svg	stimuli_target_trianglesquares.svg	30	yes	second	0	1030	4	2	antiphase_hc_ios.wav	3	0	0			1				0	
6.6.1	win	2023-07-09	14:58:06	15:09:37	688336	60fd006a5893cbce502dffd4	4	1	headphonecheck_testphase	15	test_collectResponse	15	stimuli_distractor_diamondtriangles.svg	stimuli_target_trianglesquares.svg	30	yes	first	0	869	5	5	antiphase_hc_osi.wav	2	0	0			1				0	
6.6.1	win	2023-07-09	14:58:06	15:09:37	688336	60fd006a5893cbce502dffd4	4	1	headphonecheck_testphase	15	test_collectResponse	18	stimuli_distractor_diamondtriangles.svg	stimuli_target_trianglesquares.svg	30	yes	first	0	679	6	6	antiphase_hc_ois.wav	3	0	0			1				0	
6.6.1	win	2023-07-09	14:58:06	15:09:37	688336	60fd006a5893cbce502dffd4	4	1	stereocheck_calibration	17	stereocheck_calibrationIntro	1	stimuli_distractor_diamondtriangles.svg	stimuli_target_trianglesquares.svg	30	yes	stereocheck_calibrationButton	0	105963	6	6	antiphase_hc_ois.wav	3	0	0			1				0	
6.6.1	win	2023-07-09	14:58:06	15:09:37	688336	60fd006a5893cbce502dffd4	4	1	stereocheck_testphase	18	stereocheck_test_collectResponse	3	stimuli_distractor_diamondtriangles.svg	stimuli_target_trianglesquares.svg	30	yes	stereocheck_right	1	345	6	6	antiphase_hc_ois.wav	3	1	5	noise_calib_stim_RIGHT.wav	2	1				0	
6.6.1	win	2023-07-09	14:58:06	15:09:37	688336	60fd006a5893cbce502dffd4	4	1	stereocheck_testphase	18	stereocheck_test_collectResponse	6	stimuli_distractor_diamondtriangles.svg	stimuli_target_trianglesquares.svg	30	yes	stereocheck_left	1	401	6	6	antiphase_hc_ois.wav	3	2	1	noise_calib_stim_LEFT.wav	1	1				0	
6.6.1	win	2023-07-09	14:58:06	15:09:37	688336	60fd006a5893cbce502dffd4	4	1	stereocheck_testphase	18	stereocheck_test_collectResponse	9	stimuli_distractor_diamondtriangles.svg	stimuli_target_trianglesquares.svg	30	yes	stereocheck_left	1	345	6	6	antiphase_hc_ois.wav	3	3	3	noise_calib_stim_LEFT.wav	1	1				0	
6.6.1	win	2023-07-09	14:58:06	15:09:37	688336	60fd006a5893cbce502dffd4	4	1	stereocheck_testphase	18	stereocheck_test_collectResponse	12	stimuli_distractor_diamondtriangles.svg	stimuli_target_trianglesquares.svg	30	yes	stereocheck_right	1	376	6	6	antiphase_hc_ois.wav	3	4	6	noise_calib_stim_RIGHT.wav	2	1				0	
6.6.1	win	2023-07-09	14:58:06	15:09:37	688336	60fd006a5893cbce502dffd4	4	1	stereocheck_testphase	18	stereocheck_test_collectResponse	15	stimuli_distractor_diamondtriangles.svg	stimuli_target_trianglesquares.svg	30	yes	stereocheck_right	1	382	6	6	antiphase_hc_ois.wav	3	5	4	noise_calib_stim_RIGHT.wav	2	1				0	
6.6.1	win	2023-07-09	14:58:06	15:09:37	688336	60fd006a5893cbce502dffd4	4	1	stereocheck_testphase	18	stereocheck_test_collectResponse	18	stimuli_distractor_diamondtriangles.svg	stimuli_target_trianglesquares.svg	30	yes	stereocheck_left	1	350	6	6	antiphase_hc_ois.wav	3	6	2	noise_calib_stim_LEFT.wav	1	1				0	
6.6.1	win	2023-07-09	14:58:06	15:09:37	688336	60fd006a5893cbce502dffd4	4	1	DL_practice	21	DL_practice	2	stimuli_distractor_diamondtriangles.svg	stimuli_target_trianglesquares.svg	30	yes	da	1	1421	6	6	antiphase_hc_ois.wav	3	6	2	noise_calib_stim_LEFT.wav	1	8	blb_dichoticlistening_da-da.mp3	da	da	0	left
6.6.1	win	2023-07-09	14:58:06	15:09:37	688336	60fd006a5893cbce502dffd4	4	1	DL_practice	21	DL_practice	3	stimuli_distractor_diamondtriangles.svg	stimuli_target_trianglesquares.svg	30	yes	ka	1	1099	6	6	antiphase_hc_ois.wav	3	6	2	noise_calib_stim_LEFT.wav	1	22	blb_dichoticlistening_ka-ka.mp3	ka	ka	0	left
6.6.1	win	2023-07-09	14:58:06	15:09:37	688336	60fd006a5893cbce502dffd4	4	1	DL_practice	21	DL_practice	4	stimuli_distractor_diamondtriangles.svg	stimuli_target_trianglesquares.svg	30	yes	ba	1	1845	6	6	antiphase_hc_ois.wav	3	6	2	noise_calib_stim_LEFT.wav	1	7	blb_dichoticlistening_da-ba.mp3	da	ba	1	right
6.6.1	win	2023-07-09	14:58:06	15:09:37	688336	60fd006a5893cbce502dffd4	4	1	DL_practice	21	DL_practice	5	stimuli_distractor_diamondtriangles.svg	stimuli_target_trianglesquares.svg	30	yes	ga	1	1169	6	6	antiphase_hc_ois.wav	3	6	2	noise_calib_stim_LEFT.wav	1	15	blb_dichoticlistening_ga-ga.mp3	ga	ga	0	left
6.6.1	win	2023-07-09	14:58:06	15:09:37	688336	60fd006a5893cbce502dffd4	4	1	DL_practice	21	DL_practice	6	stimuli_distractor_diamondtriangles.svg	stimuli_target_trianglesquares.svg	30	yes	ta	1	1802	6	6	antiphase_hc_ois.wav	3	6	2	noise_calib_stim_LEFT.wav	1	18	blb_dichoticlistening_ga-ta.mp3	ga	ta	1	right
6.6.1	win	2023-07-09	14:58:06	15:09:37	688336	60fd006a5893cbce502dffd4	4	1	DL_practice	21	DL_practice	7	stimuli_distractor_diamondtriangles.svg	stimuli_target_trianglesquares.svg	30	yes	ba	1	1684	6	6	antiphase_hc_ois.wav	3	6	2	noise_calib_stim_LEFT.wav	1	1	blb_dichoticlistening_ba-ba.mp3	ba	ba	0	left
6.6.1	win	2023-07-09	14:58:06	15:09:37	688336	60fd006a5893cbce502dffd4	4	1	DL_practice	21	DL_practice	8	stimuli_distractor_diamondtriangles.svg	stimuli_target_trianglesquares.svg	30	yes	pa	1	1260	6	6	antiphase_hc_ois.wav	3	6	2	noise_calib_stim_LEFT.wav	1	29	blb_dichoticlistening_pa-pa.mp3	pa	pa	0	left
6.6.1	win	2023-07-09	14:58:06	15:09:37	688336	60fd006a5893cbce502dffd4	4	1	DL_practice	21	DL_practice	9	stimuli_distractor_diamondtriangles.svg	stimuli_target_trianglesquares.svg	30	yes	pa	1	1175	6	6	antiphase_hc_ois.wav	3	6	2	noise_calib_stim_LEFT.wav	1	23	blb_dichoticlistening_ka-pa.mp3	ka	pa	1	right
6.6.1	win	2023-07-09	14:58:06	15:09:37	688336	60fd006a5893cbce502dffd4	4	1	DL_practice	21	DL_practice	10	stimuli_distractor_diamondtriangles.svg	stimuli_target_trianglesquares.svg	30	yes	ta	1	1543	6	6	antiphase_hc_ois.wav	3	6	2	noise_calib_stim_LEFT.wav	1	36	blb_dichoticlistening_ta-ta.mp3	ta	ta	0	left
6.6.1	win	2023-07-09	14:58:06	15:09:37	688336	60fd006a5893cbce502dffd4	4	1	DL_test	23	DL_test	1	stimuli_distractor_diamondtriangles.svg	stimuli_target_trianglesquares.svg	30	yes	da	0	1588	6	6	antiphase_hc_ois.wav	3	6	2	noise_calib_stim_LEFT.wav	1	33	blb_dichoticlistening_ta-ga.mp3	ta	ga	1	other
6.6.1	win	2023-07-09	14:58:06	15:09:37	688336	60fd006a5893cbce502dffd4	4	1	DL_test	23	DL_test	2	stimuli_distractor_diamondtriangles.svg	stimuli_target_trianglesquares.svg	30	yes	ta	1	2520	6	6	antiphase_hc_ois.wav	3	6	2	noise_calib_stim_LEFT.wav	1	31	blb_dichoticlistening_ta-ba.mp3	ta	ba	1	left
6.6.1	win	2023-07-09	14:58:06	15:09:37	688336	60fd006a5893cbce502dffd4	4	1	DL_test	23	DL_test	3	stimuli_distractor_diamondtriangles.svg	stimuli_target_trianglesquares.svg	30	yes	ba	1	1481	6	6	antiphase_hc_ois.wav	3	6	2	noise_calib_stim_LEFT.wav	1	2	blb_dichoticlistening_ba-da.mp3	ba	da	1	left
6.6.1	win	2023-07-09	14:58:06	15:09:37	688336	60fd006a5893cbce502dffd4	4	1	DL_test	23	DL_test	4	stimuli_distractor_diamondtriangles.svg	stimuli_target_trianglesquares.svg	30	yes	ta	1	1347	6	6	antiphase_hc_ois.wav	3	6	2	noise_calib_stim_LEFT.wav	1	24	blb_dichoticlistening_ka-ta.mp3	ka	ta	1	right
6.6.1	win	2023-07-09	14:58:06	15:09:37	688336	60fd006a5893cbce502dffd4	4	1	DL_test	23	DL_test	5	stimuli_distractor_diamondtriangles.svg	stimuli_target_trianglesquares.svg	30	yes	da	1	1181	6	6	antiphase_hc_ois.wav	3	6	2	noise_calib_stim_LEFT.wav	1	8	blb_dichoticlistening_da-da.mp3	da	da	0	left
6.6.1	win	2023-07-09	14:58:06	15:09:37	688336	60fd006a5893cbce502dffd4	4	1	DL_test	23	DL_test	6	stimuli_distractor_diamondtriangles.svg	stimuli_target_trianglesquares.svg	30	yes	pa	1	1542	6	6	antiphase_hc_ois.wav	3	6	2	noise_calib_stim_LEFT.wav	1	25	blb_dichoticlistening_pa-ba.mp3	pa	ba	1	left
6.6.1	win	2023-07-09	14:58:06	15:09:37	688336	60fd006a5893cbce502dffd4	4	1	DL_test	23	DL_test	7	stimuli_distractor_diamondtriangles.svg	stimuli_target_trianglesquares.svg	30	yes	da	1	1642	6	6	antiphase_hc_ois.wav	3	6	2	noise_calib_stim_LEFT.wav	1	7	blb_dichoticlistening_da-ba.mp3	da	ba	1	left
6.6.1	win	2023-07-09	14:58:06	15:09:37	688336	60fd006a5893cbce502dffd4	4	1	DL_test	23	DL_test	8	stimuli_distractor_diamondtriangles.svg	stimuli_target_trianglesquares.svg	30	yes	ta	1	1360	6	6	antiphase_hc_ois.wav	3	6	2	noise_calib_stim_LEFT.wav	1	30	blb_dichoticlistening_pa-ta.mp3	pa	ta	1	right
6.6.1	win	2023-07-09	14:58:06	15:09:37	688336	60fd006a5893cbce502dffd4	4	1	DL_test	23	DL_test	9	stimuli_distractor_diamondtriangles.svg	stimuli_target_trianglesquares.svg	30	yes	ka	1	1200	6	6	antiphase_hc_ois.wav	3	6	2	noise_calib_stim_LEFT.wav	1	34	blb_dichoticlistening_ta-ka.mp3	ta	ka	1	right
6.6.1	win	2023-07-09	14:58:06	15:09:37	688336	60fd006a5893cbce502dffd4	4	1	DL_test	23	DL_test	10	stimuli_distractor_diamondtriangles.svg	stimuli_target_trianglesquares.svg	30	yes	da	1	1112	6	6	antiphase_hc_ois.wav	3	6	2	noise_calib_stim_LEFT.wav	1	14	blb_dichoticlistening_ga-da.mp3	ga	da	1	right
6.6.1	win	2023-07-09	14:58:06	15:09:37	688336	60fd006a5893cbce502dffd4	4	1	DL_test	23	DL_test	11	stimuli_distractor_diamondtriangles.svg	stimuli_target_trianglesquares.svg	30	yes	pa	1	1703	6	6	antiphase_hc_ois.wav	3	6	2	noise_calib_stim_LEFT.wav	1	35	blb_dichoticlistening_ta-pa.mp3	ta	pa	1	right
6.6.1	win	2023-07-09	14:58:06	15:09:37	688336	60fd006a5893cbce502dffd4	4	1	DL_test	23	DL_test	12	stimuli_distractor_diamondtriangles.svg	stimuli_target_trianglesquares.svg	30	yes	ka	1	1158	6	6	antiphase_hc_ois.wav	3	6	2	noise_calib_stim_LEFT.wav	1	22	blb_dichoticlistening_ka-ka.mp3	ka	ka	0	left
6.6.1	win	2023-07-09	14:58:06	15:09:37	688336	60fd006a5893cbce502dffd4	4	1	DL_test	23	DL_test	13	stimuli_distractor_diamondtriangles.svg	stimuli_target_trianglesquares.svg	30	yes	da	1	1160	6	6	antiphase_hc_ois.wav	3	6	2	noise_calib_stim_LEFT.wav	1	9	blb_dichoticlistening_da-ga.mp3	da	ga	1	left
6.6.1	win	2023-07-09	14:58:06	15:09:37	688336	60fd006a5893cbce502dffd4	4	1	DL_test	23	DL_test	14	stimuli_distractor_diamondtriangles.svg	stimuli_target_trianglesquares.svg	30	yes	ka	0	1339	6	6	antiphase_hc_ois.wav	3	6	2	noise_calib_stim_LEFT.wav	1	18	blb_dichoticlistening_ga-ta.mp3	ga	ta	1	other
6.6.1	win	2023-07-09	14:58:06	15:09:37	688336	60fd006a5893cbce502dffd4	4	1	DL_test	23	DL_test	15	stimuli_distractor_diamondtriangles.svg	stimuli_target_trianglesquares.svg	30	yes	ka	1	2629	6	6	antiphase_hc_ois.wav	3	6	2	noise_calib_stim_LEFT.wav	1	4	blb_dichoticlistening_ba-ka.mp3	ba	ka	1	right
6.6.1	win	2023-07-09	14:58:06	15:09:37	688336	60fd006a5893cbce502dffd4	4	1	DL_test	23	DL_test	16	stimuli_distractor_diamondtriangles.svg	stimuli_target_trianglesquares.svg	30	yes	pa	1	1346	6	6	antiphase_hc_ois.wav	3	6	2	noise_calib_stim_LEFT.wav	1	5	blb_dichoticlistening_ba-pa.mp3	ba	pa	1	right
6.6.1	win	2023-07-09	14:58:06	15:09:37	688336	60fd006a5893cbce502dffd4	4	1	DL_test	23	DL_test	17	stimuli_distractor_diamondtriangles.svg	stimuli_target_trianglesquares.svg	30	yes	ba	1	1478	6	6	antiphase_hc_ois.wav	3	6	2	noise_calib_stim_LEFT.wav	1	3	blb_dichoticlistening_ba-ga.mp3	ba	ga	1	left
6.6.1	win	2023-07-09	14:58:06	15:09:37	688336	60fd006a5893cbce502dffd4	4	1	DL_test	23	DL_test	18	stimuli_distractor_diamondtriangles.svg	stimuli_target_trianglesquares.svg	30	yes	ta	1	1926	6	6	antiphase_hc_ois.wav	3	6	2	noise_calib_stim_LEFT.wav	1	12	blb_dichoticlistening_da-ta.mp3	da	ta	1	right
6.6.1	win	2023-07-09	14:58:06	15:09:37	688336	60fd006a5893cbce502dffd4	4	1	DL_test	23	DL_test	19	stimuli_distractor_diamondtriangles.svg	stimuli_target_trianglesquares.svg	30	yes	ga	0	2054	6	6	antiphase_hc_ois.wav	3	6	2	noise_calib_stim_LEFT.wav	1	19	blb_dichoticlistening_ka-ba.mp3	ka	ba	1	other
6.6.1	win	2023-07-09	14:58:06	15:09:37	688336	60fd006a5893cbce502dffd4	4	1	DL_test	23	DL_test	20	stimuli_distractor_diamondtriangles.svg	stimuli_target_trianglesquares.svg	30	yes	pa	1	1097	6	6	antiphase_hc_ois.wav	3	6	2	noise_calib_stim_LEFT.wav	1	26	blb_dichoticlistening_pa-da.mp3	pa	da	1	left
6.6.1	win	2023-07-09	14:58:06	15:09:37	688336	60fd006a5893cbce502dffd4	4	1	DL_test	23	DL_test	21	stimuli_distractor_diamondtriangles.svg	stimuli_target_trianglesquares.svg	30	yes	pa	1	1104	6	6	antiphase_hc_ois.wav	3	6	2	noise_calib_stim_LEFT.wav	1	29	blb_dichoticlistening_pa-pa.mp3	pa	pa	0	left
6.6.1	win	2023-07-09	14:58:06	15:09:37	688336	60fd006a5893cbce502dffd4	4	1	DL_test	23	DL_test	22	stimuli_distractor_diamondtriangles.svg	stimuli_target_trianglesquares.svg	30	yes	ta	1	1904	6	6	antiphase_hc_ois.wav	3	6	2	noise_calib_stim_LEFT.wav	1	6	blb_dichoticlistening_ba-ta.mp3	ba	ta	1	right
6.6.1	win	2023-07-09	14:58:06	15:09:37	688336	60fd006a5893cbce502dffd4	4	1	DL_test	23	DL_test	23	stimuli_distractor_diamondtriangles.svg	stimuli_target_trianglesquares.svg	30	yes	ta	1	1088	6	6	antiphase_hc_ois.wav	3	6	2	noise_calib_stim_LEFT.wav	1	36	blb_dichoticlistening_ta-ta.mp3	ta	ta	0	left
6.6.1	win	2023-07-09	14:58:06	15:09:37	688336	60fd006a5893cbce502dffd4	4	1	DL_test	23	DL_test	24	stimuli_distractor_diamondtriangles.svg	stimuli_target_trianglesquares.svg	30	yes	da	0	1261	6	6	antiphase_hc_ois.wav	3	6	2	noise_calib_stim_LEFT.wav	1	13	blb_dichoticlistening_ga-ba.mp3	ga	ba	1	other
6.6.1	win	2023-07-09	14:58:06	15:09:37	688336	60fd006a5893cbce502dffd4	4	1	DL_test	23	DL_test	25	stimuli_distractor_diamondtriangles.svg	stimuli_target_trianglesquares.svg	30	yes	da	1	1142	6	6	antiphase_hc_ois.wav	3	6	2	noise_calib_stim_LEFT.wav	1	32	blb_dichoticlistening_ta-da.mp3	ta	da	1	right
6.6.1	win	2023-07-09	14:58:06	15:09:37	688336	60fd006a5893cbce502dffd4	4	1	DL_test	23	DL_test	26	stimuli_distractor_diamondtriangles.svg	stimuli_target_trianglesquares.svg	30	yes	ta	0	1987	6	6	antiphase_hc_ois.wav	3	6	2	noise_calib_stim_LEFT.wav	1	27	blb_dichoticlistening_pa-ga.mp3	pa	ga	1	other
