build	computer.platform	date	time	timestamp	time_elapsed_ms	subject	group	session	blockcode	blocknum	trialcode	trialnum	stimulus_left	stimulus_right	stim_index	target_present	response	correct	latency	headphonecheck_countTestTrials	headphonecheck_index	headphonecheck_testSound	headphonecheck_correctResponse	stereocheck_countTestTrials	stereocheck_index	stereocheck_testSound	stereocheck_correctResponse	DL_index	DL_soundfile	DL_leftSound	DL_rightSound	DL_dualSound	DL_choice
6.6.1	win	2023-07-10	14:08:38	14:12:49	246578	5638d3a544e8c8000ee869a2	3	1	practice_slash	5	practice_slash	1	stimuli_distractor_diamondtriangles.svg	stimuli_target_diamondrectangles.svg	8	yes	53	1	1355	0	0			0	0			1				0	
6.6.1	win	2023-07-10	14:08:38	14:12:49	246578	5638d3a544e8c8000ee869a2	3	1	practice_slash	5	advance_on_keypress_SLASH	2	stimuli_distractor_diamondtriangles.svg	stimuli_target_diamondrectangles.svg	8	yes	57	0	2489	0	0			0	0			1				0	
6.6.1	win	2023-07-10	14:08:38	14:12:53	251250	5638d3a544e8c8000ee869a2	3	1	practice_slash	5	practice_slash	3	stimuli_target_diamondsquares.svg	stimuli_distractor_trianglediamonds.svg	6	yes	53	1	543	0	0			0	0			1				0	
6.6.1	win	2023-07-10	14:08:38	14:12:53	251250	5638d3a544e8c8000ee869a2	3	1	practice_slash	5	advance_on_keypress_SLASH	4	stimuli_target_diamondsquares.svg	stimuli_distractor_trianglediamonds.svg	6	yes	57	0	726	0	0			0	0			1				0	
6.6.1	win	2023-07-10	14:08:38	14:12:56	254157	5638d3a544e8c8000ee869a2	3	1	practice_slash	5	practice_slash	5	stimuli_target_squarediamonds.svg	stimuli_distractor_diamondtriangles.svg	2	yes	53	1	535	0	0			0	0			1				0	
6.6.1	win	2023-07-10	14:08:38	14:12:56	254157	5638d3a544e8c8000ee869a2	3	1	practice_slash	5	advance_on_keypress_SLASH	6	stimuli_target_squarediamonds.svg	stimuli_distractor_diamondtriangles.svg	2	yes	57	0	466	0	0			0	0			1				0	
6.6.1	win	2023-07-10	14:08:38	14:13:00	258289	5638d3a544e8c8000ee869a2	3	1	practice_slash	5	practice_slash	7	stimuli_distractor_trianglediamonds.svg	stimuli_distractor_trianglediamonds.svg	15	no	0	1	2000	0	0			0	0			1				0	
6.6.1	win	2023-07-10	14:08:38	14:13:00	258289	5638d3a544e8c8000ee869a2	3	1	practice_slash	5	advance_on_keypress_SLASH	8	stimuli_distractor_trianglediamonds.svg	stimuli_distractor_trianglediamonds.svg	15	no	57	0	452	0	0			0	0			1				0	
6.6.1	win	2023-07-10	14:08:38	14:13:03	260854	5638d3a544e8c8000ee869a2	3	1	practice_slash	5	practice_slash	9	stimuli_target_squarediamonds.svg	stimuli_distractor_trianglediamonds.svg	5	yes	53	1	465	0	0			0	0			1				0	
6.6.1	win	2023-07-10	14:08:38	14:13:03	260854	5638d3a544e8c8000ee869a2	3	1	practice_slash	5	advance_on_keypress_SLASH	10	stimuli_target_squarediamonds.svg	stimuli_distractor_trianglediamonds.svg	5	yes	57	0	658	0	0			0	0			1				0	
6.6.1	win	2023-07-10	14:08:38	14:13:06	263670	5638d3a544e8c8000ee869a2	3	1	practice_slash	5	practice_slash	11	stimuli_distractor_diamondtriangles.svg	stimuli_target_rectangletriangles.svg	7	yes	53	1	505	0	0			0	0			1				0	
6.6.1	win	2023-07-10	14:08:38	14:13:06	263670	5638d3a544e8c8000ee869a2	3	1	practice_slash	5	advance_on_keypress_SLASH	12	stimuli_distractor_diamondtriangles.svg	stimuli_target_rectangletriangles.svg	7	yes	57	0	453	0	0			0	0			1				0	
6.6.1	win	2023-07-10	14:08:38	14:13:10	267772	5638d3a544e8c8000ee869a2	3	1	practice_slash	5	practice_slash	13	stimuli_target_diamondsquares.svg	stimuli_distractor_diamondtriangles.svg	3	yes	0	0	2000	0	0			0	0			1				0	
6.6.1	win	2023-07-10	14:08:38	14:13:10	267772	5638d3a544e8c8000ee869a2	3	1	practice_slash	5	advance_on_keypress_SLASH	14	stimuli_target_diamondsquares.svg	stimuli_distractor_diamondtriangles.svg	3	yes	57	0	374	0	0			0	0			1				0	
6.6.1	win	2023-07-10	14:08:38	14:13:12	270274	5638d3a544e8c8000ee869a2	3	1	practice_slash	5	practice_slash	15	stimuli_target_rectanglediamonds.svg	stimuli_distractor_diamondtriangles.svg	1	yes	53	1	486	0	0			0	0			1				0	
6.6.1	win	2023-07-10	14:08:38	14:13:12	270274	5638d3a544e8c8000ee869a2	3	1	practice_slash	5	advance_on_keypress_SLASH	16	stimuli_target_rectanglediamonds.svg	stimuli_distractor_diamondtriangles.svg	1	yes	57	0	362	0	0			0	0			1				0	
6.6.1	win	2023-07-10	14:08:38	14:13:16	274288	5638d3a544e8c8000ee869a2	3	1	practice_slash	5	practice_slash	17	stimuli_distractor_diamondtriangles.svg	stimuli_distractor_diamondtriangles.svg	13	no	0	1	2000	0	0			0	0			1				0	
6.6.1	win	2023-07-10	14:08:38	14:13:16	274288	5638d3a544e8c8000ee869a2	3	1	practice_slash	5	advance_on_keypress_SLASH	18	stimuli_distractor_diamondtriangles.svg	stimuli_distractor_diamondtriangles.svg	13	no	57	0	25	0	0			0	0			1				0	
6.6.1	win	2023-07-10	14:08:38	14:13:19	276461	5638d3a544e8c8000ee869a2	3	1	practice_slash	5	practice_slash	19	stimuli_distractor_trianglediamonds.svg	stimuli_target_squarediamonds.svg	11	yes	53	1	472	0	0			0	0			1				0	
6.6.1	win	2023-07-10	14:08:38	14:13:19	276461	5638d3a544e8c8000ee869a2	3	1	practice_slash	5	advance_on_keypress_SLASH	20	stimuli_distractor_trianglediamonds.svg	stimuli_target_squarediamonds.svg	11	yes	57	0	303	0	0			0	0			1				0	
6.6.1	win	2023-07-10	14:08:38	14:13:21	278933	5638d3a544e8c8000ee869a2	3	1	practice_slash	5	practice_slash	21	stimuli_distractor_trianglediamonds.svg	stimuli_distractor_diamondtriangles.svg	16	no	53	0	528	0	0			0	0			1				0	
6.6.1	win	2023-07-10	14:08:38	14:13:21	278933	5638d3a544e8c8000ee869a2	3	1	practice_slash	5	advance_on_keypress_SLASH	22	stimuli_distractor_trianglediamonds.svg	stimuli_distractor_diamondtriangles.svg	16	no	57	0	398	0	0			0	0			1				0	
6.6.1	win	2023-07-10	14:08:38	14:13:25	282988	5638d3a544e8c8000ee869a2	3	1	practice_slash	5	practice_slash	23	stimuli_distractor_diamondtriangles.svg	stimuli_distractor_trianglediamonds.svg	14	no	0	1	2000	0	0			0	0			1				0	
6.6.1	win	2023-07-10	14:08:38	14:13:25	282988	5638d3a544e8c8000ee869a2	3	1	practice_slash	5	advance_on_keypress_SLASH	24	stimuli_distractor_diamondtriangles.svg	stimuli_distractor_trianglediamonds.svg	14	no	57	0	462	0	0			0	0			1				0	
6.6.1	win	2023-07-10	14:08:38	14:13:28	285509	5638d3a544e8c8000ee869a2	3	1	practice_slash	5	practice_slash	25	stimuli_distractor_trianglediamonds.svg	stimuli_target_rectanglediamonds.svg	10	yes	53	1	406	0	0			0	0			1				0	
6.6.1	win	2023-07-10	14:08:38	14:13:28	285509	5638d3a544e8c8000ee869a2	3	1	practice_slash	5	advance_on_keypress_SLASH	26	stimuli_distractor_trianglediamonds.svg	stimuli_target_rectanglediamonds.svg	10	yes	57	0	404	0	0			0	0			1				0	
6.6.1	win	2023-07-10	14:08:38	14:13:30	288113	5638d3a544e8c8000ee869a2	3	1	practice_slash	5	practice_slash	27	stimuli_target_rectanglediamonds.svg	stimuli_distractor_trianglediamonds.svg	4	yes	53	1	560	0	0			0	0			1				0	
6.6.1	win	2023-07-10	14:08:38	14:13:30	288113	5638d3a544e8c8000ee869a2	3	1	practice_slash	5	advance_on_keypress_SLASH	28	stimuli_target_rectanglediamonds.svg	stimuli_distractor_trianglediamonds.svg	4	yes	57	0	385	0	0			0	0			1				0	
6.6.1	win	2023-07-10	14:08:38	14:13:34	292137	5638d3a544e8c8000ee869a2	3	1	practice_slash	5	practice_slash	29	stimuli_distractor_diamondtriangles.svg	stimuli_target_trianglerectangles.svg	9	yes	0	0	2000	0	0			0	0			1				0	
6.6.1	win	2023-07-10	14:08:38	14:13:34	292137	5638d3a544e8c8000ee869a2	3	1	practice_slash	5	advance_on_keypress_SLASH	30	stimuli_distractor_diamondtriangles.svg	stimuli_target_trianglerectangles.svg	9	yes	57	0	268	0	0			0	0			1				0	
6.6.1	win	2023-07-10	14:08:38	14:13:37	295026	5638d3a544e8c8000ee869a2	3	1	practice_slash	5	practice_slash	31	stimuli_distractor_trianglediamonds.svg	stimuli_target_diamondrectangles.svg	12	yes	53	1	972	0	0			0	0			1				0	
6.6.1	win	2023-07-10	14:08:38	14:13:37	295026	5638d3a544e8c8000ee869a2	3	1	practice_slash	5	advance_on_keypress_SLASH	32	stimuli_distractor_trianglediamonds.svg	stimuli_target_diamondrectangles.svg	12	yes	57	0	253	0	0			0	0			1				0	
6.6.1	win	2023-07-10	14:08:38	14:13:55	312706	5638d3a544e8c8000ee869a2	3	1	main_slash	7	main_slash	1	stimuli_distractor_diamondtriangles.svg	stimuli_target_trianglesquares.svg	30	yes	53	1	489	0	0			0	0			1				0	
6.6.1	win	2023-07-10	14:08:38	14:13:55	312706	5638d3a544e8c8000ee869a2	3	1	main_slash	7	advance_on_keypress_SLASH	2	stimuli_distractor_diamondtriangles.svg	stimuli_target_trianglesquares.svg	30	yes	57	0	677	0	0			0	0			1				0	
6.6.1	win	2023-07-10	14:08:38	14:13:57	314543	5638d3a544e8c8000ee869a2	3	1	main_slash	7	main_slash	3	stimuli_target_diamondrectangles.svg	stimuli_distractor_trianglediamonds.svg	19	yes	53	1	525	0	0			0	0			1				0	
6.6.1	win	2023-07-10	14:08:38	14:13:57	314543	5638d3a544e8c8000ee869a2	3	1	main_slash	7	advance_on_keypress_SLASH	4	stimuli_target_diamondrectangles.svg	stimuli_distractor_trianglediamonds.svg	19	yes	57	0	467	0	0			0	0			1				0	
6.6.1	win	2023-07-10	14:08:38	14:13:58	316188	5638d3a544e8c8000ee869a2	3	1	main_slash	7	main_slash	5	stimuli_distractor_trianglediamonds.svg	stimuli_target_trianglerectangles.svg	25	yes	53	1	538	0	0			0	0			1				0	
6.6.1	win	2023-07-10	14:08:38	14:13:58	316188	5638d3a544e8c8000ee869a2	3	1	main_slash	7	advance_on_keypress_SLASH	6	stimuli_distractor_trianglediamonds.svg	stimuli_target_trianglerectangles.svg	25	yes	57	0	435	0	0			0	0			1				0	
6.6.1	win	2023-07-10	14:08:38	14:14:00	317839	5638d3a544e8c8000ee869a2	3	1	main_slash	7	main_slash	7	stimuli_distractor_diamondtriangles.svg	stimuli_target_squaretriangles.svg	15	yes	53	1	571	0	0			0	0			1				0	
6.6.1	win	2023-07-10	14:08:38	14:14:00	317839	5638d3a544e8c8000ee869a2	3	1	main_slash	7	advance_on_keypress_SLASH	8	stimuli_distractor_diamondtriangles.svg	stimuli_target_squaretriangles.svg	15	yes	57	0	424	0	0			0	0			1				0	
6.6.1	win	2023-07-10	14:08:38	14:14:01	319388	5638d3a544e8c8000ee869a2	3	1	main_slash	7	main_slash	9	stimuli_distractor_trianglediamonds.svg	stimuli_target_squarediamonds.svg	12	yes	53	1	487	0	0			0	0			1				0	
6.6.1	win	2023-07-10	14:08:38	14:14:01	319388	5638d3a544e8c8000ee869a2	3	1	main_slash	7	advance_on_keypress_SLASH	10	stimuli_distractor_trianglediamonds.svg	stimuli_target_squarediamonds.svg	12	yes	57	0	443	0	0			0	0			1				0	
6.6.1	win	2023-07-10	14:08:38	14:14:03	321375	5638d3a544e8c8000ee869a2	3	1	main_slash	7	main_slash	11	stimuli_target_trianglesquares.svg	stimuli_distractor_trianglediamonds.svg	18	yes	53	1	908	0	0			0	0			1				0	
6.6.1	win	2023-07-10	14:08:38	14:14:03	321375	5638d3a544e8c8000ee869a2	3	1	main_slash	7	advance_on_keypress_SLASH	12	stimuli_target_trianglesquares.svg	stimuli_distractor_trianglediamonds.svg	18	yes	57	0	604	0	0			0	0			1				0	
6.6.1	win	2023-07-10	14:08:38	14:14:05	323188	5638d3a544e8c8000ee869a2	3	1	main_slash	7	main_slash	13	stimuli_distractor_diamondtriangles.svg	stimuli_target_trianglerectangles.svg	29	yes	53	1	566	0	0			0	0			1				0	
6.6.1	win	2023-07-10	14:08:38	14:14:05	323188	5638d3a544e8c8000ee869a2	3	1	main_slash	7	advance_on_keypress_SLASH	14	stimuli_distractor_diamondtriangles.svg	stimuli_target_trianglerectangles.svg	29	yes	57	0	435	0	0			0	0			1				0	
6.6.1	win	2023-07-10	14:08:38	14:14:08	326267	5638d3a544e8c8000ee869a2	3	1	main_slash	7	main_slash	15	stimuli_distractor_trianglediamonds.svg	stimuli_distractor_trianglediamonds.svg	34	no	0	1	2000	0	0			0	0			1				0	
6.6.1	win	2023-07-10	14:08:38	14:14:08	326267	5638d3a544e8c8000ee869a2	3	1	main_slash	7	advance_on_keypress_SLASH	16	stimuli_distractor_trianglediamonds.svg	stimuli_distractor_trianglediamonds.svg	34	no	57	0	360	0	0			0	0			1				0	
6.6.1	win	2023-07-10	14:08:38	14:14:10	327648	5638d3a544e8c8000ee869a2	3	1	main_slash	7	main_slash	17	stimuli_distractor_diamondtriangles.svg	stimuli_target_rectanglediamonds.svg	14	yes	53	1	381	0	0			0	0			1				0	
6.6.1	win	2023-07-10	14:08:38	14:14:10	327648	5638d3a544e8c8000ee869a2	3	1	main_slash	7	advance_on_keypress_SLASH	18	stimuli_distractor_diamondtriangles.svg	stimuli_target_rectanglediamonds.svg	14	yes	57	0	409	0	0			0	0			1				0	
6.6.1	win	2023-07-10	14:08:38	14:14:13	330701	5638d3a544e8c8000ee869a2	3	1	main_slash	7	main_slash	19	stimuli_distractor_diamondtriangles.svg	stimuli_distractor_diamondtriangles.svg	40	no	0	1	2000	0	0			0	0			1				0	
6.6.1	win	2023-07-10	14:08:38	14:14:13	330701	5638d3a544e8c8000ee869a2	3	1	main_slash	7	advance_on_keypress_SLASH	20	stimuli_distractor_diamondtriangles.svg	stimuli_distractor_diamondtriangles.svg	40	no	57	0	291	0	0			0	0			1				0	
6.6.1	win	2023-07-10	14:08:38	14:14:14	332149	5638d3a544e8c8000ee869a2	3	1	main_slash	7	main_slash	21	stimuli_target_rectangletriangles.svg	stimuli_distractor_trianglediamonds.svg	1	yes	53	1	506	0	0			0	0			1				0	
6.6.1	win	2023-07-10	14:08:38	14:14:14	332149	5638d3a544e8c8000ee869a2	3	1	main_slash	7	advance_on_keypress_SLASH	22	stimuli_target_rectangletriangles.svg	stimuli_distractor_trianglediamonds.svg	1	yes	57	0	461	0	0			0	0			1				0	
6.6.1	win	2023-07-10	14:08:38	14:14:16	334351	5638d3a544e8c8000ee869a2	3	1	main_slash	7	main_slash	23	stimuli_target_trianglerectangles.svg	stimuli_distractor_trianglediamonds.svg	17	yes	53	1	1102	0	0			0	0			1				0	
6.6.1	win	2023-07-10	14:08:38	14:14:16	334351	5638d3a544e8c8000ee869a2	3	1	main_slash	7	advance_on_keypress_SLASH	24	stimuli_target_trianglerectangles.svg	stimuli_distractor_trianglediamonds.svg	17	yes	57	0	389	0	0			0	0			1				0	
6.6.1	win	2023-07-10	14:08:38	14:14:19	336899	5638d3a544e8c8000ee869a2	3	1	main_slash	7	main_slash	25	stimuli_distractor_trianglediamonds.svg	stimuli_target_diamondrectangles.svg	27	yes	53	1	1516	0	0			0	0			1				0	
6.6.1	win	2023-07-10	14:08:38	14:14:19	336899	5638d3a544e8c8000ee869a2	3	1	main_slash	7	advance_on_keypress_SLASH	26	stimuli_distractor_trianglediamonds.svg	stimuli_target_diamondrectangles.svg	27	yes	57	0	303	0	0			0	0			1				0	
6.6.1	win	2023-07-10	14:08:38	14:14:21	338735	5638d3a544e8c8000ee869a2	3	1	main_slash	7	main_slash	27	stimuli_target_diamondsquares.svg	stimuli_distractor_diamondtriangles.svg	24	yes	53	1	886	0	0			0	0			1				0	
6.6.1	win	2023-07-10	14:08:38	14:14:21	338735	5638d3a544e8c8000ee869a2	3	1	main_slash	7	advance_on_keypress_SLASH	28	stimuli_target_diamondsquares.svg	stimuli_distractor_diamondtriangles.svg	24	yes	57	0	358	0	0			0	0			1				0	
6.6.1	win	2023-07-10	14:08:38	14:14:23	340540	5638d3a544e8c8000ee869a2	3	1	main_slash	7	main_slash	29	stimuli_target_rectanglediamonds.svg	stimuli_distractor_trianglediamonds.svg	2	yes	53	1	806	0	0			0	0			1				0	
6.6.1	win	2023-07-10	14:08:38	14:14:23	340540	5638d3a544e8c8000ee869a2	3	1	main_slash	7	advance_on_keypress_SLASH	30	stimuli_target_rectanglediamonds.svg	stimuli_distractor_trianglediamonds.svg	2	yes	57	0	302	0	0			0	0			1				0	
6.6.1	win	2023-07-10	14:08:38	14:14:24	342027	5638d3a544e8c8000ee869a2	3	1	main_slash	7	main_slash	31	stimuli_distractor_trianglediamonds.svg	stimuli_target_trianglesquares.svg	26	yes	53	1	543	0	0			0	0			1				0	
6.6.1	win	2023-07-10	14:08:38	14:14:24	342027	5638d3a544e8c8000ee869a2	3	1	main_slash	7	advance_on_keypress_SLASH	32	stimuli_distractor_trianglediamonds.svg	stimuli_target_trianglesquares.svg	26	yes	57	0	226	0	0			0	0			1				0	
6.6.1	win	2023-07-10	14:08:38	14:14:26	343659	5638d3a544e8c8000ee869a2	3	1	main_slash	7	main_slash	33	stimuli_target_trianglerectangles.svg	stimuli_distractor_diamondtriangles.svg	21	yes	53	1	776	0	0			0	0			1				0	
6.6.1	win	2023-07-10	14:08:38	14:14:26	343659	5638d3a544e8c8000ee869a2	3	1	main_slash	7	advance_on_keypress_SLASH	34	stimuli_target_trianglerectangles.svg	stimuli_distractor_diamondtriangles.svg	21	yes	57	0	349	0	0			0	0			1				0	
6.6.1	win	2023-07-10	14:08:38	14:14:29	346650	5638d3a544e8c8000ee869a2	3	1	main_slash	7	main_slash	35	stimuli_distractor_diamondtriangles.svg	stimuli_distractor_trianglediamonds.svg	37	no	0	1	2000	0	0			0	0			1				0	
6.6.1	win	2023-07-10	14:08:38	14:14:29	346650	5638d3a544e8c8000ee869a2	3	1	main_slash	7	advance_on_keypress_SLASH	36	stimuli_distractor_diamondtriangles.svg	stimuli_distractor_trianglediamonds.svg	37	no	57	0	281	0	0			0	0			1				0	
6.6.1	win	2023-07-10	14:08:38	14:14:32	349583	5638d3a544e8c8000ee869a2	3	1	main_slash	7	main_slash	37	stimuli_distractor_diamondtriangles.svg	stimuli_distractor_trianglediamonds.svg	38	no	0	1	2000	0	0			0	0			1				0	
6.6.1	win	2023-07-10	14:08:38	14:14:32	349583	5638d3a544e8c8000ee869a2	3	1	main_slash	7	advance_on_keypress_SLASH	38	stimuli_distractor_diamondtriangles.svg	stimuli_distractor_trianglediamonds.svg	38	no	57	0	256	0	0			0	0			1				0	
6.6.1	win	2023-07-10	14:08:38	14:14:33	351014	5638d3a544e8c8000ee869a2	3	1	main_slash	7	main_slash	39	stimuli_distractor_trianglediamonds.svg	stimuli_target_rectanglediamonds.svg	10	yes	53	1	508	0	0			0	0			1				0	
6.6.1	win	2023-07-10	14:08:38	14:14:33	351014	5638d3a544e8c8000ee869a2	3	1	main_slash	7	advance_on_keypress_SLASH	40	stimuli_distractor_trianglediamonds.svg	stimuli_target_rectanglediamonds.svg	10	yes	57	0	327	0	0			0	0			1				0	
6.6.1	win	2023-07-10	14:08:38	14:14:34	352348	5638d3a544e8c8000ee869a2	3	1	main_slash	7	main_slash	41	stimuli_distractor_diamondtriangles.svg	stimuli_target_rectangletriangles.svg	13	yes	53	1	365	0	0			0	0			1				0	
6.6.1	win	2023-07-10	14:08:38	14:14:34	352348	5638d3a544e8c8000ee869a2	3	1	main_slash	7	advance_on_keypress_SLASH	42	stimuli_distractor_diamondtriangles.svg	stimuli_target_rectangletriangles.svg	13	yes	57	0	226	0	0			0	0			1				0	
6.6.1	win	2023-07-10	14:08:38	14:14:36	353611	5638d3a544e8c8000ee869a2	3	1	main_slash	7	main_slash	43	stimuli_target_squaretriangles.svg	stimuli_distractor_diamondtriangles.svg	7	yes	53	1	396	0	0			0	0			1				0	
6.6.1	win	2023-07-10	14:08:38	14:14:36	353611	5638d3a544e8c8000ee869a2	3	1	main_slash	7	advance_on_keypress_SLASH	44	stimuli_target_squaretriangles.svg	stimuli_distractor_diamondtriangles.svg	7	yes	57	0	227	0	0			0	0			1				0	
6.6.1	win	2023-07-10	14:08:38	14:14:37	354859	5638d3a544e8c8000ee869a2	3	1	main_slash	7	main_slash	45	stimuli_target_squaretriangles.svg	stimuli_distractor_trianglediamonds.svg	3	yes	53	1	394	0	0			0	0			1				0	
6.6.1	win	2023-07-10	14:08:38	14:14:37	354859	5638d3a544e8c8000ee869a2	3	1	main_slash	7	advance_on_keypress_SLASH	46	stimuli_target_squaretriangles.svg	stimuli_distractor_trianglediamonds.svg	3	yes	57	0	230	0	0			0	0			1				0	
6.6.1	win	2023-07-10	14:08:38	14:14:38	356071	5638d3a544e8c8000ee869a2	3	1	main_slash	7	main_slash	47	stimuli_distractor_trianglediamonds.svg	stimuli_target_squaretriangles.svg	11	yes	53	1	339	0	0			0	0			1				0	
6.6.1	win	2023-07-10	14:08:38	14:14:38	356071	5638d3a544e8c8000ee869a2	3	1	main_slash	7	advance_on_keypress_SLASH	48	stimuli_distractor_trianglediamonds.svg	stimuli_target_squaretriangles.svg	11	yes	57	0	205	0	0			0	0			1				0	
6.6.1	win	2023-07-10	14:08:38	14:14:39	357391	5638d3a544e8c8000ee869a2	3	1	main_slash	7	main_slash	49	stimuli_target_rectangletriangles.svg	stimuli_distractor_diamondtriangles.svg	5	yes	53	1	476	0	0			0	0			1				0	
6.6.1	win	2023-07-10	14:08:38	14:14:39	357391	5638d3a544e8c8000ee869a2	3	1	main_slash	7	advance_on_keypress_SLASH	50	stimuli_target_rectangletriangles.svg	stimuli_distractor_diamondtriangles.svg	5	yes	57	0	263	0	0			0	0			1				0	
6.6.1	win	2023-07-10	14:08:38	14:14:41	358795	5638d3a544e8c8000ee869a2	3	1	main_slash	7	main_slash	51	stimuli_target_diamondsquares.svg	stimuli_distractor_trianglediamonds.svg	20	yes	53	1	496	0	0			0	0			1				0	
6.6.1	win	2023-07-10	14:08:38	14:14:41	358795	5638d3a544e8c8000ee869a2	3	1	main_slash	7	advance_on_keypress_SLASH	52	stimuli_target_diamondsquares.svg	stimuli_distractor_trianglediamonds.svg	20	yes	57	0	360	0	0			0	0			1				0	
6.6.1	win	2023-07-10	14:08:38	14:14:44	361799	5638d3a544e8c8000ee869a2	3	1	main_slash	7	main_slash	53	stimuli_distractor_trianglediamonds.svg	stimuli_distractor_diamondtriangles.svg	35	no	0	1	2000	0	0			0	0			1				0	
6.6.1	win	2023-07-10	14:08:38	14:14:44	361799	5638d3a544e8c8000ee869a2	3	1	main_slash	7	advance_on_keypress_SLASH	54	stimuli_distractor_trianglediamonds.svg	stimuli_distractor_diamondtriangles.svg	35	no	57	0	400	0	0			0	0			1				0	
6.6.1	win	2023-07-10	14:08:38	14:14:46	363667	5638d3a544e8c8000ee869a2	3	1	main_slash	7	main_slash	55	stimuli_distractor_diamondtriangles.svg	stimuli_target_diamondrectangles.svg	31	yes	53	1	815	0	0			0	0			1				0	
6.6.1	win	2023-07-10	14:08:38	14:14:46	363667	5638d3a544e8c8000ee869a2	3	1	main_slash	7	advance_on_keypress_SLASH	56	stimuli_distractor_diamondtriangles.svg	stimuli_target_diamondrectangles.svg	31	yes	57	0	281	0	0			0	0			1				0	
6.6.1	win	2023-07-10	14:08:38	14:14:47	365048	5638d3a544e8c8000ee869a2	3	1	main_slash	7	main_slash	57	stimuli_target_rectanglediamonds.svg	stimuli_distractor_diamondtriangles.svg	6	yes	53	1	449	0	0			0	0			1				0	
6.6.1	win	2023-07-10	14:08:38	14:14:47	365048	5638d3a544e8c8000ee869a2	3	1	main_slash	7	advance_on_keypress_SLASH	58	stimuli_target_rectanglediamonds.svg	stimuli_distractor_diamondtriangles.svg	6	yes	57	0	158	0	0			0	0			1				0	
6.6.1	win	2023-07-10	14:08:38	14:14:48	366195	5638d3a544e8c8000ee869a2	3	1	main_slash	7	main_slash	59	stimuli_target_squarediamonds.svg	stimuli_distractor_diamondtriangles.svg	8	yes	53	1	347	0	0			0	0			1				0	
6.6.1	win	2023-07-10	14:08:38	14:14:48	366195	5638d3a544e8c8000ee869a2	3	1	main_slash	7	advance_on_keypress_SLASH	60	stimuli_target_squarediamonds.svg	stimuli_distractor_diamondtriangles.svg	8	yes	57	0	136	0	0			0	0			1				0	
6.6.1	win	2023-07-10	14:08:38	14:14:49	367371	5638d3a544e8c8000ee869a2	3	1	main_slash	7	main_slash	61	stimuli_target_diamondrectangles.svg	stimuli_distractor_diamondtriangles.svg	23	yes	53	1	389	0	0			0	0			1				0	
6.6.1	win	2023-07-10	14:08:38	14:14:49	367371	5638d3a544e8c8000ee869a2	3	1	main_slash	7	advance_on_keypress_SLASH	62	stimuli_target_diamondrectangles.svg	stimuli_distractor_diamondtriangles.svg	23	yes	57	0	170	0	0			0	0			1				0	
6.6.1	win	2023-07-10	14:08:38	14:14:52	370182	5638d3a544e8c8000ee869a2	3	1	main_slash	7	main_slash	63	stimuli_distractor_diamondtriangles.svg	stimuli_distractor_diamondtriangles.svg	39	no	0	1	2000	0	0			0	0			1				0	
6.6.1	win	2023-07-10	14:08:38	14:14:52	370182	5638d3a544e8c8000ee869a2	3	1	main_slash	7	advance_on_keypress_SLASH	64	stimuli_distractor_diamondtriangles.svg	stimuli_distractor_diamondtriangles.svg	39	no	57	0	561	0	0			0	0			1				0	
6.6.1	win	2023-07-10	14:08:38	14:14:54	371820	5638d3a544e8c8000ee869a2	3	1	main_slash	7	main_slash	65	stimuli_distractor_trianglediamonds.svg	stimuli_target_diamondsquares.svg	28	yes	53	1	438	0	0			0	0			1				0	
6.6.1	win	2023-07-10	14:08:38	14:14:54	371820	5638d3a544e8c8000ee869a2	3	1	main_slash	7	advance_on_keypress_SLASH	66	stimuli_distractor_trianglediamonds.svg	stimuli_target_diamondsquares.svg	28	yes	57	0	196	0	0			0	0			1				0	
6.6.1	win	2023-07-10	14:08:38	14:14:55	373046	5638d3a544e8c8000ee869a2	3	1	main_slash	7	main_slash	67	stimuli_distractor_diamondtriangles.svg	stimuli_target_squarediamonds.svg	16	yes	53	1	369	0	0			0	0			1				0	
6.6.1	win	2023-07-10	14:08:38	14:14:55	373046	5638d3a544e8c8000ee869a2	3	1	main_slash	7	advance_on_keypress_SLASH	68	stimuli_distractor_diamondtriangles.svg	stimuli_target_squarediamonds.svg	16	yes	57	0	138	0	0			0	0			1				0	
6.6.1	win	2023-07-10	14:08:38	14:14:56	374291	5638d3a544e8c8000ee869a2	3	1	main_slash	7	main_slash	69	stimuli_distractor_trianglediamonds.svg	stimuli_target_rectangletriangles.svg	9	yes	53	1	459	0	0			0	0			1				0	
6.6.1	win	2023-07-10	14:08:38	14:14:56	374291	5638d3a544e8c8000ee869a2	3	1	main_slash	7	advance_on_keypress_SLASH	70	stimuli_distractor_trianglediamonds.svg	stimuli_target_rectangletriangles.svg	9	yes	57	0	155	0	0			0	0			1				0	
6.6.1	win	2023-07-10	14:08:38	14:14:58	375407	5638d3a544e8c8000ee869a2	3	1	main_slash	7	main_slash	71	stimuli_target_trianglesquares.svg	stimuli_distractor_diamondtriangles.svg	22	yes	53	1	326	0	0			0	0			1				0	
6.6.1	win	2023-07-10	14:08:38	14:14:58	375407	5638d3a544e8c8000ee869a2	3	1	main_slash	7	advance_on_keypress_SLASH	72	stimuli_target_trianglesquares.svg	stimuli_distractor_diamondtriangles.svg	22	yes	57	0	216	0	0			0	0			1				0	
6.6.1	win	2023-07-10	14:08:38	14:14:59	376928	5638d3a544e8c8000ee869a2	3	1	main_slash	7	main_slash	73	stimuli_distractor_diamondtriangles.svg	stimuli_target_diamondsquares.svg	32	yes	53	1	663	0	0			0	0			1				0	
6.6.1	win	2023-07-10	14:08:38	14:14:59	376928	5638d3a544e8c8000ee869a2	3	1	main_slash	7	advance_on_keypress_SLASH	74	stimuli_distractor_diamondtriangles.svg	stimuli_target_diamondsquares.svg	32	yes	57	0	174	0	0			0	0			1				0	
6.6.1	win	2023-07-10	14:08:38	14:15:01	378452	5638d3a544e8c8000ee869a2	3	1	main_slash	7	main_slash	75	stimuli_distractor_trianglediamonds.svg	stimuli_distractor_diamondtriangles.svg	36	no	53	0	703	0	0			0	0			1				0	
6.6.1	win	2023-07-10	14:08:38	14:15:01	378452	5638d3a544e8c8000ee869a2	3	1	main_slash	7	advance_on_keypress_SLASH	76	stimuli_distractor_trianglediamonds.svg	stimuli_distractor_diamondtriangles.svg	36	no	57	0	222	0	0			0	0			1				0	
6.6.1	win	2023-07-10	14:08:38	14:15:03	381315	5638d3a544e8c8000ee869a2	3	1	main_slash	7	main_slash	77	stimuli_distractor_trianglediamonds.svg	stimuli_distractor_trianglediamonds.svg	33	no	0	1	2000	0	0			0	0			1				0	
6.6.1	win	2023-07-10	14:08:38	14:15:03	381315	5638d3a544e8c8000ee869a2	3	1	main_slash	7	advance_on_keypress_SLASH	78	stimuli_distractor_trianglediamonds.svg	stimuli_distractor_trianglediamonds.svg	33	no	57	0	388	0	0			0	0			1				0	
6.6.1	win	2023-07-10	14:08:38	14:15:05	382823	5638d3a544e8c8000ee869a2	3	1	main_slash	7	main_slash	79	stimuli_target_squarediamonds.svg	stimuli_distractor_trianglediamonds.svg	4	yes	53	1	475	0	0			0	0			1				0	
6.6.1	win	2023-07-10	14:08:38	14:15:05	382823	5638d3a544e8c8000ee869a2	3	1	main_slash	7	advance_on_keypress_SLASH	80	stimuli_target_squarediamonds.svg	stimuli_distractor_trianglediamonds.svg	4	yes	57	0	224	0	0			0	0			1				0	
6.6.1	win	2023-07-10	14:08:38	14:15:06	384311	5638d3a544e8c8000ee869a2	3	1	main_slash	7	main_slash	81	stimuli_target_diamondrectangles.svg	stimuli_distractor_diamondtriangles.svg	23	yes	53	1	630	0	0			0	0			1				0	
6.6.1	win	2023-07-10	14:08:38	14:15:06	384311	5638d3a544e8c8000ee869a2	3	1	main_slash	7	advance_on_keypress_SLASH	82	stimuli_target_diamondrectangles.svg	stimuli_distractor_diamondtriangles.svg	23	yes	57	0	199	0	0			0	0			1				0	
6.6.1	win	2023-07-10	14:08:38	14:15:08	385888	5638d3a544e8c8000ee869a2	3	1	main_slash	7	main_slash	83	stimuli_distractor_diamondtriangles.svg	stimuli_distractor_trianglediamonds.svg	38	no	53	0	723	0	0			0	0			1				0	
6.6.1	win	2023-07-10	14:08:38	14:15:08	385888	5638d3a544e8c8000ee869a2	3	1	main_slash	7	advance_on_keypress_SLASH	84	stimuli_distractor_diamondtriangles.svg	stimuli_distractor_trianglediamonds.svg	38	no	57	0	230	0	0			0	0			1				0	
6.6.1	win	2023-07-10	14:08:38	14:15:09	387263	5638d3a544e8c8000ee869a2	3	1	main_slash	7	main_slash	85	stimuli_target_rectanglediamonds.svg	stimuli_distractor_diamondtriangles.svg	6	yes	53	1	498	0	0			0	0			1				0	
6.6.1	win	2023-07-10	14:08:38	14:15:09	387263	5638d3a544e8c8000ee869a2	3	1	main_slash	7	advance_on_keypress_SLASH	86	stimuli_target_rectanglediamonds.svg	stimuli_distractor_diamondtriangles.svg	6	yes	57	0	198	0	0			0	0			1				0	
6.6.1	win	2023-07-10	14:08:38	14:15:11	388636	5638d3a544e8c8000ee869a2	3	1	main_slash	7	main_slash	87	stimuli_distractor_trianglediamonds.svg	stimuli_target_diamondsquares.svg	28	yes	53	1	521	0	0			0	0			1				0	
6.6.1	win	2023-07-10	14:08:38	14:15:11	388636	5638d3a544e8c8000ee869a2	3	1	main_slash	7	advance_on_keypress_SLASH	88	stimuli_distractor_trianglediamonds.svg	stimuli_target_diamondsquares.svg	28	yes	57	0	195	0	0			0	0			1				0	
6.6.1	win	2023-07-10	14:08:38	14:15:12	389907	5638d3a544e8c8000ee869a2	3	1	main_slash	7	main_slash	89	stimuli_distractor_diamondtriangles.svg	stimuli_target_diamondrectangles.svg	31	yes	53	1	443	0	0			0	0			1				0	
6.6.1	win	2023-07-10	14:08:38	14:15:12	389907	5638d3a544e8c8000ee869a2	3	1	main_slash	7	advance_on_keypress_SLASH	90	stimuli_distractor_diamondtriangles.svg	stimuli_target_diamondrectangles.svg	31	yes	57	0	181	0	0			0	0			1				0	
6.6.1	win	2023-07-10	14:08:38	14:15:13	391340	5638d3a544e8c8000ee869a2	3	1	main_slash	7	main_slash	91	stimuli_target_trianglesquares.svg	stimuli_distractor_diamondtriangles.svg	22	yes	53	1	608	0	0			0	0			1				0	
6.6.1	win	2023-07-10	14:08:38	14:15:13	391340	5638d3a544e8c8000ee869a2	3	1	main_slash	7	advance_on_keypress_SLASH	92	stimuli_target_trianglesquares.svg	stimuli_distractor_diamondtriangles.svg	22	yes	57	0	272	0	0			0	0			1				0	
6.6.1	win	2023-07-10	14:08:38	14:15:15	392928	5638d3a544e8c8000ee869a2	3	1	main_slash	7	main_slash	93	stimuli_target_trianglerectangles.svg	stimuli_distractor_diamondtriangles.svg	21	yes	53	1	680	0	0			0	0			1				0	
6.6.1	win	2023-07-10	14:08:38	14:15:15	392928	5638d3a544e8c8000ee869a2	3	1	main_slash	7	advance_on_keypress_SLASH	94	stimuli_target_trianglerectangles.svg	stimuli_distractor_diamondtriangles.svg	21	yes	57	0	203	0	0			0	0			1				0	
6.6.1	win	2023-07-10	14:08:38	14:15:18	395782	5638d3a544e8c8000ee869a2	3	1	main_slash	7	main_slash	95	stimuli_distractor_trianglediamonds.svg	stimuli_target_squaretriangles.svg	11	yes	0	0	2000	0	0			0	0			1				0	
6.6.1	win	2023-07-10	14:08:38	14:15:18	395782	5638d3a544e8c8000ee869a2	3	1	main_slash	7	advance_on_keypress_SLASH	96	stimuli_distractor_trianglediamonds.svg	stimuli_target_squaretriangles.svg	11	yes	57	0	430	0	0			0	0			1				0	
6.6.1	win	2023-07-10	14:08:38	14:15:21	398867	5638d3a544e8c8000ee869a2	3	1	main_slash	7	main_slash	97	stimuli_distractor_diamondtriangles.svg	stimuli_distractor_diamondtriangles.svg	39	no	0	1	2000	0	0			0	0			1				0	
6.6.1	win	2023-07-10	14:08:38	14:15:21	398867	5638d3a544e8c8000ee869a2	3	1	main_slash	7	advance_on_keypress_SLASH	98	stimuli_distractor_diamondtriangles.svg	stimuli_distractor_diamondtriangles.svg	39	no	57	0	279	0	0			0	0			1				0	
6.6.1	win	2023-07-10	14:08:38	14:15:22	400304	5638d3a544e8c8000ee869a2	3	1	main_slash	7	main_slash	99	stimuli_distractor_trianglediamonds.svg	stimuli_target_squarediamonds.svg	12	yes	53	1	523	0	0			0	0			1				0	
6.6.1	win	2023-07-10	14:08:38	14:15:22	400304	5638d3a544e8c8000ee869a2	3	1	main_slash	7	advance_on_keypress_SLASH	100	stimuli_distractor_trianglediamonds.svg	stimuli_target_squarediamonds.svg	12	yes	57	0	225	0	0			0	0			1				0	
6.6.1	win	2023-07-10	14:08:38	14:15:24	401560	5638d3a544e8c8000ee869a2	3	1	main_slash	7	main_slash	101	stimuli_target_rectanglediamonds.svg	stimuli_distractor_trianglediamonds.svg	2	yes	53	1	396	0	0			0	0			1				0	
6.6.1	win	2023-07-10	14:08:38	14:15:24	401560	5638d3a544e8c8000ee869a2	3	1	main_slash	7	advance_on_keypress_SLASH	102	stimuli_target_rectanglediamonds.svg	stimuli_distractor_trianglediamonds.svg	2	yes	57	0	215	0	0			0	0			1				0	
6.6.1	win	2023-07-10	14:08:38	14:15:25	403220	5638d3a544e8c8000ee869a2	3	1	main_slash	7	main_slash	103	stimuli_distractor_trianglediamonds.svg	stimuli_target_trianglerectangles.svg	25	yes	53	1	789	0	0			0	0			1				0	
6.6.1	win	2023-07-10	14:08:38	14:15:25	403220	5638d3a544e8c8000ee869a2	3	1	main_slash	7	advance_on_keypress_SLASH	104	stimuli_distractor_trianglediamonds.svg	stimuli_target_trianglerectangles.svg	25	yes	57	0	157	0	0			0	0			1				0	
6.6.1	win	2023-07-10	14:08:38	14:15:27	404615	5638d3a544e8c8000ee869a2	3	1	main_slash	7	main_slash	105	stimuli_distractor_trianglediamonds.svg	stimuli_target_rectangletriangles.svg	9	yes	53	1	601	0	0			0	0			1				0	
6.6.1	win	2023-07-10	14:08:38	14:15:27	404615	5638d3a544e8c8000ee869a2	3	1	main_slash	7	advance_on_keypress_SLASH	106	stimuli_distractor_trianglediamonds.svg	stimuli_target_rectangletriangles.svg	9	yes	57	0	145	0	0			0	0			1				0	
6.6.1	win	2023-07-10	14:08:38	14:15:28	405801	5638d3a544e8c8000ee869a2	3	1	main_slash	7	main_slash	107	stimuli_distractor_diamondtriangles.svg	stimuli_target_trianglerectangles.svg	29	yes	53	1	382	0	0			0	0			1				0	
6.6.1	win	2023-07-10	14:08:38	14:15:28	405801	5638d3a544e8c8000ee869a2	3	1	main_slash	7	advance_on_keypress_SLASH	108	stimuli_distractor_diamondtriangles.svg	stimuli_target_trianglerectangles.svg	29	yes	57	0	170	0	0			0	0			1				0	
6.6.1	win	2023-07-10	14:08:38	14:15:30	408319	5638d3a544e8c8000ee869a2	3	1	main_slash	7	main_slash	109	stimuli_target_squaretriangles.svg	stimuli_distractor_trianglediamonds.svg	3	yes	53	1	1706	0	0			0	0			1				0	
6.6.1	win	2023-07-10	14:08:38	14:15:30	408319	5638d3a544e8c8000ee869a2	3	1	main_slash	7	advance_on_keypress_SLASH	110	stimuli_target_squaretriangles.svg	stimuli_distractor_trianglediamonds.svg	3	yes	57	0	233	0	0			0	0			1				0	
6.6.1	win	2023-07-10	14:08:38	14:15:33	411197	5638d3a544e8c8000ee869a2	3	1	main_slash	7	main_slash	111	stimuli_distractor_diamondtriangles.svg	stimuli_distractor_diamondtriangles.svg	40	no	0	1	2000	0	0			0	0			1				0	
6.6.1	win	2023-07-10	14:08:38	14:15:33	411197	5638d3a544e8c8000ee869a2	3	1	main_slash	7	advance_on_keypress_SLASH	112	stimuli_distractor_diamondtriangles.svg	stimuli_distractor_diamondtriangles.svg	40	no	57	0	278	0	0			0	0			1				0	
6.6.1	win	2023-07-10	14:08:38	14:15:35	412515	5638d3a544e8c8000ee869a2	3	1	main_slash	7	main_slash	113	stimuli_distractor_diamondtriangles.svg	stimuli_target_rectanglediamonds.svg	14	yes	53	1	402	0	0			0	0			1				0	
6.6.1	win	2023-07-10	14:08:38	14:15:35	412515	5638d3a544e8c8000ee869a2	3	1	main_slash	7	advance_on_keypress_SLASH	114	stimuli_distractor_diamondtriangles.svg	stimuli_target_rectanglediamonds.svg	14	yes	57	0	197	0	0			0	0			1				0	
6.6.1	win	2023-07-10	14:08:38	14:15:36	413795	5638d3a544e8c8000ee869a2	3	1	main_slash	7	main_slash	115	stimuli_target_diamondsquares.svg	stimuli_distractor_diamondtriangles.svg	24	yes	53	1	432	0	0			0	0			1				0	
6.6.1	win	2023-07-10	14:08:38	14:15:36	413795	5638d3a544e8c8000ee869a2	3	1	main_slash	7	advance_on_keypress_SLASH	116	stimuli_target_diamondsquares.svg	stimuli_distractor_diamondtriangles.svg	24	yes	57	0	134	0	0			0	0			1				0	
6.6.1	win	2023-07-10	14:08:38	14:15:37	414940	5638d3a544e8c8000ee869a2	3	1	main_slash	7	main_slash	117	stimuli_distractor_trianglediamonds.svg	stimuli_target_trianglesquares.svg	26	yes	53	1	359	0	0			0	0			1				0	
6.6.1	win	2023-07-10	14:08:38	14:15:37	414940	5638d3a544e8c8000ee869a2	3	1	main_slash	7	advance_on_keypress_SLASH	118	stimuli_distractor_trianglediamonds.svg	stimuli_target_trianglesquares.svg	26	yes	57	0	153	0	0			0	0			1				0	
6.6.1	win	2023-07-10	14:08:38	14:15:38	416064	5638d3a544e8c8000ee869a2	3	1	main_slash	7	main_slash	119	stimuli_distractor_trianglediamonds.svg	stimuli_distractor_diamondtriangles.svg	35	no	53	0	333	0	0			0	0			1				0	
6.6.1	win	2023-07-10	14:08:38	14:15:38	416064	5638d3a544e8c8000ee869a2	3	1	main_slash	7	advance_on_keypress_SLASH	120	stimuli_distractor_trianglediamonds.svg	stimuli_distractor_diamondtriangles.svg	35	no	57	0	1083	0	0			0	0			1				0	
6.6.1	win	2023-07-10	14:08:38	14:15:40	418196	5638d3a544e8c8000ee869a2	3	1	main_slash	7	main_slash	121	stimuli_distractor_trianglediamonds.svg	stimuli_target_rectanglediamonds.svg	10	yes	53	1	399	0	0			0	0			1				0	
6.6.1	win	2023-07-10	14:08:38	14:15:40	418196	5638d3a544e8c8000ee869a2	3	1	main_slash	7	advance_on_keypress_SLASH	122	stimuli_distractor_trianglediamonds.svg	stimuli_target_rectanglediamonds.svg	10	yes	57	0	222	0	0			0	0			1				0	
6.6.1	win	2023-07-10	14:08:38	14:15:42	419495	5638d3a544e8c8000ee869a2	3	1	main_slash	7	main_slash	123	stimuli_target_diamondrectangles.svg	stimuli_distractor_trianglediamonds.svg	19	yes	53	1	431	0	0			0	0			1				0	
6.6.1	win	2023-07-10	14:08:38	14:15:42	419495	5638d3a544e8c8000ee869a2	3	1	main_slash	7	advance_on_keypress_SLASH	124	stimuli_target_diamondrectangles.svg	stimuli_distractor_trianglediamonds.svg	19	yes	57	0	897	0	0			0	0			1				0	
6.6.1	win	2023-07-10	14:08:38	14:15:44	421604	5638d3a544e8c8000ee869a2	3	1	main_slash	7	main_slash	125	stimuli_target_squaretriangles.svg	stimuli_distractor_diamondtriangles.svg	7	yes	53	1	557	0	0			0	0			1				0	
6.6.1	win	2023-07-10	14:08:38	14:15:44	421604	5638d3a544e8c8000ee869a2	3	1	main_slash	7	advance_on_keypress_SLASH	126	stimuli_target_squaretriangles.svg	stimuli_distractor_diamondtriangles.svg	7	yes	57	0	174	0	0			0	0			1				0	
6.6.1	win	2023-07-10	14:08:38	14:15:45	422975	5638d3a544e8c8000ee869a2	3	1	main_slash	7	main_slash	127	stimuli_distractor_trianglediamonds.svg	stimuli_distractor_trianglediamonds.svg	33	no	53	0	562	0	0			0	0			1				0	
6.6.1	win	2023-07-10	14:08:38	14:15:45	422975	5638d3a544e8c8000ee869a2	3	1	main_slash	7	advance_on_keypress_SLASH	128	stimuli_distractor_trianglediamonds.svg	stimuli_distractor_trianglediamonds.svg	33	no	57	0	331	0	0			0	0			1				0	
6.6.1	win	2023-07-10	14:08:38	14:15:47	424687	5638d3a544e8c8000ee869a2	3	1	main_slash	7	main_slash	129	stimuli_distractor_diamondtriangles.svg	stimuli_distractor_trianglediamonds.svg	37	no	53	0	741	0	0			0	0			1				0	
6.6.1	win	2023-07-10	14:08:38	14:15:47	424687	5638d3a544e8c8000ee869a2	3	1	main_slash	7	advance_on_keypress_SLASH	130	stimuli_distractor_diamondtriangles.svg	stimuli_distractor_trianglediamonds.svg	37	no	57	0	315	0	0			0	0			1				0	
6.6.1	win	2023-07-10	14:08:38	14:15:50	427647	5638d3a544e8c8000ee869a2	3	1	main_slash	7	main_slash	131	stimuli_distractor_trianglediamonds.svg	stimuli_distractor_diamondtriangles.svg	36	no	0	1	2000	0	0			0	0			1				0	
6.6.1	win	2023-07-10	14:08:38	14:15:50	427647	5638d3a544e8c8000ee869a2	3	1	main_slash	7	advance_on_keypress_SLASH	132	stimuli_distractor_trianglediamonds.svg	stimuli_distractor_diamondtriangles.svg	36	no	57	0	253	0	0			0	0			1				0	
6.6.1	win	2023-07-10	14:08:38	14:15:51	429008	5638d3a544e8c8000ee869a2	3	1	main_slash	7	main_slash	133	stimuli_distractor_diamondtriangles.svg	stimuli_target_trianglesquares.svg	30	yes	53	1	461	0	0			0	0			1				0	
6.6.1	win	2023-07-10	14:08:38	14:15:51	429008	5638d3a544e8c8000ee869a2	3	1	main_slash	7	advance_on_keypress_SLASH	134	stimuli_distractor_diamondtriangles.svg	stimuli_target_trianglesquares.svg	30	yes	57	0	174	0	0			0	0			1				0	
6.6.1	win	2023-07-10	14:08:38	14:15:52	430344	5638d3a544e8c8000ee869a2	3	1	main_slash	7	main_slash	135	stimuli_distractor_diamondtriangles.svg	stimuli_target_squaretriangles.svg	15	yes	53	1	531	0	0			0	0			1				0	
6.6.1	win	2023-07-10	14:08:38	14:15:52	430344	5638d3a544e8c8000ee869a2	3	1	main_slash	7	advance_on_keypress_SLASH	136	stimuli_distractor_diamondtriangles.svg	stimuli_target_squaretriangles.svg	15	yes	57	0	181	0	0			0	0			1				0	
6.6.1	win	2023-07-10	14:08:38	14:15:54	431747	5638d3a544e8c8000ee869a2	3	1	main_slash	7	main_slash	137	stimuli_distractor_trianglediamonds.svg	stimuli_target_diamondrectangles.svg	27	yes	53	1	568	0	0			0	0			1				0	
6.6.1	win	2023-07-10	14:08:38	14:15:54	431747	5638d3a544e8c8000ee869a2	3	1	main_slash	7	advance_on_keypress_SLASH	138	stimuli_distractor_trianglediamonds.svg	stimuli_target_diamondrectangles.svg	27	yes	57	0	229	0	0			0	0			1				0	
6.6.1	win	2023-07-10	14:08:38	14:15:55	433027	5638d3a544e8c8000ee869a2	3	1	main_slash	7	main_slash	139	stimuli_distractor_diamondtriangles.svg	stimuli_target_squarediamonds.svg	16	yes	53	1	415	0	0			0	0			1				0	
6.6.1	win	2023-07-10	14:08:38	14:15:55	433027	5638d3a544e8c8000ee869a2	3	1	main_slash	7	advance_on_keypress_SLASH	140	stimuli_distractor_diamondtriangles.svg	stimuli_target_squarediamonds.svg	16	yes	57	0	101	0	0			0	0			1				0	
6.6.1	win	2023-07-10	14:08:38	14:15:56	434199	5638d3a544e8c8000ee869a2	3	1	main_slash	7	main_slash	141	stimuli_target_squarediamonds.svg	stimuli_distractor_diamondtriangles.svg	8	yes	53	1	420	0	0			0	0			1				0	
6.6.1	win	2023-07-10	14:08:38	14:15:56	434199	5638d3a544e8c8000ee869a2	3	1	main_slash	7	advance_on_keypress_SLASH	142	stimuli_target_squarediamonds.svg	stimuli_distractor_diamondtriangles.svg	8	yes	57	0	111	0	0			0	0			1				0	
6.6.1	win	2023-07-10	14:08:38	14:15:57	435375	5638d3a544e8c8000ee869a2	3	1	main_slash	7	main_slash	143	stimuli_target_rectangletriangles.svg	stimuli_distractor_diamondtriangles.svg	5	yes	53	1	429	0	0			0	0			1				0	
6.6.1	win	2023-07-10	14:08:38	14:15:57	435375	5638d3a544e8c8000ee869a2	3	1	main_slash	7	advance_on_keypress_SLASH	144	stimuli_target_rectangletriangles.svg	stimuli_distractor_diamondtriangles.svg	5	yes	57	0	123	0	0			0	0			1				0	
6.6.1	win	2023-07-10	14:08:38	14:15:59	436480	5638d3a544e8c8000ee869a2	3	1	main_slash	7	main_slash	145	stimuli_distractor_diamondtriangles.svg	stimuli_target_rectangletriangles.svg	13	yes	53	1	350	0	0			0	0			1				0	
6.6.1	win	2023-07-10	14:08:38	14:15:59	436480	5638d3a544e8c8000ee869a2	3	1	main_slash	7	advance_on_keypress_SLASH	146	stimuli_distractor_diamondtriangles.svg	stimuli_target_rectangletriangles.svg	13	yes	57	0	87	0	0			0	0			1				0	
6.6.1	win	2023-07-10	14:08:38	14:16:00	437783	5638d3a544e8c8000ee869a2	3	1	main_slash	7	main_slash	147	stimuli_target_trianglesquares.svg	stimuli_distractor_trianglediamonds.svg	18	yes	53	1	571	0	0			0	0			1				0	
6.6.1	win	2023-07-10	14:08:38	14:16:00	437783	5638d3a544e8c8000ee869a2	3	1	main_slash	7	advance_on_keypress_SLASH	148	stimuli_target_trianglesquares.svg	stimuli_distractor_trianglediamonds.svg	18	yes	57	0	79	0	0			0	0			1				0	
6.6.1	win	2023-07-10	14:08:38	14:16:02	439647	5638d3a544e8c8000ee869a2	3	1	main_slash	7	main_slash	149	stimuli_target_diamondsquares.svg	stimuli_distractor_trianglediamonds.svg	20	yes	53	1	1152	0	0			0	0			1				0	
6.6.1	win	2023-07-10	14:08:38	14:16:02	439647	5638d3a544e8c8000ee869a2	3	1	main_slash	7	advance_on_keypress_SLASH	150	stimuli_target_diamondsquares.svg	stimuli_distractor_trianglediamonds.svg	20	yes	57	0	100	0	0			0	0			1				0	
6.6.1	win	2023-07-10	14:08:38	14:16:04	442268	5638d3a544e8c8000ee869a2	3	1	main_slash	7	main_slash	151	stimuli_distractor_trianglediamonds.svg	stimuli_distractor_trianglediamonds.svg	34	no	53	0	1872	0	0			0	0			1				0	
6.6.1	win	2023-07-10	14:08:38	14:16:04	442268	5638d3a544e8c8000ee869a2	3	1	main_slash	7	advance_on_keypress_SLASH	152	stimuli_distractor_trianglediamonds.svg	stimuli_distractor_trianglediamonds.svg	34	no	57	0	193	0	0			0	0			1				0	
6.6.1	win	2023-07-10	14:08:38	14:16:06	443663	5638d3a544e8c8000ee869a2	3	1	main_slash	7	main_slash	153	stimuli_distractor_diamondtriangles.svg	stimuli_target_diamondsquares.svg	32	yes	53	1	568	0	0			0	0			1				0	
6.6.1	win	2023-07-10	14:08:38	14:16:06	443663	5638d3a544e8c8000ee869a2	3	1	main_slash	7	advance_on_keypress_SLASH	154	stimuli_distractor_diamondtriangles.svg	stimuli_target_diamondsquares.svg	32	yes	57	0	133	0	0			0	0			1				0	
6.6.1	win	2023-07-10	14:08:38	14:16:07	444935	5638d3a544e8c8000ee869a2	3	1	main_slash	7	main_slash	155	stimuli_target_squarediamonds.svg	stimuli_distractor_trianglediamonds.svg	4	yes	53	1	486	0	0			0	0			1				0	
6.6.1	win	2023-07-10	14:08:38	14:16:07	444935	5638d3a544e8c8000ee869a2	3	1	main_slash	7	advance_on_keypress_SLASH	156	stimuli_target_squarediamonds.svg	stimuli_distractor_trianglediamonds.svg	4	yes	57	0	122	0	0			0	0			1				0	
6.6.1	win	2023-07-10	14:08:38	14:16:08	446156	5638d3a544e8c8000ee869a2	3	1	main_slash	7	main_slash	157	stimuli_target_trianglerectangles.svg	stimuli_distractor_trianglediamonds.svg	17	yes	53	1	456	0	0			0	0			1				0	
6.6.1	win	2023-07-10	14:08:38	14:16:08	446156	5638d3a544e8c8000ee869a2	3	1	main_slash	7	advance_on_keypress_SLASH	158	stimuli_target_trianglerectangles.svg	stimuli_distractor_trianglediamonds.svg	17	yes	57	0	296	0	0			0	0			1				0	
6.6.1	win	2023-07-10	14:08:38	14:16:10	447683	5638d3a544e8c8000ee869a2	3	1	main_slash	7	main_slash	159	stimuli_target_rectangletriangles.svg	stimuli_distractor_trianglediamonds.svg	1	yes	53	1	588	0	0			0	0			1				0	
6.6.1	win	2023-07-10	14:08:38	14:16:10	447683	5638d3a544e8c8000ee869a2	3	1	main_slash	7	advance_on_keypress_SLASH	160	stimuli_target_rectangletriangles.svg	stimuli_distractor_trianglediamonds.svg	1	yes	57	0	152	0	0			0	0			1				0	
6.6.1	win	2023-07-10	14:08:38	14:16:30	468181	5638d3a544e8c8000ee869a2	3	1	practice_z	9	practice_z	1	stimuli_distractor_diamondtriangles.svg	stimuli_distractor_trianglediamonds.svg	14	no	44	0	551	0	0			0	0			1				0	
6.6.1	win	2023-07-10	14:08:38	14:16:30	468181	5638d3a544e8c8000ee869a2	3	1	practice_z	9	advance_on_keypress_ZEE	2	stimuli_distractor_diamondtriangles.svg	stimuli_distractor_trianglediamonds.svg	14	no	57	0	641	0	0			0	0			1				0	
6.6.1	win	2023-07-10	14:08:38	14:16:33	470979	5638d3a544e8c8000ee869a2	3	1	practice_z	9	practice_z	3	stimuli_target_squarediamonds.svg	stimuli_distractor_trianglediamonds.svg	5	yes	44	1	500	0	0			0	0			1				0	
6.6.1	win	2023-07-10	14:08:38	14:16:33	470979	5638d3a544e8c8000ee869a2	3	1	practice_z	9	advance_on_keypress_ZEE	4	stimuli_target_squarediamonds.svg	stimuli_distractor_trianglediamonds.svg	5	yes	57	0	485	0	0			0	0			1				0	
6.6.1	win	2023-07-10	14:08:38	14:16:36	473569	5638d3a544e8c8000ee869a2	3	1	practice_z	9	practice_z	5	stimuli_distractor_trianglediamonds.svg	stimuli_target_rectanglediamonds.svg	10	yes	44	1	456	0	0			0	0			1				0	
6.6.1	win	2023-07-10	14:08:38	14:16:36	473569	5638d3a544e8c8000ee869a2	3	1	practice_z	9	advance_on_keypress_ZEE	6	stimuli_distractor_trianglediamonds.svg	stimuli_target_rectanglediamonds.svg	10	yes	57	0	306	0	0			0	0			1				0	
6.6.1	win	2023-07-10	14:08:38	14:16:40	477513	5638d3a544e8c8000ee869a2	3	1	practice_z	9	practice_z	7	stimuli_target_diamondsquares.svg	stimuli_distractor_trianglediamonds.svg	6	yes	0	0	2000	0	0			0	0			1				0	
6.6.1	win	2023-07-10	14:08:38	14:16:40	477513	5638d3a544e8c8000ee869a2	3	1	practice_z	9	advance_on_keypress_ZEE	8	stimuli_target_diamondsquares.svg	stimuli_distractor_trianglediamonds.svg	6	yes	57	0	488	0	0			0	0			1				0	
6.6.1	win	2023-07-10	14:08:38	14:16:42	480045	5638d3a544e8c8000ee869a2	3	1	practice_z	9	practice_z	9	stimuli_target_rectanglediamonds.svg	stimuli_distractor_trianglediamonds.svg	4	yes	44	1	395	0	0			0	0			1				0	
6.6.1	win	2023-07-10	14:08:38	14:16:42	480045	5638d3a544e8c8000ee869a2	3	1	practice_z	9	advance_on_keypress_ZEE	10	stimuli_target_rectanglediamonds.svg	stimuli_distractor_trianglediamonds.svg	4	yes	57	0	383	0	0			0	0			1				0	
6.6.1	win	2023-07-10	14:08:38	14:16:46	484080	5638d3a544e8c8000ee869a2	3	1	practice_z	9	practice_z	11	stimuli_distractor_diamondtriangles.svg	stimuli_distractor_diamondtriangles.svg	13	no	0	1	2000	0	0			0	0			1				0	
6.6.1	win	2023-07-10	14:08:38	14:16:46	484080	5638d3a544e8c8000ee869a2	3	1	practice_z	9	advance_on_keypress_ZEE	12	stimuli_distractor_diamondtriangles.svg	stimuli_distractor_diamondtriangles.svg	13	no	57	0	398	0	0			0	0			1				0	
6.6.1	win	2023-07-10	14:08:38	14:16:50	488130	5638d3a544e8c8000ee869a2	3	1	practice_z	9	practice_z	13	stimuli_distractor_trianglediamonds.svg	stimuli_distractor_trianglediamonds.svg	15	no	0	1	2000	0	0			0	0			1				0	
6.6.1	win	2023-07-10	14:08:38	14:16:50	488130	5638d3a544e8c8000ee869a2	3	1	practice_z	9	advance_on_keypress_ZEE	14	stimuli_distractor_trianglediamonds.svg	stimuli_distractor_trianglediamonds.svg	15	no	57	0	444	0	0			0	0			1				0	
6.6.1	win	2023-07-10	14:08:38	14:16:53	490727	5638d3a544e8c8000ee869a2	3	1	practice_z	9	practice_z	15	stimuli_target_squarediamonds.svg	stimuli_distractor_diamondtriangles.svg	2	yes	44	1	513	0	0			0	0			1				0	
6.6.1	win	2023-07-10	14:08:38	14:16:53	490727	5638d3a544e8c8000ee869a2	3	1	practice_z	9	advance_on_keypress_ZEE	16	stimuli_target_squarediamonds.svg	stimuli_distractor_diamondtriangles.svg	2	yes	57	0	356	0	0			0	0			1				0	
6.6.1	win	2023-07-10	14:08:38	14:16:55	493301	5638d3a544e8c8000ee869a2	3	1	practice_z	9	practice_z	17	stimuli_distractor_diamondtriangles.svg	stimuli_target_diamondrectangles.svg	8	yes	44	1	572	0	0			0	0			1				0	
6.6.1	win	2023-07-10	14:08:38	14:16:55	493301	5638d3a544e8c8000ee869a2	3	1	practice_z	9	advance_on_keypress_ZEE	18	stimuli_distractor_diamondtriangles.svg	stimuli_target_diamondrectangles.svg	8	yes	57	0	453	0	0			0	0			1				0	
6.6.1	win	2023-07-10	14:08:38	14:17:00	497396	5638d3a544e8c8000ee869a2	3	1	practice_z	9	practice_z	19	stimuli_distractor_trianglediamonds.svg	stimuli_distractor_diamondtriangles.svg	16	no	0	1	2000	0	0			0	0			1				0	
6.6.1	win	2023-07-10	14:08:38	14:17:00	497396	5638d3a544e8c8000ee869a2	3	1	practice_z	9	advance_on_keypress_ZEE	20	stimuli_distractor_trianglediamonds.svg	stimuli_distractor_diamondtriangles.svg	16	no	57	0	297	0	0			0	0			1				0	
6.6.1	win	2023-07-10	14:08:38	14:17:02	499823	5638d3a544e8c8000ee869a2	3	1	practice_z	9	practice_z	21	stimuli_distractor_diamondtriangles.svg	stimuli_target_trianglerectangles.svg	9	yes	44	1	476	0	0			0	0			1				0	
6.6.1	win	2023-07-10	14:08:38	14:17:02	499823	5638d3a544e8c8000ee869a2	3	1	practice_z	9	advance_on_keypress_ZEE	22	stimuli_distractor_diamondtriangles.svg	stimuli_target_trianglerectangles.svg	9	yes	57	0	376	0	0			0	0			1				0	
6.6.1	win	2023-07-10	14:08:38	14:17:04	502382	5638d3a544e8c8000ee869a2	3	1	practice_z	9	practice_z	23	stimuli_distractor_diamondtriangles.svg	stimuli_target_rectangletriangles.svg	7	yes	44	1	536	0	0			0	0			1				0	
6.6.1	win	2023-07-10	14:08:38	14:17:04	502382	5638d3a544e8c8000ee869a2	3	1	practice_z	9	advance_on_keypress_ZEE	24	stimuli_distractor_diamondtriangles.svg	stimuli_target_rectangletriangles.svg	7	yes	57	0	374	0	0			0	0			1				0	
6.6.1	win	2023-07-10	14:08:38	14:17:07	504829	5638d3a544e8c8000ee869a2	3	1	practice_z	9	practice_z	25	stimuli_distractor_trianglediamonds.svg	stimuli_target_squarediamonds.svg	11	yes	44	1	430	0	0			0	0			1				0	
6.6.1	win	2023-07-10	14:08:38	14:17:07	504829	5638d3a544e8c8000ee869a2	3	1	practice_z	9	advance_on_keypress_ZEE	26	stimuli_distractor_trianglediamonds.svg	stimuli_target_squarediamonds.svg	11	yes	57	0	360	0	0			0	0			1				0	
6.6.1	win	2023-07-10	14:08:38	14:17:09	507226	5638d3a544e8c8000ee869a2	3	1	practice_z	9	practice_z	27	stimuli_distractor_trianglediamonds.svg	stimuli_target_diamondrectangles.svg	12	yes	44	1	397	0	0			0	0			1				0	
6.6.1	win	2023-07-10	14:08:38	14:17:09	507226	5638d3a544e8c8000ee869a2	3	1	practice_z	9	advance_on_keypress_ZEE	28	stimuli_distractor_trianglediamonds.svg	stimuli_target_diamondrectangles.svg	12	yes	57	0	276	0	0			0	0			1				0	
6.6.1	win	2023-07-10	14:08:38	14:17:12	509557	5638d3a544e8c8000ee869a2	3	1	practice_z	9	practice_z	29	stimuli_target_rectanglediamonds.svg	stimuli_distractor_diamondtriangles.svg	1	yes	44	1	413	0	0			0	0			1				0	
6.6.1	win	2023-07-10	14:08:38	14:17:12	509557	5638d3a544e8c8000ee869a2	3	1	practice_z	9	advance_on_keypress_ZEE	30	stimuli_target_rectanglediamonds.svg	stimuli_distractor_diamondtriangles.svg	1	yes	57	0	275	0	0			0	0			1				0	
6.6.1	win	2023-07-10	14:08:38	14:17:14	512045	5638d3a544e8c8000ee869a2	3	1	practice_z	9	practice_z	31	stimuli_target_diamondsquares.svg	stimuli_distractor_diamondtriangles.svg	3	yes	44	1	567	0	0			0	0			1				0	
6.6.1	win	2023-07-10	14:08:38	14:17:14	512045	5638d3a544e8c8000ee869a2	3	1	practice_z	9	advance_on_keypress_ZEE	32	stimuli_target_diamondsquares.svg	stimuli_distractor_diamondtriangles.svg	3	yes	57	0	400	0	0			0	0			1				0	
6.6.1	win	2023-07-10	14:08:38	14:17:32	529727	5638d3a544e8c8000ee869a2	3	1	main_z	11	main_z	1	stimuli_distractor_diamondtriangles.svg	stimuli_target_rectanglediamonds.svg	14	yes	44	1	418	0	0			0	0			1				0	
6.6.1	win	2023-07-10	14:08:38	14:17:32	529727	5638d3a544e8c8000ee869a2	3	1	main_z	11	advance_on_keypress_ZEE	2	stimuli_distractor_diamondtriangles.svg	stimuli_target_rectanglediamonds.svg	14	yes	57	0	1137	0	0			0	0			1				0	
6.6.1	win	2023-07-10	14:08:38	14:17:34	531963	5638d3a544e8c8000ee869a2	3	1	main_z	11	main_z	3	stimuli_distractor_diamondtriangles.svg	stimuli_target_trianglesquares.svg	30	yes	44	1	455	0	0			0	0			1				0	
6.6.1	win	2023-07-10	14:08:38	14:17:34	531963	5638d3a544e8c8000ee869a2	3	1	main_z	11	advance_on_keypress_ZEE	4	stimuli_distractor_diamondtriangles.svg	stimuli_target_trianglesquares.svg	30	yes	57	0	448	0	0			0	0			1				0	
6.6.1	win	2023-07-10	14:08:38	14:17:36	533452	5638d3a544e8c8000ee869a2	3	1	main_z	11	main_z	5	stimuli_distractor_trianglediamonds.svg	stimuli_target_rectangletriangles.svg	9	yes	44	1	393	0	0			0	0			1				0	
6.6.1	win	2023-07-10	14:08:38	14:17:36	533452	5638d3a544e8c8000ee869a2	3	1	main_z	11	advance_on_keypress_ZEE	6	stimuli_distractor_trianglediamonds.svg	stimuli_target_rectangletriangles.svg	9	yes	57	0	269	0	0			0	0			1				0	
6.6.1	win	2023-07-10	14:08:38	14:17:37	534747	5638d3a544e8c8000ee869a2	3	1	main_z	11	main_z	7	stimuli_distractor_diamondtriangles.svg	stimuli_target_squaretriangles.svg	15	yes	44	1	389	0	0			0	0			1				0	
6.6.1	win	2023-07-10	14:08:38	14:17:37	534747	5638d3a544e8c8000ee869a2	3	1	main_z	11	advance_on_keypress_ZEE	8	stimuli_distractor_diamondtriangles.svg	stimuli_target_squaretriangles.svg	15	yes	57	0	257	0	0			0	0			1				0	
6.6.1	win	2023-07-10	14:08:38	14:17:40	537642	5638d3a544e8c8000ee869a2	3	1	main_z	11	main_z	9	stimuli_distractor_trianglediamonds.svg	stimuli_distractor_diamondtriangles.svg	36	no	0	1	2000	0	0			0	0			1				0	
6.6.1	win	2023-07-10	14:08:38	14:17:40	537642	5638d3a544e8c8000ee869a2	3	1	main_z	11	advance_on_keypress_ZEE	10	stimuli_distractor_trianglediamonds.svg	stimuli_distractor_diamondtriangles.svg	36	no	57	0	281	0	0			0	0			1				0	
6.6.1	win	2023-07-10	14:08:38	14:17:41	539096	5638d3a544e8c8000ee869a2	3	1	main_z	11	main_z	11	stimuli_distractor_trianglediamonds.svg	stimuli_target_squaretriangles.svg	11	yes	44	1	516	0	0			0	0			1				0	
6.6.1	win	2023-07-10	14:08:38	14:17:41	539096	5638d3a544e8c8000ee869a2	3	1	main_z	11	advance_on_keypress_ZEE	12	stimuli_distractor_trianglediamonds.svg	stimuli_target_squaretriangles.svg	11	yes	57	0	379	0	0			0	0			1				0	
6.6.1	win	2023-07-10	14:08:38	14:17:43	540527	5638d3a544e8c8000ee869a2	3	1	main_z	11	main_z	13	stimuli_target_trianglesquares.svg	stimuli_distractor_trianglediamonds.svg	18	yes	44	1	419	0	0			0	0			1				0	
6.6.1	win	2023-07-10	14:08:38	14:17:43	540527	5638d3a544e8c8000ee869a2	3	1	main_z	11	advance_on_keypress_ZEE	14	stimuli_target_trianglesquares.svg	stimuli_distractor_trianglediamonds.svg	18	yes	57	0	482	0	0			0	0			1				0	
6.6.1	win	2023-07-10	14:08:38	14:17:45	542492	5638d3a544e8c8000ee869a2	3	1	main_z	11	main_z	15	stimuli_target_squaretriangles.svg	stimuli_distractor_diamondtriangles.svg	7	yes	44	1	833	0	0			0	0			1				0	
6.6.1	win	2023-07-10	14:08:38	14:17:45	542492	5638d3a544e8c8000ee869a2	3	1	main_z	11	advance_on_keypress_ZEE	16	stimuli_target_squaretriangles.svg	stimuli_distractor_diamondtriangles.svg	7	yes	57	0	523	0	0			0	0			1				0	
6.6.1	win	2023-07-10	14:08:38	14:17:47	545187	5638d3a544e8c8000ee869a2	3	1	main_z	11	main_z	17	stimuli_distractor_trianglediamonds.svg	stimuli_target_trianglesquares.svg	26	yes	44	1	1529	0	0			0	0			1				0	
6.6.1	win	2023-07-10	14:08:38	14:17:47	545187	5638d3a544e8c8000ee869a2	3	1	main_z	11	advance_on_keypress_ZEE	18	stimuli_distractor_trianglediamonds.svg	stimuli_target_trianglesquares.svg	26	yes	57	0	379	0	0			0	0			1				0	
6.6.1	win	2023-07-10	14:08:38	14:17:49	546740	5638d3a544e8c8000ee869a2	3	1	main_z	11	main_z	19	stimuli_target_rectanglediamonds.svg	stimuli_distractor_diamondtriangles.svg	6	yes	44	1	531	0	0			0	0			1				0	
6.6.1	win	2023-07-10	14:08:38	14:17:49	546740	5638d3a544e8c8000ee869a2	3	1	main_z	11	advance_on_keypress_ZEE	20	stimuli_target_rectanglediamonds.svg	stimuli_distractor_diamondtriangles.svg	6	yes	57	0	205	0	0			0	0			1				0	
6.6.1	win	2023-07-10	14:08:38	14:17:52	549592	5638d3a544e8c8000ee869a2	3	1	main_z	11	main_z	21	stimuli_distractor_diamondtriangles.svg	stimuli_distractor_diamondtriangles.svg	39	no	0	1	2000	0	0			0	0			1				0	
6.6.1	win	2023-07-10	14:08:38	14:17:52	549592	5638d3a544e8c8000ee869a2	3	1	main_z	11	advance_on_keypress_ZEE	22	stimuli_distractor_diamondtriangles.svg	stimuli_distractor_diamondtriangles.svg	39	no	57	0	275	0	0			0	0			1				0	
6.6.1	win	2023-07-10	14:08:38	14:17:53	550900	5638d3a544e8c8000ee869a2	3	1	main_z	11	main_z	23	stimuli_target_squaretriangles.svg	stimuli_distractor_trianglediamonds.svg	3	yes	44	1	392	0	0			0	0			1				0	
6.6.1	win	2023-07-10	14:08:38	14:17:53	550900	5638d3a544e8c8000ee869a2	3	1	main_z	11	advance_on_keypress_ZEE	24	stimuli_target_squaretriangles.svg	stimuli_distractor_trianglediamonds.svg	3	yes	57	0	220	0	0			0	0			1				0	
6.6.1	win	2023-07-10	14:08:38	14:17:54	552256	5638d3a544e8c8000ee869a2	3	1	main_z	11	main_z	25	stimuli_target_rectanglediamonds.svg	stimuli_distractor_trianglediamonds.svg	2	yes	44	1	497	0	0			0	0			1				0	
6.6.1	win	2023-07-10	14:08:38	14:17:54	552256	5638d3a544e8c8000ee869a2	3	1	main_z	11	advance_on_keypress_ZEE	26	stimuli_target_rectanglediamonds.svg	stimuli_distractor_trianglediamonds.svg	2	yes	57	0	177	0	0			0	0			1				0	
6.6.1	win	2023-07-10	14:08:38	14:17:57	555075	5638d3a544e8c8000ee869a2	3	1	main_z	11	main_z	27	stimuli_target_diamondsquares.svg	stimuli_distractor_trianglediamonds.svg	20	yes	0	0	2000	0	0			0	0			1				0	
6.6.1	win	2023-07-10	14:08:38	14:17:57	555075	5638d3a544e8c8000ee869a2	3	1	main_z	11	advance_on_keypress_ZEE	28	stimuli_target_diamondsquares.svg	stimuli_distractor_trianglediamonds.svg	20	yes	57	0	280	0	0			0	0			1				0	
6.6.1	win	2023-07-10	14:08:38	14:17:59	557020	5638d3a544e8c8000ee869a2	3	1	main_z	11	main_z	29	stimuli_distractor_trianglediamonds.svg	stimuli_target_trianglerectangles.svg	25	yes	44	1	1012	0	0			0	0			1				0	
6.6.1	win	2023-07-10	14:08:38	14:17:59	557020	5638d3a544e8c8000ee869a2	3	1	main_z	11	advance_on_keypress_ZEE	30	stimuli_distractor_trianglediamonds.svg	stimuli_target_trianglerectangles.svg	25	yes	57	0	356	0	0			0	0			1				0	
6.6.1	win	2023-07-10	14:08:38	14:18:02	560008	5638d3a544e8c8000ee869a2	3	1	main_z	11	main_z	31	stimuli_target_diamondrectangles.svg	stimuli_distractor_diamondtriangles.svg	23	yes	0	0	2000	0	0			0	0			1				0	
6.6.1	win	2023-07-10	14:08:38	14:18:02	560008	5638d3a544e8c8000ee869a2	3	1	main_z	11	advance_on_keypress_ZEE	32	stimuli_target_diamondrectangles.svg	stimuli_distractor_diamondtriangles.svg	23	yes	57	0	443	0	0			0	0			1				0	
6.6.1	win	2023-07-10	14:08:38	14:18:04	561483	5638d3a544e8c8000ee869a2	3	1	main_z	11	main_z	33	stimuli_target_rectangletriangles.svg	stimuli_distractor_trianglediamonds.svg	1	yes	44	1	393	0	0			0	0			1				0	
6.6.1	win	2023-07-10	14:08:38	14:18:04	561483	5638d3a544e8c8000ee869a2	3	1	main_z	11	advance_on_keypress_ZEE	34	stimuli_target_rectangletriangles.svg	stimuli_distractor_trianglediamonds.svg	1	yes	57	0	221	0	0			0	0			1				0	
6.6.1	win	2023-07-10	14:08:38	14:18:05	562736	5638d3a544e8c8000ee869a2	3	1	main_z	11	main_z	35	stimuli_distractor_diamondtriangles.svg	stimuli_target_rectangletriangles.svg	13	yes	44	1	394	0	0			0	0			1				0	
6.6.1	win	2023-07-10	14:08:38	14:18:05	562736	5638d3a544e8c8000ee869a2	3	1	main_z	11	advance_on_keypress_ZEE	36	stimuli_distractor_diamondtriangles.svg	stimuli_target_rectangletriangles.svg	13	yes	57	0	167	0	0			0	0			1				0	
6.6.1	win	2023-07-10	14:08:38	14:18:06	564099	5638d3a544e8c8000ee869a2	3	1	main_z	11	main_z	37	stimuli_target_trianglesquares.svg	stimuli_distractor_diamondtriangles.svg	22	yes	44	1	559	0	0			0	0			1				0	
6.6.1	win	2023-07-10	14:08:38	14:18:06	564099	5638d3a544e8c8000ee869a2	3	1	main_z	11	advance_on_keypress_ZEE	38	stimuli_target_trianglesquares.svg	stimuli_distractor_diamondtriangles.svg	22	yes	57	0	220	0	0			0	0			1				0	
6.6.1	win	2023-07-10	14:08:38	14:18:08	565411	5638d3a544e8c8000ee869a2	3	1	main_z	11	main_z	39	stimuli_distractor_diamondtriangles.svg	stimuli_target_squarediamonds.svg	16	yes	44	1	454	0	0			0	0			1				0	
6.6.1	win	2023-07-10	14:08:38	14:18:08	565411	5638d3a544e8c8000ee869a2	3	1	main_z	11	advance_on_keypress_ZEE	40	stimuli_distractor_diamondtriangles.svg	stimuli_target_squarediamonds.svg	16	yes	57	0	191	0	0			0	0			1				0	
6.6.1	win	2023-07-10	14:08:38	14:18:10	568241	5638d3a544e8c8000ee869a2	3	1	main_z	11	main_z	41	stimuli_distractor_trianglediamonds.svg	stimuli_distractor_trianglediamonds.svg	34	no	0	1	2000	0	0			0	0			1				0	
6.6.1	win	2023-07-10	14:08:38	14:18:10	568241	5638d3a544e8c8000ee869a2	3	1	main_z	11	advance_on_keypress_ZEE	42	stimuli_distractor_trianglediamonds.svg	stimuli_distractor_trianglediamonds.svg	34	no	57	0	294	0	0			0	0			1				0	
6.6.1	win	2023-07-10	14:08:38	14:18:12	569660	5638d3a544e8c8000ee869a2	3	1	main_z	11	main_z	43	stimuli_target_diamondsquares.svg	stimuli_distractor_diamondtriangles.svg	24	yes	44	1	486	0	0			0	0			1				0	
6.6.1	win	2023-07-10	14:08:38	14:18:12	569660	5638d3a544e8c8000ee869a2	3	1	main_z	11	advance_on_keypress_ZEE	44	stimuli_target_diamondsquares.svg	stimuli_distractor_diamondtriangles.svg	24	yes	57	0	242	0	0			0	0			1				0	
6.6.1	win	2023-07-10	14:08:38	14:18:13	570943	5638d3a544e8c8000ee869a2	3	1	main_z	11	main_z	45	stimuli_distractor_trianglediamonds.svg	stimuli_target_rectanglediamonds.svg	10	yes	44	1	403	0	0			0	0			1				0	
6.6.1	win	2023-07-10	14:08:38	14:18:13	570943	5638d3a544e8c8000ee869a2	3	1	main_z	11	advance_on_keypress_ZEE	46	stimuli_distractor_trianglediamonds.svg	stimuli_target_rectanglediamonds.svg	10	yes	57	0	254	0	0			0	0			1				0	
6.6.1	win	2023-07-10	14:08:38	14:18:15	572415	5638d3a544e8c8000ee869a2	3	1	main_z	11	main_z	47	stimuli_target_trianglerectangles.svg	stimuli_distractor_diamondtriangles.svg	21	yes	44	1	575	0	0			0	0			1				0	
6.6.1	win	2023-07-10	14:08:38	14:18:15	572415	5638d3a544e8c8000ee869a2	3	1	main_z	11	advance_on_keypress_ZEE	48	stimuli_target_trianglerectangles.svg	stimuli_distractor_diamondtriangles.svg	21	yes	57	0	220	0	0			0	0			1				0	
6.6.1	win	2023-07-10	14:08:38	14:18:17	575274	5638d3a544e8c8000ee869a2	3	1	main_z	11	main_z	49	stimuli_target_trianglerectangles.svg	stimuli_distractor_trianglediamonds.svg	17	yes	0	0	2000	0	0			0	0			1				0	
6.6.1	win	2023-07-10	14:08:38	14:18:17	575274	5638d3a544e8c8000ee869a2	3	1	main_z	11	advance_on_keypress_ZEE	50	stimuli_target_trianglerectangles.svg	stimuli_distractor_trianglediamonds.svg	17	yes	57	0	321	0	0			0	0			1				0	
6.6.1	win	2023-07-10	14:08:38	14:18:20	578241	5638d3a544e8c8000ee869a2	3	1	main_z	11	main_z	51	stimuli_distractor_diamondtriangles.svg	stimuli_distractor_trianglediamonds.svg	37	no	0	1	2000	0	0			0	0			1				0	
6.6.1	win	2023-07-10	14:08:38	14:18:20	578241	5638d3a544e8c8000ee869a2	3	1	main_z	11	advance_on_keypress_ZEE	52	stimuli_distractor_diamondtriangles.svg	stimuli_distractor_trianglediamonds.svg	37	no	57	0	275	0	0			0	0			1				0	
6.6.1	win	2023-07-10	14:08:38	14:18:22	579619	5638d3a544e8c8000ee869a2	3	1	main_z	11	main_z	53	stimuli_distractor_diamondtriangles.svg	stimuli_target_trianglerectangles.svg	29	yes	44	1	459	0	0			0	0			1				0	
6.6.1	win	2023-07-10	14:08:38	14:18:22	579619	5638d3a544e8c8000ee869a2	3	1	main_z	11	advance_on_keypress_ZEE	54	stimuli_distractor_diamondtriangles.svg	stimuli_target_trianglerectangles.svg	29	yes	57	0	204	0	0			0	0			1				0	
6.6.1	win	2023-07-10	14:08:38	14:18:25	582460	5638d3a544e8c8000ee869a2	3	1	main_z	11	main_z	55	stimuli_distractor_diamondtriangles.svg	stimuli_distractor_diamondtriangles.svg	40	no	0	1	2000	0	0			0	0			1				0	
6.6.1	win	2023-07-10	14:08:38	14:18:25	582460	5638d3a544e8c8000ee869a2	3	1	main_z	11	advance_on_keypress_ZEE	56	stimuli_distractor_diamondtriangles.svg	stimuli_distractor_diamondtriangles.svg	40	no	57	0	238	0	0			0	0			1				0	
6.6.1	win	2023-07-10	14:08:38	14:18:26	583796	5638d3a544e8c8000ee869a2	3	1	main_z	11	main_z	57	stimuli_distractor_diamondtriangles.svg	stimuli_target_diamondsquares.svg	32	yes	44	1	456	0	0			0	0			1				0	
6.6.1	win	2023-07-10	14:08:38	14:18:26	583796	5638d3a544e8c8000ee869a2	3	1	main_z	11	advance_on_keypress_ZEE	58	stimuli_distractor_diamondtriangles.svg	stimuli_target_diamondsquares.svg	32	yes	57	0	185	0	0			0	0			1				0	
6.6.1	win	2023-07-10	14:08:38	14:18:27	585064	5638d3a544e8c8000ee869a2	3	1	main_z	11	main_z	59	stimuli_target_rectangletriangles.svg	stimuli_distractor_diamondtriangles.svg	5	yes	44	1	423	0	0			0	0			1				0	
6.6.1	win	2023-07-10	14:08:38	14:18:27	585064	5638d3a544e8c8000ee869a2	3	1	main_z	11	advance_on_keypress_ZEE	60	stimuli_target_rectangletriangles.svg	stimuli_distractor_diamondtriangles.svg	5	yes	57	0	147	0	0			0	0			1				0	
6.6.1	win	2023-07-10	14:08:38	14:18:28	586300	5638d3a544e8c8000ee869a2	3	1	main_z	11	main_z	61	stimuli_distractor_trianglediamonds.svg	stimuli_target_diamondrectangles.svg	27	yes	44	1	439	0	0			0	0			1				0	
6.6.1	win	2023-07-10	14:08:38	14:18:28	586300	5638d3a544e8c8000ee869a2	3	1	main_z	11	advance_on_keypress_ZEE	62	stimuli_distractor_trianglediamonds.svg	stimuli_target_diamondrectangles.svg	27	yes	57	0	201	0	0			0	0			1				0	
6.6.1	win	2023-07-10	14:08:38	14:18:30	587480	5638d3a544e8c8000ee869a2	3	1	main_z	11	main_z	63	stimuli_distractor_trianglediamonds.svg	stimuli_target_diamondsquares.svg	28	yes	44	1	339	0	0			0	0			1				0	
6.6.1	win	2023-07-10	14:08:38	14:18:30	587480	5638d3a544e8c8000ee869a2	3	1	main_z	11	advance_on_keypress_ZEE	64	stimuli_distractor_trianglediamonds.svg	stimuli_target_diamondsquares.svg	28	yes	57	0	178	0	0			0	0			1				0	
6.6.1	win	2023-07-10	14:08:38	14:18:31	588620	5638d3a544e8c8000ee869a2	3	1	main_z	11	main_z	65	stimuli_distractor_diamondtriangles.svg	stimuli_distractor_trianglediamonds.svg	38	no	44	0	330	0	0			0	0			1				0	
6.6.1	win	2023-07-10	14:08:38	14:18:31	588620	5638d3a544e8c8000ee869a2	3	1	main_z	11	advance_on_keypress_ZEE	66	stimuli_distractor_diamondtriangles.svg	stimuli_distractor_trianglediamonds.svg	38	no	57	0	180	0	0			0	0			1				0	
6.6.1	win	2023-07-10	14:08:38	14:18:32	589847	5638d3a544e8c8000ee869a2	3	1	main_z	11	main_z	67	stimuli_distractor_trianglediamonds.svg	stimuli_target_squarediamonds.svg	12	yes	44	1	391	0	0			0	0			1				0	
6.6.1	win	2023-07-10	14:08:38	14:18:32	589847	5638d3a544e8c8000ee869a2	3	1	main_z	11	advance_on_keypress_ZEE	68	stimuli_distractor_trianglediamonds.svg	stimuli_target_squarediamonds.svg	12	yes	57	0	167	0	0			0	0			1				0	
6.6.1	win	2023-07-10	14:08:38	14:18:34	591452	5638d3a544e8c8000ee869a2	3	1	main_z	11	main_z	69	stimuli_target_diamondrectangles.svg	stimuli_distractor_trianglediamonds.svg	19	yes	44	1	778	0	0			0	0			1				0	
6.6.1	win	2023-07-10	14:08:38	14:18:34	591452	5638d3a544e8c8000ee869a2	3	1	main_z	11	advance_on_keypress_ZEE	70	stimuli_target_diamondrectangles.svg	stimuli_distractor_trianglediamonds.svg	19	yes	57	0	171	0	0			0	0			1				0	
6.6.1	win	2023-07-10	14:08:38	14:18:35	592667	5638d3a544e8c8000ee869a2	3	1	main_z	11	main_z	71	stimuli_target_squarediamonds.svg	stimuli_distractor_trianglediamonds.svg	4	yes	44	1	406	0	0			0	0			1				0	
6.6.1	win	2023-07-10	14:08:38	14:18:35	592667	5638d3a544e8c8000ee869a2	3	1	main_z	11	advance_on_keypress_ZEE	72	stimuli_target_squarediamonds.svg	stimuli_distractor_trianglediamonds.svg	4	yes	57	0	171	0	0			0	0			1				0	
6.6.1	win	2023-07-10	14:08:38	14:18:38	595473	5638d3a544e8c8000ee869a2	3	1	main_z	11	main_z	73	stimuli_distractor_trianglediamonds.svg	stimuli_distractor_diamondtriangles.svg	35	no	0	1	2000	0	0			0	0			1				0	
6.6.1	win	2023-07-10	14:08:38	14:18:38	595473	5638d3a544e8c8000ee869a2	3	1	main_z	11	advance_on_keypress_ZEE	74	stimuli_distractor_trianglediamonds.svg	stimuli_distractor_diamondtriangles.svg	35	no	57	0	250	0	0			0	0			1				0	
6.6.1	win	2023-07-10	14:08:38	14:18:40	598373	5638d3a544e8c8000ee869a2	3	1	main_z	11	main_z	75	stimuli_distractor_trianglediamonds.svg	stimuli_distractor_trianglediamonds.svg	33	no	0	1	2000	0	0			0	0			1				0	
6.6.1	win	2023-07-10	14:08:38	14:18:40	598373	5638d3a544e8c8000ee869a2	3	1	main_z	11	advance_on_keypress_ZEE	76	stimuli_distractor_trianglediamonds.svg	stimuli_distractor_trianglediamonds.svg	33	no	57	0	246	0	0			0	0			1				0	
6.6.1	win	2023-07-10	14:08:38	14:18:42	599793	5638d3a544e8c8000ee869a2	3	1	main_z	11	main_z	77	stimuli_distractor_diamondtriangles.svg	stimuli_target_diamondrectangles.svg	31	yes	44	1	516	0	0			0	0			1				0	
6.6.1	win	2023-07-10	14:08:38	14:18:42	599793	5638d3a544e8c8000ee869a2	3	1	main_z	11	advance_on_keypress_ZEE	78	stimuli_distractor_diamondtriangles.svg	stimuli_target_diamondrectangles.svg	31	yes	57	0	125	0	0			0	0			1				0	
6.6.1	win	2023-07-10	14:08:38	14:18:43	600948	5638d3a544e8c8000ee869a2	3	1	main_z	11	main_z	79	stimuli_target_squarediamonds.svg	stimuli_distractor_diamondtriangles.svg	8	yes	44	1	392	0	0			0	0			1				0	
6.6.1	win	2023-07-10	14:08:38	14:18:43	600948	5638d3a544e8c8000ee869a2	3	1	main_z	11	advance_on_keypress_ZEE	80	stimuli_target_squarediamonds.svg	stimuli_distractor_diamondtriangles.svg	8	yes	57	0	155	0	0			0	0			1				0	
6.6.1	win	2023-07-10	14:08:38	14:18:44	602216	5638d3a544e8c8000ee869a2	3	1	main_z	11	main_z	81	stimuli_target_rectanglediamonds.svg	stimuli_distractor_trianglediamonds.svg	2	yes	44	1	476	0	0			0	0			1				0	
6.6.1	win	2023-07-10	14:08:38	14:18:44	602216	5638d3a544e8c8000ee869a2	3	1	main_z	11	advance_on_keypress_ZEE	82	stimuli_target_rectanglediamonds.svg	stimuli_distractor_trianglediamonds.svg	2	yes	57	0	189	0	0			0	0			1				0	
6.6.1	win	2023-07-10	14:08:38	14:18:46	603452	5638d3a544e8c8000ee869a2	3	1	main_z	11	main_z	83	stimuli_distractor_diamondtriangles.svg	stimuli_target_diamondsquares.svg	32	yes	44	1	413	0	0			0	0			1				0	
6.6.1	win	2023-07-10	14:08:38	14:18:46	603452	5638d3a544e8c8000ee869a2	3	1	main_z	11	advance_on_keypress_ZEE	84	stimuli_distractor_diamondtriangles.svg	stimuli_target_diamondsquares.svg	32	yes	57	0	186	0	0			0	0			1				0	
6.6.1	win	2023-07-10	14:08:38	14:18:47	604712	5638d3a544e8c8000ee869a2	3	1	main_z	11	main_z	85	stimuli_target_squaretriangles.svg	stimuli_distractor_trianglediamonds.svg	3	yes	44	1	422	0	0			0	0			1				0	
6.6.1	win	2023-07-10	14:08:38	14:18:47	604712	5638d3a544e8c8000ee869a2	3	1	main_z	11	advance_on_keypress_ZEE	86	stimuli_target_squaretriangles.svg	stimuli_distractor_trianglediamonds.svg	3	yes	57	0	161	0	0			0	0			1				0	
6.6.1	win	2023-07-10	14:08:38	14:18:48	606004	5638d3a544e8c8000ee869a2	3	1	main_z	11	main_z	87	stimuli_distractor_diamondtriangles.svg	stimuli_target_trianglesquares.svg	30	yes	44	1	498	0	0			0	0			1				0	
6.6.1	win	2023-07-10	14:08:38	14:18:48	606004	5638d3a544e8c8000ee869a2	3	1	main_z	11	advance_on_keypress_ZEE	88	stimuli_distractor_diamondtriangles.svg	stimuli_target_trianglesquares.svg	30	yes	57	0	153	0	0			0	0			1				0	
6.6.1	win	2023-07-10	14:08:38	14:18:49	607232	5638d3a544e8c8000ee869a2	3	1	main_z	11	main_z	89	stimuli_target_diamondsquares.svg	stimuli_distractor_trianglediamonds.svg	20	yes	44	1	426	0	0			0	0			1				0	
6.6.1	win	2023-07-10	14:08:38	14:18:49	607232	5638d3a544e8c8000ee869a2	3	1	main_z	11	advance_on_keypress_ZEE	90	stimuli_target_diamondsquares.svg	stimuli_distractor_trianglediamonds.svg	20	yes	57	0	152	0	0			0	0			1				0	
6.6.1	win	2023-07-10	14:08:38	14:18:50	608404	5638d3a544e8c8000ee869a2	3	1	main_z	11	main_z	91	stimuli_distractor_diamondtriangles.svg	stimuli_target_squarediamonds.svg	16	yes	44	1	373	0	0			0	0			1				0	
6.6.1	win	2023-07-10	14:08:38	14:18:50	608404	5638d3a544e8c8000ee869a2	3	1	main_z	11	advance_on_keypress_ZEE	92	stimuli_distractor_diamondtriangles.svg	stimuli_target_squarediamonds.svg	16	yes	57	0	169	0	0			0	0			1				0	
6.6.1	win	2023-07-10	14:08:38	14:18:52	609644	5638d3a544e8c8000ee869a2	3	1	main_z	11	main_z	93	stimuli_target_rectangletriangles.svg	stimuli_distractor_trianglediamonds.svg	1	yes	44	1	421	0	0			0	0			1				0	
6.6.1	win	2023-07-10	14:08:38	14:18:52	609644	5638d3a544e8c8000ee869a2	3	1	main_z	11	advance_on_keypress_ZEE	94	stimuli_target_rectangletriangles.svg	stimuli_distractor_trianglediamonds.svg	1	yes	57	0	240	0	0			0	0			1				0	
6.6.1	win	2023-07-10	14:08:38	14:18:53	610916	5638d3a544e8c8000ee869a2	3	1	main_z	11	main_z	95	stimuli_distractor_trianglediamonds.svg	stimuli_target_squarediamonds.svg	12	yes	44	1	389	0	0			0	0			1				0	
6.6.1	win	2023-07-10	14:08:38	14:18:53	610916	5638d3a544e8c8000ee869a2	3	1	main_z	11	advance_on_keypress_ZEE	96	stimuli_distractor_trianglediamonds.svg	stimuli_target_squarediamonds.svg	12	yes	57	0	189	0	0			0	0			1				0	
6.6.1	win	2023-07-10	14:08:38	14:18:55	612408	5638d3a544e8c8000ee869a2	3	1	main_z	11	main_z	97	stimuli_target_diamondrectangles.svg	stimuli_distractor_diamondtriangles.svg	23	yes	44	1	669	0	0			0	0			1				0	
6.6.1	win	2023-07-10	14:08:38	14:18:55	612408	5638d3a544e8c8000ee869a2	3	1	main_z	11	advance_on_keypress_ZEE	98	stimuli_target_diamondrectangles.svg	stimuli_distractor_diamondtriangles.svg	23	yes	57	0	169	0	0			0	0			1				0	
6.6.1	win	2023-07-10	14:08:38	14:18:56	613888	5638d3a544e8c8000ee869a2	3	1	main_z	11	main_z	99	stimuli_target_trianglerectangles.svg	stimuli_distractor_trianglediamonds.svg	17	yes	44	1	665	0	0			0	0			1				0	
6.6.1	win	2023-07-10	14:08:38	14:18:56	613888	5638d3a544e8c8000ee869a2	3	1	main_z	11	advance_on_keypress_ZEE	100	stimuli_target_trianglerectangles.svg	stimuli_distractor_trianglediamonds.svg	17	yes	57	0	170	0	0			0	0			1				0	
6.6.1	win	2023-07-10	14:08:38	14:18:57	615104	5638d3a544e8c8000ee869a2	3	1	main_z	11	main_z	101	stimuli_distractor_trianglediamonds.svg	stimuli_target_rectanglediamonds.svg	10	yes	44	1	398	0	0			0	0			1				0	
6.6.1	win	2023-07-10	14:08:38	14:18:57	615104	5638d3a544e8c8000ee869a2	3	1	main_z	11	advance_on_keypress_ZEE	102	stimuli_distractor_trianglediamonds.svg	stimuli_target_rectanglediamonds.svg	10	yes	57	0	133	0	0			0	0			1				0	
6.6.1	win	2023-07-10	14:08:38	14:18:59	616483	5638d3a544e8c8000ee869a2	3	1	main_z	11	main_z	103	stimuli_target_diamondsquares.svg	stimuli_distractor_diamondtriangles.svg	24	yes	44	1	594	0	0			0	0			1				0	
6.6.1	win	2023-07-10	14:08:38	14:18:59	616483	5638d3a544e8c8000ee869a2	3	1	main_z	11	advance_on_keypress_ZEE	104	stimuli_target_diamondsquares.svg	stimuli_distractor_diamondtriangles.svg	24	yes	57	0	187	0	0			0	0			1				0	
6.6.1	win	2023-07-10	14:08:38	14:19:00	617720	5638d3a544e8c8000ee869a2	3	1	main_z	11	main_z	105	stimuli_distractor_trianglediamonds.svg	stimuli_target_trianglerectangles.svg	25	yes	44	1	414	0	0			0	0			1				0	
6.6.1	win	2023-07-10	14:08:38	14:19:00	617720	5638d3a544e8c8000ee869a2	3	1	main_z	11	advance_on_keypress_ZEE	106	stimuli_distractor_trianglediamonds.svg	stimuli_target_trianglerectangles.svg	25	yes	57	0	189	0	0			0	0			1				0	
6.6.1	win	2023-07-10	14:08:38	14:19:01	619004	5638d3a544e8c8000ee869a2	3	1	main_z	11	main_z	107	stimuli_target_trianglesquares.svg	stimuli_distractor_trianglediamonds.svg	18	yes	44	1	448	0	0			0	0			1				0	
6.6.1	win	2023-07-10	14:08:38	14:19:01	619004	5638d3a544e8c8000ee869a2	3	1	main_z	11	advance_on_keypress_ZEE	108	stimuli_target_trianglesquares.svg	stimuli_distractor_trianglediamonds.svg	18	yes	57	0	173	0	0			0	0			1				0	
6.6.1	win	2023-07-10	14:08:38	14:19:04	621822	5638d3a544e8c8000ee869a2	3	1	main_z	11	main_z	109	stimuli_distractor_trianglediamonds.svg	stimuli_distractor_diamondtriangles.svg	36	no	0	1	2000	0	0			0	0			1				0	
6.6.1	win	2023-07-10	14:08:38	14:19:04	621822	5638d3a544e8c8000ee869a2	3	1	main_z	11	advance_on_keypress_ZEE	110	stimuli_distractor_trianglediamonds.svg	stimuli_distractor_diamondtriangles.svg	36	no	57	0	273	0	0			0	0			1				0	
6.6.1	win	2023-07-10	14:08:38	14:19:05	623127	5638d3a544e8c8000ee869a2	3	1	main_z	11	main_z	111	stimuli_distractor_trianglediamonds.svg	stimuli_target_diamondsquares.svg	28	yes	44	1	386	0	0			0	0			1				0	
6.6.1	win	2023-07-10	14:08:38	14:19:05	623127	5638d3a544e8c8000ee869a2	3	1	main_z	11	advance_on_keypress_ZEE	112	stimuli_distractor_trianglediamonds.svg	stimuli_target_diamondsquares.svg	28	yes	57	0	177	0	0			0	0			1				0	
6.6.1	win	2023-07-10	14:08:38	14:19:07	624600	5638d3a544e8c8000ee869a2	3	1	main_z	11	main_z	113	stimuli_distractor_diamondtriangles.svg	stimuli_target_squaretriangles.svg	15	yes	44	1	662	0	0			0	0			1				0	
6.6.1	win	2023-07-10	14:08:38	14:19:07	624600	5638d3a544e8c8000ee869a2	3	1	main_z	11	advance_on_keypress_ZEE	114	stimuli_distractor_diamondtriangles.svg	stimuli_target_squaretriangles.svg	15	yes	57	0	198	0	0			0	0			1				0	
6.6.1	win	2023-07-10	14:08:38	14:19:08	626172	5638d3a544e8c8000ee869a2	3	1	main_z	11	main_z	115	stimuli_distractor_trianglediamonds.svg	stimuli_distractor_trianglediamonds.svg	33	no	44	0	733	0	0			0	0			1				0	
6.6.1	win	2023-07-10	14:08:38	14:19:08	626172	5638d3a544e8c8000ee869a2	3	1	main_z	11	advance_on_keypress_ZEE	116	stimuli_distractor_trianglediamonds.svg	stimuli_distractor_trianglediamonds.svg	33	no	57	0	147	0	0			0	0			1				0	
6.6.1	win	2023-07-10	14:08:38	14:19:10	627576	5638d3a544e8c8000ee869a2	3	1	main_z	11	main_z	117	stimuli_target_rectangletriangles.svg	stimuli_distractor_diamondtriangles.svg	5	yes	44	1	599	0	0			0	0			1				0	
6.6.1	win	2023-07-10	14:08:38	14:19:10	627576	5638d3a544e8c8000ee869a2	3	1	main_z	11	advance_on_keypress_ZEE	118	stimuli_target_rectangletriangles.svg	stimuli_distractor_diamondtriangles.svg	5	yes	57	0	159	0	0			0	0			1				0	
6.6.1	win	2023-07-10	14:08:38	14:19:11	628808	5638d3a544e8c8000ee869a2	3	1	main_z	11	main_z	119	stimuli_distractor_trianglediamonds.svg	stimuli_target_diamondrectangles.svg	27	yes	44	1	432	0	0			0	0			1				0	
6.6.1	win	2023-07-10	14:08:38	14:19:11	628808	5638d3a544e8c8000ee869a2	3	1	main_z	11	advance_on_keypress_ZEE	120	stimuli_distractor_trianglediamonds.svg	stimuli_target_diamondrectangles.svg	27	yes	57	0	175	0	0			0	0			1				0	
6.6.1	win	2023-07-10	14:08:38	14:19:12	630010	5638d3a544e8c8000ee869a2	3	1	main_z	11	main_z	121	stimuli_distractor_trianglediamonds.svg	stimuli_target_trianglesquares.svg	26	yes	44	1	378	0	0			0	0			1				0	
6.6.1	win	2023-07-10	14:08:38	14:19:12	630010	5638d3a544e8c8000ee869a2	3	1	main_z	11	advance_on_keypress_ZEE	122	stimuli_distractor_trianglediamonds.svg	stimuli_target_trianglesquares.svg	26	yes	57	0	166	0	0			0	0			1				0	
6.6.1	win	2023-07-10	14:08:38	14:19:13	631188	5638d3a544e8c8000ee869a2	3	1	main_z	11	main_z	123	stimuli_target_squaretriangles.svg	stimuli_distractor_diamondtriangles.svg	7	yes	44	1	366	0	0			0	0			1				0	
6.6.1	win	2023-07-10	14:08:38	14:19:13	631188	5638d3a544e8c8000ee869a2	3	1	main_z	11	advance_on_keypress_ZEE	124	stimuli_target_squaretriangles.svg	stimuli_distractor_diamondtriangles.svg	7	yes	57	0	155	0	0			0	0			1				0	
6.6.1	win	2023-07-10	14:08:38	14:19:14	632392	5638d3a544e8c8000ee869a2	3	1	main_z	11	main_z	125	stimuli_distractor_diamondtriangles.svg	stimuli_distractor_diamondtriangles.svg	39	no	44	0	403	0	0			0	0			1				0	
6.6.1	win	2023-07-10	14:08:38	14:19:14	632392	5638d3a544e8c8000ee869a2	3	1	main_z	11	advance_on_keypress_ZEE	126	stimuli_distractor_diamondtriangles.svg	stimuli_distractor_diamondtriangles.svg	39	no	57	0	223	0	0			0	0			1				0	
6.6.1	win	2023-07-10	14:08:38	14:19:16	633896	5638d3a544e8c8000ee869a2	3	1	main_z	11	main_z	127	stimuli_distractor_trianglediamonds.svg	stimuli_target_squaretriangles.svg	11	yes	44	1	641	0	0			0	0			1				0	
6.6.1	win	2023-07-10	14:08:38	14:19:16	633896	5638d3a544e8c8000ee869a2	3	1	main_z	11	advance_on_keypress_ZEE	128	stimuli_distractor_trianglediamonds.svg	stimuli_target_squaretriangles.svg	11	yes	57	0	168	0	0			0	0			1				0	
6.6.1	win	2023-07-10	14:08:38	14:19:17	635180	5638d3a544e8c8000ee869a2	3	1	main_z	11	main_z	129	stimuli_distractor_diamondtriangles.svg	stimuli_target_rectanglediamonds.svg	14	yes	44	1	455	0	0			0	0			1				0	
6.6.1	win	2023-07-10	14:08:38	14:19:17	635180	5638d3a544e8c8000ee869a2	3	1	main_z	11	advance_on_keypress_ZEE	130	stimuli_distractor_diamondtriangles.svg	stimuli_target_rectanglediamonds.svg	14	yes	57	0	172	0	0			0	0			1				0	
6.6.1	win	2023-07-10	14:08:38	14:19:18	636392	5638d3a544e8c8000ee869a2	3	1	main_z	11	main_z	131	stimuli_target_squarediamonds.svg	stimuli_distractor_diamondtriangles.svg	8	yes	44	1	403	0	0			0	0			1				0	
6.6.1	win	2023-07-10	14:08:38	14:19:18	636392	5638d3a544e8c8000ee869a2	3	1	main_z	11	advance_on_keypress_ZEE	132	stimuli_target_squarediamonds.svg	stimuli_distractor_diamondtriangles.svg	8	yes	57	0	147	0	0			0	0			1				0	
6.6.1	win	2023-07-10	14:08:38	14:19:21	639188	5638d3a544e8c8000ee869a2	3	1	main_z	11	main_z	133	stimuli_distractor_diamondtriangles.svg	stimuli_distractor_trianglediamonds.svg	38	no	0	1	2000	0	0			0	0			1				0	
6.6.1	win	2023-07-10	14:08:38	14:19:21	639188	5638d3a544e8c8000ee869a2	3	1	main_z	11	advance_on_keypress_ZEE	134	stimuli_distractor_diamondtriangles.svg	stimuli_distractor_trianglediamonds.svg	38	no	57	0	307	0	0			0	0			1				0	
6.6.1	win	2023-07-10	14:08:38	14:19:23	640480	5638d3a544e8c8000ee869a2	3	1	main_z	11	main_z	135	stimuli_distractor_diamondtriangles.svg	stimuli_target_rectangletriangles.svg	13	yes	44	1	342	0	0			0	0			1				0	
6.6.1	win	2023-07-10	14:08:38	14:19:23	640480	5638d3a544e8c8000ee869a2	3	1	main_z	11	advance_on_keypress_ZEE	136	stimuli_distractor_diamondtriangles.svg	stimuli_target_rectangletriangles.svg	13	yes	57	0	176	0	0			0	0			1				0	
6.6.1	win	2023-07-10	14:08:38	14:19:24	641852	5638d3a544e8c8000ee869a2	3	1	main_z	11	main_z	137	stimuli_target_trianglerectangles.svg	stimuli_distractor_diamondtriangles.svg	21	yes	44	1	564	0	0			0	0			1				0	
6.6.1	win	2023-07-10	14:08:38	14:19:24	641852	5638d3a544e8c8000ee869a2	3	1	main_z	11	advance_on_keypress_ZEE	138	stimuli_target_trianglerectangles.svg	stimuli_distractor_diamondtriangles.svg	21	yes	57	0	188	0	0			0	0			1				0	
6.6.1	win	2023-07-10	14:08:38	14:19:25	643100	5638d3a544e8c8000ee869a2	3	1	main_z	11	main_z	139	stimuli_target_rectanglediamonds.svg	stimuli_distractor_diamondtriangles.svg	6	yes	44	1	408	0	0			0	0			1				0	
6.6.1	win	2023-07-10	14:08:38	14:19:25	643100	5638d3a544e8c8000ee869a2	3	1	main_z	11	advance_on_keypress_ZEE	140	stimuli_target_rectanglediamonds.svg	stimuli_distractor_diamondtriangles.svg	6	yes	57	0	163	0	0			0	0			1				0	
6.6.1	win	2023-07-10	14:08:38	14:19:26	644296	5638d3a544e8c8000ee869a2	3	1	main_z	11	main_z	141	stimuli_target_trianglesquares.svg	stimuli_distractor_diamondtriangles.svg	22	yes	44	1	392	0	0			0	0			1				0	
6.6.1	win	2023-07-10	14:08:38	14:19:26	644296	5638d3a544e8c8000ee869a2	3	1	main_z	11	advance_on_keypress_ZEE	142	stimuli_target_trianglesquares.svg	stimuli_distractor_diamondtriangles.svg	22	yes	57	0	172	0	0			0	0			1				0	
6.6.1	win	2023-07-10	14:08:38	14:19:29	647105	5638d3a544e8c8000ee869a2	3	1	main_z	11	main_z	143	stimuli_distractor_diamondtriangles.svg	stimuli_distractor_diamondtriangles.svg	40	no	0	1	2000	0	0			0	0			1				0	
6.6.1	win	2023-07-10	14:08:38	14:19:29	647105	5638d3a544e8c8000ee869a2	3	1	main_z	11	advance_on_keypress_ZEE	144	stimuli_distractor_diamondtriangles.svg	stimuli_distractor_diamondtriangles.svg	40	no	57	0	283	0	0			0	0			1				0	
6.6.1	win	2023-07-10	14:08:38	14:19:31	648427	5638d3a544e8c8000ee869a2	3	1	main_z	11	main_z	145	stimuli_distractor_diamondtriangles.svg	stimuli_target_trianglerectangles.svg	29	yes	44	1	390	0	0			0	0			1				0	
6.6.1	win	2023-07-10	14:08:38	14:19:31	648427	5638d3a544e8c8000ee869a2	3	1	main_z	11	advance_on_keypress_ZEE	146	stimuli_distractor_diamondtriangles.svg	stimuli_target_trianglerectangles.svg	29	yes	57	0	206	0	0			0	0			1				0	
6.6.1	win	2023-07-10	14:08:38	14:19:32	649664	5638d3a544e8c8000ee869a2	3	1	main_z	11	main_z	147	stimuli_distractor_trianglediamonds.svg	stimuli_target_rectangletriangles.svg	9	yes	44	1	390	0	0			0	0			1				0	
6.6.1	win	2023-07-10	14:08:38	14:19:32	649664	5638d3a544e8c8000ee869a2	3	1	main_z	11	advance_on_keypress_ZEE	148	stimuli_distractor_trianglediamonds.svg	stimuli_target_rectangletriangles.svg	9	yes	57	0	161	0	0			0	0			1				0	
6.6.1	win	2023-07-10	14:08:38	14:19:33	650936	5638d3a544e8c8000ee869a2	3	1	main_z	11	main_z	149	stimuli_distractor_diamondtriangles.svg	stimuli_distractor_trianglediamonds.svg	37	no	44	0	481	0	0			0	0			1				0	
6.6.1	win	2023-07-10	14:08:38	14:19:33	650936	5638d3a544e8c8000ee869a2	3	1	main_z	11	advance_on_keypress_ZEE	150	stimuli_distractor_diamondtriangles.svg	stimuli_distractor_trianglediamonds.svg	37	no	57	0	213	0	0			0	0			1				0	
6.6.1	win	2023-07-10	14:08:38	14:19:34	652252	5638d3a544e8c8000ee869a2	3	1	main_z	11	main_z	151	stimuli_distractor_diamondtriangles.svg	stimuli_target_diamondrectangles.svg	31	yes	44	1	444	0	0			0	0			1				0	
6.6.1	win	2023-07-10	14:08:38	14:19:34	652252	5638d3a544e8c8000ee869a2	3	1	main_z	11	advance_on_keypress_ZEE	152	stimuli_distractor_diamondtriangles.svg	stimuli_target_diamondrectangles.svg	31	yes	57	0	126	0	0			0	0			1				0	
6.6.1	win	2023-07-10	14:08:38	14:19:36	653428	5638d3a544e8c8000ee869a2	3	1	main_z	11	main_z	153	stimuli_target_squarediamonds.svg	stimuli_distractor_trianglediamonds.svg	4	yes	44	1	407	0	0			0	0			1				0	
6.6.1	win	2023-07-10	14:08:38	14:19:36	653428	5638d3a544e8c8000ee869a2	3	1	main_z	11	advance_on_keypress_ZEE	154	stimuli_target_squarediamonds.svg	stimuli_distractor_trianglediamonds.svg	4	yes	57	0	126	0	0			0	0			1				0	
6.6.1	win	2023-07-10	14:08:38	14:19:38	656187	5638d3a544e8c8000ee869a2	3	1	main_z	11	main_z	155	stimuli_distractor_trianglediamonds.svg	stimuli_distractor_trianglediamonds.svg	34	no	0	1	2000	0	0			0	0			1				0	
6.6.1	win	2023-07-10	14:08:38	14:19:38	656187	5638d3a544e8c8000ee869a2	3	1	main_z	11	advance_on_keypress_ZEE	156	stimuli_distractor_trianglediamonds.svg	stimuli_distractor_trianglediamonds.svg	34	no	57	0	249	0	0			0	0			1				0	
6.6.1	win	2023-07-10	14:08:38	14:19:41	659092	5638d3a544e8c8000ee869a2	3	1	main_z	11	main_z	157	stimuli_distractor_trianglediamonds.svg	stimuli_distractor_diamondtriangles.svg	35	no	0	1	2000	0	0			0	0			1				0	
6.6.1	win	2023-07-10	14:08:38	14:19:41	659092	5638d3a544e8c8000ee869a2	3	1	main_z	11	advance_on_keypress_ZEE	158	stimuli_distractor_trianglediamonds.svg	stimuli_distractor_diamondtriangles.svg	35	no	57	0	212	0	0			0	0			1				0	
6.6.1	win	2023-07-10	14:08:38	14:19:42	660395	5638d3a544e8c8000ee869a2	3	1	main_z	11	main_z	159	stimuli_target_diamondrectangles.svg	stimuli_distractor_trianglediamonds.svg	19	yes	44	1	425	0	0			0	0			1				0	
6.6.1	win	2023-07-10	14:08:38	14:19:42	660395	5638d3a544e8c8000ee869a2	3	1	main_z	11	advance_on_keypress_ZEE	160	stimuli_target_diamondrectangles.svg	stimuli_distractor_trianglediamonds.svg	19	yes	57	0	160	0	0			0	0			1				0	
6.6.1	win	2023-07-10	14:08:38	14:19:42	660395	5638d3a544e8c8000ee869a2	3	1	headphonecheck_calibration	14	headphonecheck_calibrationIntro	1	stimuli_target_diamondrectangles.svg	stimuli_distractor_trianglediamonds.svg	19	yes	calibrationButton	0	3976	0	0			0	0			1				0	
6.6.1	win	2023-07-10	14:08:38	14:19:42	660395	5638d3a544e8c8000ee869a2	3	1	headphonecheck_testphase	15	test_collectResponse	3	stimuli_target_diamondrectangles.svg	stimuli_distractor_trianglediamonds.svg	19	yes	second	0	816	1	3	antiphase_hc_soi.wav	1	0	0			1				0	
6.6.1	win	2023-07-10	14:08:38	14:19:42	660395	5638d3a544e8c8000ee869a2	3	1	headphonecheck_testphase	15	test_collectResponse	6	stimuli_target_diamondrectangles.svg	stimuli_distractor_trianglediamonds.svg	19	yes	second	1	2434	2	5	antiphase_hc_osi.wav	2	0	0			1				0	
6.6.1	win	2023-07-10	14:08:38	14:19:42	660395	5638d3a544e8c8000ee869a2	3	1	headphonecheck_testphase	15	test_collectResponse	9	stimuli_target_diamondrectangles.svg	stimuli_distractor_trianglediamonds.svg	19	yes	third	1	365	3	6	antiphase_hc_ois.wav	3	0	0			1				0	
6.6.1	win	2023-07-10	14:08:38	14:19:42	660395	5638d3a544e8c8000ee869a2	3	1	headphonecheck_testphase	15	test_collectResponse	12	stimuli_target_diamondrectangles.svg	stimuli_distractor_trianglediamonds.svg	19	yes	second	1	449	4	1	antiphase_hc_iso.wav	2	0	0			1				0	
6.6.1	win	2023-07-10	14:08:38	14:19:42	660395	5638d3a544e8c8000ee869a2	3	1	headphonecheck_testphase	15	test_collectResponse	15	stimuli_target_diamondrectangles.svg	stimuli_distractor_trianglediamonds.svg	19	yes	third	1	343	5	2	antiphase_hc_ios.wav	3	0	0			1				0	
6.6.1	win	2023-07-10	14:08:38	14:19:42	660395	5638d3a544e8c8000ee869a2	3	1	headphonecheck_testphase	15	test_collectResponse	18	stimuli_target_diamondrectangles.svg	stimuli_distractor_trianglediamonds.svg	19	yes	first	1	458	6	4	antiphase_hc_sio.wav	1	0	0			1				0	
6.6.1	win	2023-07-10	14:08:38	14:19:42	660395	5638d3a544e8c8000ee869a2	3	1	stereocheck_calibration	17	stereocheck_calibrationIntro	1	stimuli_target_diamondrectangles.svg	stimuli_distractor_trianglediamonds.svg	19	yes	stereocheck_calibrationButton	0	73025	6	4	antiphase_hc_sio.wav	1	0	0			1				0	
6.6.1	win	2023-07-10	14:08:38	14:19:42	660395	5638d3a544e8c8000ee869a2	3	1	stereocheck_testphase	18	stereocheck_test_collectResponse	3	stimuli_target_diamondrectangles.svg	stimuli_distractor_trianglediamonds.svg	19	yes	stereocheck_left	1	451	6	4	antiphase_hc_sio.wav	1	1	1	noise_calib_stim_LEFT.wav	1	1				0	
6.6.1	win	2023-07-10	14:08:38	14:19:42	660395	5638d3a544e8c8000ee869a2	3	1	stereocheck_testphase	18	stereocheck_test_collectResponse	6	stimuli_target_diamondrectangles.svg	stimuli_distractor_trianglediamonds.svg	19	yes	stereocheck_left	1	273	6	4	antiphase_hc_sio.wav	1	2	3	noise_calib_stim_LEFT.wav	1	1				0	
6.6.1	win	2023-07-10	14:08:38	14:19:42	660395	5638d3a544e8c8000ee869a2	3	1	stereocheck_testphase	18	stereocheck_test_collectResponse	9	stimuli_target_diamondrectangles.svg	stimuli_distractor_trianglediamonds.svg	19	yes	stereocheck_right	1	322	6	4	antiphase_hc_sio.wav	1	3	4	noise_calib_stim_RIGHT.wav	2	1				0	
6.6.1	win	2023-07-10	14:08:38	14:19:42	660395	5638d3a544e8c8000ee869a2	3	1	stereocheck_testphase	18	stereocheck_test_collectResponse	12	stimuli_target_diamondrectangles.svg	stimuli_distractor_trianglediamonds.svg	19	yes	stereocheck_right	1	265	6	4	antiphase_hc_sio.wav	1	4	6	noise_calib_stim_RIGHT.wav	2	1				0	
6.6.1	win	2023-07-10	14:08:38	14:19:42	660395	5638d3a544e8c8000ee869a2	3	1	stereocheck_testphase	18	stereocheck_test_collectResponse	15	stimuli_target_diamondrectangles.svg	stimuli_distractor_trianglediamonds.svg	19	yes	stereocheck_left	1	256	6	4	antiphase_hc_sio.wav	1	5	2	noise_calib_stim_LEFT.wav	1	1				0	
6.6.1	win	2023-07-10	14:08:38	14:19:42	660395	5638d3a544e8c8000ee869a2	3	1	stereocheck_testphase	18	stereocheck_test_collectResponse	18	stimuli_target_diamondrectangles.svg	stimuli_distractor_trianglediamonds.svg	19	yes	stereocheck_right	1	334	6	4	antiphase_hc_sio.wav	1	6	5	noise_calib_stim_RIGHT.wav	2	1				0	
6.6.1	win	2023-07-10	14:08:38	14:19:42	660395	5638d3a544e8c8000ee869a2	3	1	DL_practice	21	DL_practice	2	stimuli_target_diamondrectangles.svg	stimuli_distractor_trianglediamonds.svg	19	yes	ka	1	1137	6	4	antiphase_hc_sio.wav	1	6	5	noise_calib_stim_RIGHT.wav	2	22	blb_dichoticlistening_ka-ka.mp3	ka	ka	0	left
6.6.1	win	2023-07-10	14:08:38	14:19:42	660395	5638d3a544e8c8000ee869a2	3	1	DL_practice	21	DL_practice	3	stimuli_target_diamondrectangles.svg	stimuli_distractor_trianglediamonds.svg	19	yes	da	1	882	6	4	antiphase_hc_sio.wav	1	6	5	noise_calib_stim_RIGHT.wav	2	8	blb_dichoticlistening_da-da.mp3	da	da	0	left
6.6.1	win	2023-07-10	14:08:38	14:19:42	660395	5638d3a544e8c8000ee869a2	3	1	DL_practice	21	DL_practice	4	stimuli_target_diamondrectangles.svg	stimuli_distractor_trianglediamonds.svg	19	yes	ba	1	896	6	4	antiphase_hc_sio.wav	1	6	5	noise_calib_stim_RIGHT.wav	2	1	blb_dichoticlistening_ba-ba.mp3	ba	ba	0	left
6.6.1	win	2023-07-10	14:08:38	14:19:42	660395	5638d3a544e8c8000ee869a2	3	1	DL_practice	21	DL_practice	5	stimuli_target_diamondrectangles.svg	stimuli_distractor_trianglediamonds.svg	19	yes	ta	1	1470	6	4	antiphase_hc_sio.wav	1	6	5	noise_calib_stim_RIGHT.wav	2	18	blb_dichoticlistening_ga-ta.mp3	ga	ta	1	right
6.6.1	win	2023-07-10	14:08:38	14:19:42	660395	5638d3a544e8c8000ee869a2	3	1	DL_practice	21	DL_practice	6	stimuli_target_diamondrectangles.svg	stimuli_distractor_trianglediamonds.svg	19	yes	ga	1	1032	6	4	antiphase_hc_sio.wav	1	6	5	noise_calib_stim_RIGHT.wav	2	15	blb_dichoticlistening_ga-ga.mp3	ga	ga	0	left
6.6.1	win	2023-07-10	14:08:38	14:19:42	660395	5638d3a544e8c8000ee869a2	3	1	DL_practice	21	DL_practice	7	stimuli_target_diamondrectangles.svg	stimuli_distractor_trianglediamonds.svg	19	yes	pa	1	1436	6	4	antiphase_hc_sio.wav	1	6	5	noise_calib_stim_RIGHT.wav	2	23	blb_dichoticlistening_ka-pa.mp3	ka	pa	1	right
6.6.1	win	2023-07-10	14:08:38	14:19:42	660395	5638d3a544e8c8000ee869a2	3	1	DL_practice	21	DL_practice	8	stimuli_target_diamondrectangles.svg	stimuli_distractor_trianglediamonds.svg	19	yes	da	1	1205	6	4	antiphase_hc_sio.wav	1	6	5	noise_calib_stim_RIGHT.wav	2	7	blb_dichoticlistening_da-ba.mp3	da	ba	1	left
6.6.1	win	2023-07-10	14:08:38	14:19:42	660395	5638d3a544e8c8000ee869a2	3	1	DL_practice	21	DL_practice	9	stimuli_target_diamondrectangles.svg	stimuli_distractor_trianglediamonds.svg	19	yes	ta	1	1514	6	4	antiphase_hc_sio.wav	1	6	5	noise_calib_stim_RIGHT.wav	2	36	blb_dichoticlistening_ta-ta.mp3	ta	ta	0	left
6.6.1	win	2023-07-10	14:08:38	14:19:42	660395	5638d3a544e8c8000ee869a2	3	1	DL_practice	21	DL_practice	10	stimuli_target_diamondrectangles.svg	stimuli_distractor_trianglediamonds.svg	19	yes	pa	1	1385	6	4	antiphase_hc_sio.wav	1	6	5	noise_calib_stim_RIGHT.wav	2	29	blb_dichoticlistening_pa-pa.mp3	pa	pa	0	left
6.6.1	win	2023-07-10	14:08:38	14:19:42	660395	5638d3a544e8c8000ee869a2	3	1	DL_test	23	DL_test	1	stimuli_target_diamondrectangles.svg	stimuli_distractor_trianglediamonds.svg	19	yes	ka	1	908	6	4	antiphase_hc_sio.wav	1	6	5	noise_calib_stim_RIGHT.wav	2	34	blb_dichoticlistening_ta-ka.mp3	ta	ka	1	right
6.6.1	win	2023-07-10	14:08:38	14:19:42	660395	5638d3a544e8c8000ee869a2	3	1	DL_test	23	DL_test	2	stimuli_target_diamondrectangles.svg	stimuli_distractor_trianglediamonds.svg	19	yes	ba	1	2097	6	4	antiphase_hc_sio.wav	1	6	5	noise_calib_stim_RIGHT.wav	2	25	blb_dichoticlistening_pa-ba.mp3	pa	ba	1	right
6.6.1	win	2023-07-10	14:08:38	14:19:42	660395	5638d3a544e8c8000ee869a2	3	1	DL_test	23	DL_test	3	stimuli_target_diamondrectangles.svg	stimuli_distractor_trianglediamonds.svg	19	yes	ga	1	1144	6	4	antiphase_hc_sio.wav	1	6	5	noise_calib_stim_RIGHT.wav	2	9	blb_dichoticlistening_da-ga.mp3	da	ga	1	right
6.6.1	win	2023-07-10	14:08:38	14:19:42	660395	5638d3a544e8c8000ee869a2	3	1	DL_test	23	DL_test	4	stimuli_target_diamondrectangles.svg	stimuli_distractor_trianglediamonds.svg	19	yes	ka	1	1011	6	4	antiphase_hc_sio.wav	1	6	5	noise_calib_stim_RIGHT.wav	2	24	blb_dichoticlistening_ka-ta.mp3	ka	ta	1	left
6.6.1	win	2023-07-10	14:08:38	14:19:42	660395	5638d3a544e8c8000ee869a2	3	1	DL_test	23	DL_test	5	stimuli_target_diamondrectangles.svg	stimuli_distractor_trianglediamonds.svg	19	yes	ta	1	1843	6	4	antiphase_hc_sio.wav	1	6	5	noise_calib_stim_RIGHT.wav	2	36	blb_dichoticlistening_ta-ta.mp3	ta	ta	0	left
6.6.1	win	2023-07-10	14:08:38	14:19:42	660395	5638d3a544e8c8000ee869a2	3	1	DL_test	23	DL_test	6	stimuli_target_diamondrectangles.svg	stimuli_distractor_trianglediamonds.svg	19	yes	ta	1	1409	6	4	antiphase_hc_sio.wav	1	6	5	noise_calib_stim_RIGHT.wav	2	30	blb_dichoticlistening_pa-ta.mp3	pa	ta	1	right
6.6.1	win	2023-07-10	14:08:38	14:19:42	660395	5638d3a544e8c8000ee869a2	3	1	DL_test	23	DL_test	7	stimuli_target_diamondrectangles.svg	stimuli_distractor_trianglediamonds.svg	19	yes	ba	1	1328	6	4	antiphase_hc_sio.wav	1	6	5	noise_calib_stim_RIGHT.wav	2	1	blb_dichoticlistening_ba-ba.mp3	ba	ba	0	left
6.6.1	win	2023-07-10	14:08:38	14:19:42	660395	5638d3a544e8c8000ee869a2	3	1	DL_test	23	DL_test	8	stimuli_target_diamondrectangles.svg	stimuli_distractor_trianglediamonds.svg	19	yes	da	1	2344	6	4	antiphase_hc_sio.wav	1	6	5	noise_calib_stim_RIGHT.wav	2	32	blb_dichoticlistening_ta-da.mp3	ta	da	1	right
6.6.1	win	2023-07-10	14:08:38	14:19:42	660395	5638d3a544e8c8000ee869a2	3	1	DL_test	23	DL_test	9	stimuli_target_diamondrectangles.svg	stimuli_distractor_trianglediamonds.svg	19	yes	ga	1	669	6	4	antiphase_hc_sio.wav	1	6	5	noise_calib_stim_RIGHT.wav	2	15	blb_dichoticlistening_ga-ga.mp3	ga	ga	0	left
6.6.1	win	2023-07-10	14:08:38	14:19:42	660395	5638d3a544e8c8000ee869a2	3	1	DL_test	23	DL_test	10	stimuli_target_diamondrectangles.svg	stimuli_distractor_trianglediamonds.svg	19	yes	ga	1	741	6	4	antiphase_hc_sio.wav	1	6	5	noise_calib_stim_RIGHT.wav	2	3	blb_dichoticlistening_ba-ga.mp3	ba	ga	1	right
6.6.1	win	2023-07-10	14:08:38	14:19:42	660395	5638d3a544e8c8000ee869a2	3	1	DL_test	23	DL_test	11	stimuli_target_diamondrectangles.svg	stimuli_distractor_trianglediamonds.svg	19	yes	ga	1	919	6	4	antiphase_hc_sio.wav	1	6	5	noise_calib_stim_RIGHT.wav	2	27	blb_dichoticlistening_pa-ga.mp3	pa	ga	1	right
6.6.1	win	2023-07-10	14:08:38	14:19:42	660395	5638d3a544e8c8000ee869a2	3	1	DL_test	23	DL_test	12	stimuli_target_diamondrectangles.svg	stimuli_distractor_trianglediamonds.svg	19	yes	ga	0	1535	6	4	antiphase_hc_sio.wav	1	6	5	noise_calib_stim_RIGHT.wav	2	2	blb_dichoticlistening_ba-da.mp3	ba	da	1	other
6.6.1	win	2023-07-10	14:08:38	14:19:42	660395	5638d3a544e8c8000ee869a2	3	1	DL_test	23	DL_test	13	stimuli_target_diamondrectangles.svg	stimuli_distractor_trianglediamonds.svg	19	yes	pa	0	1381	6	4	antiphase_hc_sio.wav	1	6	5	noise_calib_stim_RIGHT.wav	2	31	blb_dichoticlistening_ta-ba.mp3	ta	ba	1	other
6.6.1	win	2023-07-10	14:08:38	14:19:42	660395	5638d3a544e8c8000ee869a2	3	1	DL_test	23	DL_test	14	stimuli_target_diamondrectangles.svg	stimuli_distractor_trianglediamonds.svg	19	yes	pa	1	769	6	4	antiphase_hc_sio.wav	1	6	5	noise_calib_stim_RIGHT.wav	2	5	blb_dichoticlistening_ba-pa.mp3	ba	pa	1	right
6.6.1	win	2023-07-10	14:08:38	14:19:42	660395	5638d3a544e8c8000ee869a2	3	1	DL_test	23	DL_test	15	stimuli_target_diamondrectangles.svg	stimuli_distractor_trianglediamonds.svg	19	yes	ba	1	1717	6	4	antiphase_hc_sio.wav	1	6	5	noise_calib_stim_RIGHT.wav	2	7	blb_dichoticlistening_da-ba.mp3	da	ba	1	right
6.6.1	win	2023-07-10	14:08:38	14:19:42	660395	5638d3a544e8c8000ee869a2	3	1	DL_test	23	DL_test	16	stimuli_target_diamondrectangles.svg	stimuli_distractor_trianglediamonds.svg	19	yes	ka	0	1632	6	4	antiphase_hc_sio.wav	1	6	5	noise_calib_stim_RIGHT.wav	2	18	blb_dichoticlistening_ga-ta.mp3	ga	ta	1	other
6.6.1	win	2023-07-10	14:08:38	14:19:42	660395	5638d3a544e8c8000ee869a2	3	1	DL_test	23	DL_test	17	stimuli_target_diamondrectangles.svg	stimuli_distractor_trianglediamonds.svg	19	yes	da	1	1120	6	4	antiphase_hc_sio.wav	1	6	5	noise_calib_stim_RIGHT.wav	2	8	blb_dichoticlistening_da-da.mp3	da	da	0	left
6.6.1	win	2023-07-10	14:08:38	14:19:42	660395	5638d3a544e8c8000ee869a2	3	1	DL_test	23	DL_test	18	stimuli_target_diamondrectangles.svg	stimuli_distractor_trianglediamonds.svg	19	yes	da	1	1735	6	4	antiphase_hc_sio.wav	1	6	5	noise_calib_stim_RIGHT.wav	2	14	blb_dichoticlistening_ga-da.mp3	ga	da	1	right
6.6.1	win	2023-07-10	14:08:38	14:19:42	660395	5638d3a544e8c8000ee869a2	3	1	DL_test	23	DL_test	19	stimuli_target_diamondrectangles.svg	stimuli_distractor_trianglediamonds.svg	19	yes	ka	1	1602	6	4	antiphase_hc_sio.wav	1	6	5	noise_calib_stim_RIGHT.wav	2	20	blb_dichoticlistening_ka-da.mp3	ka	da	1	left
6.6.1	win	2023-07-10	14:08:38	14:19:42	660395	5638d3a544e8c8000ee869a2	3	1	DL_test	23	DL_test	20	stimuli_target_diamondrectangles.svg	stimuli_distractor_trianglediamonds.svg	19	yes	pa	1	1858	6	4	antiphase_hc_sio.wav	1	6	5	noise_calib_stim_RIGHT.wav	2	26	blb_dichoticlistening_pa-da.mp3	pa	da	1	left
6.6.1	win	2023-07-10	14:08:38	14:19:42	660395	5638d3a544e8c8000ee869a2	3	1	DL_test	23	DL_test	21	stimuli_target_diamondrectangles.svg	stimuli_distractor_trianglediamonds.svg	19	yes	pa	1	730	6	4	antiphase_hc_sio.wav	1	6	5	noise_calib_stim_RIGHT.wav	2	35	blb_dichoticlistening_ta-pa.mp3	ta	pa	1	right
6.6.1	win	2023-07-10	14:08:38	14:19:42	660395	5638d3a544e8c8000ee869a2	3	1	DL_test	23	DL_test	22	stimuli_target_diamondrectangles.svg	stimuli_distractor_trianglediamonds.svg	19	yes	pa	1	690	6	4	antiphase_hc_sio.wav	1	6	5	noise_calib_stim_RIGHT.wav	2	23	blb_dichoticlistening_ka-pa.mp3	ka	pa	1	right
6.6.1	win	2023-07-10	14:08:38	14:19:42	660395	5638d3a544e8c8000ee869a2	3	1	DL_test	23	DL_test	23	stimuli_target_diamondrectangles.svg	stimuli_distractor_trianglediamonds.svg	19	yes	pa	1	641	6	4	antiphase_hc_sio.wav	1	6	5	noise_calib_stim_RIGHT.wav	2	29	blb_dichoticlistening_pa-pa.mp3	pa	pa	0	left
6.6.1	win	2023-07-10	14:08:38	14:19:42	660395	5638d3a544e8c8000ee869a2	3	1	DL_test	23	DL_test	24	stimuli_target_diamondrectangles.svg	stimuli_distractor_trianglediamonds.svg	19	yes	pa	1	630	6	4	antiphase_hc_sio.wav	1	6	5	noise_calib_stim_RIGHT.wav	2	11	blb_dichoticlistening_da-pa.mp3	da	pa	1	right
6.6.1	win	2023-07-10	14:08:38	14:19:42	660395	5638d3a544e8c8000ee869a2	3	1	DL_test	23	DL_test	25	stimuli_target_diamondrectangles.svg	stimuli_distractor_trianglediamonds.svg	19	yes	ba	1	1508	6	4	antiphase_hc_sio.wav	1	6	5	noise_calib_stim_RIGHT.wav	2	13	blb_dichoticlistening_ga-ba.mp3	ga	ba	1	right
6.6.1	win	2023-07-10	14:08:38	14:19:42	660395	5638d3a544e8c8000ee869a2	3	1	DL_test	23	DL_test	26	stimuli_target_diamondrectangles.svg	stimuli_distractor_trianglediamonds.svg	19	yes	ka	1	1083	6	4	antiphase_hc_sio.wav	1	6	5	noise_calib_stim_RIGHT.wav	2	16	blb_dichoticlistening_ga-ka.mp3	ga	ka	1	right
