build	computer.platform	date	time	timestamp	time_elapsed_ms	subject	group	session	blockcode	blocknum	trialcode	trialnum	stimulus_left	stimulus_right	stim_index	target_present	response	correct	latency	headphonecheck_countTestTrials	headphonecheck_index	headphonecheck_testSound	headphonecheck_correctResponse	stereocheck_countTestTrials	stereocheck_index	stereocheck_testSound	stereocheck_correctResponse	DL_index	DL_soundfile	DL_leftSound	DL_rightSound	DL_dualSound	DL_choice
6.6.1	win	2023-06-02	02:07:43	02:09:04	72747	61413568af671b4a3f59aa8a	4	1	practice_z	5	practice_z	1	stimuli_distractor_diamondtriangles.svg	stimuli_distractor_diamondtriangles.svg	13	no	0	1	2000	0	0			0	0			1				0	
6.6.1	win	2023-06-02	02:07:43	02:09:04	72747	61413568af671b4a3f59aa8a	4	1	practice_z	5	advance_on_keypress_ZEE	2	stimuli_distractor_diamondtriangles.svg	stimuli_distractor_diamondtriangles.svg	13	no	57	0	513	0	0			0	0			1				0	
6.6.1	win	2023-06-02	02:07:43	02:09:07	75464	61413568af671b4a3f59aa8a	4	1	practice_z	5	practice_z	3	stimuli_target_diamondsquares.svg	stimuli_distractor_diamondtriangles.svg	3	yes	44	1	516	0	0			0	0			1				0	
6.6.1	win	2023-06-02	02:07:43	02:09:07	75464	61413568af671b4a3f59aa8a	4	1	practice_z	5	advance_on_keypress_ZEE	4	stimuli_target_diamondsquares.svg	stimuli_distractor_diamondtriangles.svg	3	yes	57	0	462	0	0			0	0			1				0	
6.6.1	win	2023-06-02	02:07:43	02:09:09	78009	61413568af671b4a3f59aa8a	4	1	practice_z	5	practice_z	5	stimuli_distractor_trianglediamonds.svg	stimuli_target_squarediamonds.svg	11	yes	44	1	408	0	0			0	0			1				0	
6.6.1	win	2023-06-02	02:07:43	02:09:09	78009	61413568af671b4a3f59aa8a	4	1	practice_z	5	advance_on_keypress_ZEE	6	stimuli_distractor_trianglediamonds.svg	stimuli_target_squarediamonds.svg	11	yes	57	0	488	0	0			0	0			1				0	
6.6.1	win	2023-06-02	02:07:43	02:09:12	80560	61413568af671b4a3f59aa8a	4	1	practice_z	5	practice_z	7	stimuli_distractor_trianglediamonds.svg	stimuli_target_rectanglediamonds.svg	10	yes	44	1	395	0	0			0	0			1				0	
6.6.1	win	2023-06-02	02:07:43	02:09:12	80560	61413568af671b4a3f59aa8a	4	1	practice_z	5	advance_on_keypress_ZEE	8	stimuli_distractor_trianglediamonds.svg	stimuli_target_rectanglediamonds.svg	10	yes	57	0	442	0	0			0	0			1				0	
6.6.1	win	2023-06-02	02:07:43	02:09:14	83073	61413568af671b4a3f59aa8a	4	1	practice_z	5	practice_z	9	stimuli_distractor_diamondtriangles.svg	stimuli_target_trianglerectangles.svg	9	yes	44	1	406	0	0			0	0			1				0	
6.6.1	win	2023-06-02	02:07:43	02:09:14	83073	61413568af671b4a3f59aa8a	4	1	practice_z	5	advance_on_keypress_ZEE	10	stimuli_distractor_diamondtriangles.svg	stimuli_target_trianglerectangles.svg	9	yes	57	0	338	0	0			0	0			1				0	
6.6.1	win	2023-06-02	02:07:43	02:09:17	85752	61413568af671b4a3f59aa8a	4	1	practice_z	5	practice_z	11	stimuli_distractor_trianglediamonds.svg	stimuli_distractor_diamondtriangles.svg	16	no	44	0	669	0	0			0	0			1				0	
6.6.1	win	2023-06-02	02:07:43	02:09:17	85752	61413568af671b4a3f59aa8a	4	1	practice_z	5	advance_on_keypress_ZEE	12	stimuli_distractor_trianglediamonds.svg	stimuli_distractor_diamondtriangles.svg	16	no	57	0	505	0	0			0	0			1				0	
6.6.1	win	2023-06-02	02:07:43	02:09:19	88297	61413568af671b4a3f59aa8a	4	1	practice_z	5	practice_z	13	stimuli_target_squarediamonds.svg	stimuli_distractor_trianglediamonds.svg	5	yes	44	1	363	0	0			0	0			1				0	
6.6.1	win	2023-06-02	02:07:43	02:09:19	88297	61413568af671b4a3f59aa8a	4	1	practice_z	5	advance_on_keypress_ZEE	14	stimuli_target_squarediamonds.svg	stimuli_distractor_trianglediamonds.svg	5	yes	57	0	473	0	0			0	0			1				0	
6.6.1	win	2023-06-02	02:07:43	02:09:22	90881	61413568af671b4a3f59aa8a	4	1	practice_z	5	practice_z	15	stimuli_target_diamondsquares.svg	stimuli_distractor_trianglediamonds.svg	6	yes	44	1	447	0	0			0	0			1				0	
6.6.1	win	2023-06-02	02:07:43	02:09:22	90881	61413568af671b4a3f59aa8a	4	1	practice_z	5	advance_on_keypress_ZEE	16	stimuli_target_diamondsquares.svg	stimuli_distractor_trianglediamonds.svg	6	yes	57	0	620	0	0			0	0			1				0	
6.6.1	win	2023-06-02	02:07:43	02:09:25	93529	61413568af671b4a3f59aa8a	4	1	practice_z	5	practice_z	17	stimuli_distractor_trianglediamonds.svg	stimuli_target_diamondrectangles.svg	12	yes	44	1	361	0	0			0	0			1				0	
6.6.1	win	2023-06-02	02:07:43	02:09:25	93529	61413568af671b4a3f59aa8a	4	1	practice_z	5	advance_on_keypress_ZEE	18	stimuli_distractor_trianglediamonds.svg	stimuli_target_diamondrectangles.svg	12	yes	57	0	481	0	0			0	0			1				0	
6.6.1	win	2023-06-02	02:07:43	02:09:29	97677	61413568af671b4a3f59aa8a	4	1	practice_z	5	practice_z	19	stimuli_distractor_trianglediamonds.svg	stimuli_distractor_trianglediamonds.svg	15	no	0	1	2000	0	0			0	0			1				0	
6.6.1	win	2023-06-02	02:07:43	02:09:29	97677	61413568af671b4a3f59aa8a	4	1	practice_z	5	advance_on_keypress_ZEE	20	stimuli_distractor_trianglediamonds.svg	stimuli_distractor_trianglediamonds.svg	15	no	57	0	747	0	0			0	0			1				0	
6.6.1	win	2023-06-02	02:07:43	02:09:32	100528	61413568af671b4a3f59aa8a	4	1	practice_z	5	practice_z	21	stimuli_target_squarediamonds.svg	stimuli_distractor_diamondtriangles.svg	2	yes	44	1	440	0	0			0	0			1				0	
6.6.1	win	2023-06-02	02:07:43	02:09:32	100528	61413568af671b4a3f59aa8a	4	1	practice_z	5	advance_on_keypress_ZEE	22	stimuli_target_squarediamonds.svg	stimuli_distractor_diamondtriangles.svg	2	yes	57	0	416	0	0			0	0			1				0	
6.6.1	win	2023-06-02	02:07:43	02:09:34	103065	61413568af671b4a3f59aa8a	4	1	practice_z	5	practice_z	23	stimuli_distractor_diamondtriangles.svg	stimuli_distractor_trianglediamonds.svg	14	no	44	0	462	0	0			0	0			1				0	
6.6.1	win	2023-06-02	02:07:43	02:09:34	103065	61413568af671b4a3f59aa8a	4	1	practice_z	5	advance_on_keypress_ZEE	24	stimuli_distractor_diamondtriangles.svg	stimuli_distractor_trianglediamonds.svg	14	no	57	0	416	0	0			0	0			1				0	
6.6.1	win	2023-06-02	02:07:43	02:09:37	105480	61413568af671b4a3f59aa8a	4	1	practice_z	5	practice_z	25	stimuli_target_rectanglediamonds.svg	stimuli_distractor_diamondtriangles.svg	1	yes	44	1	328	0	0			0	0			1				0	
6.6.1	win	2023-06-02	02:07:43	02:09:37	105480	61413568af671b4a3f59aa8a	4	1	practice_z	5	advance_on_keypress_ZEE	26	stimuli_target_rectanglediamonds.svg	stimuli_distractor_diamondtriangles.svg	1	yes	57	0	410	0	0			0	0			1				0	
6.6.1	win	2023-06-02	02:07:43	02:09:39	107979	61413568af671b4a3f59aa8a	4	1	practice_z	5	practice_z	27	stimuli_distractor_diamondtriangles.svg	stimuli_target_diamondrectangles.svg	8	yes	44	1	423	0	0			0	0			1				0	
6.6.1	win	2023-06-02	02:07:43	02:09:39	107979	61413568af671b4a3f59aa8a	4	1	practice_z	5	advance_on_keypress_ZEE	28	stimuli_distractor_diamondtriangles.svg	stimuli_target_diamondrectangles.svg	8	yes	57	0	285	0	0			0	0			1				0	
6.6.1	win	2023-06-02	02:07:43	02:09:41	110273	61413568af671b4a3f59aa8a	4	1	practice_z	5	practice_z	29	stimuli_target_rectanglediamonds.svg	stimuli_distractor_trianglediamonds.svg	4	yes	44	1	337	0	0			0	0			1				0	
6.6.1	win	2023-06-02	02:07:43	02:09:41	110273	61413568af671b4a3f59aa8a	4	1	practice_z	5	advance_on_keypress_ZEE	30	stimuli_target_rectanglediamonds.svg	stimuli_distractor_trianglediamonds.svg	4	yes	57	0	368	0	0			0	0			1				0	
6.6.1	win	2023-06-02	02:07:43	02:09:44	112737	61413568af671b4a3f59aa8a	4	1	practice_z	5	practice_z	31	stimuli_distractor_diamondtriangles.svg	stimuli_target_rectangletriangles.svg	7	yes	44	1	415	0	0			0	0			1				0	
6.6.1	win	2023-06-02	02:07:43	02:09:44	112737	61413568af671b4a3f59aa8a	4	1	practice_z	5	advance_on_keypress_ZEE	32	stimuli_distractor_diamondtriangles.svg	stimuli_target_rectangletriangles.svg	7	yes	57	0	335	0	0			0	0			1				0	
6.6.1	win	2023-06-02	02:07:43	02:09:49	118052	61413568af671b4a3f59aa8a	4	1	main_z	7	main_z	1	stimuli_distractor_diamondtriangles.svg	stimuli_target_squarediamonds.svg	16	yes	44	1	353	0	0			0	0			1				0	
6.6.1	win	2023-06-02	02:07:43	02:09:49	118052	61413568af671b4a3f59aa8a	4	1	main_z	7	advance_on_keypress_ZEE	2	stimuli_distractor_diamondtriangles.svg	stimuli_target_squarediamonds.svg	16	yes	57	0	489	0	0			0	0			1				0	
6.6.1	win	2023-06-02	02:07:43	02:09:51	119548	61413568af671b4a3f59aa8a	4	1	main_z	7	main_z	3	stimuli_distractor_trianglediamonds.svg	stimuli_target_rectanglediamonds.svg	10	yes	44	1	332	0	0			0	0			1				0	
6.6.1	win	2023-06-02	02:07:43	02:09:51	119548	61413568af671b4a3f59aa8a	4	1	main_z	7	advance_on_keypress_ZEE	4	stimuli_distractor_trianglediamonds.svg	stimuli_target_rectanglediamonds.svg	10	yes	57	0	470	0	0			0	0			1				0	
6.6.1	win	2023-06-02	02:07:43	02:09:52	121100	61413568af671b4a3f59aa8a	4	1	main_z	7	main_z	5	stimuli_distractor_trianglediamonds.svg	stimuli_target_trianglerectangles.svg	25	yes	44	1	434	0	0			0	0			1				0	
6.6.1	win	2023-06-02	02:07:43	02:09:52	121100	61413568af671b4a3f59aa8a	4	1	main_z	7	advance_on_keypress_ZEE	6	stimuli_distractor_trianglediamonds.svg	stimuli_target_trianglerectangles.svg	25	yes	57	0	408	0	0			0	0			1				0	
6.6.1	win	2023-06-02	02:07:43	02:09:54	122556	61413568af671b4a3f59aa8a	4	1	main_z	7	main_z	7	stimuli_target_squaretriangles.svg	stimuli_distractor_trianglediamonds.svg	3	yes	44	1	390	0	0			0	0			1				0	
6.6.1	win	2023-06-02	02:07:43	02:09:54	122556	61413568af671b4a3f59aa8a	4	1	main_z	7	advance_on_keypress_ZEE	8	stimuli_target_squaretriangles.svg	stimuli_distractor_trianglediamonds.svg	3	yes	57	0	389	0	0			0	0			1				0	
6.6.1	win	2023-06-02	02:07:43	02:09:55	123998	61413568af671b4a3f59aa8a	4	1	main_z	7	main_z	9	stimuli_distractor_diamondtriangles.svg	stimuli_target_rectangletriangles.svg	13	yes	44	1	379	0	0			0	0			1				0	
6.6.1	win	2023-06-02	02:07:43	02:09:55	123998	61413568af671b4a3f59aa8a	4	1	main_z	7	advance_on_keypress_ZEE	10	stimuli_distractor_diamondtriangles.svg	stimuli_target_rectangletriangles.svg	13	yes	57	0	371	0	0			0	0			1				0	
6.6.1	win	2023-06-02	02:07:43	02:09:56	125276	61413568af671b4a3f59aa8a	4	1	main_z	7	main_z	11	stimuli_distractor_trianglediamonds.svg	stimuli_distractor_diamondtriangles.svg	35	no	44	0	259	0	0			0	0			1				0	
6.6.1	win	2023-06-02	02:07:43	02:09:56	125276	61413568af671b4a3f59aa8a	4	1	main_z	7	advance_on_keypress_ZEE	12	stimuli_distractor_trianglediamonds.svg	stimuli_distractor_diamondtriangles.svg	35	no	57	0	528	0	0			0	0			1				0	
6.6.1	win	2023-06-02	02:07:43	02:09:58	126908	61413568af671b4a3f59aa8a	4	1	main_z	7	main_z	13	stimuli_target_trianglesquares.svg	stimuli_distractor_trianglediamonds.svg	18	yes	44	1	441	0	0			0	0			1				0	
6.6.1	win	2023-06-02	02:07:43	02:09:58	126908	61413568af671b4a3f59aa8a	4	1	main_z	7	advance_on_keypress_ZEE	14	stimuli_target_trianglesquares.svg	stimuli_distractor_trianglediamonds.svg	18	yes	57	0	390	0	0			0	0			1				0	
6.6.1	win	2023-06-02	02:07:43	02:09:59	128420	61413568af671b4a3f59aa8a	4	1	main_z	7	main_z	15	stimuli_target_diamondrectangles.svg	stimuli_distractor_diamondtriangles.svg	23	yes	44	1	453	0	0			0	0			1				0	
6.6.1	win	2023-06-02	02:07:43	02:09:59	128420	61413568af671b4a3f59aa8a	4	1	main_z	7	advance_on_keypress_ZEE	16	stimuli_target_diamondrectangles.svg	stimuli_distractor_diamondtriangles.svg	23	yes	57	0	410	0	0			0	0			1				0	
6.6.1	win	2023-06-02	02:07:43	02:10:01	129916	61413568af671b4a3f59aa8a	4	1	main_z	7	main_z	17	stimuli_distractor_diamondtriangles.svg	stimuli_target_trianglesquares.svg	30	yes	44	1	432	0	0			0	0			1				0	
6.6.1	win	2023-06-02	02:07:43	02:10:01	129916	61413568af671b4a3f59aa8a	4	1	main_z	7	advance_on_keypress_ZEE	18	stimuli_distractor_diamondtriangles.svg	stimuli_target_trianglesquares.svg	30	yes	57	0	414	0	0			0	0			1				0	
6.6.1	win	2023-06-02	02:07:43	02:10:02	131412	61413568af671b4a3f59aa8a	4	1	main_z	7	main_z	19	stimuli_distractor_diamondtriangles.svg	stimuli_target_trianglerectangles.svg	29	yes	44	1	427	0	0			0	0			1				0	
6.6.1	win	2023-06-02	02:07:43	02:10:02	131412	61413568af671b4a3f59aa8a	4	1	main_z	7	advance_on_keypress_ZEE	20	stimuli_distractor_diamondtriangles.svg	stimuli_target_trianglerectangles.svg	29	yes	57	0	385	0	0			0	0			1				0	
6.6.1	win	2023-06-02	02:07:43	02:10:04	132804	61413568af671b4a3f59aa8a	4	1	main_z	7	main_z	21	stimuli_target_squarediamonds.svg	stimuli_distractor_trianglediamonds.svg	4	yes	44	1	353	0	0			0	0			1				0	
6.6.1	win	2023-06-02	02:07:43	02:10:04	132804	61413568af671b4a3f59aa8a	4	1	main_z	7	advance_on_keypress_ZEE	22	stimuli_target_squarediamonds.svg	stimuli_distractor_trianglediamonds.svg	4	yes	57	0	450	0	0			0	0			1				0	
6.6.1	win	2023-06-02	02:07:43	02:10:06	134433	61413568af671b4a3f59aa8a	4	1	main_z	7	main_z	23	stimuli_distractor_trianglediamonds.svg	stimuli_target_squaretriangles.svg	11	yes	44	1	508	0	0			0	0			1				0	
6.6.1	win	2023-06-02	02:07:43	02:10:06	134433	61413568af671b4a3f59aa8a	4	1	main_z	7	advance_on_keypress_ZEE	24	stimuli_distractor_trianglediamonds.svg	stimuli_target_squaretriangles.svg	11	yes	57	0	601	0	0			0	0			1				0	
6.6.1	win	2023-06-02	02:07:43	02:10:07	136408	61413568af671b4a3f59aa8a	4	1	main_z	7	main_z	25	stimuli_distractor_trianglediamonds.svg	stimuli_target_diamondrectangles.svg	27	yes	44	1	719	0	0			0	0			1				0	
6.6.1	win	2023-06-02	02:07:43	02:10:07	136408	61413568af671b4a3f59aa8a	4	1	main_z	7	advance_on_keypress_ZEE	26	stimuli_distractor_trianglediamonds.svg	stimuli_target_diamondrectangles.svg	27	yes	57	0	441	0	0			0	0			1				0	
6.6.1	win	2023-06-02	02:07:43	02:10:09	137941	61413568af671b4a3f59aa8a	4	1	main_z	7	main_z	27	stimuli_distractor_diamondtriangles.svg	stimuli_target_squaretriangles.svg	15	yes	44	1	438	0	0			0	0			1				0	
6.6.1	win	2023-06-02	02:07:43	02:10:09	137941	61413568af671b4a3f59aa8a	4	1	main_z	7	advance_on_keypress_ZEE	28	stimuli_distractor_diamondtriangles.svg	stimuli_target_squaretriangles.svg	15	yes	57	0	389	0	0			0	0			1				0	
6.6.1	win	2023-06-02	02:07:43	02:10:10	139405	61413568af671b4a3f59aa8a	4	1	main_z	7	main_z	29	stimuli_distractor_trianglediamonds.svg	stimuli_target_diamondsquares.svg	28	yes	44	1	419	0	0			0	0			1				0	
6.6.1	win	2023-06-02	02:07:43	02:10:10	139405	61413568af671b4a3f59aa8a	4	1	main_z	7	advance_on_keypress_ZEE	30	stimuli_distractor_trianglediamonds.svg	stimuli_target_diamondsquares.svg	28	yes	57	0	434	0	0			0	0			1				0	
6.6.1	win	2023-06-02	02:07:43	02:10:14	142505	61413568af671b4a3f59aa8a	4	1	main_z	7	main_z	31	stimuli_distractor_diamondtriangles.svg	stimuli_distractor_diamondtriangles.svg	40	no	0	1	2000	0	0			0	0			1				0	
6.6.1	win	2023-06-02	02:07:43	02:10:14	142505	61413568af671b4a3f59aa8a	4	1	main_z	7	advance_on_keypress_ZEE	32	stimuli_distractor_diamondtriangles.svg	stimuli_distractor_diamondtriangles.svg	40	no	57	0	342	0	0			0	0			1				0	
6.6.1	win	2023-06-02	02:07:43	02:10:15	144017	61413568af671b4a3f59aa8a	4	1	main_z	7	main_z	33	stimuli_distractor_diamondtriangles.svg	stimuli_target_diamondrectangles.svg	31	yes	44	1	510	0	0			0	0			1				0	
6.6.1	win	2023-06-02	02:07:43	02:10:15	144017	61413568af671b4a3f59aa8a	4	1	main_z	7	advance_on_keypress_ZEE	34	stimuli_distractor_diamondtriangles.svg	stimuli_target_diamondrectangles.svg	31	yes	57	0	417	0	0			0	0			1				0	
6.6.1	win	2023-06-02	02:07:43	02:10:17	145601	61413568af671b4a3f59aa8a	4	1	main_z	7	main_z	35	stimuli_distractor_diamondtriangles.svg	stimuli_target_diamondsquares.svg	32	yes	44	1	508	0	0			0	0			1				0	
6.6.1	win	2023-06-02	02:07:43	02:10:17	145601	61413568af671b4a3f59aa8a	4	1	main_z	7	advance_on_keypress_ZEE	36	stimuli_distractor_diamondtriangles.svg	stimuli_target_diamondsquares.svg	32	yes	57	0	361	0	0			0	0			1				0	
6.6.1	win	2023-06-02	02:07:43	02:10:18	147135	61413568af671b4a3f59aa8a	4	1	main_z	7	main_z	37	stimuli_distractor_trianglediamonds.svg	stimuli_target_rectangletriangles.svg	9	yes	44	1	513	0	0			0	0			1				0	
6.6.1	win	2023-06-02	02:07:43	02:10:18	147135	61413568af671b4a3f59aa8a	4	1	main_z	7	advance_on_keypress_ZEE	38	stimuli_distractor_trianglediamonds.svg	stimuli_target_rectangletriangles.svg	9	yes	57	0	348	0	0			0	0			1				0	
6.6.1	win	2023-06-02	02:07:43	02:10:20	148702	61413568af671b4a3f59aa8a	4	1	main_z	7	main_z	39	stimuli_distractor_diamondtriangles.svg	stimuli_distractor_trianglediamonds.svg	38	no	44	0	564	0	0			0	0			1				0	
6.6.1	win	2023-06-02	02:07:43	02:10:20	148702	61413568af671b4a3f59aa8a	4	1	main_z	7	advance_on_keypress_ZEE	40	stimuli_distractor_diamondtriangles.svg	stimuli_distractor_trianglediamonds.svg	38	no	57	0	701	0	0			0	0			1				0	
6.6.1	win	2023-06-02	02:07:43	02:10:22	150710	61413568af671b4a3f59aa8a	4	1	main_z	7	main_z	41	stimuli_target_rectangletriangles.svg	stimuli_distractor_diamondtriangles.svg	5	yes	44	1	652	0	0			0	0			1				0	
6.6.1	win	2023-06-02	02:07:43	02:10:22	150710	61413568af671b4a3f59aa8a	4	1	main_z	7	advance_on_keypress_ZEE	42	stimuli_target_rectangletriangles.svg	stimuli_distractor_diamondtriangles.svg	5	yes	57	0	413	0	0			0	0			1				0	
6.6.1	win	2023-06-02	02:07:43	02:10:24	152438	61413568af671b4a3f59aa8a	4	1	main_z	7	main_z	43	stimuli_target_trianglerectangles.svg	stimuli_distractor_trianglediamonds.svg	17	yes	44	1	666	0	0			0	0			1				0	
6.6.1	win	2023-06-02	02:07:43	02:10:24	152438	61413568af671b4a3f59aa8a	4	1	main_z	7	advance_on_keypress_ZEE	44	stimuli_target_trianglerectangles.svg	stimuli_distractor_trianglediamonds.svg	17	yes	57	0	439	0	0			0	0			1				0	
6.6.1	win	2023-06-02	02:07:43	02:10:25	153991	61413568af671b4a3f59aa8a	4	1	main_z	7	main_z	45	stimuli_target_diamondrectangles.svg	stimuli_distractor_trianglediamonds.svg	19	yes	44	1	451	0	0			0	0			1				0	
6.6.1	win	2023-06-02	02:07:43	02:10:25	153991	61413568af671b4a3f59aa8a	4	1	main_z	7	advance_on_keypress_ZEE	46	stimuli_target_diamondrectangles.svg	stimuli_distractor_trianglediamonds.svg	19	yes	57	0	441	0	0			0	0			1				0	
6.6.1	win	2023-06-02	02:07:43	02:10:27	155541	61413568af671b4a3f59aa8a	4	1	main_z	7	main_z	47	stimuli_distractor_diamondtriangles.svg	stimuli_distractor_trianglediamonds.svg	37	no	44	0	453	0	0			0	0			1				0	
6.6.1	win	2023-06-02	02:07:43	02:10:27	155541	61413568af671b4a3f59aa8a	4	1	main_z	7	advance_on_keypress_ZEE	48	stimuli_distractor_diamondtriangles.svg	stimuli_distractor_trianglediamonds.svg	37	no	57	0	538	0	0			0	0			1				0	
6.6.1	win	2023-06-02	02:07:43	02:10:28	157166	61413568af671b4a3f59aa8a	4	1	main_z	7	main_z	49	stimuli_target_rectanglediamonds.svg	stimuli_distractor_trianglediamonds.svg	2	yes	44	1	442	0	0			0	0			1				0	
6.6.1	win	2023-06-02	02:07:43	02:10:28	157166	61413568af671b4a3f59aa8a	4	1	main_z	7	advance_on_keypress_ZEE	50	stimuli_target_rectanglediamonds.svg	stimuli_distractor_trianglediamonds.svg	2	yes	57	0	361	0	0			0	0			1				0	
6.6.1	win	2023-06-02	02:07:43	02:10:30	158630	61413568af671b4a3f59aa8a	4	1	main_z	7	main_z	51	stimuli_target_rectangletriangles.svg	stimuli_distractor_trianglediamonds.svg	1	yes	44	1	441	0	0			0	0			1				0	
6.6.1	win	2023-06-02	02:07:43	02:10:30	158630	61413568af671b4a3f59aa8a	4	1	main_z	7	advance_on_keypress_ZEE	52	stimuli_target_rectangletriangles.svg	stimuli_distractor_trianglediamonds.svg	1	yes	57	0	310	0	0			0	0			1				0	
6.6.1	win	2023-06-02	02:07:43	02:10:33	161609	61413568af671b4a3f59aa8a	4	1	main_z	7	main_z	53	stimuli_distractor_diamondtriangles.svg	stimuli_distractor_diamondtriangles.svg	39	no	0	1	2000	0	0			0	0			1				0	
6.6.1	win	2023-06-02	02:07:43	02:10:33	161609	61413568af671b4a3f59aa8a	4	1	main_z	7	advance_on_keypress_ZEE	54	stimuli_distractor_diamondtriangles.svg	stimuli_distractor_diamondtriangles.svg	39	no	57	0	375	0	0			0	0			1				0	
6.6.1	win	2023-06-02	02:07:43	02:10:34	163063	61413568af671b4a3f59aa8a	4	1	main_z	7	main_z	55	stimuli_target_diamondsquares.svg	stimuli_distractor_trianglediamonds.svg	20	yes	44	1	422	0	0			0	0			1				0	
6.6.1	win	2023-06-02	02:07:43	02:10:34	163063	61413568af671b4a3f59aa8a	4	1	main_z	7	advance_on_keypress_ZEE	56	stimuli_target_diamondsquares.svg	stimuli_distractor_trianglediamonds.svg	20	yes	57	0	444	0	0			0	0			1				0	
6.6.1	win	2023-06-02	02:07:43	02:10:37	166175	61413568af671b4a3f59aa8a	4	1	main_z	7	main_z	57	stimuli_distractor_trianglediamonds.svg	stimuli_distractor_trianglediamonds.svg	34	no	0	1	2000	0	0			0	0			1				0	
6.6.1	win	2023-06-02	02:07:43	02:10:37	166175	61413568af671b4a3f59aa8a	4	1	main_z	7	advance_on_keypress_ZEE	58	stimuli_distractor_trianglediamonds.svg	stimuli_distractor_trianglediamonds.svg	34	no	57	0	304	0	0			0	0			1				0	
6.6.1	win	2023-06-02	02:07:43	02:10:40	169123	61413568af671b4a3f59aa8a	4	1	main_z	7	main_z	59	stimuli_distractor_trianglediamonds.svg	stimuli_distractor_diamondtriangles.svg	36	no	0	1	2000	0	0			0	0			1				0	
6.6.1	win	2023-06-02	02:07:43	02:10:40	169123	61413568af671b4a3f59aa8a	4	1	main_z	7	advance_on_keypress_ZEE	60	stimuli_distractor_trianglediamonds.svg	stimuli_distractor_diamondtriangles.svg	36	no	57	0	257	0	0			0	0			1				0	
6.6.1	win	2023-06-02	02:07:43	02:10:41	170391	61413568af671b4a3f59aa8a	4	1	main_z	7	main_z	61	stimuli_target_squaretriangles.svg	stimuli_distractor_diamondtriangles.svg	7	yes	44	1	337	0	0			0	0			1				0	
6.6.1	win	2023-06-02	02:07:43	02:10:41	170391	61413568af671b4a3f59aa8a	4	1	main_z	7	advance_on_keypress_ZEE	62	stimuli_target_squaretriangles.svg	stimuli_distractor_diamondtriangles.svg	7	yes	57	0	398	0	0			0	0			1				0	
6.6.1	win	2023-06-02	02:07:43	02:10:43	171798	61413568af671b4a3f59aa8a	4	1	main_z	7	main_z	63	stimuli_distractor_diamondtriangles.svg	stimuli_target_rectanglediamonds.svg	14	yes	44	1	341	0	0			0	0			1				0	
6.6.1	win	2023-06-02	02:07:43	02:10:43	171798	61413568af671b4a3f59aa8a	4	1	main_z	7	advance_on_keypress_ZEE	64	stimuli_distractor_diamondtriangles.svg	stimuli_target_rectanglediamonds.svg	14	yes	57	0	358	0	0			0	0			1				0	
6.6.1	win	2023-06-02	02:07:43	02:10:44	173305	61413568af671b4a3f59aa8a	4	1	main_z	7	main_z	65	stimuli_target_trianglesquares.svg	stimuli_distractor_diamondtriangles.svg	22	yes	44	1	478	0	0			0	0			1				0	
6.6.1	win	2023-06-02	02:07:43	02:10:44	173305	61413568af671b4a3f59aa8a	4	1	main_z	7	advance_on_keypress_ZEE	66	stimuli_target_trianglesquares.svg	stimuli_distractor_diamondtriangles.svg	22	yes	57	0	370	0	0			0	0			1				0	
6.6.1	win	2023-06-02	02:07:43	02:10:46	174722	61413568af671b4a3f59aa8a	4	1	main_z	7	main_z	67	stimuli_target_rectanglediamonds.svg	stimuli_distractor_diamondtriangles.svg	6	yes	44	1	359	0	0			0	0			1				0	
6.6.1	win	2023-06-02	02:07:43	02:10:46	174722	61413568af671b4a3f59aa8a	4	1	main_z	7	advance_on_keypress_ZEE	68	stimuli_target_rectanglediamonds.svg	stimuli_distractor_diamondtriangles.svg	6	yes	57	0	385	0	0			0	0			1				0	
6.6.1	win	2023-06-02	02:07:43	02:10:47	176207	61413568af671b4a3f59aa8a	4	1	main_z	7	main_z	69	stimuli_distractor_trianglediamonds.svg	stimuli_distractor_trianglediamonds.svg	33	no	44	0	445	0	0			0	0			1				0	
6.6.1	win	2023-06-02	02:07:43	02:10:47	176207	61413568af671b4a3f59aa8a	4	1	main_z	7	advance_on_keypress_ZEE	70	stimuli_distractor_trianglediamonds.svg	stimuli_distractor_trianglediamonds.svg	33	no	57	0	542	0	0			0	0			1				0	
6.6.1	win	2023-06-02	02:07:43	02:10:49	177815	61413568af671b4a3f59aa8a	4	1	main_z	7	main_z	71	stimuli_distractor_trianglediamonds.svg	stimuli_target_squarediamonds.svg	12	yes	44	1	404	0	0			0	0			1				0	
6.6.1	win	2023-06-02	02:07:43	02:10:49	177815	61413568af671b4a3f59aa8a	4	1	main_z	7	advance_on_keypress_ZEE	72	stimuli_distractor_trianglediamonds.svg	stimuli_target_squarediamonds.svg	12	yes	57	0	349	0	0			0	0			1				0	
6.6.1	win	2023-06-02	02:07:43	02:10:50	179239	61413568af671b4a3f59aa8a	4	1	main_z	7	main_z	73	stimuli_target_squarediamonds.svg	stimuli_distractor_diamondtriangles.svg	8	yes	44	1	413	0	0			0	0			1				0	
6.6.1	win	2023-06-02	02:07:43	02:10:50	179239	61413568af671b4a3f59aa8a	4	1	main_z	7	advance_on_keypress_ZEE	74	stimuli_target_squarediamonds.svg	stimuli_distractor_diamondtriangles.svg	8	yes	57	0	340	0	0			0	0			1				0	
6.6.1	win	2023-06-02	02:07:43	02:10:52	180791	61413568af671b4a3f59aa8a	4	1	main_z	7	main_z	75	stimuli_target_diamondsquares.svg	stimuli_distractor_diamondtriangles.svg	24	yes	44	1	549	0	0			0	0			1				0	
6.6.1	win	2023-06-02	02:07:43	02:10:52	180791	61413568af671b4a3f59aa8a	4	1	main_z	7	advance_on_keypress_ZEE	76	stimuli_target_diamondsquares.svg	stimuli_distractor_diamondtriangles.svg	24	yes	57	0	357	0	0			0	0			1				0	
6.6.1	win	2023-06-02	02:07:43	02:10:53	182234	61413568af671b4a3f59aa8a	4	1	main_z	7	main_z	77	stimuli_target_trianglerectangles.svg	stimuli_distractor_diamondtriangles.svg	21	yes	44	1	382	0	0			0	0			1				0	
6.6.1	win	2023-06-02	02:07:43	02:10:53	182234	61413568af671b4a3f59aa8a	4	1	main_z	7	advance_on_keypress_ZEE	78	stimuli_target_trianglerectangles.svg	stimuli_distractor_diamondtriangles.svg	21	yes	57	0	332	0	0			0	0			1				0	
6.6.1	win	2023-06-02	02:07:43	02:10:55	183647	61413568af671b4a3f59aa8a	4	1	main_z	7	main_z	79	stimuli_distractor_trianglediamonds.svg	stimuli_target_trianglesquares.svg	26	yes	44	1	420	0	0			0	0			1				0	
6.6.1	win	2023-06-02	02:07:43	02:10:55	183647	61413568af671b4a3f59aa8a	4	1	main_z	7	advance_on_keypress_ZEE	80	stimuli_distractor_trianglediamonds.svg	stimuli_target_trianglesquares.svg	26	yes	57	0	360	0	0			0	0			1				0	
6.6.1	win	2023-06-02	02:07:43	02:10:56	185127	61413568af671b4a3f59aa8a	4	1	main_z	7	main_z	81	stimuli_distractor_diamondtriangles.svg	stimuli_target_trianglerectangles.svg	29	yes	44	1	464	0	0			0	0			1				0	
6.6.1	win	2023-06-02	02:07:43	02:10:56	185127	61413568af671b4a3f59aa8a	4	1	main_z	7	advance_on_keypress_ZEE	82	stimuli_distractor_diamondtriangles.svg	stimuli_target_trianglerectangles.svg	29	yes	57	0	264	0	0			0	0			1				0	
6.6.1	win	2023-06-02	02:07:43	02:10:58	186592	61413568af671b4a3f59aa8a	4	1	main_z	7	main_z	83	stimuli_distractor_diamondtriangles.svg	stimuli_distractor_trianglediamonds.svg	38	no	44	0	548	0	0			0	0			1				0	
6.6.1	win	2023-06-02	02:07:43	02:10:58	186592	61413568af671b4a3f59aa8a	4	1	main_z	7	advance_on_keypress_ZEE	84	stimuli_distractor_diamondtriangles.svg	stimuli_distractor_trianglediamonds.svg	38	no	57	0	333	0	0			0	0			1				0	
6.6.1	win	2023-06-02	02:07:43	02:10:59	188023	61413568af671b4a3f59aa8a	4	1	main_z	7	main_z	85	stimuli_target_diamondrectangles.svg	stimuli_distractor_trianglediamonds.svg	19	yes	44	1	446	0	0			0	0			1				0	
6.6.1	win	2023-06-02	02:07:43	02:10:59	188023	61413568af671b4a3f59aa8a	4	1	main_z	7	advance_on_keypress_ZEE	86	stimuli_target_diamondrectangles.svg	stimuli_distractor_trianglediamonds.svg	19	yes	57	0	283	0	0			0	0			1				0	
6.6.1	win	2023-06-02	02:07:43	02:11:00	189382	61413568af671b4a3f59aa8a	4	1	main_z	7	main_z	87	stimuli_target_diamondrectangles.svg	stimuli_distractor_diamondtriangles.svg	23	yes	44	1	406	0	0			0	0			1				0	
6.6.1	win	2023-06-02	02:07:43	02:11:00	189382	61413568af671b4a3f59aa8a	4	1	main_z	7	advance_on_keypress_ZEE	88	stimuli_target_diamondrectangles.svg	stimuli_distractor_diamondtriangles.svg	23	yes	57	0	277	0	0			0	0			1				0	
6.6.1	win	2023-06-02	02:07:43	02:11:02	190727	61413568af671b4a3f59aa8a	4	1	main_z	7	main_z	89	stimuli_distractor_diamondtriangles.svg	stimuli_target_squarediamonds.svg	16	yes	44	1	400	0	0			0	0			1				0	
6.6.1	win	2023-06-02	02:07:43	02:11:02	190727	61413568af671b4a3f59aa8a	4	1	main_z	7	advance_on_keypress_ZEE	90	stimuli_distractor_diamondtriangles.svg	stimuli_target_squarediamonds.svg	16	yes	57	0	287	0	0			0	0			1				0	
6.6.1	win	2023-06-02	02:07:43	02:11:03	192103	61413568af671b4a3f59aa8a	4	1	main_z	7	main_z	91	stimuli_distractor_trianglediamonds.svg	stimuli_distractor_diamondtriangles.svg	35	no	44	0	440	0	0			0	0			1				0	
6.6.1	win	2023-06-02	02:07:43	02:11:03	192103	61413568af671b4a3f59aa8a	4	1	main_z	7	advance_on_keypress_ZEE	92	stimuli_distractor_trianglediamonds.svg	stimuli_distractor_diamondtriangles.svg	35	no	57	0	528	0	0			0	0			1				0	
6.6.1	win	2023-06-02	02:07:43	02:11:05	193728	61413568af671b4a3f59aa8a	4	1	main_z	7	main_z	93	stimuli_distractor_diamondtriangles.svg	stimuli_target_rectanglediamonds.svg	14	yes	44	1	399	0	0			0	0			1				0	
6.6.1	win	2023-06-02	02:07:43	02:11:05	193728	61413568af671b4a3f59aa8a	4	1	main_z	7	advance_on_keypress_ZEE	94	stimuli_distractor_diamondtriangles.svg	stimuli_target_rectanglediamonds.svg	14	yes	57	0	263	0	0			0	0			1				0	
6.6.1	win	2023-06-02	02:07:43	02:11:06	195063	61413568af671b4a3f59aa8a	4	1	main_z	7	main_z	95	stimuli_target_rectanglediamonds.svg	stimuli_distractor_diamondtriangles.svg	6	yes	44	1	419	0	0			0	0			1				0	
6.6.1	win	2023-06-02	02:07:43	02:11:06	195063	61413568af671b4a3f59aa8a	4	1	main_z	7	advance_on_keypress_ZEE	96	stimuli_target_rectanglediamonds.svg	stimuli_distractor_diamondtriangles.svg	6	yes	57	0	281	0	0			0	0			1				0	
6.6.1	win	2023-06-02	02:07:43	02:11:08	196559	61413568af671b4a3f59aa8a	4	1	main_z	7	main_z	97	stimuli_distractor_diamondtriangles.svg	stimuli_distractor_trianglediamonds.svg	37	no	44	0	548	0	0			0	0			1				0	
6.6.1	win	2023-06-02	02:07:43	02:11:08	196559	61413568af671b4a3f59aa8a	4	1	main_z	7	advance_on_keypress_ZEE	98	stimuli_distractor_diamondtriangles.svg	stimuli_distractor_trianglediamonds.svg	37	no	57	0	518	0	0			0	0			1				0	
6.6.1	win	2023-06-02	02:07:43	02:11:09	198160	61413568af671b4a3f59aa8a	4	1	main_z	7	main_z	99	stimuli_distractor_diamondtriangles.svg	stimuli_target_rectangletriangles.svg	13	yes	44	1	431	0	0			0	0			1				0	
6.6.1	win	2023-06-02	02:07:43	02:11:09	198160	61413568af671b4a3f59aa8a	4	1	main_z	7	advance_on_keypress_ZEE	100	stimuli_distractor_diamondtriangles.svg	stimuli_target_rectangletriangles.svg	13	yes	57	0	525	0	0			0	0			1				0	
6.6.1	win	2023-06-02	02:07:43	02:11:11	199679	61413568af671b4a3f59aa8a	4	1	main_z	7	main_z	101	stimuli_distractor_trianglediamonds.svg	stimuli_target_squarediamonds.svg	12	yes	44	1	335	0	0			0	0			1				0	
6.6.1	win	2023-06-02	02:07:43	02:11:11	199679	61413568af671b4a3f59aa8a	4	1	main_z	7	advance_on_keypress_ZEE	102	stimuli_distractor_trianglediamonds.svg	stimuli_target_squarediamonds.svg	12	yes	57	0	328	0	0			0	0			1				0	
6.6.1	win	2023-06-02	02:07:43	02:11:12	201014	61413568af671b4a3f59aa8a	4	1	main_z	7	main_z	103	stimuli_distractor_trianglediamonds.svg	stimuli_target_rectanglediamonds.svg	10	yes	44	1	353	0	0			0	0			1				0	
6.6.1	win	2023-06-02	02:07:43	02:11:12	201014	61413568af671b4a3f59aa8a	4	1	main_z	7	advance_on_keypress_ZEE	104	stimuli_distractor_trianglediamonds.svg	stimuli_target_rectanglediamonds.svg	10	yes	57	0	283	0	0			0	0			1				0	
6.6.1	win	2023-06-02	02:07:43	02:11:13	202335	61413568af671b4a3f59aa8a	4	1	main_z	7	main_z	105	stimuli_target_rectangletriangles.svg	stimuli_distractor_trianglediamonds.svg	1	yes	44	1	390	0	0			0	0			1				0	
6.6.1	win	2023-06-02	02:07:43	02:11:13	202335	61413568af671b4a3f59aa8a	4	1	main_z	7	advance_on_keypress_ZEE	106	stimuli_target_rectangletriangles.svg	stimuli_distractor_trianglediamonds.svg	1	yes	57	0	246	0	0			0	0			1				0	
6.6.1	win	2023-06-02	02:07:43	02:11:15	203599	61413568af671b4a3f59aa8a	4	1	main_z	7	main_z	107	stimuli_target_rectangletriangles.svg	stimuli_distractor_diamondtriangles.svg	5	yes	44	1	354	0	0			0	0			1				0	
6.6.1	win	2023-06-02	02:07:43	02:11:15	203599	61413568af671b4a3f59aa8a	4	1	main_z	7	advance_on_keypress_ZEE	108	stimuli_target_rectangletriangles.svg	stimuli_distractor_diamondtriangles.svg	5	yes	57	0	300	0	0			0	0			1				0	
6.6.1	win	2023-06-02	02:07:43	02:11:18	206550	61413568af671b4a3f59aa8a	4	1	main_z	7	main_z	109	stimuli_distractor_trianglediamonds.svg	stimuli_distractor_diamondtriangles.svg	36	no	0	1	2000	0	0			0	0			1				0	
6.6.1	win	2023-06-02	02:07:43	02:11:18	206550	61413568af671b4a3f59aa8a	4	1	main_z	7	advance_on_keypress_ZEE	110	stimuli_distractor_trianglediamonds.svg	stimuli_distractor_diamondtriangles.svg	36	no	57	0	276	0	0			0	0			1				0	
6.6.1	win	2023-06-02	02:07:43	02:11:19	207880	61413568af671b4a3f59aa8a	4	1	main_z	7	main_z	111	stimuli_target_trianglesquares.svg	stimuli_distractor_trianglediamonds.svg	18	yes	44	1	364	0	0			0	0			1				0	
6.6.1	win	2023-06-02	02:07:43	02:11:19	207880	61413568af671b4a3f59aa8a	4	1	main_z	7	advance_on_keypress_ZEE	112	stimuli_target_trianglesquares.svg	stimuli_distractor_trianglediamonds.svg	18	yes	57	0	360	0	0			0	0			1				0	
6.6.1	win	2023-06-02	02:07:43	02:11:20	209412	61413568af671b4a3f59aa8a	4	1	main_z	7	main_z	113	stimuli_target_trianglerectangles.svg	stimuli_distractor_diamondtriangles.svg	21	yes	44	1	512	0	0			0	0			1				0	
6.6.1	win	2023-06-02	02:07:43	02:11:20	209412	61413568af671b4a3f59aa8a	4	1	main_z	7	advance_on_keypress_ZEE	114	stimuli_target_trianglerectangles.svg	stimuli_distractor_diamondtriangles.svg	21	yes	57	0	282	0	0			0	0			1				0	
6.6.1	win	2023-06-02	02:07:43	02:11:22	210783	61413568af671b4a3f59aa8a	4	1	main_z	7	main_z	115	stimuli_target_trianglesquares.svg	stimuli_distractor_diamondtriangles.svg	22	yes	44	1	437	0	0			0	0			1				0	
6.6.1	win	2023-06-02	02:07:43	02:11:22	210783	61413568af671b4a3f59aa8a	4	1	main_z	7	advance_on_keypress_ZEE	116	stimuli_target_trianglesquares.svg	stimuli_distractor_diamondtriangles.svg	22	yes	57	0	299	0	0			0	0			1				0	
6.6.1	win	2023-06-02	02:07:43	02:11:23	212210	61413568af671b4a3f59aa8a	4	1	main_z	7	main_z	117	stimuli_target_squarediamonds.svg	stimuli_distractor_diamondtriangles.svg	8	yes	44	1	478	0	0			0	0			1				0	
6.6.1	win	2023-06-02	02:07:43	02:11:23	212210	61413568af671b4a3f59aa8a	4	1	main_z	7	advance_on_keypress_ZEE	118	stimuli_target_squarediamonds.svg	stimuli_distractor_diamondtriangles.svg	8	yes	57	0	282	0	0			0	0			1				0	
6.6.1	win	2023-06-02	02:07:43	02:11:25	213661	61413568af671b4a3f59aa8a	4	1	main_z	7	main_z	119	stimuli_distractor_diamondtriangles.svg	stimuli_target_diamondrectangles.svg	31	yes	44	1	509	0	0			0	0			1				0	
6.6.1	win	2023-06-02	02:07:43	02:11:25	213661	61413568af671b4a3f59aa8a	4	1	main_z	7	advance_on_keypress_ZEE	120	stimuli_distractor_diamondtriangles.svg	stimuli_target_diamondrectangles.svg	31	yes	57	0	279	0	0			0	0			1				0	
6.6.1	win	2023-06-02	02:07:43	02:11:26	215031	61413568af671b4a3f59aa8a	4	1	main_z	7	main_z	121	stimuli_distractor_trianglediamonds.svg	stimuli_target_trianglesquares.svg	26	yes	44	1	435	0	0			0	0			1				0	
6.6.1	win	2023-06-02	02:07:43	02:11:26	215031	61413568af671b4a3f59aa8a	4	1	main_z	7	advance_on_keypress_ZEE	122	stimuli_distractor_trianglediamonds.svg	stimuli_target_trianglesquares.svg	26	yes	57	0	257	0	0			0	0			1				0	
6.6.1	win	2023-06-02	02:07:43	02:11:27	216367	61413568af671b4a3f59aa8a	4	1	main_z	7	main_z	123	stimuli_target_squaretriangles.svg	stimuli_distractor_trianglediamonds.svg	3	yes	44	1	421	0	0			0	0			1				0	
6.6.1	win	2023-06-02	02:07:43	02:11:27	216367	61413568af671b4a3f59aa8a	4	1	main_z	7	advance_on_keypress_ZEE	124	stimuli_target_squaretriangles.svg	stimuli_distractor_trianglediamonds.svg	3	yes	57	0	226	0	0			0	0			1				0	
6.6.1	win	2023-06-02	02:07:43	02:11:29	217712	61413568af671b4a3f59aa8a	4	1	main_z	7	main_z	125	stimuli_distractor_diamondtriangles.svg	stimuli_target_diamondsquares.svg	32	yes	44	1	448	0	0			0	0			1				0	
6.6.1	win	2023-06-02	02:07:43	02:11:29	217712	61413568af671b4a3f59aa8a	4	1	main_z	7	advance_on_keypress_ZEE	126	stimuli_distractor_diamondtriangles.svg	stimuli_target_diamondsquares.svg	32	yes	57	0	221	0	0			0	0			1				0	
6.6.1	win	2023-06-02	02:07:43	02:11:30	218919	61413568af671b4a3f59aa8a	4	1	main_z	7	main_z	127	stimuli_target_rectanglediamonds.svg	stimuli_distractor_trianglediamonds.svg	2	yes	44	1	339	0	0			0	0			1				0	
6.6.1	win	2023-06-02	02:07:43	02:11:30	218919	61413568af671b4a3f59aa8a	4	1	main_z	7	advance_on_keypress_ZEE	128	stimuli_target_rectanglediamonds.svg	stimuli_distractor_trianglediamonds.svg	2	yes	57	0	293	0	0			0	0			1				0	
6.6.1	win	2023-06-02	02:07:43	02:11:31	220303	61413568af671b4a3f59aa8a	4	1	main_z	7	main_z	129	stimuli_distractor_diamondtriangles.svg	stimuli_target_trianglesquares.svg	30	yes	44	1	439	0	0			0	0			1				0	
6.6.1	win	2023-06-02	02:07:43	02:11:31	220303	61413568af671b4a3f59aa8a	4	1	main_z	7	advance_on_keypress_ZEE	130	stimuli_distractor_diamondtriangles.svg	stimuli_target_trianglesquares.svg	30	yes	57	0	397	0	0			0	0			1				0	
6.6.1	win	2023-06-02	02:07:43	02:11:33	221731	61413568af671b4a3f59aa8a	4	1	main_z	7	main_z	131	stimuli_distractor_trianglediamonds.svg	stimuli_target_diamondsquares.svg	28	yes	44	1	380	0	0			0	0			1				0	
6.6.1	win	2023-06-02	02:07:43	02:11:33	221731	61413568af671b4a3f59aa8a	4	1	main_z	7	advance_on_keypress_ZEE	132	stimuli_distractor_trianglediamonds.svg	stimuli_target_diamondsquares.svg	28	yes	57	0	244	0	0			0	0			1				0	
6.6.1	win	2023-06-02	02:07:43	02:11:36	224631	61413568af671b4a3f59aa8a	4	1	main_z	7	main_z	133	stimuli_target_squarediamonds.svg	stimuli_distractor_trianglediamonds.svg	4	yes	0	0	2000	0	0			0	0			1				0	
6.6.1	win	2023-06-02	02:07:43	02:11:36	224631	61413568af671b4a3f59aa8a	4	1	main_z	7	advance_on_keypress_ZEE	134	stimuli_target_squarediamonds.svg	stimuli_distractor_trianglediamonds.svg	4	yes	57	0	359	0	0			0	0			1				0	
6.6.1	win	2023-06-02	02:07:43	02:11:37	226055	61413568af671b4a3f59aa8a	4	1	main_z	7	main_z	135	stimuli_distractor_trianglediamonds.svg	stimuli_target_rectangletriangles.svg	9	yes	44	1	407	0	0			0	0			1				0	
6.6.1	win	2023-06-02	02:07:43	02:11:37	226055	61413568af671b4a3f59aa8a	4	1	main_z	7	advance_on_keypress_ZEE	136	stimuli_distractor_trianglediamonds.svg	stimuli_target_rectangletriangles.svg	9	yes	57	0	261	0	0			0	0			1				0	
6.6.1	win	2023-06-02	02:07:43	02:11:40	228983	61413568af671b4a3f59aa8a	4	1	main_z	7	main_z	137	stimuli_distractor_trianglediamonds.svg	stimuli_distractor_trianglediamonds.svg	33	no	0	1	2000	0	0			0	0			1				0	
6.6.1	win	2023-06-02	02:07:43	02:11:40	228983	61413568af671b4a3f59aa8a	4	1	main_z	7	advance_on_keypress_ZEE	138	stimuli_distractor_trianglediamonds.svg	stimuli_distractor_trianglediamonds.svg	33	no	57	0	454	0	0			0	0			1				0	
6.6.1	win	2023-06-02	02:07:43	02:11:43	232102	61413568af671b4a3f59aa8a	4	1	main_z	7	main_z	139	stimuli_distractor_diamondtriangles.svg	stimuli_distractor_diamondtriangles.svg	40	no	0	1	2000	0	0			0	0			1				0	
6.6.1	win	2023-06-02	02:07:43	02:11:43	232102	61413568af671b4a3f59aa8a	4	1	main_z	7	advance_on_keypress_ZEE	140	stimuli_distractor_diamondtriangles.svg	stimuli_distractor_diamondtriangles.svg	40	no	57	0	363	0	0			0	0			1				0	
6.6.1	win	2023-06-02	02:07:43	02:11:45	233608	61413568af671b4a3f59aa8a	4	1	main_z	7	main_z	141	stimuli_target_diamondsquares.svg	stimuli_distractor_trianglediamonds.svg	20	yes	44	1	492	0	0			0	0			1				0	
6.6.1	win	2023-06-02	02:07:43	02:11:45	233608	61413568af671b4a3f59aa8a	4	1	main_z	7	advance_on_keypress_ZEE	142	stimuli_target_diamondsquares.svg	stimuli_distractor_trianglediamonds.svg	20	yes	57	0	232	0	0			0	0			1				0	
6.6.1	win	2023-06-02	02:07:43	02:11:48	236500	61413568af671b4a3f59aa8a	4	1	main_z	7	main_z	143	stimuli_distractor_trianglediamonds.svg	stimuli_distractor_trianglediamonds.svg	34	no	0	1	2000	0	0			0	0			1				0	
6.6.1	win	2023-06-02	02:07:43	02:11:48	236500	61413568af671b4a3f59aa8a	4	1	main_z	7	advance_on_keypress_ZEE	144	stimuli_distractor_trianglediamonds.svg	stimuli_distractor_trianglediamonds.svg	34	no	57	0	452	0	0			0	0			1				0	
6.6.1	win	2023-06-02	02:07:43	02:11:51	239601	61413568af671b4a3f59aa8a	4	1	main_z	7	main_z	145	stimuli_distractor_diamondtriangles.svg	stimuli_distractor_diamondtriangles.svg	39	no	0	1	2000	0	0			0	0			1				0	
6.6.1	win	2023-06-02	02:07:43	02:11:51	239601	61413568af671b4a3f59aa8a	4	1	main_z	7	advance_on_keypress_ZEE	146	stimuli_distractor_diamondtriangles.svg	stimuli_distractor_diamondtriangles.svg	39	no	57	0	391	0	0			0	0			1				0	
6.6.1	win	2023-06-02	02:07:43	02:11:52	241164	61413568af671b4a3f59aa8a	4	1	main_z	7	main_z	147	stimuli_target_trianglerectangles.svg	stimuli_distractor_trianglediamonds.svg	17	yes	44	1	510	0	0			0	0			1				0	
6.6.1	win	2023-06-02	02:07:43	02:11:52	241164	61413568af671b4a3f59aa8a	4	1	main_z	7	advance_on_keypress_ZEE	148	stimuli_target_trianglerectangles.svg	stimuli_distractor_trianglediamonds.svg	17	yes	57	0	273	0	0			0	0			1				0	
6.6.1	win	2023-06-02	02:07:43	02:11:54	242552	61413568af671b4a3f59aa8a	4	1	main_z	7	main_z	149	stimuli_target_squaretriangles.svg	stimuli_distractor_diamondtriangles.svg	7	yes	44	1	452	0	0			0	0			1				0	
6.6.1	win	2023-06-02	02:07:43	02:11:54	242552	61413568af671b4a3f59aa8a	4	1	main_z	7	advance_on_keypress_ZEE	150	stimuli_target_squaretriangles.svg	stimuli_distractor_diamondtriangles.svg	7	yes	57	0	289	0	0			0	0			1				0	
6.6.1	win	2023-06-02	02:07:43	02:11:55	243953	61413568af671b4a3f59aa8a	4	1	main_z	7	main_z	151	stimuli_distractor_diamondtriangles.svg	stimuli_target_squaretriangles.svg	15	yes	44	1	451	0	0			0	0			1				0	
6.6.1	win	2023-06-02	02:07:43	02:11:55	243953	61413568af671b4a3f59aa8a	4	1	main_z	7	advance_on_keypress_ZEE	152	stimuli_distractor_diamondtriangles.svg	stimuli_target_squaretriangles.svg	15	yes	57	0	297	0	0			0	0			1				0	
6.6.1	win	2023-06-02	02:07:43	02:11:57	245473	61413568af671b4a3f59aa8a	4	1	main_z	7	main_z	153	stimuli_distractor_trianglediamonds.svg	stimuli_target_trianglerectangles.svg	25	yes	44	1	571	0	0			0	0			1				0	
6.6.1	win	2023-06-02	02:07:43	02:11:57	245473	61413568af671b4a3f59aa8a	4	1	main_z	7	advance_on_keypress_ZEE	154	stimuli_distractor_trianglediamonds.svg	stimuli_target_trianglerectangles.svg	25	yes	57	0	332	0	0			0	0			1				0	
6.6.1	win	2023-06-02	02:07:43	02:11:58	246920	61413568af671b4a3f59aa8a	4	1	main_z	7	main_z	155	stimuli_distractor_trianglediamonds.svg	stimuli_target_diamondrectangles.svg	27	yes	44	1	469	0	0			0	0			1				0	
6.6.1	win	2023-06-02	02:07:43	02:11:58	246920	61413568af671b4a3f59aa8a	4	1	main_z	7	advance_on_keypress_ZEE	156	stimuli_distractor_trianglediamonds.svg	stimuli_target_diamondrectangles.svg	27	yes	57	0	258	0	0			0	0			1				0	
6.6.1	win	2023-06-02	02:07:43	02:11:59	248240	61413568af671b4a3f59aa8a	4	1	main_z	7	main_z	157	stimuli_distractor_trianglediamonds.svg	stimuli_target_squaretriangles.svg	11	yes	44	1	406	0	0			0	0			1				0	
6.6.1	win	2023-06-02	02:07:43	02:11:59	248240	61413568af671b4a3f59aa8a	4	1	main_z	7	advance_on_keypress_ZEE	158	stimuli_distractor_trianglediamonds.svg	stimuli_target_squaretriangles.svg	11	yes	57	0	269	0	0			0	0			1				0	
6.6.1	win	2023-06-02	02:07:43	02:12:01	249641	61413568af671b4a3f59aa8a	4	1	main_z	7	main_z	159	stimuli_target_diamondsquares.svg	stimuli_distractor_diamondtriangles.svg	24	yes	44	1	489	0	0			0	0			1				0	
6.6.1	win	2023-06-02	02:07:43	02:12:01	249641	61413568af671b4a3f59aa8a	4	1	main_z	7	advance_on_keypress_ZEE	160	stimuli_target_diamondsquares.svg	stimuli_distractor_diamondtriangles.svg	24	yes	57	0	254	0	0			0	0			1				0	
6.6.1	win	2023-06-02	02:07:43	02:12:09	257917	61413568af671b4a3f59aa8a	4	1	practice_slash	9	practice_slash	1	stimuli_distractor_diamondtriangles.svg	stimuli_distractor_diamondtriangles.svg	13	no	53	0	594	0	0			0	0			1				0	
6.6.1	win	2023-06-02	02:07:43	02:12:09	257917	61413568af671b4a3f59aa8a	4	1	practice_slash	9	advance_on_keypress_SLASH	2	stimuli_distractor_diamondtriangles.svg	stimuli_distractor_diamondtriangles.svg	13	no	57	0	401	0	0			0	0			1				0	
6.6.1	win	2023-06-02	02:07:43	02:12:11	260292	61413568af671b4a3f59aa8a	4	1	practice_slash	9	practice_slash	3	stimuli_target_squarediamonds.svg	stimuli_distractor_trianglediamonds.svg	5	yes	53	1	319	0	0			0	0			1				0	
6.6.1	win	2023-06-02	02:07:43	02:12:11	260292	61413568af671b4a3f59aa8a	4	1	practice_slash	9	advance_on_keypress_SLASH	4	stimuli_target_squarediamonds.svg	stimuli_distractor_trianglediamonds.svg	5	yes	57	0	464	0	0			0	0			1				0	
6.6.1	win	2023-06-02	02:07:43	02:12:14	262853	61413568af671b4a3f59aa8a	4	1	practice_slash	9	practice_slash	5	stimuli_distractor_diamondtriangles.svg	stimuli_distractor_trianglediamonds.svg	14	no	53	0	428	0	0			0	0			1				0	
6.6.1	win	2023-06-02	02:07:43	02:12:14	262853	61413568af671b4a3f59aa8a	4	1	practice_slash	9	advance_on_keypress_SLASH	6	stimuli_distractor_diamondtriangles.svg	stimuli_distractor_trianglediamonds.svg	14	no	57	0	443	0	0			0	0			1				0	
6.6.1	win	2023-06-02	02:07:43	02:12:18	266958	61413568af671b4a3f59aa8a	4	1	practice_slash	9	practice_slash	7	stimuli_distractor_trianglediamonds.svg	stimuli_distractor_trianglediamonds.svg	15	no	0	1	2000	0	0			0	0			1				0	
6.6.1	win	2023-06-02	02:07:43	02:12:18	266958	61413568af671b4a3f59aa8a	4	1	practice_slash	9	advance_on_keypress_SLASH	8	stimuli_distractor_trianglediamonds.svg	stimuli_distractor_trianglediamonds.svg	15	no	57	0	671	0	0			0	0			1				0	
6.6.1	win	2023-06-02	02:07:43	02:12:21	269861	61413568af671b4a3f59aa8a	4	1	practice_slash	9	practice_slash	9	stimuli_target_diamondsquares.svg	stimuli_distractor_diamondtriangles.svg	3	yes	53	1	569	0	0			0	0			1				0	
6.6.1	win	2023-06-02	02:07:43	02:12:21	269861	61413568af671b4a3f59aa8a	4	1	practice_slash	9	advance_on_keypress_SLASH	10	stimuli_target_diamondsquares.svg	stimuli_distractor_diamondtriangles.svg	3	yes	57	0	442	0	0			0	0			1				0	
6.6.1	win	2023-06-02	02:07:43	02:12:24	272495	61413568af671b4a3f59aa8a	4	1	practice_slash	9	practice_slash	11	stimuli_distractor_diamondtriangles.svg	stimuli_target_diamondrectangles.svg	8	yes	53	1	518	0	0			0	0			1				0	
6.6.1	win	2023-06-02	02:07:43	02:12:24	272495	61413568af671b4a3f59aa8a	4	1	practice_slash	9	advance_on_keypress_SLASH	12	stimuli_distractor_diamondtriangles.svg	stimuli_target_diamondrectangles.svg	8	yes	57	0	416	0	0			0	0			1				0	
6.6.1	win	2023-06-02	02:07:43	02:12:26	274974	61413568af671b4a3f59aa8a	4	1	practice_slash	9	practice_slash	13	stimuli_target_squarediamonds.svg	stimuli_distractor_diamondtriangles.svg	2	yes	53	1	374	0	0			0	0			1				0	
6.6.1	win	2023-06-02	02:07:43	02:12:26	274974	61413568af671b4a3f59aa8a	4	1	practice_slash	9	advance_on_keypress_SLASH	14	stimuli_target_squarediamonds.svg	stimuli_distractor_diamondtriangles.svg	2	yes	57	0	429	0	0			0	0			1				0	
6.6.1	win	2023-06-02	02:07:43	02:12:29	277440	61413568af671b4a3f59aa8a	4	1	practice_slash	9	practice_slash	15	stimuli_distractor_trianglediamonds.svg	stimuli_distractor_diamondtriangles.svg	16	no	53	0	374	0	0			0	0			1				0	
6.6.1	win	2023-06-02	02:07:43	02:12:29	277440	61413568af671b4a3f59aa8a	4	1	practice_slash	9	advance_on_keypress_SLASH	16	stimuli_distractor_trianglediamonds.svg	stimuli_distractor_diamondtriangles.svg	16	no	57	0	386	0	0			0	0			1				0	
6.6.1	win	2023-06-02	02:07:43	02:12:31	279893	61413568af671b4a3f59aa8a	4	1	practice_slash	9	practice_slash	17	stimuli_target_rectanglediamonds.svg	stimuli_distractor_trianglediamonds.svg	4	yes	53	1	400	0	0			0	0			1				0	
6.6.1	win	2023-06-02	02:07:43	02:12:31	279893	61413568af671b4a3f59aa8a	4	1	practice_slash	9	advance_on_keypress_SLASH	18	stimuli_target_rectanglediamonds.svg	stimuli_distractor_trianglediamonds.svg	4	yes	57	0	431	0	0			0	0			1				0	
6.6.1	win	2023-06-02	02:07:43	02:12:33	282304	61413568af671b4a3f59aa8a	4	1	practice_slash	9	practice_slash	19	stimuli_distractor_trianglediamonds.svg	stimuli_target_rectanglediamonds.svg	10	yes	53	1	308	0	0			0	0			1				0	
6.6.1	win	2023-06-02	02:07:43	02:12:33	282304	61413568af671b4a3f59aa8a	4	1	practice_slash	9	advance_on_keypress_SLASH	20	stimuli_distractor_trianglediamonds.svg	stimuli_target_rectanglediamonds.svg	10	yes	57	0	374	0	0			0	0			1				0	
6.6.1	win	2023-06-02	02:07:43	02:12:36	284638	61413568af671b4a3f59aa8a	4	1	practice_slash	9	practice_slash	21	stimuli_distractor_trianglediamonds.svg	stimuli_target_squarediamonds.svg	11	yes	53	1	294	0	0			0	0			1				0	
6.6.1	win	2023-06-02	02:07:43	02:12:36	284638	61413568af671b4a3f59aa8a	4	1	practice_slash	9	advance_on_keypress_SLASH	22	stimuli_distractor_trianglediamonds.svg	stimuli_target_squarediamonds.svg	11	yes	57	0	305	0	0			0	0			1				0	
6.6.1	win	2023-06-02	02:07:43	02:12:38	286993	61413568af671b4a3f59aa8a	4	1	practice_slash	9	practice_slash	23	stimuli_distractor_diamondtriangles.svg	stimuli_target_trianglerectangles.svg	9	yes	53	1	380	0	0			0	0			1				0	
6.6.1	win	2023-06-02	02:07:43	02:12:38	286993	61413568af671b4a3f59aa8a	4	1	practice_slash	9	advance_on_keypress_SLASH	24	stimuli_distractor_diamondtriangles.svg	stimuli_target_trianglerectangles.svg	9	yes	57	0	363	0	0			0	0			1				0	
6.6.1	win	2023-06-02	02:07:43	02:12:40	289393	61413568af671b4a3f59aa8a	4	1	practice_slash	9	practice_slash	25	stimuli_target_diamondsquares.svg	stimuli_distractor_trianglediamonds.svg	6	yes	53	1	379	0	0			0	0			1				0	
6.6.1	win	2023-06-02	02:07:43	02:12:40	289393	61413568af671b4a3f59aa8a	4	1	practice_slash	9	advance_on_keypress_SLASH	26	stimuli_target_diamondsquares.svg	stimuli_distractor_trianglediamonds.svg	6	yes	57	0	347	0	0			0	0			1				0	
6.6.1	win	2023-06-02	02:07:43	02:12:43	291727	61413568af671b4a3f59aa8a	4	1	practice_slash	9	practice_slash	27	stimuli_target_rectanglediamonds.svg	stimuli_distractor_diamondtriangles.svg	1	yes	53	1	332	0	0			0	0			1				0	
6.6.1	win	2023-06-02	02:07:43	02:12:43	291727	61413568af671b4a3f59aa8a	4	1	practice_slash	9	advance_on_keypress_SLASH	28	stimuli_target_rectanglediamonds.svg	stimuli_distractor_diamondtriangles.svg	1	yes	57	0	308	0	0			0	0			1				0	
6.6.1	win	2023-06-02	02:07:43	02:12:45	294056	61413568af671b4a3f59aa8a	4	1	practice_slash	9	practice_slash	29	stimuli_distractor_trianglediamonds.svg	stimuli_target_diamondrectangles.svg	12	yes	53	1	359	0	0			0	0			1				0	
6.6.1	win	2023-06-02	02:07:43	02:12:45	294056	61413568af671b4a3f59aa8a	4	1	practice_slash	9	advance_on_keypress_SLASH	30	stimuli_distractor_trianglediamonds.svg	stimuli_target_diamondrectangles.svg	12	yes	57	0	544	0	0			0	0			1				0	
6.6.1	win	2023-06-02	02:07:43	02:12:48	296644	61413568af671b4a3f59aa8a	4	1	practice_slash	9	practice_slash	31	stimuli_distractor_diamondtriangles.svg	stimuli_target_rectangletriangles.svg	7	yes	53	1	373	0	0			0	0			1				0	
6.6.1	win	2023-06-02	02:07:43	02:12:48	296644	61413568af671b4a3f59aa8a	4	1	practice_slash	9	advance_on_keypress_SLASH	32	stimuli_distractor_diamondtriangles.svg	stimuli_target_rectangletriangles.svg	7	yes	57	0	272	0	0			0	0			1				0	
6.6.1	win	2023-06-02	02:07:43	02:12:54	302442	61413568af671b4a3f59aa8a	4	1	main_slash	11	main_slash	1	stimuli_distractor_trianglediamonds.svg	stimuli_distractor_diamondtriangles.svg	35	no	0	1	2000	0	0			0	0			1				0	
6.6.1	win	2023-06-02	02:07:43	02:12:54	302442	61413568af671b4a3f59aa8a	4	1	main_slash	11	advance_on_keypress_SLASH	2	stimuli_distractor_trianglediamonds.svg	stimuli_distractor_diamondtriangles.svg	35	no	57	0	318	0	0			0	0			1				0	
6.6.1	win	2023-06-02	02:07:43	02:12:55	303723	61413568af671b4a3f59aa8a	4	1	main_slash	11	main_slash	3	stimuli_distractor_trianglediamonds.svg	stimuli_target_rectangletriangles.svg	9	yes	53	1	296	0	0			0	0			1				0	
6.6.1	win	2023-06-02	02:07:43	02:12:55	303723	61413568af671b4a3f59aa8a	4	1	main_slash	11	advance_on_keypress_SLASH	4	stimuli_distractor_trianglediamonds.svg	stimuli_target_rectangletriangles.svg	9	yes	57	0	444	0	0			0	0			1				0	
6.6.1	win	2023-06-02	02:07:43	02:12:56	305347	61413568af671b4a3f59aa8a	4	1	main_slash	11	main_slash	5	stimuli_target_diamondrectangles.svg	stimuli_distractor_diamondtriangles.svg	23	yes	53	1	521	0	0			0	0			1				0	
6.6.1	win	2023-06-02	02:07:43	02:12:56	305347	61413568af671b4a3f59aa8a	4	1	main_slash	11	advance_on_keypress_SLASH	6	stimuli_target_diamondrectangles.svg	stimuli_distractor_diamondtriangles.svg	23	yes	57	0	459	0	0			0	0			1				0	
6.6.1	win	2023-06-02	02:07:43	02:12:58	306803	61413568af671b4a3f59aa8a	4	1	main_slash	11	main_slash	7	stimuli_target_squarediamonds.svg	stimuli_distractor_trianglediamonds.svg	4	yes	53	1	342	0	0			0	0			1				0	
6.6.1	win	2023-06-02	02:07:43	02:12:58	306803	61413568af671b4a3f59aa8a	4	1	main_slash	11	advance_on_keypress_SLASH	8	stimuli_target_squarediamonds.svg	stimuli_distractor_trianglediamonds.svg	4	yes	57	0	312	0	0			0	0			1				0	
6.6.1	win	2023-06-02	02:07:43	02:12:59	308082	61413568af671b4a3f59aa8a	4	1	main_slash	11	main_slash	9	stimuli_target_rectanglediamonds.svg	stimuli_distractor_diamondtriangles.svg	6	yes	53	1	306	0	0			0	0			1				0	
6.6.1	win	2023-06-02	02:07:43	02:12:59	308082	61413568af671b4a3f59aa8a	4	1	main_slash	11	advance_on_keypress_SLASH	10	stimuli_target_rectanglediamonds.svg	stimuli_distractor_diamondtriangles.svg	6	yes	57	0	317	0	0			0	0			1				0	
6.6.1	win	2023-06-02	02:07:43	02:13:00	309362	61413568af671b4a3f59aa8a	4	1	main_slash	11	main_slash	11	stimuli_distractor_diamondtriangles.svg	stimuli_target_squaretriangles.svg	15	yes	53	1	319	0	0			0	0			1				0	
6.6.1	win	2023-06-02	02:07:43	02:13:00	309362	61413568af671b4a3f59aa8a	4	1	main_slash	11	advance_on_keypress_SLASH	12	stimuli_distractor_diamondtriangles.svg	stimuli_target_squaretriangles.svg	15	yes	57	0	330	0	0			0	0			1				0	
6.6.1	win	2023-06-02	02:07:43	02:13:02	310645	61413568af671b4a3f59aa8a	4	1	main_slash	11	main_slash	13	stimuli_distractor_trianglediamonds.svg	stimuli_target_rectanglediamonds.svg	10	yes	53	1	300	0	0			0	0			1				0	
6.6.1	win	2023-06-02	02:07:43	02:13:02	310645	61413568af671b4a3f59aa8a	4	1	main_slash	11	advance_on_keypress_SLASH	14	stimuli_distractor_trianglediamonds.svg	stimuli_target_rectanglediamonds.svg	10	yes	57	0	326	0	0			0	0			1				0	
6.6.1	win	2023-06-02	02:07:43	02:13:03	311907	61413568af671b4a3f59aa8a	4	1	main_slash	11	main_slash	15	stimuli_target_diamondsquares.svg	stimuli_distractor_diamondtriangles.svg	24	yes	53	1	279	0	0			0	0			1				0	
6.6.1	win	2023-06-02	02:07:43	02:13:03	311907	61413568af671b4a3f59aa8a	4	1	main_slash	11	advance_on_keypress_SLASH	16	stimuli_target_diamondsquares.svg	stimuli_distractor_diamondtriangles.svg	24	yes	57	0	347	0	0			0	0			1				0	
6.6.1	win	2023-06-02	02:07:43	02:13:04	313170	61413568af671b4a3f59aa8a	4	1	main_slash	11	main_slash	17	stimuli_distractor_trianglediamonds.svg	stimuli_target_trianglesquares.svg	26	yes	53	1	260	0	0			0	0			1				0	
6.6.1	win	2023-06-02	02:07:43	02:13:04	313170	61413568af671b4a3f59aa8a	4	1	main_slash	11	advance_on_keypress_SLASH	18	stimuli_distractor_trianglediamonds.svg	stimuli_target_trianglesquares.svg	26	yes	57	0	320	0	0			0	0			1				0	
6.6.1	win	2023-06-02	02:07:43	02:13:05	314394	61413568af671b4a3f59aa8a	4	1	main_slash	11	main_slash	19	stimuli_distractor_diamondtriangles.svg	stimuli_target_diamondrectangles.svg	31	yes	53	1	250	0	0			0	0			1				0	
6.6.1	win	2023-06-02	02:07:43	02:13:05	314394	61413568af671b4a3f59aa8a	4	1	main_slash	11	advance_on_keypress_SLASH	20	stimuli_distractor_diamondtriangles.svg	stimuli_target_diamondrectangles.svg	31	yes	57	0	296	0	0			0	0			1				0	
6.6.1	win	2023-06-02	02:07:43	02:13:07	315572	61413568af671b4a3f59aa8a	4	1	main_slash	11	main_slash	21	stimuli_distractor_diamondtriangles.svg	stimuli_distractor_trianglediamonds.svg	38	no	53	0	227	0	0			0	0			1				0	
6.6.1	win	2023-06-02	02:07:43	02:13:07	315572	61413568af671b4a3f59aa8a	4	1	main_slash	11	advance_on_keypress_SLASH	22	stimuli_distractor_diamondtriangles.svg	stimuli_distractor_trianglediamonds.svg	38	no	57	0	320	0	0			0	0			1				0	
6.6.1	win	2023-06-02	02:07:43	02:13:08	317323	61413568af671b4a3f59aa8a	4	1	main_slash	11	main_slash	23	stimuli_target_squaretriangles.svg	stimuli_distractor_trianglediamonds.svg	3	yes	53	1	761	0	0			0	0			1				0	
6.6.1	win	2023-06-02	02:07:43	02:13:08	317323	61413568af671b4a3f59aa8a	4	1	main_slash	11	advance_on_keypress_SLASH	24	stimuli_target_squaretriangles.svg	stimuli_distractor_trianglediamonds.svg	3	yes	57	0	538	0	0			0	0			1				0	
6.6.1	win	2023-06-02	02:07:43	02:13:12	320528	61413568af671b4a3f59aa8a	4	1	main_slash	11	main_slash	25	stimuli_distractor_diamondtriangles.svg	stimuli_distractor_diamondtriangles.svg	40	no	0	1	2000	0	0			0	0			1				0	
6.6.1	win	2023-06-02	02:07:43	02:13:12	320528	61413568af671b4a3f59aa8a	4	1	main_slash	11	advance_on_keypress_SLASH	26	stimuli_distractor_diamondtriangles.svg	stimuli_distractor_diamondtriangles.svg	40	no	57	0	369	0	0			0	0			1				0	
6.6.1	win	2023-06-02	02:07:43	02:13:13	321947	61413568af671b4a3f59aa8a	4	1	main_slash	11	main_slash	27	stimuli_target_squarediamonds.svg	stimuli_distractor_diamondtriangles.svg	8	yes	53	1	402	0	0			0	0			1				0	
6.6.1	win	2023-06-02	02:07:43	02:13:13	321947	61413568af671b4a3f59aa8a	4	1	main_slash	11	advance_on_keypress_SLASH	28	stimuli_target_squarediamonds.svg	stimuli_distractor_diamondtriangles.svg	8	yes	57	0	336	0	0			0	0			1				0	
6.6.1	win	2023-06-02	02:07:43	02:13:14	323260	61413568af671b4a3f59aa8a	4	1	main_slash	11	main_slash	29	stimuli_target_rectangletriangles.svg	stimuli_distractor_diamondtriangles.svg	5	yes	53	1	330	0	0			0	0			1				0	
6.6.1	win	2023-06-02	02:07:43	02:13:14	323260	61413568af671b4a3f59aa8a	4	1	main_slash	11	advance_on_keypress_SLASH	30	stimuli_target_rectangletriangles.svg	stimuli_distractor_diamondtriangles.svg	5	yes	57	0	333	0	0			0	0			1				0	
6.6.1	win	2023-06-02	02:07:43	02:13:16	324547	61413568af671b4a3f59aa8a	4	1	main_slash	11	main_slash	31	stimuli_target_trianglesquares.svg	stimuli_distractor_trianglediamonds.svg	18	yes	53	1	302	0	0			0	0			1				0	
6.6.1	win	2023-06-02	02:07:43	02:13:16	324547	61413568af671b4a3f59aa8a	4	1	main_slash	11	advance_on_keypress_SLASH	32	stimuli_target_trianglesquares.svg	stimuli_distractor_trianglediamonds.svg	18	yes	57	0	385	0	0			0	0			1				0	
6.6.1	win	2023-06-02	02:07:43	02:13:17	325819	61413568af671b4a3f59aa8a	4	1	main_slash	11	main_slash	33	stimuli_distractor_trianglediamonds.svg	stimuli_target_squaretriangles.svg	11	yes	53	1	240	0	0			0	0			1				0	
6.6.1	win	2023-06-02	02:07:43	02:13:17	325819	61413568af671b4a3f59aa8a	4	1	main_slash	11	advance_on_keypress_SLASH	34	stimuli_distractor_trianglediamonds.svg	stimuli_target_squaretriangles.svg	11	yes	57	0	302	0	0			0	0			1				0	
6.6.1	win	2023-06-02	02:07:43	02:13:18	327160	61413568af671b4a3f59aa8a	4	1	main_slash	11	main_slash	35	stimuli_target_trianglerectangles.svg	stimuli_distractor_diamondtriangles.svg	21	yes	53	1	376	0	0			0	0			1				0	
6.6.1	win	2023-06-02	02:07:43	02:13:18	327160	61413568af671b4a3f59aa8a	4	1	main_slash	11	advance_on_keypress_SLASH	36	stimuli_target_trianglerectangles.svg	stimuli_distractor_diamondtriangles.svg	21	yes	57	0	256	0	0			0	0			1				0	
6.6.1	win	2023-06-02	02:07:43	02:13:20	328484	61413568af671b4a3f59aa8a	4	1	main_slash	11	main_slash	37	stimuli_distractor_trianglediamonds.svg	stimuli_target_diamondrectangles.svg	27	yes	53	1	401	0	0			0	0			1				0	
6.6.1	win	2023-06-02	02:07:43	02:13:20	328484	61413568af671b4a3f59aa8a	4	1	main_slash	11	advance_on_keypress_SLASH	38	stimuli_distractor_trianglediamonds.svg	stimuli_target_diamondrectangles.svg	27	yes	57	0	363	0	0			0	0			1				0	
6.6.1	win	2023-06-02	02:07:43	02:13:21	329739	61413568af671b4a3f59aa8a	4	1	main_slash	11	main_slash	39	stimuli_target_rectanglediamonds.svg	stimuli_distractor_trianglediamonds.svg	2	yes	53	1	243	0	0			0	0			1				0	
6.6.1	win	2023-06-02	02:07:43	02:13:21	329739	61413568af671b4a3f59aa8a	4	1	main_slash	11	advance_on_keypress_SLASH	40	stimuli_target_rectanglediamonds.svg	stimuli_distractor_trianglediamonds.svg	2	yes	57	0	256	0	0			0	0			1				0	
6.6.1	win	2023-06-02	02:07:43	02:13:24	332653	61413568af671b4a3f59aa8a	4	1	main_slash	11	main_slash	41	stimuli_distractor_trianglediamonds.svg	stimuli_distractor_trianglediamonds.svg	33	no	0	1	2000	0	0			0	0			1				0	
6.6.1	win	2023-06-02	02:07:43	02:13:24	332653	61413568af671b4a3f59aa8a	4	1	main_slash	11	advance_on_keypress_SLASH	42	stimuli_distractor_trianglediamonds.svg	stimuli_distractor_trianglediamonds.svg	33	no	57	0	315	0	0			0	0			1				0	
6.6.1	win	2023-06-02	02:07:43	02:13:25	334144	61413568af671b4a3f59aa8a	4	1	main_slash	11	main_slash	43	stimuli_distractor_diamondtriangles.svg	stimuli_distractor_trianglediamonds.svg	37	no	53	0	507	0	0			0	0			1				0	
6.6.1	win	2023-06-02	02:07:43	02:13:25	334144	61413568af671b4a3f59aa8a	4	1	main_slash	11	advance_on_keypress_SLASH	44	stimuli_distractor_diamondtriangles.svg	stimuli_distractor_trianglediamonds.svg	37	no	57	0	528	0	0			0	0			1				0	
6.6.1	win	2023-06-02	02:07:43	02:13:27	335915	61413568af671b4a3f59aa8a	4	1	main_slash	11	main_slash	45	stimuli_distractor_diamondtriangles.svg	stimuli_target_trianglerectangles.svg	29	yes	53	1	585	0	0			0	0			1				0	
6.6.1	win	2023-06-02	02:07:43	02:13:27	335915	61413568af671b4a3f59aa8a	4	1	main_slash	11	advance_on_keypress_SLASH	46	stimuli_distractor_diamondtriangles.svg	stimuli_target_trianglerectangles.svg	29	yes	57	0	313	0	0			0	0			1				0	
6.6.1	win	2023-06-02	02:07:43	02:13:30	338881	61413568af671b4a3f59aa8a	4	1	main_slash	11	main_slash	47	stimuli_target_diamondrectangles.svg	stimuli_distractor_trianglediamonds.svg	19	yes	0	0	2000	0	0			0	0			1				0	
6.6.1	win	2023-06-02	02:07:43	02:13:30	338881	61413568af671b4a3f59aa8a	4	1	main_slash	11	advance_on_keypress_SLASH	48	stimuli_target_diamondrectangles.svg	stimuli_distractor_trianglediamonds.svg	19	yes	57	0	346	0	0			0	0			1				0	
6.6.1	win	2023-06-02	02:07:43	02:13:31	340363	61413568af671b4a3f59aa8a	4	1	main_slash	11	main_slash	49	stimuli_distractor_trianglediamonds.svg	stimuli_target_trianglerectangles.svg	25	yes	53	1	482	0	0			0	0			1				0	
6.6.1	win	2023-06-02	02:07:43	02:13:31	340363	61413568af671b4a3f59aa8a	4	1	main_slash	11	advance_on_keypress_SLASH	50	stimuli_distractor_trianglediamonds.svg	stimuli_target_trianglerectangles.svg	25	yes	57	0	286	0	0			0	0			1				0	
6.6.1	win	2023-06-02	02:07:43	02:13:33	341707	61413568af671b4a3f59aa8a	4	1	main_slash	11	main_slash	51	stimuli_distractor_diamondtriangles.svg	stimuli_target_squarediamonds.svg	16	yes	53	1	407	0	0			0	0			1				0	
6.6.1	win	2023-06-02	02:07:43	02:13:33	341707	61413568af671b4a3f59aa8a	4	1	main_slash	11	advance_on_keypress_SLASH	52	stimuli_distractor_diamondtriangles.svg	stimuli_target_squarediamonds.svg	16	yes	57	0	321	0	0			0	0			1				0	
6.6.1	win	2023-06-02	02:07:43	02:13:34	343019	61413568af671b4a3f59aa8a	4	1	main_slash	11	main_slash	53	stimuli_distractor_trianglediamonds.svg	stimuli_target_squarediamonds.svg	12	yes	53	1	318	0	0			0	0			1				0	
6.6.1	win	2023-06-02	02:07:43	02:13:34	343019	61413568af671b4a3f59aa8a	4	1	main_slash	11	advance_on_keypress_SLASH	54	stimuli_distractor_trianglediamonds.svg	stimuli_target_squarediamonds.svg	12	yes	57	0	316	0	0			0	0			1				0	
6.6.1	win	2023-06-02	02:07:43	02:13:37	345983	61413568af671b4a3f59aa8a	4	1	main_slash	11	main_slash	55	stimuli_distractor_diamondtriangles.svg	stimuli_distractor_diamondtriangles.svg	39	no	0	1	2000	0	0			0	0			1				0	
6.6.1	win	2023-06-02	02:07:43	02:13:37	345983	61413568af671b4a3f59aa8a	4	1	main_slash	11	advance_on_keypress_SLASH	56	stimuli_distractor_diamondtriangles.svg	stimuli_distractor_diamondtriangles.svg	39	no	57	0	365	0	0			0	0			1				0	
6.6.1	win	2023-06-02	02:07:43	02:13:39	347492	61413568af671b4a3f59aa8a	4	1	main_slash	11	main_slash	57	stimuli_distractor_trianglediamonds.svg	stimuli_distractor_diamondtriangles.svg	36	no	53	0	493	0	0			0	0			1				0	
6.6.1	win	2023-06-02	02:07:43	02:13:39	347492	61413568af671b4a3f59aa8a	4	1	main_slash	11	advance_on_keypress_SLASH	58	stimuli_distractor_trianglediamonds.svg	stimuli_distractor_diamondtriangles.svg	36	no	57	0	385	0	0			0	0			1				0	
6.6.1	win	2023-06-02	02:07:43	02:13:40	349053	61413568af671b4a3f59aa8a	4	1	main_slash	11	main_slash	59	stimuli_target_diamondsquares.svg	stimuli_distractor_trianglediamonds.svg	20	yes	53	1	520	0	0			0	0			1				0	
6.6.1	win	2023-06-02	02:07:43	02:13:40	349053	61413568af671b4a3f59aa8a	4	1	main_slash	11	advance_on_keypress_SLASH	60	stimuli_target_diamondsquares.svg	stimuli_distractor_trianglediamonds.svg	20	yes	57	0	306	0	0			0	0			1				0	
6.6.1	win	2023-06-02	02:07:43	02:13:43	352016	61413568af671b4a3f59aa8a	4	1	main_slash	11	main_slash	61	stimuli_distractor_trianglediamonds.svg	stimuli_distractor_trianglediamonds.svg	34	no	0	1	2000	0	0			0	0			1				0	
6.6.1	win	2023-06-02	02:07:43	02:13:43	352016	61413568af671b4a3f59aa8a	4	1	main_slash	11	advance_on_keypress_SLASH	62	stimuli_distractor_trianglediamonds.svg	stimuli_distractor_trianglediamonds.svg	34	no	57	0	315	0	0			0	0			1				0	
6.6.1	win	2023-06-02	02:07:43	02:13:44	353420	61413568af671b4a3f59aa8a	4	1	main_slash	11	main_slash	63	stimuli_distractor_diamondtriangles.svg	stimuli_target_diamondsquares.svg	32	yes	53	1	436	0	0			0	0			1				0	
6.6.1	win	2023-06-02	02:07:43	02:13:44	353420	61413568af671b4a3f59aa8a	4	1	main_slash	11	advance_on_keypress_SLASH	64	stimuli_distractor_diamondtriangles.svg	stimuli_target_diamondsquares.svg	32	yes	57	0	298	0	0			0	0			1				0	
6.6.1	win	2023-06-02	02:07:43	02:13:46	355052	61413568af671b4a3f59aa8a	4	1	main_slash	11	main_slash	65	stimuli_target_trianglerectangles.svg	stimuli_distractor_trianglediamonds.svg	17	yes	53	1	685	0	0			0	0			1				0	
6.6.1	win	2023-06-02	02:07:43	02:13:46	355052	61413568af671b4a3f59aa8a	4	1	main_slash	11	advance_on_keypress_SLASH	66	stimuli_target_trianglerectangles.svg	stimuli_distractor_trianglediamonds.svg	17	yes	57	0	346	0	0			0	0			1				0	
6.6.1	win	2023-06-02	02:07:43	02:13:48	356532	61413568af671b4a3f59aa8a	4	1	main_slash	11	main_slash	67	stimuli_target_rectangletriangles.svg	stimuli_distractor_trianglediamonds.svg	1	yes	53	1	482	0	0			0	0			1				0	
6.6.1	win	2023-06-02	02:07:43	02:13:48	356532	61413568af671b4a3f59aa8a	4	1	main_slash	11	advance_on_keypress_SLASH	68	stimuli_target_rectangletriangles.svg	stimuli_distractor_trianglediamonds.svg	1	yes	57	0	278	0	0			0	0			1				0	
6.6.1	win	2023-06-02	02:07:43	02:13:49	358076	61413568af671b4a3f59aa8a	4	1	main_slash	11	main_slash	69	stimuli_target_trianglesquares.svg	stimuli_distractor_diamondtriangles.svg	22	yes	53	1	609	0	0			0	0			1				0	
6.6.1	win	2023-06-02	02:07:43	02:13:49	358076	61413568af671b4a3f59aa8a	4	1	main_slash	11	advance_on_keypress_SLASH	70	stimuli_target_trianglesquares.svg	stimuli_distractor_diamondtriangles.svg	22	yes	57	0	264	0	0			0	0			1				0	
6.6.1	win	2023-06-02	02:07:43	02:13:51	359540	61413568af671b4a3f59aa8a	4	1	main_slash	11	main_slash	71	stimuli_distractor_diamondtriangles.svg	stimuli_target_rectangletriangles.svg	13	yes	53	1	540	0	0			0	0			1				0	
6.6.1	win	2023-06-02	02:07:43	02:13:51	359540	61413568af671b4a3f59aa8a	4	1	main_slash	11	advance_on_keypress_SLASH	72	stimuli_distractor_diamondtriangles.svg	stimuli_target_rectangletriangles.svg	13	yes	57	0	261	0	0			0	0			1				0	
6.6.1	win	2023-06-02	02:07:43	02:13:52	360885	61413568af671b4a3f59aa8a	4	1	main_slash	11	main_slash	73	stimuli_target_squaretriangles.svg	stimuli_distractor_diamondtriangles.svg	7	yes	53	1	417	0	0			0	0			1				0	
6.6.1	win	2023-06-02	02:07:43	02:13:52	360885	61413568af671b4a3f59aa8a	4	1	main_slash	11	advance_on_keypress_SLASH	74	stimuli_target_squaretriangles.svg	stimuli_distractor_diamondtriangles.svg	7	yes	57	0	272	0	0			0	0			1				0	
6.6.1	win	2023-06-02	02:07:43	02:13:53	362260	61413568af671b4a3f59aa8a	4	1	main_slash	11	main_slash	75	stimuli_distractor_diamondtriangles.svg	stimuli_target_trianglesquares.svg	30	yes	53	1	443	0	0			0	0			1				0	
6.6.1	win	2023-06-02	02:07:43	02:13:53	362260	61413568af671b4a3f59aa8a	4	1	main_slash	11	advance_on_keypress_SLASH	76	stimuli_distractor_diamondtriangles.svg	stimuli_target_trianglesquares.svg	30	yes	57	0	296	0	0			0	0			1				0	
6.6.1	win	2023-06-02	02:07:43	02:13:55	363628	61413568af671b4a3f59aa8a	4	1	main_slash	11	main_slash	77	stimuli_distractor_diamondtriangles.svg	stimuli_target_rectanglediamonds.svg	14	yes	53	1	411	0	0			0	0			1				0	
6.6.1	win	2023-06-02	02:07:43	02:13:55	363628	61413568af671b4a3f59aa8a	4	1	main_slash	11	advance_on_keypress_SLASH	78	stimuli_distractor_diamondtriangles.svg	stimuli_target_rectanglediamonds.svg	14	yes	57	0	313	0	0			0	0			1				0	
6.6.1	win	2023-06-02	02:07:43	02:13:56	365068	61413568af671b4a3f59aa8a	4	1	main_slash	11	main_slash	79	stimuli_distractor_trianglediamonds.svg	stimuli_target_diamondsquares.svg	28	yes	53	1	467	0	0			0	0			1				0	
6.6.1	win	2023-06-02	02:07:43	02:13:56	365068	61413568af671b4a3f59aa8a	4	1	main_slash	11	advance_on_keypress_SLASH	80	stimuli_distractor_trianglediamonds.svg	stimuli_target_diamondsquares.svg	28	yes	57	0	296	0	0			0	0			1				0	
6.6.1	win	2023-06-02	02:07:43	02:13:57	366364	61413568af671b4a3f59aa8a	4	1	main_slash	11	main_slash	81	stimuli_distractor_diamondtriangles.svg	stimuli_target_rectangletriangles.svg	13	yes	53	1	346	0	0			0	0			1				0	
6.6.1	win	2023-06-02	02:07:43	02:13:57	366364	61413568af671b4a3f59aa8a	4	1	main_slash	11	advance_on_keypress_SLASH	82	stimuli_distractor_diamondtriangles.svg	stimuli_target_rectangletriangles.svg	13	yes	57	0	291	0	0			0	0			1				0	
6.6.1	win	2023-06-02	02:07:43	02:13:59	367717	61413568af671b4a3f59aa8a	4	1	main_slash	11	main_slash	83	stimuli_distractor_diamondtriangles.svg	stimuli_target_trianglesquares.svg	30	yes	53	1	398	0	0			0	0			1				0	
6.6.1	win	2023-06-02	02:07:43	02:13:59	367717	61413568af671b4a3f59aa8a	4	1	main_slash	11	advance_on_keypress_SLASH	84	stimuli_distractor_diamondtriangles.svg	stimuli_target_trianglesquares.svg	30	yes	57	0	253	0	0			0	0			1				0	
6.6.1	win	2023-06-02	02:07:43	02:14:02	370618	61413568af671b4a3f59aa8a	4	1	main_slash	11	main_slash	85	stimuli_distractor_diamondtriangles.svg	stimuli_distractor_diamondtriangles.svg	39	no	0	1	2000	0	0			0	0			1				0	
6.6.1	win	2023-06-02	02:07:43	02:14:02	370618	61413568af671b4a3f59aa8a	4	1	main_slash	11	advance_on_keypress_SLASH	86	stimuli_distractor_diamondtriangles.svg	stimuli_distractor_diamondtriangles.svg	39	no	57	0	353	0	0			0	0			1				0	
6.6.1	win	2023-06-02	02:07:43	02:14:03	372164	61413568af671b4a3f59aa8a	4	1	main_slash	11	main_slash	87	stimuli_distractor_diamondtriangles.svg	stimuli_distractor_trianglediamonds.svg	38	no	53	0	529	0	0			0	0			1				0	
6.6.1	win	2023-06-02	02:07:43	02:14:03	372164	61413568af671b4a3f59aa8a	4	1	main_slash	11	advance_on_keypress_SLASH	88	stimuli_distractor_diamondtriangles.svg	stimuli_distractor_trianglediamonds.svg	38	no	57	0	579	0	0			0	0			1				0	
6.6.1	win	2023-06-02	02:07:43	02:14:05	373828	61413568af671b4a3f59aa8a	4	1	main_slash	11	main_slash	89	stimuli_target_diamondrectangles.svg	stimuli_distractor_trianglediamonds.svg	19	yes	53	1	426	0	0			0	0			1				0	
6.6.1	win	2023-06-02	02:07:43	02:14:05	373828	61413568af671b4a3f59aa8a	4	1	main_slash	11	advance_on_keypress_SLASH	90	stimuli_target_diamondrectangles.svg	stimuli_distractor_trianglediamonds.svg	19	yes	57	0	280	0	0			0	0			1				0	
6.6.1	win	2023-06-02	02:07:43	02:14:06	375180	61413568af671b4a3f59aa8a	4	1	main_slash	11	main_slash	91	stimuli_distractor_trianglediamonds.svg	stimuli_target_squarediamonds.svg	12	yes	53	1	411	0	0			0	0			1				0	
6.6.1	win	2023-06-02	02:07:43	02:14:06	375180	61413568af671b4a3f59aa8a	4	1	main_slash	11	advance_on_keypress_SLASH	92	stimuli_distractor_trianglediamonds.svg	stimuli_target_squarediamonds.svg	12	yes	57	0	218	0	0			0	0			1				0	
6.6.1	win	2023-06-02	02:07:43	02:14:08	376567	61413568af671b4a3f59aa8a	4	1	main_slash	11	main_slash	93	stimuli_distractor_trianglediamonds.svg	stimuli_target_diamondsquares.svg	28	yes	53	1	512	0	0			0	0			1				0	
6.6.1	win	2023-06-02	02:07:43	02:14:08	376567	61413568af671b4a3f59aa8a	4	1	main_slash	11	advance_on_keypress_SLASH	94	stimuli_distractor_trianglediamonds.svg	stimuli_target_diamondsquares.svg	28	yes	57	0	235	0	0			0	0			1				0	
6.6.1	win	2023-06-02	02:07:43	02:14:11	379453	61413568af671b4a3f59aa8a	4	1	main_slash	11	main_slash	95	stimuli_distractor_trianglediamonds.svg	stimuli_distractor_trianglediamonds.svg	34	no	0	1	2000	0	0			0	0			1				0	
6.6.1	win	2023-06-02	02:07:43	02:14:11	379453	61413568af671b4a3f59aa8a	4	1	main_slash	11	advance_on_keypress_SLASH	96	stimuli_distractor_trianglediamonds.svg	stimuli_distractor_trianglediamonds.svg	34	no	57	0	438	0	0			0	0			1				0	
6.6.1	win	2023-06-02	02:07:43	02:14:12	381028	61413568af671b4a3f59aa8a	4	1	main_slash	11	main_slash	97	stimuli_target_squarediamonds.svg	stimuli_distractor_trianglediamonds.svg	4	yes	53	1	491	0	0			0	0			1				0	
6.6.1	win	2023-06-02	02:07:43	02:14:12	381028	61413568af671b4a3f59aa8a	4	1	main_slash	11	advance_on_keypress_SLASH	98	stimuli_target_squarediamonds.svg	stimuli_distractor_trianglediamonds.svg	4	yes	57	0	263	0	0			0	0			1				0	
6.6.1	win	2023-06-02	02:07:43	02:14:14	382653	61413568af671b4a3f59aa8a	4	1	main_slash	11	main_slash	99	stimuli_distractor_trianglediamonds.svg	stimuli_target_diamondrectangles.svg	27	yes	53	1	699	0	0			0	0			1				0	
6.6.1	win	2023-06-02	02:07:43	02:14:14	382653	61413568af671b4a3f59aa8a	4	1	main_slash	11	advance_on_keypress_SLASH	100	stimuli_distractor_trianglediamonds.svg	stimuli_target_diamondrectangles.svg	27	yes	57	0	342	0	0			0	0			1				0	
6.6.1	win	2023-06-02	02:07:43	02:14:15	384069	61413568af671b4a3f59aa8a	4	1	main_slash	11	main_slash	101	stimuli_distractor_diamondtriangles.svg	stimuli_target_trianglerectangles.svg	29	yes	53	1	414	0	0			0	0			1				0	
6.6.1	win	2023-06-02	02:07:43	02:14:15	384069	61413568af671b4a3f59aa8a	4	1	main_slash	11	advance_on_keypress_SLASH	102	stimuli_distractor_diamondtriangles.svg	stimuli_target_trianglerectangles.svg	29	yes	57	0	277	0	0			0	0			1				0	
6.6.1	win	2023-06-02	02:07:43	02:14:18	387004	61413568af671b4a3f59aa8a	4	1	main_slash	11	main_slash	103	stimuli_distractor_trianglediamonds.svg	stimuli_distractor_diamondtriangles.svg	35	no	0	1	2000	0	0			0	0			1				0	
6.6.1	win	2023-06-02	02:07:43	02:14:18	387004	61413568af671b4a3f59aa8a	4	1	main_slash	11	advance_on_keypress_SLASH	104	stimuli_distractor_trianglediamonds.svg	stimuli_distractor_diamondtriangles.svg	35	no	57	0	552	0	0			0	0			1				0	
6.6.1	win	2023-06-02	02:07:43	02:14:20	388669	61413568af671b4a3f59aa8a	4	1	main_slash	11	main_slash	105	stimuli_target_squaretriangles.svg	stimuli_distractor_diamondtriangles.svg	7	yes	53	1	464	0	0			0	0			1				0	
6.6.1	win	2023-06-02	02:07:43	02:14:20	388669	61413568af671b4a3f59aa8a	4	1	main_slash	11	advance_on_keypress_SLASH	106	stimuli_target_squaretriangles.svg	stimuli_distractor_diamondtriangles.svg	7	yes	57	0	245	0	0			0	0			1				0	
6.6.1	win	2023-06-02	02:07:43	02:14:21	389989	61413568af671b4a3f59aa8a	4	1	main_slash	11	main_slash	107	stimuli_target_squaretriangles.svg	stimuli_distractor_trianglediamonds.svg	3	yes	53	1	418	0	0			0	0			1				0	
6.6.1	win	2023-06-02	02:07:43	02:14:21	389989	61413568af671b4a3f59aa8a	4	1	main_slash	11	advance_on_keypress_SLASH	108	stimuli_target_squaretriangles.svg	stimuli_distractor_trianglediamonds.svg	3	yes	57	0	272	0	0			0	0			1				0	
6.6.1	win	2023-06-02	02:07:43	02:14:22	391373	61413568af671b4a3f59aa8a	4	1	main_slash	11	main_slash	109	stimuli_target_diamondsquares.svg	stimuli_distractor_trianglediamonds.svg	20	yes	53	1	468	0	0			0	0			1				0	
6.6.1	win	2023-06-02	02:07:43	02:14:22	391373	61413568af671b4a3f59aa8a	4	1	main_slash	11	advance_on_keypress_SLASH	110	stimuli_target_diamondsquares.svg	stimuli_distractor_trianglediamonds.svg	20	yes	57	0	225	0	0			0	0			1				0	
6.6.1	win	2023-06-02	02:07:43	02:14:24	392685	61413568af671b4a3f59aa8a	4	1	main_slash	11	main_slash	111	stimuli_target_trianglerectangles.svg	stimuli_distractor_trianglediamonds.svg	17	yes	53	1	430	0	0			0	0			1				0	
6.6.1	win	2023-06-02	02:07:43	02:14:24	392685	61413568af671b4a3f59aa8a	4	1	main_slash	11	advance_on_keypress_SLASH	112	stimuli_target_trianglerectangles.svg	stimuli_distractor_trianglediamonds.svg	17	yes	57	0	244	0	0			0	0			1				0	
6.6.1	win	2023-06-02	02:07:43	02:14:25	394013	61413568af671b4a3f59aa8a	4	1	main_slash	11	main_slash	113	stimuli_target_diamondsquares.svg	stimuli_distractor_diamondtriangles.svg	24	yes	53	1	425	0	0			0	0			1				0	
6.6.1	win	2023-06-02	02:07:43	02:14:25	394013	61413568af671b4a3f59aa8a	4	1	main_slash	11	advance_on_keypress_SLASH	114	stimuli_target_diamondsquares.svg	stimuli_distractor_diamondtriangles.svg	24	yes	57	0	223	0	0			0	0			1				0	
6.6.1	win	2023-06-02	02:07:43	02:14:27	395525	61413568af671b4a3f59aa8a	4	1	main_slash	11	main_slash	115	stimuli_target_rectangletriangles.svg	stimuli_distractor_diamondtriangles.svg	5	yes	53	1	634	0	0			0	0			1				0	
6.6.1	win	2023-06-02	02:07:43	02:14:27	395525	61413568af671b4a3f59aa8a	4	1	main_slash	11	advance_on_keypress_SLASH	116	stimuli_target_rectangletriangles.svg	stimuli_distractor_diamondtriangles.svg	5	yes	57	0	338	0	0			0	0			1				0	
6.6.1	win	2023-06-02	02:07:43	02:14:28	396981	61413568af671b4a3f59aa8a	4	1	main_slash	11	main_slash	117	stimuli_distractor_trianglediamonds.svg	stimuli_target_rectanglediamonds.svg	10	yes	53	1	458	0	0			0	0			1				0	
6.6.1	win	2023-06-02	02:07:43	02:14:28	396981	61413568af671b4a3f59aa8a	4	1	main_slash	11	advance_on_keypress_SLASH	118	stimuli_distractor_trianglediamonds.svg	stimuli_target_rectanglediamonds.svg	10	yes	57	0	295	0	0			0	0			1				0	
6.6.1	win	2023-06-02	02:07:43	02:14:30	398438	61413568af671b4a3f59aa8a	4	1	main_slash	11	main_slash	119	stimuli_distractor_diamondtriangles.svg	stimuli_target_diamondsquares.svg	32	yes	53	1	498	0	0			0	0			1				0	
6.6.1	win	2023-06-02	02:07:43	02:14:30	398438	61413568af671b4a3f59aa8a	4	1	main_slash	11	advance_on_keypress_SLASH	120	stimuli_distractor_diamondtriangles.svg	stimuli_target_diamondsquares.svg	32	yes	57	0	301	0	0			0	0			1				0	
6.6.1	win	2023-06-02	02:07:43	02:14:31	399813	61413568af671b4a3f59aa8a	4	1	main_slash	11	main_slash	121	stimuli_target_squarediamonds.svg	stimuli_distractor_diamondtriangles.svg	8	yes	53	1	424	0	0			0	0			1				0	
6.6.1	win	2023-06-02	02:07:43	02:14:31	399813	61413568af671b4a3f59aa8a	4	1	main_slash	11	advance_on_keypress_SLASH	122	stimuli_target_squarediamonds.svg	stimuli_distractor_diamondtriangles.svg	8	yes	57	0	270	0	0			0	0			1				0	
6.6.1	win	2023-06-02	02:07:43	02:14:32	401149	61413568af671b4a3f59aa8a	4	1	main_slash	11	main_slash	123	stimuli_distractor_trianglediamonds.svg	stimuli_target_rectangletriangles.svg	9	yes	53	1	410	0	0			0	0			1				0	
6.6.1	win	2023-06-02	02:07:43	02:14:32	401149	61413568af671b4a3f59aa8a	4	1	main_slash	11	advance_on_keypress_SLASH	124	stimuli_distractor_trianglediamonds.svg	stimuli_target_rectangletriangles.svg	9	yes	57	0	320	0	0			0	0			1				0	
6.6.1	win	2023-06-02	02:07:43	02:14:34	402622	61413568af671b4a3f59aa8a	4	1	main_slash	11	main_slash	125	stimuli_distractor_diamondtriangles.svg	stimuli_target_squarediamonds.svg	16	yes	53	1	498	0	0			0	0			1				0	
6.6.1	win	2023-06-02	02:07:43	02:14:34	402622	61413568af671b4a3f59aa8a	4	1	main_slash	11	advance_on_keypress_SLASH	126	stimuli_distractor_diamondtriangles.svg	stimuli_target_squarediamonds.svg	16	yes	57	0	277	0	0			0	0			1				0	
6.6.1	win	2023-06-02	02:07:43	02:14:35	404037	61413568af671b4a3f59aa8a	4	1	main_slash	11	main_slash	127	stimuli_target_trianglesquares.svg	stimuli_distractor_diamondtriangles.svg	22	yes	53	1	480	0	0			0	0			1				0	
6.6.1	win	2023-06-02	02:07:43	02:14:35	404037	61413568af671b4a3f59aa8a	4	1	main_slash	11	advance_on_keypress_SLASH	128	stimuli_target_trianglesquares.svg	stimuli_distractor_diamondtriangles.svg	22	yes	57	0	268	0	0			0	0			1				0	
6.6.1	win	2023-06-02	02:07:43	02:14:37	405429	61413568af671b4a3f59aa8a	4	1	main_slash	11	main_slash	129	stimuli_target_trianglesquares.svg	stimuli_distractor_trianglediamonds.svg	18	yes	53	1	472	0	0			0	0			1				0	
6.6.1	win	2023-06-02	02:07:43	02:14:37	405429	61413568af671b4a3f59aa8a	4	1	main_slash	11	advance_on_keypress_SLASH	130	stimuli_target_trianglesquares.svg	stimuli_distractor_trianglediamonds.svg	18	yes	57	0	253	0	0			0	0			1				0	
6.6.1	win	2023-06-02	02:07:43	02:14:39	408324	61413568af671b4a3f59aa8a	4	1	main_slash	11	main_slash	131	stimuli_distractor_trianglediamonds.svg	stimuli_distractor_diamondtriangles.svg	36	no	0	1	2000	0	0			0	0			1				0	
6.6.1	win	2023-06-02	02:07:43	02:14:39	408324	61413568af671b4a3f59aa8a	4	1	main_slash	11	advance_on_keypress_SLASH	132	stimuli_distractor_trianglediamonds.svg	stimuli_distractor_diamondtriangles.svg	36	no	57	0	369	0	0			0	0			1				0	
6.6.1	win	2023-06-02	02:07:43	02:14:41	409855	61413568af671b4a3f59aa8a	4	1	main_slash	11	main_slash	133	stimuli_distractor_diamondtriangles.svg	stimuli_distractor_trianglediamonds.svg	37	no	53	0	512	0	0			0	0			1				0	
6.6.1	win	2023-06-02	02:07:43	02:14:41	409855	61413568af671b4a3f59aa8a	4	1	main_slash	11	advance_on_keypress_SLASH	134	stimuli_distractor_diamondtriangles.svg	stimuli_distractor_trianglediamonds.svg	37	no	57	0	435	0	0			0	0			1				0	
6.6.1	win	2023-06-02	02:07:43	02:14:43	411429	61413568af671b4a3f59aa8a	4	1	main_slash	11	main_slash	135	stimuli_distractor_diamondtriangles.svg	stimuli_target_diamondrectangles.svg	31	yes	53	1	488	0	0			0	0			1				0	
6.6.1	win	2023-06-02	02:07:43	02:14:43	411429	61413568af671b4a3f59aa8a	4	1	main_slash	11	advance_on_keypress_SLASH	136	stimuli_distractor_diamondtriangles.svg	stimuli_target_diamondrectangles.svg	31	yes	57	0	292	0	0			0	0			1				0	
6.6.1	win	2023-06-02	02:07:43	02:14:44	412926	61413568af671b4a3f59aa8a	4	1	main_slash	11	main_slash	137	stimuli_target_diamondrectangles.svg	stimuli_distractor_diamondtriangles.svg	23	yes	53	1	552	0	0			0	0			1				0	
6.6.1	win	2023-06-02	02:07:43	02:14:44	412926	61413568af671b4a3f59aa8a	4	1	main_slash	11	advance_on_keypress_SLASH	138	stimuli_target_diamondrectangles.svg	stimuli_distractor_diamondtriangles.svg	23	yes	57	0	248	0	0			0	0			1				0	
6.6.1	win	2023-06-02	02:07:43	02:14:45	414339	61413568af671b4a3f59aa8a	4	1	main_slash	11	main_slash	139	stimuli_target_trianglerectangles.svg	stimuli_distractor_diamondtriangles.svg	21	yes	53	1	507	0	0			0	0			1				0	
6.6.1	win	2023-06-02	02:07:43	02:14:45	414339	61413568af671b4a3f59aa8a	4	1	main_slash	11	advance_on_keypress_SLASH	140	stimuli_target_trianglerectangles.svg	stimuli_distractor_diamondtriangles.svg	21	yes	57	0	261	0	0			0	0			1				0	
6.6.1	win	2023-06-02	02:07:43	02:14:47	415694	61413568af671b4a3f59aa8a	4	1	main_slash	11	main_slash	141	stimuli_distractor_trianglediamonds.svg	stimuli_target_trianglerectangles.svg	25	yes	53	1	436	0	0			0	0			1				0	
6.6.1	win	2023-06-02	02:07:43	02:14:47	415694	61413568af671b4a3f59aa8a	4	1	main_slash	11	advance_on_keypress_SLASH	142	stimuli_distractor_trianglediamonds.svg	stimuli_target_trianglerectangles.svg	25	yes	57	0	209	0	0			0	0			1				0	
6.6.1	win	2023-06-02	02:07:43	02:14:48	417073	61413568af671b4a3f59aa8a	4	1	main_slash	11	main_slash	143	stimuli_distractor_trianglediamonds.svg	stimuli_target_squaretriangles.svg	11	yes	53	1	509	0	0			0	0			1				0	
6.6.1	win	2023-06-02	02:07:43	02:14:48	417073	61413568af671b4a3f59aa8a	4	1	main_slash	11	advance_on_keypress_SLASH	144	stimuli_distractor_trianglediamonds.svg	stimuli_target_squaretriangles.svg	11	yes	57	0	210	0	0			0	0			1				0	
6.6.1	win	2023-06-02	02:07:43	02:14:51	419942	61413568af671b4a3f59aa8a	4	1	main_slash	11	main_slash	145	stimuli_distractor_trianglediamonds.svg	stimuli_distractor_trianglediamonds.svg	33	no	0	1	2000	0	0			0	0			1				0	
6.6.1	win	2023-06-02	02:07:43	02:14:51	419942	61413568af671b4a3f59aa8a	4	1	main_slash	11	advance_on_keypress_SLASH	146	stimuli_distractor_trianglediamonds.svg	stimuli_distractor_trianglediamonds.svg	33	no	57	0	303	0	0			0	0			1				0	
6.6.1	win	2023-06-02	02:07:43	02:14:52	421382	61413568af671b4a3f59aa8a	4	1	main_slash	11	main_slash	147	stimuli_distractor_trianglediamonds.svg	stimuli_target_trianglesquares.svg	26	yes	53	1	490	0	0			0	0			1				0	
6.6.1	win	2023-06-02	02:07:43	02:14:52	421382	61413568af671b4a3f59aa8a	4	1	main_slash	11	advance_on_keypress_SLASH	148	stimuli_distractor_trianglediamonds.svg	stimuli_target_trianglesquares.svg	26	yes	57	0	245	0	0			0	0			1				0	
6.6.1	win	2023-06-02	02:07:43	02:14:54	422830	61413568af671b4a3f59aa8a	4	1	main_slash	11	main_slash	149	stimuli_target_rectanglediamonds.svg	stimuli_distractor_trianglediamonds.svg	2	yes	53	1	538	0	0			0	0			1				0	
6.6.1	win	2023-06-02	02:07:43	02:14:54	422830	61413568af671b4a3f59aa8a	4	1	main_slash	11	advance_on_keypress_SLASH	150	stimuli_target_rectanglediamonds.svg	stimuli_distractor_trianglediamonds.svg	2	yes	57	0	259	0	0			0	0			1				0	
6.6.1	win	2023-06-02	02:07:43	02:14:55	424191	61413568af671b4a3f59aa8a	4	1	main_slash	11	main_slash	151	stimuli_distractor_diamondtriangles.svg	stimuli_target_rectanglediamonds.svg	14	yes	53	1	445	0	0			0	0			1				0	
6.6.1	win	2023-06-02	02:07:43	02:14:55	424191	61413568af671b4a3f59aa8a	4	1	main_slash	11	advance_on_keypress_SLASH	152	stimuli_distractor_diamondtriangles.svg	stimuli_target_rectanglediamonds.svg	14	yes	57	0	277	0	0			0	0			1				0	
6.6.1	win	2023-06-02	02:07:43	02:14:57	425647	61413568af671b4a3f59aa8a	4	1	main_slash	11	main_slash	153	stimuli_target_rectanglediamonds.svg	stimuli_distractor_diamondtriangles.svg	6	yes	53	1	521	0	0			0	0			1				0	
6.6.1	win	2023-06-02	02:07:43	02:14:57	425647	61413568af671b4a3f59aa8a	4	1	main_slash	11	advance_on_keypress_SLASH	154	stimuli_target_rectanglediamonds.svg	stimuli_distractor_diamondtriangles.svg	6	yes	57	0	290	0	0			0	0			1				0	
6.6.1	win	2023-06-02	02:07:43	02:14:58	427014	61413568af671b4a3f59aa8a	4	1	main_slash	11	main_slash	155	stimuli_target_rectangletriangles.svg	stimuli_distractor_trianglediamonds.svg	1	yes	53	1	421	0	0			0	0			1				0	
6.6.1	win	2023-06-02	02:07:43	02:14:58	427014	61413568af671b4a3f59aa8a	4	1	main_slash	11	advance_on_keypress_SLASH	156	stimuli_target_rectangletriangles.svg	stimuli_distractor_trianglediamonds.svg	1	yes	57	0	315	0	0			0	0			1				0	
6.6.1	win	2023-06-02	02:07:43	02:15:01	429977	61413568af671b4a3f59aa8a	4	1	main_slash	11	main_slash	157	stimuli_distractor_diamondtriangles.svg	stimuli_distractor_diamondtriangles.svg	40	no	0	1	2000	0	0			0	0			1				0	
6.6.1	win	2023-06-02	02:07:43	02:15:01	429977	61413568af671b4a3f59aa8a	4	1	main_slash	11	advance_on_keypress_SLASH	158	stimuli_distractor_diamondtriangles.svg	stimuli_distractor_diamondtriangles.svg	40	no	57	0	268	0	0			0	0			1				0	
6.6.1	win	2023-06-02	02:07:43	02:15:03	431438	61413568af671b4a3f59aa8a	4	1	main_slash	11	main_slash	159	stimuli_distractor_diamondtriangles.svg	stimuli_target_squaretriangles.svg	15	yes	53	1	544	0	0			0	0			1				0	
6.6.1	win	2023-06-02	02:07:43	02:15:03	431438	61413568af671b4a3f59aa8a	4	1	main_slash	11	advance_on_keypress_SLASH	160	stimuli_distractor_diamondtriangles.svg	stimuli_target_squaretriangles.svg	15	yes	57	0	242	0	0			0	0			1				0	
6.6.1	win	2023-06-02	02:07:43	02:15:03	431438	61413568af671b4a3f59aa8a	4	1	headphonecheck_calibration	14	headphonecheck_calibrationIntro	1	stimuli_distractor_diamondtriangles.svg	stimuli_target_squaretriangles.svg	15	yes	calibrationButton	0	1387	0	0			0	0			1				0	
6.6.1	win	2023-06-02	02:07:43	02:15:03	431438	61413568af671b4a3f59aa8a	4	1	headphonecheck_testphase	15	test_collectResponse	3	stimuli_distractor_diamondtriangles.svg	stimuli_target_squaretriangles.svg	15	yes	first	1	1708	1	4	antiphase_hc_sio.wav	1	0	0			1				0	
6.6.1	win	2023-06-02	02:07:43	02:15:03	431438	61413568af671b4a3f59aa8a	4	1	headphonecheck_testphase	15	test_collectResponse	6	stimuli_distractor_diamondtriangles.svg	stimuli_target_squaretriangles.svg	15	yes	third	1	530	2	6	antiphase_hc_ois.wav	3	0	0			1				0	
6.6.1	win	2023-06-02	02:07:43	02:15:03	431438	61413568af671b4a3f59aa8a	4	1	headphonecheck_testphase	15	test_collectResponse	9	stimuli_distractor_diamondtriangles.svg	stimuli_target_squaretriangles.svg	15	yes	second	1	461	3	5	antiphase_hc_osi.wav	2	0	0			1				0	
6.6.1	win	2023-06-02	02:07:43	02:15:03	431438	61413568af671b4a3f59aa8a	4	1	headphonecheck_testphase	15	test_collectResponse	12	stimuli_distractor_diamondtriangles.svg	stimuli_target_squaretriangles.svg	15	yes	first	1	533	4	3	antiphase_hc_soi.wav	1	0	0			1				0	
6.6.1	win	2023-06-02	02:07:43	02:15:03	431438	61413568af671b4a3f59aa8a	4	1	headphonecheck_testphase	15	test_collectResponse	15	stimuli_distractor_diamondtriangles.svg	stimuli_target_squaretriangles.svg	15	yes	second	1	484	5	1	antiphase_hc_iso.wav	2	0	0			1				0	
6.6.1	win	2023-06-02	02:07:43	02:15:03	431438	61413568af671b4a3f59aa8a	4	1	headphonecheck_testphase	15	test_collectResponse	18	stimuli_distractor_diamondtriangles.svg	stimuli_target_squaretriangles.svg	15	yes	third	1	417	6	2	antiphase_hc_ios.wav	3	0	0			1				0	
6.6.1	win	2023-06-02	02:07:43	02:15:03	431438	61413568af671b4a3f59aa8a	4	1	stereocheck_calibration	17	stereocheck_calibrationIntro	1	stimuli_distractor_diamondtriangles.svg	stimuli_target_squaretriangles.svg	15	yes	stereocheck_calibrationButton	0	2689	6	2	antiphase_hc_ios.wav	3	0	0			1				0	
6.6.1	win	2023-06-02	02:07:43	02:15:03	431438	61413568af671b4a3f59aa8a	4	1	stereocheck_testphase	18	stereocheck_test_collectResponse	3	stimuli_distractor_diamondtriangles.svg	stimuli_target_squaretriangles.svg	15	yes	stereocheck_right	1	585	6	2	antiphase_hc_ios.wav	3	1	5	noise_calib_stim_RIGHT.wav	2	1				0	
6.6.1	win	2023-06-02	02:07:43	02:15:03	431438	61413568af671b4a3f59aa8a	4	1	stereocheck_testphase	18	stereocheck_test_collectResponse	6	stimuli_distractor_diamondtriangles.svg	stimuli_target_squaretriangles.svg	15	yes	stereocheck_left	1	491	6	2	antiphase_hc_ios.wav	3	2	3	noise_calib_stim_LEFT.wav	1	1				0	
6.6.1	win	2023-06-02	02:07:43	02:15:03	431438	61413568af671b4a3f59aa8a	4	1	stereocheck_testphase	18	stereocheck_test_collectResponse	9	stimuli_distractor_diamondtriangles.svg	stimuli_target_squaretriangles.svg	15	yes	stereocheck_right	1	365	6	2	antiphase_hc_ios.wav	3	3	4	noise_calib_stim_RIGHT.wav	2	1				0	
6.6.1	win	2023-06-02	02:07:43	02:15:03	431438	61413568af671b4a3f59aa8a	4	1	stereocheck_testphase	18	stereocheck_test_collectResponse	12	stimuli_distractor_diamondtriangles.svg	stimuli_target_squaretriangles.svg	15	yes	stereocheck_left	1	355	6	2	antiphase_hc_ios.wav	3	4	1	noise_calib_stim_LEFT.wav	1	1				0	
6.6.1	win	2023-06-02	02:07:43	02:15:03	431438	61413568af671b4a3f59aa8a	4	1	stereocheck_testphase	18	stereocheck_test_collectResponse	15	stimuli_distractor_diamondtriangles.svg	stimuli_target_squaretriangles.svg	15	yes	stereocheck_right	1	350	6	2	antiphase_hc_ios.wav	3	5	6	noise_calib_stim_RIGHT.wav	2	1				0	
6.6.1	win	2023-06-02	02:07:43	02:15:03	431438	61413568af671b4a3f59aa8a	4	1	stereocheck_testphase	18	stereocheck_test_collectResponse	18	stimuli_distractor_diamondtriangles.svg	stimuli_target_squaretriangles.svg	15	yes	stereocheck_left	1	356	6	2	antiphase_hc_ios.wav	3	6	2	noise_calib_stim_LEFT.wav	1	1				0	
6.6.1	win	2023-06-02	02:07:43	02:15:03	431438	61413568af671b4a3f59aa8a	4	1	DL_practice	21	DL_practice	2	stimuli_distractor_diamondtriangles.svg	stimuli_target_squaretriangles.svg	15	yes	ka	0	1549	6	2	antiphase_hc_ios.wav	3	6	2	noise_calib_stim_LEFT.wav	1	18	blb_dichoticlistening_ga-ta.mp3	ga	ta	1	other
6.6.1	win	2023-06-02	02:07:43	02:15:03	431438	61413568af671b4a3f59aa8a	4	1	DL_practice	21	DL_practice	3	stimuli_distractor_diamondtriangles.svg	stimuli_target_squaretriangles.svg	15	yes	ga	1	1020	6	2	antiphase_hc_ios.wav	3	6	2	noise_calib_stim_LEFT.wav	1	15	blb_dichoticlistening_ga-ga.mp3	ga	ga	0	left
6.6.1	win	2023-06-02	02:07:43	02:15:03	431438	61413568af671b4a3f59aa8a	4	1	DL_practice	21	DL_practice	4	stimuli_distractor_diamondtriangles.svg	stimuli_target_squaretriangles.svg	15	yes	ta	1	1705	6	2	antiphase_hc_ios.wav	3	6	2	noise_calib_stim_LEFT.wav	1	36	blb_dichoticlistening_ta-ta.mp3	ta	ta	0	left
6.6.1	win	2023-06-02	02:07:43	02:15:03	431438	61413568af671b4a3f59aa8a	4	1	DL_practice	21	DL_practice	5	stimuli_distractor_diamondtriangles.svg	stimuli_target_squaretriangles.svg	15	yes	ba	1	2023	6	2	antiphase_hc_ios.wav	3	6	2	noise_calib_stim_LEFT.wav	1	7	blb_dichoticlistening_da-ba.mp3	da	ba	1	right
6.6.1	win	2023-06-02	02:07:43	02:15:03	431438	61413568af671b4a3f59aa8a	4	1	DL_practice	21	DL_practice	6	stimuli_distractor_diamondtriangles.svg	stimuli_target_squaretriangles.svg	15	yes	pa	1	1218	6	2	antiphase_hc_ios.wav	3	6	2	noise_calib_stim_LEFT.wav	1	29	blb_dichoticlistening_pa-pa.mp3	pa	pa	0	left
6.6.1	win	2023-06-02	02:07:43	02:15:03	431438	61413568af671b4a3f59aa8a	4	1	DL_practice	21	DL_practice	7	stimuli_distractor_diamondtriangles.svg	stimuli_target_squaretriangles.svg	15	yes	ba	1	1142	6	2	antiphase_hc_ios.wav	3	6	2	noise_calib_stim_LEFT.wav	1	1	blb_dichoticlistening_ba-ba.mp3	ba	ba	0	left
6.6.1	win	2023-06-02	02:07:43	02:15:03	431438	61413568af671b4a3f59aa8a	4	1	DL_practice	21	DL_practice	8	stimuli_distractor_diamondtriangles.svg	stimuli_target_squaretriangles.svg	15	yes	pa	1	1730	6	2	antiphase_hc_ios.wav	3	6	2	noise_calib_stim_LEFT.wav	1	23	blb_dichoticlistening_ka-pa.mp3	ka	pa	1	right
6.6.1	win	2023-06-02	02:07:43	02:15:03	431438	61413568af671b4a3f59aa8a	4	1	DL_practice	21	DL_practice	9	stimuli_distractor_diamondtriangles.svg	stimuli_target_squaretriangles.svg	15	yes	ka	1	1171	6	2	antiphase_hc_ios.wav	3	6	2	noise_calib_stim_LEFT.wav	1	22	blb_dichoticlistening_ka-ka.mp3	ka	ka	0	left
6.6.1	win	2023-06-02	02:07:43	02:15:03	431438	61413568af671b4a3f59aa8a	4	1	DL_practice	21	DL_practice	10	stimuli_distractor_diamondtriangles.svg	stimuli_target_squaretriangles.svg	15	yes	da	1	2161	6	2	antiphase_hc_ios.wav	3	6	2	noise_calib_stim_LEFT.wav	1	8	blb_dichoticlistening_da-da.mp3	da	da	0	left
6.6.1	win	2023-06-02	02:07:43	02:15:03	431438	61413568af671b4a3f59aa8a	4	1	DL_test	23	DL_test	1	stimuli_distractor_diamondtriangles.svg	stimuli_target_squaretriangles.svg	15	yes	da	0	1388	6	2	antiphase_hc_ios.wav	3	6	2	noise_calib_stim_LEFT.wav	1	13	blb_dichoticlistening_ga-ba.mp3	ga	ba	1	other
6.6.1	win	2023-06-02	02:07:43	02:15:03	431438	61413568af671b4a3f59aa8a	4	1	DL_test	23	DL_test	2	stimuli_distractor_diamondtriangles.svg	stimuli_target_squaretriangles.svg	15	yes	pa	1	1250	6	2	antiphase_hc_ios.wav	3	6	2	noise_calib_stim_LEFT.wav	1	17	blb_dichoticlistening_ga-pa.mp3	ga	pa	1	right
6.6.1	win	2023-06-02	02:07:43	02:15:03	431438	61413568af671b4a3f59aa8a	4	1	DL_test	23	DL_test	3	stimuli_distractor_diamondtriangles.svg	stimuli_target_squaretriangles.svg	15	yes	ta	1	1348	6	2	antiphase_hc_ios.wav	3	6	2	noise_calib_stim_LEFT.wav	1	36	blb_dichoticlistening_ta-ta.mp3	ta	ta	0	left
6.6.1	win	2023-06-02	02:07:43	02:15:03	431438	61413568af671b4a3f59aa8a	4	1	DL_test	23	DL_test	4	stimuli_distractor_diamondtriangles.svg	stimuli_target_squaretriangles.svg	15	yes	ka	1	1098	6	2	antiphase_hc_ios.wav	3	6	2	noise_calib_stim_LEFT.wav	1	34	blb_dichoticlistening_ta-ka.mp3	ta	ka	1	right
6.6.1	win	2023-06-02	02:07:43	02:15:03	431438	61413568af671b4a3f59aa8a	4	1	DL_test	23	DL_test	5	stimuli_distractor_diamondtriangles.svg	stimuli_target_squaretriangles.svg	15	yes	ta	1	1666	6	2	antiphase_hc_ios.wav	3	6	2	noise_calib_stim_LEFT.wav	1	32	blb_dichoticlistening_ta-da.mp3	ta	da	1	left
6.6.1	win	2023-06-02	02:07:43	02:15:03	431438	61413568af671b4a3f59aa8a	4	1	DL_test	23	DL_test	6	stimuli_distractor_diamondtriangles.svg	stimuli_target_squaretriangles.svg	15	yes	ga	1	1115	6	2	antiphase_hc_ios.wav	3	6	2	noise_calib_stim_LEFT.wav	1	15	blb_dichoticlistening_ga-ga.mp3	ga	ga	0	left
6.6.1	win	2023-06-02	02:07:43	02:15:03	431438	61413568af671b4a3f59aa8a	4	1	DL_test	23	DL_test	7	stimuli_distractor_diamondtriangles.svg	stimuli_target_squaretriangles.svg	15	yes	pa	1	875	6	2	antiphase_hc_ios.wav	3	6	2	noise_calib_stim_LEFT.wav	1	5	blb_dichoticlistening_ba-pa.mp3	ba	pa	1	right
6.6.1	win	2023-06-02	02:07:43	02:15:03	431438	61413568af671b4a3f59aa8a	4	1	DL_test	23	DL_test	8	stimuli_distractor_diamondtriangles.svg	stimuli_target_squaretriangles.svg	15	yes	ka	1	1083	6	2	antiphase_hc_ios.wav	3	6	2	noise_calib_stim_LEFT.wav	1	4	blb_dichoticlistening_ba-ka.mp3	ba	ka	1	right
6.6.1	win	2023-06-02	02:07:43	02:15:03	431438	61413568af671b4a3f59aa8a	4	1	DL_test	23	DL_test	9	stimuli_distractor_diamondtriangles.svg	stimuli_target_squaretriangles.svg	15	yes	da	1	1581	6	2	antiphase_hc_ios.wav	3	6	2	noise_calib_stim_LEFT.wav	1	7	blb_dichoticlistening_da-ba.mp3	da	ba	1	left
6.6.1	win	2023-06-02	02:07:43	02:15:03	431438	61413568af671b4a3f59aa8a	4	1	DL_test	23	DL_test	10	stimuli_distractor_diamondtriangles.svg	stimuli_target_squaretriangles.svg	15	yes	da	1	1360	6	2	antiphase_hc_ios.wav	3	6	2	noise_calib_stim_LEFT.wav	1	14	blb_dichoticlistening_ga-da.mp3	ga	da	1	right
6.6.1	win	2023-06-02	02:07:43	02:15:03	431438	61413568af671b4a3f59aa8a	4	1	DL_test	23	DL_test	11	stimuli_distractor_diamondtriangles.svg	stimuli_target_squaretriangles.svg	15	yes	ka	1	1069	6	2	antiphase_hc_ios.wav	3	6	2	noise_calib_stim_LEFT.wav	1	16	blb_dichoticlistening_ga-ka.mp3	ga	ka	1	right
6.6.1	win	2023-06-02	02:07:43	02:15:03	431438	61413568af671b4a3f59aa8a	4	1	DL_test	23	DL_test	12	stimuli_distractor_diamondtriangles.svg	stimuli_target_squaretriangles.svg	15	yes	pa	1	973	6	2	antiphase_hc_ios.wav	3	6	2	noise_calib_stim_LEFT.wav	1	25	blb_dichoticlistening_pa-ba.mp3	pa	ba	1	left
6.6.1	win	2023-06-02	02:07:43	02:15:03	431438	61413568af671b4a3f59aa8a	4	1	DL_test	23	DL_test	13	stimuli_distractor_diamondtriangles.svg	stimuli_target_squaretriangles.svg	15	yes	da	1	1379	6	2	antiphase_hc_ios.wav	3	6	2	noise_calib_stim_LEFT.wav	1	8	blb_dichoticlistening_da-da.mp3	da	da	0	left
6.6.1	win	2023-06-02	02:07:43	02:15:03	431438	61413568af671b4a3f59aa8a	4	1	DL_test	23	DL_test	14	stimuli_distractor_diamondtriangles.svg	stimuli_target_squaretriangles.svg	15	yes	pa	1	1191	6	2	antiphase_hc_ios.wav	3	6	2	noise_calib_stim_LEFT.wav	1	26	blb_dichoticlistening_pa-da.mp3	pa	da	1	left
6.6.1	win	2023-06-02	02:07:43	02:15:03	431438	61413568af671b4a3f59aa8a	4	1	DL_test	23	DL_test	15	stimuli_distractor_diamondtriangles.svg	stimuli_target_squaretriangles.svg	15	yes	ga	1	1244	6	2	antiphase_hc_ios.wav	3	6	2	noise_calib_stim_LEFT.wav	1	3	blb_dichoticlistening_ba-ga.mp3	ba	ga	1	right
6.6.1	win	2023-06-02	02:07:43	02:15:03	431438	61413568af671b4a3f59aa8a	4	1	DL_test	23	DL_test	16	stimuli_distractor_diamondtriangles.svg	stimuli_target_squaretriangles.svg	15	yes	pa	1	1909	6	2	antiphase_hc_ios.wav	3	6	2	noise_calib_stim_LEFT.wav	1	27	blb_dichoticlistening_pa-ga.mp3	pa	ga	1	left
6.6.1	win	2023-06-02	02:07:43	02:15:03	431438	61413568af671b4a3f59aa8a	4	1	DL_test	23	DL_test	17	stimuli_distractor_diamondtriangles.svg	stimuli_target_squaretriangles.svg	15	yes	pa	1	1074	6	2	antiphase_hc_ios.wav	3	6	2	noise_calib_stim_LEFT.wav	1	23	blb_dichoticlistening_ka-pa.mp3	ka	pa	1	right
6.6.1	win	2023-06-02	02:07:43	02:15:03	431438	61413568af671b4a3f59aa8a	4	1	DL_test	23	DL_test	18	stimuli_distractor_diamondtriangles.svg	stimuli_target_squaretriangles.svg	15	yes	ta	1	1379	6	2	antiphase_hc_ios.wav	3	6	2	noise_calib_stim_LEFT.wav	1	6	blb_dichoticlistening_ba-ta.mp3	ba	ta	1	right
6.6.1	win	2023-06-02	02:07:43	02:15:03	431438	61413568af671b4a3f59aa8a	4	1	DL_test	23	DL_test	19	stimuli_distractor_diamondtriangles.svg	stimuli_target_squaretriangles.svg	15	yes	ka	0	1248	6	2	antiphase_hc_ios.wav	3	6	2	noise_calib_stim_LEFT.wav	1	33	blb_dichoticlistening_ta-ga.mp3	ta	ga	1	other
6.6.1	win	2023-06-02	02:07:43	02:15:03	431438	61413568af671b4a3f59aa8a	4	1	DL_test	23	DL_test	20	stimuli_distractor_diamondtriangles.svg	stimuli_target_squaretriangles.svg	15	yes	da	1	1800	6	2	antiphase_hc_ios.wav	3	6	2	noise_calib_stim_LEFT.wav	1	2	blb_dichoticlistening_ba-da.mp3	ba	da	1	right
6.6.1	win	2023-06-02	02:07:43	02:15:03	431438	61413568af671b4a3f59aa8a	4	1	DL_test	23	DL_test	21	stimuli_distractor_diamondtriangles.svg	stimuli_target_squaretriangles.svg	15	yes	pa	0	1549	6	2	antiphase_hc_ios.wav	3	6	2	noise_calib_stim_LEFT.wav	1	10	blb_dichoticlistening_da-ka.mp3	da	ka	1	other
6.6.1	win	2023-06-02	02:07:43	02:15:03	431438	61413568af671b4a3f59aa8a	4	1	DL_test	23	DL_test	22	stimuli_distractor_diamondtriangles.svg	stimuli_target_squaretriangles.svg	15	yes	ka	1	1034	6	2	antiphase_hc_ios.wav	3	6	2	noise_calib_stim_LEFT.wav	1	28	blb_dichoticlistening_pa-ka.mp3	pa	ka	1	right
6.6.1	win	2023-06-02	02:07:43	02:15:03	431438	61413568af671b4a3f59aa8a	4	1	DL_test	23	DL_test	23	stimuli_distractor_diamondtriangles.svg	stimuli_target_squaretriangles.svg	15	yes	ta	0	1539	6	2	antiphase_hc_ios.wav	3	6	2	noise_calib_stim_LEFT.wav	1	11	blb_dichoticlistening_da-pa.mp3	da	pa	1	other
6.6.1	win	2023-06-02	02:07:43	02:15:03	431438	61413568af671b4a3f59aa8a	4	1	DL_test	23	DL_test	24	stimuli_distractor_diamondtriangles.svg	stimuli_target_squaretriangles.svg	15	yes	da	1	1600	6	2	antiphase_hc_ios.wav	3	6	2	noise_calib_stim_LEFT.wav	1	9	blb_dichoticlistening_da-ga.mp3	da	ga	1	left
6.6.1	win	2023-06-02	02:07:43	02:15:03	431438	61413568af671b4a3f59aa8a	4	1	DL_test	23	DL_test	25	stimuli_distractor_diamondtriangles.svg	stimuli_target_squaretriangles.svg	15	yes	ka	1	1547	6	2	antiphase_hc_ios.wav	3	6	2	noise_calib_stim_LEFT.wav	1	20	blb_dichoticlistening_ka-da.mp3	ka	da	1	left
6.6.1	win	2023-06-02	02:07:43	02:15:03	431438	61413568af671b4a3f59aa8a	4	1	DL_test	23	DL_test	26	stimuli_distractor_diamondtriangles.svg	stimuli_target_squaretriangles.svg	15	yes	ka	1	1672	6	2	antiphase_hc_ios.wav	3	6	2	noise_calib_stim_LEFT.wav	1	19	blb_dichoticlistening_ka-ba.mp3	ka	ba	1	left
