build	computer.platform	date	time	timestamp	time_elapsed_ms	subject	group	session	blockcode	blocknum	trialcode	trialnum	stimulus_left	stimulus_right	stim_index	target_present	response	correct	latency	headphonecheck_countTestTrials	headphonecheck_index	headphonecheck_testSound	headphonecheck_correctResponse	stereocheck_countTestTrials	stereocheck_index	stereocheck_testSound	stereocheck_correctResponse	DL_index	DL_soundfile	DL_leftSound	DL_rightSound	DL_dualSound	DL_choice
6.6.1	mac	2023-06-26	21:35:19	21:39:54	270501	62bdc8f9ce5149c655938472	3	1	practice_slash	5	practice_slash	1	stimuli_distractor_diamondtriangles.svg	stimuli_target_trianglerectangles.svg	9	yes	0	0	2000	0	0			0	0			1				0	
6.6.1	mac	2023-06-26	21:35:19	21:39:54	270501	62bdc8f9ce5149c655938472	3	1	practice_slash	5	advance_on_keypress_SLASH	2	stimuli_distractor_diamondtriangles.svg	stimuli_target_trianglerectangles.svg	9	yes	57	0	4834	0	0			0	0			1				0	
6.6.1	mac	2023-06-26	21:35:19	21:40:01	277881	62bdc8f9ce5149c655938472	3	1	practice_slash	5	practice_slash	3	stimuli_target_diamondsquares.svg	stimuli_distractor_diamondtriangles.svg	3	yes	53	1	911	0	0			0	0			1				0	
6.6.1	mac	2023-06-26	21:35:19	21:40:01	277881	62bdc8f9ce5149c655938472	3	1	practice_slash	5	advance_on_keypress_SLASH	4	stimuli_target_diamondsquares.svg	stimuli_distractor_diamondtriangles.svg	3	yes	57	0	718	0	0			0	0			1				0	
6.6.1	mac	2023-06-26	21:35:19	21:40:04	280829	62bdc8f9ce5149c655938472	3	1	practice_slash	5	practice_slash	5	stimuli_target_diamondsquares.svg	stimuli_distractor_trianglediamonds.svg	6	yes	53	1	592	0	0			0	0			1				0	
6.6.1	mac	2023-06-26	21:35:19	21:40:04	280829	62bdc8f9ce5149c655938472	3	1	practice_slash	5	advance_on_keypress_SLASH	6	stimuli_target_diamondsquares.svg	stimuli_distractor_trianglediamonds.svg	6	yes	57	0	1281	0	0			0	0			1				0	
6.6.1	mac	2023-06-26	21:35:19	21:40:08	284640	62bdc8f9ce5149c655938472	3	1	practice_slash	5	practice_slash	7	stimuli_distractor_trianglediamonds.svg	stimuli_target_rectanglediamonds.svg	10	yes	53	1	887	0	0			0	0			1				0	
6.6.1	mac	2023-06-26	21:35:19	21:40:08	284640	62bdc8f9ce5149c655938472	3	1	practice_slash	5	advance_on_keypress_SLASH	8	stimuli_distractor_trianglediamonds.svg	stimuli_target_rectanglediamonds.svg	10	yes	57	0	512	0	0			0	0			1				0	
6.6.1	mac	2023-06-26	21:35:19	21:40:11	287547	62bdc8f9ce5149c655938472	3	1	practice_slash	5	practice_slash	9	stimuli_distractor_diamondtriangles.svg	stimuli_distractor_trianglediamonds.svg	14	no	53	0	760	0	0			0	0			1				0	
6.6.1	mac	2023-06-26	21:35:19	21:40:11	287547	62bdc8f9ce5149c655938472	3	1	practice_slash	5	advance_on_keypress_SLASH	10	stimuli_distractor_diamondtriangles.svg	stimuli_distractor_trianglediamonds.svg	14	no	57	0	423	0	0			0	0			1				0	
6.6.1	mac	2023-06-26	21:35:19	21:40:14	290135	62bdc8f9ce5149c655938472	3	1	practice_slash	5	practice_slash	11	stimuli_target_rectanglediamonds.svg	stimuli_distractor_diamondtriangles.svg	1	yes	53	1	531	0	0			0	0			1				0	
6.6.1	mac	2023-06-26	21:35:19	21:40:14	290135	62bdc8f9ce5149c655938472	3	1	practice_slash	5	advance_on_keypress_SLASH	12	stimuli_target_rectanglediamonds.svg	stimuli_distractor_diamondtriangles.svg	1	yes	57	0	493	0	0			0	0			1				0	
6.6.1	mac	2023-06-26	21:35:19	21:40:18	294268	62bdc8f9ce5149c655938472	3	1	practice_slash	5	practice_slash	13	stimuli_distractor_trianglediamonds.svg	stimuli_distractor_diamondtriangles.svg	16	no	0	1	2000	0	0			0	0			1				0	
6.6.1	mac	2023-06-26	21:35:19	21:40:18	294268	62bdc8f9ce5149c655938472	3	1	practice_slash	5	advance_on_keypress_SLASH	14	stimuli_distractor_trianglediamonds.svg	stimuli_distractor_diamondtriangles.svg	16	no	57	0	629	0	0			0	0			1				0	
6.6.1	mac	2023-06-26	21:35:19	21:40:21	297678	62bdc8f9ce5149c655938472	3	1	practice_slash	5	practice_slash	15	stimuli_target_squarediamonds.svg	stimuli_distractor_trianglediamonds.svg	5	yes	53	1	1139	0	0			0	0			1				0	
6.6.1	mac	2023-06-26	21:35:19	21:40:21	297678	62bdc8f9ce5149c655938472	3	1	practice_slash	5	advance_on_keypress_SLASH	16	stimuli_target_squarediamonds.svg	stimuli_distractor_trianglediamonds.svg	5	yes	57	0	2269	0	0			0	0			1				0	
6.6.1	mac	2023-06-26	21:35:19	21:40:26	302773	62bdc8f9ce5149c655938472	3	1	practice_slash	5	practice_slash	17	stimuli_distractor_diamondtriangles.svg	stimuli_target_diamondrectangles.svg	8	yes	53	1	1187	0	0			0	0			1				0	
6.6.1	mac	2023-06-26	21:35:19	21:40:26	302773	62bdc8f9ce5149c655938472	3	1	practice_slash	5	advance_on_keypress_SLASH	18	stimuli_distractor_diamondtriangles.svg	stimuli_target_diamondrectangles.svg	8	yes	57	0	854	0	0			0	0			1				0	
6.6.1	mac	2023-06-26	21:35:19	21:40:31	307251	62bdc8f9ce5149c655938472	3	1	practice_slash	5	practice_slash	19	stimuli_distractor_diamondtriangles.svg	stimuli_target_rectangletriangles.svg	7	yes	0	0	2000	0	0			0	0			1				0	
6.6.1	mac	2023-06-26	21:35:19	21:40:31	307251	62bdc8f9ce5149c655938472	3	1	practice_slash	5	advance_on_keypress_SLASH	20	stimuli_distractor_diamondtriangles.svg	stimuli_target_rectangletriangles.svg	7	yes	57	0	780	0	0			0	0			1				0	
6.6.1	mac	2023-06-26	21:35:19	21:40:34	310396	62bdc8f9ce5149c655938472	3	1	practice_slash	5	practice_slash	21	stimuli_target_squarediamonds.svg	stimuli_distractor_diamondtriangles.svg	2	yes	53	1	726	0	0			0	0			1				0	
6.6.1	mac	2023-06-26	21:35:19	21:40:34	310396	62bdc8f9ce5149c655938472	3	1	practice_slash	5	advance_on_keypress_SLASH	22	stimuli_target_squarediamonds.svg	stimuli_distractor_diamondtriangles.svg	2	yes	57	0	417	0	0			0	0			1				0	
6.6.1	mac	2023-06-26	21:35:19	21:40:37	313178	62bdc8f9ce5149c655938472	3	1	practice_slash	5	practice_slash	23	stimuli_target_rectanglediamonds.svg	stimuli_distractor_trianglediamonds.svg	4	yes	53	1	723	0	0			0	0			1				0	
6.6.1	mac	2023-06-26	21:35:19	21:40:37	313178	62bdc8f9ce5149c655938472	3	1	practice_slash	5	advance_on_keypress_SLASH	24	stimuli_target_rectanglediamonds.svg	stimuli_distractor_trianglediamonds.svg	4	yes	57	0	649	0	0			0	0			1				0	
6.6.1	mac	2023-06-26	21:35:19	21:40:39	315839	62bdc8f9ce5149c655938472	3	1	practice_slash	5	practice_slash	25	stimuli_distractor_trianglediamonds.svg	stimuli_distractor_trianglediamonds.svg	15	no	53	0	386	0	0			0	0			1				0	
6.6.1	mac	2023-06-26	21:35:19	21:40:39	315839	62bdc8f9ce5149c655938472	3	1	practice_slash	5	advance_on_keypress_SLASH	26	stimuli_distractor_trianglediamonds.svg	stimuli_distractor_trianglediamonds.svg	15	no	57	0	12970	0	0			0	0			1				0	
6.6.1	mac	2023-06-26	21:35:19	21:40:55	331862	62bdc8f9ce5149c655938472	3	1	practice_slash	5	practice_slash	27	stimuli_distractor_trianglediamonds.svg	stimuli_target_diamondrectangles.svg	12	yes	53	1	1425	0	0			0	0			1				0	
6.6.1	mac	2023-06-26	21:35:19	21:40:55	331862	62bdc8f9ce5149c655938472	3	1	practice_slash	5	advance_on_keypress_SLASH	28	stimuli_distractor_trianglediamonds.svg	stimuli_target_diamondrectangles.svg	12	yes	57	0	506	0	0			0	0			1				0	
6.6.1	mac	2023-06-26	21:35:19	21:40:58	334950	62bdc8f9ce5149c655938472	3	1	practice_slash	5	practice_slash	29	stimuli_distractor_trianglediamonds.svg	stimuli_target_squarediamonds.svg	11	yes	53	1	948	0	0			0	0			1				0	
6.6.1	mac	2023-06-26	21:35:19	21:40:58	334950	62bdc8f9ce5149c655938472	3	1	practice_slash	5	advance_on_keypress_SLASH	30	stimuli_distractor_trianglediamonds.svg	stimuli_target_squarediamonds.svg	11	yes	57	0	508	0	0			0	0			1				0	
6.6.1	mac	2023-06-26	21:35:19	21:41:03	339084	62bdc8f9ce5149c655938472	3	1	practice_slash	5	practice_slash	31	stimuli_distractor_diamondtriangles.svg	stimuli_distractor_diamondtriangles.svg	13	no	0	1	2000	0	0			0	0			1				0	
6.6.1	mac	2023-06-26	21:35:19	21:41:03	339084	62bdc8f9ce5149c655938472	3	1	practice_slash	5	advance_on_keypress_SLASH	32	stimuli_distractor_diamondtriangles.svg	stimuli_distractor_diamondtriangles.svg	13	no	57	0	350	0	0			0	0			1				0	
6.6.1	mac	2023-06-26	21:35:19	21:41:29	365718	62bdc8f9ce5149c655938472	3	1	main_slash	7	main_slash	1	stimuli_target_diamondsquares.svg	stimuli_distractor_trianglediamonds.svg	20	yes	53	1	817	0	0			0	0			1				0	
6.6.1	mac	2023-06-26	21:35:19	21:41:29	365718	62bdc8f9ce5149c655938472	3	1	main_slash	7	advance_on_keypress_SLASH	2	stimuli_target_diamondsquares.svg	stimuli_distractor_trianglediamonds.svg	20	yes	57	0	9700	0	0			0	0			1				0	
6.6.1	mac	2023-06-26	21:35:19	21:41:40	376906	62bdc8f9ce5149c655938472	3	1	main_slash	7	main_slash	3	stimuli_target_rectanglediamonds.svg	stimuli_distractor_trianglediamonds.svg	2	yes	53	1	854	0	0			0	0			1				0	
6.6.1	mac	2023-06-26	21:35:19	21:41:40	376906	62bdc8f9ce5149c655938472	3	1	main_slash	7	advance_on_keypress_SLASH	4	stimuli_target_rectanglediamonds.svg	stimuli_distractor_trianglediamonds.svg	2	yes	57	0	16900	0	0			0	0			1				0	
6.6.1	mac	2023-06-26	21:35:19	21:41:59	395313	62bdc8f9ce5149c655938472	3	1	main_slash	7	main_slash	5	stimuli_distractor_diamondtriangles.svg	stimuli_target_diamondsquares.svg	32	yes	53	1	876	0	0			0	0			1				0	
6.6.1	mac	2023-06-26	21:35:19	21:41:59	395313	62bdc8f9ce5149c655938472	3	1	main_slash	7	advance_on_keypress_SLASH	6	stimuli_distractor_diamondtriangles.svg	stimuli_target_diamondsquares.svg	32	yes	57	0	1216	0	0			0	0			1				0	
6.6.1	mac	2023-06-26	21:35:19	21:42:03	399167	62bdc8f9ce5149c655938472	3	1	main_slash	7	main_slash	7	stimuli_distractor_diamondtriangles.svg	stimuli_distractor_trianglediamonds.svg	38	no	0	1	2000	0	0			0	0			1				0	
6.6.1	mac	2023-06-26	21:35:19	21:42:03	399167	62bdc8f9ce5149c655938472	3	1	main_slash	7	advance_on_keypress_SLASH	8	stimuli_distractor_diamondtriangles.svg	stimuli_distractor_trianglediamonds.svg	38	no	57	0	525	0	0			0	0			1				0	
6.6.1	mac	2023-06-26	21:35:19	21:42:04	400934	62bdc8f9ce5149c655938472	3	1	main_slash	7	main_slash	9	stimuli_distractor_diamondtriangles.svg	stimuli_target_trianglesquares.svg	30	yes	53	1	616	0	0			0	0			1				0	
6.6.1	mac	2023-06-26	21:35:19	21:42:04	400934	62bdc8f9ce5149c655938472	3	1	main_slash	7	advance_on_keypress_SLASH	10	stimuli_distractor_diamondtriangles.svg	stimuli_target_trianglesquares.svg	30	yes	57	0	1927	0	0			0	0			1				0	
6.6.1	mac	2023-06-26	21:35:19	21:42:09	405038	62bdc8f9ce5149c655938472	3	1	main_slash	7	main_slash	11	stimuli_distractor_trianglediamonds.svg	stimuli_distractor_trianglediamonds.svg	33	no	53	0	1554	0	0			0	0			1				0	
6.6.1	mac	2023-06-26	21:35:19	21:42:09	405038	62bdc8f9ce5149c655938472	3	1	main_slash	7	advance_on_keypress_SLASH	12	stimuli_distractor_trianglediamonds.svg	stimuli_distractor_trianglediamonds.svg	33	no	57	0	627	0	0			0	0			1				0	
6.6.1	mac	2023-06-26	21:35:19	21:42:11	407301	62bdc8f9ce5149c655938472	3	1	main_slash	7	main_slash	13	stimuli_distractor_trianglediamonds.svg	stimuli_distractor_diamondtriangles.svg	36	no	53	0	1016	0	0			0	0			1				0	
6.6.1	mac	2023-06-26	21:35:19	21:42:11	407301	62bdc8f9ce5149c655938472	3	1	main_slash	7	advance_on_keypress_SLASH	14	stimuli_distractor_trianglediamonds.svg	stimuli_distractor_diamondtriangles.svg	36	no	57	0	617	0	0			0	0			1				0	
6.6.1	mac	2023-06-26	21:35:19	21:42:14	410549	62bdc8f9ce5149c655938472	3	1	main_slash	7	main_slash	15	stimuli_target_squarediamonds.svg	stimuli_distractor_trianglediamonds.svg	4	yes	0	0	2000	0	0			0	0			1				0	
6.6.1	mac	2023-06-26	21:35:19	21:42:14	410549	62bdc8f9ce5149c655938472	3	1	main_slash	7	advance_on_keypress_SLASH	16	stimuli_target_squarediamonds.svg	stimuli_distractor_trianglediamonds.svg	4	yes	57	0	122	0	0			0	0			1				0	
6.6.1	mac	2023-06-26	21:35:19	21:42:16	412056	62bdc8f9ce5149c655938472	3	1	main_slash	7	main_slash	17	stimuli_distractor_diamondtriangles.svg	stimuli_target_squaretriangles.svg	15	yes	53	1	754	0	0			0	0			1				0	
6.6.1	mac	2023-06-26	21:35:19	21:42:16	412056	62bdc8f9ce5149c655938472	3	1	main_slash	7	advance_on_keypress_SLASH	18	stimuli_distractor_diamondtriangles.svg	stimuli_target_squaretriangles.svg	15	yes	57	0	2588	0	0			0	0			1				0	
6.6.1	mac	2023-06-26	21:35:19	21:42:20	416467	62bdc8f9ce5149c655938472	3	1	main_slash	7	main_slash	19	stimuli_target_diamondrectangles.svg	stimuli_distractor_trianglediamonds.svg	19	yes	53	1	1198	0	0			0	0			1				0	
6.6.1	mac	2023-06-26	21:35:19	21:42:20	416467	62bdc8f9ce5149c655938472	3	1	main_slash	7	advance_on_keypress_SLASH	20	stimuli_target_diamondrectangles.svg	stimuli_distractor_trianglediamonds.svg	19	yes	57	0	598	0	0			0	0			1				0	
6.6.1	mac	2023-06-26	21:35:19	21:42:23	419700	62bdc8f9ce5149c655938472	3	1	main_slash	7	main_slash	21	stimuli_distractor_trianglediamonds.svg	stimuli_distractor_trianglediamonds.svg	34	no	0	1	2000	0	0			0	0			1				0	
6.6.1	mac	2023-06-26	21:35:19	21:42:23	419700	62bdc8f9ce5149c655938472	3	1	main_slash	7	advance_on_keypress_SLASH	22	stimuli_distractor_trianglediamonds.svg	stimuli_distractor_trianglediamonds.svg	34	no	57	0	526	0	0			0	0			1				0	
6.6.1	mac	2023-06-26	21:35:19	21:42:25	421497	62bdc8f9ce5149c655938472	3	1	main_slash	7	main_slash	23	stimuli_distractor_trianglediamonds.svg	stimuli_target_squarediamonds.svg	12	yes	53	1	646	0	0			0	0			1				0	
6.6.1	mac	2023-06-26	21:35:19	21:42:25	421497	62bdc8f9ce5149c655938472	3	1	main_slash	7	advance_on_keypress_SLASH	24	stimuli_distractor_trianglediamonds.svg	stimuli_target_squarediamonds.svg	12	yes	57	0	1712	0	0			0	0			1				0	
6.6.1	mac	2023-06-26	21:35:19	21:42:28	424664	62bdc8f9ce5149c655938472	3	1	main_slash	7	main_slash	25	stimuli_target_trianglerectangles.svg	stimuli_distractor_trianglediamonds.svg	17	yes	53	1	813	0	0			0	0			1				0	
6.6.1	mac	2023-06-26	21:35:19	21:42:28	424664	62bdc8f9ce5149c655938472	3	1	main_slash	7	advance_on_keypress_SLASH	26	stimuli_target_trianglerectangles.svg	stimuli_distractor_trianglediamonds.svg	17	yes	57	0	791	0	0			0	0			1				0	
6.6.1	mac	2023-06-26	21:35:19	21:42:31	427585	62bdc8f9ce5149c655938472	3	1	main_slash	7	main_slash	27	stimuli_distractor_diamondtriangles.svg	stimuli_target_squarediamonds.svg	16	yes	53	1	1501	0	0			0	0			1				0	
6.6.1	mac	2023-06-26	21:35:19	21:42:31	427585	62bdc8f9ce5149c655938472	3	1	main_slash	7	advance_on_keypress_SLASH	28	stimuli_distractor_diamondtriangles.svg	stimuli_target_squarediamonds.svg	16	yes	57	0	737	0	0			0	0			1				0	
6.6.1	mac	2023-06-26	21:35:19	21:42:34	430115	62bdc8f9ce5149c655938472	3	1	main_slash	7	main_slash	29	stimuli_distractor_diamondtriangles.svg	stimuli_target_trianglerectangles.svg	29	yes	53	1	1164	0	0			0	0			1				0	
6.6.1	mac	2023-06-26	21:35:19	21:42:34	430115	62bdc8f9ce5149c655938472	3	1	main_slash	7	advance_on_keypress_SLASH	30	stimuli_distractor_diamondtriangles.svg	stimuli_target_trianglerectangles.svg	29	yes	57	0	447	0	0			0	0			1				0	
6.6.1	mac	2023-06-26	21:35:19	21:42:35	431865	62bdc8f9ce5149c655938472	3	1	main_slash	7	main_slash	31	stimuli_target_trianglerectangles.svg	stimuli_distractor_diamondtriangles.svg	21	yes	53	1	664	0	0			0	0			1				0	
6.6.1	mac	2023-06-26	21:35:19	21:42:35	431865	62bdc8f9ce5149c655938472	3	1	main_slash	7	advance_on_keypress_SLASH	32	stimuli_target_trianglerectangles.svg	stimuli_distractor_diamondtriangles.svg	21	yes	57	0	3035	0	0			0	0			1				0	
6.6.1	mac	2023-06-26	21:35:19	21:42:40	436211	62bdc8f9ce5149c655938472	3	1	main_slash	7	main_slash	33	stimuli_distractor_trianglediamonds.svg	stimuli_target_diamondsquares.svg	28	yes	53	1	676	0	0			0	0			1				0	
6.6.1	mac	2023-06-26	21:35:19	21:42:40	436211	62bdc8f9ce5149c655938472	3	1	main_slash	7	advance_on_keypress_SLASH	34	stimuli_distractor_trianglediamonds.svg	stimuli_target_diamondsquares.svg	28	yes	57	0	566	0	0			0	0			1				0	
6.6.1	mac	2023-06-26	21:35:19	21:42:42	438947	62bdc8f9ce5149c655938472	3	1	main_slash	7	main_slash	35	stimuli_distractor_diamondtriangles.svg	stimuli_target_rectangletriangles.svg	13	yes	53	1	1546	0	0			0	0			1				0	
6.6.1	mac	2023-06-26	21:35:19	21:42:42	438947	62bdc8f9ce5149c655938472	3	1	main_slash	7	advance_on_keypress_SLASH	36	stimuli_distractor_diamondtriangles.svg	stimuli_target_rectangletriangles.svg	13	yes	57	0	1085	0	0			0	0			1				0	
6.6.1	mac	2023-06-26	21:35:19	21:42:46	442666	62bdc8f9ce5149c655938472	3	1	main_slash	7	main_slash	37	stimuli_distractor_diamondtriangles.svg	stimuli_target_diamondrectangles.svg	31	yes	0	0	2000	0	0			0	0			1				0	
6.6.1	mac	2023-06-26	21:35:19	21:42:46	442666	62bdc8f9ce5149c655938472	3	1	main_slash	7	advance_on_keypress_SLASH	38	stimuli_distractor_diamondtriangles.svg	stimuli_target_diamondrectangles.svg	31	yes	57	0	499	0	0			0	0			1				0	
6.6.1	mac	2023-06-26	21:35:19	21:42:48	444463	62bdc8f9ce5149c655938472	3	1	main_slash	7	main_slash	39	stimuli_distractor_trianglediamonds.svg	stimuli_target_diamondrectangles.svg	27	yes	53	1	662	0	0			0	0			1				0	
6.6.1	mac	2023-06-26	21:35:19	21:42:48	444463	62bdc8f9ce5149c655938472	3	1	main_slash	7	advance_on_keypress_SLASH	40	stimuli_distractor_trianglediamonds.svg	stimuli_target_diamondrectangles.svg	27	yes	57	0	657	0	0			0	0			1				0	
6.6.1	mac	2023-06-26	21:35:19	21:42:50	446548	62bdc8f9ce5149c655938472	3	1	main_slash	7	main_slash	41	stimuli_distractor_trianglediamonds.svg	stimuli_target_trianglerectangles.svg	25	yes	53	1	797	0	0			0	0			1				0	
6.6.1	mac	2023-06-26	21:35:19	21:42:50	446548	62bdc8f9ce5149c655938472	3	1	main_slash	7	advance_on_keypress_SLASH	42	stimuli_distractor_trianglediamonds.svg	stimuli_target_trianglerectangles.svg	25	yes	57	0	643	0	0			0	0			1				0	
6.6.1	mac	2023-06-26	21:35:19	21:42:52	448426	62bdc8f9ce5149c655938472	3	1	main_slash	7	main_slash	43	stimuli_target_trianglesquares.svg	stimuli_distractor_diamondtriangles.svg	22	yes	53	1	606	0	0			0	0			1				0	
6.6.1	mac	2023-06-26	21:35:19	21:42:52	448426	62bdc8f9ce5149c655938472	3	1	main_slash	7	advance_on_keypress_SLASH	44	stimuli_target_trianglesquares.svg	stimuli_distractor_diamondtriangles.svg	22	yes	57	0	559	0	0			0	0			1				0	
6.6.1	mac	2023-06-26	21:35:19	21:42:54	450382	62bdc8f9ce5149c655938472	3	1	main_slash	7	main_slash	45	stimuli_distractor_diamondtriangles.svg	stimuli_target_rectanglediamonds.svg	14	yes	53	1	765	0	0			0	0			1				0	
6.6.1	mac	2023-06-26	21:35:19	21:42:54	450382	62bdc8f9ce5149c655938472	3	1	main_slash	7	advance_on_keypress_SLASH	46	stimuli_distractor_diamondtriangles.svg	stimuli_target_rectanglediamonds.svg	14	yes	57	0	726	0	0			0	0			1				0	
6.6.1	mac	2023-06-26	21:35:19	21:42:56	452214	62bdc8f9ce5149c655938472	3	1	main_slash	7	main_slash	47	stimuli_target_rectangletriangles.svg	stimuli_distractor_trianglediamonds.svg	1	yes	53	1	480	0	0			0	0			1				0	
6.6.1	mac	2023-06-26	21:35:19	21:42:56	452214	62bdc8f9ce5149c655938472	3	1	main_slash	7	advance_on_keypress_SLASH	48	stimuli_target_rectangletriangles.svg	stimuli_distractor_trianglediamonds.svg	1	yes	57	0	504	0	0			0	0			1				0	
6.6.1	mac	2023-06-26	21:35:19	21:42:57	453883	62bdc8f9ce5149c655938472	3	1	main_slash	7	main_slash	49	stimuli_distractor_trianglediamonds.svg	stimuli_target_rectanglediamonds.svg	10	yes	53	1	533	0	0			0	0			1				0	
6.6.1	mac	2023-06-26	21:35:19	21:42:57	453883	62bdc8f9ce5149c655938472	3	1	main_slash	7	advance_on_keypress_SLASH	50	stimuli_distractor_trianglediamonds.svg	stimuli_target_rectanglediamonds.svg	10	yes	57	0	542	0	0			0	0			1				0	
6.6.1	mac	2023-06-26	21:35:19	21:42:59	455516	62bdc8f9ce5149c655938472	3	1	main_slash	7	main_slash	51	stimuli_target_rectangletriangles.svg	stimuli_distractor_diamondtriangles.svg	5	yes	53	1	465	0	0			0	0			1				0	
6.6.1	mac	2023-06-26	21:35:19	21:42:59	455516	62bdc8f9ce5149c655938472	3	1	main_slash	7	advance_on_keypress_SLASH	52	stimuli_target_rectangletriangles.svg	stimuli_distractor_diamondtriangles.svg	5	yes	57	0	766	0	0			0	0			1				0	
6.6.1	mac	2023-06-26	21:35:19	21:43:01	457698	62bdc8f9ce5149c655938472	3	1	main_slash	7	main_slash	53	stimuli_target_diamondrectangles.svg	stimuli_distractor_diamondtriangles.svg	23	yes	53	1	781	0	0			0	0			1				0	
6.6.1	mac	2023-06-26	21:35:19	21:43:01	457698	62bdc8f9ce5149c655938472	3	1	main_slash	7	advance_on_keypress_SLASH	54	stimuli_target_diamondrectangles.svg	stimuli_distractor_diamondtriangles.svg	23	yes	57	0	755	0	0			0	0			1				0	
6.6.1	mac	2023-06-26	21:35:19	21:43:03	459852	62bdc8f9ce5149c655938472	3	1	main_slash	7	main_slash	55	stimuli_distractor_trianglediamonds.svg	stimuli_target_rectangletriangles.svg	9	yes	53	1	768	0	0			0	0			1				0	
6.6.1	mac	2023-06-26	21:35:19	21:43:03	459852	62bdc8f9ce5149c655938472	3	1	main_slash	7	advance_on_keypress_SLASH	56	stimuli_distractor_trianglediamonds.svg	stimuli_target_rectangletriangles.svg	9	yes	57	0	565	0	0			0	0			1				0	
6.6.1	mac	2023-06-26	21:35:19	21:43:05	461066	62bdc8f9ce5149c655938472	3	1	main_slash	7	main_slash	57	stimuli_target_squarediamonds.svg	stimuli_distractor_diamondtriangles.svg	8	yes	53	1	17	0	0			0	0			1				0	
6.6.1	mac	2023-06-26	21:35:19	21:43:05	461066	62bdc8f9ce5149c655938472	3	1	main_slash	7	advance_on_keypress_SLASH	58	stimuli_target_squarediamonds.svg	stimuli_distractor_diamondtriangles.svg	8	yes	57	0	723	0	0			0	0			1				0	
6.6.1	mac	2023-06-26	21:35:19	21:43:08	464415	62bdc8f9ce5149c655938472	3	1	main_slash	7	main_slash	59	stimuli_distractor_trianglediamonds.svg	stimuli_distractor_diamondtriangles.svg	35	no	0	1	2000	0	0			0	0			1				0	
6.6.1	mac	2023-06-26	21:35:19	21:43:08	464415	62bdc8f9ce5149c655938472	3	1	main_slash	7	advance_on_keypress_SLASH	60	stimuli_distractor_trianglediamonds.svg	stimuli_distractor_diamondtriangles.svg	35	no	57	0	640	0	0			0	0			1				0	
6.6.1	mac	2023-06-26	21:35:19	21:43:11	467682	62bdc8f9ce5149c655938472	3	1	main_slash	7	main_slash	61	stimuli_target_diamondsquares.svg	stimuli_distractor_diamondtriangles.svg	24	yes	0	0	2000	0	0			0	0			1				0	
6.6.1	mac	2023-06-26	21:35:19	21:43:11	467682	62bdc8f9ce5149c655938472	3	1	main_slash	7	advance_on_keypress_SLASH	62	stimuli_target_diamondsquares.svg	stimuli_distractor_diamondtriangles.svg	24	yes	57	0	845	0	0			0	0			1				0	
6.6.1	mac	2023-06-26	21:35:19	21:43:13	469834	62bdc8f9ce5149c655938472	3	1	main_slash	7	main_slash	63	stimuli_target_trianglesquares.svg	stimuli_distractor_trianglediamonds.svg	18	yes	53	1	667	0	0			0	0			1				0	
6.6.1	mac	2023-06-26	21:35:19	21:43:13	469834	62bdc8f9ce5149c655938472	3	1	main_slash	7	advance_on_keypress_SLASH	64	stimuli_target_trianglesquares.svg	stimuli_distractor_trianglediamonds.svg	18	yes	57	0	559	0	0			0	0			1				0	
6.6.1	mac	2023-06-26	21:35:19	21:43:16	473015	62bdc8f9ce5149c655938472	3	1	main_slash	7	main_slash	65	stimuli_distractor_diamondtriangles.svg	stimuli_distractor_diamondtriangles.svg	39	no	0	1	2000	0	0			0	0			1				0	
6.6.1	mac	2023-06-26	21:35:19	21:43:16	473015	62bdc8f9ce5149c655938472	3	1	main_slash	7	advance_on_keypress_SLASH	66	stimuli_distractor_diamondtriangles.svg	stimuli_distractor_diamondtriangles.svg	39	no	57	0	553	0	0			0	0			1				0	
6.6.1	mac	2023-06-26	21:35:19	21:43:18	474260	62bdc8f9ce5149c655938472	3	1	main_slash	7	main_slash	67	stimuli_distractor_diamondtriangles.svg	stimuli_distractor_diamondtriangles.svg	40	no	53	0	60	0	0			0	0			1				0	
6.6.1	mac	2023-06-26	21:35:19	21:43:18	474260	62bdc8f9ce5149c655938472	3	1	main_slash	7	advance_on_keypress_SLASH	68	stimuli_distractor_diamondtriangles.svg	stimuli_distractor_diamondtriangles.svg	40	no	57	0	737	0	0			0	0			1				0	
6.6.1	mac	2023-06-26	21:35:19	21:43:20	476251	62bdc8f9ce5149c655938472	3	1	main_slash	7	main_slash	69	stimuli_distractor_trianglediamonds.svg	stimuli_target_trianglesquares.svg	26	yes	53	1	617	0	0			0	0			1				0	
6.6.1	mac	2023-06-26	21:35:19	21:43:20	476251	62bdc8f9ce5149c655938472	3	1	main_slash	7	advance_on_keypress_SLASH	70	stimuli_distractor_trianglediamonds.svg	stimuli_target_trianglesquares.svg	26	yes	57	0	539	0	0			0	0			1				0	
6.6.1	mac	2023-06-26	21:35:19	21:43:21	477727	62bdc8f9ce5149c655938472	3	1	main_slash	7	main_slash	71	stimuli_distractor_trianglediamonds.svg	stimuli_target_squaretriangles.svg	11	yes	53	1	310	0	0			0	0			1				0	
6.6.1	mac	2023-06-26	21:35:19	21:43:21	477727	62bdc8f9ce5149c655938472	3	1	main_slash	7	advance_on_keypress_SLASH	72	stimuli_distractor_trianglediamonds.svg	stimuli_target_squaretriangles.svg	11	yes	57	0	659	0	0			0	0			1				0	
6.6.1	mac	2023-06-26	21:35:19	21:43:23	479265	62bdc8f9ce5149c655938472	3	1	main_slash	7	main_slash	73	stimuli_target_squaretriangles.svg	stimuli_distractor_diamondtriangles.svg	7	yes	53	1	248	0	0			0	0			1				0	
6.6.1	mac	2023-06-26	21:35:19	21:43:23	479265	62bdc8f9ce5149c655938472	3	1	main_slash	7	advance_on_keypress_SLASH	74	stimuli_target_squaretriangles.svg	stimuli_distractor_diamondtriangles.svg	7	yes	57	0	587	0	0			0	0			1				0	
6.6.1	mac	2023-06-26	21:35:19	21:43:24	480721	62bdc8f9ce5149c655938472	3	1	main_slash	7	main_slash	75	stimuli_target_squaretriangles.svg	stimuli_distractor_trianglediamonds.svg	3	yes	53	1	237	0	0			0	0			1				0	
6.6.1	mac	2023-06-26	21:35:19	21:43:24	480721	62bdc8f9ce5149c655938472	3	1	main_slash	7	advance_on_keypress_SLASH	76	stimuli_target_squaretriangles.svg	stimuli_distractor_trianglediamonds.svg	3	yes	57	0	549	0	0			0	0			1				0	
6.6.1	mac	2023-06-26	21:35:19	21:43:25	482027	62bdc8f9ce5149c655938472	3	1	main_slash	7	main_slash	77	stimuli_target_rectanglediamonds.svg	stimuli_distractor_diamondtriangles.svg	6	yes	53	1	127	0	0			0	0			1				0	
6.6.1	mac	2023-06-26	21:35:19	21:43:25	482027	62bdc8f9ce5149c655938472	3	1	main_slash	7	advance_on_keypress_SLASH	78	stimuli_target_rectanglediamonds.svg	stimuli_distractor_diamondtriangles.svg	6	yes	57	0	772	0	0			0	0			1				0	
6.6.1	mac	2023-06-26	21:35:19	21:43:29	485448	62bdc8f9ce5149c655938472	3	1	main_slash	7	main_slash	79	stimuli_distractor_diamondtriangles.svg	stimuli_distractor_trianglediamonds.svg	37	no	0	1	2000	0	0			0	0			1				0	
6.6.1	mac	2023-06-26	21:35:19	21:43:29	485448	62bdc8f9ce5149c655938472	3	1	main_slash	7	advance_on_keypress_SLASH	80	stimuli_distractor_diamondtriangles.svg	stimuli_distractor_trianglediamonds.svg	37	no	57	0	521	0	0			0	0			1				0	
6.6.1	mac	2023-06-26	21:35:19	21:43:31	487226	62bdc8f9ce5149c655938472	3	1	main_slash	7	main_slash	81	stimuli_distractor_diamondtriangles.svg	stimuli_target_rectangletriangles.svg	13	yes	53	1	626	0	0			0	0			1				0	
6.6.1	mac	2023-06-26	21:35:19	21:43:31	487226	62bdc8f9ce5149c655938472	3	1	main_slash	7	advance_on_keypress_SLASH	82	stimuli_distractor_diamondtriangles.svg	stimuli_target_rectangletriangles.svg	13	yes	57	0	1592	0	0			0	0			1				0	
6.6.1	mac	2023-06-26	21:35:19	21:43:35	491448	62bdc8f9ce5149c655938472	3	1	main_slash	7	main_slash	83	stimuli_distractor_trianglediamonds.svg	stimuli_distractor_diamondtriangles.svg	35	no	0	1	2000	0	0			0	0			1				0	
6.6.1	mac	2023-06-26	21:35:19	21:43:35	491448	62bdc8f9ce5149c655938472	3	1	main_slash	7	advance_on_keypress_SLASH	84	stimuli_distractor_trianglediamonds.svg	stimuli_distractor_diamondtriangles.svg	35	no	57	0	490	0	0			0	0			1				0	
6.6.1	mac	2023-06-26	21:35:19	21:43:36	492700	62bdc8f9ce5149c655938472	3	1	main_slash	7	main_slash	85	stimuli_distractor_trianglediamonds.svg	stimuli_target_rectangletriangles.svg	9	yes	53	1	134	0	0			0	0			1				0	
6.6.1	mac	2023-06-26	21:35:19	21:43:36	492700	62bdc8f9ce5149c655938472	3	1	main_slash	7	advance_on_keypress_SLASH	86	stimuli_distractor_trianglediamonds.svg	stimuli_target_rectangletriangles.svg	9	yes	57	0	954	0	0			0	0			1				0	
6.6.1	mac	2023-06-26	21:35:19	21:43:38	494398	62bdc8f9ce5149c655938472	3	1	main_slash	7	main_slash	87	stimuli_distractor_diamondtriangles.svg	stimuli_target_rectanglediamonds.svg	14	yes	53	1	98	0	0			0	0			1				0	
6.6.1	mac	2023-06-26	21:35:19	21:43:38	494398	62bdc8f9ce5149c655938472	3	1	main_slash	7	advance_on_keypress_SLASH	88	stimuli_distractor_diamondtriangles.svg	stimuli_target_rectanglediamonds.svg	14	yes	57	0	822	0	0			0	0			1				0	
6.6.1	mac	2023-06-26	21:35:19	21:43:40	496093	62bdc8f9ce5149c655938472	3	1	main_slash	7	main_slash	89	stimuli_distractor_diamondtriangles.svg	stimuli_target_trianglesquares.svg	30	yes	53	1	241	0	0			0	0			1				0	
6.6.1	mac	2023-06-26	21:35:19	21:43:40	496093	62bdc8f9ce5149c655938472	3	1	main_slash	7	advance_on_keypress_SLASH	90	stimuli_distractor_diamondtriangles.svg	stimuli_target_trianglesquares.svg	30	yes	57	0	702	0	0			0	0			1				0	
6.6.1	mac	2023-06-26	21:35:19	21:43:41	497554	62bdc8f9ce5149c655938472	3	1	main_slash	7	main_slash	91	stimuli_distractor_trianglediamonds.svg	stimuli_target_diamondsquares.svg	28	yes	53	1	120	0	0			0	0			1				0	
6.6.1	mac	2023-06-26	21:35:19	21:43:41	497554	62bdc8f9ce5149c655938472	3	1	main_slash	7	advance_on_keypress_SLASH	92	stimuli_distractor_trianglediamonds.svg	stimuli_target_diamondsquares.svg	28	yes	57	0	794	0	0			0	0			1				0	
6.6.1	mac	2023-06-26	21:35:19	21:43:43	499146	62bdc8f9ce5149c655938472	3	1	main_slash	7	main_slash	93	stimuli_target_squaretriangles.svg	stimuli_distractor_trianglediamonds.svg	3	yes	53	1	162	0	0			0	0			1				0	
6.6.1	mac	2023-06-26	21:35:19	21:43:43	499146	62bdc8f9ce5149c655938472	3	1	main_slash	7	advance_on_keypress_SLASH	94	stimuli_target_squaretriangles.svg	stimuli_distractor_trianglediamonds.svg	3	yes	57	0	653	0	0			0	0			1				0	
6.6.1	mac	2023-06-26	21:35:19	21:43:44	500585	62bdc8f9ce5149c655938472	3	1	main_slash	7	main_slash	95	stimuli_target_rectangletriangles.svg	stimuli_distractor_trianglediamonds.svg	1	yes	53	1	151	0	0			0	0			1				0	
6.6.1	mac	2023-06-26	21:35:19	21:43:44	500585	62bdc8f9ce5149c655938472	3	1	main_slash	7	advance_on_keypress_SLASH	96	stimuli_target_rectangletriangles.svg	stimuli_distractor_trianglediamonds.svg	1	yes	57	0	856	0	0			0	0			1				0	
6.6.1	mac	2023-06-26	21:35:19	21:43:46	502281	62bdc8f9ce5149c655938472	3	1	main_slash	7	main_slash	97	stimuli_distractor_trianglediamonds.svg	stimuli_target_diamondrectangles.svg	27	yes	53	1	214	0	0			0	0			1				0	
6.6.1	mac	2023-06-26	21:35:19	21:43:46	502281	62bdc8f9ce5149c655938472	3	1	main_slash	7	advance_on_keypress_SLASH	98	stimuli_distractor_trianglediamonds.svg	stimuli_target_diamondrectangles.svg	27	yes	57	0	708	0	0			0	0			1				0	
6.6.1	mac	2023-06-26	21:35:19	21:43:47	503930	62bdc8f9ce5149c655938472	3	1	main_slash	7	main_slash	99	stimuli_target_diamondrectangles.svg	stimuli_distractor_diamondtriangles.svg	23	yes	53	1	313	0	0			0	0			1				0	
6.6.1	mac	2023-06-26	21:35:19	21:43:47	503930	62bdc8f9ce5149c655938472	3	1	main_slash	7	advance_on_keypress_SLASH	100	stimuli_target_diamondrectangles.svg	stimuli_distractor_diamondtriangles.svg	23	yes	57	0	759	0	0			0	0			1				0	
6.6.1	mac	2023-06-26	21:35:19	21:43:49	505527	62bdc8f9ce5149c655938472	3	1	main_slash	7	main_slash	101	stimuli_distractor_diamondtriangles.svg	stimuli_distractor_trianglediamonds.svg	37	no	53	0	207	0	0			0	0			1				0	
6.6.1	mac	2023-06-26	21:35:19	21:43:49	505527	62bdc8f9ce5149c655938472	3	1	main_slash	7	advance_on_keypress_SLASH	102	stimuli_distractor_diamondtriangles.svg	stimuli_distractor_trianglediamonds.svg	37	no	57	0	482	0	0			0	0			1				0	
6.6.1	mac	2023-06-26	21:35:19	21:43:51	507131	62bdc8f9ce5149c655938472	3	1	main_slash	7	main_slash	103	stimuli_target_trianglesquares.svg	stimuli_distractor_diamondtriangles.svg	22	yes	53	1	497	0	0			0	0			1				0	
6.6.1	mac	2023-06-26	21:35:19	21:43:51	507131	62bdc8f9ce5149c655938472	3	1	main_slash	7	advance_on_keypress_SLASH	104	stimuli_target_trianglesquares.svg	stimuli_distractor_diamondtriangles.svg	22	yes	57	0	666	0	0			0	0			1				0	
6.6.1	mac	2023-06-26	21:35:19	21:43:52	508773	62bdc8f9ce5149c655938472	3	1	main_slash	7	main_slash	105	stimuli_distractor_diamondtriangles.svg	stimuli_distractor_trianglediamonds.svg	38	no	53	0	339	0	0			0	0			1				0	
6.6.1	mac	2023-06-26	21:35:19	21:43:52	508773	62bdc8f9ce5149c655938472	3	1	main_slash	7	advance_on_keypress_SLASH	106	stimuli_distractor_diamondtriangles.svg	stimuli_distractor_trianglediamonds.svg	38	no	57	0	749	0	0			0	0			1				0	
6.6.1	mac	2023-06-26	21:35:19	21:43:54	510500	62bdc8f9ce5149c655938472	3	1	main_slash	7	main_slash	107	stimuli_distractor_trianglediamonds.svg	stimuli_distractor_diamondtriangles.svg	36	no	53	0	350	0	0			0	0			1				0	
6.6.1	mac	2023-06-26	21:35:19	21:43:54	510500	62bdc8f9ce5149c655938472	3	1	main_slash	7	advance_on_keypress_SLASH	108	stimuli_distractor_trianglediamonds.svg	stimuli_distractor_diamondtriangles.svg	36	no	57	0	557	0	0			0	0			1				0	
6.6.1	mac	2023-06-26	21:35:19	21:43:55	511782	62bdc8f9ce5149c655938472	3	1	main_slash	7	main_slash	109	stimuli_distractor_trianglediamonds.svg	stimuli_target_trianglerectangles.svg	25	yes	53	1	97	0	0			0	0			1				0	
6.6.1	mac	2023-06-26	21:35:19	21:43:55	511782	62bdc8f9ce5149c655938472	3	1	main_slash	7	advance_on_keypress_SLASH	110	stimuli_distractor_trianglediamonds.svg	stimuli_target_trianglerectangles.svg	25	yes	57	0	583	0	0			0	0			1				0	
6.6.1	mac	2023-06-26	21:35:19	21:43:57	513070	62bdc8f9ce5149c655938472	3	1	main_slash	7	main_slash	111	stimuli_distractor_trianglediamonds.svg	stimuli_distractor_trianglediamonds.svg	34	no	53	0	70	0	0			0	0			1				0	
6.6.1	mac	2023-06-26	21:35:19	21:43:57	513070	62bdc8f9ce5149c655938472	3	1	main_slash	7	advance_on_keypress_SLASH	112	stimuli_distractor_trianglediamonds.svg	stimuli_distractor_trianglediamonds.svg	34	no	57	0	546	0	0			0	0			1				0	
6.6.1	mac	2023-06-26	21:35:19	21:43:58	514684	62bdc8f9ce5149c655938472	3	1	main_slash	7	main_slash	113	stimuli_distractor_diamondtriangles.svg	stimuli_target_diamondsquares.svg	32	yes	53	1	435	0	0			0	0			1				0	
6.6.1	mac	2023-06-26	21:35:19	21:43:58	514684	62bdc8f9ce5149c655938472	3	1	main_slash	7	advance_on_keypress_SLASH	114	stimuli_distractor_diamondtriangles.svg	stimuli_target_diamondsquares.svg	32	yes	57	0	561	0	0			0	0			1				0	
6.6.1	mac	2023-06-26	21:35:19	21:43:59	515918	62bdc8f9ce5149c655938472	3	1	main_slash	7	main_slash	115	stimuli_target_diamondrectangles.svg	stimuli_distractor_trianglediamonds.svg	19	yes	53	1	33	0	0			0	0			1				0	
6.6.1	mac	2023-06-26	21:35:19	21:43:59	515918	62bdc8f9ce5149c655938472	3	1	main_slash	7	advance_on_keypress_SLASH	116	stimuli_target_diamondrectangles.svg	stimuli_distractor_trianglediamonds.svg	19	yes	57	0	995	0	0			0	0			1				0	
6.6.1	mac	2023-06-26	21:35:19	21:44:01	517909	62bdc8f9ce5149c655938472	3	1	main_slash	7	main_slash	117	stimuli_distractor_trianglediamonds.svg	stimuli_target_rectanglediamonds.svg	10	yes	53	1	359	0	0			0	0			1				0	
6.6.1	mac	2023-06-26	21:35:19	21:44:01	517909	62bdc8f9ce5149c655938472	3	1	main_slash	7	advance_on_keypress_SLASH	118	stimuli_distractor_trianglediamonds.svg	stimuli_target_rectanglediamonds.svg	10	yes	57	0	3169	0	0			0	0			1				0	
6.6.1	mac	2023-06-26	21:35:19	21:44:07	523714	62bdc8f9ce5149c655938472	3	1	main_slash	7	main_slash	119	stimuli_distractor_diamondtriangles.svg	stimuli_target_squaretriangles.svg	15	yes	0	0	2000	0	0			0	0			1				0	
6.6.1	mac	2023-06-26	21:35:19	21:44:07	523714	62bdc8f9ce5149c655938472	3	1	main_slash	7	advance_on_keypress_SLASH	120	stimuli_distractor_diamondtriangles.svg	stimuli_target_squaretriangles.svg	15	yes	57	0	4532	0	0			0	0			1				0	
6.6.1	mac	2023-06-26	21:35:19	21:44:13	529144	62bdc8f9ce5149c655938472	3	1	main_slash	7	main_slash	121	stimuli_target_squaretriangles.svg	stimuli_distractor_diamondtriangles.svg	7	yes	53	1	261	0	0			0	0			1				0	
6.6.1	mac	2023-06-26	21:35:19	21:44:13	529144	62bdc8f9ce5149c655938472	3	1	main_slash	7	advance_on_keypress_SLASH	122	stimuli_target_squaretriangles.svg	stimuli_distractor_diamondtriangles.svg	7	yes	57	0	743	0	0			0	0			1				0	
6.6.1	mac	2023-06-26	21:35:19	21:44:15	531117	62bdc8f9ce5149c655938472	3	1	main_slash	7	main_slash	123	stimuli_target_squarediamonds.svg	stimuli_distractor_diamondtriangles.svg	8	yes	53	1	600	0	0			0	0			1				0	
6.6.1	mac	2023-06-26	21:35:19	21:44:15	531117	62bdc8f9ce5149c655938472	3	1	main_slash	7	advance_on_keypress_SLASH	124	stimuli_target_squarediamonds.svg	stimuli_distractor_diamondtriangles.svg	8	yes	57	0	575	0	0			0	0			1				0	
6.6.1	mac	2023-06-26	21:35:19	21:44:16	532741	62bdc8f9ce5149c655938472	3	1	main_slash	7	main_slash	125	stimuli_distractor_diamondtriangles.svg	stimuli_distractor_diamondtriangles.svg	39	no	53	0	421	0	0			0	0			1				0	
6.6.1	mac	2023-06-26	21:35:19	21:44:16	532741	62bdc8f9ce5149c655938472	3	1	main_slash	7	advance_on_keypress_SLASH	126	stimuli_distractor_diamondtriangles.svg	stimuli_distractor_diamondtriangles.svg	39	no	57	0	923	0	0			0	0			1				0	
6.6.1	mac	2023-06-26	21:35:19	21:44:20	536298	62bdc8f9ce5149c655938472	3	1	main_slash	7	main_slash	127	stimuli_target_rectanglediamonds.svg	stimuli_distractor_trianglediamonds.svg	2	yes	0	0	2000	0	0			0	0			1				0	
6.6.1	mac	2023-06-26	21:35:19	21:44:20	536298	62bdc8f9ce5149c655938472	3	1	main_slash	7	advance_on_keypress_SLASH	128	stimuli_target_rectanglediamonds.svg	stimuli_distractor_trianglediamonds.svg	2	yes	57	0	2435	0	0			0	0			1				0	
6.6.1	mac	2023-06-26	21:35:19	21:44:23	539553	62bdc8f9ce5149c655938472	3	1	main_slash	7	main_slash	129	stimuli_target_trianglesquares.svg	stimuli_distractor_trianglediamonds.svg	18	yes	53	1	187	0	0			0	0			1				0	
6.6.1	mac	2023-06-26	21:35:19	21:44:23	539553	62bdc8f9ce5149c655938472	3	1	main_slash	7	advance_on_keypress_SLASH	130	stimuli_target_trianglesquares.svg	stimuli_distractor_trianglediamonds.svg	18	yes	57	0	781	0	0			0	0			1				0	
6.6.1	mac	2023-06-26	21:35:19	21:44:24	541000	62bdc8f9ce5149c655938472	3	1	main_slash	7	main_slash	131	stimuli_distractor_diamondtriangles.svg	stimuli_target_trianglerectangles.svg	29	yes	53	1	33	0	0			0	0			1				0	
6.6.1	mac	2023-06-26	21:35:19	21:44:24	541000	62bdc8f9ce5149c655938472	3	1	main_slash	7	advance_on_keypress_SLASH	132	stimuli_distractor_diamondtriangles.svg	stimuli_target_trianglerectangles.svg	29	yes	57	0	680	0	0			0	0			1				0	
6.6.1	mac	2023-06-26	21:35:19	21:44:26	542632	62bdc8f9ce5149c655938472	3	1	main_slash	7	main_slash	133	stimuli_distractor_diamondtriangles.svg	stimuli_target_diamondrectangles.svg	31	yes	53	1	316	0	0			0	0			1				0	
6.6.1	mac	2023-06-26	21:35:19	21:44:26	542632	62bdc8f9ce5149c655938472	3	1	main_slash	7	advance_on_keypress_SLASH	134	stimuli_distractor_diamondtriangles.svg	stimuli_target_diamondrectangles.svg	31	yes	57	0	673	0	0			0	0			1				0	
6.6.1	mac	2023-06-26	21:35:19	21:44:28	544526	62bdc8f9ce5149c655938472	3	1	main_slash	7	main_slash	135	stimuli_distractor_trianglediamonds.svg	stimuli_target_squaretriangles.svg	11	yes	53	1	592	0	0			0	0			1				0	
6.6.1	mac	2023-06-26	21:35:19	21:44:28	544526	62bdc8f9ce5149c655938472	3	1	main_slash	7	advance_on_keypress_SLASH	136	stimuli_distractor_trianglediamonds.svg	stimuli_target_squaretriangles.svg	11	yes	57	0	668	0	0			0	0			1				0	
6.6.1	mac	2023-06-26	21:35:19	21:44:29	545917	62bdc8f9ce5149c655938472	3	1	main_slash	7	main_slash	137	stimuli_target_trianglerectangles.svg	stimuli_distractor_trianglediamonds.svg	17	yes	53	1	100	0	0			0	0			1				0	
6.6.1	mac	2023-06-26	21:35:19	21:44:29	545917	62bdc8f9ce5149c655938472	3	1	main_slash	7	advance_on_keypress_SLASH	138	stimuli_target_trianglerectangles.svg	stimuli_distractor_trianglediamonds.svg	17	yes	57	0	691	0	0			0	0			1				0	
6.6.1	mac	2023-06-26	21:35:19	21:44:31	547434	62bdc8f9ce5149c655938472	3	1	main_slash	7	main_slash	139	stimuli_target_rectangletriangles.svg	stimuli_distractor_diamondtriangles.svg	5	yes	53	1	201	0	0			0	0			1				0	
6.6.1	mac	2023-06-26	21:35:19	21:44:31	547434	62bdc8f9ce5149c655938472	3	1	main_slash	7	advance_on_keypress_SLASH	140	stimuli_target_rectangletriangles.svg	stimuli_distractor_diamondtriangles.svg	5	yes	57	0	567	0	0			0	0			1				0	
6.6.1	mac	2023-06-26	21:35:19	21:44:32	548931	62bdc8f9ce5149c655938472	3	1	main_slash	7	main_slash	141	stimuli_target_trianglerectangles.svg	stimuli_distractor_diamondtriangles.svg	21	yes	53	1	299	0	0			0	0			1				0	
6.6.1	mac	2023-06-26	21:35:19	21:44:32	548931	62bdc8f9ce5149c655938472	3	1	main_slash	7	advance_on_keypress_SLASH	142	stimuli_target_trianglerectangles.svg	stimuli_distractor_diamondtriangles.svg	21	yes	57	0	980	0	0			0	0			1				0	
6.6.1	mac	2023-06-26	21:35:19	21:44:34	550829	62bdc8f9ce5149c655938472	3	1	main_slash	7	main_slash	143	stimuli_distractor_trianglediamonds.svg	stimuli_distractor_trianglediamonds.svg	33	no	53	0	279	0	0			0	0			1				0	
6.6.1	mac	2023-06-26	21:35:19	21:44:34	550829	62bdc8f9ce5149c655938472	3	1	main_slash	7	advance_on_keypress_SLASH	144	stimuli_distractor_trianglediamonds.svg	stimuli_distractor_trianglediamonds.svg	33	no	57	0	804	0	0			0	0			1				0	
6.6.1	mac	2023-06-26	21:35:19	21:44:38	554265	62bdc8f9ce5149c655938472	3	1	main_slash	7	main_slash	145	stimuli_distractor_trianglediamonds.svg	stimuli_target_trianglesquares.svg	26	yes	0	0	2000	0	0			0	0			1				0	
6.6.1	mac	2023-06-26	21:35:19	21:44:38	554265	62bdc8f9ce5149c655938472	3	1	main_slash	7	advance_on_keypress_SLASH	146	stimuli_distractor_trianglediamonds.svg	stimuli_target_trianglesquares.svg	26	yes	57	0	359	0	0			0	0			1				0	
6.6.1	mac	2023-06-26	21:35:19	21:44:39	555816	62bdc8f9ce5149c655938472	3	1	main_slash	7	main_slash	147	stimuli_target_rectanglediamonds.svg	stimuli_distractor_diamondtriangles.svg	6	yes	53	1	567	0	0			0	0			1				0	
6.6.1	mac	2023-06-26	21:35:19	21:44:39	555816	62bdc8f9ce5149c655938472	3	1	main_slash	7	advance_on_keypress_SLASH	148	stimuli_target_rectanglediamonds.svg	stimuli_distractor_diamondtriangles.svg	6	yes	57	0	610	0	0			0	0			1				0	
6.6.1	mac	2023-06-26	21:35:19	21:44:41	557918	62bdc8f9ce5149c655938472	3	1	main_slash	7	main_slash	149	stimuli_target_diamondsquares.svg	stimuli_distractor_diamondtriangles.svg	24	yes	53	1	868	0	0			0	0			1				0	
6.6.1	mac	2023-06-26	21:35:19	21:44:41	557918	62bdc8f9ce5149c655938472	3	1	main_slash	7	advance_on_keypress_SLASH	150	stimuli_target_diamondsquares.svg	stimuli_distractor_diamondtriangles.svg	24	yes	57	0	618	0	0			0	0			1				0	
6.6.1	mac	2023-06-26	21:35:19	21:44:43	559626	62bdc8f9ce5149c655938472	3	1	main_slash	7	main_slash	151	stimuli_target_squarediamonds.svg	stimuli_distractor_trianglediamonds.svg	4	yes	53	1	459	0	0			0	0			1				0	
6.6.1	mac	2023-06-26	21:35:19	21:44:43	559626	62bdc8f9ce5149c655938472	3	1	main_slash	7	advance_on_keypress_SLASH	152	stimuli_target_squarediamonds.svg	stimuli_distractor_trianglediamonds.svg	4	yes	57	0	548	0	0			0	0			1				0	
6.6.1	mac	2023-06-26	21:35:19	21:44:45	561350	62bdc8f9ce5149c655938472	3	1	main_slash	7	main_slash	153	stimuli_distractor_diamondtriangles.svg	stimuli_target_squarediamonds.svg	16	yes	53	1	550	0	0			0	0			1				0	
6.6.1	mac	2023-06-26	21:35:19	21:44:45	561350	62bdc8f9ce5149c655938472	3	1	main_slash	7	advance_on_keypress_SLASH	154	stimuli_distractor_diamondtriangles.svg	stimuli_target_squarediamonds.svg	16	yes	57	0	518	0	0			0	0			1				0	
6.6.1	mac	2023-06-26	21:35:19	21:44:48	564498	62bdc8f9ce5149c655938472	3	1	main_slash	7	main_slash	155	stimuli_distractor_diamondtriangles.svg	stimuli_distractor_diamondtriangles.svg	40	no	0	1	2000	0	0			0	0			1				0	
6.6.1	mac	2023-06-26	21:35:19	21:44:48	564498	62bdc8f9ce5149c655938472	3	1	main_slash	7	advance_on_keypress_SLASH	156	stimuli_distractor_diamondtriangles.svg	stimuli_distractor_diamondtriangles.svg	40	no	57	0	347	0	0			0	0			1				0	
6.6.1	mac	2023-06-26	21:35:19	21:44:49	565684	62bdc8f9ce5149c655938472	3	1	main_slash	7	main_slash	157	stimuli_target_diamondsquares.svg	stimuli_distractor_trianglediamonds.svg	20	yes	53	1	202	0	0			0	0			1				0	
6.6.1	mac	2023-06-26	21:35:19	21:44:49	565684	62bdc8f9ce5149c655938472	3	1	main_slash	7	advance_on_keypress_SLASH	158	stimuli_target_diamondsquares.svg	stimuli_distractor_trianglediamonds.svg	20	yes	57	0	554	0	0			0	0			1				0	
6.6.1	mac	2023-06-26	21:35:19	21:44:52	568864	62bdc8f9ce5149c655938472	3	1	main_slash	7	main_slash	159	stimuli_distractor_trianglediamonds.svg	stimuli_target_squarediamonds.svg	12	yes	0	0	2000	0	0			0	0			1				0	
6.6.1	mac	2023-06-26	21:35:19	21:44:52	568864	62bdc8f9ce5149c655938472	3	1	main_slash	7	advance_on_keypress_SLASH	160	stimuli_distractor_trianglediamonds.svg	stimuli_target_squarediamonds.svg	12	yes	57	0	221	0	0			0	0			1				0	
6.6.1	mac	2023-06-26	21:35:19	21:45:28	604363	62bdc8f9ce5149c655938472	3	1	practice_z	9	practice_z	1	stimuli_target_diamondsquares.svg	stimuli_distractor_trianglediamonds.svg	6	yes	44	1	729	0	0			0	0			1				0	
6.6.1	mac	2023-06-26	21:35:19	21:45:28	604363	62bdc8f9ce5149c655938472	3	1	practice_z	9	advance_on_keypress_ZEE	2	stimuli_target_diamondsquares.svg	stimuli_distractor_trianglediamonds.svg	6	yes	57	0	6683	0	0			0	0			1				0	
6.6.1	mac	2023-06-26	21:35:19	21:45:37	613422	62bdc8f9ce5149c655938472	3	1	practice_z	9	practice_z	3	stimuli_distractor_diamondtriangles.svg	stimuli_target_trianglerectangles.svg	9	yes	44	1	738	0	0			0	0			1				0	
6.6.1	mac	2023-06-26	21:35:19	21:45:37	613422	62bdc8f9ce5149c655938472	3	1	practice_z	9	advance_on_keypress_ZEE	4	stimuli_distractor_diamondtriangles.svg	stimuli_target_trianglerectangles.svg	9	yes	57	0	523	0	0			0	0			1				0	
6.6.1	mac	2023-06-26	21:35:19	21:45:40	616092	62bdc8f9ce5149c655938472	3	1	practice_z	9	practice_z	5	stimuli_target_squarediamonds.svg	stimuli_distractor_trianglediamonds.svg	5	yes	44	1	508	0	0			0	0			1				0	
6.6.1	mac	2023-06-26	21:35:19	21:45:40	616092	62bdc8f9ce5149c655938472	3	1	practice_z	9	advance_on_keypress_ZEE	6	stimuli_target_squarediamonds.svg	stimuli_distractor_trianglediamonds.svg	5	yes	57	0	407	0	0			0	0			1				0	
6.6.1	mac	2023-06-26	21:35:19	21:45:44	620130	62bdc8f9ce5149c655938472	3	1	practice_z	9	practice_z	7	stimuli_distractor_diamondtriangles.svg	stimuli_distractor_trianglediamonds.svg	14	no	0	1	2000	0	0			0	0			1				0	
6.6.1	mac	2023-06-26	21:35:19	21:45:44	620130	62bdc8f9ce5149c655938472	3	1	practice_z	9	advance_on_keypress_ZEE	8	stimuli_distractor_diamondtriangles.svg	stimuli_distractor_trianglediamonds.svg	14	no	57	0	2781	0	0			0	0			1				0	
6.6.1	mac	2023-06-26	21:35:19	21:45:48	624910	62bdc8f9ce5149c655938472	3	1	practice_z	9	practice_z	9	stimuli_distractor_trianglediamonds.svg	stimuli_distractor_diamondtriangles.svg	16	no	44	0	362	0	0			0	0			1				0	
6.6.1	mac	2023-06-26	21:35:19	21:45:48	624910	62bdc8f9ce5149c655938472	3	1	practice_z	9	advance_on_keypress_ZEE	10	stimuli_distractor_trianglediamonds.svg	stimuli_distractor_diamondtriangles.svg	16	no	57	0	513	0	0			0	0			1				0	
6.6.1	mac	2023-06-26	21:35:19	21:45:51	627526	62bdc8f9ce5149c655938472	3	1	practice_z	9	practice_z	11	stimuli_distractor_trianglediamonds.svg	stimuli_target_squarediamonds.svg	11	yes	44	1	478	0	0			0	0			1				0	
6.6.1	mac	2023-06-26	21:35:19	21:45:51	627526	62bdc8f9ce5149c655938472	3	1	practice_z	9	advance_on_keypress_ZEE	12	stimuli_distractor_trianglediamonds.svg	stimuli_target_squarediamonds.svg	11	yes	57	0	450	0	0			0	0			1				0	
6.6.1	mac	2023-06-26	21:35:19	21:45:53	629980	62bdc8f9ce5149c655938472	3	1	practice_z	9	practice_z	13	stimuli_target_squarediamonds.svg	stimuli_distractor_diamondtriangles.svg	2	yes	44	1	381	0	0			0	0			1				0	
6.6.1	mac	2023-06-26	21:35:19	21:45:53	629980	62bdc8f9ce5149c655938472	3	1	practice_z	9	advance_on_keypress_ZEE	14	stimuli_target_squarediamonds.svg	stimuli_distractor_diamondtriangles.svg	2	yes	57	0	370	0	0			0	0			1				0	
6.6.1	mac	2023-06-26	21:35:19	21:45:56	632385	62bdc8f9ce5149c655938472	3	1	practice_z	9	practice_z	15	stimuli_target_rectanglediamonds.svg	stimuli_distractor_trianglediamonds.svg	4	yes	44	1	404	0	0			0	0			1				0	
6.6.1	mac	2023-06-26	21:35:19	21:45:56	632385	62bdc8f9ce5149c655938472	3	1	practice_z	9	advance_on_keypress_ZEE	16	stimuli_target_rectanglediamonds.svg	stimuli_distractor_trianglediamonds.svg	4	yes	57	0	4287	0	0			0	0			1				0	
6.6.1	mac	2023-06-26	21:35:19	21:46:02	638952	62bdc8f9ce5149c655938472	3	1	practice_z	9	practice_z	17	stimuli_target_diamondsquares.svg	stimuli_distractor_diamondtriangles.svg	3	yes	44	1	653	0	0			0	0			1				0	
6.6.1	mac	2023-06-26	21:35:19	21:46:02	638952	62bdc8f9ce5149c655938472	3	1	practice_z	9	advance_on_keypress_ZEE	18	stimuli_target_diamondsquares.svg	stimuli_distractor_diamondtriangles.svg	3	yes	57	0	396	0	0			0	0			1				0	
6.6.1	mac	2023-06-26	21:35:19	21:46:05	641405	62bdc8f9ce5149c655938472	3	1	practice_z	9	practice_z	19	stimuli_target_rectanglediamonds.svg	stimuli_distractor_diamondtriangles.svg	1	yes	44	1	423	0	0			0	0			1				0	
6.6.1	mac	2023-06-26	21:35:19	21:46:05	641405	62bdc8f9ce5149c655938472	3	1	practice_z	9	advance_on_keypress_ZEE	20	stimuli_target_rectanglediamonds.svg	stimuli_distractor_diamondtriangles.svg	1	yes	57	0	466	0	0			0	0			1				0	
6.6.1	mac	2023-06-26	21:35:19	21:46:08	644058	62bdc8f9ce5149c655938472	3	1	practice_z	9	practice_z	21	stimuli_distractor_diamondtriangles.svg	stimuli_target_diamondrectangles.svg	8	yes	44	1	559	0	0			0	0			1				0	
6.6.1	mac	2023-06-26	21:35:19	21:46:08	644058	62bdc8f9ce5149c655938472	3	1	practice_z	9	advance_on_keypress_ZEE	22	stimuli_distractor_diamondtriangles.svg	stimuli_target_diamondrectangles.svg	8	yes	57	0	368	0	0			0	0			1				0	
6.6.1	mac	2023-06-26	21:35:19	21:46:10	646495	62bdc8f9ce5149c655938472	3	1	practice_z	9	practice_z	23	stimuli_distractor_diamondtriangles.svg	stimuli_target_rectangletriangles.svg	7	yes	44	1	447	0	0			0	0			1				0	
6.6.1	mac	2023-06-26	21:35:19	21:46:10	646495	62bdc8f9ce5149c655938472	3	1	practice_z	9	advance_on_keypress_ZEE	24	stimuli_distractor_diamondtriangles.svg	stimuli_target_rectangletriangles.svg	7	yes	57	0	486	0	0			0	0			1				0	
6.6.1	mac	2023-06-26	21:35:19	21:46:13	649228	62bdc8f9ce5149c655938472	3	1	practice_z	9	practice_z	25	stimuli_distractor_trianglediamonds.svg	stimuli_target_diamondrectangles.svg	12	yes	44	1	613	0	0			0	0			1				0	
6.6.1	mac	2023-06-26	21:35:19	21:46:13	649228	62bdc8f9ce5149c655938472	3	1	practice_z	9	advance_on_keypress_ZEE	26	stimuli_distractor_trianglediamonds.svg	stimuli_target_diamondrectangles.svg	12	yes	57	0	416	0	0			0	0			1				0	
6.6.1	mac	2023-06-26	21:35:19	21:46:17	653280	62bdc8f9ce5149c655938472	3	1	practice_z	9	practice_z	27	stimuli_distractor_diamondtriangles.svg	stimuli_distractor_diamondtriangles.svg	13	no	0	1	2000	0	0			0	0			1				0	
6.6.1	mac	2023-06-26	21:35:19	21:46:17	653280	62bdc8f9ce5149c655938472	3	1	practice_z	9	advance_on_keypress_ZEE	28	stimuli_distractor_diamondtriangles.svg	stimuli_distractor_diamondtriangles.svg	13	no	57	0	490	0	0			0	0			1				0	
6.6.1	mac	2023-06-26	21:35:19	21:46:19	655958	62bdc8f9ce5149c655938472	3	1	practice_z	9	practice_z	29	stimuli_distractor_trianglediamonds.svg	stimuli_target_rectanglediamonds.svg	10	yes	44	1	560	0	0			0	0			1				0	
6.6.1	mac	2023-06-26	21:35:19	21:46:19	655958	62bdc8f9ce5149c655938472	3	1	practice_z	9	advance_on_keypress_ZEE	30	stimuli_distractor_trianglediamonds.svg	stimuli_target_rectanglediamonds.svg	10	yes	57	0	527	0	0			0	0			1				0	
6.6.1	mac	2023-06-26	21:35:19	21:46:22	658786	62bdc8f9ce5149c655938472	3	1	practice_z	9	practice_z	31	stimuli_distractor_trianglediamonds.svg	stimuli_distractor_trianglediamonds.svg	15	no	44	0	671	0	0			0	0			1				0	
6.6.1	mac	2023-06-26	21:35:19	21:46:22	658786	62bdc8f9ce5149c655938472	3	1	practice_z	9	advance_on_keypress_ZEE	32	stimuli_distractor_trianglediamonds.svg	stimuli_distractor_trianglediamonds.svg	15	no	57	0	386	0	0			0	0			1				0	
6.6.1	mac	2023-06-26	21:35:19	21:46:38	674577	62bdc8f9ce5149c655938472	3	1	main_z	11	main_z	1	stimuli_target_squaretriangles.svg	stimuli_distractor_trianglediamonds.svg	3	yes	44	1	329	0	0			0	0			1				0	
6.6.1	mac	2023-06-26	21:35:19	21:46:38	674577	62bdc8f9ce5149c655938472	3	1	main_z	11	advance_on_keypress_ZEE	2	stimuli_target_squaretriangles.svg	stimuli_distractor_trianglediamonds.svg	3	yes	57	0	6516	0	0			0	0			1				0	
6.6.1	mac	2023-06-26	21:35:19	21:46:46	682398	62bdc8f9ce5149c655938472	3	1	main_z	11	main_z	3	stimuli_distractor_diamondtriangles.svg	stimuli_target_diamondrectangles.svg	31	yes	44	1	668	0	0			0	0			1				0	
6.6.1	mac	2023-06-26	21:35:19	21:46:46	682398	62bdc8f9ce5149c655938472	3	1	main_z	11	advance_on_keypress_ZEE	4	stimuli_distractor_diamondtriangles.svg	stimuli_target_diamondrectangles.svg	31	yes	57	0	819	0	0			0	0			1				0	
6.6.1	mac	2023-06-26	21:35:19	21:46:49	685845	62bdc8f9ce5149c655938472	3	1	main_z	11	main_z	5	stimuli_distractor_trianglediamonds.svg	stimuli_distractor_trianglediamonds.svg	33	no	0	1	2000	0	0			0	0			1				0	
6.6.1	mac	2023-06-26	21:35:19	21:46:49	685845	62bdc8f9ce5149c655938472	3	1	main_z	11	advance_on_keypress_ZEE	6	stimuli_distractor_trianglediamonds.svg	stimuli_distractor_trianglediamonds.svg	33	no	57	0	400	0	0			0	0			1				0	
6.6.1	mac	2023-06-26	21:35:19	21:46:51	687608	62bdc8f9ce5149c655938472	3	1	main_z	11	main_z	7	stimuli_target_trianglerectangles.svg	stimuli_distractor_diamondtriangles.svg	21	yes	44	1	727	0	0			0	0			1				0	
6.6.1	mac	2023-06-26	21:35:19	21:46:51	687608	62bdc8f9ce5149c655938472	3	1	main_z	11	advance_on_keypress_ZEE	8	stimuli_target_trianglerectangles.svg	stimuli_distractor_diamondtriangles.svg	21	yes	57	0	862	0	0			0	0			1				0	
6.6.1	mac	2023-06-26	21:35:19	21:46:55	691096	62bdc8f9ce5149c655938472	3	1	main_z	11	main_z	9	stimuli_distractor_trianglediamonds.svg	stimuli_distractor_diamondtriangles.svg	35	no	0	1	2000	0	0			0	0			1				0	
6.6.1	mac	2023-06-26	21:35:19	21:46:55	691096	62bdc8f9ce5149c655938472	3	1	main_z	11	advance_on_keypress_ZEE	10	stimuli_distractor_trianglediamonds.svg	stimuli_distractor_diamondtriangles.svg	35	no	57	0	312	0	0			0	0			1				0	
6.6.1	mac	2023-06-26	21:35:19	21:46:56	692457	62bdc8f9ce5149c655938472	3	1	main_z	11	main_z	11	stimuli_target_trianglesquares.svg	stimuli_distractor_diamondtriangles.svg	22	yes	44	1	427	0	0			0	0			1				0	
6.6.1	mac	2023-06-26	21:35:19	21:46:56	692457	62bdc8f9ce5149c655938472	3	1	main_z	11	advance_on_keypress_ZEE	12	stimuli_target_trianglesquares.svg	stimuli_distractor_diamondtriangles.svg	22	yes	57	0	668	0	0			0	0			1				0	
6.6.1	mac	2023-06-26	21:35:19	21:46:59	695746	62bdc8f9ce5149c655938472	3	1	main_z	11	main_z	13	stimuli_distractor_diamondtriangles.svg	stimuli_distractor_trianglediamonds.svg	37	no	0	1	2000	0	0			0	0			1				0	
6.6.1	mac	2023-06-26	21:35:19	21:46:59	695746	62bdc8f9ce5149c655938472	3	1	main_z	11	advance_on_keypress_ZEE	14	stimuli_distractor_diamondtriangles.svg	stimuli_distractor_trianglediamonds.svg	37	no	57	0	331	0	0			0	0			1				0	
6.6.1	mac	2023-06-26	21:35:19	21:47:01	697137	62bdc8f9ce5149c655938472	3	1	main_z	11	main_z	15	stimuli_distractor_diamondtriangles.svg	stimuli_target_diamondsquares.svg	32	yes	44	1	422	0	0			0	0			1				0	
6.6.1	mac	2023-06-26	21:35:19	21:47:01	697137	62bdc8f9ce5149c655938472	3	1	main_z	11	advance_on_keypress_ZEE	16	stimuli_distractor_diamondtriangles.svg	stimuli_target_diamondsquares.svg	32	yes	57	0	2628	0	0			0	0			1				0	
6.6.1	mac	2023-06-26	21:35:19	21:47:04	700958	62bdc8f9ce5149c655938472	3	1	main_z	11	main_z	17	stimuli_target_trianglerectangles.svg	stimuli_distractor_trianglediamonds.svg	17	yes	44	1	560	0	0			0	0			1				0	
6.6.1	mac	2023-06-26	21:35:19	21:47:04	700958	62bdc8f9ce5149c655938472	3	1	main_z	11	advance_on_keypress_ZEE	18	stimuli_target_trianglerectangles.svg	stimuli_distractor_trianglediamonds.svg	17	yes	57	0	575	0	0			0	0			1				0	
6.6.1	mac	2023-06-26	21:35:19	21:47:06	702570	62bdc8f9ce5149c655938472	3	1	main_z	11	main_z	19	stimuli_target_diamondsquares.svg	stimuli_distractor_diamondtriangles.svg	24	yes	44	1	405	0	0			0	0			1				0	
6.6.1	mac	2023-06-26	21:35:19	21:47:06	702570	62bdc8f9ce5149c655938472	3	1	main_z	11	advance_on_keypress_ZEE	20	stimuli_target_diamondsquares.svg	stimuli_distractor_diamondtriangles.svg	24	yes	57	0	978	0	0			0	0			1				0	
6.6.1	mac	2023-06-26	21:35:19	21:47:08	704435	62bdc8f9ce5149c655938472	3	1	main_z	11	main_z	21	stimuli_target_squaretriangles.svg	stimuli_distractor_diamondtriangles.svg	7	yes	44	1	254	0	0			0	0			1				0	
6.6.1	mac	2023-06-26	21:35:19	21:47:08	704435	62bdc8f9ce5149c655938472	3	1	main_z	11	advance_on_keypress_ZEE	22	stimuli_target_squaretriangles.svg	stimuli_distractor_diamondtriangles.svg	7	yes	57	0	4093	0	0			0	0			1				0	
6.6.1	mac	2023-06-26	21:35:19	21:47:13	709415	62bdc8f9ce5149c655938472	3	1	main_z	11	main_z	23	stimuli_distractor_trianglediamonds.svg	stimuli_target_trianglesquares.svg	26	yes	44	1	267	0	0			0	0			1				0	
6.6.1	mac	2023-06-26	21:35:19	21:47:13	709415	62bdc8f9ce5149c655938472	3	1	main_z	11	advance_on_keypress_ZEE	24	stimuli_distractor_trianglediamonds.svg	stimuli_target_trianglesquares.svg	26	yes	57	0	1428	0	0			0	0			1				0	
6.6.1	mac	2023-06-26	21:35:19	21:47:15	711795	62bdc8f9ce5149c655938472	3	1	main_z	11	main_z	25	stimuli_distractor_trianglediamonds.svg	stimuli_distractor_diamondtriangles.svg	36	no	44	0	315	0	0			0	0			1				0	
6.6.1	mac	2023-06-26	21:35:19	21:47:15	711795	62bdc8f9ce5149c655938472	3	1	main_z	11	advance_on_keypress_ZEE	26	stimuli_distractor_trianglediamonds.svg	stimuli_distractor_diamondtriangles.svg	36	no	57	0	566	0	0			0	0			1				0	
6.6.1	mac	2023-06-26	21:35:19	21:47:17	713317	62bdc8f9ce5149c655938472	3	1	main_z	11	main_z	27	stimuli_distractor_diamondtriangles.svg	stimuli_target_trianglerectangles.svg	29	yes	44	1	319	0	0			0	0			1				0	
6.6.1	mac	2023-06-26	21:35:19	21:47:17	713317	62bdc8f9ce5149c655938472	3	1	main_z	11	advance_on_keypress_ZEE	28	stimuli_distractor_diamondtriangles.svg	stimuli_target_trianglerectangles.svg	29	yes	57	0	495	0	0			0	0			1				0	
6.6.1	mac	2023-06-26	21:35:19	21:47:20	716428	62bdc8f9ce5149c655938472	3	1	main_z	11	main_z	29	stimuli_distractor_trianglediamonds.svg	stimuli_distractor_trianglediamonds.svg	34	no	0	1	2000	0	0			0	0			1				0	
6.6.1	mac	2023-06-26	21:35:19	21:47:20	716428	62bdc8f9ce5149c655938472	3	1	main_z	11	advance_on_keypress_ZEE	30	stimuli_distractor_trianglediamonds.svg	stimuli_distractor_trianglediamonds.svg	34	no	57	0	445	0	0			0	0			1				0	
6.6.1	mac	2023-06-26	21:35:19	21:47:21	717880	62bdc8f9ce5149c655938472	3	1	main_z	11	main_z	31	stimuli_target_rectangletriangles.svg	stimuli_distractor_trianglediamonds.svg	1	yes	44	1	383	0	0			0	0			1				0	
6.6.1	mac	2023-06-26	21:35:19	21:47:21	717880	62bdc8f9ce5149c655938472	3	1	main_z	11	advance_on_keypress_ZEE	32	stimuli_target_rectangletriangles.svg	stimuli_distractor_trianglediamonds.svg	1	yes	57	0	435	0	0			0	0			1				0	
6.6.1	mac	2023-06-26	21:35:19	21:47:24	720963	62bdc8f9ce5149c655938472	3	1	main_z	11	main_z	33	stimuli_distractor_diamondtriangles.svg	stimuli_distractor_trianglediamonds.svg	38	no	0	1	2000	0	0			0	0			1				0	
6.6.1	mac	2023-06-26	21:35:19	21:47:24	720963	62bdc8f9ce5149c655938472	3	1	main_z	11	advance_on_keypress_ZEE	34	stimuli_distractor_diamondtriangles.svg	stimuli_distractor_trianglediamonds.svg	38	no	57	0	279	0	0			0	0			1				0	
6.6.1	mac	2023-06-26	21:35:19	21:47:26	722355	62bdc8f9ce5149c655938472	3	1	main_z	11	main_z	35	stimuli_distractor_trianglediamonds.svg	stimuli_target_rectangletriangles.svg	9	yes	44	1	474	0	0			0	0			1				0	
6.6.1	mac	2023-06-26	21:35:19	21:47:26	722355	62bdc8f9ce5149c655938472	3	1	main_z	11	advance_on_keypress_ZEE	36	stimuli_distractor_trianglediamonds.svg	stimuli_target_rectangletriangles.svg	9	yes	57	0	590	0	0			0	0			1				0	
6.6.1	mac	2023-06-26	21:35:19	21:47:28	724090	62bdc8f9ce5149c655938472	3	1	main_z	11	main_z	37	stimuli_target_rectangletriangles.svg	stimuli_distractor_diamondtriangles.svg	5	yes	44	1	508	0	0			0	0			1				0	
6.6.1	mac	2023-06-26	21:35:19	21:47:28	724090	62bdc8f9ce5149c655938472	3	1	main_z	11	advance_on_keypress_ZEE	38	stimuli_target_rectangletriangles.svg	stimuli_distractor_diamondtriangles.svg	5	yes	57	0	412	0	0			0	0			1				0	
6.6.1	mac	2023-06-26	21:35:19	21:47:29	725639	62bdc8f9ce5149c655938472	3	1	main_z	11	main_z	39	stimuli_distractor_diamondtriangles.svg	stimuli_target_rectangletriangles.svg	13	yes	44	1	492	0	0			0	0			1				0	
6.6.1	mac	2023-06-26	21:35:19	21:47:29	725639	62bdc8f9ce5149c655938472	3	1	main_z	11	advance_on_keypress_ZEE	40	stimuli_distractor_diamondtriangles.svg	stimuli_target_rectangletriangles.svg	13	yes	57	0	330	0	0			0	0			1				0	
6.6.1	mac	2023-06-26	21:35:19	21:47:31	727176	62bdc8f9ce5149c655938472	3	1	main_z	11	main_z	41	stimuli_distractor_trianglediamonds.svg	stimuli_target_squarediamonds.svg	12	yes	44	1	578	0	0			0	0			1				0	
6.6.1	mac	2023-06-26	21:35:19	21:47:31	727176	62bdc8f9ce5149c655938472	3	1	main_z	11	advance_on_keypress_ZEE	42	stimuli_distractor_trianglediamonds.svg	stimuli_target_squarediamonds.svg	12	yes	57	0	311	0	0			0	0			1				0	
6.6.1	mac	2023-06-26	21:35:19	21:47:32	728417	62bdc8f9ce5149c655938472	3	1	main_z	11	main_z	43	stimuli_distractor_diamondtriangles.svg	stimuli_target_squarediamonds.svg	16	yes	44	1	303	0	0			0	0			1				0	
6.6.1	mac	2023-06-26	21:35:19	21:47:32	728417	62bdc8f9ce5149c655938472	3	1	main_z	11	advance_on_keypress_ZEE	44	stimuli_distractor_diamondtriangles.svg	stimuli_target_squarediamonds.svg	16	yes	57	0	269	0	0			0	0			1				0	
6.6.1	mac	2023-06-26	21:35:19	21:47:33	729646	62bdc8f9ce5149c655938472	3	1	main_z	11	main_z	45	stimuli_distractor_trianglediamonds.svg	stimuli_target_rectanglediamonds.svg	10	yes	44	1	332	0	0			0	0			1				0	
6.6.1	mac	2023-06-26	21:35:19	21:47:33	729646	62bdc8f9ce5149c655938472	3	1	main_z	11	advance_on_keypress_ZEE	46	stimuli_distractor_trianglediamonds.svg	stimuli_target_rectanglediamonds.svg	10	yes	57	0	236	0	0			0	0			1				0	
6.6.1	mac	2023-06-26	21:35:19	21:47:35	731057	62bdc8f9ce5149c655938472	3	1	main_z	11	main_z	47	stimuli_target_trianglesquares.svg	stimuli_distractor_trianglediamonds.svg	18	yes	44	1	541	0	0			0	0			1				0	
6.6.1	mac	2023-06-26	21:35:19	21:47:35	731057	62bdc8f9ce5149c655938472	3	1	main_z	11	advance_on_keypress_ZEE	48	stimuli_target_trianglesquares.svg	stimuli_distractor_trianglediamonds.svg	18	yes	57	0	293	0	0			0	0			1				0	
6.6.1	mac	2023-06-26	21:35:19	21:47:36	732377	62bdc8f9ce5149c655938472	3	1	main_z	11	main_z	49	stimuli_distractor_trianglediamonds.svg	stimuli_target_diamondsquares.svg	28	yes	44	1	395	0	0			0	0			1				0	
6.6.1	mac	2023-06-26	21:35:19	21:47:36	732377	62bdc8f9ce5149c655938472	3	1	main_z	11	advance_on_keypress_ZEE	50	stimuli_distractor_trianglediamonds.svg	stimuli_target_diamondsquares.svg	28	yes	57	0	224	0	0			0	0			1				0	
6.6.1	mac	2023-06-26	21:35:19	21:47:37	733563	62bdc8f9ce5149c655938472	3	1	main_z	11	main_z	51	stimuli_target_diamondrectangles.svg	stimuli_distractor_trianglediamonds.svg	19	yes	44	1	332	0	0			0	0			1				0	
6.6.1	mac	2023-06-26	21:35:19	21:47:37	733563	62bdc8f9ce5149c655938472	3	1	main_z	11	advance_on_keypress_ZEE	52	stimuli_target_diamondrectangles.svg	stimuli_distractor_trianglediamonds.svg	19	yes	57	0	278	0	0			0	0			1				0	
6.6.1	mac	2023-06-26	21:35:19	21:47:38	734829	62bdc8f9ce5149c655938472	3	1	main_z	11	main_z	53	stimuli_target_rectanglediamonds.svg	stimuli_distractor_trianglediamonds.svg	2	yes	44	1	347	0	0			0	0			1				0	
6.6.1	mac	2023-06-26	21:35:19	21:47:38	734829	62bdc8f9ce5149c655938472	3	1	main_z	11	advance_on_keypress_ZEE	54	stimuli_target_rectanglediamonds.svg	stimuli_distractor_trianglediamonds.svg	2	yes	57	0	199	0	0			0	0			1				0	
6.6.1	mac	2023-06-26	21:35:19	21:47:39	735988	62bdc8f9ce5149c655938472	3	1	main_z	11	main_z	55	stimuli_target_squarediamonds.svg	stimuli_distractor_diamondtriangles.svg	8	yes	44	1	322	0	0			0	0			1				0	
6.6.1	mac	2023-06-26	21:35:19	21:47:39	735988	62bdc8f9ce5149c655938472	3	1	main_z	11	advance_on_keypress_ZEE	56	stimuli_target_squarediamonds.svg	stimuli_distractor_diamondtriangles.svg	8	yes	57	0	181	0	0			0	0			1				0	
6.6.1	mac	2023-06-26	21:35:19	21:47:41	737040	62bdc8f9ce5149c655938472	3	1	main_z	11	main_z	57	stimuli_distractor_diamondtriangles.svg	stimuli_target_rectanglediamonds.svg	14	yes	44	1	243	0	0			0	0			1				0	
6.6.1	mac	2023-06-26	21:35:19	21:47:41	737040	62bdc8f9ce5149c655938472	3	1	main_z	11	advance_on_keypress_ZEE	58	stimuli_distractor_diamondtriangles.svg	stimuli_target_rectanglediamonds.svg	14	yes	57	0	319	0	0			0	0			1				0	
6.6.1	mac	2023-06-26	21:35:19	21:47:42	738291	62bdc8f9ce5149c655938472	3	1	main_z	11	main_z	59	stimuli_distractor_trianglediamonds.svg	stimuli_target_diamondrectangles.svg	27	yes	44	1	294	0	0			0	0			1				0	
6.6.1	mac	2023-06-26	21:35:19	21:47:42	738291	62bdc8f9ce5149c655938472	3	1	main_z	11	advance_on_keypress_ZEE	60	stimuli_distractor_trianglediamonds.svg	stimuli_target_diamondrectangles.svg	27	yes	57	0	485	0	0			0	0			1				0	
6.6.1	mac	2023-06-26	21:35:19	21:47:43	739667	62bdc8f9ce5149c655938472	3	1	main_z	11	main_z	61	stimuli_target_diamondsquares.svg	stimuli_distractor_trianglediamonds.svg	20	yes	44	1	271	0	0			0	0			1				0	
6.6.1	mac	2023-06-26	21:35:19	21:47:43	739667	62bdc8f9ce5149c655938472	3	1	main_z	11	advance_on_keypress_ZEE	62	stimuli_target_diamondsquares.svg	stimuli_distractor_trianglediamonds.svg	20	yes	57	0	521	0	0			0	0			1				0	
6.6.1	mac	2023-06-26	21:35:19	21:47:45	741057	62bdc8f9ce5149c655938472	3	1	main_z	11	main_z	63	stimuli_target_rectanglediamonds.svg	stimuli_distractor_diamondtriangles.svg	6	yes	44	1	243	0	0			0	0			1				0	
6.6.1	mac	2023-06-26	21:35:19	21:47:45	741057	62bdc8f9ce5149c655938472	3	1	main_z	11	advance_on_keypress_ZEE	64	stimuli_target_rectanglediamonds.svg	stimuli_distractor_diamondtriangles.svg	6	yes	57	0	300	0	0			0	0			1				0	
6.6.1	mac	2023-06-26	21:35:19	21:47:46	742275	62bdc8f9ce5149c655938472	3	1	main_z	11	main_z	65	stimuli_distractor_diamondtriangles.svg	stimuli_distractor_diamondtriangles.svg	40	no	44	0	296	0	0			0	0			1				0	
6.6.1	mac	2023-06-26	21:35:19	21:47:46	742275	62bdc8f9ce5149c655938472	3	1	main_z	11	advance_on_keypress_ZEE	66	stimuli_distractor_diamondtriangles.svg	stimuli_distractor_diamondtriangles.svg	40	no	57	0	575	0	0			0	0			1				0	
6.6.1	mac	2023-06-26	21:35:19	21:47:47	743814	62bdc8f9ce5149c655938472	3	1	main_z	11	main_z	67	stimuli_target_squarediamonds.svg	stimuli_distractor_trianglediamonds.svg	4	yes	44	1	333	0	0			0	0			1				0	
6.6.1	mac	2023-06-26	21:35:19	21:47:47	743814	62bdc8f9ce5149c655938472	3	1	main_z	11	advance_on_keypress_ZEE	68	stimuli_target_squarediamonds.svg	stimuli_distractor_trianglediamonds.svg	4	yes	57	0	235	0	0			0	0			1				0	
6.6.1	mac	2023-06-26	21:35:19	21:47:49	745027	62bdc8f9ce5149c655938472	3	1	main_z	11	main_z	69	stimuli_distractor_trianglediamonds.svg	stimuli_target_squaretriangles.svg	11	yes	44	1	345	0	0			0	0			1				0	
6.6.1	mac	2023-06-26	21:35:19	21:47:49	745027	62bdc8f9ce5149c655938472	3	1	main_z	11	advance_on_keypress_ZEE	70	stimuli_distractor_trianglediamonds.svg	stimuli_target_squaretriangles.svg	11	yes	57	0	231	0	0			0	0			1				0	
6.6.1	mac	2023-06-26	21:35:19	21:47:50	746200	62bdc8f9ce5149c655938472	3	1	main_z	11	main_z	71	stimuli_target_diamondrectangles.svg	stimuli_distractor_diamondtriangles.svg	23	yes	44	1	303	0	0			0	0			1				0	
6.6.1	mac	2023-06-26	21:35:19	21:47:50	746200	62bdc8f9ce5149c655938472	3	1	main_z	11	advance_on_keypress_ZEE	72	stimuli_target_diamondrectangles.svg	stimuli_distractor_diamondtriangles.svg	23	yes	57	0	247	0	0			0	0			1				0	
6.6.1	mac	2023-06-26	21:35:19	21:47:51	747479	62bdc8f9ce5149c655938472	3	1	main_z	11	main_z	73	stimuli_distractor_diamondtriangles.svg	stimuli_target_trianglesquares.svg	30	yes	44	1	399	0	0			0	0			1				0	
6.6.1	mac	2023-06-26	21:35:19	21:47:51	747479	62bdc8f9ce5149c655938472	3	1	main_z	11	advance_on_keypress_ZEE	74	stimuli_distractor_diamondtriangles.svg	stimuli_target_trianglesquares.svg	30	yes	57	0	315	0	0			0	0			1				0	
6.6.1	mac	2023-06-26	21:35:19	21:47:52	748862	62bdc8f9ce5149c655938472	3	1	main_z	11	main_z	75	stimuli_distractor_diamondtriangles.svg	stimuli_target_squaretriangles.svg	15	yes	44	1	431	0	0			0	0			1				0	
6.6.1	mac	2023-06-26	21:35:19	21:47:52	748862	62bdc8f9ce5149c655938472	3	1	main_z	11	advance_on_keypress_ZEE	76	stimuli_distractor_diamondtriangles.svg	stimuli_target_squaretriangles.svg	15	yes	57	0	217	0	0			0	0			1				0	
6.6.1	mac	2023-06-26	21:35:19	21:47:55	751711	62bdc8f9ce5149c655938472	3	1	main_z	11	main_z	77	stimuli_distractor_diamondtriangles.svg	stimuli_distractor_diamondtriangles.svg	39	no	0	1	2000	0	0			0	0			1				0	
6.6.1	mac	2023-06-26	21:35:19	21:47:55	751711	62bdc8f9ce5149c655938472	3	1	main_z	11	advance_on_keypress_ZEE	78	stimuli_distractor_diamondtriangles.svg	stimuli_distractor_diamondtriangles.svg	39	no	57	0	306	0	0			0	0			1				0	
6.6.1	mac	2023-06-26	21:35:19	21:47:57	753023	62bdc8f9ce5149c655938472	3	1	main_z	11	main_z	79	stimuli_distractor_trianglediamonds.svg	stimuli_target_trianglerectangles.svg	25	yes	44	1	376	0	0			0	0			1				0	
6.6.1	mac	2023-06-26	21:35:19	21:47:57	753023	62bdc8f9ce5149c655938472	3	1	main_z	11	advance_on_keypress_ZEE	80	stimuli_distractor_trianglediamonds.svg	stimuli_target_trianglerectangles.svg	25	yes	57	0	313	0	0			0	0			1				0	
6.6.1	mac	2023-06-26	21:35:19	21:47:58	754350	62bdc8f9ce5149c655938472	3	1	main_z	11	main_z	81	stimuli_target_squarediamonds.svg	stimuli_distractor_trianglediamonds.svg	4	yes	44	1	371	0	0			0	0			1				0	
6.6.1	mac	2023-06-26	21:35:19	21:47:58	754350	62bdc8f9ce5149c655938472	3	1	main_z	11	advance_on_keypress_ZEE	82	stimuli_target_squarediamonds.svg	stimuli_distractor_trianglediamonds.svg	4	yes	57	0	272	0	0			0	0			1				0	
6.6.1	mac	2023-06-26	21:35:19	21:47:59	755796	62bdc8f9ce5149c655938472	3	1	main_z	11	main_z	83	stimuli_distractor_diamondtriangles.svg	stimuli_target_rectangletriangles.svg	13	yes	44	1	531	0	0			0	0			1				0	
6.6.1	mac	2023-06-26	21:35:19	21:47:59	755796	62bdc8f9ce5149c655938472	3	1	main_z	11	advance_on_keypress_ZEE	84	stimuli_distractor_diamondtriangles.svg	stimuli_target_rectangletriangles.svg	13	yes	57	0	270	0	0			0	0			1				0	
6.6.1	mac	2023-06-26	21:35:19	21:48:01	757123	62bdc8f9ce5149c655938472	3	1	main_z	11	main_z	85	stimuli_target_diamondsquares.svg	stimuli_distractor_trianglediamonds.svg	20	yes	44	1	426	0	0			0	0			1				0	
6.6.1	mac	2023-06-26	21:35:19	21:48:01	757123	62bdc8f9ce5149c655938472	3	1	main_z	11	advance_on_keypress_ZEE	86	stimuli_target_diamondsquares.svg	stimuli_distractor_trianglediamonds.svg	20	yes	57	0	321	0	0			0	0			1				0	
6.6.1	mac	2023-06-26	21:35:19	21:48:04	760078	62bdc8f9ce5149c655938472	3	1	main_z	11	main_z	87	stimuli_target_trianglerectangles.svg	stimuli_distractor_diamondtriangles.svg	21	yes	0	0	2000	0	0			0	0			1				0	
6.6.1	mac	2023-06-26	21:35:19	21:48:04	760078	62bdc8f9ce5149c655938472	3	1	main_z	11	advance_on_keypress_ZEE	88	stimuli_target_trianglerectangles.svg	stimuli_distractor_diamondtriangles.svg	21	yes	57	0	408	0	0			0	0			1				0	
6.6.1	mac	2023-06-26	21:35:19	21:48:05	761411	62bdc8f9ce5149c655938472	3	1	main_z	11	main_z	89	stimuli_target_rectangletriangles.svg	stimuli_distractor_diamondtriangles.svg	5	yes	44	1	297	0	0			0	0			1				0	
6.6.1	mac	2023-06-26	21:35:19	21:48:05	761411	62bdc8f9ce5149c655938472	3	1	main_z	11	advance_on_keypress_ZEE	90	stimuli_target_rectangletriangles.svg	stimuli_distractor_diamondtriangles.svg	5	yes	57	0	275	0	0			0	0			1				0	
6.6.1	mac	2023-06-26	21:35:19	21:48:06	762756	62bdc8f9ce5149c655938472	3	1	main_z	11	main_z	91	stimuli_target_squaretriangles.svg	stimuli_distractor_trianglediamonds.svg	3	yes	44	1	426	0	0			0	0			1				0	
6.6.1	mac	2023-06-26	21:35:19	21:48:06	762756	62bdc8f9ce5149c655938472	3	1	main_z	11	advance_on_keypress_ZEE	92	stimuli_target_squaretriangles.svg	stimuli_distractor_trianglediamonds.svg	3	yes	57	0	162	0	0			0	0			1				0	
6.6.1	mac	2023-06-26	21:35:19	21:48:07	763864	62bdc8f9ce5149c655938472	3	1	main_z	11	main_z	93	stimuli_target_trianglerectangles.svg	stimuli_distractor_trianglediamonds.svg	17	yes	44	1	319	0	0			0	0			1				0	
6.6.1	mac	2023-06-26	21:35:19	21:48:07	763864	62bdc8f9ce5149c655938472	3	1	main_z	11	advance_on_keypress_ZEE	94	stimuli_target_trianglerectangles.svg	stimuli_distractor_trianglediamonds.svg	17	yes	57	0	140	0	0			0	0			1				0	
6.6.1	mac	2023-06-26	21:35:19	21:48:09	765033	62bdc8f9ce5149c655938472	3	1	main_z	11	main_z	95	stimuli_distractor_trianglediamonds.svg	stimuli_target_squarediamonds.svg	12	yes	44	1	403	0	0			0	0			1				0	
6.6.1	mac	2023-06-26	21:35:19	21:48:09	765033	62bdc8f9ce5149c655938472	3	1	main_z	11	advance_on_keypress_ZEE	96	stimuli_distractor_trianglediamonds.svg	stimuli_target_squarediamonds.svg	12	yes	57	0	182	0	0			0	0			1				0	
6.6.1	mac	2023-06-26	21:35:19	21:48:10	766174	62bdc8f9ce5149c655938472	3	1	main_z	11	main_z	97	stimuli_target_rectanglediamonds.svg	stimuli_distractor_diamondtriangles.svg	6	yes	44	1	327	0	0			0	0			1				0	
6.6.1	mac	2023-06-26	21:35:19	21:48:10	766174	62bdc8f9ce5149c655938472	3	1	main_z	11	advance_on_keypress_ZEE	98	stimuli_target_rectanglediamonds.svg	stimuli_distractor_diamondtriangles.svg	6	yes	57	0	199	0	0			0	0			1				0	
6.6.1	mac	2023-06-26	21:35:19	21:48:11	767399	62bdc8f9ce5149c655938472	3	1	main_z	11	main_z	99	stimuli_target_diamondrectangles.svg	stimuli_distractor_diamondtriangles.svg	23	yes	44	1	402	0	0			0	0			1				0	
6.6.1	mac	2023-06-26	21:35:19	21:48:11	767399	62bdc8f9ce5149c655938472	3	1	main_z	11	advance_on_keypress_ZEE	100	stimuli_target_diamondrectangles.svg	stimuli_distractor_diamondtriangles.svg	23	yes	57	0	197	0	0			0	0			1				0	
6.6.1	mac	2023-06-26	21:35:19	21:48:14	770228	62bdc8f9ce5149c655938472	3	1	main_z	11	main_z	101	stimuli_distractor_diamondtriangles.svg	stimuli_distractor_diamondtriangles.svg	40	no	0	1	2000	0	0			0	0			1				0	
6.6.1	mac	2023-06-26	21:35:19	21:48:14	770228	62bdc8f9ce5149c655938472	3	1	main_z	11	advance_on_keypress_ZEE	102	stimuli_distractor_diamondtriangles.svg	stimuli_distractor_diamondtriangles.svg	40	no	57	0	362	0	0			0	0			1				0	
6.6.1	mac	2023-06-26	21:35:19	21:48:15	771407	62bdc8f9ce5149c655938472	3	1	main_z	11	main_z	103	stimuli_target_diamondrectangles.svg	stimuli_distractor_trianglediamonds.svg	19	yes	44	1	177	0	0			0	0			1				0	
6.6.1	mac	2023-06-26	21:35:19	21:48:15	771407	62bdc8f9ce5149c655938472	3	1	main_z	11	advance_on_keypress_ZEE	104	stimuli_target_diamondrectangles.svg	stimuli_distractor_trianglediamonds.svg	19	yes	57	0	263	0	0			0	0			1				0	
6.6.1	mac	2023-06-26	21:35:19	21:48:16	772641	62bdc8f9ce5149c655938472	3	1	main_z	11	main_z	105	stimuli_distractor_trianglediamonds.svg	stimuli_distractor_trianglediamonds.svg	33	no	44	0	344	0	0			0	0			1				0	
6.6.1	mac	2023-06-26	21:35:19	21:48:16	772641	62bdc8f9ce5149c655938472	3	1	main_z	11	advance_on_keypress_ZEE	106	stimuli_distractor_trianglediamonds.svg	stimuli_distractor_trianglediamonds.svg	33	no	57	0	520	0	0			0	0			1				0	
6.6.1	mac	2023-06-26	21:35:19	21:48:19	775795	62bdc8f9ce5149c655938472	3	1	main_z	11	main_z	107	stimuli_distractor_trianglediamonds.svg	stimuli_distractor_diamondtriangles.svg	35	no	0	1	2000	0	0			0	0			1				0	
6.6.1	mac	2023-06-26	21:35:19	21:48:19	775795	62bdc8f9ce5149c655938472	3	1	main_z	11	advance_on_keypress_ZEE	108	stimuli_distractor_trianglediamonds.svg	stimuli_distractor_diamondtriangles.svg	35	no	57	0	565	0	0			0	0			1				0	
6.6.1	mac	2023-06-26	21:35:19	21:48:22	778994	62bdc8f9ce5149c655938472	3	1	main_z	11	main_z	109	stimuli_distractor_trianglediamonds.svg	stimuli_distractor_diamondtriangles.svg	36	no	0	1	2000	0	0			0	0			1				0	
6.6.1	mac	2023-06-26	21:35:19	21:48:22	778994	62bdc8f9ce5149c655938472	3	1	main_z	11	advance_on_keypress_ZEE	110	stimuli_distractor_trianglediamonds.svg	stimuli_distractor_diamondtriangles.svg	36	no	57	0	404	0	0			0	0			1				0	
6.6.1	mac	2023-06-26	21:35:19	21:48:24	780623	62bdc8f9ce5149c655938472	3	1	main_z	11	main_z	111	stimuli_target_trianglesquares.svg	stimuli_distractor_diamondtriangles.svg	22	yes	44	1	591	0	0			0	0			1				0	
6.6.1	mac	2023-06-26	21:35:19	21:48:24	780623	62bdc8f9ce5149c655938472	3	1	main_z	11	advance_on_keypress_ZEE	112	stimuli_target_trianglesquares.svg	stimuli_distractor_diamondtriangles.svg	22	yes	57	0	550	0	0			0	0			1				0	
6.6.1	mac	2023-06-26	21:35:19	21:48:26	782344	62bdc8f9ce5149c655938472	3	1	main_z	11	main_z	113	stimuli_distractor_diamondtriangles.svg	stimuli_target_trianglerectangles.svg	29	yes	44	1	547	0	0			0	0			1				0	
6.6.1	mac	2023-06-26	21:35:19	21:48:26	782344	62bdc8f9ce5149c655938472	3	1	main_z	11	advance_on_keypress_ZEE	114	stimuli_distractor_diamondtriangles.svg	stimuli_target_trianglerectangles.svg	29	yes	57	0	339	0	0			0	0			1				0	
6.6.1	mac	2023-06-26	21:35:19	21:48:27	783795	62bdc8f9ce5149c655938472	3	1	main_z	11	main_z	115	stimuli_distractor_diamondtriangles.svg	stimuli_target_squarediamonds.svg	16	yes	44	1	483	0	0			0	0			1				0	
6.6.1	mac	2023-06-26	21:35:19	21:48:27	783795	62bdc8f9ce5149c655938472	3	1	main_z	11	advance_on_keypress_ZEE	116	stimuli_distractor_diamondtriangles.svg	stimuli_target_squarediamonds.svg	16	yes	57	0	42944	0	0			0	0			1				0	
6.6.1	mac	2023-06-26	21:35:19	21:49:11	827942	62bdc8f9ce5149c655938472	3	1	main_z	11	main_z	117	stimuli_distractor_trianglediamonds.svg	stimuli_target_trianglerectangles.svg	25	yes	44	1	563	0	0			0	0			1				0	
6.6.1	mac	2023-06-26	21:35:19	21:49:11	827942	62bdc8f9ce5149c655938472	3	1	main_z	11	advance_on_keypress_ZEE	118	stimuli_distractor_trianglediamonds.svg	stimuli_target_trianglerectangles.svg	25	yes	57	0	541	0	0			0	0			1				0	
6.6.1	mac	2023-06-26	21:35:19	21:49:13	829572	62bdc8f9ce5149c655938472	3	1	main_z	11	main_z	119	stimuli_distractor_diamondtriangles.svg	stimuli_target_diamondsquares.svg	32	yes	44	1	440	0	0			0	0			1				0	
6.6.1	mac	2023-06-26	21:35:19	21:49:13	829572	62bdc8f9ce5149c655938472	3	1	main_z	11	advance_on_keypress_ZEE	120	stimuli_distractor_diamondtriangles.svg	stimuli_target_diamondsquares.svg	32	yes	57	0	316	0	0			0	0			1				0	
6.6.1	mac	2023-06-26	21:35:19	21:49:16	832510	62bdc8f9ce5149c655938472	3	1	main_z	11	main_z	121	stimuli_distractor_diamondtriangles.svg	stimuli_distractor_trianglediamonds.svg	38	no	0	1	2000	0	0			0	0			1				0	
6.6.1	mac	2023-06-26	21:35:19	21:49:16	832510	62bdc8f9ce5149c655938472	3	1	main_z	11	advance_on_keypress_ZEE	122	stimuli_distractor_diamondtriangles.svg	stimuli_distractor_trianglediamonds.svg	38	no	57	0	336	0	0			0	0			1				0	
6.6.1	mac	2023-06-26	21:35:19	21:49:17	833893	62bdc8f9ce5149c655938472	3	1	main_z	11	main_z	123	stimuli_distractor_trianglediamonds.svg	stimuli_target_trianglesquares.svg	26	yes	44	1	414	0	0			0	0			1				0	
6.6.1	mac	2023-06-26	21:35:19	21:49:17	833893	62bdc8f9ce5149c655938472	3	1	main_z	11	advance_on_keypress_ZEE	124	stimuli_distractor_trianglediamonds.svg	stimuli_target_trianglesquares.svg	26	yes	57	0	305	0	0			0	0			1				0	
6.6.1	mac	2023-06-26	21:35:19	21:49:19	835208	62bdc8f9ce5149c655938472	3	1	main_z	11	main_z	125	stimuli_distractor_diamondtriangles.svg	stimuli_target_diamondrectangles.svg	31	yes	44	1	380	0	0			0	0			1				0	
6.6.1	mac	2023-06-26	21:35:19	21:49:19	835208	62bdc8f9ce5149c655938472	3	1	main_z	11	advance_on_keypress_ZEE	126	stimuli_distractor_diamondtriangles.svg	stimuli_target_diamondrectangles.svg	31	yes	57	0	228	0	0			0	0			1				0	
6.6.1	mac	2023-06-26	21:35:19	21:49:20	836437	62bdc8f9ce5149c655938472	3	1	main_z	11	main_z	127	stimuli_distractor_diamondtriangles.svg	stimuli_target_trianglesquares.svg	30	yes	44	1	356	0	0			0	0			1				0	
6.6.1	mac	2023-06-26	21:35:19	21:49:20	836437	62bdc8f9ce5149c655938472	3	1	main_z	11	advance_on_keypress_ZEE	128	stimuli_distractor_diamondtriangles.svg	stimuli_target_trianglesquares.svg	30	yes	57	0	289	0	0			0	0			1				0	
6.6.1	mac	2023-06-26	21:35:19	21:49:21	837781	62bdc8f9ce5149c655938472	3	1	main_z	11	main_z	129	stimuli_target_rectanglediamonds.svg	stimuli_distractor_trianglediamonds.svg	2	yes	44	1	420	0	0			0	0			1				0	
6.6.1	mac	2023-06-26	21:35:19	21:49:21	837781	62bdc8f9ce5149c655938472	3	1	main_z	11	advance_on_keypress_ZEE	130	stimuli_target_rectanglediamonds.svg	stimuli_distractor_trianglediamonds.svg	2	yes	57	0	258	0	0			0	0			1				0	
6.6.1	mac	2023-06-26	21:35:19	21:49:23	839022	62bdc8f9ce5149c655938472	3	1	main_z	11	main_z	131	stimuli_distractor_trianglediamonds.svg	stimuli_target_diamondsquares.svg	28	yes	44	1	359	0	0			0	0			1				0	
6.6.1	mac	2023-06-26	21:35:19	21:49:23	839022	62bdc8f9ce5149c655938472	3	1	main_z	11	advance_on_keypress_ZEE	132	stimuli_distractor_trianglediamonds.svg	stimuli_target_diamondsquares.svg	28	yes	57	0	261	0	0			0	0			1				0	
6.6.1	mac	2023-06-26	21:35:19	21:49:25	841910	62bdc8f9ce5149c655938472	3	1	main_z	11	main_z	133	stimuli_distractor_diamondtriangles.svg	stimuli_distractor_trianglediamonds.svg	37	no	0	1	2000	0	0			0	0			1				0	
6.6.1	mac	2023-06-26	21:35:19	21:49:25	841910	62bdc8f9ce5149c655938472	3	1	main_z	11	advance_on_keypress_ZEE	134	stimuli_distractor_diamondtriangles.svg	stimuli_distractor_trianglediamonds.svg	37	no	57	0	357	0	0			0	0			1				0	
6.6.1	mac	2023-06-26	21:35:19	21:49:28	844893	62bdc8f9ce5149c655938472	3	1	main_z	11	main_z	135	stimuli_distractor_trianglediamonds.svg	stimuli_distractor_trianglediamonds.svg	34	no	0	1	2000	0	0			0	0			1				0	
6.6.1	mac	2023-06-26	21:35:19	21:49:28	844893	62bdc8f9ce5149c655938472	3	1	main_z	11	advance_on_keypress_ZEE	136	stimuli_distractor_trianglediamonds.svg	stimuli_distractor_trianglediamonds.svg	34	no	57	0	368	0	0			0	0			1				0	
6.6.1	mac	2023-06-26	21:35:19	21:49:31	847893	62bdc8f9ce5149c655938472	3	1	main_z	11	main_z	137	stimuli_distractor_diamondtriangles.svg	stimuli_distractor_diamondtriangles.svg	39	no	0	1	2000	0	0			0	0			1				0	
6.6.1	mac	2023-06-26	21:35:19	21:49:31	847893	62bdc8f9ce5149c655938472	3	1	main_z	11	advance_on_keypress_ZEE	138	stimuli_distractor_diamondtriangles.svg	stimuli_distractor_diamondtriangles.svg	39	no	57	0	298	0	0			0	0			1				0	
6.6.1	mac	2023-06-26	21:35:19	21:49:33	849297	62bdc8f9ce5149c655938472	3	1	main_z	11	main_z	139	stimuli_target_rectangletriangles.svg	stimuli_distractor_trianglediamonds.svg	1	yes	44	1	468	0	0			0	0			1				0	
6.6.1	mac	2023-06-26	21:35:19	21:49:33	849297	62bdc8f9ce5149c655938472	3	1	main_z	11	advance_on_keypress_ZEE	140	stimuli_target_rectangletriangles.svg	stimuli_distractor_trianglediamonds.svg	1	yes	57	0	307	0	0			0	0			1				0	
6.6.1	mac	2023-06-26	21:35:19	21:49:34	850746	62bdc8f9ce5149c655938472	3	1	main_z	11	main_z	141	stimuli_target_squaretriangles.svg	stimuli_distractor_diamondtriangles.svg	7	yes	44	1	517	0	0			0	0			1				0	
6.6.1	mac	2023-06-26	21:35:19	21:49:34	850746	62bdc8f9ce5149c655938472	3	1	main_z	11	advance_on_keypress_ZEE	142	stimuli_target_squaretriangles.svg	stimuli_distractor_diamondtriangles.svg	7	yes	57	0	399	0	0			0	0			1				0	
6.6.1	mac	2023-06-26	21:35:19	21:49:36	852222	62bdc8f9ce5149c655938472	3	1	main_z	11	main_z	143	stimuli_distractor_trianglediamonds.svg	stimuli_target_diamondrectangles.svg	27	yes	44	1	442	0	0			0	0			1				0	
6.6.1	mac	2023-06-26	21:35:19	21:49:36	852222	62bdc8f9ce5149c655938472	3	1	main_z	11	advance_on_keypress_ZEE	144	stimuli_distractor_trianglediamonds.svg	stimuli_target_diamondrectangles.svg	27	yes	57	0	251	0	0			0	0			1				0	
6.6.1	mac	2023-06-26	21:35:19	21:49:37	853539	62bdc8f9ce5149c655938472	3	1	main_z	11	main_z	145	stimuli_distractor_trianglediamonds.svg	stimuli_target_squaretriangles.svg	11	yes	44	1	442	0	0			0	0			1				0	
6.6.1	mac	2023-06-26	21:35:19	21:49:37	853539	62bdc8f9ce5149c655938472	3	1	main_z	11	advance_on_keypress_ZEE	146	stimuli_distractor_trianglediamonds.svg	stimuli_target_squaretriangles.svg	11	yes	57	0	239	0	0			0	0			1				0	
6.6.1	mac	2023-06-26	21:35:19	21:49:38	854788	62bdc8f9ce5149c655938472	3	1	main_z	11	main_z	147	stimuli_distractor_diamondtriangles.svg	stimuli_target_rectanglediamonds.svg	14	yes	44	1	375	0	0			0	0			1				0	
6.6.1	mac	2023-06-26	21:35:19	21:49:38	854788	62bdc8f9ce5149c655938472	3	1	main_z	11	advance_on_keypress_ZEE	148	stimuli_distractor_diamondtriangles.svg	stimuli_target_rectanglediamonds.svg	14	yes	57	0	206	0	0			0	0			1				0	
6.6.1	mac	2023-06-26	21:35:19	21:49:39	855897	62bdc8f9ce5149c655938472	3	1	main_z	11	main_z	149	stimuli_target_squarediamonds.svg	stimuli_distractor_diamondtriangles.svg	8	yes	44	1	252	0	0			0	0			1				0	
6.6.1	mac	2023-06-26	21:35:19	21:49:39	855897	62bdc8f9ce5149c655938472	3	1	main_z	11	advance_on_keypress_ZEE	150	stimuli_target_squarediamonds.svg	stimuli_distractor_diamondtriangles.svg	8	yes	57	0	228	0	0			0	0			1				0	
6.6.1	mac	2023-06-26	21:35:19	21:49:41	857129	62bdc8f9ce5149c655938472	3	1	main_z	11	main_z	151	stimuli_target_trianglesquares.svg	stimuli_distractor_trianglediamonds.svg	18	yes	44	1	367	0	0			0	0			1				0	
6.6.1	mac	2023-06-26	21:35:19	21:49:41	857129	62bdc8f9ce5149c655938472	3	1	main_z	11	advance_on_keypress_ZEE	152	stimuli_target_trianglesquares.svg	stimuli_distractor_trianglediamonds.svg	18	yes	57	0	366	0	0			0	0			1				0	
6.6.1	mac	2023-06-26	21:35:19	21:49:44	860127	62bdc8f9ce5149c655938472	3	1	main_z	11	main_z	153	stimuli_distractor_diamondtriangles.svg	stimuli_target_squaretriangles.svg	15	yes	0	0	2000	0	0			0	0			1				0	
6.6.1	mac	2023-06-26	21:35:19	21:49:44	860127	62bdc8f9ce5149c655938472	3	1	main_z	11	advance_on_keypress_ZEE	154	stimuli_distractor_diamondtriangles.svg	stimuli_target_squaretriangles.svg	15	yes	57	0	256	0	0			0	0			1				0	
6.6.1	mac	2023-06-26	21:35:19	21:49:45	861326	62bdc8f9ce5149c655938472	3	1	main_z	11	main_z	155	stimuli_distractor_trianglediamonds.svg	stimuli_target_rectanglediamonds.svg	10	yes	44	1	310	0	0			0	0			1				0	
6.6.1	mac	2023-06-26	21:35:19	21:49:45	861326	62bdc8f9ce5149c655938472	3	1	main_z	11	advance_on_keypress_ZEE	156	stimuli_distractor_trianglediamonds.svg	stimuli_target_rectanglediamonds.svg	10	yes	57	0	181	0	0			0	0			1				0	
6.6.1	mac	2023-06-26	21:35:19	21:49:46	862648	62bdc8f9ce5149c655938472	3	1	main_z	11	main_z	157	stimuli_target_diamondsquares.svg	stimuli_distractor_diamondtriangles.svg	24	yes	44	1	502	0	0			0	0			1				0	
6.6.1	mac	2023-06-26	21:35:19	21:49:46	862648	62bdc8f9ce5149c655938472	3	1	main_z	11	advance_on_keypress_ZEE	158	stimuli_target_diamondsquares.svg	stimuli_distractor_diamondtriangles.svg	24	yes	57	0	242	0	0			0	0			1				0	
6.6.1	mac	2023-06-26	21:35:19	21:49:47	863889	62bdc8f9ce5149c655938472	3	1	main_z	11	main_z	159	stimuli_distractor_trianglediamonds.svg	stimuli_target_rectangletriangles.svg	9	yes	44	1	360	0	0			0	0			1				0	
6.6.1	mac	2023-06-26	21:35:19	21:49:47	863889	62bdc8f9ce5149c655938472	3	1	main_z	11	advance_on_keypress_ZEE	160	stimuli_distractor_trianglediamonds.svg	stimuli_target_rectangletriangles.svg	9	yes	57	0	219	0	0			0	0			1				0	
6.6.1	mac	2023-06-26	21:35:19	21:49:47	863889	62bdc8f9ce5149c655938472	3	1	headphonecheck_calibration	14	headphonecheck_calibrationIntro	1	stimuli_distractor_trianglediamonds.svg	stimuli_target_rectangletriangles.svg	9	yes	calibrationButton	0	2202	0	0			0	0			1				0	
6.6.1	mac	2023-06-26	21:35:19	21:49:47	863889	62bdc8f9ce5149c655938472	3	1	headphonecheck_testphase	15	test_collectResponse	3	stimuli_distractor_trianglediamonds.svg	stimuli_target_rectangletriangles.svg	9	yes	third	1	784	1	6	antiphase_hc_ois.wav	3	0	0			1				0	
6.6.1	mac	2023-06-26	21:35:19	21:49:47	863889	62bdc8f9ce5149c655938472	3	1	headphonecheck_testphase	15	test_collectResponse	6	stimuli_distractor_trianglediamonds.svg	stimuli_target_rectangletriangles.svg	9	yes	third	1	480	2	2	antiphase_hc_ios.wav	3	0	0			1				0	
6.6.1	mac	2023-06-26	21:35:19	21:49:47	863889	62bdc8f9ce5149c655938472	3	1	headphonecheck_testphase	15	test_collectResponse	9	stimuli_distractor_trianglediamonds.svg	stimuli_target_rectangletriangles.svg	9	yes	first	1	226	3	3	antiphase_hc_soi.wav	1	0	0			1				0	
6.6.1	mac	2023-06-26	21:35:19	21:49:47	863889	62bdc8f9ce5149c655938472	3	1	headphonecheck_testphase	15	test_collectResponse	12	stimuli_distractor_trianglediamonds.svg	stimuli_target_rectangletriangles.svg	9	yes	second	1	36	4	5	antiphase_hc_osi.wav	2	0	0			1				0	
6.6.1	mac	2023-06-26	21:35:19	21:49:47	863889	62bdc8f9ce5149c655938472	3	1	headphonecheck_testphase	15	test_collectResponse	15	stimuli_distractor_trianglediamonds.svg	stimuli_target_rectangletriangles.svg	9	yes	second	0	272	5	4	antiphase_hc_sio.wav	1	0	0			1				0	
6.6.1	mac	2023-06-26	21:35:19	21:49:47	863889	62bdc8f9ce5149c655938472	3	1	headphonecheck_testphase	15	test_collectResponse	18	stimuli_distractor_trianglediamonds.svg	stimuli_target_rectangletriangles.svg	9	yes	second	1	6004	6	1	antiphase_hc_iso.wav	2	0	0			1				0	
6.6.1	mac	2023-06-26	21:35:19	21:49:47	863889	62bdc8f9ce5149c655938472	3	1	stereocheck_calibration	17	stereocheck_calibrationIntro	1	stimuli_distractor_trianglediamonds.svg	stimuli_target_rectangletriangles.svg	9	yes	stereocheck_calibrationButton	0	2492	6	1	antiphase_hc_iso.wav	2	0	0			1				0	
6.6.1	mac	2023-06-26	21:35:19	21:49:47	863889	62bdc8f9ce5149c655938472	3	1	stereocheck_testphase	18	stereocheck_test_collectResponse	3	stimuli_distractor_trianglediamonds.svg	stimuli_target_rectangletriangles.svg	9	yes	stereocheck_left	1	1317	6	1	antiphase_hc_iso.wav	2	1	3	noise_calib_stim_LEFT.wav	1	1				0	
6.6.1	mac	2023-06-26	21:35:19	21:49:47	863889	62bdc8f9ce5149c655938472	3	1	stereocheck_testphase	18	stereocheck_test_collectResponse	6	stimuli_distractor_trianglediamonds.svg	stimuli_target_rectangletriangles.svg	9	yes	stereocheck_left	1	294	6	1	antiphase_hc_iso.wav	2	2	1	noise_calib_stim_LEFT.wav	1	1				0	
6.6.1	mac	2023-06-26	21:35:19	21:49:47	863889	62bdc8f9ce5149c655938472	3	1	stereocheck_testphase	18	stereocheck_test_collectResponse	9	stimuli_distractor_trianglediamonds.svg	stimuli_target_rectangletriangles.svg	9	yes	stereocheck_right	1	237	6	1	antiphase_hc_iso.wav	2	3	6	noise_calib_stim_RIGHT.wav	2	1				0	
6.6.1	mac	2023-06-26	21:35:19	21:49:47	863889	62bdc8f9ce5149c655938472	3	1	stereocheck_testphase	18	stereocheck_test_collectResponse	12	stimuli_distractor_trianglediamonds.svg	stimuli_target_rectangletriangles.svg	9	yes	stereocheck_right	1	193	6	1	antiphase_hc_iso.wav	2	4	4	noise_calib_stim_RIGHT.wav	2	1				0	
6.6.1	mac	2023-06-26	21:35:19	21:49:47	863889	62bdc8f9ce5149c655938472	3	1	stereocheck_testphase	18	stereocheck_test_collectResponse	15	stimuli_distractor_trianglediamonds.svg	stimuli_target_rectangletriangles.svg	9	yes	stereocheck_left	1	156	6	1	antiphase_hc_iso.wav	2	5	2	noise_calib_stim_LEFT.wav	1	1				0	
6.6.1	mac	2023-06-26	21:35:19	21:49:47	863889	62bdc8f9ce5149c655938472	3	1	stereocheck_testphase	18	stereocheck_test_collectResponse	18	stimuli_distractor_trianglediamonds.svg	stimuli_target_rectangletriangles.svg	9	yes	stereocheck_right	1	139	6	1	antiphase_hc_iso.wav	2	6	5	noise_calib_stim_RIGHT.wav	2	1				0	
6.6.1	mac	2023-06-26	21:35:19	21:49:47	863889	62bdc8f9ce5149c655938472	3	1	DL_practice	21	DL_practice	2	stimuli_distractor_trianglediamonds.svg	stimuli_target_rectangletriangles.svg	9	yes	ka	1	1278	6	1	antiphase_hc_iso.wav	2	6	5	noise_calib_stim_RIGHT.wav	2	22	blb_dichoticlistening_ka-ka.mp3	ka	ka	0	left
6.6.1	mac	2023-06-26	21:35:19	21:49:47	863889	62bdc8f9ce5149c655938472	3	1	DL_practice	21	DL_practice	3	stimuli_distractor_trianglediamonds.svg	stimuli_target_rectangletriangles.svg	9	yes	da	1	1115	6	1	antiphase_hc_iso.wav	2	6	5	noise_calib_stim_RIGHT.wav	2	8	blb_dichoticlistening_da-da.mp3	da	da	0	left
6.6.1	mac	2023-06-26	21:35:19	21:49:47	863889	62bdc8f9ce5149c655938472	3	1	DL_practice	21	DL_practice	4	stimuli_distractor_trianglediamonds.svg	stimuli_target_rectangletriangles.svg	9	yes	pa	1	1323	6	1	antiphase_hc_iso.wav	2	6	5	noise_calib_stim_RIGHT.wav	2	29	blb_dichoticlistening_pa-pa.mp3	pa	pa	0	left
6.6.1	mac	2023-06-26	21:35:19	21:49:47	863889	62bdc8f9ce5149c655938472	3	1	DL_practice	21	DL_practice	5	stimuli_distractor_trianglediamonds.svg	stimuli_target_rectangletriangles.svg	9	yes	ga	1	925	6	1	antiphase_hc_iso.wav	2	6	5	noise_calib_stim_RIGHT.wav	2	15	blb_dichoticlistening_ga-ga.mp3	ga	ga	0	left
6.6.1	mac	2023-06-26	21:35:19	21:49:47	863889	62bdc8f9ce5149c655938472	3	1	DL_practice	21	DL_practice	6	stimuli_distractor_trianglediamonds.svg	stimuli_target_rectangletriangles.svg	9	yes	ba	1	1237	6	1	antiphase_hc_iso.wav	2	6	5	noise_calib_stim_RIGHT.wav	2	1	blb_dichoticlistening_ba-ba.mp3	ba	ba	0	left
6.6.1	mac	2023-06-26	21:35:19	21:49:47	863889	62bdc8f9ce5149c655938472	3	1	DL_practice	21	DL_practice	7	stimuli_distractor_trianglediamonds.svg	stimuli_target_rectangletriangles.svg	9	yes	ta	0	980	6	1	antiphase_hc_iso.wav	2	6	5	noise_calib_stim_RIGHT.wav	2	23	blb_dichoticlistening_ka-pa.mp3	ka	pa	1	other
6.6.1	mac	2023-06-26	21:35:19	21:49:47	863889	62bdc8f9ce5149c655938472	3	1	DL_practice	21	DL_practice	8	stimuli_distractor_trianglediamonds.svg	stimuli_target_rectangletriangles.svg	9	yes	da	0	1274	6	1	antiphase_hc_iso.wav	2	6	5	noise_calib_stim_RIGHT.wav	2	18	blb_dichoticlistening_ga-ta.mp3	ga	ta	1	other
6.6.1	mac	2023-06-26	21:35:19	21:49:47	863889	62bdc8f9ce5149c655938472	3	1	DL_practice	21	DL_practice	9	stimuli_distractor_trianglediamonds.svg	stimuli_target_rectangletriangles.svg	9	yes	ba	1	2364	6	1	antiphase_hc_iso.wav	2	6	5	noise_calib_stim_RIGHT.wav	2	7	blb_dichoticlistening_da-ba.mp3	da	ba	1	right
6.6.1	mac	2023-06-26	21:35:19	21:49:47	863889	62bdc8f9ce5149c655938472	3	1	DL_practice	21	DL_practice	10	stimuli_distractor_trianglediamonds.svg	stimuli_target_rectangletriangles.svg	9	yes	ta	1	1363	6	1	antiphase_hc_iso.wav	2	6	5	noise_calib_stim_RIGHT.wav	2	36	blb_dichoticlistening_ta-ta.mp3	ta	ta	0	left
6.6.1	mac	2023-06-26	21:35:19	21:49:47	863889	62bdc8f9ce5149c655938472	3	1	DL_test	23	DL_test	1	stimuli_distractor_trianglediamonds.svg	stimuli_target_rectangletriangles.svg	9	yes	ba	1	1366	6	1	antiphase_hc_iso.wav	2	6	5	noise_calib_stim_RIGHT.wav	2	19	blb_dichoticlistening_ka-ba.mp3	ka	ba	1	right
6.6.1	mac	2023-06-26	21:35:19	21:49:47	863889	62bdc8f9ce5149c655938472	3	1	DL_test	23	DL_test	2	stimuli_distractor_trianglediamonds.svg	stimuli_target_rectangletriangles.svg	9	yes	ba	1	1047	6	1	antiphase_hc_iso.wav	2	6	5	noise_calib_stim_RIGHT.wav	2	7	blb_dichoticlistening_da-ba.mp3	da	ba	1	right
6.6.1	mac	2023-06-26	21:35:19	21:49:47	863889	62bdc8f9ce5149c655938472	3	1	DL_test	23	DL_test	3	stimuli_distractor_trianglediamonds.svg	stimuli_target_rectangletriangles.svg	9	yes	ba	1	751	6	1	antiphase_hc_iso.wav	2	6	5	noise_calib_stim_RIGHT.wav	2	25	blb_dichoticlistening_pa-ba.mp3	pa	ba	1	right
6.6.1	mac	2023-06-26	21:35:19	21:49:47	863889	62bdc8f9ce5149c655938472	3	1	DL_test	23	DL_test	4	stimuli_distractor_trianglediamonds.svg	stimuli_target_rectangletriangles.svg	9	yes	ta	1	1135	6	1	antiphase_hc_iso.wav	2	6	5	noise_calib_stim_RIGHT.wav	2	35	blb_dichoticlistening_ta-pa.mp3	ta	pa	1	left
6.6.1	mac	2023-06-26	21:35:19	21:49:47	863889	62bdc8f9ce5149c655938472	3	1	DL_test	23	DL_test	5	stimuli_distractor_trianglediamonds.svg	stimuli_target_rectangletriangles.svg	9	yes	pa	1	1247	6	1	antiphase_hc_iso.wav	2	6	5	noise_calib_stim_RIGHT.wav	2	29	blb_dichoticlistening_pa-pa.mp3	pa	pa	0	left
6.6.1	mac	2023-06-26	21:35:19	21:49:47	863889	62bdc8f9ce5149c655938472	3	1	DL_test	23	DL_test	6	stimuli_distractor_trianglediamonds.svg	stimuli_target_rectangletriangles.svg	9	yes	da	1	1061	6	1	antiphase_hc_iso.wav	2	6	5	noise_calib_stim_RIGHT.wav	2	11	blb_dichoticlistening_da-pa.mp3	da	pa	1	left
6.6.1	mac	2023-06-26	21:35:19	21:49:47	863889	62bdc8f9ce5149c655938472	3	1	DL_test	23	DL_test	7	stimuli_distractor_trianglediamonds.svg	stimuli_target_rectangletriangles.svg	9	yes	ka	1	945	6	1	antiphase_hc_iso.wav	2	6	5	noise_calib_stim_RIGHT.wav	2	22	blb_dichoticlistening_ka-ka.mp3	ka	ka	0	left
6.6.1	mac	2023-06-26	21:35:19	21:49:47	863889	62bdc8f9ce5149c655938472	3	1	DL_test	23	DL_test	8	stimuli_distractor_trianglediamonds.svg	stimuli_target_rectangletriangles.svg	9	yes	ga	1	748	6	1	antiphase_hc_iso.wav	2	6	5	noise_calib_stim_RIGHT.wav	2	17	blb_dichoticlistening_ga-pa.mp3	ga	pa	1	left
6.6.1	mac	2023-06-26	21:35:19	21:49:47	863889	62bdc8f9ce5149c655938472	3	1	DL_test	23	DL_test	9	stimuli_distractor_trianglediamonds.svg	stimuli_target_rectangletriangles.svg	9	yes	da	1	729	6	1	antiphase_hc_iso.wav	2	6	5	noise_calib_stim_RIGHT.wav	2	32	blb_dichoticlistening_ta-da.mp3	ta	da	1	right
6.6.1	mac	2023-06-26	21:35:19	21:49:47	863889	62bdc8f9ce5149c655938472	3	1	DL_test	23	DL_test	10	stimuli_distractor_trianglediamonds.svg	stimuli_target_rectangletriangles.svg	9	yes	ta	1	1042	6	1	antiphase_hc_iso.wav	2	6	5	noise_calib_stim_RIGHT.wav	2	36	blb_dichoticlistening_ta-ta.mp3	ta	ta	0	left
6.6.1	mac	2023-06-26	21:35:19	21:49:47	863889	62bdc8f9ce5149c655938472	3	1	DL_test	23	DL_test	11	stimuli_distractor_trianglediamonds.svg	stimuli_target_rectangletriangles.svg	9	yes	da	1	888	6	1	antiphase_hc_iso.wav	2	6	5	noise_calib_stim_RIGHT.wav	2	8	blb_dichoticlistening_da-da.mp3	da	da	0	left
6.6.1	mac	2023-06-26	21:35:19	21:49:47	863889	62bdc8f9ce5149c655938472	3	1	DL_test	23	DL_test	12	stimuli_distractor_trianglediamonds.svg	stimuli_target_rectangletriangles.svg	9	yes	da	1	2624	6	1	antiphase_hc_iso.wav	2	6	5	noise_calib_stim_RIGHT.wav	2	10	blb_dichoticlistening_da-ka.mp3	da	ka	1	left
6.6.1	mac	2023-06-26	21:35:19	21:49:47	863889	62bdc8f9ce5149c655938472	3	1	DL_test	23	DL_test	13	stimuli_distractor_trianglediamonds.svg	stimuli_target_rectangletriangles.svg	9	yes	ga	1	894	6	1	antiphase_hc_iso.wav	2	6	5	noise_calib_stim_RIGHT.wav	2	16	blb_dichoticlistening_ga-ka.mp3	ga	ka	1	left
6.6.1	mac	2023-06-26	21:35:19	21:49:47	863889	62bdc8f9ce5149c655938472	3	1	DL_test	23	DL_test	14	stimuli_distractor_trianglediamonds.svg	stimuli_target_rectangletriangles.svg	9	yes	pa	0	1178	6	1	antiphase_hc_iso.wav	2	6	5	noise_calib_stim_RIGHT.wav	2	4	blb_dichoticlistening_ba-ka.mp3	ba	ka	1	other
6.6.1	mac	2023-06-26	21:35:19	21:49:47	863889	62bdc8f9ce5149c655938472	3	1	DL_test	23	DL_test	15	stimuli_distractor_trianglediamonds.svg	stimuli_target_rectangletriangles.svg	9	yes	ga	1	1010	6	1	antiphase_hc_iso.wav	2	6	5	noise_calib_stim_RIGHT.wav	2	14	blb_dichoticlistening_ga-da.mp3	ga	da	1	left
6.6.1	mac	2023-06-26	21:35:19	21:49:47	863889	62bdc8f9ce5149c655938472	3	1	DL_test	23	DL_test	16	stimuli_distractor_trianglediamonds.svg	stimuli_target_rectangletriangles.svg	9	yes	ba	1	1032	6	1	antiphase_hc_iso.wav	2	6	5	noise_calib_stim_RIGHT.wav	2	6	blb_dichoticlistening_ba-ta.mp3	ba	ta	1	left
6.6.1	mac	2023-06-26	21:35:19	21:49:47	863889	62bdc8f9ce5149c655938472	3	1	DL_test	23	DL_test	17	stimuli_distractor_trianglediamonds.svg	stimuli_target_rectangletriangles.svg	9	yes	da	0	895	6	1	antiphase_hc_iso.wav	2	6	5	noise_calib_stim_RIGHT.wav	2	18	blb_dichoticlistening_ga-ta.mp3	ga	ta	1	other
6.6.1	mac	2023-06-26	21:35:19	21:49:47	863889	62bdc8f9ce5149c655938472	3	1	DL_test	23	DL_test	18	stimuli_distractor_trianglediamonds.svg	stimuli_target_rectangletriangles.svg	9	yes	da	1	1001	6	1	antiphase_hc_iso.wav	2	6	5	noise_calib_stim_RIGHT.wav	2	26	blb_dichoticlistening_pa-da.mp3	pa	da	1	right
6.6.1	mac	2023-06-26	21:35:19	21:49:47	863889	62bdc8f9ce5149c655938472	3	1	DL_test	23	DL_test	19	stimuli_distractor_trianglediamonds.svg	stimuli_target_rectangletriangles.svg	9	yes	ga	1	732	6	1	antiphase_hc_iso.wav	2	6	5	noise_calib_stim_RIGHT.wav	2	15	blb_dichoticlistening_ga-ga.mp3	ga	ga	0	left
6.6.1	mac	2023-06-26	21:35:19	21:49:47	863889	62bdc8f9ce5149c655938472	3	1	DL_test	23	DL_test	20	stimuli_distractor_trianglediamonds.svg	stimuli_target_rectangletriangles.svg	9	yes	pa	1	1124	6	1	antiphase_hc_iso.wav	2	6	5	noise_calib_stim_RIGHT.wav	2	5	blb_dichoticlistening_ba-pa.mp3	ba	pa	1	right
6.6.1	mac	2023-06-26	21:35:19	21:49:47	863889	62bdc8f9ce5149c655938472	3	1	DL_test	23	DL_test	21	stimuli_distractor_trianglediamonds.svg	stimuli_target_rectangletriangles.svg	9	yes	ta	0	729	6	1	antiphase_hc_iso.wav	2	6	5	noise_calib_stim_RIGHT.wav	2	28	blb_dichoticlistening_pa-ka.mp3	pa	ka	1	other
6.6.1	mac	2023-06-26	21:35:19	21:49:47	863889	62bdc8f9ce5149c655938472	3	1	DL_test	23	DL_test	22	stimuli_distractor_trianglediamonds.svg	stimuli_target_rectangletriangles.svg	9	yes	ta	1	1075	6	1	antiphase_hc_iso.wav	2	6	5	noise_calib_stim_RIGHT.wav	2	34	blb_dichoticlistening_ta-ka.mp3	ta	ka	1	left
6.6.1	mac	2023-06-26	21:35:19	21:49:47	863889	62bdc8f9ce5149c655938472	3	1	DL_test	23	DL_test	23	stimuli_distractor_trianglediamonds.svg	stimuli_target_rectangletriangles.svg	9	yes	ta	0	410	6	1	antiphase_hc_iso.wav	2	6	5	noise_calib_stim_RIGHT.wav	2	23	blb_dichoticlistening_ka-pa.mp3	ka	pa	1	other
6.6.1	mac	2023-06-26	21:35:19	21:49:47	863889	62bdc8f9ce5149c655938472	3	1	DL_test	23	DL_test	24	stimuli_distractor_trianglediamonds.svg	stimuli_target_rectangletriangles.svg	9	yes	ba	1	1875	6	1	antiphase_hc_iso.wav	2	6	5	noise_calib_stim_RIGHT.wav	2	31	blb_dichoticlistening_ta-ba.mp3	ta	ba	1	right
6.6.1	mac	2023-06-26	21:35:19	21:49:47	863889	62bdc8f9ce5149c655938472	3	1	DL_test	23	DL_test	25	stimuli_distractor_trianglediamonds.svg	stimuli_target_rectangletriangles.svg	9	yes	ba	1	514	6	1	antiphase_hc_iso.wav	2	6	5	noise_calib_stim_RIGHT.wav	2	2	blb_dichoticlistening_ba-da.mp3	ba	da	1	left
6.6.1	mac	2023-06-26	21:35:19	21:49:47	863889	62bdc8f9ce5149c655938472	3	1	DL_test	23	DL_test	26	stimuli_distractor_trianglediamonds.svg	stimuli_target_rectangletriangles.svg	9	yes	da	1	687	6	1	antiphase_hc_iso.wav	2	6	5	noise_calib_stim_RIGHT.wav	2	12	blb_dichoticlistening_da-ta.mp3	da	ta	1	left
