build	computer.platform	date	time	timestamp	time_elapsed_ms	subject	group	session	blockcode	blocknum	trialcode	trialnum	stimulus_left	stimulus_right	stim_index	target_present	response	correct	latency	headphonecheck_countTestTrials	headphonecheck_index	headphonecheck_testSound	headphonecheck_correctResponse	stereocheck_countTestTrials	stereocheck_index	stereocheck_testSound	stereocheck_correctResponse	DL_index	DL_soundfile	DL_leftSound	DL_rightSound	DL_dualSound	DL_choice
6.6.1	win	2023-07-07	18:08:28	18:10:48	135575	616555ec3460f0a519c1cdff	4	1	practice_z	5	practice_z	1	stimuli_distractor_trianglediamonds.svg	stimuli_target_rectanglediamonds.svg	10	yes	44	1	1282	0	0			0	0			1				0	
6.6.1	win	2023-07-07	18:08:28	18:10:48	135575	616555ec3460f0a519c1cdff	4	1	practice_z	5	advance_on_keypress_ZEE	2	stimuli_distractor_trianglediamonds.svg	stimuli_target_rectanglediamonds.svg	10	yes	57	0	1386	0	0			0	0			1				0	
6.6.1	win	2023-07-07	18:08:28	18:10:53	140627	616555ec3460f0a519c1cdff	4	1	practice_z	5	practice_z	3	stimuli_distractor_diamondtriangles.svg	stimuli_distractor_trianglediamonds.svg	14	no	0	1	2000	0	0			0	0			1				0	
6.6.1	win	2023-07-07	18:08:28	18:10:53	140627	616555ec3460f0a519c1cdff	4	1	practice_z	5	advance_on_keypress_ZEE	4	stimuli_distractor_diamondtriangles.svg	stimuli_distractor_trianglediamonds.svg	14	no	57	0	450	0	0			0	0			1				0	
6.6.1	win	2023-07-07	18:08:28	18:10:56	143739	616555ec3460f0a519c1cdff	4	1	practice_z	5	practice_z	5	stimuli_target_squarediamonds.svg	stimuli_distractor_trianglediamonds.svg	5	yes	44	1	1012	0	0			0	0			1				0	
6.6.1	win	2023-07-07	18:08:28	18:10:56	143739	616555ec3460f0a519c1cdff	4	1	practice_z	5	advance_on_keypress_ZEE	6	stimuli_target_squarediamonds.svg	stimuli_distractor_trianglediamonds.svg	5	yes	57	0	579	0	0			0	0			1				0	
6.6.1	win	2023-07-07	18:08:28	18:11:01	147977	616555ec3460f0a519c1cdff	4	1	practice_z	5	practice_z	7	stimuli_distractor_trianglediamonds.svg	stimuli_distractor_trianglediamonds.svg	15	no	0	1	2000	0	0			0	0			1				0	
6.6.1	win	2023-07-07	18:08:28	18:11:01	147977	616555ec3460f0a519c1cdff	4	1	practice_z	5	advance_on_keypress_ZEE	8	stimuli_distractor_trianglediamonds.svg	stimuli_distractor_trianglediamonds.svg	15	no	57	0	729	0	0			0	0			1				0	
6.6.1	win	2023-07-07	18:08:28	18:11:04	151043	616555ec3460f0a519c1cdff	4	1	practice_z	5	practice_z	9	stimuli_target_rectanglediamonds.svg	stimuli_distractor_trianglediamonds.svg	4	yes	44	1	684	0	0			0	0			1				0	
6.6.1	win	2023-07-07	18:08:28	18:11:04	151043	616555ec3460f0a519c1cdff	4	1	practice_z	5	advance_on_keypress_ZEE	10	stimuli_target_rectanglediamonds.svg	stimuli_distractor_trianglediamonds.svg	4	yes	57	0	439	0	0			0	0			1				0	
6.6.1	win	2023-07-07	18:08:28	18:11:06	153746	616555ec3460f0a519c1cdff	4	1	practice_z	5	practice_z	11	stimuli_distractor_trianglediamonds.svg	stimuli_target_diamondrectangles.svg	12	yes	44	1	603	0	0			0	0			1				0	
6.6.1	win	2023-07-07	18:08:28	18:11:06	153746	616555ec3460f0a519c1cdff	4	1	practice_z	5	advance_on_keypress_ZEE	12	stimuli_distractor_trianglediamonds.svg	stimuli_target_diamondrectangles.svg	12	yes	57	0	596	0	0			0	0			1				0	
6.6.1	win	2023-07-07	18:08:28	18:11:09	156746	616555ec3460f0a519c1cdff	4	1	practice_z	5	practice_z	13	stimuli_distractor_diamondtriangles.svg	stimuli_target_diamondrectangles.svg	8	yes	44	1	753	0	0			0	0			1				0	
6.6.1	win	2023-07-07	18:08:28	18:11:09	156746	616555ec3460f0a519c1cdff	4	1	practice_z	5	advance_on_keypress_ZEE	14	stimuli_distractor_diamondtriangles.svg	stimuli_target_diamondrectangles.svg	8	yes	57	0	466	0	0			0	0			1				0	
6.6.1	win	2023-07-07	18:08:28	18:11:12	159444	616555ec3460f0a519c1cdff	4	1	practice_z	5	practice_z	15	stimuli_target_squarediamonds.svg	stimuli_distractor_diamondtriangles.svg	2	yes	44	1	583	0	0			0	0			1				0	
6.6.1	win	2023-07-07	18:08:28	18:11:12	159444	616555ec3460f0a519c1cdff	4	1	practice_z	5	advance_on_keypress_ZEE	16	stimuli_target_squarediamonds.svg	stimuli_distractor_diamondtriangles.svg	2	yes	57	0	487	0	0			0	0			1				0	
6.6.1	win	2023-07-07	18:08:28	18:11:15	162398	616555ec3460f0a519c1cdff	4	1	practice_z	5	practice_z	17	stimuli_distractor_trianglediamonds.svg	stimuli_target_squarediamonds.svg	11	yes	44	1	821	0	0			0	0			1				0	
6.6.1	win	2023-07-07	18:08:28	18:11:15	162398	616555ec3460f0a519c1cdff	4	1	practice_z	5	advance_on_keypress_ZEE	18	stimuli_distractor_trianglediamonds.svg	stimuli_target_squarediamonds.svg	11	yes	57	0	330	0	0			0	0			1				0	
6.6.1	win	2023-07-07	18:08:28	18:11:18	165381	616555ec3460f0a519c1cdff	4	1	practice_z	5	practice_z	19	stimuli_target_rectanglediamonds.svg	stimuli_distractor_diamondtriangles.svg	1	yes	44	1	1004	0	0			0	0			1				0	
6.6.1	win	2023-07-07	18:08:28	18:11:18	165381	616555ec3460f0a519c1cdff	4	1	practice_z	5	advance_on_keypress_ZEE	20	stimuli_target_rectanglediamonds.svg	stimuli_distractor_diamondtriangles.svg	1	yes	57	0	648	0	0			0	0			1				0	
6.6.1	win	2023-07-07	18:08:28	18:11:21	168615	616555ec3460f0a519c1cdff	4	1	practice_z	5	practice_z	21	stimuli_target_diamondsquares.svg	stimuli_distractor_trianglediamonds.svg	6	yes	44	1	935	0	0			0	0			1				0	
6.6.1	win	2023-07-07	18:08:28	18:11:21	168615	616555ec3460f0a519c1cdff	4	1	practice_z	5	advance_on_keypress_ZEE	22	stimuli_target_diamondsquares.svg	stimuli_distractor_trianglediamonds.svg	6	yes	57	0	417	0	0			0	0			1				0	
6.6.1	win	2023-07-07	18:08:28	18:11:25	171978	616555ec3460f0a519c1cdff	4	1	practice_z	5	practice_z	23	stimuli_distractor_diamondtriangles.svg	stimuli_target_trianglerectangles.svg	9	yes	44	1	1300	0	0			0	0			1				0	
6.6.1	win	2023-07-07	18:08:28	18:11:25	171978	616555ec3460f0a519c1cdff	4	1	practice_z	5	advance_on_keypress_ZEE	24	stimuli_distractor_diamondtriangles.svg	stimuli_target_trianglerectangles.svg	9	yes	57	0	426	0	0			0	0			1				0	
6.6.1	win	2023-07-07	18:08:28	18:11:29	176044	616555ec3460f0a519c1cdff	4	1	practice_z	5	practice_z	25	stimuli_distractor_diamondtriangles.svg	stimuli_distractor_diamondtriangles.svg	13	no	0	1	2000	0	0			0	0			1				0	
6.6.1	win	2023-07-07	18:08:28	18:11:29	176044	616555ec3460f0a519c1cdff	4	1	practice_z	5	advance_on_keypress_ZEE	26	stimuli_distractor_diamondtriangles.svg	stimuli_distractor_diamondtriangles.svg	13	no	57	0	599	0	0			0	0			1				0	
6.6.1	win	2023-07-07	18:08:28	18:11:32	178997	616555ec3460f0a519c1cdff	4	1	practice_z	5	practice_z	27	stimuli_target_diamondsquares.svg	stimuli_distractor_diamondtriangles.svg	3	yes	44	1	703	0	0			0	0			1				0	
6.6.1	win	2023-07-07	18:08:28	18:11:32	178997	616555ec3460f0a519c1cdff	4	1	practice_z	5	advance_on_keypress_ZEE	28	stimuli_target_diamondsquares.svg	stimuli_distractor_diamondtriangles.svg	3	yes	57	0	426	0	0			0	0			1				0	
6.6.1	win	2023-07-07	18:08:28	18:11:36	183061	616555ec3460f0a519c1cdff	4	1	practice_z	5	practice_z	29	stimuli_distractor_trianglediamonds.svg	stimuli_distractor_diamondtriangles.svg	16	no	0	1	2000	0	0			0	0			1				0	
6.6.1	win	2023-07-07	18:08:28	18:11:36	183061	616555ec3460f0a519c1cdff	4	1	practice_z	5	advance_on_keypress_ZEE	30	stimuli_distractor_trianglediamonds.svg	stimuli_distractor_diamondtriangles.svg	16	no	57	0	327	0	0			0	0			1				0	
6.6.1	win	2023-07-07	18:08:28	18:11:38	185686	616555ec3460f0a519c1cdff	4	1	practice_z	5	practice_z	31	stimuli_distractor_diamondtriangles.svg	stimuli_target_rectangletriangles.svg	7	yes	44	1	642	0	0			0	0			1				0	
6.6.1	win	2023-07-07	18:08:28	18:11:38	185686	616555ec3460f0a519c1cdff	4	1	practice_z	5	advance_on_keypress_ZEE	32	stimuli_distractor_diamondtriangles.svg	stimuli_target_rectangletriangles.svg	7	yes	57	0	554	0	0			0	0			1				0	
6.6.1	win	2023-07-07	18:08:28	18:11:48	195742	616555ec3460f0a519c1cdff	4	1	main_z	7	main_z	1	stimuli_distractor_diamondtriangles.svg	stimuli_distractor_trianglediamonds.svg	38	no	0	1	2000	0	0			0	0			1				0	
6.6.1	win	2023-07-07	18:08:28	18:11:48	195742	616555ec3460f0a519c1cdff	4	1	main_z	7	advance_on_keypress_ZEE	2	stimuli_distractor_diamondtriangles.svg	stimuli_distractor_trianglediamonds.svg	38	no	57	0	383	0	0			0	0			1				0	
6.6.1	win	2023-07-07	18:08:28	18:11:50	197541	616555ec3460f0a519c1cdff	4	1	main_z	7	main_z	3	stimuli_distractor_trianglediamonds.svg	stimuli_target_squaretriangles.svg	11	yes	44	1	765	0	0			0	0			1				0	
6.6.1	win	2023-07-07	18:08:28	18:11:50	197541	616555ec3460f0a519c1cdff	4	1	main_z	7	advance_on_keypress_ZEE	4	stimuli_distractor_trianglediamonds.svg	stimuli_target_squaretriangles.svg	11	yes	57	0	709	0	0			0	0			1				0	
6.6.1	win	2023-07-07	18:08:28	18:11:52	199377	616555ec3460f0a519c1cdff	4	1	main_z	7	main_z	5	stimuli_target_rectangletriangles.svg	stimuli_distractor_trianglediamonds.svg	1	yes	44	1	483	0	0			0	0			1				0	
6.6.1	win	2023-07-07	18:08:28	18:11:52	199377	616555ec3460f0a519c1cdff	4	1	main_z	7	advance_on_keypress_ZEE	6	stimuli_target_rectangletriangles.svg	stimuli_distractor_trianglediamonds.svg	1	yes	57	0	450	0	0			0	0			1				0	
6.6.1	win	2023-07-07	18:08:28	18:11:54	201023	616555ec3460f0a519c1cdff	4	1	main_z	7	main_z	7	stimuli_distractor_diamondtriangles.svg	stimuli_target_diamondsquares.svg	32	yes	44	1	547	0	0			0	0			1				0	
6.6.1	win	2023-07-07	18:08:28	18:11:54	201023	616555ec3460f0a519c1cdff	4	1	main_z	7	advance_on_keypress_ZEE	8	stimuli_distractor_diamondtriangles.svg	stimuli_target_diamondsquares.svg	32	yes	57	0	525	0	0			0	0			1				0	
6.6.1	win	2023-07-07	18:08:28	18:11:55	202565	616555ec3460f0a519c1cdff	4	1	main_z	7	main_z	9	stimuli_distractor_diamondtriangles.svg	stimuli_target_rectanglediamonds.svg	14	yes	44	1	373	0	0			0	0			1				0	
6.6.1	win	2023-07-07	18:08:28	18:11:55	202565	616555ec3460f0a519c1cdff	4	1	main_z	7	advance_on_keypress_ZEE	10	stimuli_distractor_diamondtriangles.svg	stimuli_target_rectanglediamonds.svg	14	yes	57	0	412	0	0			0	0			1				0	
6.6.1	win	2023-07-07	18:08:28	18:11:57	203960	616555ec3460f0a519c1cdff	4	1	main_z	7	main_z	11	stimuli_distractor_trianglediamonds.svg	stimuli_target_rectanglediamonds.svg	10	yes	44	1	334	0	0			0	0			1				0	
6.6.1	win	2023-07-07	18:08:28	18:11:57	203960	616555ec3460f0a519c1cdff	4	1	main_z	7	advance_on_keypress_ZEE	12	stimuli_distractor_trianglediamonds.svg	stimuli_target_rectanglediamonds.svg	10	yes	57	0	331	0	0			0	0			1				0	
6.6.1	win	2023-07-07	18:08:28	18:11:58	205428	616555ec3460f0a519c1cdff	4	1	main_z	7	main_z	13	stimuli_distractor_diamondtriangles.svg	stimuli_target_trianglesquares.svg	30	yes	44	1	486	0	0			0	0			1				0	
6.6.1	win	2023-07-07	18:08:28	18:11:58	205428	616555ec3460f0a519c1cdff	4	1	main_z	7	advance_on_keypress_ZEE	14	stimuli_distractor_diamondtriangles.svg	stimuli_target_trianglesquares.svg	30	yes	57	0	318	0	0			0	0			1				0	
6.6.1	win	2023-07-07	18:08:28	18:12:00	207554	616555ec3460f0a519c1cdff	4	1	main_z	7	main_z	15	stimuli_target_trianglerectangles.svg	stimuli_distractor_diamondtriangles.svg	21	yes	44	1	1162	0	0			0	0			1				0	
6.6.1	win	2023-07-07	18:08:28	18:12:00	207554	616555ec3460f0a519c1cdff	4	1	main_z	7	advance_on_keypress_ZEE	16	stimuli_target_trianglerectangles.svg	stimuli_distractor_diamondtriangles.svg	21	yes	57	0	426	0	0			0	0			1				0	
6.6.1	win	2023-07-07	18:08:28	18:12:03	210626	616555ec3460f0a519c1cdff	4	1	main_z	7	main_z	17	stimuli_distractor_trianglediamonds.svg	stimuli_distractor_trianglediamonds.svg	33	no	0	1	2000	0	0			0	0			1				0	
6.6.1	win	2023-07-07	18:08:28	18:12:03	210626	616555ec3460f0a519c1cdff	4	1	main_z	7	advance_on_keypress_ZEE	18	stimuli_distractor_trianglediamonds.svg	stimuli_distractor_trianglediamonds.svg	33	no	57	0	352	0	0			0	0			1				0	
6.6.1	win	2023-07-07	18:08:28	18:12:05	212270	616555ec3460f0a519c1cdff	4	1	main_z	7	main_z	19	stimuli_target_trianglerectangles.svg	stimuli_distractor_trianglediamonds.svg	17	yes	44	1	645	0	0			0	0			1				0	
6.6.1	win	2023-07-07	18:08:28	18:12:05	212270	616555ec3460f0a519c1cdff	4	1	main_z	7	advance_on_keypress_ZEE	20	stimuli_target_trianglerectangles.svg	stimuli_distractor_trianglediamonds.svg	17	yes	57	0	316	0	0			0	0			1				0	
6.6.1	win	2023-07-07	18:08:28	18:12:07	213850	616555ec3460f0a519c1cdff	4	1	main_z	7	main_z	21	stimuli_distractor_diamondtriangles.svg	stimuli_target_trianglerectangles.svg	29	yes	44	1	625	0	0			0	0			1				0	
6.6.1	win	2023-07-07	18:08:28	18:12:07	213850	616555ec3460f0a519c1cdff	4	1	main_z	7	advance_on_keypress_ZEE	22	stimuli_distractor_diamondtriangles.svg	stimuli_target_trianglerectangles.svg	29	yes	57	0	1037	0	0			0	0			1				0	
6.6.1	win	2023-07-07	18:08:28	18:12:09	216132	616555ec3460f0a519c1cdff	4	1	main_z	7	main_z	23	stimuli_target_rectanglediamonds.svg	stimuli_distractor_trianglediamonds.svg	2	yes	44	1	607	0	0			0	0			1				0	
6.6.1	win	2023-07-07	18:08:28	18:12:09	216132	616555ec3460f0a519c1cdff	4	1	main_z	7	advance_on_keypress_ZEE	24	stimuli_target_rectanglediamonds.svg	stimuli_distractor_trianglediamonds.svg	2	yes	57	0	571	0	0			0	0			1				0	
6.6.1	win	2023-07-07	18:08:28	18:12:11	217875	616555ec3460f0a519c1cdff	4	1	main_z	7	main_z	25	stimuli_distractor_trianglediamonds.svg	stimuli_target_trianglesquares.svg	26	yes	44	1	533	0	0			0	0			1				0	
6.6.1	win	2023-07-07	18:08:28	18:12:11	217875	616555ec3460f0a519c1cdff	4	1	main_z	7	advance_on_keypress_ZEE	26	stimuli_distractor_trianglediamonds.svg	stimuli_target_trianglesquares.svg	26	yes	57	0	411	0	0			0	0			1				0	
6.6.1	win	2023-07-07	18:08:28	18:12:12	219603	616555ec3460f0a519c1cdff	4	1	main_z	7	main_z	27	stimuli_target_diamondrectangles.svg	stimuli_distractor_diamondtriangles.svg	23	yes	44	1	660	0	0			0	0			1				0	
6.6.1	win	2023-07-07	18:08:28	18:12:12	219603	616555ec3460f0a519c1cdff	4	1	main_z	7	advance_on_keypress_ZEE	28	stimuli_target_diamondrectangles.svg	stimuli_distractor_diamondtriangles.svg	23	yes	57	0	359	0	0			0	0			1				0	
6.6.1	win	2023-07-07	18:08:28	18:12:14	221075	616555ec3460f0a519c1cdff	4	1	main_z	7	main_z	29	stimuli_target_rectanglediamonds.svg	stimuli_distractor_diamondtriangles.svg	6	yes	44	1	465	0	0			0	0			1				0	
6.6.1	win	2023-07-07	18:08:28	18:12:14	221075	616555ec3460f0a519c1cdff	4	1	main_z	7	advance_on_keypress_ZEE	30	stimuli_target_rectanglediamonds.svg	stimuli_distractor_diamondtriangles.svg	6	yes	57	0	323	0	0			0	0			1				0	
6.6.1	win	2023-07-07	18:08:28	18:12:15	222496	616555ec3460f0a519c1cdff	4	1	main_z	7	main_z	31	stimuli_target_diamondrectangles.svg	stimuli_distractor_trianglediamonds.svg	19	yes	44	1	453	0	0			0	0			1				0	
6.6.1	win	2023-07-07	18:08:28	18:12:15	222496	616555ec3460f0a519c1cdff	4	1	main_z	7	advance_on_keypress_ZEE	32	stimuli_target_diamondrectangles.svg	stimuli_distractor_trianglediamonds.svg	19	yes	57	0	328	0	0			0	0			1				0	
6.6.1	win	2023-07-07	18:08:28	18:12:17	223893	616555ec3460f0a519c1cdff	4	1	main_z	7	main_z	33	stimuli_distractor_trianglediamonds.svg	stimuli_target_rectangletriangles.svg	9	yes	44	1	416	0	0			0	0			1				0	
6.6.1	win	2023-07-07	18:08:28	18:12:17	223893	616555ec3460f0a519c1cdff	4	1	main_z	7	advance_on_keypress_ZEE	34	stimuli_distractor_trianglediamonds.svg	stimuli_target_rectangletriangles.svg	9	yes	57	0	382	0	0			0	0			1				0	
6.6.1	win	2023-07-07	18:08:28	18:12:18	225421	616555ec3460f0a519c1cdff	4	1	main_z	7	main_z	35	stimuli_distractor_trianglediamonds.svg	stimuli_target_diamondsquares.svg	28	yes	44	1	495	0	0			0	0			1				0	
6.6.1	win	2023-07-07	18:08:28	18:12:18	225421	616555ec3460f0a519c1cdff	4	1	main_z	7	advance_on_keypress_ZEE	36	stimuli_distractor_trianglediamonds.svg	stimuli_target_diamondsquares.svg	28	yes	57	0	300	0	0			0	0			1				0	
6.6.1	win	2023-07-07	18:08:28	18:12:19	226756	616555ec3460f0a519c1cdff	4	1	main_z	7	main_z	37	stimuli_target_squarediamonds.svg	stimuli_distractor_trianglediamonds.svg	4	yes	44	1	379	0	0			0	0			1				0	
6.6.1	win	2023-07-07	18:08:28	18:12:19	226756	616555ec3460f0a519c1cdff	4	1	main_z	7	advance_on_keypress_ZEE	38	stimuli_target_squarediamonds.svg	stimuli_distractor_trianglediamonds.svg	4	yes	57	0	227	0	0			0	0			1				0	
6.6.1	win	2023-07-07	18:08:28	18:12:21	228067	616555ec3460f0a519c1cdff	4	1	main_z	7	main_z	39	stimuli_distractor_trianglediamonds.svg	stimuli_distractor_diamondtriangles.svg	36	no	44	0	423	0	0			0	0			1				0	
6.6.1	win	2023-07-07	18:08:28	18:12:21	228067	616555ec3460f0a519c1cdff	4	1	main_z	7	advance_on_keypress_ZEE	40	stimuli_distractor_trianglediamonds.svg	stimuli_distractor_diamondtriangles.svg	36	no	57	0	406	0	0			0	0			1				0	
6.6.1	win	2023-07-07	18:08:28	18:12:23	229803	616555ec3460f0a519c1cdff	4	1	main_z	7	main_z	41	stimuli_target_squaretriangles.svg	stimuli_distractor_trianglediamonds.svg	3	yes	44	1	693	0	0			0	0			1				0	
6.6.1	win	2023-07-07	18:08:28	18:12:23	229803	616555ec3460f0a519c1cdff	4	1	main_z	7	advance_on_keypress_ZEE	42	stimuli_target_squaretriangles.svg	stimuli_distractor_trianglediamonds.svg	3	yes	57	0	241	0	0			0	0			1				0	
6.6.1	win	2023-07-07	18:08:28	18:12:24	231299	616555ec3460f0a519c1cdff	4	1	main_z	7	main_z	43	stimuli_target_trianglesquares.svg	stimuli_distractor_diamondtriangles.svg	22	yes	44	1	606	0	0			0	0			1				0	
6.6.1	win	2023-07-07	18:08:28	18:12:24	231299	616555ec3460f0a519c1cdff	4	1	main_z	7	advance_on_keypress_ZEE	44	stimuli_target_trianglesquares.svg	stimuli_distractor_diamondtriangles.svg	22	yes	57	0	266	0	0			0	0			1				0	
6.6.1	win	2023-07-07	18:08:28	18:12:26	232841	616555ec3460f0a519c1cdff	4	1	main_z	7	main_z	45	stimuli_distractor_diamondtriangles.svg	stimuli_target_squarediamonds.svg	16	yes	44	1	632	0	0			0	0			1				0	
6.6.1	win	2023-07-07	18:08:28	18:12:26	232841	616555ec3460f0a519c1cdff	4	1	main_z	7	advance_on_keypress_ZEE	46	stimuli_distractor_diamondtriangles.svg	stimuli_target_squarediamonds.svg	16	yes	57	0	677	0	0			0	0			1				0	
6.6.1	win	2023-07-07	18:08:28	18:12:27	234665	616555ec3460f0a519c1cdff	4	1	main_z	7	main_z	47	stimuli_distractor_diamondtriangles.svg	stimuli_target_squaretriangles.svg	15	yes	44	1	506	0	0			0	0			1				0	
6.6.1	win	2023-07-07	18:08:28	18:12:27	234665	616555ec3460f0a519c1cdff	4	1	main_z	7	advance_on_keypress_ZEE	48	stimuli_distractor_diamondtriangles.svg	stimuli_target_squaretriangles.svg	15	yes	57	0	265	0	0			0	0			1				0	
6.6.1	win	2023-07-07	18:08:28	18:12:29	235928	616555ec3460f0a519c1cdff	4	1	main_z	7	main_z	49	stimuli_target_squarediamonds.svg	stimuli_distractor_diamondtriangles.svg	8	yes	44	1	351	0	0			0	0			1				0	
6.6.1	win	2023-07-07	18:08:28	18:12:29	235928	616555ec3460f0a519c1cdff	4	1	main_z	7	advance_on_keypress_ZEE	50	stimuli_target_squarediamonds.svg	stimuli_distractor_diamondtriangles.svg	8	yes	57	0	259	0	0			0	0			1				0	
6.6.1	win	2023-07-07	18:08:28	18:12:32	238826	616555ec3460f0a519c1cdff	4	1	main_z	7	main_z	51	stimuli_distractor_diamondtriangles.svg	stimuli_distractor_diamondtriangles.svg	40	no	0	1	2000	0	0			0	0			1				0	
6.6.1	win	2023-07-07	18:08:28	18:12:32	238826	616555ec3460f0a519c1cdff	4	1	main_z	7	advance_on_keypress_ZEE	52	stimuli_distractor_diamondtriangles.svg	stimuli_distractor_diamondtriangles.svg	40	no	57	0	834	0	0			0	0			1				0	
6.6.1	win	2023-07-07	18:08:28	18:12:35	242310	616555ec3460f0a519c1cdff	4	1	main_z	7	main_z	53	stimuli_distractor_diamondtriangles.svg	stimuli_distractor_trianglediamonds.svg	37	no	0	1	2000	0	0			0	0			1				0	
6.6.1	win	2023-07-07	18:08:28	18:12:35	242310	616555ec3460f0a519c1cdff	4	1	main_z	7	advance_on_keypress_ZEE	54	stimuli_distractor_diamondtriangles.svg	stimuli_distractor_trianglediamonds.svg	37	no	57	0	356	0	0			0	0			1				0	
6.6.1	win	2023-07-07	18:08:28	18:12:37	243902	616555ec3460f0a519c1cdff	4	1	main_z	7	main_z	55	stimuli_target_diamondsquares.svg	stimuli_distractor_diamondtriangles.svg	24	yes	44	1	593	0	0			0	0			1				0	
6.6.1	win	2023-07-07	18:08:28	18:12:37	243902	616555ec3460f0a519c1cdff	4	1	main_z	7	advance_on_keypress_ZEE	56	stimuli_target_diamondsquares.svg	stimuli_distractor_diamondtriangles.svg	24	yes	57	0	220	0	0			0	0			1				0	
6.6.1	win	2023-07-07	18:08:28	18:12:38	245309	616555ec3460f0a519c1cdff	4	1	main_z	7	main_z	57	stimuli_target_squaretriangles.svg	stimuli_distractor_diamondtriangles.svg	7	yes	44	1	550	0	0			0	0			1				0	
6.6.1	win	2023-07-07	18:08:28	18:12:38	245309	616555ec3460f0a519c1cdff	4	1	main_z	7	advance_on_keypress_ZEE	58	stimuli_target_squaretriangles.svg	stimuli_distractor_diamondtriangles.svg	7	yes	57	0	290	0	0			0	0			1				0	
6.6.1	win	2023-07-07	18:08:28	18:12:39	246754	616555ec3460f0a519c1cdff	4	1	main_z	7	main_z	59	stimuli_target_rectangletriangles.svg	stimuli_distractor_diamondtriangles.svg	5	yes	44	1	507	0	0			0	0			1				0	
6.6.1	win	2023-07-07	18:08:28	18:12:39	246754	616555ec3460f0a519c1cdff	4	1	main_z	7	advance_on_keypress_ZEE	60	stimuli_target_rectangletriangles.svg	stimuli_distractor_diamondtriangles.svg	5	yes	57	0	629	0	0			0	0			1				0	
6.6.1	win	2023-07-07	18:08:28	18:12:43	250027	616555ec3460f0a519c1cdff	4	1	main_z	7	main_z	61	stimuli_distractor_diamondtriangles.svg	stimuli_distractor_diamondtriangles.svg	39	no	0	1	2000	0	0			0	0			1				0	
6.6.1	win	2023-07-07	18:08:28	18:12:43	250027	616555ec3460f0a519c1cdff	4	1	main_z	7	advance_on_keypress_ZEE	62	stimuli_distractor_diamondtriangles.svg	stimuli_distractor_diamondtriangles.svg	39	no	57	0	367	0	0			0	0			1				0	
6.6.1	win	2023-07-07	18:08:28	18:12:44	251595	616555ec3460f0a519c1cdff	4	1	main_z	7	main_z	63	stimuli_distractor_trianglediamonds.svg	stimuli_target_squarediamonds.svg	12	yes	44	1	551	0	0			0	0			1				0	
6.6.1	win	2023-07-07	18:08:28	18:12:44	251595	616555ec3460f0a519c1cdff	4	1	main_z	7	advance_on_keypress_ZEE	64	stimuli_distractor_trianglediamonds.svg	stimuli_target_squarediamonds.svg	12	yes	57	0	233	0	0			0	0			1				0	
6.6.1	win	2023-07-07	18:08:28	18:12:46	253045	616555ec3460f0a519c1cdff	4	1	main_z	7	main_z	65	stimuli_distractor_trianglediamonds.svg	stimuli_target_trianglerectangles.svg	25	yes	44	1	568	0	0			0	0			1				0	
6.6.1	win	2023-07-07	18:08:28	18:12:46	253045	616555ec3460f0a519c1cdff	4	1	main_z	7	advance_on_keypress_ZEE	66	stimuli_distractor_trianglediamonds.svg	stimuli_target_trianglerectangles.svg	25	yes	57	0	272	0	0			0	0			1				0	
6.6.1	win	2023-07-07	18:08:28	18:12:47	254453	616555ec3460f0a519c1cdff	4	1	main_z	7	main_z	67	stimuli_distractor_diamondtriangles.svg	stimuli_target_diamondrectangles.svg	31	yes	44	1	492	0	0			0	0			1				0	
6.6.1	win	2023-07-07	18:08:28	18:12:47	254453	616555ec3460f0a519c1cdff	4	1	main_z	7	advance_on_keypress_ZEE	68	stimuli_distractor_diamondtriangles.svg	stimuli_target_diamondrectangles.svg	31	yes	57	0	296	0	0			0	0			1				0	
6.6.1	win	2023-07-07	18:08:28	18:12:49	255858	616555ec3460f0a519c1cdff	4	1	main_z	7	main_z	69	stimuli_target_trianglesquares.svg	stimuli_distractor_trianglediamonds.svg	18	yes	44	1	464	0	0			0	0			1				0	
6.6.1	win	2023-07-07	18:08:28	18:12:49	255858	616555ec3460f0a519c1cdff	4	1	main_z	7	advance_on_keypress_ZEE	70	stimuli_target_trianglesquares.svg	stimuli_distractor_trianglediamonds.svg	18	yes	57	0	345	0	0			0	0			1				0	
6.6.1	win	2023-07-07	18:08:28	18:12:52	258860	616555ec3460f0a519c1cdff	4	1	main_z	7	main_z	71	stimuli_distractor_trianglediamonds.svg	stimuli_distractor_diamondtriangles.svg	35	no	0	1	2000	0	0			0	0			1				0	
6.6.1	win	2023-07-07	18:08:28	18:12:52	258860	616555ec3460f0a519c1cdff	4	1	main_z	7	advance_on_keypress_ZEE	72	stimuli_distractor_trianglediamonds.svg	stimuli_distractor_diamondtriangles.svg	35	no	57	0	254	0	0			0	0			1				0	
6.6.1	win	2023-07-07	18:08:28	18:12:54	261760	616555ec3460f0a519c1cdff	4	1	main_z	7	main_z	73	stimuli_distractor_trianglediamonds.svg	stimuli_distractor_trianglediamonds.svg	34	no	0	1	2000	0	0			0	0			1				0	
6.6.1	win	2023-07-07	18:08:28	18:12:54	261760	616555ec3460f0a519c1cdff	4	1	main_z	7	advance_on_keypress_ZEE	74	stimuli_distractor_trianglediamonds.svg	stimuli_distractor_trianglediamonds.svg	34	no	57	0	316	0	0			0	0			1				0	
6.6.1	win	2023-07-07	18:08:28	18:12:56	263205	616555ec3460f0a519c1cdff	4	1	main_z	7	main_z	75	stimuli_target_diamondsquares.svg	stimuli_distractor_trianglediamonds.svg	20	yes	44	1	479	0	0			0	0			1				0	
6.6.1	win	2023-07-07	18:08:28	18:12:56	263205	616555ec3460f0a519c1cdff	4	1	main_z	7	advance_on_keypress_ZEE	76	stimuli_target_diamondsquares.svg	stimuli_distractor_trianglediamonds.svg	20	yes	57	0	266	0	0			0	0			1				0	
6.6.1	win	2023-07-07	18:08:28	18:12:57	264588	616555ec3460f0a519c1cdff	4	1	main_z	7	main_z	77	stimuli_distractor_trianglediamonds.svg	stimuli_target_diamondrectangles.svg	27	yes	44	1	477	0	0			0	0			1				0	
6.6.1	win	2023-07-07	18:08:28	18:12:57	264588	616555ec3460f0a519c1cdff	4	1	main_z	7	advance_on_keypress_ZEE	78	stimuli_distractor_trianglediamonds.svg	stimuli_target_diamondrectangles.svg	27	yes	57	0	299	0	0			0	0			1				0	
6.6.1	win	2023-07-07	18:08:28	18:12:59	265886	616555ec3460f0a519c1cdff	4	1	main_z	7	main_z	79	stimuli_distractor_diamondtriangles.svg	stimuli_target_rectangletriangles.svg	13	yes	44	1	343	0	0			0	0			1				0	
6.6.1	win	2023-07-07	18:08:28	18:12:59	265886	616555ec3460f0a519c1cdff	4	1	main_z	7	advance_on_keypress_ZEE	80	stimuli_distractor_diamondtriangles.svg	stimuli_target_rectangletriangles.svg	13	yes	57	0	254	0	0			0	0			1				0	
6.6.1	win	2023-07-07	18:08:28	18:13:00	267107	616555ec3460f0a519c1cdff	4	1	main_z	7	main_z	81	stimuli_target_squaretriangles.svg	stimuli_distractor_diamondtriangles.svg	7	yes	44	1	331	0	0			0	0			1				0	
6.6.1	win	2023-07-07	18:08:28	18:13:00	267107	616555ec3460f0a519c1cdff	4	1	main_z	7	advance_on_keypress_ZEE	82	stimuli_target_squaretriangles.svg	stimuli_distractor_diamondtriangles.svg	7	yes	57	0	228	0	0			0	0			1				0	
6.6.1	win	2023-07-07	18:08:28	18:13:01	268270	616555ec3460f0a519c1cdff	4	1	main_z	7	main_z	83	stimuli_distractor_diamondtriangles.svg	stimuli_target_rectanglediamonds.svg	14	yes	44	1	276	0	0			0	0			1				0	
6.6.1	win	2023-07-07	18:08:28	18:13:01	268270	616555ec3460f0a519c1cdff	4	1	main_z	7	advance_on_keypress_ZEE	84	stimuli_distractor_diamondtriangles.svg	stimuli_target_rectanglediamonds.svg	14	yes	57	0	224	0	0			0	0			1				0	
6.6.1	win	2023-07-07	18:08:28	18:13:02	269470	616555ec3460f0a519c1cdff	4	1	main_z	7	main_z	85	stimuli_target_squaretriangles.svg	stimuli_distractor_trianglediamonds.svg	3	yes	44	1	343	0	0			0	0			1				0	
6.6.1	win	2023-07-07	18:08:28	18:13:02	269470	616555ec3460f0a519c1cdff	4	1	main_z	7	advance_on_keypress_ZEE	86	stimuli_target_squaretriangles.svg	stimuli_distractor_trianglediamonds.svg	3	yes	57	0	257	0	0			0	0			1				0	
6.6.1	win	2023-07-07	18:08:28	18:13:03	270647	616555ec3460f0a519c1cdff	4	1	main_z	7	main_z	87	stimuli_distractor_diamondtriangles.svg	stimuli_target_trianglerectangles.svg	29	yes	44	1	286	0	0			0	0			1				0	
6.6.1	win	2023-07-07	18:08:28	18:13:03	270647	616555ec3460f0a519c1cdff	4	1	main_z	7	advance_on_keypress_ZEE	88	stimuli_distractor_diamondtriangles.svg	stimuli_target_trianglerectangles.svg	29	yes	57	0	310	0	0			0	0			1				0	
6.6.1	win	2023-07-07	18:08:28	18:13:05	271865	616555ec3460f0a519c1cdff	4	1	main_z	7	main_z	89	stimuli_distractor_diamondtriangles.svg	stimuli_target_squaretriangles.svg	15	yes	44	1	271	0	0			0	0			1				0	
6.6.1	win	2023-07-07	18:08:28	18:13:05	271865	616555ec3460f0a519c1cdff	4	1	main_z	7	advance_on_keypress_ZEE	90	stimuli_distractor_diamondtriangles.svg	stimuli_target_squaretriangles.svg	15	yes	57	0	220	0	0			0	0			1				0	
6.6.1	win	2023-07-07	18:08:28	18:13:06	273011	616555ec3460f0a519c1cdff	4	1	main_z	7	main_z	91	stimuli_target_trianglerectangles.svg	stimuli_distractor_diamondtriangles.svg	21	yes	44	1	283	0	0			0	0			1				0	
6.6.1	win	2023-07-07	18:08:28	18:13:06	273011	616555ec3460f0a519c1cdff	4	1	main_z	7	advance_on_keypress_ZEE	92	stimuli_target_trianglerectangles.svg	stimuli_distractor_diamondtriangles.svg	21	yes	57	0	199	0	0			0	0			1				0	
6.6.1	win	2023-07-07	18:08:28	18:13:07	274111	616555ec3460f0a519c1cdff	4	1	main_z	7	main_z	93	stimuli_distractor_trianglediamonds.svg	stimuli_target_rectanglediamonds.svg	10	yes	44	1	250	0	0			0	0			1				0	
6.6.1	win	2023-07-07	18:08:28	18:13:07	274111	616555ec3460f0a519c1cdff	4	1	main_z	7	advance_on_keypress_ZEE	94	stimuli_distractor_trianglediamonds.svg	stimuli_target_rectanglediamonds.svg	10	yes	57	0	200	0	0			0	0			1				0	
6.6.1	win	2023-07-07	18:08:28	18:13:08	275250	616555ec3460f0a519c1cdff	4	1	main_z	7	main_z	95	stimuli_distractor_trianglediamonds.svg	stimuli_target_diamondsquares.svg	28	yes	44	1	290	0	0			0	0			1				0	
6.6.1	win	2023-07-07	18:08:28	18:13:08	275250	616555ec3460f0a519c1cdff	4	1	main_z	7	advance_on_keypress_ZEE	96	stimuli_distractor_trianglediamonds.svg	stimuli_target_diamondsquares.svg	28	yes	57	0	282	0	0			0	0			1				0	
6.6.1	win	2023-07-07	18:08:28	18:13:09	276418	616555ec3460f0a519c1cdff	4	1	main_z	7	main_z	97	stimuli_target_rectangletriangles.svg	stimuli_distractor_diamondtriangles.svg	5	yes	44	1	240	0	0			0	0			1				0	
6.6.1	win	2023-07-07	18:08:28	18:13:09	276418	616555ec3460f0a519c1cdff	4	1	main_z	7	advance_on_keypress_ZEE	98	stimuli_target_rectangletriangles.svg	stimuli_distractor_diamondtriangles.svg	5	yes	57	0	192	0	0			0	0			1				0	
6.6.1	win	2023-07-07	18:08:28	18:13:10	277486	616555ec3460f0a519c1cdff	4	1	main_z	7	main_z	99	stimuli_distractor_diamondtriangles.svg	stimuli_target_trianglesquares.svg	30	yes	44	1	226	0	0			0	0			1				0	
6.6.1	win	2023-07-07	18:08:28	18:13:10	277486	616555ec3460f0a519c1cdff	4	1	main_z	7	advance_on_keypress_ZEE	100	stimuli_distractor_diamondtriangles.svg	stimuli_target_trianglesquares.svg	30	yes	57	0	208	0	0			0	0			1				0	
6.6.1	win	2023-07-07	18:08:28	18:13:11	278596	616555ec3460f0a519c1cdff	4	1	main_z	7	main_z	101	stimuli_distractor_trianglediamonds.svg	stimuli_target_squarediamonds.svg	12	yes	44	1	269	0	0			0	0			1				0	
6.6.1	win	2023-07-07	18:08:28	18:13:11	278596	616555ec3460f0a519c1cdff	4	1	main_z	7	advance_on_keypress_ZEE	102	stimuli_distractor_trianglediamonds.svg	stimuli_target_squarediamonds.svg	12	yes	57	0	215	0	0			0	0			1				0	
6.6.1	win	2023-07-07	18:08:28	18:13:12	279692	616555ec3460f0a519c1cdff	4	1	main_z	7	main_z	103	stimuli_distractor_diamondtriangles.svg	stimuli_target_squarediamonds.svg	16	yes	44	1	231	0	0			0	0			1				0	
6.6.1	win	2023-07-07	18:08:28	18:13:12	279692	616555ec3460f0a519c1cdff	4	1	main_z	7	advance_on_keypress_ZEE	104	stimuli_distractor_diamondtriangles.svg	stimuli_target_squarediamonds.svg	16	yes	57	0	197	0	0			0	0			1				0	
6.6.1	win	2023-07-07	18:08:28	18:13:14	280768	616555ec3460f0a519c1cdff	4	1	main_z	7	main_z	105	stimuli_target_squarediamonds.svg	stimuli_distractor_diamondtriangles.svg	8	yes	44	1	225	0	0			0	0			1				0	
6.6.1	win	2023-07-07	18:08:28	18:13:14	280768	616555ec3460f0a519c1cdff	4	1	main_z	7	advance_on_keypress_ZEE	106	stimuli_target_squarediamonds.svg	stimuli_distractor_diamondtriangles.svg	8	yes	57	0	206	0	0			0	0			1				0	
6.6.1	win	2023-07-07	18:08:28	18:13:15	281842	616555ec3460f0a519c1cdff	4	1	main_z	7	main_z	107	stimuli_target_trianglesquares.svg	stimuli_distractor_diamondtriangles.svg	22	yes	44	1	232	0	0			0	0			1				0	
6.6.1	win	2023-07-07	18:08:28	18:13:15	281842	616555ec3460f0a519c1cdff	4	1	main_z	7	advance_on_keypress_ZEE	108	stimuli_target_trianglesquares.svg	stimuli_distractor_diamondtriangles.svg	22	yes	57	0	198	0	0			0	0			1				0	
6.6.1	win	2023-07-07	18:08:28	18:13:16	282905	616555ec3460f0a519c1cdff	4	1	main_z	7	main_z	109	stimuli_distractor_trianglediamonds.svg	stimuli_target_rectangletriangles.svg	9	yes	44	1	211	0	0			0	0			1				0	
6.6.1	win	2023-07-07	18:08:28	18:13:16	282905	616555ec3460f0a519c1cdff	4	1	main_z	7	advance_on_keypress_ZEE	110	stimuli_distractor_trianglediamonds.svg	stimuli_target_rectangletriangles.svg	9	yes	57	0	225	0	0			0	0			1				0	
6.6.1	win	2023-07-07	18:08:28	18:13:17	283964	616555ec3460f0a519c1cdff	4	1	main_z	7	main_z	111	stimuli_distractor_trianglediamonds.svg	stimuli_distractor_trianglediamonds.svg	33	no	44	0	203	0	0			0	0			1				0	
6.6.1	win	2023-07-07	18:08:28	18:13:17	283964	616555ec3460f0a519c1cdff	4	1	main_z	7	advance_on_keypress_ZEE	112	stimuli_distractor_trianglediamonds.svg	stimuli_distractor_trianglediamonds.svg	33	no	57	0	199	0	0			0	0			1				0	
6.6.1	win	2023-07-07	18:08:28	18:13:18	285322	616555ec3460f0a519c1cdff	4	1	main_z	7	main_z	113	stimuli_target_diamondsquares.svg	stimuli_distractor_diamondtriangles.svg	24	yes	44	1	507	0	0			0	0			1				0	
6.6.1	win	2023-07-07	18:08:28	18:13:18	285322	616555ec3460f0a519c1cdff	4	1	main_z	7	advance_on_keypress_ZEE	114	stimuli_target_diamondsquares.svg	stimuli_distractor_diamondtriangles.svg	24	yes	57	0	712	0	0			0	0			1				0	
6.6.1	win	2023-07-07	18:08:28	18:13:21	288678	616555ec3460f0a519c1cdff	4	1	main_z	7	main_z	115	stimuli_distractor_diamondtriangles.svg	stimuli_distractor_diamondtriangles.svg	39	no	0	1	2000	0	0			0	0			1				0	
6.6.1	win	2023-07-07	18:08:28	18:13:21	288678	616555ec3460f0a519c1cdff	4	1	main_z	7	advance_on_keypress_ZEE	116	stimuli_distractor_diamondtriangles.svg	stimuli_distractor_diamondtriangles.svg	39	no	57	0	389	0	0			0	0			1				0	
6.6.1	win	2023-07-07	18:08:28	18:13:23	290223	616555ec3460f0a519c1cdff	4	1	main_z	7	main_z	117	stimuli_target_trianglesquares.svg	stimuli_distractor_trianglediamonds.svg	18	yes	44	1	509	0	0			0	0			1				0	
6.6.1	win	2023-07-07	18:08:28	18:13:23	290223	616555ec3460f0a519c1cdff	4	1	main_z	7	advance_on_keypress_ZEE	118	stimuli_target_trianglesquares.svg	stimuli_distractor_trianglediamonds.svg	18	yes	57	0	209	0	0			0	0			1				0	
6.6.1	win	2023-07-07	18:08:28	18:13:24	291632	616555ec3460f0a519c1cdff	4	1	main_z	7	main_z	119	stimuli_distractor_trianglediamonds.svg	stimuli_target_trianglesquares.svg	26	yes	44	1	554	0	0			0	0			1				0	
6.6.1	win	2023-07-07	18:08:28	18:13:24	291632	616555ec3460f0a519c1cdff	4	1	main_z	7	advance_on_keypress_ZEE	120	stimuli_distractor_trianglediamonds.svg	stimuli_target_trianglesquares.svg	26	yes	57	0	260	0	0			0	0			1				0	
6.6.1	win	2023-07-07	18:08:28	18:13:26	293159	616555ec3460f0a519c1cdff	4	1	main_z	7	main_z	121	stimuli_distractor_trianglediamonds.svg	stimuli_target_squaretriangles.svg	11	yes	44	1	632	0	0			0	0			1				0	
6.6.1	win	2023-07-07	18:08:28	18:13:26	293159	616555ec3460f0a519c1cdff	4	1	main_z	7	advance_on_keypress_ZEE	122	stimuli_distractor_trianglediamonds.svg	stimuli_target_squaretriangles.svg	11	yes	57	0	227	0	0			0	0			1				0	
6.6.1	win	2023-07-07	18:08:28	18:13:28	295322	616555ec3460f0a519c1cdff	4	1	main_z	7	main_z	123	stimuli_distractor_diamondtriangles.svg	stimuli_distractor_trianglediamonds.svg	38	no	44	0	1277	0	0			0	0			1				0	
6.6.1	win	2023-07-07	18:08:28	18:13:28	295322	616555ec3460f0a519c1cdff	4	1	main_z	7	advance_on_keypress_ZEE	124	stimuli_distractor_diamondtriangles.svg	stimuli_distractor_trianglediamonds.svg	38	no	57	0	482	0	0			0	0			1				0	
6.6.1	win	2023-07-07	18:08:28	18:13:31	298461	616555ec3460f0a519c1cdff	4	1	main_z	7	main_z	125	stimuli_distractor_diamondtriangles.svg	stimuli_distractor_diamondtriangles.svg	40	no	0	1	2000	0	0			0	0			1				0	
6.6.1	win	2023-07-07	18:08:28	18:13:31	298461	616555ec3460f0a519c1cdff	4	1	main_z	7	advance_on_keypress_ZEE	126	stimuli_distractor_diamondtriangles.svg	stimuli_distractor_diamondtriangles.svg	40	no	57	0	365	0	0			0	0			1				0	
6.6.1	win	2023-07-07	18:08:28	18:13:33	299869	616555ec3460f0a519c1cdff	4	1	main_z	7	main_z	127	stimuli_target_diamondrectangles.svg	stimuli_distractor_trianglediamonds.svg	19	yes	44	1	391	0	0			0	0			1				0	
6.6.1	win	2023-07-07	18:08:28	18:13:33	299869	616555ec3460f0a519c1cdff	4	1	main_z	7	advance_on_keypress_ZEE	128	stimuli_target_diamondrectangles.svg	stimuli_distractor_trianglediamonds.svg	19	yes	57	0	208	0	0			0	0			1				0	
6.6.1	win	2023-07-07	18:08:28	18:13:34	301234	616555ec3460f0a519c1cdff	4	1	main_z	7	main_z	129	stimuli_distractor_diamondtriangles.svg	stimuli_target_diamondsquares.svg	32	yes	44	1	523	0	0			0	0			1				0	
6.6.1	win	2023-07-07	18:08:28	18:13:34	301234	616555ec3460f0a519c1cdff	4	1	main_z	7	advance_on_keypress_ZEE	130	stimuli_distractor_diamondtriangles.svg	stimuli_target_diamondsquares.svg	32	yes	57	0	571	0	0			0	0			1				0	
6.6.1	win	2023-07-07	18:08:28	18:13:36	303064	616555ec3460f0a519c1cdff	4	1	main_z	7	main_z	131	stimuli_distractor_trianglediamonds.svg	stimuli_target_trianglerectangles.svg	25	yes	44	1	620	0	0			0	0			1				0	
6.6.1	win	2023-07-07	18:08:28	18:13:36	303064	616555ec3460f0a519c1cdff	4	1	main_z	7	advance_on_keypress_ZEE	132	stimuli_distractor_trianglediamonds.svg	stimuli_target_trianglerectangles.svg	25	yes	57	0	293	0	0			0	0			1				0	
6.6.1	win	2023-07-07	18:08:28	18:13:39	305994	616555ec3460f0a519c1cdff	4	1	main_z	7	main_z	133	stimuli_distractor_diamondtriangles.svg	stimuli_distractor_trianglediamonds.svg	37	no	0	1	2000	0	0			0	0			1				0	
6.6.1	win	2023-07-07	18:08:28	18:13:39	305994	616555ec3460f0a519c1cdff	4	1	main_z	7	advance_on_keypress_ZEE	134	stimuli_distractor_diamondtriangles.svg	stimuli_distractor_trianglediamonds.svg	37	no	57	0	319	0	0			0	0			1				0	
6.6.1	win	2023-07-07	18:08:28	18:13:40	307394	616555ec3460f0a519c1cdff	4	1	main_z	7	main_z	135	stimuli_target_trianglerectangles.svg	stimuli_distractor_trianglediamonds.svg	17	yes	44	1	433	0	0			0	0			1				0	
6.6.1	win	2023-07-07	18:08:28	18:13:40	307394	616555ec3460f0a519c1cdff	4	1	main_z	7	advance_on_keypress_ZEE	136	stimuli_target_trianglerectangles.svg	stimuli_distractor_trianglediamonds.svg	17	yes	57	0	246	0	0			0	0			1				0	
6.6.1	win	2023-07-07	18:08:28	18:13:42	308889	616555ec3460f0a519c1cdff	4	1	main_z	7	main_z	137	stimuli_distractor_diamondtriangles.svg	stimuli_target_rectangletriangles.svg	13	yes	44	1	594	0	0			0	0			1				0	
6.6.1	win	2023-07-07	18:08:28	18:13:42	308889	616555ec3460f0a519c1cdff	4	1	main_z	7	advance_on_keypress_ZEE	138	stimuli_distractor_diamondtriangles.svg	stimuli_target_rectangletriangles.svg	13	yes	57	0	438	0	0			0	0			1				0	
6.6.1	win	2023-07-07	18:08:28	18:13:43	310378	616555ec3460f0a519c1cdff	4	1	main_z	7	main_z	139	stimuli_target_diamondsquares.svg	stimuli_distractor_trianglediamonds.svg	20	yes	44	1	401	0	0			0	0			1				0	
6.6.1	win	2023-07-07	18:08:28	18:13:43	310378	616555ec3460f0a519c1cdff	4	1	main_z	7	advance_on_keypress_ZEE	140	stimuli_target_diamondsquares.svg	stimuli_distractor_trianglediamonds.svg	20	yes	57	0	352	0	0			0	0			1				0	
6.6.1	win	2023-07-07	18:08:28	18:13:45	311854	616555ec3460f0a519c1cdff	4	1	main_z	7	main_z	141	stimuli_distractor_diamondtriangles.svg	stimuli_target_diamondrectangles.svg	31	yes	44	1	477	0	0			0	0			1				0	
6.6.1	win	2023-07-07	18:08:28	18:13:45	311854	616555ec3460f0a519c1cdff	4	1	main_z	7	advance_on_keypress_ZEE	142	stimuli_distractor_diamondtriangles.svg	stimuli_target_diamondrectangles.svg	31	yes	57	0	388	0	0			0	0			1				0	
6.6.1	win	2023-07-07	18:08:28	18:13:46	313264	616555ec3460f0a519c1cdff	4	1	main_z	7	main_z	143	stimuli_target_rectangletriangles.svg	stimuli_distractor_trianglediamonds.svg	1	yes	44	1	386	0	0			0	0			1				0	
6.6.1	win	2023-07-07	18:08:28	18:13:46	313264	616555ec3460f0a519c1cdff	4	1	main_z	7	advance_on_keypress_ZEE	144	stimuli_target_rectangletriangles.svg	stimuli_distractor_trianglediamonds.svg	1	yes	57	0	203	0	0			0	0			1				0	
6.6.1	win	2023-07-07	18:08:28	18:13:49	316111	616555ec3460f0a519c1cdff	4	1	main_z	7	main_z	145	stimuli_distractor_trianglediamonds.svg	stimuli_distractor_trianglediamonds.svg	34	no	0	1	2000	0	0			0	0			1				0	
6.6.1	win	2023-07-07	18:08:28	18:13:49	316111	616555ec3460f0a519c1cdff	4	1	main_z	7	advance_on_keypress_ZEE	146	stimuli_distractor_trianglediamonds.svg	stimuli_distractor_trianglediamonds.svg	34	no	57	0	344	0	0			0	0			1				0	
6.6.1	win	2023-07-07	18:08:28	18:13:50	317488	616555ec3460f0a519c1cdff	4	1	main_z	7	main_z	147	stimuli_target_rectanglediamonds.svg	stimuli_distractor_trianglediamonds.svg	2	yes	44	1	393	0	0			0	0			1				0	
6.6.1	win	2023-07-07	18:08:28	18:13:50	317488	616555ec3460f0a519c1cdff	4	1	main_z	7	advance_on_keypress_ZEE	148	stimuli_target_rectanglediamonds.svg	stimuli_distractor_trianglediamonds.svg	2	yes	57	0	270	0	0			0	0			1				0	
6.6.1	win	2023-07-07	18:08:28	18:13:52	319102	616555ec3460f0a519c1cdff	4	1	main_z	7	main_z	149	stimuli_distractor_trianglediamonds.svg	stimuli_distractor_diamondtriangles.svg	36	no	44	0	707	0	0			0	0			1				0	
6.6.1	win	2023-07-07	18:08:28	18:13:52	319102	616555ec3460f0a519c1cdff	4	1	main_z	7	advance_on_keypress_ZEE	150	stimuli_distractor_trianglediamonds.svg	stimuli_distractor_diamondtriangles.svg	36	no	57	0	343	0	0			0	0			1				0	
6.6.1	win	2023-07-07	18:08:28	18:13:53	320513	616555ec3460f0a519c1cdff	4	1	main_z	7	main_z	151	stimuli_target_diamondrectangles.svg	stimuli_distractor_diamondtriangles.svg	23	yes	44	1	435	0	0			0	0			1				0	
6.6.1	win	2023-07-07	18:08:28	18:13:53	320513	616555ec3460f0a519c1cdff	4	1	main_z	7	advance_on_keypress_ZEE	152	stimuli_target_diamondrectangles.svg	stimuli_distractor_diamondtriangles.svg	23	yes	57	0	372	0	0			0	0			1				0	
6.6.1	win	2023-07-07	18:08:28	18:13:55	322056	616555ec3460f0a519c1cdff	4	1	main_z	7	main_z	153	stimuli_distractor_trianglediamonds.svg	stimuli_distractor_diamondtriangles.svg	35	no	44	0	527	0	0			0	0			1				0	
6.6.1	win	2023-07-07	18:08:28	18:13:55	322056	616555ec3460f0a519c1cdff	4	1	main_z	7	advance_on_keypress_ZEE	154	stimuli_distractor_trianglediamonds.svg	stimuli_distractor_diamondtriangles.svg	35	no	57	0	255	0	0			0	0			1				0	
6.6.1	win	2023-07-07	18:08:28	18:13:56	323361	616555ec3460f0a519c1cdff	4	1	main_z	7	main_z	155	stimuli_distractor_trianglediamonds.svg	stimuli_target_diamondrectangles.svg	27	yes	44	1	417	0	0			0	0			1				0	
6.6.1	win	2023-07-07	18:08:28	18:13:56	323361	616555ec3460f0a519c1cdff	4	1	main_z	7	advance_on_keypress_ZEE	156	stimuli_distractor_trianglediamonds.svg	stimuli_target_diamondrectangles.svg	27	yes	57	0	245	0	0			0	0			1				0	
6.6.1	win	2023-07-07	18:08:28	18:13:58	324821	616555ec3460f0a519c1cdff	4	1	main_z	7	main_z	157	stimuli_target_rectanglediamonds.svg	stimuli_distractor_diamondtriangles.svg	6	yes	44	1	559	0	0			0	0			1				0	
6.6.1	win	2023-07-07	18:08:28	18:13:58	324821	616555ec3460f0a519c1cdff	4	1	main_z	7	advance_on_keypress_ZEE	158	stimuli_target_rectanglediamonds.svg	stimuli_distractor_diamondtriangles.svg	6	yes	57	0	226	0	0			0	0			1				0	
6.6.1	win	2023-07-07	18:08:28	18:13:59	326100	616555ec3460f0a519c1cdff	4	1	main_z	7	main_z	159	stimuli_target_squarediamonds.svg	stimuli_distractor_trianglediamonds.svg	4	yes	44	1	388	0	0			0	0			1				0	
6.6.1	win	2023-07-07	18:08:28	18:13:59	326100	616555ec3460f0a519c1cdff	4	1	main_z	7	advance_on_keypress_ZEE	160	stimuli_target_squarediamonds.svg	stimuli_distractor_trianglediamonds.svg	4	yes	57	0	215	0	0			0	0			1				0	
6.6.1	win	2023-07-07	18:08:28	18:14:18	345674	616555ec3460f0a519c1cdff	4	1	practice_slash	9	practice_slash	1	stimuli_distractor_trianglediamonds.svg	stimuli_target_diamondrectangles.svg	12	yes	53	1	860	0	0			0	0			1				0	
6.6.1	win	2023-07-07	18:08:28	18:14:18	345674	616555ec3460f0a519c1cdff	4	1	practice_slash	9	advance_on_keypress_SLASH	2	stimuli_distractor_trianglediamonds.svg	stimuli_target_diamondrectangles.svg	12	yes	57	0	421	0	0			0	0			1				0	
6.6.1	win	2023-07-07	18:08:28	18:14:21	348388	616555ec3460f0a519c1cdff	4	1	practice_slash	9	practice_slash	3	stimuli_distractor_trianglediamonds.svg	stimuli_distractor_diamondtriangles.svg	16	no	53	0	640	0	0			0	0			1				0	
6.6.1	win	2023-07-07	18:08:28	18:14:21	348388	616555ec3460f0a519c1cdff	4	1	practice_slash	9	advance_on_keypress_SLASH	4	stimuli_distractor_trianglediamonds.svg	stimuli_distractor_diamondtriangles.svg	16	no	57	0	545	0	0			0	0			1				0	
6.6.1	win	2023-07-07	18:08:28	18:14:24	351099	616555ec3460f0a519c1cdff	4	1	practice_slash	9	practice_slash	5	stimuli_distractor_diamondtriangles.svg	stimuli_target_diamondrectangles.svg	8	yes	53	1	519	0	0			0	0			1				0	
6.6.1	win	2023-07-07	18:08:28	18:14:24	351099	616555ec3460f0a519c1cdff	4	1	practice_slash	9	advance_on_keypress_SLASH	6	stimuli_distractor_diamondtriangles.svg	stimuli_target_diamondrectangles.svg	8	yes	57	0	390	0	0			0	0			1				0	
6.6.1	win	2023-07-07	18:08:28	18:14:26	353626	616555ec3460f0a519c1cdff	4	1	practice_slash	9	practice_slash	7	stimuli_distractor_diamondtriangles.svg	stimuli_target_trianglerectangles.svg	9	yes	53	1	497	0	0			0	0			1				0	
6.6.1	win	2023-07-07	18:08:28	18:14:26	353626	616555ec3460f0a519c1cdff	4	1	practice_slash	9	advance_on_keypress_SLASH	8	stimuli_distractor_diamondtriangles.svg	stimuli_target_trianglerectangles.svg	9	yes	57	0	228	0	0			0	0			1				0	
6.6.1	win	2023-07-07	18:08:28	18:14:29	356006	616555ec3460f0a519c1cdff	4	1	practice_slash	9	practice_slash	9	stimuli_distractor_trianglediamonds.svg	stimuli_target_rectanglediamonds.svg	10	yes	53	1	493	0	0			0	0			1				0	
6.6.1	win	2023-07-07	18:08:28	18:14:29	356006	616555ec3460f0a519c1cdff	4	1	practice_slash	9	advance_on_keypress_SLASH	10	stimuli_distractor_trianglediamonds.svg	stimuli_target_rectanglediamonds.svg	10	yes	57	0	268	0	0			0	0			1				0	
6.6.1	win	2023-07-07	18:08:28	18:14:31	358394	616555ec3460f0a519c1cdff	4	1	practice_slash	9	practice_slash	11	stimuli_target_squarediamonds.svg	stimuli_distractor_trianglediamonds.svg	5	yes	53	1	463	0	0			0	0			1				0	
6.6.1	win	2023-07-07	18:08:28	18:14:31	358394	616555ec3460f0a519c1cdff	4	1	practice_slash	9	advance_on_keypress_SLASH	12	stimuli_target_squarediamonds.svg	stimuli_distractor_trianglediamonds.svg	5	yes	57	0	649	0	0			0	0			1				0	
6.6.1	win	2023-07-07	18:08:28	18:14:35	362698	616555ec3460f0a519c1cdff	4	1	practice_slash	9	practice_slash	13	stimuli_distractor_diamondtriangles.svg	stimuli_distractor_diamondtriangles.svg	13	no	0	1	2000	0	0			0	0			1				0	
6.6.1	win	2023-07-07	18:08:28	18:14:35	362698	616555ec3460f0a519c1cdff	4	1	practice_slash	9	advance_on_keypress_SLASH	14	stimuli_distractor_diamondtriangles.svg	stimuli_distractor_diamondtriangles.svg	13	no	57	0	477	0	0			0	0			1				0	
6.6.1	win	2023-07-07	18:08:28	18:14:40	366831	616555ec3460f0a519c1cdff	4	1	practice_slash	9	practice_slash	15	stimuli_distractor_trianglediamonds.svg	stimuli_distractor_trianglediamonds.svg	15	no	0	1	2000	0	0			0	0			1				0	
6.6.1	win	2023-07-07	18:08:28	18:14:40	366831	616555ec3460f0a519c1cdff	4	1	practice_slash	9	advance_on_keypress_SLASH	16	stimuli_distractor_trianglediamonds.svg	stimuli_distractor_trianglediamonds.svg	15	no	57	0	645	0	0			0	0			1				0	
6.6.1	win	2023-07-07	18:08:28	18:14:42	369654	616555ec3460f0a519c1cdff	4	1	practice_slash	9	practice_slash	17	stimuli_distractor_trianglediamonds.svg	stimuli_target_squarediamonds.svg	11	yes	53	1	523	0	0			0	0			1				0	
6.6.1	win	2023-07-07	18:08:28	18:14:42	369654	616555ec3460f0a519c1cdff	4	1	practice_slash	9	advance_on_keypress_SLASH	18	stimuli_distractor_trianglediamonds.svg	stimuli_target_squarediamonds.svg	11	yes	57	0	834	0	0			0	0			1				0	
6.6.1	win	2023-07-07	18:08:28	18:14:45	372700	616555ec3460f0a519c1cdff	4	1	practice_slash	9	practice_slash	19	stimuli_target_rectanglediamonds.svg	stimuli_distractor_diamondtriangles.svg	1	yes	53	1	568	0	0			0	0			1				0	
6.6.1	win	2023-07-07	18:08:28	18:14:45	372700	616555ec3460f0a519c1cdff	4	1	practice_slash	9	advance_on_keypress_SLASH	20	stimuli_target_rectanglediamonds.svg	stimuli_distractor_diamondtriangles.svg	1	yes	57	0	262	0	0			0	0			1				0	
6.6.1	win	2023-07-07	18:08:28	18:14:48	374947	616555ec3460f0a519c1cdff	4	1	practice_slash	9	practice_slash	21	stimuli_distractor_diamondtriangles.svg	stimuli_target_rectangletriangles.svg	7	yes	53	1	333	0	0			0	0			1				0	
6.6.1	win	2023-07-07	18:08:28	18:14:48	374947	616555ec3460f0a519c1cdff	4	1	practice_slash	9	advance_on_keypress_SLASH	22	stimuli_distractor_diamondtriangles.svg	stimuli_target_rectangletriangles.svg	7	yes	57	0	367	0	0			0	0			1				0	
6.6.1	win	2023-07-07	18:08:28	18:14:50	377392	616555ec3460f0a519c1cdff	4	1	practice_slash	9	practice_slash	23	stimuli_target_diamondsquares.svg	stimuli_distractor_trianglediamonds.svg	6	yes	53	1	427	0	0			0	0			1				0	
6.6.1	win	2023-07-07	18:08:28	18:14:50	377392	616555ec3460f0a519c1cdff	4	1	practice_slash	9	advance_on_keypress_SLASH	24	stimuli_target_diamondsquares.svg	stimuli_distractor_trianglediamonds.svg	6	yes	57	0	331	0	0			0	0			1				0	
6.6.1	win	2023-07-07	18:08:28	18:14:53	379911	616555ec3460f0a519c1cdff	4	1	practice_slash	9	practice_slash	25	stimuli_target_diamondsquares.svg	stimuli_distractor_diamondtriangles.svg	3	yes	53	1	529	0	0			0	0			1				0	
6.6.1	win	2023-07-07	18:08:28	18:14:53	379911	616555ec3460f0a519c1cdff	4	1	practice_slash	9	advance_on_keypress_SLASH	26	stimuli_target_diamondsquares.svg	stimuli_distractor_diamondtriangles.svg	3	yes	57	0	452	0	0			0	0			1				0	
6.6.1	win	2023-07-07	18:08:28	18:14:55	382426	616555ec3460f0a519c1cdff	4	1	practice_slash	9	practice_slash	27	stimuli_target_squarediamonds.svg	stimuli_distractor_diamondtriangles.svg	2	yes	53	1	412	0	0			0	0			1				0	
6.6.1	win	2023-07-07	18:08:28	18:14:55	382426	616555ec3460f0a519c1cdff	4	1	practice_slash	9	advance_on_keypress_SLASH	28	stimuli_target_squarediamonds.svg	stimuli_distractor_diamondtriangles.svg	2	yes	57	0	528	0	0			0	0			1				0	
6.6.1	win	2023-07-07	18:08:28	18:14:58	385349	616555ec3460f0a519c1cdff	4	1	practice_slash	9	practice_slash	29	stimuli_target_rectanglediamonds.svg	stimuli_distractor_trianglediamonds.svg	4	yes	53	1	734	0	0			0	0			1				0	
6.6.1	win	2023-07-07	18:08:28	18:14:58	385349	616555ec3460f0a519c1cdff	4	1	practice_slash	9	advance_on_keypress_SLASH	30	stimuli_target_rectanglediamonds.svg	stimuli_distractor_trianglediamonds.svg	4	yes	57	0	464	0	0			0	0			1				0	
6.6.1	win	2023-07-07	18:08:28	18:15:02	389465	616555ec3460f0a519c1cdff	4	1	practice_slash	9	practice_slash	31	stimuli_distractor_diamondtriangles.svg	stimuli_distractor_trianglediamonds.svg	14	no	0	1	2000	0	0			0	0			1				0	
6.6.1	win	2023-07-07	18:08:28	18:15:02	389465	616555ec3460f0a519c1cdff	4	1	practice_slash	9	advance_on_keypress_SLASH	32	stimuli_distractor_diamondtriangles.svg	stimuli_distractor_trianglediamonds.svg	14	no	57	0	230	0	0			0	0			1				0	
6.6.1	win	2023-07-07	18:08:28	18:15:06	393011	616555ec3460f0a519c1cdff	4	1	main_slash	11	main_slash	1	stimuli_distractor_trianglediamonds.svg	stimuli_target_squarediamonds.svg	12	yes	53	1	698	0	0			0	0			1				0	
6.6.1	win	2023-07-07	18:08:28	18:15:06	393011	616555ec3460f0a519c1cdff	4	1	main_slash	11	advance_on_keypress_SLASH	2	stimuli_distractor_trianglediamonds.svg	stimuli_target_squarediamonds.svg	12	yes	57	0	1235	0	0			0	0			1				0	
6.6.1	win	2023-07-07	18:08:28	18:15:08	395627	616555ec3460f0a519c1cdff	4	1	main_slash	11	main_slash	3	stimuli_target_diamondsquares.svg	stimuli_distractor_diamondtriangles.svg	24	yes	53	1	730	0	0			0	0			1				0	
6.6.1	win	2023-07-07	18:08:28	18:15:08	395627	616555ec3460f0a519c1cdff	4	1	main_slash	11	advance_on_keypress_SLASH	4	stimuli_target_diamondsquares.svg	stimuli_distractor_diamondtriangles.svg	24	yes	57	0	786	0	0			0	0			1				0	
6.6.1	win	2023-07-07	18:08:28	18:15:11	398466	616555ec3460f0a519c1cdff	4	1	main_slash	11	main_slash	5	stimuli_target_squaretriangles.svg	stimuli_distractor_diamondtriangles.svg	7	yes	53	1	1404	0	0			0	0			1				0	
6.6.1	win	2023-07-07	18:08:28	18:15:11	398466	616555ec3460f0a519c1cdff	4	1	main_slash	11	advance_on_keypress_SLASH	6	stimuli_target_squaretriangles.svg	stimuli_distractor_diamondtriangles.svg	7	yes	57	0	1026	0	0			0	0			1				0	
6.6.1	win	2023-07-07	18:08:28	18:15:14	400849	616555ec3460f0a519c1cdff	4	1	main_slash	11	main_slash	7	stimuli_target_rectanglediamonds.svg	stimuli_distractor_trianglediamonds.svg	2	yes	53	1	720	0	0			0	0			1				0	
6.6.1	win	2023-07-07	18:08:28	18:15:14	400849	616555ec3460f0a519c1cdff	4	1	main_slash	11	advance_on_keypress_SLASH	8	stimuli_target_rectanglediamonds.svg	stimuli_distractor_trianglediamonds.svg	2	yes	57	0	1211	0	0			0	0			1				0	
6.6.1	win	2023-07-07	18:08:28	18:15:17	404696	616555ec3460f0a519c1cdff	4	1	main_slash	11	main_slash	9	stimuli_distractor_diamondtriangles.svg	stimuli_distractor_diamondtriangles.svg	40	no	0	1	2000	0	0			0	0			1				0	
6.6.1	win	2023-07-07	18:08:28	18:15:17	404696	616555ec3460f0a519c1cdff	4	1	main_slash	11	advance_on_keypress_SLASH	10	stimuli_distractor_diamondtriangles.svg	stimuli_distractor_diamondtriangles.svg	40	no	57	0	316	0	0			0	0			1				0	
6.6.1	win	2023-07-07	18:08:28	18:15:19	406236	616555ec3460f0a519c1cdff	4	1	main_slash	11	main_slash	11	stimuli_target_trianglesquares.svg	stimuli_distractor_diamondtriangles.svg	22	yes	53	1	572	0	0			0	0			1				0	
6.6.1	win	2023-07-07	18:08:28	18:15:19	406236	616555ec3460f0a519c1cdff	4	1	main_slash	11	advance_on_keypress_SLASH	12	stimuli_target_trianglesquares.svg	stimuli_distractor_diamondtriangles.svg	22	yes	57	0	1113	0	0			0	0			1				0	
6.6.1	win	2023-07-07	18:08:28	18:15:23	409997	616555ec3460f0a519c1cdff	4	1	main_slash	11	main_slash	13	stimuli_distractor_diamondtriangles.svg	stimuli_distractor_trianglediamonds.svg	37	no	0	1	2000	0	0			0	0			1				0	
6.6.1	win	2023-07-07	18:08:28	18:15:23	409997	616555ec3460f0a519c1cdff	4	1	main_slash	11	advance_on_keypress_SLASH	14	stimuli_distractor_diamondtriangles.svg	stimuli_distractor_trianglediamonds.svg	37	no	57	0	364	0	0			0	0			1				0	
6.6.1	win	2023-07-07	18:08:28	18:15:24	411669	616555ec3460f0a519c1cdff	4	1	main_slash	11	main_slash	15	stimuli_target_diamondsquares.svg	stimuli_distractor_trianglediamonds.svg	20	yes	53	1	655	0	0			0	0			1				0	
6.6.1	win	2023-07-07	18:08:28	18:15:24	411669	616555ec3460f0a519c1cdff	4	1	main_slash	11	advance_on_keypress_SLASH	16	stimuli_target_diamondsquares.svg	stimuli_distractor_trianglediamonds.svg	20	yes	57	0	799	0	0			0	0			1				0	
6.6.1	win	2023-07-07	18:08:28	18:15:27	413777	616555ec3460f0a519c1cdff	4	1	main_slash	11	main_slash	17	stimuli_target_trianglerectangles.svg	stimuli_distractor_diamondtriangles.svg	21	yes	53	1	663	0	0			0	0			1				0	
6.6.1	win	2023-07-07	18:08:28	18:15:27	413777	616555ec3460f0a519c1cdff	4	1	main_slash	11	advance_on_keypress_SLASH	18	stimuli_target_trianglerectangles.svg	stimuli_distractor_diamondtriangles.svg	21	yes	57	0	768	0	0			0	0			1				0	
6.6.1	win	2023-07-07	18:08:28	18:15:29	415812	616555ec3460f0a519c1cdff	4	1	main_slash	11	main_slash	19	stimuli_target_rectangletriangles.svg	stimuli_distractor_trianglediamonds.svg	1	yes	53	1	616	0	0			0	0			1				0	
6.6.1	win	2023-07-07	18:08:28	18:15:29	415812	616555ec3460f0a519c1cdff	4	1	main_slash	11	advance_on_keypress_SLASH	20	stimuli_target_rectangletriangles.svg	stimuli_distractor_trianglediamonds.svg	1	yes	57	0	879	0	0			0	0			1				0	
6.6.1	win	2023-07-07	18:08:28	18:15:31	417837	616555ec3460f0a519c1cdff	4	1	main_slash	11	main_slash	21	stimuli_distractor_trianglediamonds.svg	stimuli_target_diamondrectangles.svg	27	yes	53	1	490	0	0			0	0			1				0	
6.6.1	win	2023-07-07	18:08:28	18:15:31	417837	616555ec3460f0a519c1cdff	4	1	main_slash	11	advance_on_keypress_SLASH	22	stimuli_distractor_trianglediamonds.svg	stimuli_target_diamondrectangles.svg	27	yes	57	0	593	0	0			0	0			1				0	
6.6.1	win	2023-07-07	18:08:28	18:15:32	419533	616555ec3460f0a519c1cdff	4	1	main_slash	11	main_slash	23	stimuli_target_squarediamonds.svg	stimuli_distractor_diamondtriangles.svg	8	yes	53	1	453	0	0			0	0			1				0	
6.6.1	win	2023-07-07	18:08:28	18:15:32	419533	616555ec3460f0a519c1cdff	4	1	main_slash	11	advance_on_keypress_SLASH	24	stimuli_target_squarediamonds.svg	stimuli_distractor_diamondtriangles.svg	8	yes	57	0	430	0	0			0	0			1				0	
6.6.1	win	2023-07-07	18:08:28	18:15:34	421177	616555ec3460f0a519c1cdff	4	1	main_slash	11	main_slash	25	stimuli_target_trianglesquares.svg	stimuli_distractor_trianglediamonds.svg	18	yes	53	1	564	0	0			0	0			1				0	
6.6.1	win	2023-07-07	18:08:28	18:15:34	421177	616555ec3460f0a519c1cdff	4	1	main_slash	11	advance_on_keypress_SLASH	26	stimuli_target_trianglesquares.svg	stimuli_distractor_trianglediamonds.svg	18	yes	57	0	574	0	0			0	0			1				0	
6.6.1	win	2023-07-07	18:08:28	18:15:36	423145	616555ec3460f0a519c1cdff	4	1	main_slash	11	main_slash	27	stimuli_distractor_diamondtriangles.svg	stimuli_distractor_trianglediamonds.svg	38	no	53	0	748	0	0			0	0			1				0	
6.6.1	win	2023-07-07	18:08:28	18:15:36	423145	616555ec3460f0a519c1cdff	4	1	main_slash	11	advance_on_keypress_SLASH	28	stimuli_distractor_diamondtriangles.svg	stimuli_distractor_trianglediamonds.svg	38	no	57	0	614	0	0			0	0			1				0	
6.6.1	win	2023-07-07	18:08:28	18:15:38	425109	616555ec3460f0a519c1cdff	4	1	main_slash	11	main_slash	29	stimuli_target_diamondrectangles.svg	stimuli_distractor_trianglediamonds.svg	19	yes	53	1	696	0	0			0	0			1				0	
6.6.1	win	2023-07-07	18:08:28	18:15:38	425109	616555ec3460f0a519c1cdff	4	1	main_slash	11	advance_on_keypress_SLASH	30	stimuli_target_diamondrectangles.svg	stimuli_distractor_trianglediamonds.svg	19	yes	57	0	594	0	0			0	0			1				0	
6.6.1	win	2023-07-07	18:08:28	18:15:40	427062	616555ec3460f0a519c1cdff	4	1	main_slash	11	main_slash	31	stimuli_distractor_diamondtriangles.svg	stimuli_target_trianglerectangles.svg	29	yes	53	1	698	0	0			0	0			1				0	
6.6.1	win	2023-07-07	18:08:28	18:15:40	427062	616555ec3460f0a519c1cdff	4	1	main_slash	11	advance_on_keypress_SLASH	32	stimuli_distractor_diamondtriangles.svg	stimuli_target_trianglerectangles.svg	29	yes	57	0	671	0	0			0	0			1				0	
6.6.1	win	2023-07-07	18:08:28	18:15:43	430380	616555ec3460f0a519c1cdff	4	1	main_slash	11	main_slash	33	stimuli_distractor_trianglediamonds.svg	stimuli_distractor_diamondtriangles.svg	36	no	0	1	2000	0	0			0	0			1				0	
6.6.1	win	2023-07-07	18:08:28	18:15:43	430380	616555ec3460f0a519c1cdff	4	1	main_slash	11	advance_on_keypress_SLASH	34	stimuli_distractor_trianglediamonds.svg	stimuli_distractor_diamondtriangles.svg	36	no	57	0	429	0	0			0	0			1				0	
6.6.1	win	2023-07-07	18:08:28	18:15:45	431940	616555ec3460f0a519c1cdff	4	1	main_slash	11	main_slash	35	stimuli_distractor_diamondtriangles.svg	stimuli_target_rectanglediamonds.svg	14	yes	53	1	476	0	0			0	0			1				0	
6.6.1	win	2023-07-07	18:08:28	18:15:45	431940	616555ec3460f0a519c1cdff	4	1	main_slash	11	advance_on_keypress_SLASH	36	stimuli_distractor_diamondtriangles.svg	stimuli_target_rectanglediamonds.svg	14	yes	57	0	410	0	0			0	0			1				0	
6.6.1	win	2023-07-07	18:08:28	18:15:46	433655	616555ec3460f0a519c1cdff	4	1	main_slash	11	main_slash	37	stimuli_distractor_trianglediamonds.svg	stimuli_target_trianglesquares.svg	26	yes	53	1	674	0	0			0	0			1				0	
6.6.1	win	2023-07-07	18:08:28	18:15:46	433655	616555ec3460f0a519c1cdff	4	1	main_slash	11	advance_on_keypress_SLASH	38	stimuli_distractor_trianglediamonds.svg	stimuli_target_trianglesquares.svg	26	yes	57	0	661	0	0			0	0			1				0	
6.6.1	win	2023-07-07	18:08:28	18:15:48	435752	616555ec3460f0a519c1cdff	4	1	main_slash	11	main_slash	39	stimuli_distractor_diamondtriangles.svg	stimuli_target_diamondsquares.svg	32	yes	53	1	805	0	0			0	0			1				0	
6.6.1	win	2023-07-07	18:08:28	18:15:48	435752	616555ec3460f0a519c1cdff	4	1	main_slash	11	advance_on_keypress_SLASH	40	stimuli_distractor_diamondtriangles.svg	stimuli_target_diamondsquares.svg	32	yes	57	0	514	0	0			0	0			1				0	
6.6.1	win	2023-07-07	18:08:28	18:15:52	438913	616555ec3460f0a519c1cdff	4	1	main_slash	11	main_slash	41	stimuli_distractor_trianglediamonds.svg	stimuli_distractor_trianglediamonds.svg	33	no	0	1	2000	0	0			0	0			1				0	
6.6.1	win	2023-07-07	18:08:28	18:15:52	438913	616555ec3460f0a519c1cdff	4	1	main_slash	11	advance_on_keypress_SLASH	42	stimuli_distractor_trianglediamonds.svg	stimuli_distractor_trianglediamonds.svg	33	no	57	0	245	0	0			0	0			1				0	
6.6.1	win	2023-07-07	18:08:28	18:15:55	441797	616555ec3460f0a519c1cdff	4	1	main_slash	11	main_slash	43	stimuli_distractor_diamondtriangles.svg	stimuli_distractor_diamondtriangles.svg	39	no	0	1	2000	0	0			0	0			1				0	
6.6.1	win	2023-07-07	18:08:28	18:15:55	441797	616555ec3460f0a519c1cdff	4	1	main_slash	11	advance_on_keypress_SLASH	44	stimuli_distractor_diamondtriangles.svg	stimuli_distractor_diamondtriangles.svg	39	no	57	0	316	0	0			0	0			1				0	
6.6.1	win	2023-07-07	18:08:28	18:15:56	443275	616555ec3460f0a519c1cdff	4	1	main_slash	11	main_slash	45	stimuli_target_trianglerectangles.svg	stimuli_distractor_trianglediamonds.svg	17	yes	53	1	508	0	0			0	0			1				0	
6.6.1	win	2023-07-07	18:08:28	18:15:56	443275	616555ec3460f0a519c1cdff	4	1	main_slash	11	advance_on_keypress_SLASH	46	stimuli_target_trianglerectangles.svg	stimuli_distractor_trianglediamonds.svg	17	yes	57	0	627	0	0			0	0			1				0	
6.6.1	win	2023-07-07	18:08:28	18:15:59	445783	616555ec3460f0a519c1cdff	4	1	main_slash	11	main_slash	47	stimuli_distractor_trianglediamonds.svg	stimuli_distractor_diamondtriangles.svg	35	no	53	0	1253	0	0			0	0			1				0	
6.6.1	win	2023-07-07	18:08:28	18:15:59	445783	616555ec3460f0a519c1cdff	4	1	main_slash	11	advance_on_keypress_SLASH	48	stimuli_distractor_trianglediamonds.svg	stimuli_distractor_diamondtriangles.svg	35	no	57	0	338	0	0			0	0			1				0	
6.6.1	win	2023-07-07	18:08:28	18:16:00	447391	616555ec3460f0a519c1cdff	4	1	main_slash	11	main_slash	49	stimuli_target_rectanglediamonds.svg	stimuli_distractor_diamondtriangles.svg	6	yes	53	1	627	0	0			0	0			1				0	
6.6.1	win	2023-07-07	18:08:28	18:16:00	447391	616555ec3460f0a519c1cdff	4	1	main_slash	11	advance_on_keypress_SLASH	50	stimuli_target_rectanglediamonds.svg	stimuli_distractor_diamondtriangles.svg	6	yes	57	0	426	0	0			0	0			1				0	
6.6.1	win	2023-07-07	18:08:28	18:16:02	449027	616555ec3460f0a519c1cdff	4	1	main_slash	11	main_slash	51	stimuli_distractor_diamondtriangles.svg	stimuli_target_diamondrectangles.svg	31	yes	53	1	579	0	0			0	0			1				0	
6.6.1	win	2023-07-07	18:08:28	18:16:02	449027	616555ec3460f0a519c1cdff	4	1	main_slash	11	advance_on_keypress_SLASH	52	stimuli_distractor_diamondtriangles.svg	stimuli_target_diamondrectangles.svg	31	yes	57	0	472	0	0			0	0			1				0	
6.6.1	win	2023-07-07	18:08:28	18:16:03	450633	616555ec3460f0a519c1cdff	4	1	main_slash	11	main_slash	53	stimuli_target_squarediamonds.svg	stimuli_distractor_trianglediamonds.svg	4	yes	53	1	485	0	0			0	0			1				0	
6.6.1	win	2023-07-07	18:08:28	18:16:03	450633	616555ec3460f0a519c1cdff	4	1	main_slash	11	advance_on_keypress_SLASH	54	stimuli_target_squarediamonds.svg	stimuli_distractor_trianglediamonds.svg	4	yes	57	0	418	0	0			0	0			1				0	
6.6.1	win	2023-07-07	18:08:28	18:16:05	452315	616555ec3460f0a519c1cdff	4	1	main_slash	11	main_slash	55	stimuli_distractor_diamondtriangles.svg	stimuli_target_rectangletriangles.svg	13	yes	53	1	618	0	0			0	0			1				0	
6.6.1	win	2023-07-07	18:08:28	18:16:05	452315	616555ec3460f0a519c1cdff	4	1	main_slash	11	advance_on_keypress_SLASH	56	stimuli_distractor_diamondtriangles.svg	stimuli_target_rectangletriangles.svg	13	yes	57	0	481	0	0			0	0			1				0	
6.6.1	win	2023-07-07	18:08:28	18:16:07	453811	616555ec3460f0a519c1cdff	4	1	main_slash	11	main_slash	57	stimuli_distractor_trianglediamonds.svg	stimuli_target_rectanglediamonds.svg	10	yes	53	1	363	0	0			0	0			1				0	
6.6.1	win	2023-07-07	18:08:28	18:16:07	453811	616555ec3460f0a519c1cdff	4	1	main_slash	11	advance_on_keypress_SLASH	58	stimuli_distractor_trianglediamonds.svg	stimuli_target_rectanglediamonds.svg	10	yes	57	0	611	0	0			0	0			1				0	
6.6.1	win	2023-07-07	18:08:28	18:16:08	455491	616555ec3460f0a519c1cdff	4	1	main_slash	11	main_slash	59	stimuli_distractor_diamondtriangles.svg	stimuli_target_squaretriangles.svg	15	yes	53	1	426	0	0			0	0			1				0	
6.6.1	win	2023-07-07	18:08:28	18:16:08	455491	616555ec3460f0a519c1cdff	4	1	main_slash	11	advance_on_keypress_SLASH	60	stimuli_distractor_diamondtriangles.svg	stimuli_target_squaretriangles.svg	15	yes	57	0	409	0	0			0	0			1				0	
6.6.1	win	2023-07-07	18:08:28	18:16:10	456900	616555ec3460f0a519c1cdff	4	1	main_slash	11	main_slash	61	stimuli_distractor_trianglediamonds.svg	stimuli_target_squaretriangles.svg	11	yes	53	1	353	0	0			0	0			1				0	
6.6.1	win	2023-07-07	18:08:28	18:16:10	456900	616555ec3460f0a519c1cdff	4	1	main_slash	11	advance_on_keypress_SLASH	62	stimuli_distractor_trianglediamonds.svg	stimuli_target_squaretriangles.svg	11	yes	57	0	463	0	0			0	0			1				0	
6.6.1	win	2023-07-07	18:08:28	18:16:11	458396	616555ec3460f0a519c1cdff	4	1	main_slash	11	main_slash	63	stimuli_target_squaretriangles.svg	stimuli_distractor_trianglediamonds.svg	3	yes	53	1	381	0	0			0	0			1				0	
6.6.1	win	2023-07-07	18:08:28	18:16:11	458396	616555ec3460f0a519c1cdff	4	1	main_slash	11	advance_on_keypress_SLASH	64	stimuli_target_squaretriangles.svg	stimuli_distractor_trianglediamonds.svg	3	yes	57	0	255	0	0			0	0			1				0	
6.6.1	win	2023-07-07	18:08:28	18:16:12	459587	616555ec3460f0a519c1cdff	4	1	main_slash	11	main_slash	65	stimuli_target_rectangletriangles.svg	stimuli_distractor_diamondtriangles.svg	5	yes	53	1	290	0	0			0	0			1				0	
6.6.1	win	2023-07-07	18:08:28	18:16:12	459587	616555ec3460f0a519c1cdff	4	1	main_slash	11	advance_on_keypress_SLASH	66	stimuli_target_rectangletriangles.svg	stimuli_distractor_diamondtriangles.svg	5	yes	57	0	206	0	0			0	0			1				0	
6.6.1	win	2023-07-07	18:08:28	18:16:15	462431	616555ec3460f0a519c1cdff	4	1	main_slash	11	main_slash	67	stimuli_distractor_trianglediamonds.svg	stimuli_distractor_trianglediamonds.svg	34	no	0	1	2000	0	0			0	0			1				0	
6.6.1	win	2023-07-07	18:08:28	18:16:15	462431	616555ec3460f0a519c1cdff	4	1	main_slash	11	advance_on_keypress_SLASH	68	stimuli_distractor_trianglediamonds.svg	stimuli_distractor_trianglediamonds.svg	34	no	57	0	257	0	0			0	0			1				0	
6.6.1	win	2023-07-07	18:08:28	18:16:16	463756	616555ec3460f0a519c1cdff	4	1	main_slash	11	main_slash	69	stimuli_distractor_diamondtriangles.svg	stimuli_target_trianglesquares.svg	30	yes	53	1	426	0	0			0	0			1				0	
6.6.1	win	2023-07-07	18:08:28	18:16:16	463756	616555ec3460f0a519c1cdff	4	1	main_slash	11	advance_on_keypress_SLASH	70	stimuli_distractor_diamondtriangles.svg	stimuli_target_trianglesquares.svg	30	yes	57	0	317	0	0			0	0			1				0	
6.6.1	win	2023-07-07	18:08:28	18:16:18	465095	616555ec3460f0a519c1cdff	4	1	main_slash	11	main_slash	71	stimuli_distractor_trianglediamonds.svg	stimuli_target_trianglerectangles.svg	25	yes	53	1	381	0	0			0	0			1				0	
6.6.1	win	2023-07-07	18:08:28	18:16:18	465095	616555ec3460f0a519c1cdff	4	1	main_slash	11	advance_on_keypress_SLASH	72	stimuli_distractor_trianglediamonds.svg	stimuli_target_trianglerectangles.svg	25	yes	57	0	227	0	0			0	0			1				0	
6.6.1	win	2023-07-07	18:08:28	18:16:19	466206	616555ec3460f0a519c1cdff	4	1	main_slash	11	main_slash	73	stimuli_distractor_trianglediamonds.svg	stimuli_target_diamondsquares.svg	28	yes	53	1	242	0	0			0	0			1				0	
6.6.1	win	2023-07-07	18:08:28	18:16:19	466206	616555ec3460f0a519c1cdff	4	1	main_slash	11	advance_on_keypress_SLASH	74	stimuli_distractor_trianglediamonds.svg	stimuli_target_diamondsquares.svg	28	yes	57	0	146	0	0			0	0			1				0	
6.6.1	win	2023-07-07	18:08:28	18:16:20	467306	616555ec3460f0a519c1cdff	4	1	main_slash	11	main_slash	75	stimuli_distractor_diamondtriangles.svg	stimuli_target_squarediamonds.svg	16	yes	53	1	308	0	0			0	0			1				0	
6.6.1	win	2023-07-07	18:08:28	18:16:20	467306	616555ec3460f0a519c1cdff	4	1	main_slash	11	advance_on_keypress_SLASH	76	stimuli_distractor_diamondtriangles.svg	stimuli_target_squarediamonds.svg	16	yes	57	0	160	0	0			0	0			1				0	
6.6.1	win	2023-07-07	18:08:28	18:16:21	468365	616555ec3460f0a519c1cdff	4	1	main_slash	11	main_slash	77	stimuli_target_diamondrectangles.svg	stimuli_distractor_diamondtriangles.svg	23	yes	53	1	268	0	0			0	0			1				0	
6.6.1	win	2023-07-07	18:08:28	18:16:21	468365	616555ec3460f0a519c1cdff	4	1	main_slash	11	advance_on_keypress_SLASH	78	stimuli_target_diamondrectangles.svg	stimuli_distractor_diamondtriangles.svg	23	yes	57	0	370	0	0			0	0			1				0	
6.6.1	win	2023-07-07	18:08:28	18:16:22	469673	616555ec3460f0a519c1cdff	4	1	main_slash	11	main_slash	79	stimuli_distractor_trianglediamonds.svg	stimuli_target_rectangletriangles.svg	9	yes	53	1	293	0	0			0	0			1				0	
6.6.1	win	2023-07-07	18:08:28	18:16:22	469673	616555ec3460f0a519c1cdff	4	1	main_slash	11	advance_on_keypress_SLASH	80	stimuli_distractor_trianglediamonds.svg	stimuli_target_rectangletriangles.svg	9	yes	57	0	192	0	0			0	0			1				0	
6.6.1	win	2023-07-07	18:08:28	18:16:24	470780	616555ec3460f0a519c1cdff	4	1	main_slash	11	main_slash	81	stimuli_distractor_diamondtriangles.svg	stimuli_target_rectanglediamonds.svg	14	yes	53	1	283	0	0			0	0			1				0	
6.6.1	win	2023-07-07	18:08:28	18:16:24	470780	616555ec3460f0a519c1cdff	4	1	main_slash	11	advance_on_keypress_SLASH	82	stimuli_distractor_diamondtriangles.svg	stimuli_target_rectanglediamonds.svg	14	yes	57	0	153	0	0			0	0			1				0	
6.6.1	win	2023-07-07	18:08:28	18:16:25	471873	616555ec3460f0a519c1cdff	4	1	main_slash	11	main_slash	83	stimuli_distractor_diamondtriangles.svg	stimuli_distractor_diamondtriangles.svg	39	no	53	0	292	0	0			0	0			1				0	
6.6.1	win	2023-07-07	18:08:28	18:16:25	471873	616555ec3460f0a519c1cdff	4	1	main_slash	11	advance_on_keypress_SLASH	84	stimuli_distractor_diamondtriangles.svg	stimuli_distractor_diamondtriangles.svg	39	no	57	0	547	0	0			0	0			1				0	
6.6.1	win	2023-07-07	18:08:28	18:16:26	473472	616555ec3460f0a519c1cdff	4	1	main_slash	11	main_slash	85	stimuli_distractor_trianglediamonds.svg	stimuli_target_diamondrectangles.svg	27	yes	53	1	407	0	0			0	0			1				0	
6.6.1	win	2023-07-07	18:08:28	18:16:26	473472	616555ec3460f0a519c1cdff	4	1	main_slash	11	advance_on_keypress_SLASH	86	stimuli_distractor_trianglediamonds.svg	stimuli_target_diamondrectangles.svg	27	yes	57	0	267	0	0			0	0			1				0	
6.6.1	win	2023-07-07	18:08:28	18:16:27	474754	616555ec3460f0a519c1cdff	4	1	main_slash	11	main_slash	87	stimuli_distractor_diamondtriangles.svg	stimuli_target_trianglerectangles.svg	29	yes	53	1	371	0	0			0	0			1				0	
6.6.1	win	2023-07-07	18:08:28	18:16:27	474754	616555ec3460f0a519c1cdff	4	1	main_slash	11	advance_on_keypress_SLASH	88	stimuli_distractor_diamondtriangles.svg	stimuli_target_trianglerectangles.svg	29	yes	57	0	184	0	0			0	0			1				0	
6.6.1	win	2023-07-07	18:08:28	18:16:29	475985	616555ec3460f0a519c1cdff	4	1	main_slash	11	main_slash	89	stimuli_target_diamondrectangles.svg	stimuli_distractor_trianglediamonds.svg	19	yes	53	1	405	0	0			0	0			1				0	
6.6.1	win	2023-07-07	18:08:28	18:16:29	475985	616555ec3460f0a519c1cdff	4	1	main_slash	11	advance_on_keypress_SLASH	90	stimuli_target_diamondrectangles.svg	stimuli_distractor_trianglediamonds.svg	19	yes	57	0	172	0	0			0	0			1				0	
6.6.1	win	2023-07-07	18:08:28	18:16:30	477101	616555ec3460f0a519c1cdff	4	1	main_slash	11	main_slash	91	stimuli_target_trianglerectangles.svg	stimuli_distractor_trianglediamonds.svg	17	yes	53	1	303	0	0			0	0			1				0	
6.6.1	win	2023-07-07	18:08:28	18:16:30	477101	616555ec3460f0a519c1cdff	4	1	main_slash	11	advance_on_keypress_SLASH	92	stimuli_target_trianglerectangles.svg	stimuli_distractor_trianglediamonds.svg	17	yes	57	0	156	0	0			0	0			1				0	
6.6.1	win	2023-07-07	18:08:28	18:16:31	478214	616555ec3460f0a519c1cdff	4	1	main_slash	11	main_slash	93	stimuli_distractor_trianglediamonds.svg	stimuli_target_squarediamonds.svg	12	yes	53	1	316	0	0			0	0			1				0	
6.6.1	win	2023-07-07	18:08:28	18:16:31	478214	616555ec3460f0a519c1cdff	4	1	main_slash	11	advance_on_keypress_SLASH	94	stimuli_distractor_trianglediamonds.svg	stimuli_target_squarediamonds.svg	12	yes	57	0	169	0	0			0	0			1				0	
6.6.1	win	2023-07-07	18:08:28	18:16:33	479862	616555ec3460f0a519c1cdff	4	1	main_slash	11	main_slash	95	stimuli_distractor_trianglediamonds.svg	stimuli_distractor_trianglediamonds.svg	33	no	53	0	831	0	0			0	0			1				0	
6.6.1	win	2023-07-07	18:08:28	18:16:33	479862	616555ec3460f0a519c1cdff	4	1	main_slash	11	advance_on_keypress_SLASH	96	stimuli_distractor_trianglediamonds.svg	stimuli_distractor_trianglediamonds.svg	33	no	57	0	258	0	0			0	0			1				0	
6.6.1	win	2023-07-07	18:08:28	18:16:34	481227	616555ec3460f0a519c1cdff	4	1	main_slash	11	main_slash	97	stimuli_distractor_trianglediamonds.svg	stimuli_target_trianglerectangles.svg	25	yes	53	1	462	0	0			0	0			1				0	
6.6.1	win	2023-07-07	18:08:28	18:16:34	481227	616555ec3460f0a519c1cdff	4	1	main_slash	11	advance_on_keypress_SLASH	98	stimuli_distractor_trianglediamonds.svg	stimuli_target_trianglerectangles.svg	25	yes	57	0	151	0	0			0	0			1				0	
6.6.1	win	2023-07-07	18:08:28	18:16:35	482401	616555ec3460f0a519c1cdff	4	1	main_slash	11	main_slash	99	stimuli_target_rectangletriangles.svg	stimuli_distractor_trianglediamonds.svg	1	yes	53	1	386	0	0			0	0			1				0	
6.6.1	win	2023-07-07	18:08:28	18:16:35	482401	616555ec3460f0a519c1cdff	4	1	main_slash	11	advance_on_keypress_SLASH	100	stimuli_target_rectangletriangles.svg	stimuli_distractor_trianglediamonds.svg	1	yes	57	0	118	0	0			0	0			1				0	
6.6.1	win	2023-07-07	18:08:28	18:16:36	483510	616555ec3460f0a519c1cdff	4	1	main_slash	11	main_slash	101	stimuli_target_squarediamonds.svg	stimuli_distractor_trianglediamonds.svg	4	yes	53	1	346	0	0			0	0			1				0	
6.6.1	win	2023-07-07	18:08:28	18:16:36	483510	616555ec3460f0a519c1cdff	4	1	main_slash	11	advance_on_keypress_SLASH	102	stimuli_target_squarediamonds.svg	stimuli_distractor_trianglediamonds.svg	4	yes	57	0	87	0	0			0	0			1				0	
6.6.1	win	2023-07-07	18:08:28	18:16:37	484610	616555ec3460f0a519c1cdff	4	1	main_slash	11	main_slash	103	stimuli_target_trianglerectangles.svg	stimuli_distractor_diamondtriangles.svg	21	yes	53	1	363	0	0			0	0			1				0	
6.6.1	win	2023-07-07	18:08:28	18:16:37	484610	616555ec3460f0a519c1cdff	4	1	main_slash	11	advance_on_keypress_SLASH	104	stimuli_target_trianglerectangles.svg	stimuli_distractor_diamondtriangles.svg	21	yes	57	0	88	0	0			0	0			1				0	
6.6.1	win	2023-07-07	18:08:28	18:16:38	485640	616555ec3460f0a519c1cdff	4	1	main_slash	11	main_slash	105	stimuli_distractor_diamondtriangles.svg	stimuli_target_squarediamonds.svg	16	yes	53	1	292	0	0			0	0			1				0	
6.6.1	win	2023-07-07	18:08:28	18:16:38	485640	616555ec3460f0a519c1cdff	4	1	main_slash	11	advance_on_keypress_SLASH	106	stimuli_distractor_diamondtriangles.svg	stimuli_target_squarediamonds.svg	16	yes	57	0	133	0	0			0	0			1				0	
6.6.1	win	2023-07-07	18:08:28	18:16:39	486691	616555ec3460f0a519c1cdff	4	1	main_slash	11	main_slash	107	stimuli_distractor_trianglediamonds.svg	stimuli_target_diamondsquares.svg	28	yes	53	1	276	0	0			0	0			1				0	
6.6.1	win	2023-07-07	18:08:28	18:16:39	486691	616555ec3460f0a519c1cdff	4	1	main_slash	11	advance_on_keypress_SLASH	108	stimuli_distractor_trianglediamonds.svg	stimuli_target_diamondsquares.svg	28	yes	57	0	89	0	0			0	0			1				0	
6.6.1	win	2023-07-07	18:08:28	18:16:40	487708	616555ec3460f0a519c1cdff	4	1	main_slash	11	main_slash	109	stimuli_distractor_diamondtriangles.svg	stimuli_target_diamondsquares.svg	32	yes	53	1	294	0	0			0	0			1				0	
6.6.1	win	2023-07-07	18:08:28	18:16:40	487708	616555ec3460f0a519c1cdff	4	1	main_slash	11	advance_on_keypress_SLASH	110	stimuli_distractor_diamondtriangles.svg	stimuli_target_diamondsquares.svg	32	yes	57	0	118	0	0			0	0			1				0	
6.6.1	win	2023-07-07	18:08:28	18:16:41	488734	616555ec3460f0a519c1cdff	4	1	main_slash	11	main_slash	111	stimuli_target_squaretriangles.svg	stimuli_distractor_trianglediamonds.svg	3	yes	53	1	269	0	0			0	0			1				0	
6.6.1	win	2023-07-07	18:08:28	18:16:41	488734	616555ec3460f0a519c1cdff	4	1	main_slash	11	advance_on_keypress_SLASH	112	stimuli_target_squaretriangles.svg	stimuli_distractor_trianglediamonds.svg	3	yes	57	0	141	0	0			0	0			1				0	
6.6.1	win	2023-07-07	18:08:28	18:16:43	489770	616555ec3460f0a519c1cdff	4	1	main_slash	11	main_slash	113	stimuli_target_rectanglediamonds.svg	stimuli_distractor_trianglediamonds.svg	2	yes	53	1	256	0	0			0	0			1				0	
6.6.1	win	2023-07-07	18:08:28	18:16:43	489770	616555ec3460f0a519c1cdff	4	1	main_slash	11	advance_on_keypress_SLASH	114	stimuli_target_rectanglediamonds.svg	stimuli_distractor_trianglediamonds.svg	2	yes	57	0	80	0	0			0	0			1				0	
6.6.1	win	2023-07-07	18:08:28	18:16:44	490782	616555ec3460f0a519c1cdff	4	1	main_slash	11	main_slash	115	stimuli_target_rectanglediamonds.svg	stimuli_distractor_diamondtriangles.svg	6	yes	53	1	284	0	0			0	0			1				0	
6.6.1	win	2023-07-07	18:08:28	18:16:44	490782	616555ec3460f0a519c1cdff	4	1	main_slash	11	advance_on_keypress_SLASH	116	stimuli_target_rectanglediamonds.svg	stimuli_distractor_diamondtriangles.svg	6	yes	57	0	45	0	0			0	0			1				0	
6.6.1	win	2023-07-07	18:08:28	18:16:44	491741	616555ec3460f0a519c1cdff	4	1	main_slash	11	main_slash	117	stimuli_target_rectangletriangles.svg	stimuli_distractor_diamondtriangles.svg	5	yes	53	1	260	0	0			0	0			1				0	
6.6.1	win	2023-07-07	18:08:28	18:16:44	491741	616555ec3460f0a519c1cdff	4	1	main_slash	11	advance_on_keypress_SLASH	118	stimuli_target_rectangletriangles.svg	stimuli_distractor_diamondtriangles.svg	5	yes	57	0	116	0	0			0	0			1				0	
6.6.1	win	2023-07-07	18:08:28	18:16:46	492841	616555ec3460f0a519c1cdff	4	1	main_slash	11	main_slash	119	stimuli_distractor_diamondtriangles.svg	stimuli_target_rectangletriangles.svg	13	yes	53	1	344	0	0			0	0			1				0	
6.6.1	win	2023-07-07	18:08:28	18:16:46	492841	616555ec3460f0a519c1cdff	4	1	main_slash	11	advance_on_keypress_SLASH	120	stimuli_distractor_diamondtriangles.svg	stimuli_target_rectangletriangles.svg	13	yes	57	0	164	0	0			0	0			1				0	
6.6.1	win	2023-07-07	18:08:28	18:16:47	493893	616555ec3460f0a519c1cdff	4	1	main_slash	11	main_slash	121	stimuli_target_trianglesquares.svg	stimuli_distractor_diamondtriangles.svg	22	yes	53	1	244	0	0			0	0			1				0	
6.6.1	win	2023-07-07	18:08:28	18:16:47	493893	616555ec3460f0a519c1cdff	4	1	main_slash	11	advance_on_keypress_SLASH	122	stimuli_target_trianglesquares.svg	stimuli_distractor_diamondtriangles.svg	22	yes	57	0	103	0	0			0	0			1				0	
6.6.1	win	2023-07-07	18:08:28	18:16:48	494914	616555ec3460f0a519c1cdff	4	1	main_slash	11	main_slash	123	stimuli_distractor_trianglediamonds.svg	stimuli_distractor_trianglediamonds.svg	34	no	53	0	282	0	0			0	0			1				0	
6.6.1	win	2023-07-07	18:08:28	18:16:48	494914	616555ec3460f0a519c1cdff	4	1	main_slash	11	advance_on_keypress_SLASH	124	stimuli_distractor_trianglediamonds.svg	stimuli_distractor_trianglediamonds.svg	34	no	57	0	137	0	0			0	0			1				0	
6.6.1	win	2023-07-07	18:08:28	18:16:49	496173	616555ec3460f0a519c1cdff	4	1	main_slash	11	main_slash	125	stimuli_target_trianglesquares.svg	stimuli_distractor_trianglediamonds.svg	18	yes	53	1	475	0	0			0	0			1				0	
6.6.1	win	2023-07-07	18:08:28	18:16:49	496173	616555ec3460f0a519c1cdff	4	1	main_slash	11	advance_on_keypress_SLASH	126	stimuli_target_trianglesquares.svg	stimuli_distractor_trianglediamonds.svg	18	yes	57	0	267	0	0			0	0			1				0	
6.6.1	win	2023-07-07	18:08:28	18:16:50	497677	616555ec3460f0a519c1cdff	4	1	main_slash	11	main_slash	127	stimuli_distractor_diamondtriangles.svg	stimuli_distractor_trianglediamonds.svg	37	no	53	0	596	0	0			0	0			1				0	
6.6.1	win	2023-07-07	18:08:28	18:16:50	497677	616555ec3460f0a519c1cdff	4	1	main_slash	11	advance_on_keypress_SLASH	128	stimuli_distractor_diamondtriangles.svg	stimuli_distractor_trianglediamonds.svg	37	no	57	0	751	0	0			0	0			1				0	
6.6.1	win	2023-07-07	18:08:28	18:16:52	499466	616555ec3460f0a519c1cdff	4	1	main_slash	11	main_slash	129	stimuli_distractor_trianglediamonds.svg	stimuli_target_squaretriangles.svg	11	yes	53	1	401	0	0			0	0			1				0	
6.6.1	win	2023-07-07	18:08:28	18:16:52	499466	616555ec3460f0a519c1cdff	4	1	main_slash	11	advance_on_keypress_SLASH	130	stimuli_distractor_trianglediamonds.svg	stimuli_target_squaretriangles.svg	11	yes	57	0	216	0	0			0	0			1				0	
6.6.1	win	2023-07-07	18:08:28	18:16:55	502331	616555ec3460f0a519c1cdff	4	1	main_slash	11	main_slash	131	stimuli_target_squarediamonds.svg	stimuli_distractor_diamondtriangles.svg	8	yes	0	0	2000	0	0			0	0			1				0	
6.6.1	win	2023-07-07	18:08:28	18:16:55	502331	616555ec3460f0a519c1cdff	4	1	main_slash	11	advance_on_keypress_SLASH	132	stimuli_target_squarediamonds.svg	stimuli_distractor_diamondtriangles.svg	8	yes	57	0	235	0	0			0	0			1				0	
6.6.1	win	2023-07-07	18:08:28	18:16:56	503563	616555ec3460f0a519c1cdff	4	1	main_slash	11	main_slash	133	stimuli_distractor_diamondtriangles.svg	stimuli_target_squaretriangles.svg	15	yes	53	1	349	0	0			0	0			1				0	
6.6.1	win	2023-07-07	18:08:28	18:16:56	503563	616555ec3460f0a519c1cdff	4	1	main_slash	11	advance_on_keypress_SLASH	134	stimuli_distractor_diamondtriangles.svg	stimuli_target_squaretriangles.svg	15	yes	57	0	150	0	0			0	0			1				0	
6.6.1	win	2023-07-07	18:08:28	18:16:57	504764	616555ec3460f0a519c1cdff	4	1	main_slash	11	main_slash	135	stimuli_target_squaretriangles.svg	stimuli_distractor_diamondtriangles.svg	7	yes	53	1	399	0	0			0	0			1				0	
6.6.1	win	2023-07-07	18:08:28	18:16:57	504764	616555ec3460f0a519c1cdff	4	1	main_slash	11	advance_on_keypress_SLASH	136	stimuli_target_squaretriangles.svg	stimuli_distractor_diamondtriangles.svg	7	yes	57	0	0	0	0			0	0			1				0	
6.6.1	win	2023-07-07	18:08:28	18:16:59	505821	616555ec3460f0a519c1cdff	4	1	main_slash	11	main_slash	137	stimuli_distractor_trianglediamonds.svg	stimuli_target_rectangletriangles.svg	9	yes	53	1	407	0	0			0	0			1				0	
6.6.1	win	2023-07-07	18:08:28	18:16:59	505821	616555ec3460f0a519c1cdff	4	1	main_slash	11	advance_on_keypress_SLASH	138	stimuli_distractor_trianglediamonds.svg	stimuli_target_rectangletriangles.svg	9	yes	57	0	208	0	0			0	0			1				0	
6.6.1	win	2023-07-07	18:08:28	18:17:00	506902	616555ec3460f0a519c1cdff	4	1	main_slash	11	main_slash	139	stimuli_distractor_diamondtriangles.svg	stimuli_distractor_diamondtriangles.svg	40	no	53	0	236	0	0			0	0			1				0	
6.6.1	win	2023-07-07	18:08:28	18:17:00	506902	616555ec3460f0a519c1cdff	4	1	main_slash	11	advance_on_keypress_SLASH	140	stimuli_distractor_diamondtriangles.svg	stimuli_distractor_diamondtriangles.svg	40	no	57	0	1023	0	0			0	0			1				0	
6.6.1	win	2023-07-07	18:08:28	18:17:02	509055	616555ec3460f0a519c1cdff	4	1	main_slash	11	main_slash	141	stimuli_distractor_diamondtriangles.svg	stimuli_target_diamondrectangles.svg	31	yes	53	1	489	0	0			0	0			1				0	
6.6.1	win	2023-07-07	18:08:28	18:17:02	509055	616555ec3460f0a519c1cdff	4	1	main_slash	11	advance_on_keypress_SLASH	142	stimuli_distractor_diamondtriangles.svg	stimuli_target_diamondrectangles.svg	31	yes	57	0	283	0	0			0	0			1				0	
6.6.1	win	2023-07-07	18:08:28	18:17:03	510425	616555ec3460f0a519c1cdff	4	1	main_slash	11	main_slash	143	stimuli_distractor_trianglediamonds.svg	stimuli_target_rectanglediamonds.svg	10	yes	53	1	443	0	0			0	0			1				0	
6.6.1	win	2023-07-07	18:08:28	18:17:03	510425	616555ec3460f0a519c1cdff	4	1	main_slash	11	advance_on_keypress_SLASH	144	stimuli_distractor_trianglediamonds.svg	stimuli_target_rectanglediamonds.svg	10	yes	57	0	268	0	0			0	0			1				0	
6.6.1	win	2023-07-07	18:08:28	18:17:05	511793	616555ec3460f0a519c1cdff	4	1	main_slash	11	main_slash	145	stimuli_distractor_trianglediamonds.svg	stimuli_target_trianglesquares.svg	26	yes	53	1	462	0	0			0	0			1				0	
6.6.1	win	2023-07-07	18:08:28	18:17:05	511793	616555ec3460f0a519c1cdff	4	1	main_slash	11	advance_on_keypress_SLASH	146	stimuli_distractor_trianglediamonds.svg	stimuli_target_trianglesquares.svg	26	yes	57	0	228	0	0			0	0			1				0	
6.6.1	win	2023-07-07	18:08:28	18:17:07	514648	616555ec3460f0a519c1cdff	4	1	main_slash	11	main_slash	147	stimuli_distractor_trianglediamonds.svg	stimuli_distractor_diamondtriangles.svg	36	no	0	1	2000	0	0			0	0			1				0	
6.6.1	win	2023-07-07	18:08:28	18:17:07	514648	616555ec3460f0a519c1cdff	4	1	main_slash	11	advance_on_keypress_SLASH	148	stimuli_distractor_trianglediamonds.svg	stimuli_distractor_diamondtriangles.svg	36	no	57	0	247	0	0			0	0			1				0	
6.6.1	win	2023-07-07	18:08:28	18:17:09	516005	616555ec3460f0a519c1cdff	4	1	main_slash	11	main_slash	149	stimuli_target_diamondsquares.svg	stimuli_distractor_trianglediamonds.svg	20	yes	53	1	457	0	0			0	0			1				0	
6.6.1	win	2023-07-07	18:08:28	18:17:09	516005	616555ec3460f0a519c1cdff	4	1	main_slash	11	advance_on_keypress_SLASH	150	stimuli_target_diamondsquares.svg	stimuli_distractor_trianglediamonds.svg	20	yes	57	0	478	0	0			0	0			1				0	
6.6.1	win	2023-07-07	18:08:28	18:17:10	517458	616555ec3460f0a519c1cdff	4	1	main_slash	11	main_slash	151	stimuli_target_diamondrectangles.svg	stimuli_distractor_diamondtriangles.svg	23	yes	53	1	326	0	0			0	0			1				0	
6.6.1	win	2023-07-07	18:08:28	18:17:10	517458	616555ec3460f0a519c1cdff	4	1	main_slash	11	advance_on_keypress_SLASH	152	stimuli_target_diamondrectangles.svg	stimuli_distractor_diamondtriangles.svg	23	yes	57	0	151	0	0			0	0			1				0	
6.6.1	win	2023-07-07	18:08:28	18:17:13	520249	616555ec3460f0a519c1cdff	4	1	main_slash	11	main_slash	153	stimuli_distractor_diamondtriangles.svg	stimuli_distractor_trianglediamonds.svg	38	no	0	1	2000	0	0			0	0			1				0	
6.6.1	win	2023-07-07	18:08:28	18:17:13	520249	616555ec3460f0a519c1cdff	4	1	main_slash	11	advance_on_keypress_SLASH	154	stimuli_distractor_diamondtriangles.svg	stimuli_distractor_trianglediamonds.svg	38	no	57	0	788	0	0			0	0			1				0	
6.6.1	win	2023-07-07	18:08:28	18:17:16	523682	616555ec3460f0a519c1cdff	4	1	main_slash	11	main_slash	155	stimuli_distractor_trianglediamonds.svg	stimuli_distractor_diamondtriangles.svg	35	no	0	1	2000	0	0			0	0			1				0	
6.6.1	win	2023-07-07	18:08:28	18:17:16	523682	616555ec3460f0a519c1cdff	4	1	main_slash	11	advance_on_keypress_SLASH	156	stimuli_distractor_trianglediamonds.svg	stimuli_distractor_diamondtriangles.svg	35	no	57	0	229	0	0			0	0			1				0	
6.6.1	win	2023-07-07	18:08:28	18:17:18	524961	616555ec3460f0a519c1cdff	4	1	main_slash	11	main_slash	157	stimuli_distractor_diamondtriangles.svg	stimuli_target_trianglesquares.svg	30	yes	53	1	395	0	0			0	0			1				0	
6.6.1	win	2023-07-07	18:08:28	18:17:18	524961	616555ec3460f0a519c1cdff	4	1	main_slash	11	advance_on_keypress_SLASH	158	stimuli_distractor_diamondtriangles.svg	stimuli_target_trianglesquares.svg	30	yes	57	0	119	0	0			0	0			1				0	
6.6.1	win	2023-07-07	18:08:28	18:17:19	526164	616555ec3460f0a519c1cdff	4	1	main_slash	11	main_slash	159	stimuli_target_diamondsquares.svg	stimuli_distractor_diamondtriangles.svg	24	yes	53	1	448	0	0			0	0			1				0	
6.6.1	win	2023-07-07	18:08:28	18:17:19	526164	616555ec3460f0a519c1cdff	4	1	main_slash	11	advance_on_keypress_SLASH	160	stimuli_target_diamondsquares.svg	stimuli_distractor_diamondtriangles.svg	24	yes	57	0	183	0	0			0	0			1				0	
6.6.1	win	2023-07-07	18:08:28	18:17:19	526164	616555ec3460f0a519c1cdff	4	1	headphonecheck_calibration	14	headphonecheck_calibrationIntro	1	stimuli_target_diamondsquares.svg	stimuli_distractor_diamondtriangles.svg	24	yes	calibrationButton	0	2294	0	0			0	0			1				0	
6.6.1	win	2023-07-07	18:08:28	18:17:19	526164	616555ec3460f0a519c1cdff	4	1	headphonecheck_testphase	15	test_collectResponse	3	stimuli_target_diamondsquares.svg	stimuli_distractor_diamondtriangles.svg	24	yes	first	0	4429	1	1	antiphase_hc_iso.wav	2	0	0			1				0	
6.6.1	win	2023-07-07	18:08:28	18:17:19	526164	616555ec3460f0a519c1cdff	4	1	headphonecheck_testphase	15	test_collectResponse	6	stimuli_target_diamondsquares.svg	stimuli_distractor_diamondtriangles.svg	24	yes	third	0	1023	2	4	antiphase_hc_sio.wav	1	0	0			1				0	
6.6.1	win	2023-07-07	18:08:28	18:17:19	526164	616555ec3460f0a519c1cdff	4	1	headphonecheck_testphase	15	test_collectResponse	9	stimuli_target_diamondsquares.svg	stimuli_distractor_diamondtriangles.svg	24	yes	second	0	531	3	2	antiphase_hc_ios.wav	3	0	0			1				0	
6.6.1	win	2023-07-07	18:08:28	18:17:19	526164	616555ec3460f0a519c1cdff	4	1	headphonecheck_testphase	15	test_collectResponse	12	stimuli_target_diamondsquares.svg	stimuli_distractor_diamondtriangles.svg	24	yes	second	1	473	4	5	antiphase_hc_osi.wav	2	0	0			1				0	
6.6.1	win	2023-07-07	18:08:28	18:17:19	526164	616555ec3460f0a519c1cdff	4	1	headphonecheck_testphase	15	test_collectResponse	15	stimuli_target_diamondsquares.svg	stimuli_distractor_diamondtriangles.svg	24	yes	first	1	649	5	3	antiphase_hc_soi.wav	1	0	0			1				0	
6.6.1	win	2023-07-07	18:08:28	18:17:19	526164	616555ec3460f0a519c1cdff	4	1	headphonecheck_testphase	15	test_collectResponse	18	stimuli_target_diamondsquares.svg	stimuli_distractor_diamondtriangles.svg	24	yes	first	0	1284	6	6	antiphase_hc_ois.wav	3	0	0			1				0	
6.6.1	win	2023-07-07	18:08:28	18:17:19	526164	616555ec3460f0a519c1cdff	4	1	stereocheck_calibration	17	stereocheck_calibrationIntro	1	stimuli_target_diamondsquares.svg	stimuli_distractor_diamondtriangles.svg	24	yes	stereocheck_calibrationButton	0	3522	6	6	antiphase_hc_ois.wav	3	0	0			1				0	
6.6.1	win	2023-07-07	18:08:28	18:17:19	526164	616555ec3460f0a519c1cdff	4	1	stereocheck_testphase	18	stereocheck_test_collectResponse	3	stimuli_target_diamondsquares.svg	stimuli_distractor_diamondtriangles.svg	24	yes	stereocheck_left	1	1112	6	6	antiphase_hc_ois.wav	3	1	2	noise_calib_stim_LEFT.wav	1	1				0	
6.6.1	win	2023-07-07	18:08:28	18:17:19	526164	616555ec3460f0a519c1cdff	4	1	stereocheck_testphase	18	stereocheck_test_collectResponse	6	stimuli_target_diamondsquares.svg	stimuli_distractor_diamondtriangles.svg	24	yes	stereocheck_right	1	433	6	6	antiphase_hc_ois.wav	3	2	5	noise_calib_stim_RIGHT.wav	2	1				0	
6.6.1	win	2023-07-07	18:08:28	18:17:19	526164	616555ec3460f0a519c1cdff	4	1	stereocheck_testphase	18	stereocheck_test_collectResponse	9	stimuli_target_diamondsquares.svg	stimuli_distractor_diamondtriangles.svg	24	yes	stereocheck_right	1	282	6	6	antiphase_hc_ois.wav	3	3	4	noise_calib_stim_RIGHT.wav	2	1				0	
6.6.1	win	2023-07-07	18:08:28	18:17:19	526164	616555ec3460f0a519c1cdff	4	1	stereocheck_testphase	18	stereocheck_test_collectResponse	12	stimuli_target_diamondsquares.svg	stimuli_distractor_diamondtriangles.svg	24	yes	stereocheck_right	1	325	6	6	antiphase_hc_ois.wav	3	4	6	noise_calib_stim_RIGHT.wav	2	1				0	
6.6.1	win	2023-07-07	18:08:28	18:17:19	526164	616555ec3460f0a519c1cdff	4	1	stereocheck_testphase	18	stereocheck_test_collectResponse	15	stimuli_target_diamondsquares.svg	stimuli_distractor_diamondtriangles.svg	24	yes	stereocheck_left	1	330	6	6	antiphase_hc_ois.wav	3	5	3	noise_calib_stim_LEFT.wav	1	1				0	
6.6.1	win	2023-07-07	18:08:28	18:17:19	526164	616555ec3460f0a519c1cdff	4	1	stereocheck_testphase	18	stereocheck_test_collectResponse	18	stimuli_target_diamondsquares.svg	stimuli_distractor_diamondtriangles.svg	24	yes	stereocheck_left	1	325	6	6	antiphase_hc_ois.wav	3	6	1	noise_calib_stim_LEFT.wav	1	1				0	
6.6.1	win	2023-07-07	18:08:28	18:17:19	526164	616555ec3460f0a519c1cdff	4	1	DL_practice	21	DL_practice	2	stimuli_target_diamondsquares.svg	stimuli_distractor_diamondtriangles.svg	24	yes	ga	1	1092	6	6	antiphase_hc_ois.wav	3	6	1	noise_calib_stim_LEFT.wav	1	18	blb_dichoticlistening_ga-ta.mp3	ga	ta	1	left
6.6.1	win	2023-07-07	18:08:28	18:17:19	526164	616555ec3460f0a519c1cdff	4	1	DL_practice	21	DL_practice	3	stimuli_target_diamondsquares.svg	stimuli_distractor_diamondtriangles.svg	24	yes	ka	1	1140	6	6	antiphase_hc_ois.wav	3	6	1	noise_calib_stim_LEFT.wav	1	23	blb_dichoticlistening_ka-pa.mp3	ka	pa	1	left
6.6.1	win	2023-07-07	18:08:28	18:17:19	526164	616555ec3460f0a519c1cdff	4	1	DL_practice	21	DL_practice	4	stimuli_target_diamondsquares.svg	stimuli_distractor_diamondtriangles.svg	24	yes	da	1	1020	6	6	antiphase_hc_ois.wav	3	6	1	noise_calib_stim_LEFT.wav	1	8	blb_dichoticlistening_da-da.mp3	da	da	0	left
6.6.1	win	2023-07-07	18:08:28	18:17:19	526164	616555ec3460f0a519c1cdff	4	1	DL_practice	21	DL_practice	5	stimuli_target_diamondsquares.svg	stimuli_distractor_diamondtriangles.svg	24	yes	ba	1	1675	6	6	antiphase_hc_ois.wav	3	6	1	noise_calib_stim_LEFT.wav	1	1	blb_dichoticlistening_ba-ba.mp3	ba	ba	0	left
6.6.1	win	2023-07-07	18:08:28	18:17:19	526164	616555ec3460f0a519c1cdff	4	1	DL_practice	21	DL_practice	6	stimuli_target_diamondsquares.svg	stimuli_distractor_diamondtriangles.svg	24	yes	ba	1	932	6	6	antiphase_hc_ois.wav	3	6	1	noise_calib_stim_LEFT.wav	1	7	blb_dichoticlistening_da-ba.mp3	da	ba	1	right
6.6.1	win	2023-07-07	18:08:28	18:17:19	526164	616555ec3460f0a519c1cdff	4	1	DL_practice	21	DL_practice	7	stimuli_target_diamondsquares.svg	stimuli_distractor_diamondtriangles.svg	24	yes	ta	1	1100	6	6	antiphase_hc_ois.wav	3	6	1	noise_calib_stim_LEFT.wav	1	36	blb_dichoticlistening_ta-ta.mp3	ta	ta	0	left
6.6.1	win	2023-07-07	18:08:28	18:17:19	526164	616555ec3460f0a519c1cdff	4	1	DL_practice	21	DL_practice	8	stimuli_target_diamondsquares.svg	stimuli_distractor_diamondtriangles.svg	24	yes	ga	1	692	6	6	antiphase_hc_ois.wav	3	6	1	noise_calib_stim_LEFT.wav	1	15	blb_dichoticlistening_ga-ga.mp3	ga	ga	0	left
6.6.1	win	2023-07-07	18:08:28	18:17:19	526164	616555ec3460f0a519c1cdff	4	1	DL_practice	21	DL_practice	9	stimuli_target_diamondsquares.svg	stimuli_distractor_diamondtriangles.svg	24	yes	ka	1	809	6	6	antiphase_hc_ois.wav	3	6	1	noise_calib_stim_LEFT.wav	1	22	blb_dichoticlistening_ka-ka.mp3	ka	ka	0	left
6.6.1	win	2023-07-07	18:08:28	18:17:19	526164	616555ec3460f0a519c1cdff	4	1	DL_practice	21	DL_practice	10	stimuli_target_diamondsquares.svg	stimuli_distractor_diamondtriangles.svg	24	yes	pa	1	681	6	6	antiphase_hc_ois.wav	3	6	1	noise_calib_stim_LEFT.wav	1	29	blb_dichoticlistening_pa-pa.mp3	pa	pa	0	left
6.6.1	win	2023-07-07	18:08:28	18:17:19	526164	616555ec3460f0a519c1cdff	4	1	DL_test	23	DL_test	1	stimuli_target_diamondsquares.svg	stimuli_distractor_diamondtriangles.svg	24	yes	ka	1	794	6	6	antiphase_hc_ois.wav	3	6	1	noise_calib_stim_LEFT.wav	1	34	blb_dichoticlistening_ta-ka.mp3	ta	ka	1	right
6.6.1	win	2023-07-07	18:08:28	18:17:19	526164	616555ec3460f0a519c1cdff	4	1	DL_test	23	DL_test	2	stimuli_target_diamondsquares.svg	stimuli_distractor_diamondtriangles.svg	24	yes	da	1	1092	6	6	antiphase_hc_ois.wav	3	6	1	noise_calib_stim_LEFT.wav	1	20	blb_dichoticlistening_ka-da.mp3	ka	da	1	right
6.6.1	win	2023-07-07	18:08:28	18:17:19	526164	616555ec3460f0a519c1cdff	4	1	DL_test	23	DL_test	3	stimuli_target_diamondsquares.svg	stimuli_distractor_diamondtriangles.svg	24	yes	da	1	782	6	6	antiphase_hc_ois.wav	3	6	1	noise_calib_stim_LEFT.wav	1	8	blb_dichoticlistening_da-da.mp3	da	da	0	left
6.6.1	win	2023-07-07	18:08:28	18:17:19	526164	616555ec3460f0a519c1cdff	4	1	DL_test	23	DL_test	4	stimuli_target_diamondsquares.svg	stimuli_distractor_diamondtriangles.svg	24	yes	pa	0	1628	6	6	antiphase_hc_ois.wav	3	6	1	noise_calib_stim_LEFT.wav	1	19	blb_dichoticlistening_ka-ba.mp3	ka	ba	1	other
6.6.1	win	2023-07-07	18:08:28	18:17:19	526164	616555ec3460f0a519c1cdff	4	1	DL_test	23	DL_test	5	stimuli_target_diamondsquares.svg	stimuli_distractor_diamondtriangles.svg	24	yes	ba	1	1023	6	6	antiphase_hc_ois.wav	3	6	1	noise_calib_stim_LEFT.wav	1	1	blb_dichoticlistening_ba-ba.mp3	ba	ba	0	left
6.6.1	win	2023-07-07	18:08:28	18:17:19	526164	616555ec3460f0a519c1cdff	4	1	DL_test	23	DL_test	6	stimuli_target_diamondsquares.svg	stimuli_distractor_diamondtriangles.svg	24	yes	ka	1	758	6	6	antiphase_hc_ois.wav	3	6	1	noise_calib_stim_LEFT.wav	1	28	blb_dichoticlistening_pa-ka.mp3	pa	ka	1	right
6.6.1	win	2023-07-07	18:08:28	18:17:19	526164	616555ec3460f0a519c1cdff	4	1	DL_test	23	DL_test	7	stimuli_target_diamondsquares.svg	stimuli_distractor_diamondtriangles.svg	24	yes	ga	1	1189	6	6	antiphase_hc_ois.wav	3	6	1	noise_calib_stim_LEFT.wav	1	27	blb_dichoticlistening_pa-ga.mp3	pa	ga	1	right
6.6.1	win	2023-07-07	18:08:28	18:17:19	526164	616555ec3460f0a519c1cdff	4	1	DL_test	23	DL_test	8	stimuli_target_diamondsquares.svg	stimuli_distractor_diamondtriangles.svg	24	yes	da	1	1130	6	6	antiphase_hc_ois.wav	3	6	1	noise_calib_stim_LEFT.wav	1	14	blb_dichoticlistening_ga-da.mp3	ga	da	1	right
6.6.1	win	2023-07-07	18:08:28	18:17:19	526164	616555ec3460f0a519c1cdff	4	1	DL_test	23	DL_test	9	stimuli_target_diamondsquares.svg	stimuli_distractor_diamondtriangles.svg	24	yes	da	1	807	6	6	antiphase_hc_ois.wav	3	6	1	noise_calib_stim_LEFT.wav	1	9	blb_dichoticlistening_da-ga.mp3	da	ga	1	left
6.6.1	win	2023-07-07	18:08:28	18:17:19	526164	616555ec3460f0a519c1cdff	4	1	DL_test	23	DL_test	10	stimuli_target_diamondsquares.svg	stimuli_distractor_diamondtriangles.svg	24	yes	da	1	819	6	6	antiphase_hc_ois.wav	3	6	1	noise_calib_stim_LEFT.wav	1	32	blb_dichoticlistening_ta-da.mp3	ta	da	1	right
6.6.1	win	2023-07-07	18:08:28	18:17:19	526164	616555ec3460f0a519c1cdff	4	1	DL_test	23	DL_test	11	stimuli_target_diamondsquares.svg	stimuli_distractor_diamondtriangles.svg	24	yes	ka	1	904	6	6	antiphase_hc_ois.wav	3	6	1	noise_calib_stim_LEFT.wav	1	23	blb_dichoticlistening_ka-pa.mp3	ka	pa	1	left
6.6.1	win	2023-07-07	18:08:28	18:17:19	526164	616555ec3460f0a519c1cdff	4	1	DL_test	23	DL_test	12	stimuli_target_diamondsquares.svg	stimuli_distractor_diamondtriangles.svg	24	yes	pa	1	1286	6	6	antiphase_hc_ois.wav	3	6	1	noise_calib_stim_LEFT.wav	1	5	blb_dichoticlistening_ba-pa.mp3	ba	pa	1	right
6.6.1	win	2023-07-07	18:08:28	18:17:19	526164	616555ec3460f0a519c1cdff	4	1	DL_test	23	DL_test	13	stimuli_target_diamondsquares.svg	stimuli_distractor_diamondtriangles.svg	24	yes	ta	1	1077	6	6	antiphase_hc_ois.wav	3	6	1	noise_calib_stim_LEFT.wav	1	30	blb_dichoticlistening_pa-ta.mp3	pa	ta	1	right
6.6.1	win	2023-07-07	18:08:28	18:17:19	526164	616555ec3460f0a519c1cdff	4	1	DL_test	23	DL_test	14	stimuli_target_diamondsquares.svg	stimuli_distractor_diamondtriangles.svg	24	yes	pa	1	994	6	6	antiphase_hc_ois.wav	3	6	1	noise_calib_stim_LEFT.wav	1	29	blb_dichoticlistening_pa-pa.mp3	pa	pa	0	left
6.6.1	win	2023-07-07	18:08:28	18:17:19	526164	616555ec3460f0a519c1cdff	4	1	DL_test	23	DL_test	15	stimuli_target_diamondsquares.svg	stimuli_distractor_diamondtriangles.svg	24	yes	ga	1	892	6	6	antiphase_hc_ois.wav	3	6	1	noise_calib_stim_LEFT.wav	1	21	blb_dichoticlistening_ka-ga.mp3	ka	ga	1	right
6.6.1	win	2023-07-07	18:08:28	18:17:19	526164	616555ec3460f0a519c1cdff	4	1	DL_test	23	DL_test	16	stimuli_target_diamondsquares.svg	stimuli_distractor_diamondtriangles.svg	24	yes	ta	1	1040	6	6	antiphase_hc_ois.wav	3	6	1	noise_calib_stim_LEFT.wav	1	36	blb_dichoticlistening_ta-ta.mp3	ta	ta	0	left
6.6.1	win	2023-07-07	18:08:28	18:17:19	526164	616555ec3460f0a519c1cdff	4	1	DL_test	23	DL_test	17	stimuli_target_diamondsquares.svg	stimuli_distractor_diamondtriangles.svg	24	yes	ga	1	808	6	6	antiphase_hc_ois.wav	3	6	1	noise_calib_stim_LEFT.wav	1	15	blb_dichoticlistening_ga-ga.mp3	ga	ga	0	left
6.6.1	win	2023-07-07	18:08:28	18:17:19	526164	616555ec3460f0a519c1cdff	4	1	DL_test	23	DL_test	18	stimuli_target_diamondsquares.svg	stimuli_distractor_diamondtriangles.svg	24	yes	ka	1	740	6	6	antiphase_hc_ois.wav	3	6	1	noise_calib_stim_LEFT.wav	1	22	blb_dichoticlistening_ka-ka.mp3	ka	ka	0	left
6.6.1	win	2023-07-07	18:08:28	18:17:19	526164	616555ec3460f0a519c1cdff	4	1	DL_test	23	DL_test	19	stimuli_target_diamondsquares.svg	stimuli_distractor_diamondtriangles.svg	24	yes	da	1	977	6	6	antiphase_hc_ois.wav	3	6	1	noise_calib_stim_LEFT.wav	1	12	blb_dichoticlistening_da-ta.mp3	da	ta	1	left
6.6.1	win	2023-07-07	18:08:28	18:17:19	526164	616555ec3460f0a519c1cdff	4	1	DL_test	23	DL_test	20	stimuli_target_diamondsquares.svg	stimuli_distractor_diamondtriangles.svg	24	yes	ba	1	1171	6	6	antiphase_hc_ois.wav	3	6	1	noise_calib_stim_LEFT.wav	1	2	blb_dichoticlistening_ba-da.mp3	ba	da	1	left
6.6.1	win	2023-07-07	18:08:28	18:17:19	526164	616555ec3460f0a519c1cdff	4	1	DL_test	23	DL_test	21	stimuli_target_diamondsquares.svg	stimuli_distractor_diamondtriangles.svg	24	yes	ga	1	779	6	6	antiphase_hc_ois.wav	3	6	1	noise_calib_stim_LEFT.wav	1	18	blb_dichoticlistening_ga-ta.mp3	ga	ta	1	left
6.6.1	win	2023-07-07	18:08:28	18:17:19	526164	616555ec3460f0a519c1cdff	4	1	DL_test	23	DL_test	22	stimuli_target_diamondsquares.svg	stimuli_distractor_diamondtriangles.svg	24	yes	ga	0	1058	6	6	antiphase_hc_ois.wav	3	6	1	noise_calib_stim_LEFT.wav	1	11	blb_dichoticlistening_da-pa.mp3	da	pa	1	other
6.6.1	win	2023-07-07	18:08:28	18:17:19	526164	616555ec3460f0a519c1cdff	4	1	DL_test	23	DL_test	23	stimuli_target_diamondsquares.svg	stimuli_distractor_diamondtriangles.svg	24	yes	ka	1	970	6	6	antiphase_hc_ois.wav	3	6	1	noise_calib_stim_LEFT.wav	1	24	blb_dichoticlistening_ka-ta.mp3	ka	ta	1	left
6.6.1	win	2023-07-07	18:08:28	18:17:19	526164	616555ec3460f0a519c1cdff	4	1	DL_test	23	DL_test	24	stimuli_target_diamondsquares.svg	stimuli_distractor_diamondtriangles.svg	24	yes	ba	1	1006	6	6	antiphase_hc_ois.wav	3	6	1	noise_calib_stim_LEFT.wav	1	3	blb_dichoticlistening_ba-ga.mp3	ba	ga	1	left
6.6.1	win	2023-07-07	18:08:28	18:17:19	526164	616555ec3460f0a519c1cdff	4	1	DL_test	23	DL_test	25	stimuli_target_diamondsquares.svg	stimuli_distractor_diamondtriangles.svg	24	yes	da	1	1038	6	6	antiphase_hc_ois.wav	3	6	1	noise_calib_stim_LEFT.wav	1	26	blb_dichoticlistening_pa-da.mp3	pa	da	1	right
6.6.1	win	2023-07-07	18:08:28	18:17:19	526164	616555ec3460f0a519c1cdff	4	1	DL_test	23	DL_test	26	stimuli_target_diamondsquares.svg	stimuli_distractor_diamondtriangles.svg	24	yes	da	1	726	6	6	antiphase_hc_ois.wav	3	6	1	noise_calib_stim_LEFT.wav	1	10	blb_dichoticlistening_da-ka.mp3	da	ka	1	left
