build	computer.platform	date	time	timestamp	time_elapsed_ms	subject	group	session	blockcode	blocknum	trialcode	trialnum	stimulus_left	stimulus_right	stim_index	target_present	response	correct	latency	headphonecheck_countTestTrials	headphonecheck_index	headphonecheck_testSound	headphonecheck_correctResponse	stereocheck_countTestTrials	stereocheck_index	stereocheck_testSound	stereocheck_correctResponse	DL_index	DL_soundfile	DL_leftSound	DL_rightSound	DL_dualSound	DL_choice
6.6.1	mac	2023-07-07	13:29:39	13:32:06	143602	63d4251f684e52575206f44b	3	1	practice_slash	5	practice_slash	1	stimuli_distractor_diamondtriangles.svg	stimuli_distractor_trianglediamonds.svg	14	no	53	0	1742	0	0			0	0			1				0	
6.6.1	mac	2023-07-07	13:29:39	13:32:06	143602	63d4251f684e52575206f44b	3	1	practice_slash	5	advance_on_keypress_SLASH	2	stimuli_distractor_diamondtriangles.svg	stimuli_distractor_trianglediamonds.svg	14	no	57	0	956	0	0			0	0			1				0	
6.6.1	mac	2023-07-07	13:29:39	13:32:09	147132	63d4251f684e52575206f44b	3	1	practice_slash	5	practice_slash	3	stimuli_target_rectanglediamonds.svg	stimuli_distractor_trianglediamonds.svg	4	yes	53	1	924	0	0			0	0			1				0	
6.6.1	mac	2023-07-07	13:29:39	13:32:09	147132	63d4251f684e52575206f44b	3	1	practice_slash	5	advance_on_keypress_SLASH	4	stimuli_target_rectanglediamonds.svg	stimuli_distractor_trianglediamonds.svg	4	yes	57	0	522	0	0			0	0			1				0	
6.6.1	mac	2023-07-07	13:29:39	13:32:13	150310	63d4251f684e52575206f44b	3	1	practice_slash	5	practice_slash	5	stimuli_target_squarediamonds.svg	stimuli_distractor_diamondtriangles.svg	2	yes	53	1	1028	0	0			0	0			1				0	
6.6.1	mac	2023-07-07	13:29:39	13:32:13	150310	63d4251f684e52575206f44b	3	1	practice_slash	5	advance_on_keypress_SLASH	6	stimuli_target_squarediamonds.svg	stimuli_distractor_diamondtriangles.svg	2	yes	57	0	573	0	0			0	0			1				0	
6.6.1	mac	2023-07-07	13:29:39	13:32:17	154512	63d4251f684e52575206f44b	3	1	practice_slash	5	practice_slash	7	stimuli_distractor_diamondtriangles.svg	stimuli_distractor_diamondtriangles.svg	13	no	0	1	2000	0	0			0	0			1				0	
6.6.1	mac	2023-07-07	13:29:39	13:32:17	154512	63d4251f684e52575206f44b	3	1	practice_slash	5	advance_on_keypress_SLASH	8	stimuli_distractor_diamondtriangles.svg	stimuli_distractor_diamondtriangles.svg	13	no	57	0	588	0	0			0	0			1				0	
6.6.1	mac	2023-07-07	13:29:39	13:32:20	157688	63d4251f684e52575206f44b	3	1	practice_slash	5	practice_slash	9	stimuli_distractor_diamondtriangles.svg	stimuli_target_rectangletriangles.svg	7	yes	53	1	961	0	0			0	0			1				0	
6.6.1	mac	2023-07-07	13:29:39	13:32:20	157688	63d4251f684e52575206f44b	3	1	practice_slash	5	advance_on_keypress_SLASH	10	stimuli_distractor_diamondtriangles.svg	stimuli_target_rectangletriangles.svg	7	yes	57	0	643	0	0			0	0			1				0	
6.6.1	mac	2023-07-07	13:29:39	13:32:24	161259	63d4251f684e52575206f44b	3	1	practice_slash	5	practice_slash	11	stimuli_distractor_diamondtriangles.svg	stimuli_target_trianglerectangles.svg	9	yes	53	1	1308	0	0			0	0			1				0	
6.6.1	mac	2023-07-07	13:29:39	13:32:24	161259	63d4251f684e52575206f44b	3	1	practice_slash	5	advance_on_keypress_SLASH	12	stimuli_distractor_diamondtriangles.svg	stimuli_target_trianglerectangles.svg	9	yes	57	0	516	0	0			0	0			1				0	
6.6.1	mac	2023-07-07	13:29:39	13:32:27	164274	63d4251f684e52575206f44b	3	1	practice_slash	5	practice_slash	13	stimuli_distractor_trianglediamonds.svg	stimuli_distractor_diamondtriangles.svg	16	no	53	0	876	0	0			0	0			1				0	
6.6.1	mac	2023-07-07	13:29:39	13:32:27	164274	63d4251f684e52575206f44b	3	1	practice_slash	5	advance_on_keypress_SLASH	14	stimuli_distractor_trianglediamonds.svg	stimuli_distractor_diamondtriangles.svg	16	no	57	0	700	0	0			0	0			1				0	
6.6.1	mac	2023-07-07	13:29:39	13:32:31	168611	63d4251f684e52575206f44b	3	1	practice_slash	5	practice_slash	15	stimuli_distractor_diamondtriangles.svg	stimuli_target_diamondrectangles.svg	8	yes	0	0	2000	0	0			0	0			1				0	
6.6.1	mac	2023-07-07	13:29:39	13:32:31	168611	63d4251f684e52575206f44b	3	1	practice_slash	5	advance_on_keypress_SLASH	16	stimuli_distractor_diamondtriangles.svg	stimuli_target_diamondrectangles.svg	8	yes	57	0	427	0	0			0	0			1				0	
6.6.1	mac	2023-07-07	13:29:39	13:32:34	171532	63d4251f684e52575206f44b	3	1	practice_slash	5	practice_slash	17	stimuli_distractor_trianglediamonds.svg	stimuli_target_rectanglediamonds.svg	10	yes	53	1	852	0	0			0	0			1				0	
6.6.1	mac	2023-07-07	13:29:39	13:32:34	171532	63d4251f684e52575206f44b	3	1	practice_slash	5	advance_on_keypress_SLASH	18	stimuli_distractor_trianglediamonds.svg	stimuli_target_rectanglediamonds.svg	10	yes	57	0	2267	0	0			0	0			1				0	
6.6.1	mac	2023-07-07	13:29:39	13:32:39	176401	63d4251f684e52575206f44b	3	1	practice_slash	5	practice_slash	19	stimuli_distractor_trianglediamonds.svg	stimuli_distractor_trianglediamonds.svg	15	no	53	0	963	0	0			0	0			1				0	
6.6.1	mac	2023-07-07	13:29:39	13:32:39	176401	63d4251f684e52575206f44b	3	1	practice_slash	5	advance_on_keypress_SLASH	20	stimuli_distractor_trianglediamonds.svg	stimuli_distractor_trianglediamonds.svg	15	no	57	0	715	0	0			0	0			1				0	
6.6.1	mac	2023-07-07	13:29:39	13:32:42	179684	63d4251f684e52575206f44b	3	1	practice_slash	5	practice_slash	21	stimuli_target_squarediamonds.svg	stimuli_distractor_trianglediamonds.svg	5	yes	53	1	933	0	0			0	0			1				0	
6.6.1	mac	2023-07-07	13:29:39	13:32:42	179684	63d4251f684e52575206f44b	3	1	practice_slash	5	advance_on_keypress_SLASH	22	stimuli_target_squarediamonds.svg	stimuli_distractor_trianglediamonds.svg	5	yes	57	0	417	0	0			0	0			1				0	
6.6.1	mac	2023-07-07	13:29:39	13:32:45	182643	63d4251f684e52575206f44b	3	1	practice_slash	5	practice_slash	23	stimuli_distractor_trianglediamonds.svg	stimuli_target_squarediamonds.svg	11	yes	53	1	909	0	0			0	0			1				0	
6.6.1	mac	2023-07-07	13:29:39	13:32:45	182643	63d4251f684e52575206f44b	3	1	practice_slash	5	advance_on_keypress_SLASH	24	stimuli_distractor_trianglediamonds.svg	stimuli_target_squarediamonds.svg	11	yes	57	0	302	0	0			0	0			1				0	
6.6.1	mac	2023-07-07	13:29:39	13:32:49	186574	63d4251f684e52575206f44b	3	1	practice_slash	5	practice_slash	25	stimuli_distractor_trianglediamonds.svg	stimuli_target_diamondrectangles.svg	12	yes	0	0	2000	0	0			0	0			1				0	
6.6.1	mac	2023-07-07	13:29:39	13:32:49	186574	63d4251f684e52575206f44b	3	1	practice_slash	5	advance_on_keypress_SLASH	26	stimuli_distractor_trianglediamonds.svg	stimuli_target_diamondrectangles.svg	12	yes	57	0	346	0	0			0	0			1				0	
6.6.1	mac	2023-07-07	13:29:39	13:32:52	189443	63d4251f684e52575206f44b	3	1	practice_slash	5	practice_slash	27	stimuli_target_rectanglediamonds.svg	stimuli_distractor_diamondtriangles.svg	1	yes	53	1	884	0	0			0	0			1				0	
6.6.1	mac	2023-07-07	13:29:39	13:32:52	189443	63d4251f684e52575206f44b	3	1	practice_slash	5	advance_on_keypress_SLASH	28	stimuli_target_rectanglediamonds.svg	stimuli_distractor_diamondtriangles.svg	1	yes	57	0	689	0	0			0	0			1				0	
6.6.1	mac	2023-07-07	13:29:39	13:32:55	193084	63d4251f684e52575206f44b	3	1	practice_slash	5	practice_slash	29	stimuli_target_diamondsquares.svg	stimuli_distractor_diamondtriangles.svg	3	yes	53	1	1318	0	0			0	0			1				0	
6.6.1	mac	2023-07-07	13:29:39	13:32:55	193084	63d4251f684e52575206f44b	3	1	practice_slash	5	advance_on_keypress_SLASH	30	stimuli_target_diamondsquares.svg	stimuli_distractor_diamondtriangles.svg	3	yes	57	0	354	0	0			0	0			1				0	
6.6.1	mac	2023-07-07	13:29:39	13:32:58	196164	63d4251f684e52575206f44b	3	1	practice_slash	5	practice_slash	31	stimuli_target_diamondsquares.svg	stimuli_distractor_trianglediamonds.svg	6	yes	53	1	1104	0	0			0	0			1				0	
6.6.1	mac	2023-07-07	13:29:39	13:32:58	196164	63d4251f684e52575206f44b	3	1	practice_slash	5	advance_on_keypress_SLASH	32	stimuli_target_diamondsquares.svg	stimuli_distractor_trianglediamonds.svg	6	yes	57	0	314	0	0			0	0			1				0	
6.6.1	mac	2023-07-07	13:29:39	13:33:05	202358	63d4251f684e52575206f44b	3	1	main_slash	7	main_slash	1	stimuli_target_diamondsquares.svg	stimuli_distractor_diamondtriangles.svg	24	yes	53	1	910	0	0			0	0			1				0	
6.6.1	mac	2023-07-07	13:29:39	13:33:05	202358	63d4251f684e52575206f44b	3	1	main_slash	7	advance_on_keypress_SLASH	2	stimuli_target_diamondsquares.svg	stimuli_distractor_diamondtriangles.svg	24	yes	57	0	1502	0	0			0	0			1				0	
6.6.1	mac	2023-07-07	13:29:39	13:33:08	205419	63d4251f684e52575206f44b	3	1	main_slash	7	main_slash	3	stimuli_target_squaretriangles.svg	stimuli_distractor_trianglediamonds.svg	3	yes	53	1	924	0	0			0	0			1				0	
6.6.1	mac	2023-07-07	13:29:39	13:33:08	205419	63d4251f684e52575206f44b	3	1	main_slash	7	advance_on_keypress_SLASH	4	stimuli_target_squaretriangles.svg	stimuli_distractor_trianglediamonds.svg	3	yes	57	0	784	0	0			0	0			1				0	
6.6.1	mac	2023-07-07	13:29:39	13:33:10	207707	63d4251f684e52575206f44b	3	1	main_slash	7	main_slash	5	stimuli_target_rectangletriangles.svg	stimuli_distractor_diamondtriangles.svg	5	yes	53	1	860	0	0			0	0			1				0	
6.6.1	mac	2023-07-07	13:29:39	13:33:10	207707	63d4251f684e52575206f44b	3	1	main_slash	7	advance_on_keypress_SLASH	6	stimuli_target_rectangletriangles.svg	stimuli_distractor_diamondtriangles.svg	5	yes	57	0	1072	0	0			0	0			1				0	
6.6.1	mac	2023-07-07	13:29:39	13:33:13	210622	63d4251f684e52575206f44b	3	1	main_slash	7	main_slash	7	stimuli_target_trianglesquares.svg	stimuli_distractor_diamondtriangles.svg	22	yes	53	1	1200	0	0			0	0			1				0	
6.6.1	mac	2023-07-07	13:29:39	13:33:13	210622	63d4251f684e52575206f44b	3	1	main_slash	7	advance_on_keypress_SLASH	8	stimuli_target_trianglesquares.svg	stimuli_distractor_diamondtriangles.svg	22	yes	57	0	685	0	0			0	0			1				0	
6.6.1	mac	2023-07-07	13:29:39	13:33:16	213937	63d4251f684e52575206f44b	3	1	main_slash	7	main_slash	9	stimuli_distractor_diamondtriangles.svg	stimuli_target_squaretriangles.svg	15	yes	0	0	2000	0	0			0	0			1				0	
6.6.1	mac	2023-07-07	13:29:39	13:33:16	213937	63d4251f684e52575206f44b	3	1	main_slash	7	advance_on_keypress_SLASH	10	stimuli_distractor_diamondtriangles.svg	stimuli_target_squaretriangles.svg	15	yes	57	0	521	0	0			0	0			1				0	
6.6.1	mac	2023-07-07	13:29:39	13:33:18	215962	63d4251f684e52575206f44b	3	1	main_slash	7	main_slash	11	stimuli_target_rectangletriangles.svg	stimuli_distractor_trianglediamonds.svg	1	yes	53	1	869	0	0			0	0			1				0	
6.6.1	mac	2023-07-07	13:29:39	13:33:18	215962	63d4251f684e52575206f44b	3	1	main_slash	7	advance_on_keypress_SLASH	12	stimuli_target_rectangletriangles.svg	stimuli_distractor_trianglediamonds.svg	1	yes	57	0	865	0	0			0	0			1				0	
6.6.1	mac	2023-07-07	13:29:39	13:33:22	219450	63d4251f684e52575206f44b	3	1	main_slash	7	main_slash	13	stimuli_target_trianglerectangles.svg	stimuli_distractor_diamondtriangles.svg	21	yes	0	0	2000	0	0			0	0			1				0	
6.6.1	mac	2023-07-07	13:29:39	13:33:22	219450	63d4251f684e52575206f44b	3	1	main_slash	7	advance_on_keypress_SLASH	14	stimuli_target_trianglerectangles.svg	stimuli_distractor_diamondtriangles.svg	21	yes	57	0	492	0	0			0	0			1				0	
6.6.1	mac	2023-07-07	13:29:39	13:33:25	222585	63d4251f684e52575206f44b	3	1	main_slash	7	main_slash	15	stimuli_distractor_trianglediamonds.svg	stimuli_distractor_diamondtriangles.svg	36	no	0	1	2000	0	0			0	0			1				0	
6.6.1	mac	2023-07-07	13:29:39	13:33:25	222585	63d4251f684e52575206f44b	3	1	main_slash	7	advance_on_keypress_SLASH	16	stimuli_distractor_trianglediamonds.svg	stimuli_distractor_diamondtriangles.svg	36	no	57	0	566	0	0			0	0			1				0	
6.6.1	mac	2023-07-07	13:29:39	13:33:27	224824	63d4251f684e52575206f44b	3	1	main_slash	7	main_slash	17	stimuli_distractor_trianglediamonds.svg	stimuli_target_diamondrectangles.svg	27	yes	53	1	1036	0	0			0	0			1				0	
6.6.1	mac	2023-07-07	13:29:39	13:33:27	224824	63d4251f684e52575206f44b	3	1	main_slash	7	advance_on_keypress_SLASH	18	stimuli_distractor_trianglediamonds.svg	stimuli_target_diamondrectangles.svg	27	yes	57	0	995	0	0			0	0			1				0	
6.6.1	mac	2023-07-07	13:29:39	13:33:30	227416	63d4251f684e52575206f44b	3	1	main_slash	7	main_slash	19	stimuli_distractor_trianglediamonds.svg	stimuli_target_trianglerectangles.svg	25	yes	53	1	973	0	0			0	0			1				0	
6.6.1	mac	2023-07-07	13:29:39	13:33:30	227416	63d4251f684e52575206f44b	3	1	main_slash	7	advance_on_keypress_SLASH	20	stimuli_distractor_trianglediamonds.svg	stimuli_target_trianglerectangles.svg	25	yes	57	0	636	0	0			0	0			1				0	
6.6.1	mac	2023-07-07	13:29:39	13:33:32	229718	63d4251f684e52575206f44b	3	1	main_slash	7	main_slash	21	stimuli_target_diamondrectangles.svg	stimuli_distractor_trianglediamonds.svg	19	yes	53	1	1031	0	0			0	0			1				0	
6.6.1	mac	2023-07-07	13:29:39	13:33:32	229718	63d4251f684e52575206f44b	3	1	main_slash	7	advance_on_keypress_SLASH	22	stimuli_target_diamondrectangles.svg	stimuli_distractor_trianglediamonds.svg	19	yes	57	0	876	0	0			0	0			1				0	
6.6.1	mac	2023-07-07	13:29:39	13:33:34	232123	63d4251f684e52575206f44b	3	1	main_slash	7	main_slash	23	stimuli_target_squaretriangles.svg	stimuli_distractor_diamondtriangles.svg	7	yes	53	1	904	0	0			0	0			1				0	
6.6.1	mac	2023-07-07	13:29:39	13:33:34	232123	63d4251f684e52575206f44b	3	1	main_slash	7	advance_on_keypress_SLASH	24	stimuli_target_squaretriangles.svg	stimuli_distractor_diamondtriangles.svg	7	yes	57	0	693	0	0			0	0			1				0	
6.6.1	mac	2023-07-07	13:29:39	13:33:38	235432	63d4251f684e52575206f44b	3	1	main_slash	7	main_slash	25	stimuli_distractor_diamondtriangles.svg	stimuli_distractor_trianglediamonds.svg	37	no	0	1	2000	0	0			0	0			1				0	
6.6.1	mac	2023-07-07	13:29:39	13:33:38	235432	63d4251f684e52575206f44b	3	1	main_slash	7	advance_on_keypress_SLASH	26	stimuli_distractor_diamondtriangles.svg	stimuli_distractor_trianglediamonds.svg	37	no	57	0	496	0	0			0	0			1				0	
6.6.1	mac	2023-07-07	13:29:39	13:33:41	238568	63d4251f684e52575206f44b	3	1	main_slash	7	main_slash	27	stimuli_distractor_trianglediamonds.svg	stimuli_distractor_trianglediamonds.svg	34	no	0	1	2000	0	0			0	0			1				0	
6.6.1	mac	2023-07-07	13:29:39	13:33:41	238568	63d4251f684e52575206f44b	3	1	main_slash	7	advance_on_keypress_SLASH	28	stimuli_distractor_trianglediamonds.svg	stimuli_distractor_trianglediamonds.svg	34	no	57	0	746	0	0			0	0			1				0	
6.6.1	mac	2023-07-07	13:29:39	13:33:44	241952	63d4251f684e52575206f44b	3	1	main_slash	7	main_slash	29	stimuli_distractor_trianglediamonds.svg	stimuli_distractor_trianglediamonds.svg	33	no	0	1	2000	0	0			0	0			1				0	
6.6.1	mac	2023-07-07	13:29:39	13:33:44	241952	63d4251f684e52575206f44b	3	1	main_slash	7	advance_on_keypress_SLASH	30	stimuli_distractor_trianglediamonds.svg	stimuli_distractor_trianglediamonds.svg	33	no	57	0	495	0	0			0	0			1				0	
6.6.1	mac	2023-07-07	13:29:39	13:33:46	243909	63d4251f684e52575206f44b	3	1	main_slash	7	main_slash	31	stimuli_distractor_diamondtriangles.svg	stimuli_target_diamondrectangles.svg	31	yes	53	1	839	0	0			0	0			1				0	
6.6.1	mac	2023-07-07	13:29:39	13:33:46	243909	63d4251f684e52575206f44b	3	1	main_slash	7	advance_on_keypress_SLASH	32	stimuli_distractor_diamondtriangles.svg	stimuli_target_diamondrectangles.svg	31	yes	57	0	642	0	0			0	0			1				0	
6.6.1	mac	2023-07-07	13:29:39	13:33:48	246134	63d4251f684e52575206f44b	3	1	main_slash	7	main_slash	33	stimuli_distractor_trianglediamonds.svg	stimuli_target_trianglesquares.svg	26	yes	53	1	937	0	0			0	0			1				0	
6.6.1	mac	2023-07-07	13:29:39	13:33:48	246134	63d4251f684e52575206f44b	3	1	main_slash	7	advance_on_keypress_SLASH	34	stimuli_distractor_trianglediamonds.svg	stimuli_target_trianglesquares.svg	26	yes	57	0	609	0	0			0	0			1				0	
6.6.1	mac	2023-07-07	13:29:39	13:33:52	249368	63d4251f684e52575206f44b	3	1	main_slash	7	main_slash	35	stimuli_target_trianglerectangles.svg	stimuli_distractor_trianglediamonds.svg	17	yes	0	0	2000	0	0			0	0			1				0	
6.6.1	mac	2023-07-07	13:29:39	13:33:52	249368	63d4251f684e52575206f44b	3	1	main_slash	7	advance_on_keypress_SLASH	36	stimuli_target_trianglerectangles.svg	stimuli_distractor_trianglediamonds.svg	17	yes	57	0	454	0	0			0	0			1				0	
6.6.1	mac	2023-07-07	13:29:39	13:33:53	251208	63d4251f684e52575206f44b	3	1	main_slash	7	main_slash	37	stimuli_distractor_diamondtriangles.svg	stimuli_target_rectanglediamonds.svg	14	yes	53	1	758	0	0			0	0			1				0	
6.6.1	mac	2023-07-07	13:29:39	13:33:53	251208	63d4251f684e52575206f44b	3	1	main_slash	7	advance_on_keypress_SLASH	38	stimuli_distractor_diamondtriangles.svg	stimuli_target_rectanglediamonds.svg	14	yes	57	0	595	0	0			0	0			1				0	
6.6.1	mac	2023-07-07	13:29:39	13:33:56	253433	63d4251f684e52575206f44b	3	1	main_slash	7	main_slash	39	stimuli_target_diamondsquares.svg	stimuli_distractor_trianglediamonds.svg	20	yes	53	1	989	0	0			0	0			1				0	
6.6.1	mac	2023-07-07	13:29:39	13:33:56	253433	63d4251f684e52575206f44b	3	1	main_slash	7	advance_on_keypress_SLASH	40	stimuli_target_diamondsquares.svg	stimuli_distractor_trianglediamonds.svg	20	yes	57	0	482	0	0			0	0			1				0	
6.6.1	mac	2023-07-07	13:29:39	13:33:58	255454	63d4251f684e52575206f44b	3	1	main_slash	7	main_slash	41	stimuli_target_squarediamonds.svg	stimuli_distractor_trianglediamonds.svg	4	yes	53	1	896	0	0			0	0			1				0	
6.6.1	mac	2023-07-07	13:29:39	13:33:58	255454	63d4251f684e52575206f44b	3	1	main_slash	7	advance_on_keypress_SLASH	42	stimuli_target_squarediamonds.svg	stimuli_distractor_trianglediamonds.svg	4	yes	57	0	600	0	0			0	0			1				0	
6.6.1	mac	2023-07-07	13:29:39	13:34:01	258690	63d4251f684e52575206f44b	3	1	main_slash	7	main_slash	43	stimuli_distractor_diamondtriangles.svg	stimuli_distractor_diamondtriangles.svg	39	no	0	1	2000	0	0			0	0			1				0	
6.6.1	mac	2023-07-07	13:29:39	13:34:01	258690	63d4251f684e52575206f44b	3	1	main_slash	7	advance_on_keypress_SLASH	44	stimuli_distractor_diamondtriangles.svg	stimuli_distractor_diamondtriangles.svg	39	no	57	0	459	0	0			0	0			1				0	
6.6.1	mac	2023-07-07	13:29:39	13:34:03	260740	63d4251f684e52575206f44b	3	1	main_slash	7	main_slash	45	stimuli_distractor_trianglediamonds.svg	stimuli_target_diamondsquares.svg	28	yes	53	1	966	0	0			0	0			1				0	
6.6.1	mac	2023-07-07	13:29:39	13:34:03	260740	63d4251f684e52575206f44b	3	1	main_slash	7	advance_on_keypress_SLASH	46	stimuli_distractor_trianglediamonds.svg	stimuli_target_diamondsquares.svg	28	yes	57	0	578	0	0			0	0			1				0	
6.6.1	mac	2023-07-07	13:29:39	13:34:05	262822	63d4251f684e52575206f44b	3	1	main_slash	7	main_slash	47	stimuli_distractor_trianglediamonds.svg	stimuli_target_squarediamonds.svg	12	yes	53	1	879	0	0			0	0			1				0	
6.6.1	mac	2023-07-07	13:29:39	13:34:05	262822	63d4251f684e52575206f44b	3	1	main_slash	7	advance_on_keypress_SLASH	48	stimuli_distractor_trianglediamonds.svg	stimuli_target_squarediamonds.svg	12	yes	57	0	686	0	0			0	0			1				0	
6.6.1	mac	2023-07-07	13:29:39	13:34:07	265068	63d4251f684e52575206f44b	3	1	main_slash	7	main_slash	49	stimuli_distractor_trianglediamonds.svg	stimuli_target_rectanglediamonds.svg	10	yes	53	1	929	0	0			0	0			1				0	
6.6.1	mac	2023-07-07	13:29:39	13:34:07	265068	63d4251f684e52575206f44b	3	1	main_slash	7	advance_on_keypress_SLASH	50	stimuli_distractor_trianglediamonds.svg	stimuli_target_rectanglediamonds.svg	10	yes	57	0	711	0	0			0	0			1				0	
6.6.1	mac	2023-07-07	13:29:39	13:34:10	267311	63d4251f684e52575206f44b	3	1	main_slash	7	main_slash	51	stimuli_distractor_diamondtriangles.svg	stimuli_target_squarediamonds.svg	16	yes	53	1	893	0	0			0	0			1				0	
6.6.1	mac	2023-07-07	13:29:39	13:34:10	267311	63d4251f684e52575206f44b	3	1	main_slash	7	advance_on_keypress_SLASH	52	stimuli_distractor_diamondtriangles.svg	stimuli_target_squarediamonds.svg	16	yes	57	0	606	0	0			0	0			1				0	
6.6.1	mac	2023-07-07	13:29:39	13:34:13	270537	63d4251f684e52575206f44b	3	1	main_slash	7	main_slash	53	stimuli_distractor_diamondtriangles.svg	stimuli_distractor_diamondtriangles.svg	40	no	0	1	2000	0	0			0	0			1				0	
6.6.1	mac	2023-07-07	13:29:39	13:34:13	270537	63d4251f684e52575206f44b	3	1	main_slash	7	advance_on_keypress_SLASH	54	stimuli_distractor_diamondtriangles.svg	stimuli_distractor_diamondtriangles.svg	40	no	57	0	500	0	0			0	0			1				0	
6.6.1	mac	2023-07-07	13:29:39	13:34:15	272518	63d4251f684e52575206f44b	3	1	main_slash	7	main_slash	55	stimuli_target_squarediamonds.svg	stimuli_distractor_diamondtriangles.svg	8	yes	53	1	848	0	0			0	0			1				0	
6.6.1	mac	2023-07-07	13:29:39	13:34:15	272518	63d4251f684e52575206f44b	3	1	main_slash	7	advance_on_keypress_SLASH	56	stimuli_target_squarediamonds.svg	stimuli_distractor_diamondtriangles.svg	8	yes	57	0	871	0	0			0	0			1				0	
6.6.1	mac	2023-07-07	13:29:39	13:34:18	275309	63d4251f684e52575206f44b	3	1	main_slash	7	main_slash	57	stimuli_target_diamondrectangles.svg	stimuli_distractor_diamondtriangles.svg	23	yes	53	1	1288	0	0			0	0			1				0	
6.6.1	mac	2023-07-07	13:29:39	13:34:18	275309	63d4251f684e52575206f44b	3	1	main_slash	7	advance_on_keypress_SLASH	58	stimuli_target_diamondrectangles.svg	stimuli_distractor_diamondtriangles.svg	23	yes	57	0	549	0	0			0	0			1				0	
6.6.1	mac	2023-07-07	13:29:39	13:34:20	277381	63d4251f684e52575206f44b	3	1	main_slash	7	main_slash	59	stimuli_distractor_trianglediamonds.svg	stimuli_target_squaretriangles.svg	11	yes	53	1	893	0	0			0	0			1				0	
6.6.1	mac	2023-07-07	13:29:39	13:34:20	277381	63d4251f684e52575206f44b	3	1	main_slash	7	advance_on_keypress_SLASH	60	stimuli_distractor_trianglediamonds.svg	stimuli_target_squaretriangles.svg	11	yes	57	0	667	0	0			0	0			1				0	
6.6.1	mac	2023-07-07	13:29:39	13:34:22	279527	63d4251f684e52575206f44b	3	1	main_slash	7	main_slash	61	stimuli_target_rectanglediamonds.svg	stimuli_distractor_diamondtriangles.svg	6	yes	53	1	842	0	0			0	0			1				0	
6.6.1	mac	2023-07-07	13:29:39	13:34:22	279527	63d4251f684e52575206f44b	3	1	main_slash	7	advance_on_keypress_SLASH	62	stimuli_target_rectanglediamonds.svg	stimuli_distractor_diamondtriangles.svg	6	yes	57	0	542	0	0			0	0			1				0	
6.6.1	mac	2023-07-07	13:29:39	13:34:24	281535	63d4251f684e52575206f44b	3	1	main_slash	7	main_slash	63	stimuli_target_rectanglediamonds.svg	stimuli_distractor_trianglediamonds.svg	2	yes	53	1	825	0	0			0	0			1				0	
6.6.1	mac	2023-07-07	13:29:39	13:34:24	281535	63d4251f684e52575206f44b	3	1	main_slash	7	advance_on_keypress_SLASH	64	stimuli_target_rectanglediamonds.svg	stimuli_distractor_trianglediamonds.svg	2	yes	57	0	505	0	0			0	0			1				0	
6.6.1	mac	2023-07-07	13:29:39	13:34:26	283494	63d4251f684e52575206f44b	3	1	main_slash	7	main_slash	65	stimuli_distractor_trianglediamonds.svg	stimuli_target_rectangletriangles.svg	9	yes	53	1	821	0	0			0	0			1				0	
6.6.1	mac	2023-07-07	13:29:39	13:34:26	283494	63d4251f684e52575206f44b	3	1	main_slash	7	advance_on_keypress_SLASH	66	stimuli_distractor_trianglediamonds.svg	stimuli_target_rectangletriangles.svg	9	yes	57	0	413	0	0			0	0			1				0	
6.6.1	mac	2023-07-07	13:29:39	13:34:28	285588	63d4251f684e52575206f44b	3	1	main_slash	7	main_slash	67	stimuli_distractor_diamondtriangles.svg	stimuli_target_rectangletriangles.svg	13	yes	53	1	1039	0	0			0	0			1				0	
6.6.1	mac	2023-07-07	13:29:39	13:34:28	285588	63d4251f684e52575206f44b	3	1	main_slash	7	advance_on_keypress_SLASH	68	stimuli_distractor_diamondtriangles.svg	stimuli_target_rectangletriangles.svg	13	yes	57	0	334	0	0			0	0			1				0	
6.6.1	mac	2023-07-07	13:29:39	13:34:31	288552	63d4251f684e52575206f44b	3	1	main_slash	7	main_slash	69	stimuli_distractor_diamondtriangles.svg	stimuli_distractor_trianglediamonds.svg	38	no	0	1	2000	0	0			0	0			1				0	
6.6.1	mac	2023-07-07	13:29:39	13:34:31	288552	63d4251f684e52575206f44b	3	1	main_slash	7	advance_on_keypress_SLASH	70	stimuli_distractor_diamondtriangles.svg	stimuli_distractor_trianglediamonds.svg	38	no	57	0	555	0	0			0	0			1				0	
6.6.1	mac	2023-07-07	13:29:39	13:34:33	290633	63d4251f684e52575206f44b	3	1	main_slash	7	main_slash	71	stimuli_distractor_diamondtriangles.svg	stimuli_target_trianglesquares.svg	30	yes	53	1	912	0	0			0	0			1				0	
6.6.1	mac	2023-07-07	13:29:39	13:34:33	290633	63d4251f684e52575206f44b	3	1	main_slash	7	advance_on_keypress_SLASH	72	stimuli_distractor_diamondtriangles.svg	stimuli_target_trianglesquares.svg	30	yes	57	0	558	0	0			0	0			1				0	
6.6.1	mac	2023-07-07	13:29:39	13:34:35	292772	63d4251f684e52575206f44b	3	1	main_slash	7	main_slash	73	stimuli_distractor_diamondtriangles.svg	stimuli_target_trianglerectangles.svg	29	yes	53	1	957	0	0			0	0			1				0	
6.6.1	mac	2023-07-07	13:29:39	13:34:35	292772	63d4251f684e52575206f44b	3	1	main_slash	7	advance_on_keypress_SLASH	74	stimuli_distractor_diamondtriangles.svg	stimuli_target_trianglerectangles.svg	29	yes	57	0	569	0	0			0	0			1				0	
6.6.1	mac	2023-07-07	13:29:39	13:34:37	294901	63d4251f684e52575206f44b	3	1	main_slash	7	main_slash	75	stimuli_distractor_diamondtriangles.svg	stimuli_target_diamondsquares.svg	32	yes	53	1	929	0	0			0	0			1				0	
6.6.1	mac	2023-07-07	13:29:39	13:34:37	294901	63d4251f684e52575206f44b	3	1	main_slash	7	advance_on_keypress_SLASH	76	stimuli_distractor_diamondtriangles.svg	stimuli_target_diamondsquares.svg	32	yes	57	0	450	0	0			0	0			1				0	
6.6.1	mac	2023-07-07	13:29:39	13:34:40	297964	63d4251f684e52575206f44b	3	1	main_slash	7	main_slash	77	stimuli_distractor_trianglediamonds.svg	stimuli_distractor_diamondtriangles.svg	35	no	0	1	2000	0	0			0	0			1				0	
6.6.1	mac	2023-07-07	13:29:39	13:34:40	297964	63d4251f684e52575206f44b	3	1	main_slash	7	advance_on_keypress_SLASH	78	stimuli_distractor_trianglediamonds.svg	stimuli_distractor_diamondtriangles.svg	35	no	57	0	990	0	0			0	0			1				0	
6.6.1	mac	2023-07-07	13:29:39	13:34:44	301575	63d4251f684e52575206f44b	3	1	main_slash	7	main_slash	79	stimuli_target_trianglesquares.svg	stimuli_distractor_trianglediamonds.svg	18	yes	0	0	2000	0	0			0	0			1				0	
6.6.1	mac	2023-07-07	13:29:39	13:34:44	301575	63d4251f684e52575206f44b	3	1	main_slash	7	advance_on_keypress_SLASH	80	stimuli_target_trianglesquares.svg	stimuli_distractor_trianglediamonds.svg	18	yes	57	0	54758	0	0			0	0			1				0	
6.6.1	mac	2023-07-07	13:29:39	13:35:41	358955	63d4251f684e52575206f44b	3	1	main_slash	7	main_slash	81	stimuli_distractor_trianglediamonds.svg	stimuli_distractor_trianglediamonds.svg	34	no	0	1	2000	0	0			0	0			1				0	
6.6.1	mac	2023-07-07	13:29:39	13:35:41	358955	63d4251f684e52575206f44b	3	1	main_slash	7	advance_on_keypress_SLASH	82	stimuli_distractor_trianglediamonds.svg	stimuli_distractor_trianglediamonds.svg	34	no	57	0	404	0	0			0	0			1				0	
6.6.1	mac	2023-07-07	13:29:39	13:35:43	360811	63d4251f684e52575206f44b	3	1	main_slash	7	main_slash	83	stimuli_distractor_trianglediamonds.svg	stimuli_target_squarediamonds.svg	12	yes	53	1	812	0	0			0	0			1				0	
6.6.1	mac	2023-07-07	13:29:39	13:35:43	360811	63d4251f684e52575206f44b	3	1	main_slash	7	advance_on_keypress_SLASH	84	stimuli_distractor_trianglediamonds.svg	stimuli_target_squarediamonds.svg	12	yes	57	0	763	0	0			0	0			1				0	
6.6.1	mac	2023-07-07	13:29:39	13:35:45	363010	63d4251f684e52575206f44b	3	1	main_slash	7	main_slash	85	stimuli_target_squaretriangles.svg	stimuli_distractor_diamondtriangles.svg	7	yes	53	1	813	0	0			0	0			1				0	
6.6.1	mac	2023-07-07	13:29:39	13:35:45	363010	63d4251f684e52575206f44b	3	1	main_slash	7	advance_on_keypress_SLASH	86	stimuli_target_squaretriangles.svg	stimuli_distractor_diamondtriangles.svg	7	yes	57	0	670	0	0			0	0			1				0	
6.6.1	mac	2023-07-07	13:29:39	13:35:47	365112	63d4251f684e52575206f44b	3	1	main_slash	7	main_slash	87	stimuli_distractor_diamondtriangles.svg	stimuli_target_squarediamonds.svg	16	yes	53	1	800	0	0			0	0			1				0	
6.6.1	mac	2023-07-07	13:29:39	13:35:47	365112	63d4251f684e52575206f44b	3	1	main_slash	7	advance_on_keypress_SLASH	88	stimuli_distractor_diamondtriangles.svg	stimuli_target_squarediamonds.svg	16	yes	57	0	499	0	0			0	0			1				0	
6.6.1	mac	2023-07-07	13:29:39	13:35:51	368240	63d4251f684e52575206f44b	3	1	main_slash	7	main_slash	89	stimuli_distractor_trianglediamonds.svg	stimuli_distractor_trianglediamonds.svg	33	no	0	1	2000	0	0			0	0			1				0	
6.6.1	mac	2023-07-07	13:29:39	13:35:51	368240	63d4251f684e52575206f44b	3	1	main_slash	7	advance_on_keypress_SLASH	90	stimuli_distractor_trianglediamonds.svg	stimuli_distractor_trianglediamonds.svg	33	no	57	0	388	0	0			0	0			1				0	
6.6.1	mac	2023-07-07	13:29:39	13:35:52	370044	63d4251f684e52575206f44b	3	1	main_slash	7	main_slash	91	stimuli_target_diamondsquares.svg	stimuli_distractor_diamondtriangles.svg	24	yes	53	1	791	0	0			0	0			1				0	
6.6.1	mac	2023-07-07	13:29:39	13:35:52	370044	63d4251f684e52575206f44b	3	1	main_slash	7	advance_on_keypress_SLASH	92	stimuli_target_diamondsquares.svg	stimuli_distractor_diamondtriangles.svg	24	yes	57	0	530	0	0			0	0			1				0	
6.6.1	mac	2023-07-07	13:29:39	13:35:54	372067	63d4251f684e52575206f44b	3	1	main_slash	7	main_slash	93	stimuli_distractor_trianglediamonds.svg	stimuli_target_diamondsquares.svg	28	yes	53	1	851	0	0			0	0			1				0	
6.6.1	mac	2023-07-07	13:29:39	13:35:54	372067	63d4251f684e52575206f44b	3	1	main_slash	7	advance_on_keypress_SLASH	94	stimuli_distractor_trianglediamonds.svg	stimuli_target_diamondsquares.svg	28	yes	57	0	493	0	0			0	0			1				0	
6.6.1	mac	2023-07-07	13:29:39	13:35:56	374077	63d4251f684e52575206f44b	3	1	main_slash	7	main_slash	95	stimuli_distractor_diamondtriangles.svg	stimuli_target_trianglesquares.svg	30	yes	53	1	880	0	0			0	0			1				0	
6.6.1	mac	2023-07-07	13:29:39	13:35:56	374077	63d4251f684e52575206f44b	3	1	main_slash	7	advance_on_keypress_SLASH	96	stimuli_distractor_diamondtriangles.svg	stimuli_target_trianglesquares.svg	30	yes	57	0	490	0	0			0	0			1				0	
6.6.1	mac	2023-07-07	13:29:39	13:35:58	376000	63d4251f684e52575206f44b	3	1	main_slash	7	main_slash	97	stimuli_target_rectanglediamonds.svg	stimuli_distractor_trianglediamonds.svg	2	yes	53	1	799	0	0			0	0			1				0	
6.6.1	mac	2023-07-07	13:29:39	13:35:58	376000	63d4251f684e52575206f44b	3	1	main_slash	7	advance_on_keypress_SLASH	98	stimuli_target_rectanglediamonds.svg	stimuli_distractor_trianglediamonds.svg	2	yes	57	0	510	0	0			0	0			1				0	
6.6.1	mac	2023-07-07	13:29:39	13:36:00	377961	63d4251f684e52575206f44b	3	1	main_slash	7	main_slash	99	stimuli_distractor_diamondtriangles.svg	stimuli_target_rectangletriangles.svg	13	yes	53	1	824	0	0			0	0			1				0	
6.6.1	mac	2023-07-07	13:29:39	13:36:00	377961	63d4251f684e52575206f44b	3	1	main_slash	7	advance_on_keypress_SLASH	100	stimuli_distractor_diamondtriangles.svg	stimuli_target_rectangletriangles.svg	13	yes	57	0	529	0	0			0	0			1				0	
6.6.1	mac	2023-07-07	13:29:39	13:36:02	380063	63d4251f684e52575206f44b	3	1	main_slash	7	main_slash	101	stimuli_target_diamondsquares.svg	stimuli_distractor_trianglediamonds.svg	20	yes	53	1	949	0	0			0	0			1				0	
6.6.1	mac	2023-07-07	13:29:39	13:36:02	380063	63d4251f684e52575206f44b	3	1	main_slash	7	advance_on_keypress_SLASH	102	stimuli_target_diamondsquares.svg	stimuli_distractor_trianglediamonds.svg	20	yes	57	0	467	0	0			0	0			1				0	
6.6.1	mac	2023-07-07	13:29:39	13:36:05	383159	63d4251f684e52575206f44b	3	1	main_slash	7	main_slash	103	stimuli_distractor_diamondtriangles.svg	stimuli_distractor_diamondtriangles.svg	40	no	0	1	2000	0	0			0	0			1				0	
6.6.1	mac	2023-07-07	13:29:39	13:36:05	383159	63d4251f684e52575206f44b	3	1	main_slash	7	advance_on_keypress_SLASH	104	stimuli_distractor_diamondtriangles.svg	stimuli_distractor_diamondtriangles.svg	40	no	57	0	14547	0	0			0	0			1				0	
6.6.1	mac	2023-07-07	13:29:39	13:36:21	399047	63d4251f684e52575206f44b	3	1	main_slash	7	main_slash	105	stimuli_distractor_diamondtriangles.svg	stimuli_target_diamondsquares.svg	32	yes	53	1	707	0	0			0	0			1				0	
6.6.1	mac	2023-07-07	13:29:39	13:36:21	399047	63d4251f684e52575206f44b	3	1	main_slash	7	advance_on_keypress_SLASH	106	stimuli_distractor_diamondtriangles.svg	stimuli_target_diamondsquares.svg	32	yes	57	0	1374	0	0			0	0			1				0	
6.6.1	mac	2023-07-07	13:29:39	13:36:24	401852	63d4251f684e52575206f44b	3	1	main_slash	7	main_slash	107	stimuli_distractor_diamondtriangles.svg	stimuli_target_diamondrectangles.svg	31	yes	53	1	796	0	0			0	0			1				0	
6.6.1	mac	2023-07-07	13:29:39	13:36:24	401852	63d4251f684e52575206f44b	3	1	main_slash	7	advance_on_keypress_SLASH	108	stimuli_distractor_diamondtriangles.svg	stimuli_target_diamondrectangles.svg	31	yes	57	0	522	0	0			0	0			1				0	
6.6.1	mac	2023-07-07	13:29:39	13:36:26	403769	63d4251f684e52575206f44b	3	1	main_slash	7	main_slash	109	stimuli_target_trianglesquares.svg	stimuli_distractor_trianglediamonds.svg	18	yes	53	1	772	0	0			0	0			1				0	
6.6.1	mac	2023-07-07	13:29:39	13:36:26	403769	63d4251f684e52575206f44b	3	1	main_slash	7	advance_on_keypress_SLASH	110	stimuli_target_trianglesquares.svg	stimuli_distractor_trianglediamonds.svg	18	yes	57	0	665	0	0			0	0			1				0	
6.6.1	mac	2023-07-07	13:29:39	13:36:28	405808	63d4251f684e52575206f44b	3	1	main_slash	7	main_slash	111	stimuli_target_rectanglediamonds.svg	stimuli_distractor_diamondtriangles.svg	6	yes	53	1	742	0	0			0	0			1				0	
6.6.1	mac	2023-07-07	13:29:39	13:36:28	405808	63d4251f684e52575206f44b	3	1	main_slash	7	advance_on_keypress_SLASH	112	stimuli_target_rectanglediamonds.svg	stimuli_distractor_diamondtriangles.svg	6	yes	57	0	484	0	0			0	0			1				0	
6.6.1	mac	2023-07-07	13:29:39	13:36:30	407871	63d4251f684e52575206f44b	3	1	main_slash	7	main_slash	113	stimuli_target_trianglerectangles.svg	stimuli_distractor_trianglediamonds.svg	17	yes	53	1	947	0	0			0	0			1				0	
6.6.1	mac	2023-07-07	13:29:39	13:36:30	407871	63d4251f684e52575206f44b	3	1	main_slash	7	advance_on_keypress_SLASH	114	stimuli_target_trianglerectangles.svg	stimuli_distractor_trianglediamonds.svg	17	yes	57	0	491	0	0			0	0			1				0	
6.6.1	mac	2023-07-07	13:29:39	13:36:32	409866	63d4251f684e52575206f44b	3	1	main_slash	7	main_slash	115	stimuli_target_squaretriangles.svg	stimuli_distractor_trianglediamonds.svg	3	yes	53	1	868	0	0			0	0			1				0	
6.6.1	mac	2023-07-07	13:29:39	13:36:32	409866	63d4251f684e52575206f44b	3	1	main_slash	7	advance_on_keypress_SLASH	116	stimuli_target_squaretriangles.svg	stimuli_distractor_trianglediamonds.svg	3	yes	57	0	471	0	0			0	0			1				0	
6.6.1	mac	2023-07-07	13:29:39	13:36:35	412248	63d4251f684e52575206f44b	3	1	main_slash	7	main_slash	117	stimuli_distractor_trianglediamonds.svg	stimuli_target_trianglerectangles.svg	25	yes	53	1	1269	0	0			0	0			1				0	
6.6.1	mac	2023-07-07	13:29:39	13:36:35	412248	63d4251f684e52575206f44b	3	1	main_slash	7	advance_on_keypress_SLASH	118	stimuli_distractor_trianglediamonds.svg	stimuli_target_trianglerectangles.svg	25	yes	57	0	677	0	0			0	0			1				0	
6.6.1	mac	2023-07-07	13:29:39	13:36:37	414368	63d4251f684e52575206f44b	3	1	main_slash	7	main_slash	119	stimuli_distractor_trianglediamonds.svg	stimuli_target_trianglesquares.svg	26	yes	53	1	802	0	0			0	0			1				0	
6.6.1	mac	2023-07-07	13:29:39	13:36:37	414368	63d4251f684e52575206f44b	3	1	main_slash	7	advance_on_keypress_SLASH	120	stimuli_distractor_trianglediamonds.svg	stimuli_target_trianglesquares.svg	26	yes	57	0	770	0	0			0	0			1				0	
6.6.1	mac	2023-07-07	13:29:39	13:36:39	416489	63d4251f684e52575206f44b	3	1	main_slash	7	main_slash	121	stimuli_target_squarediamonds.svg	stimuli_distractor_diamondtriangles.svg	8	yes	53	1	721	0	0			0	0			1				0	
6.6.1	mac	2023-07-07	13:29:39	13:36:39	416489	63d4251f684e52575206f44b	3	1	main_slash	7	advance_on_keypress_SLASH	122	stimuli_target_squarediamonds.svg	stimuli_distractor_diamondtriangles.svg	8	yes	57	0	524	0	0			0	0			1				0	
6.6.1	mac	2023-07-07	13:29:39	13:36:42	419639	63d4251f684e52575206f44b	3	1	main_slash	7	main_slash	123	stimuli_distractor_trianglediamonds.svg	stimuli_target_diamondrectangles.svg	27	yes	0	0	2000	0	0			0	0			1				0	
6.6.1	mac	2023-07-07	13:29:39	13:36:42	419639	63d4251f684e52575206f44b	3	1	main_slash	7	advance_on_keypress_SLASH	124	stimuli_distractor_trianglediamonds.svg	stimuli_target_diamondrectangles.svg	27	yes	57	0	557	0	0			0	0			1				0	
6.6.1	mac	2023-07-07	13:29:39	13:36:44	421816	63d4251f684e52575206f44b	3	1	main_slash	7	main_slash	125	stimuli_distractor_diamondtriangles.svg	stimuli_distractor_trianglediamonds.svg	38	no	53	0	1005	0	0			0	0			1				0	
6.6.1	mac	2023-07-07	13:29:39	13:36:44	421816	63d4251f684e52575206f44b	3	1	main_slash	7	advance_on_keypress_SLASH	126	stimuli_distractor_diamondtriangles.svg	stimuli_distractor_trianglediamonds.svg	38	no	57	0	465	0	0			0	0			1				0	
6.6.1	mac	2023-07-07	13:29:39	13:36:46	423702	63d4251f684e52575206f44b	3	1	main_slash	7	main_slash	127	stimuli_target_squarediamonds.svg	stimuli_distractor_trianglediamonds.svg	4	yes	53	1	783	0	0			0	0			1				0	
6.6.1	mac	2023-07-07	13:29:39	13:36:46	423702	63d4251f684e52575206f44b	3	1	main_slash	7	advance_on_keypress_SLASH	128	stimuli_target_squarediamonds.svg	stimuli_distractor_trianglediamonds.svg	4	yes	57	0	431	0	0			0	0			1				0	
6.6.1	mac	2023-07-07	13:29:39	13:36:48	425576	63d4251f684e52575206f44b	3	1	main_slash	7	main_slash	129	stimuli_target_rectangletriangles.svg	stimuli_distractor_diamondtriangles.svg	5	yes	53	1	812	0	0			0	0			1				0	
6.6.1	mac	2023-07-07	13:29:39	13:36:48	425576	63d4251f684e52575206f44b	3	1	main_slash	7	advance_on_keypress_SLASH	130	stimuli_target_rectangletriangles.svg	stimuli_distractor_diamondtriangles.svg	5	yes	57	0	470	0	0			0	0			1				0	
6.6.1	mac	2023-07-07	13:29:39	13:36:50	427541	63d4251f684e52575206f44b	3	1	main_slash	7	main_slash	131	stimuli_distractor_diamondtriangles.svg	stimuli_target_rectanglediamonds.svg	14	yes	53	1	861	0	0			0	0			1				0	
6.6.1	mac	2023-07-07	13:29:39	13:36:50	427541	63d4251f684e52575206f44b	3	1	main_slash	7	advance_on_keypress_SLASH	132	stimuli_distractor_diamondtriangles.svg	stimuli_target_rectanglediamonds.svg	14	yes	57	0	402	0	0			0	0			1				0	
6.6.1	mac	2023-07-07	13:29:39	13:36:52	429431	63d4251f684e52575206f44b	3	1	main_slash	7	main_slash	133	stimuli_target_rectangletriangles.svg	stimuli_distractor_trianglediamonds.svg	1	yes	53	1	845	0	0			0	0			1				0	
6.6.1	mac	2023-07-07	13:29:39	13:36:52	429431	63d4251f684e52575206f44b	3	1	main_slash	7	advance_on_keypress_SLASH	134	stimuli_target_rectangletriangles.svg	stimuli_distractor_trianglediamonds.svg	1	yes	57	0	480	0	0			0	0			1				0	
6.6.1	mac	2023-07-07	13:29:39	13:36:55	432534	63d4251f684e52575206f44b	3	1	main_slash	7	main_slash	135	stimuli_distractor_trianglediamonds.svg	stimuli_distractor_diamondtriangles.svg	35	no	0	1	2000	0	0			0	0			1				0	
6.6.1	mac	2023-07-07	13:29:39	13:36:55	432534	63d4251f684e52575206f44b	3	1	main_slash	7	advance_on_keypress_SLASH	136	stimuli_distractor_trianglediamonds.svg	stimuli_distractor_diamondtriangles.svg	35	no	57	0	507	0	0			0	0			1				0	
6.6.1	mac	2023-07-07	13:29:39	13:36:57	434520	63d4251f684e52575206f44b	3	1	main_slash	7	main_slash	137	stimuli_distractor_trianglediamonds.svg	stimuli_target_squaretriangles.svg	11	yes	53	1	849	0	0			0	0			1				0	
6.6.1	mac	2023-07-07	13:29:39	13:36:57	434520	63d4251f684e52575206f44b	3	1	main_slash	7	advance_on_keypress_SLASH	138	stimuli_distractor_trianglediamonds.svg	stimuli_target_squaretriangles.svg	11	yes	57	0	463	0	0			0	0			1				0	
6.6.1	mac	2023-07-07	13:29:39	13:37:00	437615	63d4251f684e52575206f44b	3	1	main_slash	7	main_slash	139	stimuli_distractor_diamondtriangles.svg	stimuli_target_trianglerectangles.svg	29	yes	0	0	2000	0	0			0	0			1				0	
6.6.1	mac	2023-07-07	13:29:39	13:37:00	437615	63d4251f684e52575206f44b	3	1	main_slash	7	advance_on_keypress_SLASH	140	stimuli_distractor_diamondtriangles.svg	stimuli_target_trianglerectangles.svg	29	yes	57	0	387	0	0			0	0			1				0	
6.6.1	mac	2023-07-07	13:29:39	13:37:02	439450	63d4251f684e52575206f44b	3	1	main_slash	7	main_slash	141	stimuli_distractor_trianglediamonds.svg	stimuli_target_rectangletriangles.svg	9	yes	53	1	830	0	0			0	0			1				0	
6.6.1	mac	2023-07-07	13:29:39	13:37:02	439450	63d4251f684e52575206f44b	3	1	main_slash	7	advance_on_keypress_SLASH	142	stimuli_distractor_trianglediamonds.svg	stimuli_target_rectangletriangles.svg	9	yes	57	0	455	0	0			0	0			1				0	
6.6.1	mac	2023-07-07	13:29:39	13:37:04	441720	63d4251f684e52575206f44b	3	1	main_slash	7	main_slash	143	stimuli_distractor_diamondtriangles.svg	stimuli_distractor_trianglediamonds.svg	37	no	53	0	1185	0	0			0	0			1				0	
6.6.1	mac	2023-07-07	13:29:39	13:37:04	441720	63d4251f684e52575206f44b	3	1	main_slash	7	advance_on_keypress_SLASH	144	stimuli_distractor_diamondtriangles.svg	stimuli_distractor_trianglediamonds.svg	37	no	57	0	431	0	0			0	0			1				0	
6.6.1	mac	2023-07-07	13:29:39	13:37:06	443699	63d4251f684e52575206f44b	3	1	main_slash	7	main_slash	145	stimuli_target_diamondrectangles.svg	stimuli_distractor_trianglediamonds.svg	19	yes	53	1	929	0	0			0	0			1				0	
6.6.1	mac	2023-07-07	13:29:39	13:37:06	443699	63d4251f684e52575206f44b	3	1	main_slash	7	advance_on_keypress_SLASH	146	stimuli_target_diamondrectangles.svg	stimuli_distractor_trianglediamonds.svg	19	yes	57	0	439	0	0			0	0			1				0	
6.6.1	mac	2023-07-07	13:29:39	13:37:09	446762	63d4251f684e52575206f44b	3	1	main_slash	7	main_slash	147	stimuli_distractor_trianglediamonds.svg	stimuli_distractor_diamondtriangles.svg	36	no	0	1	2000	0	0			0	0			1				0	
6.6.1	mac	2023-07-07	13:29:39	13:37:09	446762	63d4251f684e52575206f44b	3	1	main_slash	7	advance_on_keypress_SLASH	148	stimuli_distractor_trianglediamonds.svg	stimuli_distractor_diamondtriangles.svg	36	no	57	0	437	0	0			0	0			1				0	
6.6.1	mac	2023-07-07	13:29:39	13:37:12	449826	63d4251f684e52575206f44b	3	1	main_slash	7	main_slash	149	stimuli_distractor_diamondtriangles.svg	stimuli_distractor_diamondtriangles.svg	39	no	0	1	2000	0	0			0	0			1				0	
6.6.1	mac	2023-07-07	13:29:39	13:37:12	449826	63d4251f684e52575206f44b	3	1	main_slash	7	advance_on_keypress_SLASH	150	stimuli_distractor_diamondtriangles.svg	stimuli_distractor_diamondtriangles.svg	39	no	57	0	285	0	0			0	0			1				0	
6.6.1	mac	2023-07-07	13:29:39	13:37:14	451419	63d4251f684e52575206f44b	3	1	main_slash	7	main_slash	151	stimuli_distractor_diamondtriangles.svg	stimuli_target_squaretriangles.svg	15	yes	53	1	692	0	0			0	0			1				0	
6.6.1	mac	2023-07-07	13:29:39	13:37:14	451419	63d4251f684e52575206f44b	3	1	main_slash	7	advance_on_keypress_SLASH	152	stimuli_distractor_diamondtriangles.svg	stimuli_target_squaretriangles.svg	15	yes	57	0	505	0	0			0	0			1				0	
6.6.1	mac	2023-07-07	13:29:39	13:37:16	453592	63d4251f684e52575206f44b	3	1	main_slash	7	main_slash	153	stimuli_target_trianglerectangles.svg	stimuli_distractor_diamondtriangles.svg	21	yes	53	1	1033	0	0			0	0			1				0	
6.6.1	mac	2023-07-07	13:29:39	13:37:16	453592	63d4251f684e52575206f44b	3	1	main_slash	7	advance_on_keypress_SLASH	154	stimuli_target_trianglerectangles.svg	stimuli_distractor_diamondtriangles.svg	21	yes	57	0	378	0	0			0	0			1				0	
6.6.1	mac	2023-07-07	13:29:39	13:37:18	455631	63d4251f684e52575206f44b	3	1	main_slash	7	main_slash	155	stimuli_target_diamondrectangles.svg	stimuli_distractor_diamondtriangles.svg	23	yes	53	1	1023	0	0			0	0			1				0	
6.6.1	mac	2023-07-07	13:29:39	13:37:18	455631	63d4251f684e52575206f44b	3	1	main_slash	7	advance_on_keypress_SLASH	156	stimuli_target_diamondrectangles.svg	stimuli_distractor_diamondtriangles.svg	23	yes	57	0	432	0	0			0	0			1				0	
6.6.1	mac	2023-07-07	13:29:39	13:37:21	458681	63d4251f684e52575206f44b	3	1	main_slash	7	main_slash	157	stimuli_distractor_trianglediamonds.svg	stimuli_target_rectanglediamonds.svg	10	yes	0	0	2000	0	0			0	0			1				0	
6.6.1	mac	2023-07-07	13:29:39	13:37:21	458681	63d4251f684e52575206f44b	3	1	main_slash	7	advance_on_keypress_SLASH	158	stimuli_distractor_trianglediamonds.svg	stimuli_target_rectanglediamonds.svg	10	yes	57	0	949	0	0			0	0			1				0	
6.6.1	mac	2023-07-07	13:29:39	13:37:24	461406	63d4251f684e52575206f44b	3	1	main_slash	7	main_slash	159	stimuli_target_trianglesquares.svg	stimuli_distractor_diamondtriangles.svg	22	yes	53	1	1142	0	0			0	0			1				0	
6.6.1	mac	2023-07-07	13:29:39	13:37:24	461406	63d4251f684e52575206f44b	3	1	main_slash	7	advance_on_keypress_SLASH	160	stimuli_target_trianglesquares.svg	stimuli_distractor_diamondtriangles.svg	22	yes	57	0	596	0	0			0	0			1				0	
6.6.1	mac	2023-07-07	13:29:39	13:38:07	504390	63d4251f684e52575206f44b	3	1	practice_z	9	practice_z	1	stimuli_distractor_diamondtriangles.svg	stimuli_distractor_diamondtriangles.svg	13	no	0	1	2000	0	0			0	0			1				0	
6.6.1	mac	2023-07-07	13:29:39	13:38:07	504390	63d4251f684e52575206f44b	3	1	practice_z	9	advance_on_keypress_ZEE	2	stimuli_distractor_diamondtriangles.svg	stimuli_distractor_diamondtriangles.svg	13	no	57	0	685	0	0			0	0			1				0	
6.6.1	mac	2023-07-07	13:29:39	13:38:10	507388	63d4251f684e52575206f44b	3	1	practice_z	9	practice_z	3	stimuli_distractor_trianglediamonds.svg	stimuli_target_squarediamonds.svg	11	yes	44	1	680	0	0			0	0			1				0	
6.6.1	mac	2023-07-07	13:29:39	13:38:10	507388	63d4251f684e52575206f44b	3	1	practice_z	9	advance_on_keypress_ZEE	4	stimuli_distractor_trianglediamonds.svg	stimuli_target_squarediamonds.svg	11	yes	57	0	476	0	0			0	0			1				0	
6.6.1	mac	2023-07-07	13:29:39	13:38:13	510252	63d4251f684e52575206f44b	3	1	practice_z	9	practice_z	5	stimuli_distractor_trianglediamonds.svg	stimuli_target_rectanglediamonds.svg	10	yes	44	1	750	0	0			0	0			1				0	
6.6.1	mac	2023-07-07	13:29:39	13:38:13	510252	63d4251f684e52575206f44b	3	1	practice_z	9	advance_on_keypress_ZEE	6	stimuli_distractor_trianglediamonds.svg	stimuli_target_rectanglediamonds.svg	10	yes	57	0	448	0	0			0	0			1				0	
6.6.1	mac	2023-07-07	13:29:39	13:38:15	513092	63d4251f684e52575206f44b	3	1	practice_z	9	practice_z	7	stimuli_distractor_diamondtriangles.svg	stimuli_target_trianglerectangles.svg	9	yes	44	1	753	0	0			0	0			1				0	
6.6.1	mac	2023-07-07	13:29:39	13:38:15	513092	63d4251f684e52575206f44b	3	1	practice_z	9	advance_on_keypress_ZEE	8	stimuli_distractor_diamondtriangles.svg	stimuli_target_trianglerectangles.svg	9	yes	57	0	436	0	0			0	0			1				0	
6.6.1	mac	2023-07-07	13:29:39	13:38:19	517158	63d4251f684e52575206f44b	3	1	practice_z	9	practice_z	9	stimuli_distractor_trianglediamonds.svg	stimuli_distractor_trianglediamonds.svg	15	no	0	1	2000	0	0			0	0			1				0	
6.6.1	mac	2023-07-07	13:29:39	13:38:19	517158	63d4251f684e52575206f44b	3	1	practice_z	9	advance_on_keypress_ZEE	10	stimuli_distractor_trianglediamonds.svg	stimuli_distractor_trianglediamonds.svg	15	no	57	0	446	0	0			0	0			1				0	
6.6.1	mac	2023-07-07	13:29:39	13:38:22	520049	63d4251f684e52575206f44b	3	1	practice_z	9	practice_z	11	stimuli_target_squarediamonds.svg	stimuli_distractor_trianglediamonds.svg	5	yes	44	1	807	0	0			0	0			1				0	
6.6.1	mac	2023-07-07	13:29:39	13:38:22	520049	63d4251f684e52575206f44b	3	1	practice_z	9	advance_on_keypress_ZEE	12	stimuli_target_squarediamonds.svg	stimuli_distractor_trianglediamonds.svg	5	yes	57	0	468	0	0			0	0			1				0	
6.6.1	mac	2023-07-07	13:29:39	13:38:26	523293	63d4251f684e52575206f44b	3	1	practice_z	9	practice_z	13	stimuli_distractor_diamondtriangles.svg	stimuli_target_diamondrectangles.svg	8	yes	44	1	1145	0	0			0	0			1				0	
6.6.1	mac	2023-07-07	13:29:39	13:38:26	523293	63d4251f684e52575206f44b	3	1	practice_z	9	advance_on_keypress_ZEE	14	stimuli_distractor_diamondtriangles.svg	stimuli_target_diamondrectangles.svg	8	yes	57	0	266	0	0			0	0			1				0	
6.6.1	mac	2023-07-07	13:29:39	13:38:28	525990	63d4251f684e52575206f44b	3	1	practice_z	9	practice_z	15	stimuli_target_squarediamonds.svg	stimuli_distractor_diamondtriangles.svg	2	yes	44	1	792	0	0			0	0			1				0	
6.6.1	mac	2023-07-07	13:29:39	13:38:28	525990	63d4251f684e52575206f44b	3	1	practice_z	9	advance_on_keypress_ZEE	16	stimuli_target_squarediamonds.svg	stimuli_distractor_diamondtriangles.svg	2	yes	57	0	447	0	0			0	0			1				0	
6.6.1	mac	2023-07-07	13:29:39	13:38:31	528914	63d4251f684e52575206f44b	3	1	practice_z	9	practice_z	17	stimuli_distractor_trianglediamonds.svg	stimuli_distractor_diamondtriangles.svg	16	no	44	0	853	0	0			0	0			1				0	
6.6.1	mac	2023-07-07	13:29:39	13:38:31	528914	63d4251f684e52575206f44b	3	1	practice_z	9	advance_on_keypress_ZEE	18	stimuli_distractor_trianglediamonds.svg	stimuli_distractor_diamondtriangles.svg	16	no	57	0	480	0	0			0	0			1				0	
6.6.1	mac	2023-07-07	13:29:39	13:38:34	531863	63d4251f684e52575206f44b	3	1	practice_z	9	practice_z	19	stimuli_target_diamondsquares.svg	stimuli_distractor_trianglediamonds.svg	6	yes	44	1	832	0	0			0	0			1				0	
6.6.1	mac	2023-07-07	13:29:39	13:38:34	531863	63d4251f684e52575206f44b	3	1	practice_z	9	advance_on_keypress_ZEE	20	stimuli_target_diamondsquares.svg	stimuli_distractor_trianglediamonds.svg	6	yes	57	0	273	0	0			0	0			1				0	
6.6.1	mac	2023-07-07	13:29:39	13:38:38	535780	63d4251f684e52575206f44b	3	1	practice_z	9	practice_z	21	stimuli_distractor_diamondtriangles.svg	stimuli_distractor_trianglediamonds.svg	14	no	0	1	2000	0	0			0	0			1				0	
6.6.1	mac	2023-07-07	13:29:39	13:38:38	535780	63d4251f684e52575206f44b	3	1	practice_z	9	advance_on_keypress_ZEE	22	stimuli_distractor_diamondtriangles.svg	stimuli_distractor_trianglediamonds.svg	14	no	57	0	290	0	0			0	0			1				0	
6.6.1	mac	2023-07-07	13:29:39	13:38:41	538513	63d4251f684e52575206f44b	3	1	practice_z	9	practice_z	23	stimuli_target_rectanglediamonds.svg	stimuli_distractor_diamondtriangles.svg	1	yes	44	1	801	0	0			0	0			1				0	
6.6.1	mac	2023-07-07	13:29:39	13:38:41	538513	63d4251f684e52575206f44b	3	1	practice_z	9	advance_on_keypress_ZEE	24	stimuli_target_rectanglediamonds.svg	stimuli_distractor_diamondtriangles.svg	1	yes	57	0	323	0	0			0	0			1				0	
6.6.1	mac	2023-07-07	13:29:39	13:38:44	541437	63d4251f684e52575206f44b	3	1	practice_z	9	practice_z	25	stimuli_target_rectanglediamonds.svg	stimuli_distractor_trianglediamonds.svg	4	yes	44	1	968	0	0			0	0			1				0	
6.6.1	mac	2023-07-07	13:29:39	13:38:44	541437	63d4251f684e52575206f44b	3	1	practice_z	9	advance_on_keypress_ZEE	26	stimuli_target_rectanglediamonds.svg	stimuli_distractor_trianglediamonds.svg	4	yes	57	0	317	0	0			0	0			1				0	
6.6.1	mac	2023-07-07	13:29:39	13:38:46	544207	63d4251f684e52575206f44b	3	1	practice_z	9	practice_z	27	stimuli_distractor_diamondtriangles.svg	stimuli_target_rectangletriangles.svg	7	yes	44	1	809	0	0			0	0			1				0	
6.6.1	mac	2023-07-07	13:29:39	13:38:46	544207	63d4251f684e52575206f44b	3	1	practice_z	9	advance_on_keypress_ZEE	28	stimuli_distractor_diamondtriangles.svg	stimuli_target_rectangletriangles.svg	7	yes	57	0	338	0	0			0	0			1				0	
6.6.1	mac	2023-07-07	13:29:39	13:38:49	547039	63d4251f684e52575206f44b	3	1	practice_z	9	practice_z	29	stimuli_target_diamondsquares.svg	stimuli_distractor_diamondtriangles.svg	3	yes	44	1	852	0	0			0	0			1				0	
6.6.1	mac	2023-07-07	13:29:39	13:38:49	547039	63d4251f684e52575206f44b	3	1	practice_z	9	advance_on_keypress_ZEE	30	stimuli_target_diamondsquares.svg	stimuli_distractor_diamondtriangles.svg	3	yes	57	0	385	0	0			0	0			1				0	
6.6.1	mac	2023-07-07	13:29:39	13:38:52	549975	63d4251f684e52575206f44b	3	1	practice_z	9	practice_z	31	stimuli_distractor_trianglediamonds.svg	stimuli_target_diamondrectangles.svg	12	yes	44	1	926	0	0			0	0			1				0	
6.6.1	mac	2023-07-07	13:29:39	13:38:52	549975	63d4251f684e52575206f44b	3	1	practice_z	9	advance_on_keypress_ZEE	32	stimuli_distractor_trianglediamonds.svg	stimuli_target_diamondrectangles.svg	12	yes	57	0	251	0	0			0	0			1				0	
6.6.1	mac	2023-07-07	13:29:39	13:39:24	581521	63d4251f684e52575206f44b	3	1	main_z	11	main_z	1	stimuli_distractor_trianglediamonds.svg	stimuli_distractor_trianglediamonds.svg	34	no	44	0	859	0	0			0	0			1				0	
6.6.1	mac	2023-07-07	13:29:39	13:39:24	581521	63d4251f684e52575206f44b	3	1	main_z	11	advance_on_keypress_ZEE	2	stimuli_distractor_trianglediamonds.svg	stimuli_distractor_trianglediamonds.svg	34	no	57	0	652	0	0			0	0			1				0	
6.6.1	mac	2023-07-07	13:29:39	13:39:27	584810	63d4251f684e52575206f44b	3	1	main_z	11	main_z	3	stimuli_distractor_trianglediamonds.svg	stimuli_distractor_diamondtriangles.svg	36	no	0	1	2000	0	0			0	0			1				0	
6.6.1	mac	2023-07-07	13:29:39	13:39:27	584810	63d4251f684e52575206f44b	3	1	main_z	11	advance_on_keypress_ZEE	4	stimuli_distractor_trianglediamonds.svg	stimuli_distractor_diamondtriangles.svg	36	no	57	0	335	0	0			0	0			1				0	
6.6.1	mac	2023-07-07	13:29:39	13:39:29	586601	63d4251f684e52575206f44b	3	1	main_z	11	main_z	5	stimuli_target_squarediamonds.svg	stimuli_distractor_diamondtriangles.svg	8	yes	44	1	829	0	0			0	0			1				0	
6.6.1	mac	2023-07-07	13:29:39	13:39:29	586601	63d4251f684e52575206f44b	3	1	main_z	11	advance_on_keypress_ZEE	6	stimuli_target_squarediamonds.svg	stimuli_distractor_diamondtriangles.svg	8	yes	57	0	899	0	0			0	0			1				0	
6.6.1	mac	2023-07-07	13:29:39	13:39:32	590117	63d4251f684e52575206f44b	3	1	main_z	11	main_z	7	stimuli_distractor_diamondtriangles.svg	stimuli_distractor_diamondtriangles.svg	40	no	0	1	2000	0	0			0	0			1				0	
6.6.1	mac	2023-07-07	13:29:39	13:39:32	590117	63d4251f684e52575206f44b	3	1	main_z	11	advance_on_keypress_ZEE	8	stimuli_distractor_diamondtriangles.svg	stimuli_distractor_diamondtriangles.svg	40	no	57	0	408	0	0			0	0			1				0	
6.6.1	mac	2023-07-07	13:29:39	13:39:34	591942	63d4251f684e52575206f44b	3	1	main_z	11	main_z	9	stimuli_distractor_trianglediamonds.svg	stimuli_target_rectangletriangles.svg	9	yes	44	1	789	0	0			0	0			1				0	
6.6.1	mac	2023-07-07	13:29:39	13:39:34	591942	63d4251f684e52575206f44b	3	1	main_z	11	advance_on_keypress_ZEE	10	stimuli_distractor_trianglediamonds.svg	stimuli_target_rectangletriangles.svg	9	yes	57	0	573	0	0			0	0			1				0	
6.6.1	mac	2023-07-07	13:29:39	13:39:36	594193	63d4251f684e52575206f44b	3	1	main_z	11	main_z	11	stimuli_target_trianglerectangles.svg	stimuli_distractor_trianglediamonds.svg	17	yes	44	1	1037	0	0			0	0			1				0	
6.6.1	mac	2023-07-07	13:29:39	13:39:36	594193	63d4251f684e52575206f44b	3	1	main_z	11	advance_on_keypress_ZEE	12	stimuli_target_trianglerectangles.svg	stimuli_distractor_trianglediamonds.svg	17	yes	57	0	467	0	0			0	0			1				0	
6.6.1	mac	2023-07-07	13:29:39	13:39:38	596082	63d4251f684e52575206f44b	3	1	main_z	11	main_z	13	stimuli_target_rectangletriangles.svg	stimuli_distractor_trianglediamonds.svg	1	yes	44	1	793	0	0			0	0			1				0	
6.6.1	mac	2023-07-07	13:29:39	13:39:38	596082	63d4251f684e52575206f44b	3	1	main_z	11	advance_on_keypress_ZEE	14	stimuli_target_rectangletriangles.svg	stimuli_distractor_trianglediamonds.svg	1	yes	57	0	471	0	0			0	0			1				0	
6.6.1	mac	2023-07-07	13:29:39	13:39:40	598127	63d4251f684e52575206f44b	3	1	main_z	11	main_z	15	stimuli_target_diamondsquares.svg	stimuli_distractor_diamondtriangles.svg	24	yes	44	1	929	0	0			0	0			1				0	
6.6.1	mac	2023-07-07	13:29:39	13:39:40	598127	63d4251f684e52575206f44b	3	1	main_z	11	advance_on_keypress_ZEE	16	stimuli_target_diamondsquares.svg	stimuli_distractor_diamondtriangles.svg	24	yes	57	0	501	0	0			0	0			1				0	
6.6.1	mac	2023-07-07	13:29:39	13:39:42	600081	63d4251f684e52575206f44b	3	1	main_z	11	main_z	17	stimuli_distractor_diamondtriangles.svg	stimuli_target_trianglesquares.svg	30	yes	44	1	837	0	0			0	0			1				0	
6.6.1	mac	2023-07-07	13:29:39	13:39:42	600081	63d4251f684e52575206f44b	3	1	main_z	11	advance_on_keypress_ZEE	18	stimuli_distractor_diamondtriangles.svg	stimuli_target_trianglesquares.svg	30	yes	57	0	451	0	0			0	0			1				0	
6.6.1	mac	2023-07-07	13:29:39	13:39:44	601950	63d4251f684e52575206f44b	3	1	main_z	11	main_z	19	stimuli_distractor_trianglediamonds.svg	stimuli_target_squarediamonds.svg	12	yes	44	1	785	0	0			0	0			1				0	
6.6.1	mac	2023-07-07	13:29:39	13:39:44	601950	63d4251f684e52575206f44b	3	1	main_z	11	advance_on_keypress_ZEE	20	stimuli_distractor_trianglediamonds.svg	stimuli_target_squarediamonds.svg	12	yes	57	0	369	0	0			0	0			1				0	
6.6.1	mac	2023-07-07	13:29:39	13:39:46	603939	63d4251f684e52575206f44b	3	1	main_z	11	main_z	21	stimuli_target_squaretriangles.svg	stimuli_distractor_trianglediamonds.svg	3	yes	44	1	987	0	0			0	0			1				0	
6.6.1	mac	2023-07-07	13:29:39	13:39:46	603939	63d4251f684e52575206f44b	3	1	main_z	11	advance_on_keypress_ZEE	22	stimuli_target_squaretriangles.svg	stimuli_distractor_trianglediamonds.svg	3	yes	57	0	522	0	0			0	0			1				0	
6.6.1	mac	2023-07-07	13:29:39	13:39:48	605989	63d4251f684e52575206f44b	3	1	main_z	11	main_z	23	stimuli_target_trianglerectangles.svg	stimuli_distractor_diamondtriangles.svg	21	yes	44	1	900	0	0			0	0			1				0	
6.6.1	mac	2023-07-07	13:29:39	13:39:48	605989	63d4251f684e52575206f44b	3	1	main_z	11	advance_on_keypress_ZEE	24	stimuli_target_trianglerectangles.svg	stimuli_distractor_diamondtriangles.svg	21	yes	57	0	381	0	0			0	0			1				0	
6.6.1	mac	2023-07-07	13:29:39	13:39:51	608991	63d4251f684e52575206f44b	3	1	main_z	11	main_z	25	stimuli_distractor_diamondtriangles.svg	stimuli_target_diamondrectangles.svg	31	yes	0	0	2000	0	0			0	0			1				0	
6.6.1	mac	2023-07-07	13:29:39	13:39:51	608991	63d4251f684e52575206f44b	3	1	main_z	11	advance_on_keypress_ZEE	26	stimuli_distractor_diamondtriangles.svg	stimuli_target_diamondrectangles.svg	31	yes	57	0	639	0	0			0	0			1				0	
6.6.1	mac	2023-07-07	13:29:39	13:39:55	612255	63d4251f684e52575206f44b	3	1	main_z	11	main_z	27	stimuli_distractor_trianglediamonds.svg	stimuli_distractor_trianglediamonds.svg	33	no	0	1	2000	0	0			0	0			1				0	
6.6.1	mac	2023-07-07	13:29:39	13:39:55	612255	63d4251f684e52575206f44b	3	1	main_z	11	advance_on_keypress_ZEE	28	stimuli_distractor_trianglediamonds.svg	stimuli_distractor_trianglediamonds.svg	33	no	57	0	309	0	0			0	0			1				0	
6.6.1	mac	2023-07-07	13:29:39	13:39:56	613978	63d4251f684e52575206f44b	3	1	main_z	11	main_z	29	stimuli_distractor_diamondtriangles.svg	stimuli_target_squaretriangles.svg	15	yes	44	1	790	0	0			0	0			1				0	
6.6.1	mac	2023-07-07	13:29:39	13:39:56	613978	63d4251f684e52575206f44b	3	1	main_z	11	advance_on_keypress_ZEE	30	stimuli_distractor_diamondtriangles.svg	stimuli_target_squaretriangles.svg	15	yes	57	0	596	0	0			0	0			1				0	
6.6.1	mac	2023-07-07	13:29:39	13:39:59	617196	63d4251f684e52575206f44b	3	1	main_z	11	main_z	31	stimuli_distractor_diamondtriangles.svg	stimuli_distractor_trianglediamonds.svg	38	no	0	1	2000	0	0			0	0			1				0	
6.6.1	mac	2023-07-07	13:29:39	13:39:59	617196	63d4251f684e52575206f44b	3	1	main_z	11	advance_on_keypress_ZEE	32	stimuli_distractor_diamondtriangles.svg	stimuli_distractor_trianglediamonds.svg	38	no	57	0	347	0	0			0	0			1				0	
6.6.1	mac	2023-07-07	13:29:39	13:40:01	619071	63d4251f684e52575206f44b	3	1	main_z	11	main_z	33	stimuli_target_rectanglediamonds.svg	stimuli_distractor_diamondtriangles.svg	6	yes	44	1	893	0	0			0	0			1				0	
6.6.1	mac	2023-07-07	13:29:39	13:40:01	619071	63d4251f684e52575206f44b	3	1	main_z	11	advance_on_keypress_ZEE	34	stimuli_target_rectanglediamonds.svg	stimuli_distractor_diamondtriangles.svg	6	yes	57	0	448	0	0			0	0			1				0	
6.6.1	mac	2023-07-07	13:29:39	13:40:03	621043	63d4251f684e52575206f44b	3	1	main_z	11	main_z	35	stimuli_target_rectanglediamonds.svg	stimuli_distractor_trianglediamonds.svg	2	yes	44	1	887	0	0			0	0			1				0	
6.6.1	mac	2023-07-07	13:29:39	13:40:03	621043	63d4251f684e52575206f44b	3	1	main_z	11	advance_on_keypress_ZEE	36	stimuli_target_rectanglediamonds.svg	stimuli_distractor_trianglediamonds.svg	2	yes	57	0	267	0	0			0	0			1				0	
6.6.1	mac	2023-07-07	13:29:39	13:40:05	622778	63d4251f684e52575206f44b	3	1	main_z	11	main_z	37	stimuli_distractor_trianglediamonds.svg	stimuli_target_rectanglediamonds.svg	10	yes	44	1	840	0	0			0	0			1				0	
6.6.1	mac	2023-07-07	13:29:39	13:40:05	622778	63d4251f684e52575206f44b	3	1	main_z	11	advance_on_keypress_ZEE	38	stimuli_distractor_trianglediamonds.svg	stimuli_target_rectanglediamonds.svg	10	yes	57	0	446	0	0			0	0			1				0	
6.6.1	mac	2023-07-07	13:29:39	13:40:07	624726	63d4251f684e52575206f44b	3	1	main_z	11	main_z	39	stimuli_target_trianglesquares.svg	stimuli_distractor_trianglediamonds.svg	18	yes	44	1	878	0	0			0	0			1				0	
6.6.1	mac	2023-07-07	13:29:39	13:40:07	624726	63d4251f684e52575206f44b	3	1	main_z	11	advance_on_keypress_ZEE	40	stimuli_target_trianglesquares.svg	stimuli_distractor_trianglediamonds.svg	18	yes	57	0	229	0	0			0	0			1				0	
6.6.1	mac	2023-07-07	13:29:39	13:40:09	626864	63d4251f684e52575206f44b	3	1	main_z	11	main_z	41	stimuli_distractor_diamondtriangles.svg	stimuli_distractor_trianglediamonds.svg	37	no	44	0	1291	0	0			0	0			1				0	
6.6.1	mac	2023-07-07	13:29:39	13:40:09	626864	63d4251f684e52575206f44b	3	1	main_z	11	advance_on_keypress_ZEE	42	stimuli_distractor_diamondtriangles.svg	stimuli_distractor_trianglediamonds.svg	37	no	57	0	320	0	0			0	0			1				0	
6.6.1	mac	2023-07-07	13:29:39	13:40:11	628616	63d4251f684e52575206f44b	3	1	main_z	11	main_z	43	stimuli_target_squaretriangles.svg	stimuli_distractor_diamondtriangles.svg	7	yes	44	1	802	0	0			0	0			1				0	
6.6.1	mac	2023-07-07	13:29:39	13:40:11	628616	63d4251f684e52575206f44b	3	1	main_z	11	advance_on_keypress_ZEE	44	stimuli_target_squaretriangles.svg	stimuli_distractor_diamondtriangles.svg	7	yes	57	0	264	0	0			0	0			1				0	
6.6.1	mac	2023-07-07	13:29:39	13:40:13	630558	63d4251f684e52575206f44b	3	1	main_z	11	main_z	45	stimuli_distractor_trianglediamonds.svg	stimuli_target_diamondrectangles.svg	27	yes	44	1	1041	0	0			0	0			1				0	
6.6.1	mac	2023-07-07	13:29:39	13:40:13	630558	63d4251f684e52575206f44b	3	1	main_z	11	advance_on_keypress_ZEE	46	stimuli_distractor_trianglediamonds.svg	stimuli_target_diamondrectangles.svg	27	yes	57	0	230	0	0			0	0			1				0	
6.6.1	mac	2023-07-07	13:29:39	13:40:15	632265	63d4251f684e52575206f44b	3	1	main_z	11	main_z	47	stimuli_distractor_trianglediamonds.svg	stimuli_target_squaretriangles.svg	11	yes	44	1	850	0	0			0	0			1				0	
6.6.1	mac	2023-07-07	13:29:39	13:40:15	632265	63d4251f684e52575206f44b	3	1	main_z	11	advance_on_keypress_ZEE	48	stimuli_distractor_trianglediamonds.svg	stimuli_target_squaretriangles.svg	11	yes	57	0	227	0	0			0	0			1				0	
6.6.1	mac	2023-07-07	13:29:39	13:40:16	634128	63d4251f684e52575206f44b	3	1	main_z	11	main_z	49	stimuli_distractor_trianglediamonds.svg	stimuli_target_trianglerectangles.svg	25	yes	44	1	999	0	0			0	0			1				0	
6.6.1	mac	2023-07-07	13:29:39	13:40:16	634128	63d4251f684e52575206f44b	3	1	main_z	11	advance_on_keypress_ZEE	50	stimuli_distractor_trianglediamonds.svg	stimuli_target_trianglerectangles.svg	25	yes	57	0	219	0	0			0	0			1				0	
6.6.1	mac	2023-07-07	13:29:39	13:40:18	635805	63d4251f684e52575206f44b	3	1	main_z	11	main_z	51	stimuli_distractor_diamondtriangles.svg	stimuli_target_rectangletriangles.svg	13	yes	44	1	829	0	0			0	0			1				0	
6.6.1	mac	2023-07-07	13:29:39	13:40:18	635805	63d4251f684e52575206f44b	3	1	main_z	11	advance_on_keypress_ZEE	52	stimuli_distractor_diamondtriangles.svg	stimuli_target_rectangletriangles.svg	13	yes	57	0	217	0	0			0	0			1				0	
6.6.1	mac	2023-07-07	13:29:39	13:40:20	637512	63d4251f684e52575206f44b	3	1	main_z	11	main_z	53	stimuli_distractor_diamondtriangles.svg	stimuli_target_squarediamonds.svg	16	yes	44	1	864	0	0			0	0			1				0	
6.6.1	mac	2023-07-07	13:29:39	13:40:20	637512	63d4251f684e52575206f44b	3	1	main_z	11	advance_on_keypress_ZEE	54	stimuli_distractor_diamondtriangles.svg	stimuli_target_squarediamonds.svg	16	yes	57	0	259	0	0			0	0			1				0	
6.6.1	mac	2023-07-07	13:29:39	13:40:22	639241	63d4251f684e52575206f44b	3	1	main_z	11	main_z	55	stimuli_target_squarediamonds.svg	stimuli_distractor_trianglediamonds.svg	4	yes	44	1	839	0	0			0	0			1				0	
6.6.1	mac	2023-07-07	13:29:39	13:40:22	639241	63d4251f684e52575206f44b	3	1	main_z	11	advance_on_keypress_ZEE	56	stimuli_target_squarediamonds.svg	stimuli_distractor_trianglediamonds.svg	4	yes	57	0	210	0	0			0	0			1				0	
6.6.1	mac	2023-07-07	13:29:39	13:40:23	641091	63d4251f684e52575206f44b	3	1	main_z	11	main_z	57	stimuli_target_diamondrectangles.svg	stimuli_distractor_diamondtriangles.svg	23	yes	44	1	1004	0	0			0	0			1				0	
6.6.1	mac	2023-07-07	13:29:39	13:40:23	641091	63d4251f684e52575206f44b	3	1	main_z	11	advance_on_keypress_ZEE	58	stimuli_target_diamondrectangles.svg	stimuli_distractor_diamondtriangles.svg	23	yes	57	0	259	0	0			0	0			1				0	
6.6.1	mac	2023-07-07	13:29:39	13:40:26	643969	63d4251f684e52575206f44b	3	1	main_z	11	main_z	59	stimuli_distractor_trianglediamonds.svg	stimuli_target_trianglesquares.svg	26	yes	0	0	2000	0	0			0	0			1				0	
6.6.1	mac	2023-07-07	13:29:39	13:40:26	643969	63d4251f684e52575206f44b	3	1	main_z	11	advance_on_keypress_ZEE	60	stimuli_distractor_trianglediamonds.svg	stimuli_target_trianglesquares.svg	26	yes	57	0	614	0	0			0	0			1				0	
6.6.1	mac	2023-07-07	13:29:39	13:40:28	646093	63d4251f684e52575206f44b	3	1	main_z	11	main_z	61	stimuli_target_rectangletriangles.svg	stimuli_distractor_diamondtriangles.svg	5	yes	44	1	892	0	0			0	0			1				0	
6.6.1	mac	2023-07-07	13:29:39	13:40:28	646093	63d4251f684e52575206f44b	3	1	main_z	11	advance_on_keypress_ZEE	62	stimuli_target_rectangletriangles.svg	stimuli_distractor_diamondtriangles.svg	5	yes	57	0	167	0	0			0	0			1				0	
6.6.1	mac	2023-07-07	13:29:39	13:40:30	648037	63d4251f684e52575206f44b	3	1	main_z	11	main_z	63	stimuli_distractor_diamondtriangles.svg	stimuli_target_trianglerectangles.svg	29	yes	44	1	1145	0	0			0	0			1				0	
6.6.1	mac	2023-07-07	13:29:39	13:40:30	648037	63d4251f684e52575206f44b	3	1	main_z	11	advance_on_keypress_ZEE	64	stimuli_distractor_diamondtriangles.svg	stimuli_target_trianglerectangles.svg	29	yes	57	0	172	0	0			0	0			1				0	
6.6.1	mac	2023-07-07	13:29:39	13:40:32	649841	63d4251f684e52575206f44b	3	1	main_z	11	main_z	65	stimuli_distractor_diamondtriangles.svg	stimuli_target_diamondsquares.svg	32	yes	44	1	1003	0	0			0	0			1				0	
6.6.1	mac	2023-07-07	13:29:39	13:40:32	649841	63d4251f684e52575206f44b	3	1	main_z	11	advance_on_keypress_ZEE	66	stimuli_distractor_diamondtriangles.svg	stimuli_target_diamondsquares.svg	32	yes	57	0	181	0	0			0	0			1				0	
6.6.1	mac	2023-07-07	13:29:39	13:40:34	651544	63d4251f684e52575206f44b	3	1	main_z	11	main_z	67	stimuli_distractor_trianglediamonds.svg	stimuli_target_diamondsquares.svg	28	yes	44	1	886	0	0			0	0			1				0	
6.6.1	mac	2023-07-07	13:29:39	13:40:34	651544	63d4251f684e52575206f44b	3	1	main_z	11	advance_on_keypress_ZEE	68	stimuli_distractor_trianglediamonds.svg	stimuli_target_diamondsquares.svg	28	yes	57	0	231	0	0			0	0			1				0	
6.6.1	mac	2023-07-07	13:29:39	13:40:36	653270	63d4251f684e52575206f44b	3	1	main_z	11	main_z	69	stimuli_target_trianglesquares.svg	stimuli_distractor_diamondtriangles.svg	22	yes	44	1	879	0	0			0	0			1				0	
6.6.1	mac	2023-07-07	13:29:39	13:40:36	653270	63d4251f684e52575206f44b	3	1	main_z	11	advance_on_keypress_ZEE	70	stimuli_target_trianglesquares.svg	stimuli_distractor_diamondtriangles.svg	22	yes	57	0	215	0	0			0	0			1				0	
6.6.1	mac	2023-07-07	13:29:39	13:40:38	656117	63d4251f684e52575206f44b	3	1	main_z	11	main_z	71	stimuli_distractor_diamondtriangles.svg	stimuli_distractor_diamondtriangles.svg	39	no	0	1	2000	0	0			0	0			1				0	
6.6.1	mac	2023-07-07	13:29:39	13:40:38	656117	63d4251f684e52575206f44b	3	1	main_z	11	advance_on_keypress_ZEE	72	stimuli_distractor_diamondtriangles.svg	stimuli_distractor_diamondtriangles.svg	39	no	57	0	519	0	0			0	0			1				0	
6.6.1	mac	2023-07-07	13:29:39	13:40:40	658094	63d4251f684e52575206f44b	3	1	main_z	11	main_z	73	stimuli_target_diamondsquares.svg	stimuli_distractor_trianglediamonds.svg	20	yes	44	1	843	0	0			0	0			1				0	
6.6.1	mac	2023-07-07	13:29:39	13:40:40	658094	63d4251f684e52575206f44b	3	1	main_z	11	advance_on_keypress_ZEE	74	stimuli_target_diamondsquares.svg	stimuli_distractor_trianglediamonds.svg	20	yes	57	0	244	0	0			0	0			1				0	
6.6.1	mac	2023-07-07	13:29:39	13:40:42	659945	63d4251f684e52575206f44b	3	1	main_z	11	main_z	75	stimuli_target_diamondrectangles.svg	stimuli_distractor_trianglediamonds.svg	19	yes	44	1	937	0	0			0	0			1				0	
6.6.1	mac	2023-07-07	13:29:39	13:40:42	659945	63d4251f684e52575206f44b	3	1	main_z	11	advance_on_keypress_ZEE	76	stimuli_target_diamondrectangles.svg	stimuli_distractor_trianglediamonds.svg	19	yes	57	0	180	0	0			0	0			1				0	
6.6.1	mac	2023-07-07	13:29:39	13:40:45	662738	63d4251f684e52575206f44b	3	1	main_z	11	main_z	77	stimuli_distractor_trianglediamonds.svg	stimuli_distractor_diamondtriangles.svg	35	no	0	1	2000	0	0			0	0			1				0	
6.6.1	mac	2023-07-07	13:29:39	13:40:45	662738	63d4251f684e52575206f44b	3	1	main_z	11	advance_on_keypress_ZEE	78	stimuli_distractor_trianglediamonds.svg	stimuli_distractor_diamondtriangles.svg	35	no	57	0	494	0	0			0	0			1				0	
6.6.1	mac	2023-07-07	13:29:39	13:40:47	664705	63d4251f684e52575206f44b	3	1	main_z	11	main_z	79	stimuli_distractor_diamondtriangles.svg	stimuli_target_rectanglediamonds.svg	14	yes	44	1	833	0	0			0	0			1				0	
6.6.1	mac	2023-07-07	13:29:39	13:40:47	664705	63d4251f684e52575206f44b	3	1	main_z	11	advance_on_keypress_ZEE	80	stimuli_distractor_diamondtriangles.svg	stimuli_target_rectanglediamonds.svg	14	yes	57	0	238	0	0			0	0			1				0	
6.6.1	mac	2023-07-07	13:29:39	13:40:49	666583	63d4251f684e52575206f44b	3	1	main_z	11	main_z	81	stimuli_target_diamondsquares.svg	stimuli_distractor_diamondtriangles.svg	24	yes	44	1	1010	0	0			0	0			1				0	
6.6.1	mac	2023-07-07	13:29:39	13:40:49	666583	63d4251f684e52575206f44b	3	1	main_z	11	advance_on_keypress_ZEE	82	stimuli_target_diamondsquares.svg	stimuli_distractor_diamondtriangles.svg	24	yes	57	0	268	0	0			0	0			1				0	
6.6.1	mac	2023-07-07	13:29:39	13:40:51	668326	63d4251f684e52575206f44b	3	1	main_z	11	main_z	83	stimuli_distractor_trianglediamonds.svg	stimuli_target_squarediamonds.svg	12	yes	44	1	836	0	0			0	0			1				0	
6.6.1	mac	2023-07-07	13:29:39	13:40:51	668326	63d4251f684e52575206f44b	3	1	main_z	11	advance_on_keypress_ZEE	84	stimuli_distractor_trianglediamonds.svg	stimuli_target_squarediamonds.svg	12	yes	57	0	269	0	0			0	0			1				0	
6.6.1	mac	2023-07-07	13:29:39	13:40:53	671210	63d4251f684e52575206f44b	3	1	main_z	11	main_z	85	stimuli_distractor_diamondtriangles.svg	stimuli_target_rectangletriangles.svg	13	yes	0	0	2000	0	0			0	0			1				0	
6.6.1	mac	2023-07-07	13:29:39	13:40:53	671210	63d4251f684e52575206f44b	3	1	main_z	11	advance_on_keypress_ZEE	86	stimuli_distractor_diamondtriangles.svg	stimuli_target_rectangletriangles.svg	13	yes	57	0	884	0	0			0	0			1				0	
6.6.1	mac	2023-07-07	13:29:39	13:40:56	673623	63d4251f684e52575206f44b	3	1	main_z	11	main_z	87	stimuli_target_trianglerectangles.svg	stimuli_distractor_trianglediamonds.svg	17	yes	44	1	886	0	0			0	0			1				0	
6.6.1	mac	2023-07-07	13:29:39	13:40:56	673623	63d4251f684e52575206f44b	3	1	main_z	11	advance_on_keypress_ZEE	88	stimuli_target_trianglerectangles.svg	stimuli_distractor_trianglediamonds.svg	17	yes	57	0	241	0	0			0	0			1				0	
6.6.1	mac	2023-07-07	13:29:39	13:40:58	675540	63d4251f684e52575206f44b	3	1	main_z	11	main_z	89	stimuli_distractor_diamondtriangles.svg	stimuli_target_trianglesquares.svg	30	yes	44	1	1050	0	0			0	0			1				0	
6.6.1	mac	2023-07-07	13:29:39	13:40:58	675540	63d4251f684e52575206f44b	3	1	main_z	11	advance_on_keypress_ZEE	90	stimuli_distractor_diamondtriangles.svg	stimuli_target_trianglesquares.svg	30	yes	57	0	250	0	0			0	0			1				0	
6.6.1	mac	2023-07-07	13:29:39	13:41:00	677434	63d4251f684e52575206f44b	3	1	main_z	11	main_z	91	stimuli_target_trianglesquares.svg	stimuli_distractor_diamondtriangles.svg	22	yes	44	1	1020	0	0			0	0			1				0	
6.6.1	mac	2023-07-07	13:29:39	13:41:00	677434	63d4251f684e52575206f44b	3	1	main_z	11	advance_on_keypress_ZEE	92	stimuli_target_trianglesquares.svg	stimuli_distractor_diamondtriangles.svg	22	yes	57	0	315	0	0			0	0			1				0	
6.6.1	mac	2023-07-07	13:29:39	13:41:02	679355	63d4251f684e52575206f44b	3	1	main_z	11	main_z	93	stimuli_distractor_diamondtriangles.svg	stimuli_target_squaretriangles.svg	15	yes	44	1	979	0	0			0	0			1				0	
6.6.1	mac	2023-07-07	13:29:39	13:41:02	679355	63d4251f684e52575206f44b	3	1	main_z	11	advance_on_keypress_ZEE	94	stimuli_distractor_diamondtriangles.svg	stimuli_target_squaretriangles.svg	15	yes	57	0	444	0	0			0	0			1				0	
6.6.1	mac	2023-07-07	13:29:39	13:41:05	682434	63d4251f684e52575206f44b	3	1	main_z	11	main_z	95	stimuli_distractor_diamondtriangles.svg	stimuli_target_diamondrectangles.svg	31	yes	0	0	2000	0	0			0	0			1				0	
6.6.1	mac	2023-07-07	13:29:39	13:41:05	682434	63d4251f684e52575206f44b	3	1	main_z	11	advance_on_keypress_ZEE	96	stimuli_distractor_diamondtriangles.svg	stimuli_target_diamondrectangles.svg	31	yes	57	0	921	0	0			0	0			1				0	
6.6.1	mac	2023-07-07	13:29:39	13:41:08	685973	63d4251f684e52575206f44b	3	1	main_z	11	main_z	97	stimuli_distractor_trianglediamonds.svg	stimuli_distractor_trianglediamonds.svg	33	no	0	1	2000	0	0			0	0			1				0	
6.6.1	mac	2023-07-07	13:29:39	13:41:08	685973	63d4251f684e52575206f44b	3	1	main_z	11	advance_on_keypress_ZEE	98	stimuli_distractor_trianglediamonds.svg	stimuli_distractor_trianglediamonds.svg	33	no	57	0	476	0	0			0	0			1				0	
6.6.1	mac	2023-07-07	13:29:39	13:41:10	687932	63d4251f684e52575206f44b	3	1	main_z	11	main_z	99	stimuli_target_diamondsquares.svg	stimuli_distractor_trianglediamonds.svg	20	yes	44	1	856	0	0			0	0			1				0	
6.6.1	mac	2023-07-07	13:29:39	13:41:10	687932	63d4251f684e52575206f44b	3	1	main_z	11	advance_on_keypress_ZEE	100	stimuli_target_diamondsquares.svg	stimuli_distractor_trianglediamonds.svg	20	yes	57	0	232	0	0			0	0			1				0	
6.6.1	mac	2023-07-07	13:29:39	13:41:12	689664	63d4251f684e52575206f44b	3	1	main_z	11	main_z	101	stimuli_distractor_trianglediamonds.svg	stimuli_target_trianglesquares.svg	26	yes	44	1	864	0	0			0	0			1				0	
6.6.1	mac	2023-07-07	13:29:39	13:41:12	689664	63d4251f684e52575206f44b	3	1	main_z	11	advance_on_keypress_ZEE	102	stimuli_distractor_trianglediamonds.svg	stimuli_target_trianglesquares.svg	26	yes	57	0	258	0	0			0	0			1				0	
6.6.1	mac	2023-07-07	13:29:39	13:41:15	692551	63d4251f684e52575206f44b	3	1	main_z	11	main_z	103	stimuli_distractor_trianglediamonds.svg	stimuli_distractor_diamondtriangles.svg	36	no	0	1	2000	0	0			0	0			1				0	
6.6.1	mac	2023-07-07	13:29:39	13:41:15	692551	63d4251f684e52575206f44b	3	1	main_z	11	advance_on_keypress_ZEE	104	stimuli_distractor_trianglediamonds.svg	stimuli_distractor_diamondtriangles.svg	36	no	57	0	371	0	0			0	0			1				0	
6.6.1	mac	2023-07-07	13:29:39	13:41:17	694831	63d4251f684e52575206f44b	3	1	main_z	11	main_z	105	stimuli_distractor_trianglediamonds.svg	stimuli_target_rectangletriangles.svg	9	yes	44	1	1270	0	0			0	0			1				0	
6.6.1	mac	2023-07-07	13:29:39	13:41:17	694831	63d4251f684e52575206f44b	3	1	main_z	11	advance_on_keypress_ZEE	106	stimuli_distractor_trianglediamonds.svg	stimuli_target_rectangletriangles.svg	9	yes	57	0	271	0	0			0	0			1				0	
6.6.1	mac	2023-07-07	13:29:39	13:41:20	697729	63d4251f684e52575206f44b	3	1	main_z	11	main_z	107	stimuli_distractor_trianglediamonds.svg	stimuli_target_trianglerectangles.svg	25	yes	0	0	2000	0	0			0	0			1				0	
6.6.1	mac	2023-07-07	13:29:39	13:41:20	697729	63d4251f684e52575206f44b	3	1	main_z	11	advance_on_keypress_ZEE	108	stimuli_distractor_trianglediamonds.svg	stimuli_target_trianglerectangles.svg	25	yes	57	0	719	0	0			0	0			1				0	
6.6.1	mac	2023-07-07	13:29:39	13:41:22	699943	63d4251f684e52575206f44b	3	1	main_z	11	main_z	109	stimuli_target_rectangletriangles.svg	stimuli_distractor_trianglediamonds.svg	1	yes	44	1	857	0	0			0	0			1				0	
6.6.1	mac	2023-07-07	13:29:39	13:41:22	699943	63d4251f684e52575206f44b	3	1	main_z	11	advance_on_keypress_ZEE	110	stimuli_target_rectangletriangles.svg	stimuli_distractor_trianglediamonds.svg	1	yes	57	0	275	0	0			0	0			1				0	
6.6.1	mac	2023-07-07	13:29:39	13:41:24	701903	63d4251f684e52575206f44b	3	1	main_z	11	main_z	111	stimuli_target_rectanglediamonds.svg	stimuli_distractor_trianglediamonds.svg	2	yes	44	1	1061	0	0			0	0			1				0	
6.6.1	mac	2023-07-07	13:29:39	13:41:24	701903	63d4251f684e52575206f44b	3	1	main_z	11	advance_on_keypress_ZEE	112	stimuli_target_rectanglediamonds.svg	stimuli_distractor_trianglediamonds.svg	2	yes	57	0	267	0	0			0	0			1				0	
6.6.1	mac	2023-07-07	13:29:39	13:41:26	703634	63d4251f684e52575206f44b	3	1	main_z	11	main_z	113	stimuli_target_squarediamonds.svg	stimuli_distractor_diamondtriangles.svg	8	yes	44	1	844	0	0			0	0			1				0	
6.6.1	mac	2023-07-07	13:29:39	13:41:26	703634	63d4251f684e52575206f44b	3	1	main_z	11	advance_on_keypress_ZEE	114	stimuli_target_squarediamonds.svg	stimuli_distractor_diamondtriangles.svg	8	yes	57	0	236	0	0			0	0			1				0	
6.6.1	mac	2023-07-07	13:29:39	13:41:28	705284	63d4251f684e52575206f44b	3	1	main_z	11	main_z	115	stimuli_target_squarediamonds.svg	stimuli_distractor_trianglediamonds.svg	4	yes	44	1	783	0	0			0	0			1				0	
6.6.1	mac	2023-07-07	13:29:39	13:41:28	705284	63d4251f684e52575206f44b	3	1	main_z	11	advance_on_keypress_ZEE	116	stimuli_target_squarediamonds.svg	stimuli_distractor_trianglediamonds.svg	4	yes	57	0	274	0	0			0	0			1				0	
6.6.1	mac	2023-07-07	13:29:39	13:41:29	707136	63d4251f684e52575206f44b	3	1	main_z	11	main_z	117	stimuli_distractor_diamondtriangles.svg	stimuli_target_diamondsquares.svg	32	yes	44	1	954	0	0			0	0			1				0	
6.6.1	mac	2023-07-07	13:29:39	13:41:29	707136	63d4251f684e52575206f44b	3	1	main_z	11	advance_on_keypress_ZEE	118	stimuli_distractor_diamondtriangles.svg	stimuli_target_diamondsquares.svg	32	yes	57	0	269	0	0			0	0			1				0	
6.6.1	mac	2023-07-07	13:29:39	13:41:32	710032	63d4251f684e52575206f44b	3	1	main_z	11	main_z	119	stimuli_distractor_diamondtriangles.svg	stimuli_distractor_diamondtriangles.svg	39	no	0	1	2000	0	0			0	0			1				0	
6.6.1	mac	2023-07-07	13:29:39	13:41:32	710032	63d4251f684e52575206f44b	3	1	main_z	11	advance_on_keypress_ZEE	120	stimuli_distractor_diamondtriangles.svg	stimuli_distractor_diamondtriangles.svg	39	no	57	0	1048	0	0			0	0			1				0	
6.6.1	mac	2023-07-07	13:29:39	13:41:35	712375	63d4251f684e52575206f44b	3	1	main_z	11	main_z	121	stimuli_target_squaretriangles.svg	stimuli_distractor_diamondtriangles.svg	7	yes	44	1	672	0	0			0	0			1				0	
6.6.1	mac	2023-07-07	13:29:39	13:41:35	712375	63d4251f684e52575206f44b	3	1	main_z	11	advance_on_keypress_ZEE	122	stimuli_target_squaretriangles.svg	stimuli_distractor_diamondtriangles.svg	7	yes	57	0	282	0	0			0	0			1				0	
6.6.1	mac	2023-07-07	13:29:39	13:41:36	713982	63d4251f684e52575206f44b	3	1	main_z	11	main_z	123	stimuli_distractor_trianglediamonds.svg	stimuli_target_rectanglediamonds.svg	10	yes	44	1	690	0	0			0	0			1				0	
6.6.1	mac	2023-07-07	13:29:39	13:41:36	713982	63d4251f684e52575206f44b	3	1	main_z	11	advance_on_keypress_ZEE	124	stimuli_distractor_trianglediamonds.svg	stimuli_target_rectanglediamonds.svg	10	yes	57	0	236	0	0			0	0			1				0	
6.6.1	mac	2023-07-07	13:29:39	13:41:39	716858	63d4251f684e52575206f44b	3	1	main_z	11	main_z	125	stimuli_distractor_trianglediamonds.svg	stimuli_target_diamondrectangles.svg	27	yes	0	0	2000	0	0			0	0			1				0	
6.6.1	mac	2023-07-07	13:29:39	13:41:39	716858	63d4251f684e52575206f44b	3	1	main_z	11	advance_on_keypress_ZEE	126	stimuli_distractor_trianglediamonds.svg	stimuli_target_diamondrectangles.svg	27	yes	57	0	551	0	0			0	0			1				0	
6.6.1	mac	2023-07-07	13:29:39	13:41:41	718991	63d4251f684e52575206f44b	3	1	main_z	11	main_z	127	stimuli_distractor_trianglediamonds.svg	stimuli_target_squaretriangles.svg	11	yes	44	1	955	0	0			0	0			1				0	
6.6.1	mac	2023-07-07	13:29:39	13:41:41	718991	63d4251f684e52575206f44b	3	1	main_z	11	advance_on_keypress_ZEE	128	stimuli_distractor_trianglediamonds.svg	stimuli_target_squaretriangles.svg	11	yes	57	0	220	0	0			0	0			1				0	
6.6.1	mac	2023-07-07	13:29:39	13:41:43	720569	63d4251f684e52575206f44b	3	1	main_z	11	main_z	129	stimuli_distractor_diamondtriangles.svg	stimuli_target_squarediamonds.svg	16	yes	44	1	735	0	0			0	0			1				0	
6.6.1	mac	2023-07-07	13:29:39	13:41:43	720569	63d4251f684e52575206f44b	3	1	main_z	11	advance_on_keypress_ZEE	130	stimuli_distractor_diamondtriangles.svg	stimuli_target_squarediamonds.svg	16	yes	57	0	262	0	0			0	0			1				0	
6.6.1	mac	2023-07-07	13:29:39	13:41:44	722216	63d4251f684e52575206f44b	3	1	main_z	11	main_z	131	stimuli_target_rectanglediamonds.svg	stimuli_distractor_diamondtriangles.svg	6	yes	44	1	763	0	0			0	0			1				0	
6.6.1	mac	2023-07-07	13:29:39	13:41:44	722216	63d4251f684e52575206f44b	3	1	main_z	11	advance_on_keypress_ZEE	132	stimuli_target_rectanglediamonds.svg	stimuli_distractor_diamondtriangles.svg	6	yes	57	0	242	0	0			0	0			1				0	
6.6.1	mac	2023-07-07	13:29:39	13:41:47	725081	63d4251f684e52575206f44b	3	1	main_z	11	main_z	133	stimuli_distractor_trianglediamonds.svg	stimuli_distractor_diamondtriangles.svg	35	no	0	1	2000	0	0			0	0			1				0	
6.6.1	mac	2023-07-07	13:29:39	13:41:47	725081	63d4251f684e52575206f44b	3	1	main_z	11	advance_on_keypress_ZEE	134	stimuli_distractor_trianglediamonds.svg	stimuli_distractor_diamondtriangles.svg	35	no	57	0	606	0	0			0	0			1				0	
6.6.1	mac	2023-07-07	13:29:39	13:41:51	728322	63d4251f684e52575206f44b	3	1	main_z	11	main_z	135	stimuli_distractor_trianglediamonds.svg	stimuli_distractor_trianglediamonds.svg	34	no	0	1	2000	0	0			0	0			1				0	
6.6.1	mac	2023-07-07	13:29:39	13:41:51	728322	63d4251f684e52575206f44b	3	1	main_z	11	advance_on_keypress_ZEE	136	stimuli_distractor_trianglediamonds.svg	stimuli_distractor_trianglediamonds.svg	34	no	57	0	319	0	0			0	0			1				0	
6.6.1	mac	2023-07-07	13:29:39	13:41:54	731280	63d4251f684e52575206f44b	3	1	main_z	11	main_z	137	stimuli_distractor_diamondtriangles.svg	stimuli_target_trianglerectangles.svg	29	yes	0	0	2000	0	0			0	0			1				0	
6.6.1	mac	2023-07-07	13:29:39	13:41:54	731280	63d4251f684e52575206f44b	3	1	main_z	11	advance_on_keypress_ZEE	138	stimuli_distractor_diamondtriangles.svg	stimuli_target_trianglerectangles.svg	29	yes	57	0	301	0	0			0	0			1				0	
6.6.1	mac	2023-07-07	13:29:39	13:41:56	734206	63d4251f684e52575206f44b	3	1	main_z	11	main_z	139	stimuli_distractor_diamondtriangles.svg	stimuli_distractor_trianglediamonds.svg	37	no	0	1	2000	0	0			0	0			1				0	
6.6.1	mac	2023-07-07	13:29:39	13:41:56	734206	63d4251f684e52575206f44b	3	1	main_z	11	advance_on_keypress_ZEE	140	stimuli_distractor_diamondtriangles.svg	stimuli_distractor_trianglediamonds.svg	37	no	57	0	284	0	0			0	0			1				0	
6.6.1	mac	2023-07-07	13:29:39	13:41:59	737112	63d4251f684e52575206f44b	3	1	main_z	11	main_z	141	stimuli_distractor_diamondtriangles.svg	stimuli_distractor_trianglediamonds.svg	38	no	0	1	2000	0	0			0	0			1				0	
6.6.1	mac	2023-07-07	13:29:39	13:41:59	737112	63d4251f684e52575206f44b	3	1	main_z	11	advance_on_keypress_ZEE	142	stimuli_distractor_diamondtriangles.svg	stimuli_distractor_trianglediamonds.svg	38	no	57	0	302	0	0			0	0			1				0	
6.6.1	mac	2023-07-07	13:29:39	13:42:02	740037	63d4251f684e52575206f44b	3	1	main_z	11	main_z	143	stimuli_target_diamondrectangles.svg	stimuli_distractor_trianglediamonds.svg	19	yes	0	0	2000	0	0			0	0			1				0	
6.6.1	mac	2023-07-07	13:29:39	13:42:02	740037	63d4251f684e52575206f44b	3	1	main_z	11	advance_on_keypress_ZEE	144	stimuli_target_diamondrectangles.svg	stimuli_distractor_trianglediamonds.svg	19	yes	57	0	532	0	0			0	0			1				0	
6.6.1	mac	2023-07-07	13:29:39	13:42:04	742189	63d4251f684e52575206f44b	3	1	main_z	11	main_z	145	stimuli_distractor_diamondtriangles.svg	stimuli_target_rectanglediamonds.svg	14	yes	44	1	985	0	0			0	0			1				0	
6.6.1	mac	2023-07-07	13:29:39	13:42:04	742189	63d4251f684e52575206f44b	3	1	main_z	11	advance_on_keypress_ZEE	146	stimuli_distractor_diamondtriangles.svg	stimuli_target_rectanglediamonds.svg	14	yes	57	0	286	0	0			0	0			1				0	
6.6.1	mac	2023-07-07	13:29:39	13:42:07	745100	63d4251f684e52575206f44b	3	1	main_z	11	main_z	147	stimuli_target_trianglesquares.svg	stimuli_distractor_trianglediamonds.svg	18	yes	0	0	2000	0	0			0	0			1				0	
6.6.1	mac	2023-07-07	13:29:39	13:42:07	745100	63d4251f684e52575206f44b	3	1	main_z	11	advance_on_keypress_ZEE	148	stimuli_target_trianglesquares.svg	stimuli_distractor_trianglediamonds.svg	18	yes	57	0	1060	0	0			0	0			1				0	
6.6.1	mac	2023-07-07	13:29:39	13:42:10	747971	63d4251f684e52575206f44b	3	1	main_z	11	main_z	149	stimuli_distractor_diamondtriangles.svg	stimuli_distractor_diamondtriangles.svg	40	no	44	0	1185	0	0			0	0			1				0	
6.6.1	mac	2023-07-07	13:29:39	13:42:10	747971	63d4251f684e52575206f44b	3	1	main_z	11	advance_on_keypress_ZEE	150	stimuli_distractor_diamondtriangles.svg	stimuli_distractor_diamondtriangles.svg	40	no	57	0	685	0	0			0	0			1				0	
6.6.1	mac	2023-07-07	13:29:39	13:42:12	750147	63d4251f684e52575206f44b	3	1	main_z	11	main_z	151	stimuli_target_squaretriangles.svg	stimuli_distractor_trianglediamonds.svg	3	yes	44	1	856	0	0			0	0			1				0	
6.6.1	mac	2023-07-07	13:29:39	13:42:12	750147	63d4251f684e52575206f44b	3	1	main_z	11	advance_on_keypress_ZEE	152	stimuli_target_squaretriangles.svg	stimuli_distractor_trianglediamonds.svg	3	yes	57	0	256	0	0			0	0			1				0	
6.6.1	mac	2023-07-07	13:29:39	13:42:14	751942	63d4251f684e52575206f44b	3	1	main_z	11	main_z	153	stimuli_target_rectangletriangles.svg	stimuli_distractor_diamondtriangles.svg	5	yes	44	1	894	0	0			0	0			1				0	
6.6.1	mac	2023-07-07	13:29:39	13:42:14	751942	63d4251f684e52575206f44b	3	1	main_z	11	advance_on_keypress_ZEE	154	stimuli_target_rectangletriangles.svg	stimuli_distractor_diamondtriangles.svg	5	yes	57	0	238	0	0			0	0			1				0	
6.6.1	mac	2023-07-07	13:29:39	13:42:16	753834	63d4251f684e52575206f44b	3	1	main_z	11	main_z	155	stimuli_distractor_trianglediamonds.svg	stimuli_target_diamondsquares.svg	28	yes	44	1	1023	0	0			0	0			1				0	
6.6.1	mac	2023-07-07	13:29:39	13:42:16	753834	63d4251f684e52575206f44b	3	1	main_z	11	advance_on_keypress_ZEE	156	stimuli_distractor_trianglediamonds.svg	stimuli_target_diamondsquares.svg	28	yes	57	0	233	0	0			0	0			1				0	
6.6.1	mac	2023-07-07	13:29:39	13:42:19	756696	63d4251f684e52575206f44b	3	1	main_z	11	main_z	157	stimuli_target_trianglerectangles.svg	stimuli_distractor_diamondtriangles.svg	21	yes	0	0	2000	0	0			0	0			1				0	
6.6.1	mac	2023-07-07	13:29:39	13:42:19	756696	63d4251f684e52575206f44b	3	1	main_z	11	advance_on_keypress_ZEE	158	stimuli_target_trianglerectangles.svg	stimuli_distractor_diamondtriangles.svg	21	yes	57	0	320	0	0			0	0			1				0	
6.6.1	mac	2023-07-07	13:29:39	13:42:21	758640	63d4251f684e52575206f44b	3	1	main_z	11	main_z	159	stimuli_target_diamondrectangles.svg	stimuli_distractor_diamondtriangles.svg	23	yes	44	1	994	0	0			0	0			1				0	
6.6.1	mac	2023-07-07	13:29:39	13:42:21	758640	63d4251f684e52575206f44b	3	1	main_z	11	advance_on_keypress_ZEE	160	stimuli_target_diamondrectangles.svg	stimuli_distractor_diamondtriangles.svg	23	yes	57	0	201	0	0			0	0			1				0	
6.6.1	mac	2023-07-07	13:29:39	13:42:21	758640	63d4251f684e52575206f44b	3	1	headphonecheck_calibration	14	headphonecheck_calibrationIntro	1	stimuli_target_diamondrectangles.svg	stimuli_distractor_diamondtriangles.svg	23	yes	calibrationButton	0	894	0	0			0	0			1				0	
6.6.1	mac	2023-07-07	13:29:39	13:42:21	758640	63d4251f684e52575206f44b	3	1	headphonecheck_testphase	15	test_collectResponse	3	stimuli_target_diamondrectangles.svg	stimuli_distractor_diamondtriangles.svg	23	yes	third	1	801	1	2	antiphase_hc_ios.wav	3	0	0			1				0	
6.6.1	mac	2023-07-07	13:29:39	13:42:21	758640	63d4251f684e52575206f44b	3	1	headphonecheck_testphase	15	test_collectResponse	6	stimuli_target_diamondrectangles.svg	stimuli_distractor_diamondtriangles.svg	23	yes	second	1	398	2	1	antiphase_hc_iso.wav	2	0	0			1				0	
6.6.1	mac	2023-07-07	13:29:39	13:42:21	758640	63d4251f684e52575206f44b	3	1	headphonecheck_testphase	15	test_collectResponse	9	stimuli_target_diamondrectangles.svg	stimuli_distractor_diamondtriangles.svg	23	yes	first	1	265	3	3	antiphase_hc_soi.wav	1	0	0			1				0	
6.6.1	mac	2023-07-07	13:29:39	13:42:21	758640	63d4251f684e52575206f44b	3	1	headphonecheck_testphase	15	test_collectResponse	12	stimuli_target_diamondrectangles.svg	stimuli_distractor_diamondtriangles.svg	23	yes	third	0	267	4	4	antiphase_hc_sio.wav	1	0	0			1				0	
6.6.1	mac	2023-07-07	13:29:39	13:42:21	758640	63d4251f684e52575206f44b	3	1	headphonecheck_testphase	15	test_collectResponse	15	stimuli_target_diamondrectangles.svg	stimuli_distractor_diamondtriangles.svg	23	yes	third	1	297	5	6	antiphase_hc_ois.wav	3	0	0			1				0	
6.6.1	mac	2023-07-07	13:29:39	13:42:21	758640	63d4251f684e52575206f44b	3	1	headphonecheck_testphase	15	test_collectResponse	18	stimuli_target_diamondrectangles.svg	stimuli_distractor_diamondtriangles.svg	23	yes	second	1	194	6	5	antiphase_hc_osi.wav	2	0	0			1				0	
6.6.1	mac	2023-07-07	13:29:39	13:42:21	758640	63d4251f684e52575206f44b	3	1	stereocheck_calibration	17	stereocheck_calibrationIntro	1	stimuli_target_diamondrectangles.svg	stimuli_distractor_diamondtriangles.svg	23	yes	stereocheck_calibrationButton	0	3736	6	5	antiphase_hc_osi.wav	2	0	0			1				0	
6.6.1	mac	2023-07-07	13:29:39	13:42:21	758640	63d4251f684e52575206f44b	3	1	stereocheck_testphase	18	stereocheck_test_collectResponse	3	stimuli_target_diamondrectangles.svg	stimuli_distractor_diamondtriangles.svg	23	yes	stereocheck_right	1	465	6	5	antiphase_hc_osi.wav	2	1	4	noise_calib_stim_RIGHT.wav	2	1				0	
6.6.1	mac	2023-07-07	13:29:39	13:42:21	758640	63d4251f684e52575206f44b	3	1	stereocheck_testphase	18	stereocheck_test_collectResponse	6	stimuli_target_diamondrectangles.svg	stimuli_distractor_diamondtriangles.svg	23	yes	stereocheck_left	1	217	6	5	antiphase_hc_osi.wav	2	2	2	noise_calib_stim_LEFT.wav	1	1				0	
6.6.1	mac	2023-07-07	13:29:39	13:42:21	758640	63d4251f684e52575206f44b	3	1	stereocheck_testphase	18	stereocheck_test_collectResponse	9	stimuli_target_diamondrectangles.svg	stimuli_distractor_diamondtriangles.svg	23	yes	stereocheck_right	1	191	6	5	antiphase_hc_osi.wav	2	3	6	noise_calib_stim_RIGHT.wav	2	1				0	
6.6.1	mac	2023-07-07	13:29:39	13:42:21	758640	63d4251f684e52575206f44b	3	1	stereocheck_testphase	18	stereocheck_test_collectResponse	12	stimuli_target_diamondrectangles.svg	stimuli_distractor_diamondtriangles.svg	23	yes	stereocheck_left	1	180	6	5	antiphase_hc_osi.wav	2	4	3	noise_calib_stim_LEFT.wav	1	1				0	
6.6.1	mac	2023-07-07	13:29:39	13:42:21	758640	63d4251f684e52575206f44b	3	1	stereocheck_testphase	18	stereocheck_test_collectResponse	15	stimuli_target_diamondrectangles.svg	stimuli_distractor_diamondtriangles.svg	23	yes	stereocheck_right	1	187	6	5	antiphase_hc_osi.wav	2	5	5	noise_calib_stim_RIGHT.wav	2	1				0	
6.6.1	mac	2023-07-07	13:29:39	13:42:21	758640	63d4251f684e52575206f44b	3	1	stereocheck_testphase	18	stereocheck_test_collectResponse	18	stimuli_target_diamondrectangles.svg	stimuli_distractor_diamondtriangles.svg	23	yes	stereocheck_left	1	42	6	5	antiphase_hc_osi.wav	2	6	1	noise_calib_stim_LEFT.wav	1	1				0	
6.6.1	mac	2023-07-07	13:29:39	13:42:21	758640	63d4251f684e52575206f44b	3	1	DL_practice	21	DL_practice	2	stimuli_target_diamondrectangles.svg	stimuli_distractor_diamondtriangles.svg	23	yes	ga	1	1091	6	5	antiphase_hc_osi.wav	2	6	1	noise_calib_stim_LEFT.wav	1	18	blb_dichoticlistening_ga-ta.mp3	ga	ta	1	left
6.6.1	mac	2023-07-07	13:29:39	13:42:21	758640	63d4251f684e52575206f44b	3	1	DL_practice	21	DL_practice	3	stimuli_target_diamondrectangles.svg	stimuli_distractor_diamondtriangles.svg	23	yes	pa	1	1078	6	5	antiphase_hc_osi.wav	2	6	1	noise_calib_stim_LEFT.wav	1	29	blb_dichoticlistening_pa-pa.mp3	pa	pa	0	left
6.6.1	mac	2023-07-07	13:29:39	13:42:21	758640	63d4251f684e52575206f44b	3	1	DL_practice	21	DL_practice	4	stimuli_target_diamondrectangles.svg	stimuli_distractor_diamondtriangles.svg	23	yes	ta	1	1138	6	5	antiphase_hc_osi.wav	2	6	1	noise_calib_stim_LEFT.wav	1	36	blb_dichoticlistening_ta-ta.mp3	ta	ta	0	left
6.6.1	mac	2023-07-07	13:29:39	13:42:21	758640	63d4251f684e52575206f44b	3	1	DL_practice	21	DL_practice	5	stimuli_target_diamondrectangles.svg	stimuli_distractor_diamondtriangles.svg	23	yes	ba	1	928	6	5	antiphase_hc_osi.wav	2	6	1	noise_calib_stim_LEFT.wav	1	1	blb_dichoticlistening_ba-ba.mp3	ba	ba	0	left
6.6.1	mac	2023-07-07	13:29:39	13:42:21	758640	63d4251f684e52575206f44b	3	1	DL_practice	21	DL_practice	6	stimuli_target_diamondrectangles.svg	stimuli_distractor_diamondtriangles.svg	23	yes	da	1	721	6	5	antiphase_hc_osi.wav	2	6	1	noise_calib_stim_LEFT.wav	1	8	blb_dichoticlistening_da-da.mp3	da	da	0	left
6.6.1	mac	2023-07-07	13:29:39	13:42:21	758640	63d4251f684e52575206f44b	3	1	DL_practice	21	DL_practice	7	stimuli_target_diamondrectangles.svg	stimuli_distractor_diamondtriangles.svg	23	yes	ba	1	1383	6	5	antiphase_hc_osi.wav	2	6	1	noise_calib_stim_LEFT.wav	1	7	blb_dichoticlistening_da-ba.mp3	da	ba	1	right
6.6.1	mac	2023-07-07	13:29:39	13:42:21	758640	63d4251f684e52575206f44b	3	1	DL_practice	21	DL_practice	8	stimuli_target_diamondrectangles.svg	stimuli_distractor_diamondtriangles.svg	23	yes	ga	1	746	6	5	antiphase_hc_osi.wav	2	6	1	noise_calib_stim_LEFT.wav	1	15	blb_dichoticlistening_ga-ga.mp3	ga	ga	0	left
6.6.1	mac	2023-07-07	13:29:39	13:42:21	758640	63d4251f684e52575206f44b	3	1	DL_practice	21	DL_practice	9	stimuli_target_diamondrectangles.svg	stimuli_distractor_diamondtriangles.svg	23	yes	ka	1	1191	6	5	antiphase_hc_osi.wav	2	6	1	noise_calib_stim_LEFT.wav	1	22	blb_dichoticlistening_ka-ka.mp3	ka	ka	0	left
6.6.1	mac	2023-07-07	13:29:39	13:42:21	758640	63d4251f684e52575206f44b	3	1	DL_practice	21	DL_practice	10	stimuli_target_diamondrectangles.svg	stimuli_distractor_diamondtriangles.svg	23	yes	ka	1	815	6	5	antiphase_hc_osi.wav	2	6	1	noise_calib_stim_LEFT.wav	1	23	blb_dichoticlistening_ka-pa.mp3	ka	pa	1	left
6.6.1	mac	2023-07-07	13:29:39	13:42:21	758640	63d4251f684e52575206f44b	3	1	DL_test	23	DL_test	1	stimuli_target_diamondrectangles.svg	stimuli_distractor_diamondtriangles.svg	23	yes	pa	1	1275	6	5	antiphase_hc_osi.wav	2	6	1	noise_calib_stim_LEFT.wav	1	30	blb_dichoticlistening_pa-ta.mp3	pa	ta	1	left
6.6.1	mac	2023-07-07	13:29:39	13:42:21	758640	63d4251f684e52575206f44b	3	1	DL_test	23	DL_test	2	stimuli_target_diamondrectangles.svg	stimuli_distractor_diamondtriangles.svg	23	yes	ba	1	1396	6	5	antiphase_hc_osi.wav	2	6	1	noise_calib_stim_LEFT.wav	1	1	blb_dichoticlistening_ba-ba.mp3	ba	ba	0	left
6.6.1	mac	2023-07-07	13:29:39	13:42:21	758640	63d4251f684e52575206f44b	3	1	DL_test	23	DL_test	3	stimuli_target_diamondrectangles.svg	stimuli_distractor_diamondtriangles.svg	23	yes	ba	1	1043	6	5	antiphase_hc_osi.wav	2	6	1	noise_calib_stim_LEFT.wav	1	4	blb_dichoticlistening_ba-ka.mp3	ba	ka	1	left
6.6.1	mac	2023-07-07	13:29:39	13:42:21	758640	63d4251f684e52575206f44b	3	1	DL_test	23	DL_test	4	stimuli_target_diamondrectangles.svg	stimuli_distractor_diamondtriangles.svg	23	yes	da	1	1117	6	5	antiphase_hc_osi.wav	2	6	1	noise_calib_stim_LEFT.wav	1	12	blb_dichoticlistening_da-ta.mp3	da	ta	1	left
6.6.1	mac	2023-07-07	13:29:39	13:42:21	758640	63d4251f684e52575206f44b	3	1	DL_test	23	DL_test	5	stimuli_target_diamondrectangles.svg	stimuli_distractor_diamondtriangles.svg	23	yes	ka	1	670	6	5	antiphase_hc_osi.wav	2	6	1	noise_calib_stim_LEFT.wav	1	34	blb_dichoticlistening_ta-ka.mp3	ta	ka	1	right
6.6.1	mac	2023-07-07	13:29:39	13:42:21	758640	63d4251f684e52575206f44b	3	1	DL_test	23	DL_test	6	stimuli_target_diamondrectangles.svg	stimuli_distractor_diamondtriangles.svg	23	yes	ka	1	701	6	5	antiphase_hc_osi.wav	2	6	1	noise_calib_stim_LEFT.wav	1	22	blb_dichoticlistening_ka-ka.mp3	ka	ka	0	left
6.6.1	mac	2023-07-07	13:29:39	13:42:21	758640	63d4251f684e52575206f44b	3	1	DL_test	23	DL_test	7	stimuli_target_diamondrectangles.svg	stimuli_distractor_diamondtriangles.svg	23	yes	ba	1	1692	6	5	antiphase_hc_osi.wav	2	6	1	noise_calib_stim_LEFT.wav	1	6	blb_dichoticlistening_ba-ta.mp3	ba	ta	1	left
6.6.1	mac	2023-07-07	13:29:39	13:42:21	758640	63d4251f684e52575206f44b	3	1	DL_test	23	DL_test	8	stimuli_target_diamondrectangles.svg	stimuli_distractor_diamondtriangles.svg	23	yes	ka	1	958	6	5	antiphase_hc_osi.wav	2	6	1	noise_calib_stim_LEFT.wav	1	24	blb_dichoticlistening_ka-ta.mp3	ka	ta	1	left
6.6.1	mac	2023-07-07	13:29:39	13:42:21	758640	63d4251f684e52575206f44b	3	1	DL_test	23	DL_test	9	stimuli_target_diamondrectangles.svg	stimuli_distractor_diamondtriangles.svg	23	yes	pa	0	1448	6	5	antiphase_hc_osi.wav	2	6	1	noise_calib_stim_LEFT.wav	1	19	blb_dichoticlistening_ka-ba.mp3	ka	ba	1	other
6.6.1	mac	2023-07-07	13:29:39	13:42:21	758640	63d4251f684e52575206f44b	3	1	DL_test	23	DL_test	10	stimuli_target_diamondrectangles.svg	stimuli_distractor_diamondtriangles.svg	23	yes	ba	1	1228	6	5	antiphase_hc_osi.wav	2	6	1	noise_calib_stim_LEFT.wav	1	7	blb_dichoticlistening_da-ba.mp3	da	ba	1	right
6.6.1	mac	2023-07-07	13:29:39	13:42:21	758640	63d4251f684e52575206f44b	3	1	DL_test	23	DL_test	11	stimuli_target_diamondrectangles.svg	stimuli_distractor_diamondtriangles.svg	23	yes	ka	1	1093	6	5	antiphase_hc_osi.wav	2	6	1	noise_calib_stim_LEFT.wav	1	23	blb_dichoticlistening_ka-pa.mp3	ka	pa	1	left
6.6.1	mac	2023-07-07	13:29:39	13:42:21	758640	63d4251f684e52575206f44b	3	1	DL_test	23	DL_test	12	stimuli_target_diamondrectangles.svg	stimuli_distractor_diamondtriangles.svg	23	yes	ga	1	733	6	5	antiphase_hc_osi.wav	2	6	1	noise_calib_stim_LEFT.wav	1	27	blb_dichoticlistening_pa-ga.mp3	pa	ga	1	right
6.6.1	mac	2023-07-07	13:29:39	13:42:21	758640	63d4251f684e52575206f44b	3	1	DL_test	23	DL_test	13	stimuli_target_diamondrectangles.svg	stimuli_distractor_diamondtriangles.svg	23	yes	ga	1	856	6	5	antiphase_hc_osi.wav	2	6	1	noise_calib_stim_LEFT.wav	1	33	blb_dichoticlistening_ta-ga.mp3	ta	ga	1	right
6.6.1	mac	2023-07-07	13:29:39	13:42:21	758640	63d4251f684e52575206f44b	3	1	DL_test	23	DL_test	14	stimuli_target_diamondrectangles.svg	stimuli_distractor_diamondtriangles.svg	23	yes	pa	1	1666	6	5	antiphase_hc_osi.wav	2	6	1	noise_calib_stim_LEFT.wav	1	5	blb_dichoticlistening_ba-pa.mp3	ba	pa	1	right
6.6.1	mac	2023-07-07	13:29:39	13:42:21	758640	63d4251f684e52575206f44b	3	1	DL_test	23	DL_test	15	stimuli_target_diamondrectangles.svg	stimuli_distractor_diamondtriangles.svg	23	yes	ga	1	712	6	5	antiphase_hc_osi.wav	2	6	1	noise_calib_stim_LEFT.wav	1	21	blb_dichoticlistening_ka-ga.mp3	ka	ga	1	right
6.6.1	mac	2023-07-07	13:29:39	13:42:21	758640	63d4251f684e52575206f44b	3	1	DL_test	23	DL_test	16	stimuli_target_diamondrectangles.svg	stimuli_distractor_diamondtriangles.svg	23	yes	da	1	1117	6	5	antiphase_hc_osi.wav	2	6	1	noise_calib_stim_LEFT.wav	1	9	blb_dichoticlistening_da-ga.mp3	da	ga	1	left
6.6.1	mac	2023-07-07	13:29:39	13:42:21	758640	63d4251f684e52575206f44b	3	1	DL_test	23	DL_test	17	stimuli_target_diamondrectangles.svg	stimuli_distractor_diamondtriangles.svg	23	yes	ba	1	939	6	5	antiphase_hc_osi.wav	2	6	1	noise_calib_stim_LEFT.wav	1	25	blb_dichoticlistening_pa-ba.mp3	pa	ba	1	right
6.6.1	mac	2023-07-07	13:29:39	13:42:21	758640	63d4251f684e52575206f44b	3	1	DL_test	23	DL_test	18	stimuli_target_diamondrectangles.svg	stimuli_distractor_diamondtriangles.svg	23	yes	pa	0	1427	6	5	antiphase_hc_osi.wav	2	6	1	noise_calib_stim_LEFT.wav	1	31	blb_dichoticlistening_ta-ba.mp3	ta	ba	1	other
6.6.1	mac	2023-07-07	13:29:39	13:42:21	758640	63d4251f684e52575206f44b	3	1	DL_test	23	DL_test	19	stimuli_target_diamondrectangles.svg	stimuli_distractor_diamondtriangles.svg	23	yes	ta	1	813	6	5	antiphase_hc_osi.wav	2	6	1	noise_calib_stim_LEFT.wav	1	36	blb_dichoticlistening_ta-ta.mp3	ta	ta	0	left
6.6.1	mac	2023-07-07	13:29:39	13:42:21	758640	63d4251f684e52575206f44b	3	1	DL_test	23	DL_test	20	stimuli_target_diamondrectangles.svg	stimuli_distractor_diamondtriangles.svg	23	yes	ga	1	765	6	5	antiphase_hc_osi.wav	2	6	1	noise_calib_stim_LEFT.wav	1	14	blb_dichoticlistening_ga-da.mp3	ga	da	1	left
6.6.1	mac	2023-07-07	13:29:39	13:42:21	758640	63d4251f684e52575206f44b	3	1	DL_test	23	DL_test	21	stimuli_target_diamondrectangles.svg	stimuli_distractor_diamondtriangles.svg	23	yes	ga	1	1281	6	5	antiphase_hc_osi.wav	2	6	1	noise_calib_stim_LEFT.wav	1	16	blb_dichoticlistening_ga-ka.mp3	ga	ka	1	left
6.6.1	mac	2023-07-07	13:29:39	13:42:21	758640	63d4251f684e52575206f44b	3	1	DL_test	23	DL_test	22	stimuli_target_diamondrectangles.svg	stimuli_distractor_diamondtriangles.svg	23	yes	da	1	886	6	5	antiphase_hc_osi.wav	2	6	1	noise_calib_stim_LEFT.wav	1	32	blb_dichoticlistening_ta-da.mp3	ta	da	1	right
6.6.1	mac	2023-07-07	13:29:39	13:42:21	758640	63d4251f684e52575206f44b	3	1	DL_test	23	DL_test	23	stimuli_target_diamondrectangles.svg	stimuli_distractor_diamondtriangles.svg	23	yes	pa	1	1161	6	5	antiphase_hc_osi.wav	2	6	1	noise_calib_stim_LEFT.wav	1	29	blb_dichoticlistening_pa-pa.mp3	pa	pa	0	left
6.6.1	mac	2023-07-07	13:29:39	13:42:21	758640	63d4251f684e52575206f44b	3	1	DL_test	23	DL_test	24	stimuli_target_diamondrectangles.svg	stimuli_distractor_diamondtriangles.svg	23	yes	da	1	1084	6	5	antiphase_hc_osi.wav	2	6	1	noise_calib_stim_LEFT.wav	1	8	blb_dichoticlistening_da-da.mp3	da	da	0	left
6.6.1	mac	2023-07-07	13:29:39	13:42:21	758640	63d4251f684e52575206f44b	3	1	DL_test	23	DL_test	25	stimuli_target_diamondrectangles.svg	stimuli_distractor_diamondtriangles.svg	23	yes	da	1	840	6	5	antiphase_hc_osi.wav	2	6	1	noise_calib_stim_LEFT.wav	1	10	blb_dichoticlistening_da-ka.mp3	da	ka	1	left
6.6.1	mac	2023-07-07	13:29:39	13:42:21	758640	63d4251f684e52575206f44b	3	1	DL_test	23	DL_test	26	stimuli_target_diamondrectangles.svg	stimuli_distractor_diamondtriangles.svg	23	yes	ta	1	1729	6	5	antiphase_hc_osi.wav	2	6	1	noise_calib_stim_LEFT.wav	1	35	blb_dichoticlistening_ta-pa.mp3	ta	pa	1	left
