build	computer.platform	date	time	timestamp	time_elapsed_ms	subject	group	session	blockcode	blocknum	trialcode	trialnum	stimulus_left	stimulus_right	stim_index	target_present	response	correct	latency	headphonecheck_countTestTrials	headphonecheck_index	headphonecheck_testSound	headphonecheck_correctResponse	stereocheck_countTestTrials	stereocheck_index	stereocheck_testSound	stereocheck_correctResponse	DL_index	DL_soundfile	DL_leftSound	DL_rightSound	DL_dualSound	DL_choice
6.6.1	mac	2023-06-27	17:43:48	17:46:41	169896	5f4fe37111a2531213497942	3	1	practice_slash	5	practice_slash	1	stimuli_target_squarediamonds.svg	stimuli_distractor_trianglediamonds.svg	5	yes	0	0	2000	0	0			0	0			1				0	
6.6.1	mac	2023-06-27	17:43:48	17:46:41	169896	5f4fe37111a2531213497942	3	1	practice_slash	5	advance_on_keypress_SLASH	2	stimuli_target_squarediamonds.svg	stimuli_distractor_trianglediamonds.svg	5	yes	57	0	6203	0	0			0	0			1				0	
6.6.1	mac	2023-06-27	17:43:48	17:46:51	179728	5f4fe37111a2531213497942	3	1	practice_slash	5	practice_slash	3	stimuli_distractor_diamondtriangles.svg	stimuli_distractor_diamondtriangles.svg	13	no	0	1	2000	0	0			0	0			1				0	
6.6.1	mac	2023-06-27	17:43:48	17:46:51	179728	5f4fe37111a2531213497942	3	1	practice_slash	5	advance_on_keypress_SLASH	4	stimuli_distractor_diamondtriangles.svg	stimuli_distractor_diamondtriangles.svg	13	no	57	0	1219	0	0			0	0			1				0	
6.6.1	mac	2023-06-27	17:43:48	17:46:55	183879	5f4fe37111a2531213497942	3	1	practice_slash	5	practice_slash	5	stimuli_target_rectanglediamonds.svg	stimuli_distractor_diamondtriangles.svg	1	yes	53	1	1297	0	0			0	0			1				0	
6.6.1	mac	2023-06-27	17:43:48	17:46:55	183879	5f4fe37111a2531213497942	3	1	practice_slash	5	advance_on_keypress_SLASH	6	stimuli_target_rectanglediamonds.svg	stimuli_distractor_diamondtriangles.svg	1	yes	57	0	972	0	0			0	0			1				0	
6.6.1	mac	2023-06-27	17:43:48	17:46:58	186921	5f4fe37111a2531213497942	3	1	practice_slash	5	practice_slash	7	stimuli_distractor_trianglediamonds.svg	stimuli_target_rectanglediamonds.svg	10	yes	53	1	443	0	0			0	0			1				0	
6.6.1	mac	2023-06-27	17:43:48	17:46:58	186921	5f4fe37111a2531213497942	3	1	practice_slash	5	advance_on_keypress_SLASH	8	stimuli_distractor_trianglediamonds.svg	stimuli_target_rectanglediamonds.svg	10	yes	57	0	697	0	0			0	0			1				0	
6.6.1	mac	2023-06-27	17:43:48	17:47:03	191261	5f4fe37111a2531213497942	3	1	practice_slash	5	practice_slash	9	stimuli_distractor_trianglediamonds.svg	stimuli_distractor_diamondtriangles.svg	16	no	0	1	2000	0	0			0	0			1				0	
6.6.1	mac	2023-06-27	17:43:48	17:47:03	191261	5f4fe37111a2531213497942	3	1	practice_slash	5	advance_on_keypress_SLASH	10	stimuli_distractor_trianglediamonds.svg	stimuli_distractor_diamondtriangles.svg	16	no	57	0	853	0	0			0	0			1				0	
6.6.1	mac	2023-06-27	17:43:48	17:47:06	194731	5f4fe37111a2531213497942	3	1	practice_slash	5	practice_slash	11	stimuli_target_diamondsquares.svg	stimuli_distractor_diamondtriangles.svg	3	yes	53	1	985	0	0			0	0			1				0	
6.6.1	mac	2023-06-27	17:43:48	17:47:06	194731	5f4fe37111a2531213497942	3	1	practice_slash	5	advance_on_keypress_SLASH	12	stimuli_target_diamondsquares.svg	stimuli_distractor_diamondtriangles.svg	3	yes	57	0	808	0	0			0	0			1				0	
6.6.1	mac	2023-06-27	17:43:48	17:47:11	199164	5f4fe37111a2531213497942	3	1	practice_slash	5	practice_slash	13	stimuli_distractor_trianglediamonds.svg	stimuli_distractor_trianglediamonds.svg	15	no	0	1	2000	0	0			0	0			1				0	
6.6.1	mac	2023-06-27	17:43:48	17:47:11	199164	5f4fe37111a2531213497942	3	1	practice_slash	5	advance_on_keypress_SLASH	14	stimuli_distractor_trianglediamonds.svg	stimuli_distractor_trianglediamonds.svg	15	no	57	0	706	0	0			0	0			1				0	
6.6.1	mac	2023-06-27	17:43:48	17:47:14	202859	5f4fe37111a2531213497942	3	1	practice_slash	5	practice_slash	15	stimuli_target_diamondsquares.svg	stimuli_distractor_trianglediamonds.svg	6	yes	53	1	1343	0	0			0	0			1				0	
6.6.1	mac	2023-06-27	17:43:48	17:47:14	202859	5f4fe37111a2531213497942	3	1	practice_slash	5	advance_on_keypress_SLASH	16	stimuli_target_diamondsquares.svg	stimuli_distractor_trianglediamonds.svg	6	yes	57	0	736	0	0			0	0			1				0	
6.6.1	mac	2023-06-27	17:43:48	17:47:18	206404	5f4fe37111a2531213497942	3	1	practice_slash	5	practice_slash	17	stimuli_distractor_trianglediamonds.svg	stimuli_target_squarediamonds.svg	11	yes	53	1	1174	0	0			0	0			1				0	
6.6.1	mac	2023-06-27	17:43:48	17:47:18	206404	5f4fe37111a2531213497942	3	1	practice_slash	5	advance_on_keypress_SLASH	18	stimuli_distractor_trianglediamonds.svg	stimuli_target_squarediamonds.svg	11	yes	57	0	651	0	0			0	0			1				0	
6.6.1	mac	2023-06-27	17:43:48	17:47:22	210058	5f4fe37111a2531213497942	3	1	practice_slash	5	practice_slash	19	stimuli_distractor_diamondtriangles.svg	stimuli_target_rectangletriangles.svg	7	yes	53	1	1360	0	0			0	0			1				0	
6.6.1	mac	2023-06-27	17:43:48	17:47:22	210058	5f4fe37111a2531213497942	3	1	practice_slash	5	advance_on_keypress_SLASH	20	stimuli_distractor_diamondtriangles.svg	stimuli_target_rectangletriangles.svg	7	yes	57	0	2133	0	0			0	0			1				0	
6.6.1	mac	2023-06-27	17:43:48	17:47:27	215090	5f4fe37111a2531213497942	3	1	practice_slash	5	practice_slash	21	stimuli_distractor_diamondtriangles.svg	stimuli_target_diamondrectangles.svg	8	yes	53	1	1259	0	0			0	0			1				0	
6.6.1	mac	2023-06-27	17:43:48	17:47:27	215090	5f4fe37111a2531213497942	3	1	practice_slash	5	advance_on_keypress_SLASH	22	stimuli_distractor_diamondtriangles.svg	stimuli_target_diamondrectangles.svg	8	yes	57	0	604	0	0			0	0			1				0	
6.6.1	mac	2023-06-27	17:43:48	17:47:30	218076	5f4fe37111a2531213497942	3	1	practice_slash	5	practice_slash	23	stimuli_target_rectanglediamonds.svg	stimuli_distractor_trianglediamonds.svg	4	yes	53	1	745	0	0			0	0			1				0	
6.6.1	mac	2023-06-27	17:43:48	17:47:30	218076	5f4fe37111a2531213497942	3	1	practice_slash	5	advance_on_keypress_SLASH	24	stimuli_target_rectanglediamonds.svg	stimuli_distractor_trianglediamonds.svg	4	yes	57	0	467	0	0			0	0			1				0	
6.6.1	mac	2023-06-27	17:43:48	17:47:33	221450	5f4fe37111a2531213497942	3	1	practice_slash	5	practice_slash	25	stimuli_target_squarediamonds.svg	stimuli_distractor_diamondtriangles.svg	2	yes	53	1	1269	0	0			0	0			1				0	
6.6.1	mac	2023-06-27	17:43:48	17:47:33	221450	5f4fe37111a2531213497942	3	1	practice_slash	5	advance_on_keypress_SLASH	26	stimuli_target_squarediamonds.svg	stimuli_distractor_diamondtriangles.svg	2	yes	57	0	527	0	0			0	0			1				0	
6.6.1	mac	2023-06-27	17:43:48	17:47:37	225611	5f4fe37111a2531213497942	3	1	practice_slash	5	practice_slash	27	stimuli_distractor_diamondtriangles.svg	stimuli_distractor_trianglediamonds.svg	14	no	0	1	2000	0	0			0	0			1				0	
6.6.1	mac	2023-06-27	17:43:48	17:47:37	225611	5f4fe37111a2531213497942	3	1	practice_slash	5	advance_on_keypress_SLASH	28	stimuli_distractor_diamondtriangles.svg	stimuli_distractor_trianglediamonds.svg	14	no	57	0	1009	0	0			0	0			1				0	
6.6.1	mac	2023-06-27	17:43:48	17:47:41	229679	5f4fe37111a2531213497942	3	1	practice_slash	5	practice_slash	29	stimuli_distractor_diamondtriangles.svg	stimuli_target_trianglerectangles.svg	9	yes	53	1	1417	0	0			0	0			1				0	
6.6.1	mac	2023-06-27	17:43:48	17:47:41	229679	5f4fe37111a2531213497942	3	1	practice_slash	5	advance_on_keypress_SLASH	30	stimuli_distractor_diamondtriangles.svg	stimuli_target_trianglerectangles.svg	9	yes	57	0	5298	0	0			0	0			1				0	
6.6.1	mac	2023-06-27	17:43:48	17:47:49	237794	5f4fe37111a2531213497942	3	1	practice_slash	5	practice_slash	31	stimuli_distractor_trianglediamonds.svg	stimuli_target_diamondrectangles.svg	12	yes	53	1	1181	0	0			0	0			1				0	
6.6.1	mac	2023-06-27	17:43:48	17:47:49	237794	5f4fe37111a2531213497942	3	1	practice_slash	5	advance_on_keypress_SLASH	32	stimuli_distractor_trianglediamonds.svg	stimuli_target_diamondrectangles.svg	12	yes	57	0	386	0	0			0	0			1				0	
6.6.1	mac	2023-06-27	17:43:48	17:48:13	261657	5f4fe37111a2531213497942	3	1	main_slash	7	main_slash	1	stimuli_target_diamondsquares.svg	stimuli_distractor_trianglediamonds.svg	20	yes	53	1	1028	0	0			0	0			1				0	
6.6.1	mac	2023-06-27	17:43:48	17:48:13	261657	5f4fe37111a2531213497942	3	1	main_slash	7	advance_on_keypress_SLASH	2	stimuli_target_diamondsquares.svg	stimuli_distractor_trianglediamonds.svg	20	yes	57	0	1140	0	0			0	0			1				0	
6.6.1	mac	2023-06-27	17:43:48	17:48:16	264126	5f4fe37111a2531213497942	3	1	main_slash	7	main_slash	3	stimuli_target_squarediamonds.svg	stimuli_distractor_trianglediamonds.svg	4	yes	53	1	697	0	0			0	0			1				0	
6.6.1	mac	2023-06-27	17:43:48	17:48:16	264126	5f4fe37111a2531213497942	3	1	main_slash	7	advance_on_keypress_SLASH	4	stimuli_target_squarediamonds.svg	stimuli_distractor_trianglediamonds.svg	4	yes	57	0	1315	0	0			0	0			1				0	
6.6.1	mac	2023-06-27	17:43:48	17:48:18	266857	5f4fe37111a2531213497942	3	1	main_slash	7	main_slash	5	stimuli_target_trianglerectangles.svg	stimuli_distractor_diamondtriangles.svg	21	yes	53	1	779	0	0			0	0			1				0	
6.6.1	mac	2023-06-27	17:43:48	17:48:18	266857	5f4fe37111a2531213497942	3	1	main_slash	7	advance_on_keypress_SLASH	6	stimuli_target_trianglerectangles.svg	stimuli_distractor_diamondtriangles.svg	21	yes	57	0	1298	0	0			0	0			1				0	
6.6.1	mac	2023-06-27	17:43:48	17:48:22	270794	5f4fe37111a2531213497942	3	1	main_slash	7	main_slash	7	stimuli_target_diamondrectangles.svg	stimuli_distractor_trianglediamonds.svg	19	yes	0	0	2000	0	0			0	0			1				0	
6.6.1	mac	2023-06-27	17:43:48	17:48:22	270794	5f4fe37111a2531213497942	3	1	main_slash	7	advance_on_keypress_SLASH	8	stimuli_target_diamondrectangles.svg	stimuli_distractor_trianglediamonds.svg	19	yes	57	0	793	0	0			0	0			1				0	
6.6.1	mac	2023-06-27	17:43:48	17:48:25	273464	5f4fe37111a2531213497942	3	1	main_slash	7	main_slash	9	stimuli_target_squaretriangles.svg	stimuli_distractor_diamondtriangles.svg	7	yes	53	1	1235	0	0			0	0			1				0	
6.6.1	mac	2023-06-27	17:43:48	17:48:25	273464	5f4fe37111a2531213497942	3	1	main_slash	7	advance_on_keypress_SLASH	10	stimuli_target_squaretriangles.svg	stimuli_distractor_diamondtriangles.svg	7	yes	57	0	1578	0	0			0	0			1				0	
6.6.1	mac	2023-06-27	17:43:48	17:48:28	276350	5f4fe37111a2531213497942	3	1	main_slash	7	main_slash	11	stimuli_target_trianglesquares.svg	stimuli_distractor_trianglediamonds.svg	18	yes	53	1	670	0	0			0	0			1				0	
6.6.1	mac	2023-06-27	17:43:48	17:48:28	276350	5f4fe37111a2531213497942	3	1	main_slash	7	advance_on_keypress_SLASH	12	stimuli_target_trianglesquares.svg	stimuli_distractor_trianglediamonds.svg	18	yes	57	0	1836	0	0			0	0			1				0	
6.6.1	mac	2023-06-27	17:43:48	17:48:32	280809	5f4fe37111a2531213497942	3	1	main_slash	7	main_slash	13	stimuli_distractor_trianglediamonds.svg	stimuli_distractor_diamondtriangles.svg	35	no	0	1	2000	0	0			0	0			1				0	
6.6.1	mac	2023-06-27	17:43:48	17:48:32	280809	5f4fe37111a2531213497942	3	1	main_slash	7	advance_on_keypress_SLASH	14	stimuli_distractor_trianglediamonds.svg	stimuli_distractor_diamondtriangles.svg	35	no	57	0	598	0	0			0	0			1				0	
6.6.1	mac	2023-06-27	17:43:48	17:48:34	282568	5f4fe37111a2531213497942	3	1	main_slash	7	main_slash	15	stimuli_target_rectanglediamonds.svg	stimuli_distractor_trianglediamonds.svg	2	yes	53	1	524	0	0			0	0			1				0	
6.6.1	mac	2023-06-27	17:43:48	17:48:34	282568	5f4fe37111a2531213497942	3	1	main_slash	7	advance_on_keypress_SLASH	16	stimuli_target_rectanglediamonds.svg	stimuli_distractor_trianglediamonds.svg	2	yes	57	0	1051	0	0			0	0			1				0	
6.6.1	mac	2023-06-27	17:43:48	17:48:37	285576	5f4fe37111a2531213497942	3	1	main_slash	7	main_slash	17	stimuli_target_trianglerectangles.svg	stimuli_distractor_trianglediamonds.svg	17	yes	53	1	1330	0	0			0	0			1				0	
6.6.1	mac	2023-06-27	17:43:48	17:48:37	285576	5f4fe37111a2531213497942	3	1	main_slash	7	advance_on_keypress_SLASH	18	stimuli_target_trianglerectangles.svg	stimuli_distractor_trianglediamonds.svg	17	yes	57	0	1154	0	0			0	0			1				0	
6.6.1	mac	2023-06-27	17:43:48	17:48:40	288259	5f4fe37111a2531213497942	3	1	main_slash	7	main_slash	19	stimuli_distractor_trianglediamonds.svg	stimuli_target_rectangletriangles.svg	9	yes	53	1	897	0	0			0	0			1				0	
6.6.1	mac	2023-06-27	17:43:48	17:48:40	288259	5f4fe37111a2531213497942	3	1	main_slash	7	advance_on_keypress_SLASH	20	stimuli_distractor_trianglediamonds.svg	stimuli_target_rectangletriangles.svg	9	yes	57	0	836	0	0			0	0			1				0	
6.6.1	mac	2023-06-27	17:43:48	17:48:42	290490	5f4fe37111a2531213497942	3	1	main_slash	7	main_slash	21	stimuli_target_rectangletriangles.svg	stimuli_distractor_trianglediamonds.svg	1	yes	53	1	761	0	0			0	0			1				0	
6.6.1	mac	2023-06-27	17:43:48	17:48:42	290490	5f4fe37111a2531213497942	3	1	main_slash	7	advance_on_keypress_SLASH	22	stimuli_target_rectangletriangles.svg	stimuli_distractor_trianglediamonds.svg	1	yes	57	0	644	0	0			0	0			1				0	
6.6.1	mac	2023-06-27	17:43:48	17:48:44	292508	5f4fe37111a2531213497942	3	1	main_slash	7	main_slash	23	stimuli_distractor_diamondtriangles.svg	stimuli_target_trianglerectangles.svg	29	yes	53	1	729	0	0			0	0			1				0	
6.6.1	mac	2023-06-27	17:43:48	17:48:44	292508	5f4fe37111a2531213497942	3	1	main_slash	7	advance_on_keypress_SLASH	24	stimuli_distractor_diamondtriangles.svg	stimuli_target_trianglerectangles.svg	29	yes	57	0	714	0	0			0	0			1				0	
6.6.1	mac	2023-06-27	17:43:48	17:48:47	295246	5f4fe37111a2531213497942	3	1	main_slash	7	main_slash	25	stimuli_distractor_trianglediamonds.svg	stimuli_distractor_trianglediamonds.svg	34	no	53	0	1384	0	0			0	0			1				0	
6.6.1	mac	2023-06-27	17:43:48	17:48:47	295246	5f4fe37111a2531213497942	3	1	main_slash	7	advance_on_keypress_SLASH	26	stimuli_distractor_trianglediamonds.svg	stimuli_distractor_trianglediamonds.svg	34	no	57	0	719	0	0			0	0			1				0	
6.6.1	mac	2023-06-27	17:43:48	17:48:49	297264	5f4fe37111a2531213497942	3	1	main_slash	7	main_slash	27	stimuli_distractor_trianglediamonds.svg	stimuli_target_trianglesquares.svg	26	yes	53	1	669	0	0			0	0			1				0	
6.6.1	mac	2023-06-27	17:43:48	17:48:49	297264	5f4fe37111a2531213497942	3	1	main_slash	7	advance_on_keypress_SLASH	28	stimuli_distractor_trianglediamonds.svg	stimuli_target_trianglesquares.svg	26	yes	57	0	1362	0	0			0	0			1				0	
6.6.1	mac	2023-06-27	17:43:48	17:48:53	301260	5f4fe37111a2531213497942	3	1	main_slash	7	main_slash	29	stimuli_distractor_diamondtriangles.svg	stimuli_distractor_diamondtriangles.svg	39	no	0	1	2000	0	0			0	0			1				0	
6.6.1	mac	2023-06-27	17:43:48	17:48:53	301260	5f4fe37111a2531213497942	3	1	main_slash	7	advance_on_keypress_SLASH	30	stimuli_distractor_diamondtriangles.svg	stimuli_distractor_diamondtriangles.svg	39	no	57	0	651	0	0			0	0			1				0	
6.6.1	mac	2023-06-27	17:43:48	17:48:55	303540	5f4fe37111a2531213497942	3	1	main_slash	7	main_slash	31	stimuli_distractor_trianglediamonds.svg	stimuli_target_diamondrectangles.svg	27	yes	53	1	995	0	0			0	0			1				0	
6.6.1	mac	2023-06-27	17:43:48	17:48:55	303540	5f4fe37111a2531213497942	3	1	main_slash	7	advance_on_keypress_SLASH	32	stimuli_distractor_trianglediamonds.svg	stimuli_target_diamondrectangles.svg	27	yes	57	0	1198	0	0			0	0			1				0	
6.6.1	mac	2023-06-27	17:43:48	17:48:58	306753	5f4fe37111a2531213497942	3	1	main_slash	7	main_slash	33	stimuli_distractor_trianglediamonds.svg	stimuli_target_squarediamonds.svg	12	yes	53	1	1373	0	0			0	0			1				0	
6.6.1	mac	2023-06-27	17:43:48	17:48:58	306753	5f4fe37111a2531213497942	3	1	main_slash	7	advance_on_keypress_SLASH	34	stimuli_distractor_trianglediamonds.svg	stimuli_target_squarediamonds.svg	12	yes	57	0	926	0	0			0	0			1				0	
6.6.1	mac	2023-06-27	17:43:48	17:49:01	309145	5f4fe37111a2531213497942	3	1	main_slash	7	main_slash	35	stimuli_distractor_trianglediamonds.svg	stimuli_target_squaretriangles.svg	11	yes	53	1	817	0	0			0	0			1				0	
6.6.1	mac	2023-06-27	17:43:48	17:49:01	309145	5f4fe37111a2531213497942	3	1	main_slash	7	advance_on_keypress_SLASH	36	stimuli_distractor_trianglediamonds.svg	stimuli_target_squaretriangles.svg	11	yes	57	0	837	0	0			0	0			1				0	
6.6.1	mac	2023-06-27	17:43:48	17:49:03	311671	5f4fe37111a2531213497942	3	1	main_slash	7	main_slash	37	stimuli_target_trianglesquares.svg	stimuli_distractor_diamondtriangles.svg	22	yes	53	1	1059	0	0			0	0			1				0	
6.6.1	mac	2023-06-27	17:43:48	17:49:03	311671	5f4fe37111a2531213497942	3	1	main_slash	7	advance_on_keypress_SLASH	38	stimuli_target_trianglesquares.svg	stimuli_distractor_diamondtriangles.svg	22	yes	57	0	1132	0	0			0	0			1				0	
6.6.1	mac	2023-06-27	17:43:48	17:49:06	314412	5f4fe37111a2531213497942	3	1	main_slash	7	main_slash	39	stimuli_target_squarediamonds.svg	stimuli_distractor_diamondtriangles.svg	8	yes	53	1	966	0	0			0	0			1				0	
6.6.1	mac	2023-06-27	17:43:48	17:49:06	314412	5f4fe37111a2531213497942	3	1	main_slash	7	advance_on_keypress_SLASH	40	stimuli_target_squarediamonds.svg	stimuli_distractor_diamondtriangles.svg	8	yes	57	0	636	0	0			0	0			1				0	
6.6.1	mac	2023-06-27	17:43:48	17:49:09	317678	5f4fe37111a2531213497942	3	1	main_slash	7	main_slash	41	stimuli_distractor_trianglediamonds.svg	stimuli_distractor_diamondtriangles.svg	36	no	0	1	2000	0	0			0	0			1				0	
6.6.1	mac	2023-06-27	17:43:48	17:49:09	317678	5f4fe37111a2531213497942	3	1	main_slash	7	advance_on_keypress_SLASH	42	stimuli_distractor_trianglediamonds.svg	stimuli_distractor_diamondtriangles.svg	36	no	57	0	602	0	0			0	0			1				0	
6.6.1	mac	2023-06-27	17:43:48	17:49:12	320909	5f4fe37111a2531213497942	3	1	main_slash	7	main_slash	43	stimuli_distractor_diamondtriangles.svg	stimuli_distractor_trianglediamonds.svg	37	no	0	1	2000	0	0			0	0			1				0	
6.6.1	mac	2023-06-27	17:43:48	17:49:12	320909	5f4fe37111a2531213497942	3	1	main_slash	7	advance_on_keypress_SLASH	44	stimuli_distractor_diamondtriangles.svg	stimuli_distractor_trianglediamonds.svg	37	no	57	0	131	0	0			0	0			1				0	
6.6.1	mac	2023-06-27	17:43:48	17:49:15	323143	5f4fe37111a2531213497942	3	1	main_slash	7	main_slash	45	stimuli_target_rectanglediamonds.svg	stimuli_distractor_diamondtriangles.svg	6	yes	53	1	1464	0	0			0	0			1				0	
6.6.1	mac	2023-06-27	17:43:48	17:49:15	323143	5f4fe37111a2531213497942	3	1	main_slash	7	advance_on_keypress_SLASH	46	stimuli_target_rectanglediamonds.svg	stimuli_distractor_diamondtriangles.svg	6	yes	57	0	675	0	0			0	0			1				0	
6.6.1	mac	2023-06-27	17:43:48	17:49:17	325235	5f4fe37111a2531213497942	3	1	main_slash	7	main_slash	47	stimuli_target_rectangletriangles.svg	stimuli_distractor_diamondtriangles.svg	5	yes	53	1	772	0	0			0	0			1				0	
6.6.1	mac	2023-06-27	17:43:48	17:49:17	325235	5f4fe37111a2531213497942	3	1	main_slash	7	advance_on_keypress_SLASH	48	stimuli_target_rectangletriangles.svg	stimuli_distractor_diamondtriangles.svg	5	yes	57	0	707	0	0			0	0			1				0	
6.6.1	mac	2023-06-27	17:43:48	17:49:19	327380	5f4fe37111a2531213497942	3	1	main_slash	7	main_slash	49	stimuli_distractor_trianglediamonds.svg	stimuli_target_rectanglediamonds.svg	10	yes	53	1	817	0	0			0	0			1				0	
6.6.1	mac	2023-06-27	17:43:48	17:49:19	327380	5f4fe37111a2531213497942	3	1	main_slash	7	advance_on_keypress_SLASH	50	stimuli_distractor_trianglediamonds.svg	stimuli_target_rectanglediamonds.svg	10	yes	57	0	589	0	0			0	0			1				0	
6.6.1	mac	2023-06-27	17:43:48	17:49:21	329432	5f4fe37111a2531213497942	3	1	main_slash	7	main_slash	51	stimuli_distractor_diamondtriangles.svg	stimuli_target_squaretriangles.svg	15	yes	53	1	836	0	0			0	0			1				0	
6.6.1	mac	2023-06-27	17:43:48	17:49:21	329432	5f4fe37111a2531213497942	3	1	main_slash	7	advance_on_keypress_SLASH	52	stimuli_distractor_diamondtriangles.svg	stimuli_target_squaretriangles.svg	15	yes	57	0	492	0	0			0	0			1				0	
6.6.1	mac	2023-06-27	17:43:48	17:49:23	331642	5f4fe37111a2531213497942	3	1	main_slash	7	main_slash	53	stimuli_distractor_trianglediamonds.svg	stimuli_target_trianglerectangles.svg	25	yes	53	1	1079	0	0			0	0			1				0	
6.6.1	mac	2023-06-27	17:43:48	17:49:23	331642	5f4fe37111a2531213497942	3	1	main_slash	7	advance_on_keypress_SLASH	54	stimuli_distractor_trianglediamonds.svg	stimuli_target_trianglerectangles.svg	25	yes	57	0	534	0	0			0	0			1				0	
6.6.1	mac	2023-06-27	17:43:48	17:49:25	333971	5f4fe37111a2531213497942	3	1	main_slash	7	main_slash	55	stimuli_distractor_diamondtriangles.svg	stimuli_target_squarediamonds.svg	16	yes	53	1	1157	0	0			0	0			1				0	
6.6.1	mac	2023-06-27	17:43:48	17:49:25	333971	5f4fe37111a2531213497942	3	1	main_slash	7	advance_on_keypress_SLASH	56	stimuli_distractor_diamondtriangles.svg	stimuli_target_squarediamonds.svg	16	yes	57	0	423	0	0			0	0			1				0	
6.6.1	mac	2023-06-27	17:43:48	17:49:28	336211	5f4fe37111a2531213497942	3	1	main_slash	7	main_slash	57	stimuli_distractor_diamondtriangles.svg	stimuli_target_diamondrectangles.svg	31	yes	53	1	1183	0	0			0	0			1				0	
6.6.1	mac	2023-06-27	17:43:48	17:49:28	336211	5f4fe37111a2531213497942	3	1	main_slash	7	advance_on_keypress_SLASH	58	stimuli_distractor_diamondtriangles.svg	stimuli_target_diamondrectangles.svg	31	yes	57	0	518	0	0			0	0			1				0	
6.6.1	mac	2023-06-27	17:43:48	17:49:30	338667	5f4fe37111a2531213497942	3	1	main_slash	7	main_slash	59	stimuli_target_diamondsquares.svg	stimuli_distractor_diamondtriangles.svg	24	yes	53	1	1304	0	0			0	0			1				0	
6.6.1	mac	2023-06-27	17:43:48	17:49:30	338667	5f4fe37111a2531213497942	3	1	main_slash	7	advance_on_keypress_SLASH	60	stimuli_target_diamondsquares.svg	stimuli_distractor_diamondtriangles.svg	24	yes	57	0	391	0	0			0	0			1				0	
6.6.1	mac	2023-06-27	17:43:48	17:49:33	341010	5f4fe37111a2531213497942	3	1	main_slash	7	main_slash	61	stimuli_distractor_diamondtriangles.svg	stimuli_distractor_trianglediamonds.svg	38	no	53	0	1331	0	0			0	0			1				0	
6.6.1	mac	2023-06-27	17:43:48	17:49:33	341010	5f4fe37111a2531213497942	3	1	main_slash	7	advance_on_keypress_SLASH	62	stimuli_distractor_diamondtriangles.svg	stimuli_distractor_trianglediamonds.svg	38	no	57	0	337	0	0			0	0			1				0	
6.6.1	mac	2023-06-27	17:43:48	17:49:35	343020	5f4fe37111a2531213497942	3	1	main_slash	7	main_slash	63	stimuli_target_diamondrectangles.svg	stimuli_distractor_diamondtriangles.svg	23	yes	53	1	1041	0	0			0	0			1				0	
6.6.1	mac	2023-06-27	17:43:48	17:49:35	343020	5f4fe37111a2531213497942	3	1	main_slash	7	advance_on_keypress_SLASH	64	stimuli_target_diamondrectangles.svg	stimuli_distractor_diamondtriangles.svg	23	yes	57	0	376	0	0			0	0			1				0	
6.6.1	mac	2023-06-27	17:43:48	17:49:37	345207	5f4fe37111a2531213497942	3	1	main_slash	7	main_slash	65	stimuli_distractor_diamondtriangles.svg	stimuli_target_rectanglediamonds.svg	14	yes	53	1	1193	0	0			0	0			1				0	
6.6.1	mac	2023-06-27	17:43:48	17:49:37	345207	5f4fe37111a2531213497942	3	1	main_slash	7	advance_on_keypress_SLASH	66	stimuli_distractor_diamondtriangles.svg	stimuli_target_rectanglediamonds.svg	14	yes	57	0	421	0	0			0	0			1				0	
6.6.1	mac	2023-06-27	17:43:48	17:49:39	347363	5f4fe37111a2531213497942	3	1	main_slash	7	main_slash	67	stimuli_distractor_diamondtriangles.svg	stimuli_target_diamondsquares.svg	32	yes	53	1	1100	0	0			0	0			1				0	
6.6.1	mac	2023-06-27	17:43:48	17:49:39	347363	5f4fe37111a2531213497942	3	1	main_slash	7	advance_on_keypress_SLASH	68	stimuli_distractor_diamondtriangles.svg	stimuli_target_diamondsquares.svg	32	yes	57	0	413	0	0			0	0			1				0	
6.6.1	mac	2023-06-27	17:43:48	17:49:41	349395	5f4fe37111a2531213497942	3	1	main_slash	7	main_slash	69	stimuli_distractor_trianglediamonds.svg	stimuli_target_diamondsquares.svg	28	yes	53	1	983	0	0			0	0			1				0	
6.6.1	mac	2023-06-27	17:43:48	17:49:41	349395	5f4fe37111a2531213497942	3	1	main_slash	7	advance_on_keypress_SLASH	70	stimuli_distractor_trianglediamonds.svg	stimuli_target_diamondsquares.svg	28	yes	57	0	442	0	0			0	0			1				0	
6.6.1	mac	2023-06-27	17:43:48	17:49:43	351938	5f4fe37111a2531213497942	3	1	main_slash	7	main_slash	71	stimuli_target_squaretriangles.svg	stimuli_distractor_trianglediamonds.svg	3	yes	53	1	1475	0	0			0	0			1				0	
6.6.1	mac	2023-06-27	17:43:48	17:49:43	351938	5f4fe37111a2531213497942	3	1	main_slash	7	advance_on_keypress_SLASH	72	stimuli_target_squaretriangles.svg	stimuli_distractor_trianglediamonds.svg	3	yes	57	0	347	0	0			0	0			1				0	
6.6.1	mac	2023-06-27	17:43:48	17:49:45	353775	5f4fe37111a2531213497942	3	1	main_slash	7	main_slash	73	stimuli_distractor_diamondtriangles.svg	stimuli_target_rectangletriangles.svg	13	yes	53	1	846	0	0			0	0			1				0	
6.6.1	mac	2023-06-27	17:43:48	17:49:45	353775	5f4fe37111a2531213497942	3	1	main_slash	7	advance_on_keypress_SLASH	74	stimuli_distractor_diamondtriangles.svg	stimuli_target_rectangletriangles.svg	13	yes	57	0	397	0	0			0	0			1				0	
6.6.1	mac	2023-06-27	17:43:48	17:49:48	356810	5f4fe37111a2531213497942	3	1	main_slash	7	main_slash	75	stimuli_distractor_trianglediamonds.svg	stimuli_distractor_trianglediamonds.svg	33	no	0	1	2000	0	0			0	0			1				0	
6.6.1	mac	2023-06-27	17:43:48	17:49:48	356810	5f4fe37111a2531213497942	3	1	main_slash	7	advance_on_keypress_SLASH	76	stimuli_distractor_trianglediamonds.svg	stimuli_distractor_trianglediamonds.svg	33	no	57	0	908	0	0			0	0			1				0	
6.6.1	mac	2023-06-27	17:43:48	17:49:52	360362	5f4fe37111a2531213497942	3	1	main_slash	7	main_slash	77	stimuli_distractor_diamondtriangles.svg	stimuli_distractor_diamondtriangles.svg	40	no	0	1	2000	0	0			0	0			1				0	
6.6.1	mac	2023-06-27	17:43:48	17:49:52	360362	5f4fe37111a2531213497942	3	1	main_slash	7	advance_on_keypress_SLASH	78	stimuli_distractor_diamondtriangles.svg	stimuli_distractor_diamondtriangles.svg	40	no	57	0	1743	0	0			0	0			1				0	
6.6.1	mac	2023-06-27	17:43:48	17:49:55	363657	5f4fe37111a2531213497942	3	1	main_slash	7	main_slash	79	stimuli_distractor_diamondtriangles.svg	stimuli_target_trianglesquares.svg	30	yes	53	1	911	0	0			0	0			1				0	
6.6.1	mac	2023-06-27	17:43:48	17:49:55	363657	5f4fe37111a2531213497942	3	1	main_slash	7	advance_on_keypress_SLASH	80	stimuli_distractor_diamondtriangles.svg	stimuli_target_trianglesquares.svg	30	yes	57	0	398	0	0			0	0			1				0	
6.6.1	mac	2023-06-27	17:43:48	17:49:57	365526	5f4fe37111a2531213497942	3	1	main_slash	7	main_slash	81	stimuli_distractor_diamondtriangles.svg	stimuli_target_diamondsquares.svg	32	yes	53	1	830	0	0			0	0			1				0	
6.6.1	mac	2023-06-27	17:43:48	17:49:57	365526	5f4fe37111a2531213497942	3	1	main_slash	7	advance_on_keypress_SLASH	82	stimuli_distractor_diamondtriangles.svg	stimuli_target_diamondsquares.svg	32	yes	57	0	414	0	0			0	0			1				0	
6.6.1	mac	2023-06-27	17:43:48	17:49:59	367456	5f4fe37111a2531213497942	3	1	main_slash	7	main_slash	83	stimuli_distractor_trianglediamonds.svg	stimuli_target_squarediamonds.svg	12	yes	53	1	877	0	0			0	0			1				0	
6.6.1	mac	2023-06-27	17:43:48	17:49:59	367456	5f4fe37111a2531213497942	3	1	main_slash	7	advance_on_keypress_SLASH	84	stimuli_distractor_trianglediamonds.svg	stimuli_target_squarediamonds.svg	12	yes	57	0	375	0	0			0	0			1				0	
6.6.1	mac	2023-06-27	17:43:48	17:50:01	369519	5f4fe37111a2531213497942	3	1	main_slash	7	main_slash	85	stimuli_target_diamondsquares.svg	stimuli_distractor_trianglediamonds.svg	20	yes	53	1	1056	0	0			0	0			1				0	
6.6.1	mac	2023-06-27	17:43:48	17:50:01	369519	5f4fe37111a2531213497942	3	1	main_slash	7	advance_on_keypress_SLASH	86	stimuli_target_diamondsquares.svg	stimuli_distractor_trianglediamonds.svg	20	yes	57	0	376	0	0			0	0			1				0	
6.6.1	mac	2023-06-27	17:43:48	17:50:03	371665	5f4fe37111a2531213497942	3	1	main_slash	7	main_slash	87	stimuli_distractor_trianglediamonds.svg	stimuli_distractor_diamondtriangles.svg	36	no	53	0	1136	0	0			0	0			1				0	
6.6.1	mac	2023-06-27	17:43:48	17:50:03	371665	5f4fe37111a2531213497942	3	1	main_slash	7	advance_on_keypress_SLASH	88	stimuli_distractor_trianglediamonds.svg	stimuli_distractor_diamondtriangles.svg	36	no	57	0	336	0	0			0	0			1				0	
6.6.1	mac	2023-06-27	17:43:48	17:50:06	374627	5f4fe37111a2531213497942	3	1	main_slash	7	main_slash	89	stimuli_distractor_trianglediamonds.svg	stimuli_distractor_trianglediamonds.svg	33	no	0	1	2000	0	0			0	0			1				0	
6.6.1	mac	2023-06-27	17:43:48	17:50:06	374627	5f4fe37111a2531213497942	3	1	main_slash	7	advance_on_keypress_SLASH	90	stimuli_distractor_trianglediamonds.svg	stimuli_distractor_trianglediamonds.svg	33	no	57	0	279	0	0			0	0			1				0	
6.6.1	mac	2023-06-27	17:43:48	17:50:08	376857	5f4fe37111a2531213497942	3	1	main_slash	7	main_slash	91	stimuli_target_rectangletriangles.svg	stimuli_distractor_diamondtriangles.svg	5	yes	53	1	1311	0	0			0	0			1				0	
6.6.1	mac	2023-06-27	17:43:48	17:50:08	376857	5f4fe37111a2531213497942	3	1	main_slash	7	advance_on_keypress_SLASH	92	stimuli_target_rectangletriangles.svg	stimuli_distractor_diamondtriangles.svg	5	yes	57	0	374	0	0			0	0			1				0	
6.6.1	mac	2023-06-27	17:43:48	17:50:11	379860	5f4fe37111a2531213497942	3	1	main_slash	7	main_slash	93	stimuli_target_trianglerectangles.svg	stimuli_distractor_trianglediamonds.svg	17	yes	0	0	2000	0	0			0	0			1				0	
6.6.1	mac	2023-06-27	17:43:48	17:50:11	379860	5f4fe37111a2531213497942	3	1	main_slash	7	advance_on_keypress_SLASH	94	stimuli_target_trianglerectangles.svg	stimuli_distractor_trianglediamonds.svg	17	yes	57	0	511	0	0			0	0			1				0	
6.6.1	mac	2023-06-27	17:43:48	17:50:14	382653	5f4fe37111a2531213497942	3	1	main_slash	7	main_slash	95	stimuli_distractor_diamondtriangles.svg	stimuli_distractor_trianglediamonds.svg	38	no	53	0	1641	0	0			0	0			1				0	
6.6.1	mac	2023-06-27	17:43:48	17:50:14	382653	5f4fe37111a2531213497942	3	1	main_slash	7	advance_on_keypress_SLASH	96	stimuli_distractor_diamondtriangles.svg	stimuli_distractor_trianglediamonds.svg	38	no	57	0	468	0	0			0	0			1				0	
6.6.1	mac	2023-06-27	17:43:48	17:50:16	384722	5f4fe37111a2531213497942	3	1	main_slash	7	main_slash	97	stimuli_distractor_diamondtriangles.svg	stimuli_target_squarediamonds.svg	16	yes	53	1	976	0	0			0	0			1				0	
6.6.1	mac	2023-06-27	17:43:48	17:50:16	384722	5f4fe37111a2531213497942	3	1	main_slash	7	advance_on_keypress_SLASH	98	stimuli_distractor_diamondtriangles.svg	stimuli_target_squarediamonds.svg	16	yes	57	0	323	0	0			0	0			1				0	
6.6.1	mac	2023-06-27	17:43:48	17:50:18	386849	5f4fe37111a2531213497942	3	1	main_slash	7	main_slash	99	stimuli_distractor_trianglediamonds.svg	stimuli_target_trianglerectangles.svg	25	yes	53	1	1169	0	0			0	0			1				0	
6.6.1	mac	2023-06-27	17:43:48	17:50:18	386849	5f4fe37111a2531213497942	3	1	main_slash	7	advance_on_keypress_SLASH	100	stimuli_distractor_trianglediamonds.svg	stimuli_target_trianglerectangles.svg	25	yes	57	0	370	0	0			0	0			1				0	
6.6.1	mac	2023-06-27	17:43:48	17:50:20	388673	5f4fe37111a2531213497942	3	1	main_slash	7	main_slash	101	stimuli_distractor_trianglediamonds.svg	stimuli_target_trianglesquares.svg	26	yes	53	1	827	0	0			0	0			1				0	
6.6.1	mac	2023-06-27	17:43:48	17:50:20	388673	5f4fe37111a2531213497942	3	1	main_slash	7	advance_on_keypress_SLASH	102	stimuli_distractor_trianglediamonds.svg	stimuli_target_trianglesquares.svg	26	yes	57	0	415	0	0			0	0			1				0	
6.6.1	mac	2023-06-27	17:43:48	17:50:22	390858	5f4fe37111a2531213497942	3	1	main_slash	7	main_slash	103	stimuli_target_rectanglediamonds.svg	stimuli_distractor_diamondtriangles.svg	6	yes	53	1	1127	0	0			0	0			1				0	
6.6.1	mac	2023-06-27	17:43:48	17:50:22	390858	5f4fe37111a2531213497942	3	1	main_slash	7	advance_on_keypress_SLASH	104	stimuli_target_rectanglediamonds.svg	stimuli_distractor_diamondtriangles.svg	6	yes	57	0	343	0	0			0	0			1				0	
6.6.1	mac	2023-06-27	17:43:48	17:50:25	393843	5f4fe37111a2531213497942	3	1	main_slash	7	main_slash	105	stimuli_target_diamondrectangles.svg	stimuli_distractor_trianglediamonds.svg	19	yes	0	0	2000	0	0			0	0			1				0	
6.6.1	mac	2023-06-27	17:43:48	17:50:25	393843	5f4fe37111a2531213497942	3	1	main_slash	7	advance_on_keypress_SLASH	106	stimuli_target_diamondrectangles.svg	stimuli_distractor_trianglediamonds.svg	19	yes	57	0	908	0	0			0	0			1				0	
6.6.1	mac	2023-06-27	17:43:48	17:50:28	396178	5f4fe37111a2531213497942	3	1	main_slash	7	main_slash	107	stimuli_target_diamondrectangles.svg	stimuli_distractor_diamondtriangles.svg	23	yes	53	1	799	0	0			0	0			1				0	
6.6.1	mac	2023-06-27	17:43:48	17:50:28	396178	5f4fe37111a2531213497942	3	1	main_slash	7	advance_on_keypress_SLASH	108	stimuli_target_diamondrectangles.svg	stimuli_distractor_diamondtriangles.svg	23	yes	57	0	334	0	0			0	0			1				0	
6.6.1	mac	2023-06-27	17:43:48	17:50:30	398128	5f4fe37111a2531213497942	3	1	main_slash	7	main_slash	109	stimuli_distractor_diamondtriangles.svg	stimuli_target_rectanglediamonds.svg	14	yes	53	1	983	0	0			0	0			1				0	
6.6.1	mac	2023-06-27	17:43:48	17:50:30	398128	5f4fe37111a2531213497942	3	1	main_slash	7	advance_on_keypress_SLASH	110	stimuli_distractor_diamondtriangles.svg	stimuli_target_rectanglediamonds.svg	14	yes	57	0	381	0	0			0	0			1				0	
6.6.1	mac	2023-06-27	17:43:48	17:50:32	400414	5f4fe37111a2531213497942	3	1	main_slash	7	main_slash	111	stimuli_distractor_diamondtriangles.svg	stimuli_target_diamondrectangles.svg	31	yes	53	1	1268	0	0			0	0			1				0	
6.6.1	mac	2023-06-27	17:43:48	17:50:32	400414	5f4fe37111a2531213497942	3	1	main_slash	7	advance_on_keypress_SLASH	112	stimuli_distractor_diamondtriangles.svg	stimuli_target_diamondrectangles.svg	31	yes	57	0	281	0	0			0	0			1				0	
6.6.1	mac	2023-06-27	17:43:48	17:50:34	402283	5f4fe37111a2531213497942	3	1	main_slash	7	main_slash	113	stimuli_target_trianglerectangles.svg	stimuli_distractor_diamondtriangles.svg	21	yes	53	1	954	0	0			0	0			1				0	
6.6.1	mac	2023-06-27	17:43:48	17:50:34	402283	5f4fe37111a2531213497942	3	1	main_slash	7	advance_on_keypress_SLASH	114	stimuli_target_trianglerectangles.svg	stimuli_distractor_diamondtriangles.svg	21	yes	57	0	362	0	0			0	0			1				0	
6.6.1	mac	2023-06-27	17:43:48	17:50:36	404162	5f4fe37111a2531213497942	3	1	main_slash	7	main_slash	115	stimuli_distractor_trianglediamonds.svg	stimuli_target_diamondrectangles.svg	27	yes	53	1	880	0	0			0	0			1				0	
6.6.1	mac	2023-06-27	17:43:48	17:50:36	404162	5f4fe37111a2531213497942	3	1	main_slash	7	advance_on_keypress_SLASH	116	stimuli_distractor_trianglediamonds.svg	stimuli_target_diamondrectangles.svg	27	yes	57	0	320	0	0			0	0			1				0	
6.6.1	mac	2023-06-27	17:43:48	17:50:37	405825	5f4fe37111a2531213497942	3	1	main_slash	7	main_slash	117	stimuli_distractor_diamondtriangles.svg	stimuli_target_trianglesquares.svg	30	yes	53	1	712	0	0			0	0			1				0	
6.6.1	mac	2023-06-27	17:43:48	17:50:37	405825	5f4fe37111a2531213497942	3	1	main_slash	7	advance_on_keypress_SLASH	118	stimuli_distractor_diamondtriangles.svg	stimuli_target_trianglesquares.svg	30	yes	57	0	670	0	0			0	0			1				0	
6.6.1	mac	2023-06-27	17:43:48	17:50:41	409127	5f4fe37111a2531213497942	3	1	main_slash	7	main_slash	119	stimuli_target_squaretriangles.svg	stimuli_distractor_diamondtriangles.svg	7	yes	0	0	2000	0	0			0	0			1				0	
6.6.1	mac	2023-06-27	17:43:48	17:50:41	409127	5f4fe37111a2531213497942	3	1	main_slash	7	advance_on_keypress_SLASH	120	stimuli_target_squaretriangles.svg	stimuli_distractor_diamondtriangles.svg	7	yes	57	0	953	0	0			0	0			1				0	
6.6.1	mac	2023-06-27	17:43:48	17:50:43	411701	5f4fe37111a2531213497942	3	1	main_slash	7	main_slash	121	stimuli_target_rectangletriangles.svg	stimuli_distractor_trianglediamonds.svg	1	yes	53	1	988	0	0			0	0			1				0	
6.6.1	mac	2023-06-27	17:43:48	17:50:43	411701	5f4fe37111a2531213497942	3	1	main_slash	7	advance_on_keypress_SLASH	122	stimuli_target_rectangletriangles.svg	stimuli_distractor_trianglediamonds.svg	1	yes	57	0	267	0	0			0	0			1				0	
6.6.1	mac	2023-06-27	17:43:48	17:50:45	413372	5f4fe37111a2531213497942	3	1	main_slash	7	main_slash	123	stimuli_distractor_trianglediamonds.svg	stimuli_target_rectanglediamonds.svg	10	yes	53	1	776	0	0			0	0			1				0	
6.6.1	mac	2023-06-27	17:43:48	17:50:45	413372	5f4fe37111a2531213497942	3	1	main_slash	7	advance_on_keypress_SLASH	124	stimuli_distractor_trianglediamonds.svg	stimuli_target_rectanglediamonds.svg	10	yes	57	0	355	0	0			0	0			1				0	
6.6.1	mac	2023-06-27	17:43:48	17:50:47	415983	5f4fe37111a2531213497942	3	1	main_slash	7	main_slash	125	stimuli_distractor_trianglediamonds.svg	stimuli_target_diamondsquares.svg	28	yes	53	1	1619	0	0			0	0			1				0	
6.6.1	mac	2023-06-27	17:43:48	17:50:47	415983	5f4fe37111a2531213497942	3	1	main_slash	7	advance_on_keypress_SLASH	126	stimuli_distractor_trianglediamonds.svg	stimuli_target_diamondsquares.svg	28	yes	57	0	275	0	0			0	0			1				0	
6.6.1	mac	2023-06-27	17:43:48	17:50:49	417773	5f4fe37111a2531213497942	3	1	main_slash	7	main_slash	127	stimuli_target_diamondsquares.svg	stimuli_distractor_diamondtriangles.svg	24	yes	53	1	894	0	0			0	0			1				0	
6.6.1	mac	2023-06-27	17:43:48	17:50:49	417773	5f4fe37111a2531213497942	3	1	main_slash	7	advance_on_keypress_SLASH	128	stimuli_target_diamondsquares.svg	stimuli_distractor_diamondtriangles.svg	24	yes	57	0	328	0	0			0	0			1				0	
6.6.1	mac	2023-06-27	17:43:48	17:50:51	419953	5f4fe37111a2531213497942	3	1	main_slash	7	main_slash	129	stimuli_distractor_trianglediamonds.svg	stimuli_target_squaretriangles.svg	11	yes	53	1	1207	0	0			0	0			1				0	
6.6.1	mac	2023-06-27	17:43:48	17:50:51	419953	5f4fe37111a2531213497942	3	1	main_slash	7	advance_on_keypress_SLASH	130	stimuli_distractor_trianglediamonds.svg	stimuli_target_squaretriangles.svg	11	yes	57	0	276	0	0			0	0			1				0	
6.6.1	mac	2023-06-27	17:43:48	17:50:53	421879	5f4fe37111a2531213497942	3	1	main_slash	7	main_slash	131	stimuli_target_squarediamonds.svg	stimuli_distractor_trianglediamonds.svg	4	yes	53	1	1015	0	0			0	0			1				0	
6.6.1	mac	2023-06-27	17:43:48	17:50:53	421879	5f4fe37111a2531213497942	3	1	main_slash	7	advance_on_keypress_SLASH	132	stimuli_target_squarediamonds.svg	stimuli_distractor_trianglediamonds.svg	4	yes	57	0	203	0	0			0	0			1				0	
6.6.1	mac	2023-06-27	17:43:48	17:50:55	423750	5f4fe37111a2531213497942	3	1	main_slash	7	main_slash	133	stimuli_target_trianglesquares.svg	stimuli_distractor_diamondtriangles.svg	22	yes	53	1	1040	0	0			0	0			1				0	
6.6.1	mac	2023-06-27	17:43:48	17:50:55	423750	5f4fe37111a2531213497942	3	1	main_slash	7	advance_on_keypress_SLASH	134	stimuli_target_trianglesquares.svg	stimuli_distractor_diamondtriangles.svg	22	yes	57	0	280	0	0			0	0			1				0	
6.6.1	mac	2023-06-27	17:43:48	17:50:58	426660	5f4fe37111a2531213497942	3	1	main_slash	7	main_slash	135	stimuli_distractor_trianglediamonds.svg	stimuli_distractor_trianglediamonds.svg	34	no	0	1	2000	0	0			0	0			1				0	
6.6.1	mac	2023-06-27	17:43:48	17:50:58	426660	5f4fe37111a2531213497942	3	1	main_slash	7	advance_on_keypress_SLASH	136	stimuli_distractor_trianglediamonds.svg	stimuli_distractor_trianglediamonds.svg	34	no	57	0	779	0	0			0	0			1				0	
6.6.1	mac	2023-06-27	17:43:48	17:51:02	430077	5f4fe37111a2531213497942	3	1	main_slash	7	main_slash	137	stimuli_distractor_diamondtriangles.svg	stimuli_distractor_trianglediamonds.svg	37	no	0	1	2000	0	0			0	0			1				0	
6.6.1	mac	2023-06-27	17:43:48	17:51:02	430077	5f4fe37111a2531213497942	3	1	main_slash	7	advance_on_keypress_SLASH	138	stimuli_distractor_diamondtriangles.svg	stimuli_distractor_trianglediamonds.svg	37	no	57	0	736	0	0			0	0			1				0	
6.6.1	mac	2023-06-27	17:43:48	17:51:04	432238	5f4fe37111a2531213497942	3	1	main_slash	7	main_slash	139	stimuli_target_rectanglediamonds.svg	stimuli_distractor_trianglediamonds.svg	2	yes	53	1	792	0	0			0	0			1				0	
6.6.1	mac	2023-06-27	17:43:48	17:51:04	432238	5f4fe37111a2531213497942	3	1	main_slash	7	advance_on_keypress_SLASH	140	stimuli_target_rectanglediamonds.svg	stimuli_distractor_trianglediamonds.svg	2	yes	57	0	350	0	0			0	0			1				0	
6.6.1	mac	2023-06-27	17:43:48	17:51:06	434239	5f4fe37111a2531213497942	3	1	main_slash	7	main_slash	141	stimuli_distractor_diamondtriangles.svg	stimuli_target_rectangletriangles.svg	13	yes	53	1	1007	0	0			0	0			1				0	
6.6.1	mac	2023-06-27	17:43:48	17:51:06	434239	5f4fe37111a2531213497942	3	1	main_slash	7	advance_on_keypress_SLASH	142	stimuli_distractor_diamondtriangles.svg	stimuli_target_rectangletriangles.svg	13	yes	57	0	264	0	0			0	0			1				0	
6.6.1	mac	2023-06-27	17:43:48	17:51:09	437144	5f4fe37111a2531213497942	3	1	main_slash	7	main_slash	143	stimuli_distractor_diamondtriangles.svg	stimuli_distractor_diamondtriangles.svg	39	no	0	1	2000	0	0			0	0			1				0	
6.6.1	mac	2023-06-27	17:43:48	17:51:09	437144	5f4fe37111a2531213497942	3	1	main_slash	7	advance_on_keypress_SLASH	144	stimuli_distractor_diamondtriangles.svg	stimuli_distractor_diamondtriangles.svg	39	no	57	0	626	0	0			0	0			1				0	
6.6.1	mac	2023-06-27	17:43:48	17:51:11	439199	5f4fe37111a2531213497942	3	1	main_slash	7	main_slash	145	stimuli_distractor_diamondtriangles.svg	stimuli_target_squaretriangles.svg	15	yes	53	1	787	0	0			0	0			1				0	
6.6.1	mac	2023-06-27	17:43:48	17:51:11	439199	5f4fe37111a2531213497942	3	1	main_slash	7	advance_on_keypress_SLASH	146	stimuli_distractor_diamondtriangles.svg	stimuli_target_squaretriangles.svg	15	yes	57	0	325	0	0			0	0			1				0	
6.6.1	mac	2023-06-27	17:43:48	17:51:13	441924	5f4fe37111a2531213497942	3	1	main_slash	7	main_slash	147	stimuli_distractor_diamondtriangles.svg	stimuli_target_trianglerectangles.svg	29	yes	53	1	1777	0	0			0	0			1				0	
6.6.1	mac	2023-06-27	17:43:48	17:51:13	441924	5f4fe37111a2531213497942	3	1	main_slash	7	advance_on_keypress_SLASH	148	stimuli_distractor_diamondtriangles.svg	stimuli_target_trianglerectangles.svg	29	yes	57	0	119	0	0			0	0			1				0	
6.6.1	mac	2023-06-27	17:43:48	17:51:16	444677	5f4fe37111a2531213497942	3	1	main_slash	7	main_slash	149	stimuli_distractor_diamondtriangles.svg	stimuli_distractor_diamondtriangles.svg	40	no	0	1	2000	0	0			0	0			1				0	
6.6.1	mac	2023-06-27	17:43:48	17:51:16	444677	5f4fe37111a2531213497942	3	1	main_slash	7	advance_on_keypress_SLASH	150	stimuli_distractor_diamondtriangles.svg	stimuli_distractor_diamondtriangles.svg	40	no	57	0	769	0	0			0	0			1				0	
6.6.1	mac	2023-06-27	17:43:48	17:51:18	446640	5f4fe37111a2531213497942	3	1	main_slash	7	main_slash	151	stimuli_target_trianglesquares.svg	stimuli_distractor_trianglediamonds.svg	18	yes	53	1	562	0	0			0	0			1				0	
6.6.1	mac	2023-06-27	17:43:48	17:51:18	446640	5f4fe37111a2531213497942	3	1	main_slash	7	advance_on_keypress_SLASH	152	stimuli_target_trianglesquares.svg	stimuli_distractor_trianglediamonds.svg	18	yes	57	0	314	0	0			0	0			1				0	
6.6.1	mac	2023-06-27	17:43:48	17:51:20	448140	5f4fe37111a2531213497942	3	1	main_slash	7	main_slash	153	stimuli_target_squarediamonds.svg	stimuli_distractor_diamondtriangles.svg	8	yes	53	1	547	0	0			0	0			1				0	
6.6.1	mac	2023-06-27	17:43:48	17:51:20	448140	5f4fe37111a2531213497942	3	1	main_slash	7	advance_on_keypress_SLASH	154	stimuli_target_squarediamonds.svg	stimuli_distractor_diamondtriangles.svg	8	yes	57	0	287	0	0			0	0			1				0	
6.6.1	mac	2023-06-27	17:43:48	17:51:21	449957	5f4fe37111a2531213497942	3	1	main_slash	7	main_slash	155	stimuli_distractor_trianglediamonds.svg	stimuli_target_rectangletriangles.svg	9	yes	53	1	893	0	0			0	0			1				0	
6.6.1	mac	2023-06-27	17:43:48	17:51:21	449957	5f4fe37111a2531213497942	3	1	main_slash	7	advance_on_keypress_SLASH	156	stimuli_distractor_trianglediamonds.svg	stimuli_target_rectangletriangles.svg	9	yes	57	0	307	0	0			0	0			1				0	
6.6.1	mac	2023-06-27	17:43:48	17:51:24	452894	5f4fe37111a2531213497942	3	1	main_slash	7	main_slash	157	stimuli_distractor_trianglediamonds.svg	stimuli_distractor_diamondtriangles.svg	35	no	0	1	2000	0	0			0	0			1				0	
6.6.1	mac	2023-06-27	17:43:48	17:51:24	452894	5f4fe37111a2531213497942	3	1	main_slash	7	advance_on_keypress_SLASH	158	stimuli_distractor_trianglediamonds.svg	stimuli_distractor_diamondtriangles.svg	35	no	57	0	416	0	0			0	0			1				0	
6.6.1	mac	2023-06-27	17:43:48	17:51:26	454502	5f4fe37111a2531213497942	3	1	main_slash	7	main_slash	159	stimuli_target_squaretriangles.svg	stimuli_distractor_trianglediamonds.svg	3	yes	53	1	556	0	0			0	0			1				0	
6.6.1	mac	2023-06-27	17:43:48	17:51:26	454502	5f4fe37111a2531213497942	3	1	main_slash	7	advance_on_keypress_SLASH	160	stimuli_target_squaretriangles.svg	stimuli_distractor_trianglediamonds.svg	3	yes	57	0	336	0	0			0	0			1				0	
6.6.1	mac	2023-06-27	17:43:48	17:52:13	501959	5f4fe37111a2531213497942	3	1	practice_z	9	practice_z	1	stimuli_target_rectanglediamonds.svg	stimuli_distractor_diamondtriangles.svg	1	yes	44	1	563	0	0			0	0			1				0	
6.6.1	mac	2023-06-27	17:43:48	17:52:13	501959	5f4fe37111a2531213497942	3	1	practice_z	9	advance_on_keypress_ZEE	2	stimuli_target_rectanglediamonds.svg	stimuli_distractor_diamondtriangles.svg	1	yes	57	0	856	0	0			0	0			1				0	
6.6.1	mac	2023-06-27	17:43:48	17:52:17	505115	5f4fe37111a2531213497942	3	1	practice_z	9	practice_z	3	stimuli_distractor_diamondtriangles.svg	stimuli_target_rectangletriangles.svg	7	yes	44	1	667	0	0			0	0			1				0	
6.6.1	mac	2023-06-27	17:43:48	17:52:17	505115	5f4fe37111a2531213497942	3	1	practice_z	9	advance_on_keypress_ZEE	4	stimuli_distractor_diamondtriangles.svg	stimuli_target_rectangletriangles.svg	7	yes	57	0	1542	0	0			0	0			1				0	
6.6.1	mac	2023-06-27	17:43:48	17:52:21	509038	5f4fe37111a2531213497942	3	1	practice_z	9	practice_z	5	stimuli_target_rectanglediamonds.svg	stimuli_distractor_trianglediamonds.svg	4	yes	44	1	738	0	0			0	0			1				0	
6.6.1	mac	2023-06-27	17:43:48	17:52:21	509038	5f4fe37111a2531213497942	3	1	practice_z	9	advance_on_keypress_ZEE	6	stimuli_target_rectanglediamonds.svg	stimuli_distractor_trianglediamonds.svg	4	yes	57	0	415	0	0			0	0			1				0	
6.6.1	mac	2023-06-27	17:43:48	17:52:25	513096	5f4fe37111a2531213497942	3	1	practice_z	9	practice_z	7	stimuli_distractor_diamondtriangles.svg	stimuli_distractor_diamondtriangles.svg	13	no	0	1	2000	0	0			0	0			1				0	
6.6.1	mac	2023-06-27	17:43:48	17:52:25	513096	5f4fe37111a2531213497942	3	1	practice_z	9	advance_on_keypress_ZEE	8	stimuli_distractor_diamondtriangles.svg	stimuli_distractor_diamondtriangles.svg	13	no	57	0	469	0	0			0	0			1				0	
6.6.1	mac	2023-06-27	17:43:48	17:52:27	515993	5f4fe37111a2531213497942	3	1	practice_z	9	practice_z	9	stimuli_distractor_diamondtriangles.svg	stimuli_target_trianglerectangles.svg	9	yes	44	1	779	0	0			0	0			1				0	
6.6.1	mac	2023-06-27	17:43:48	17:52:27	515993	5f4fe37111a2531213497942	3	1	practice_z	9	advance_on_keypress_ZEE	10	stimuli_distractor_diamondtriangles.svg	stimuli_target_trianglerectangles.svg	9	yes	57	0	365	0	0			0	0			1				0	
6.6.1	mac	2023-06-27	17:43:48	17:52:31	519258	5f4fe37111a2531213497942	3	1	practice_z	9	practice_z	11	stimuli_distractor_diamondtriangles.svg	stimuli_distractor_trianglediamonds.svg	14	no	44	0	1261	0	0			0	0			1				0	
6.6.1	mac	2023-06-27	17:43:48	17:52:31	519258	5f4fe37111a2531213497942	3	1	practice_z	9	advance_on_keypress_ZEE	12	stimuli_distractor_diamondtriangles.svg	stimuli_distractor_trianglediamonds.svg	14	no	57	0	756	0	0			0	0			1				0	
6.6.1	mac	2023-06-27	17:43:48	17:52:34	522362	5f4fe37111a2531213497942	3	1	practice_z	9	practice_z	13	stimuli_distractor_diamondtriangles.svg	stimuli_target_diamondrectangles.svg	8	yes	44	1	716	0	0			0	0			1				0	
6.6.1	mac	2023-06-27	17:43:48	17:52:34	522362	5f4fe37111a2531213497942	3	1	practice_z	9	advance_on_keypress_ZEE	14	stimuli_distractor_diamondtriangles.svg	stimuli_target_diamondrectangles.svg	8	yes	57	0	435	0	0			0	0			1				0	
6.6.1	mac	2023-06-27	17:43:48	17:52:37	525200	5f4fe37111a2531213497942	3	1	practice_z	9	practice_z	15	stimuli_target_squarediamonds.svg	stimuli_distractor_trianglediamonds.svg	5	yes	44	1	768	0	0			0	0			1				0	
6.6.1	mac	2023-06-27	17:43:48	17:52:37	525200	5f4fe37111a2531213497942	3	1	practice_z	9	advance_on_keypress_ZEE	16	stimuli_target_squarediamonds.svg	stimuli_distractor_trianglediamonds.svg	5	yes	57	0	240	0	0			0	0			1				0	
6.6.1	mac	2023-06-27	17:43:48	17:52:39	527797	5f4fe37111a2531213497942	3	1	practice_z	9	practice_z	17	stimuli_distractor_trianglediamonds.svg	stimuli_target_diamondrectangles.svg	12	yes	44	1	715	0	0			0	0			1				0	
6.6.1	mac	2023-06-27	17:43:48	17:52:39	527797	5f4fe37111a2531213497942	3	1	practice_z	9	advance_on_keypress_ZEE	18	stimuli_distractor_trianglediamonds.svg	stimuli_target_diamondrectangles.svg	12	yes	57	0	278	0	0			0	0			1				0	
6.6.1	mac	2023-06-27	17:43:48	17:52:43	531169	5f4fe37111a2531213497942	3	1	practice_z	9	practice_z	19	stimuli_distractor_trianglediamonds.svg	stimuli_distractor_diamondtriangles.svg	16	no	44	0	1456	0	0			0	0			1				0	
6.6.1	mac	2023-06-27	17:43:48	17:52:43	531169	5f4fe37111a2531213497942	3	1	practice_z	9	advance_on_keypress_ZEE	20	stimuli_distractor_trianglediamonds.svg	stimuli_distractor_diamondtriangles.svg	16	no	57	0	474	0	0			0	0			1				0	
6.6.1	mac	2023-06-27	17:43:48	17:52:46	534007	5f4fe37111a2531213497942	3	1	practice_z	9	practice_z	21	stimuli_target_diamondsquares.svg	stimuli_distractor_diamondtriangles.svg	3	yes	44	1	724	0	0			0	0			1				0	
6.6.1	mac	2023-06-27	17:43:48	17:52:46	534007	5f4fe37111a2531213497942	3	1	practice_z	9	advance_on_keypress_ZEE	22	stimuli_target_diamondsquares.svg	stimuli_distractor_diamondtriangles.svg	3	yes	57	0	422	0	0			0	0			1				0	
6.6.1	mac	2023-06-27	17:43:48	17:52:49	537308	5f4fe37111a2531213497942	3	1	practice_z	9	practice_z	23	stimuli_distractor_trianglediamonds.svg	stimuli_target_squarediamonds.svg	11	yes	44	1	1245	0	0			0	0			1				0	
6.6.1	mac	2023-06-27	17:43:48	17:52:49	537308	5f4fe37111a2531213497942	3	1	practice_z	9	advance_on_keypress_ZEE	24	stimuli_distractor_trianglediamonds.svg	stimuli_target_squarediamonds.svg	11	yes	57	0	132	0	0			0	0			1				0	
6.6.1	mac	2023-06-27	17:43:48	17:52:53	541078	5f4fe37111a2531213497942	3	1	practice_z	9	practice_z	25	stimuli_distractor_trianglediamonds.svg	stimuli_distractor_trianglediamonds.svg	15	no	0	1	2000	0	0			0	0			1				0	
6.6.1	mac	2023-06-27	17:43:48	17:52:53	541078	5f4fe37111a2531213497942	3	1	practice_z	9	advance_on_keypress_ZEE	26	stimuli_distractor_trianglediamonds.svg	stimuli_distractor_trianglediamonds.svg	15	no	57	0	393	0	0			0	0			1				0	
6.6.1	mac	2023-06-27	17:43:48	17:52:56	544360	5f4fe37111a2531213497942	3	1	practice_z	9	practice_z	27	stimuli_target_diamondsquares.svg	stimuli_distractor_trianglediamonds.svg	6	yes	44	1	1246	0	0			0	0			1				0	
6.6.1	mac	2023-06-27	17:43:48	17:52:56	544360	5f4fe37111a2531213497942	3	1	practice_z	9	advance_on_keypress_ZEE	28	stimuli_target_diamondsquares.svg	stimuli_distractor_trianglediamonds.svg	6	yes	57	0	565	0	0			0	0			1				0	
6.6.1	mac	2023-06-27	17:43:48	17:52:59	547335	5f4fe37111a2531213497942	3	1	practice_z	9	practice_z	29	stimuli_distractor_trianglediamonds.svg	stimuli_target_rectanglediamonds.svg	10	yes	44	1	772	0	0			0	0			1				0	
6.6.1	mac	2023-06-27	17:43:48	17:52:59	547335	5f4fe37111a2531213497942	3	1	practice_z	9	advance_on_keypress_ZEE	30	stimuli_distractor_trianglediamonds.svg	stimuli_target_rectanglediamonds.svg	10	yes	57	0	551	0	0			0	0			1				0	
6.6.1	mac	2023-06-27	17:43:48	17:53:02	550079	5f4fe37111a2531213497942	3	1	practice_z	9	practice_z	31	stimuli_target_squarediamonds.svg	stimuli_distractor_diamondtriangles.svg	2	yes	44	1	566	0	0			0	0			1				0	
6.6.1	mac	2023-06-27	17:43:48	17:53:02	550079	5f4fe37111a2531213497942	3	1	practice_z	9	advance_on_keypress_ZEE	32	stimuli_target_squarediamonds.svg	stimuli_distractor_diamondtriangles.svg	2	yes	57	0	585	0	0			0	0			1				0	
6.6.1	mac	2023-06-27	17:43:48	17:53:05	553807	5f4fe37111a2531213497942	3	1	main_z	11	main_z	1	stimuli_target_rectangletriangles.svg	stimuli_distractor_trianglediamonds.svg	1	yes	44	1	495	0	0			0	0			1				0	
6.6.1	mac	2023-06-27	17:43:48	17:53:05	553807	5f4fe37111a2531213497942	3	1	main_z	11	advance_on_keypress_ZEE	2	stimuli_target_rectangletriangles.svg	stimuli_distractor_trianglediamonds.svg	1	yes	57	0	1095	0	0			0	0			1				0	
6.6.1	mac	2023-06-27	17:43:48	17:53:09	557543	5f4fe37111a2531213497942	3	1	main_z	11	main_z	3	stimuli_distractor_trianglediamonds.svg	stimuli_distractor_trianglediamonds.svg	34	no	0	1	2000	0	0			0	0			1				0	
6.6.1	mac	2023-06-27	17:43:48	17:53:09	557543	5f4fe37111a2531213497942	3	1	main_z	11	advance_on_keypress_ZEE	4	stimuli_distractor_trianglediamonds.svg	stimuli_distractor_trianglediamonds.svg	34	no	57	0	49	0	0			0	0			1				0	
6.6.1	mac	2023-06-27	17:43:48	17:53:10	558964	5f4fe37111a2531213497942	3	1	main_z	11	main_z	5	stimuli_distractor_diamondtriangles.svg	stimuli_target_trianglerectangles.svg	29	yes	44	1	737	0	0			0	0			1				0	
6.6.1	mac	2023-06-27	17:43:48	17:53:10	558964	5f4fe37111a2531213497942	3	1	main_z	11	advance_on_keypress_ZEE	6	stimuli_distractor_diamondtriangles.svg	stimuli_target_trianglerectangles.svg	29	yes	57	0	371	0	0			0	0			1				0	
6.6.1	mac	2023-06-27	17:43:48	17:53:12	560716	5f4fe37111a2531213497942	3	1	main_z	11	main_z	7	stimuli_distractor_trianglediamonds.svg	stimuli_target_squaretriangles.svg	11	yes	44	1	754	0	0			0	0			1				0	
6.6.1	mac	2023-06-27	17:43:48	17:53:12	560716	5f4fe37111a2531213497942	3	1	main_z	11	advance_on_keypress_ZEE	8	stimuli_distractor_trianglediamonds.svg	stimuli_target_squaretriangles.svg	11	yes	57	0	438	0	0			0	0			1				0	
6.6.1	mac	2023-06-27	17:43:48	17:53:14	562371	5f4fe37111a2531213497942	3	1	main_z	11	main_z	9	stimuli_distractor_diamondtriangles.svg	stimuli_target_rectanglediamonds.svg	14	yes	44	1	593	0	0			0	0			1				0	
6.6.1	mac	2023-06-27	17:43:48	17:53:14	562371	5f4fe37111a2531213497942	3	1	main_z	11	advance_on_keypress_ZEE	10	stimuli_distractor_diamondtriangles.svg	stimuli_target_rectanglediamonds.svg	14	yes	57	0	268	0	0			0	0			1				0	
6.6.1	mac	2023-06-27	17:43:48	17:53:16	564061	5f4fe37111a2531213497942	3	1	main_z	11	main_z	11	stimuli_distractor_diamondtriangles.svg	stimuli_target_diamondsquares.svg	32	yes	44	1	782	0	0			0	0			1				0	
6.6.1	mac	2023-06-27	17:43:48	17:53:16	564061	5f4fe37111a2531213497942	3	1	main_z	11	advance_on_keypress_ZEE	12	stimuli_distractor_diamondtriangles.svg	stimuli_target_diamondsquares.svg	32	yes	57	0	313	0	0			0	0			1				0	
6.6.1	mac	2023-06-27	17:43:48	17:53:17	565592	5f4fe37111a2531213497942	3	1	main_z	11	main_z	13	stimuli_target_trianglesquares.svg	stimuli_distractor_trianglediamonds.svg	18	yes	44	1	581	0	0			0	0			1				0	
6.6.1	mac	2023-06-27	17:43:48	17:53:17	565592	5f4fe37111a2531213497942	3	1	main_z	11	advance_on_keypress_ZEE	14	stimuli_target_trianglesquares.svg	stimuli_distractor_trianglediamonds.svg	18	yes	57	0	280	0	0			0	0			1				0	
6.6.1	mac	2023-06-27	17:43:48	17:53:19	567090	5f4fe37111a2531213497942	3	1	main_z	11	main_z	15	stimuli_target_trianglesquares.svg	stimuli_distractor_diamondtriangles.svg	22	yes	44	1	580	0	0			0	0			1				0	
6.6.1	mac	2023-06-27	17:43:48	17:53:19	567090	5f4fe37111a2531213497942	3	1	main_z	11	advance_on_keypress_ZEE	16	stimuli_target_trianglesquares.svg	stimuli_distractor_diamondtriangles.svg	22	yes	57	0	243	0	0			0	0			1				0	
6.6.1	mac	2023-06-27	17:43:48	17:53:20	568525	5f4fe37111a2531213497942	3	1	main_z	11	main_z	17	stimuli_target_rectanglediamonds.svg	stimuli_distractor_trianglediamonds.svg	2	yes	44	1	563	0	0			0	0			1				0	
6.6.1	mac	2023-06-27	17:43:48	17:53:20	568525	5f4fe37111a2531213497942	3	1	main_z	11	advance_on_keypress_ZEE	18	stimuli_target_rectanglediamonds.svg	stimuli_distractor_trianglediamonds.svg	2	yes	57	0	279	0	0			0	0			1				0	
6.6.1	mac	2023-06-27	17:43:48	17:53:21	569917	5f4fe37111a2531213497942	3	1	main_z	11	main_z	19	stimuli_distractor_trianglediamonds.svg	stimuli_target_rectangletriangles.svg	9	yes	44	1	472	0	0			0	0			1				0	
6.6.1	mac	2023-06-27	17:43:48	17:53:21	569917	5f4fe37111a2531213497942	3	1	main_z	11	advance_on_keypress_ZEE	20	stimuli_distractor_trianglediamonds.svg	stimuli_target_rectangletriangles.svg	9	yes	57	0	263	0	0			0	0			1				0	
6.6.1	mac	2023-06-27	17:43:48	17:53:23	571347	5f4fe37111a2531213497942	3	1	main_z	11	main_z	21	stimuli_distractor_trianglediamonds.svg	stimuli_target_rectanglediamonds.svg	10	yes	44	1	537	0	0			0	0			1				0	
6.6.1	mac	2023-06-27	17:43:48	17:53:23	571347	5f4fe37111a2531213497942	3	1	main_z	11	advance_on_keypress_ZEE	22	stimuli_distractor_trianglediamonds.svg	stimuli_target_rectanglediamonds.svg	10	yes	57	0	254	0	0			0	0			1				0	
6.6.1	mac	2023-06-27	17:43:48	17:53:24	572853	5f4fe37111a2531213497942	3	1	main_z	11	main_z	23	stimuli_target_rectanglediamonds.svg	stimuli_distractor_diamondtriangles.svg	6	yes	44	1	626	0	0			0	0			1				0	
6.6.1	mac	2023-06-27	17:43:48	17:53:24	572853	5f4fe37111a2531213497942	3	1	main_z	11	advance_on_keypress_ZEE	24	stimuli_target_rectanglediamonds.svg	stimuli_distractor_diamondtriangles.svg	6	yes	57	0	266	0	0			0	0			1				0	
6.6.1	mac	2023-06-27	17:43:48	17:53:26	574812	5f4fe37111a2531213497942	3	1	main_z	11	main_z	25	stimuli_distractor_diamondtriangles.svg	stimuli_target_diamondrectangles.svg	31	yes	44	1	1066	0	0			0	0			1				0	
6.6.1	mac	2023-06-27	17:43:48	17:53:26	574812	5f4fe37111a2531213497942	3	1	main_z	11	advance_on_keypress_ZEE	26	stimuli_distractor_diamondtriangles.svg	stimuli_target_diamondrectangles.svg	31	yes	57	0	237	0	0			0	0			1				0	
6.6.1	mac	2023-06-27	17:43:48	17:53:28	576388	5f4fe37111a2531213497942	3	1	main_z	11	main_z	27	stimuli_distractor_trianglediamonds.svg	stimuli_target_trianglesquares.svg	26	yes	44	1	709	0	0			0	0			1				0	
6.6.1	mac	2023-06-27	17:43:48	17:53:28	576388	5f4fe37111a2531213497942	3	1	main_z	11	advance_on_keypress_ZEE	28	stimuli_distractor_trianglediamonds.svg	stimuli_target_trianglesquares.svg	26	yes	57	0	315	0	0			0	0			1				0	
6.6.1	mac	2023-06-27	17:43:48	17:53:31	579342	5f4fe37111a2531213497942	3	1	main_z	11	main_z	29	stimuli_distractor_diamondtriangles.svg	stimuli_distractor_diamondtriangles.svg	39	no	0	1	2000	0	0			0	0			1				0	
6.6.1	mac	2023-06-27	17:43:48	17:53:31	579342	5f4fe37111a2531213497942	3	1	main_z	11	advance_on_keypress_ZEE	30	stimuli_distractor_diamondtriangles.svg	stimuli_distractor_diamondtriangles.svg	39	no	57	0	732	0	0			0	0			1				0	
6.6.1	mac	2023-06-27	17:43:48	17:53:34	582708	5f4fe37111a2531213497942	3	1	main_z	11	main_z	31	stimuli_distractor_trianglediamonds.svg	stimuli_distractor_diamondtriangles.svg	35	no	0	1	2000	0	0			0	0			1				0	
6.6.1	mac	2023-06-27	17:43:48	17:53:34	582708	5f4fe37111a2531213497942	3	1	main_z	11	advance_on_keypress_ZEE	32	stimuli_distractor_trianglediamonds.svg	stimuli_distractor_diamondtriangles.svg	35	no	57	0	32	0	0			0	0			1				0	
6.6.1	mac	2023-06-27	17:43:48	17:53:35	583937	5f4fe37111a2531213497942	3	1	main_z	11	main_z	33	stimuli_distractor_diamondtriangles.svg	stimuli_target_rectangletriangles.svg	13	yes	44	1	559	0	0			0	0			1				0	
6.6.1	mac	2023-06-27	17:43:48	17:53:35	583937	5f4fe37111a2531213497942	3	1	main_z	11	advance_on_keypress_ZEE	34	stimuli_distractor_diamondtriangles.svg	stimuli_target_rectangletriangles.svg	13	yes	57	0	357	0	0			0	0			1				0	
6.6.1	mac	2023-06-27	17:43:48	17:53:38	586926	5f4fe37111a2531213497942	3	1	main_z	11	main_z	35	stimuli_distractor_trianglediamonds.svg	stimuli_distractor_diamondtriangles.svg	36	no	0	1	2000	0	0			0	0			1				0	
6.6.1	mac	2023-06-27	17:43:48	17:53:38	586926	5f4fe37111a2531213497942	3	1	main_z	11	advance_on_keypress_ZEE	36	stimuli_distractor_trianglediamonds.svg	stimuli_distractor_diamondtriangles.svg	36	no	57	0	341	0	0			0	0			1				0	
6.6.1	mac	2023-06-27	17:43:48	17:53:40	588463	5f4fe37111a2531213497942	3	1	main_z	11	main_z	37	stimuli_target_squarediamonds.svg	stimuli_distractor_diamondtriangles.svg	8	yes	44	1	568	0	0			0	0			1				0	
6.6.1	mac	2023-06-27	17:43:48	17:53:40	588463	5f4fe37111a2531213497942	3	1	main_z	11	advance_on_keypress_ZEE	38	stimuli_target_squarediamonds.svg	stimuli_distractor_diamondtriangles.svg	8	yes	57	0	295	0	0			0	0			1				0	
6.6.1	mac	2023-06-27	17:43:48	17:53:41	589936	5f4fe37111a2531213497942	3	1	main_z	11	main_z	39	stimuli_target_diamondsquares.svg	stimuli_distractor_diamondtriangles.svg	24	yes	44	1	541	0	0			0	0			1				0	
6.6.1	mac	2023-06-27	17:43:48	17:53:41	589936	5f4fe37111a2531213497942	3	1	main_z	11	advance_on_keypress_ZEE	40	stimuli_target_diamondsquares.svg	stimuli_distractor_diamondtriangles.svg	24	yes	57	0	240	0	0			0	0			1				0	
6.6.1	mac	2023-06-27	17:43:48	17:53:44	592322	5f4fe37111a2531213497942	3	1	main_z	11	main_z	41	stimuli_target_rectangletriangles.svg	stimuli_distractor_diamondtriangles.svg	5	yes	44	1	1524	0	0			0	0			1				0	
6.6.1	mac	2023-06-27	17:43:48	17:53:44	592322	5f4fe37111a2531213497942	3	1	main_z	11	advance_on_keypress_ZEE	42	stimuli_target_rectangletriangles.svg	stimuli_distractor_diamondtriangles.svg	5	yes	57	0	285	0	0			0	0			1				0	
6.6.1	mac	2023-06-27	17:43:48	17:53:45	593893	5f4fe37111a2531213497942	3	1	main_z	11	main_z	43	stimuli_distractor_diamondtriangles.svg	stimuli_target_trianglesquares.svg	30	yes	44	1	648	0	0			0	0			1				0	
6.6.1	mac	2023-06-27	17:43:48	17:53:45	593893	5f4fe37111a2531213497942	3	1	main_z	11	advance_on_keypress_ZEE	44	stimuli_distractor_diamondtriangles.svg	stimuli_target_trianglesquares.svg	30	yes	57	0	229	0	0			0	0			1				0	
6.6.1	mac	2023-06-27	17:43:48	17:53:47	595383	5f4fe37111a2531213497942	3	1	main_z	11	main_z	45	stimuli_target_diamondsquares.svg	stimuli_distractor_trianglediamonds.svg	20	yes	44	1	620	0	0			0	0			1				0	
6.6.1	mac	2023-06-27	17:43:48	17:53:47	595383	5f4fe37111a2531213497942	3	1	main_z	11	advance_on_keypress_ZEE	46	stimuli_target_diamondsquares.svg	stimuli_distractor_trianglediamonds.svg	20	yes	57	0	220	0	0			0	0			1				0	
6.6.1	mac	2023-06-27	17:43:48	17:53:48	596846	5f4fe37111a2531213497942	3	1	main_z	11	main_z	47	stimuli_target_diamondrectangles.svg	stimuli_distractor_diamondtriangles.svg	23	yes	44	1	617	0	0			0	0			1				0	
6.6.1	mac	2023-06-27	17:43:48	17:53:48	596846	5f4fe37111a2531213497942	3	1	main_z	11	advance_on_keypress_ZEE	48	stimuli_target_diamondrectangles.svg	stimuli_distractor_diamondtriangles.svg	23	yes	57	0	260	0	0			0	0			1				0	
6.6.1	mac	2023-06-27	17:43:48	17:53:50	598437	5f4fe37111a2531213497942	3	1	main_z	11	main_z	49	stimuli_distractor_diamondtriangles.svg	stimuli_distractor_trianglediamonds.svg	38	no	44	0	691	0	0			0	0			1				0	
6.6.1	mac	2023-06-27	17:43:48	17:53:50	598437	5f4fe37111a2531213497942	3	1	main_z	11	advance_on_keypress_ZEE	50	stimuli_distractor_diamondtriangles.svg	stimuli_distractor_trianglediamonds.svg	38	no	57	0	458	0	0			0	0			1				0	
6.6.1	mac	2023-06-27	17:43:48	17:53:52	600137	5f4fe37111a2531213497942	3	1	main_z	11	main_z	51	stimuli_distractor_diamondtriangles.svg	stimuli_target_squaretriangles.svg	15	yes	44	1	609	0	0			0	0			1				0	
6.6.1	mac	2023-06-27	17:43:48	17:53:52	600137	5f4fe37111a2531213497942	3	1	main_z	11	advance_on_keypress_ZEE	52	stimuli_distractor_diamondtriangles.svg	stimuli_target_squaretriangles.svg	15	yes	57	0	234	0	0			0	0			1				0	
6.6.1	mac	2023-06-27	17:43:48	17:53:54	602994	5f4fe37111a2531213497942	3	1	main_z	11	main_z	53	stimuli_target_diamondrectangles.svg	stimuli_distractor_trianglediamonds.svg	19	yes	0	0	2000	0	0			0	0			1				0	
6.6.1	mac	2023-06-27	17:43:48	17:53:54	602994	5f4fe37111a2531213497942	3	1	main_z	11	advance_on_keypress_ZEE	54	stimuli_target_diamondrectangles.svg	stimuli_distractor_trianglediamonds.svg	19	yes	57	0	2627	0	0			0	0			1				0	
6.6.1	mac	2023-06-27	17:43:48	17:53:59	607475	5f4fe37111a2531213497942	3	1	main_z	11	main_z	55	stimuli_distractor_diamondtriangles.svg	stimuli_distractor_trianglediamonds.svg	37	no	44	0	1213	0	0			0	0			1				0	
6.6.1	mac	2023-06-27	17:43:48	17:53:59	607475	5f4fe37111a2531213497942	3	1	main_z	11	advance_on_keypress_ZEE	56	stimuli_distractor_diamondtriangles.svg	stimuli_distractor_trianglediamonds.svg	37	no	57	0	327	0	0			0	0			1				0	
6.6.1	mac	2023-06-27	17:43:48	17:54:01	609012	5f4fe37111a2531213497942	3	1	main_z	11	main_z	57	stimuli_target_trianglerectangles.svg	stimuli_distractor_diamondtriangles.svg	21	yes	44	1	584	0	0			0	0			1				0	
6.6.1	mac	2023-06-27	17:43:48	17:54:01	609012	5f4fe37111a2531213497942	3	1	main_z	11	advance_on_keypress_ZEE	58	stimuli_target_trianglerectangles.svg	stimuli_distractor_diamondtriangles.svg	21	yes	57	0	254	0	0			0	0			1				0	
6.6.1	mac	2023-06-27	17:43:48	17:54:02	610568	5f4fe37111a2531213497942	3	1	main_z	11	main_z	59	stimuli_distractor_diamondtriangles.svg	stimuli_target_squarediamonds.svg	16	yes	44	1	673	0	0			0	0			1				0	
6.6.1	mac	2023-06-27	17:43:48	17:54:02	610568	5f4fe37111a2531213497942	3	1	main_z	11	advance_on_keypress_ZEE	60	stimuli_distractor_diamondtriangles.svg	stimuli_target_squarediamonds.svg	16	yes	57	0	264	0	0			0	0			1				0	
6.6.1	mac	2023-06-27	17:43:48	17:54:03	611976	5f4fe37111a2531213497942	3	1	main_z	11	main_z	61	stimuli_target_squaretriangles.svg	stimuli_distractor_diamondtriangles.svg	7	yes	44	1	513	0	0			0	0			1				0	
6.6.1	mac	2023-06-27	17:43:48	17:54:03	611976	5f4fe37111a2531213497942	3	1	main_z	11	advance_on_keypress_ZEE	62	stimuli_target_squaretriangles.svg	stimuli_distractor_diamondtriangles.svg	7	yes	57	0	163	0	0			0	0			1				0	
6.6.1	mac	2023-06-27	17:43:48	17:54:06	614776	5f4fe37111a2531213497942	3	1	main_z	11	main_z	63	stimuli_distractor_trianglediamonds.svg	stimuli_distractor_trianglediamonds.svg	33	no	0	1	2000	0	0			0	0			1				0	
6.6.1	mac	2023-06-27	17:43:48	17:54:06	614776	5f4fe37111a2531213497942	3	1	main_z	11	advance_on_keypress_ZEE	64	stimuli_distractor_trianglediamonds.svg	stimuli_distractor_trianglediamonds.svg	33	no	57	0	183	0	0			0	0			1				0	
6.6.1	mac	2023-06-27	17:43:48	17:54:08	616172	5f4fe37111a2531213497942	3	1	main_z	11	main_z	65	stimuli_distractor_trianglediamonds.svg	stimuli_target_squarediamonds.svg	12	yes	44	1	578	0	0			0	0			1				0	
6.6.1	mac	2023-06-27	17:43:48	17:54:08	616172	5f4fe37111a2531213497942	3	1	main_z	11	advance_on_keypress_ZEE	66	stimuli_distractor_trianglediamonds.svg	stimuli_target_squarediamonds.svg	12	yes	57	0	240	0	0			0	0			1				0	
6.6.1	mac	2023-06-27	17:43:48	17:54:09	617606	5f4fe37111a2531213497942	3	1	main_z	11	main_z	67	stimuli_distractor_trianglediamonds.svg	stimuli_target_diamondsquares.svg	28	yes	44	1	563	0	0			0	0			1				0	
6.6.1	mac	2023-06-27	17:43:48	17:54:09	617606	5f4fe37111a2531213497942	3	1	main_z	11	advance_on_keypress_ZEE	68	stimuli_distractor_trianglediamonds.svg	stimuli_target_diamondsquares.svg	28	yes	57	0	212	0	0			0	0			1				0	
6.6.1	mac	2023-06-27	17:43:48	17:54:12	620459	5f4fe37111a2531213497942	3	1	main_z	11	main_z	69	stimuli_distractor_diamondtriangles.svg	stimuli_distractor_diamondtriangles.svg	40	no	0	1	2000	0	0			0	0			1				0	
6.6.1	mac	2023-06-27	17:43:48	17:54:12	620459	5f4fe37111a2531213497942	3	1	main_z	11	advance_on_keypress_ZEE	70	stimuli_distractor_diamondtriangles.svg	stimuli_distractor_diamondtriangles.svg	40	no	57	0	291	0	0			0	0			1				0	
6.6.1	mac	2023-06-27	17:43:48	17:54:13	621877	5f4fe37111a2531213497942	3	1	main_z	11	main_z	71	stimuli_distractor_trianglediamonds.svg	stimuli_target_diamondrectangles.svg	27	yes	44	1	499	0	0			0	0			1				0	
6.6.1	mac	2023-06-27	17:43:48	17:54:13	621877	5f4fe37111a2531213497942	3	1	main_z	11	advance_on_keypress_ZEE	72	stimuli_distractor_trianglediamonds.svg	stimuli_target_diamondrectangles.svg	27	yes	57	0	240	0	0			0	0			1				0	
6.6.1	mac	2023-06-27	17:43:48	17:54:15	623335	5f4fe37111a2531213497942	3	1	main_z	11	main_z	73	stimuli_distractor_trianglediamonds.svg	stimuli_target_trianglerectangles.svg	25	yes	44	1	590	0	0			0	0			1				0	
6.6.1	mac	2023-06-27	17:43:48	17:54:15	623335	5f4fe37111a2531213497942	3	1	main_z	11	advance_on_keypress_ZEE	74	stimuli_distractor_trianglediamonds.svg	stimuli_target_trianglerectangles.svg	25	yes	57	0	250	0	0			0	0			1				0	
6.6.1	mac	2023-06-27	17:43:48	17:54:16	624864	5f4fe37111a2531213497942	3	1	main_z	11	main_z	75	stimuli_target_squarediamonds.svg	stimuli_distractor_trianglediamonds.svg	4	yes	44	1	652	0	0			0	0			1				0	
6.6.1	mac	2023-06-27	17:43:48	17:54:16	624864	5f4fe37111a2531213497942	3	1	main_z	11	advance_on_keypress_ZEE	76	stimuli_target_squarediamonds.svg	stimuli_distractor_trianglediamonds.svg	4	yes	57	0	227	0	0			0	0			1				0	
6.6.1	mac	2023-06-27	17:43:48	17:54:19	627056	5f4fe37111a2531213497942	3	1	main_z	11	main_z	77	stimuli_target_squaretriangles.svg	stimuli_distractor_trianglediamonds.svg	3	yes	44	1	1328	0	0			0	0			1				0	
6.6.1	mac	2023-06-27	17:43:48	17:54:19	627056	5f4fe37111a2531213497942	3	1	main_z	11	advance_on_keypress_ZEE	78	stimuli_target_squaretriangles.svg	stimuli_distractor_trianglediamonds.svg	3	yes	57	0	317	0	0			0	0			1				0	
6.6.1	mac	2023-06-27	17:43:48	17:54:20	628627	5f4fe37111a2531213497942	3	1	main_z	11	main_z	79	stimuli_target_trianglerectangles.svg	stimuli_distractor_trianglediamonds.svg	17	yes	44	1	616	0	0			0	0			1				0	
6.6.1	mac	2023-06-27	17:43:48	17:54:20	628627	5f4fe37111a2531213497942	3	1	main_z	11	advance_on_keypress_ZEE	80	stimuli_target_trianglerectangles.svg	stimuli_distractor_trianglediamonds.svg	17	yes	57	0	195	0	0			0	0			1				0	
6.6.1	mac	2023-06-27	17:43:48	17:54:22	630035	5f4fe37111a2531213497942	3	1	main_z	11	main_z	81	stimuli_distractor_diamondtriangles.svg	stimuli_target_trianglerectangles.svg	29	yes	44	1	573	0	0			0	0			1				0	
6.6.1	mac	2023-06-27	17:43:48	17:54:22	630035	5f4fe37111a2531213497942	3	1	main_z	11	advance_on_keypress_ZEE	82	stimuli_distractor_diamondtriangles.svg	stimuli_target_trianglerectangles.svg	29	yes	57	0	200	0	0			0	0			1				0	
6.6.1	mac	2023-06-27	17:43:48	17:54:24	632860	5f4fe37111a2531213497942	3	1	main_z	11	main_z	83	stimuli_distractor_diamondtriangles.svg	stimuli_distractor_trianglediamonds.svg	38	no	0	1	2000	0	0			0	0			1				0	
6.6.1	mac	2023-06-27	17:43:48	17:54:24	632860	5f4fe37111a2531213497942	3	1	main_z	11	advance_on_keypress_ZEE	84	stimuli_distractor_diamondtriangles.svg	stimuli_distractor_trianglediamonds.svg	38	no	57	0	184	0	0			0	0			1				0	
6.6.1	mac	2023-06-27	17:43:48	17:54:27	635677	5f4fe37111a2531213497942	3	1	main_z	11	main_z	85	stimuli_distractor_diamondtriangles.svg	stimuli_distractor_trianglediamonds.svg	37	no	0	1	2000	0	0			0	0			1				0	
6.6.1	mac	2023-06-27	17:43:48	17:54:27	635677	5f4fe37111a2531213497942	3	1	main_z	11	advance_on_keypress_ZEE	86	stimuli_distractor_diamondtriangles.svg	stimuli_distractor_trianglediamonds.svg	37	no	57	0	363	0	0			0	0			1				0	
6.6.1	mac	2023-06-27	17:43:48	17:54:29	637263	5f4fe37111a2531213497942	3	1	main_z	11	main_z	87	stimuli_target_rectanglediamonds.svg	stimuli_distractor_trianglediamonds.svg	2	yes	44	1	584	0	0			0	0			1				0	
6.6.1	mac	2023-06-27	17:43:48	17:54:29	637263	5f4fe37111a2531213497942	3	1	main_z	11	advance_on_keypress_ZEE	88	stimuli_target_rectanglediamonds.svg	stimuli_distractor_trianglediamonds.svg	2	yes	57	0	232	0	0			0	0			1				0	
6.6.1	mac	2023-06-27	17:43:48	17:54:30	638686	5f4fe37111a2531213497942	3	1	main_z	11	main_z	89	stimuli_target_trianglesquares.svg	stimuli_distractor_trianglediamonds.svg	18	yes	44	1	559	0	0			0	0			1				0	
6.6.1	mac	2023-06-27	17:43:48	17:54:30	638686	5f4fe37111a2531213497942	3	1	main_z	11	advance_on_keypress_ZEE	90	stimuli_target_trianglesquares.svg	stimuli_distractor_trianglediamonds.svg	18	yes	57	0	282	0	0			0	0			1				0	
6.6.1	mac	2023-06-27	17:43:48	17:54:32	640251	5f4fe37111a2531213497942	3	1	main_z	11	main_z	91	stimuli_distractor_trianglediamonds.svg	stimuli_target_diamondrectangles.svg	27	yes	44	1	656	0	0			0	0			1				0	
6.6.1	mac	2023-06-27	17:43:48	17:54:32	640251	5f4fe37111a2531213497942	3	1	main_z	11	advance_on_keypress_ZEE	92	stimuli_distractor_trianglediamonds.svg	stimuli_target_diamondrectangles.svg	27	yes	57	0	261	0	0			0	0			1				0	
6.6.1	mac	2023-06-27	17:43:48	17:54:33	641813	5f4fe37111a2531213497942	3	1	main_z	11	main_z	93	stimuli_distractor_trianglediamonds.svg	stimuli_distractor_diamondtriangles.svg	36	no	44	0	667	0	0			0	0			1				0	
6.6.1	mac	2023-06-27	17:43:48	17:54:33	641813	5f4fe37111a2531213497942	3	1	main_z	11	advance_on_keypress_ZEE	94	stimuli_distractor_trianglediamonds.svg	stimuli_distractor_diamondtriangles.svg	36	no	57	0	201	0	0			0	0			1				0	
6.6.1	mac	2023-06-27	17:43:48	17:54:35	643240	5f4fe37111a2531213497942	3	1	main_z	11	main_z	95	stimuli_target_rectangletriangles.svg	stimuli_distractor_trianglediamonds.svg	1	yes	44	1	596	0	0			0	0			1				0	
6.6.1	mac	2023-06-27	17:43:48	17:54:35	643240	5f4fe37111a2531213497942	3	1	main_z	11	advance_on_keypress_ZEE	96	stimuli_target_rectangletriangles.svg	stimuli_distractor_trianglediamonds.svg	1	yes	57	0	208	0	0			0	0			1				0	
6.6.1	mac	2023-06-27	17:43:48	17:54:38	646076	5f4fe37111a2531213497942	3	1	main_z	11	main_z	97	stimuli_target_trianglerectangles.svg	stimuli_distractor_diamondtriangles.svg	21	yes	0	0	2000	0	0			0	0			1				0	
6.6.1	mac	2023-06-27	17:43:48	17:54:38	646076	5f4fe37111a2531213497942	3	1	main_z	11	advance_on_keypress_ZEE	98	stimuli_target_trianglerectangles.svg	stimuli_distractor_diamondtriangles.svg	21	yes	57	0	308	0	0			0	0			1				0	
6.6.1	mac	2023-06-27	17:43:48	17:54:39	647731	5f4fe37111a2531213497942	3	1	main_z	11	main_z	99	stimuli_distractor_trianglediamonds.svg	stimuli_target_squaretriangles.svg	11	yes	44	1	719	0	0			0	0			1				0	
6.6.1	mac	2023-06-27	17:43:48	17:54:39	647731	5f4fe37111a2531213497942	3	1	main_z	11	advance_on_keypress_ZEE	100	stimuli_distractor_trianglediamonds.svg	stimuli_target_squaretriangles.svg	11	yes	57	0	243	0	0			0	0			1				0	
6.6.1	mac	2023-06-27	17:43:48	17:54:41	649400	5f4fe37111a2531213497942	3	1	main_z	11	main_z	101	stimuli_distractor_diamondtriangles.svg	stimuli_target_diamondrectangles.svg	31	yes	44	1	787	0	0			0	0			1				0	
6.6.1	mac	2023-06-27	17:43:48	17:54:41	649400	5f4fe37111a2531213497942	3	1	main_z	11	advance_on_keypress_ZEE	102	stimuli_distractor_diamondtriangles.svg	stimuli_target_diamondrectangles.svg	31	yes	57	0	258	0	0			0	0			1				0	
6.6.1	mac	2023-06-27	17:43:48	17:54:42	650730	5f4fe37111a2531213497942	3	1	main_z	11	main_z	103	stimuli_target_squarediamonds.svg	stimuli_distractor_diamondtriangles.svg	8	yes	44	1	452	0	0			0	0			1				0	
6.6.1	mac	2023-06-27	17:43:48	17:54:42	650730	5f4fe37111a2531213497942	3	1	main_z	11	advance_on_keypress_ZEE	104	stimuli_target_squarediamonds.svg	stimuli_distractor_diamondtriangles.svg	8	yes	57	0	284	0	0			0	0			1				0	
6.6.1	mac	2023-06-27	17:43:48	17:54:44	652745	5f4fe37111a2531213497942	3	1	main_z	11	main_z	105	stimuli_distractor_trianglediamonds.svg	stimuli_target_trianglerectangles.svg	25	yes	44	1	1098	0	0			0	0			1				0	
6.6.1	mac	2023-06-27	17:43:48	17:54:44	652745	5f4fe37111a2531213497942	3	1	main_z	11	advance_on_keypress_ZEE	106	stimuli_distractor_trianglediamonds.svg	stimuli_target_trianglerectangles.svg	25	yes	57	0	223	0	0			0	0			1				0	
6.6.1	mac	2023-06-27	17:43:48	17:54:47	655120	5f4fe37111a2531213497942	3	1	main_z	11	main_z	107	stimuli_distractor_diamondtriangles.svg	stimuli_target_rectanglediamonds.svg	14	yes	44	1	1524	0	0			0	0			1				0	
6.6.1	mac	2023-06-27	17:43:48	17:54:47	655120	5f4fe37111a2531213497942	3	1	main_z	11	advance_on_keypress_ZEE	108	stimuli_distractor_diamondtriangles.svg	stimuli_target_rectanglediamonds.svg	14	yes	57	0	245	0	0			0	0			1				0	
6.6.1	mac	2023-06-27	17:43:48	17:54:49	657992	5f4fe37111a2531213497942	3	1	main_z	11	main_z	109	stimuli_distractor_trianglediamonds.svg	stimuli_distractor_trianglediamonds.svg	34	no	0	1	2000	0	0			0	0			1				0	
6.6.1	mac	2023-06-27	17:43:48	17:54:49	657992	5f4fe37111a2531213497942	3	1	main_z	11	advance_on_keypress_ZEE	110	stimuli_distractor_trianglediamonds.svg	stimuli_distractor_trianglediamonds.svg	34	no	57	0	331	0	0			0	0			1				0	
6.6.1	mac	2023-06-27	17:43:48	17:54:51	659547	5f4fe37111a2531213497942	3	1	main_z	11	main_z	111	stimuli_distractor_trianglediamonds.svg	stimuli_target_rectanglediamonds.svg	10	yes	44	1	586	0	0			0	0			1				0	
6.6.1	mac	2023-06-27	17:43:48	17:54:51	659547	5f4fe37111a2531213497942	3	1	main_z	11	advance_on_keypress_ZEE	112	stimuli_distractor_trianglediamonds.svg	stimuli_target_rectanglediamonds.svg	10	yes	57	0	237	0	0			0	0			1				0	
6.6.1	mac	2023-06-27	17:43:48	17:54:53	661146	5f4fe37111a2531213497942	3	1	main_z	11	main_z	113	stimuli_target_diamondsquares.svg	stimuli_distractor_trianglediamonds.svg	20	yes	44	1	733	0	0			0	0			1				0	
6.6.1	mac	2023-06-27	17:43:48	17:54:53	661146	5f4fe37111a2531213497942	3	1	main_z	11	advance_on_keypress_ZEE	114	stimuli_target_diamondsquares.svg	stimuli_distractor_trianglediamonds.svg	20	yes	57	0	825	0	0			0	0			1				0	
6.6.1	mac	2023-06-27	17:43:48	17:54:55	663810	5f4fe37111a2531213497942	3	1	main_z	11	main_z	115	stimuli_distractor_diamondtriangles.svg	stimuli_target_rectangletriangles.svg	13	yes	44	1	1198	0	0			0	0			1				0	
6.6.1	mac	2023-06-27	17:43:48	17:54:55	663810	5f4fe37111a2531213497942	3	1	main_z	11	advance_on_keypress_ZEE	116	stimuli_distractor_diamondtriangles.svg	stimuli_target_rectangletriangles.svg	13	yes	57	0	173	0	0			0	0			1				0	
6.6.1	mac	2023-06-27	17:43:48	17:54:57	665161	5f4fe37111a2531213497942	3	1	main_z	11	main_z	117	stimuli_distractor_diamondtriangles.svg	stimuli_target_squaretriangles.svg	15	yes	44	1	550	0	0			0	0			1				0	
6.6.1	mac	2023-06-27	17:43:48	17:54:57	665161	5f4fe37111a2531213497942	3	1	main_z	11	advance_on_keypress_ZEE	118	stimuli_distractor_diamondtriangles.svg	stimuli_target_squaretriangles.svg	15	yes	57	0	234	0	0			0	0			1				0	
6.6.1	mac	2023-06-27	17:43:48	17:54:58	666542	5f4fe37111a2531213497942	3	1	main_z	11	main_z	119	stimuli_target_rectanglediamonds.svg	stimuli_distractor_diamondtriangles.svg	6	yes	44	1	514	0	0			0	0			1				0	
6.6.1	mac	2023-06-27	17:43:48	17:54:58	666542	5f4fe37111a2531213497942	3	1	main_z	11	advance_on_keypress_ZEE	120	stimuli_target_rectanglediamonds.svg	stimuli_distractor_diamondtriangles.svg	6	yes	57	0	216	0	0			0	0			1				0	
6.6.1	mac	2023-06-27	17:43:48	17:55:01	669392	5f4fe37111a2531213497942	3	1	main_z	11	main_z	121	stimuli_distractor_diamondtriangles.svg	stimuli_distractor_diamondtriangles.svg	40	no	0	1	2000	0	0			0	0			1				0	
6.6.1	mac	2023-06-27	17:43:48	17:55:01	669392	5f4fe37111a2531213497942	3	1	main_z	11	advance_on_keypress_ZEE	122	stimuli_distractor_diamondtriangles.svg	stimuli_distractor_diamondtriangles.svg	40	no	57	0	198	0	0			0	0			1				0	
6.6.1	mac	2023-06-27	17:43:48	17:55:02	670693	5f4fe37111a2531213497942	3	1	main_z	11	main_z	123	stimuli_distractor_trianglediamonds.svg	stimuli_target_squarediamonds.svg	12	yes	44	1	466	0	0			0	0			1				0	
6.6.1	mac	2023-06-27	17:43:48	17:55:02	670693	5f4fe37111a2531213497942	3	1	main_z	11	advance_on_keypress_ZEE	124	stimuli_distractor_trianglediamonds.svg	stimuli_target_squarediamonds.svg	12	yes	57	0	211	0	0			0	0			1				0	
6.6.1	mac	2023-06-27	17:43:48	17:55:04	672080	5f4fe37111a2531213497942	3	1	main_z	11	main_z	125	stimuli_target_squaretriangles.svg	stimuli_distractor_trianglediamonds.svg	3	yes	44	1	535	0	0			0	0			1				0	
6.6.1	mac	2023-06-27	17:43:48	17:55:04	672080	5f4fe37111a2531213497942	3	1	main_z	11	advance_on_keypress_ZEE	126	stimuli_target_squaretriangles.svg	stimuli_distractor_trianglediamonds.svg	3	yes	57	0	171	0	0			0	0			1				0	
6.6.1	mac	2023-06-27	17:43:48	17:55:05	673934	5f4fe37111a2531213497942	3	1	main_z	11	main_z	127	stimuli_target_diamondrectangles.svg	stimuli_distractor_diamondtriangles.svg	23	yes	44	1	1055	0	0			0	0			1				0	
6.6.1	mac	2023-06-27	17:43:48	17:55:05	673934	5f4fe37111a2531213497942	3	1	main_z	11	advance_on_keypress_ZEE	128	stimuli_target_diamondrectangles.svg	stimuli_distractor_diamondtriangles.svg	23	yes	57	0	244	0	0			0	0			1				0	
6.6.1	mac	2023-06-27	17:43:48	17:55:07	675336	5f4fe37111a2531213497942	3	1	main_z	11	main_z	129	stimuli_distractor_trianglediamonds.svg	stimuli_target_trianglesquares.svg	26	yes	44	1	524	0	0			0	0			1				0	
6.6.1	mac	2023-06-27	17:43:48	17:55:07	675336	5f4fe37111a2531213497942	3	1	main_z	11	advance_on_keypress_ZEE	130	stimuli_distractor_trianglediamonds.svg	stimuli_target_trianglesquares.svg	26	yes	57	0	253	0	0			0	0			1				0	
6.6.1	mac	2023-06-27	17:43:48	17:55:08	676704	5f4fe37111a2531213497942	3	1	main_z	11	main_z	131	stimuli_target_trianglesquares.svg	stimuli_distractor_diamondtriangles.svg	22	yes	44	1	475	0	0			0	0			1				0	
6.6.1	mac	2023-06-27	17:43:48	17:55:08	676704	5f4fe37111a2531213497942	3	1	main_z	11	advance_on_keypress_ZEE	132	stimuli_target_trianglesquares.svg	stimuli_distractor_diamondtriangles.svg	22	yes	57	0	213	0	0			0	0			1				0	
6.6.1	mac	2023-06-27	17:43:48	17:55:09	677964	5f4fe37111a2531213497942	3	1	main_z	11	main_z	133	stimuli_target_trianglerectangles.svg	stimuli_distractor_trianglediamonds.svg	17	yes	44	1	403	0	0			0	0			1				0	
6.6.1	mac	2023-06-27	17:43:48	17:55:09	677964	5f4fe37111a2531213497942	3	1	main_z	11	advance_on_keypress_ZEE	134	stimuli_target_trianglerectangles.svg	stimuli_distractor_trianglediamonds.svg	17	yes	57	0	275	0	0			0	0			1				0	
6.6.1	mac	2023-06-27	17:43:48	17:55:11	679895	5f4fe37111a2531213497942	3	1	main_z	11	main_z	135	stimuli_target_squarediamonds.svg	stimuli_distractor_trianglediamonds.svg	4	yes	44	1	1016	0	0			0	0			1				0	
6.6.1	mac	2023-06-27	17:43:48	17:55:11	679895	5f4fe37111a2531213497942	3	1	main_z	11	advance_on_keypress_ZEE	136	stimuli_target_squarediamonds.svg	stimuli_distractor_trianglediamonds.svg	4	yes	57	0	215	0	0			0	0			1				0	
6.6.1	mac	2023-06-27	17:43:48	17:55:14	682742	5f4fe37111a2531213497942	3	1	main_z	11	main_z	137	stimuli_distractor_diamondtriangles.svg	stimuli_distractor_diamondtriangles.svg	39	no	0	1	2000	0	0			0	0			1				0	
6.6.1	mac	2023-06-27	17:43:48	17:55:14	682742	5f4fe37111a2531213497942	3	1	main_z	11	advance_on_keypress_ZEE	138	stimuli_distractor_diamondtriangles.svg	stimuli_distractor_diamondtriangles.svg	39	no	57	0	231	0	0			0	0			1				0	
6.6.1	mac	2023-06-27	17:43:48	17:55:16	684096	5f4fe37111a2531213497942	3	1	main_z	11	main_z	139	stimuli_target_diamondrectangles.svg	stimuli_distractor_trianglediamonds.svg	19	yes	44	1	485	0	0			0	0			1				0	
6.6.1	mac	2023-06-27	17:43:48	17:55:16	684096	5f4fe37111a2531213497942	3	1	main_z	11	advance_on_keypress_ZEE	140	stimuli_target_diamondrectangles.svg	stimuli_distractor_trianglediamonds.svg	19	yes	57	0	245	0	0			0	0			1				0	
6.6.1	mac	2023-06-27	17:43:48	17:55:17	685632	5f4fe37111a2531213497942	3	1	main_z	11	main_z	141	stimuli_distractor_diamondtriangles.svg	stimuli_target_trianglesquares.svg	30	yes	44	1	653	0	0			0	0			1				0	
6.6.1	mac	2023-06-27	17:43:48	17:55:17	685632	5f4fe37111a2531213497942	3	1	main_z	11	advance_on_keypress_ZEE	142	stimuli_distractor_diamondtriangles.svg	stimuli_target_trianglesquares.svg	30	yes	57	0	175	0	0			0	0			1				0	
6.6.1	mac	2023-06-27	17:43:48	17:55:19	687452	5f4fe37111a2531213497942	3	1	main_z	11	main_z	143	stimuli_distractor_trianglediamonds.svg	stimuli_target_rectangletriangles.svg	9	yes	44	1	1023	0	0			0	0			1				0	
6.6.1	mac	2023-06-27	17:43:48	17:55:19	687452	5f4fe37111a2531213497942	3	1	main_z	11	advance_on_keypress_ZEE	144	stimuli_distractor_trianglediamonds.svg	stimuli_target_rectangletriangles.svg	9	yes	57	0	238	0	0			0	0			1				0	
6.6.1	mac	2023-06-27	17:43:48	17:55:21	689269	5f4fe37111a2531213497942	3	1	main_z	11	main_z	145	stimuli_distractor_diamondtriangles.svg	stimuli_target_diamondsquares.svg	32	yes	44	1	956	0	0			0	0			1				0	
6.6.1	mac	2023-06-27	17:43:48	17:55:21	689269	5f4fe37111a2531213497942	3	1	main_z	11	advance_on_keypress_ZEE	146	stimuli_distractor_diamondtriangles.svg	stimuli_target_diamondsquares.svg	32	yes	57	0	255	0	0			0	0			1				0	
6.6.1	mac	2023-06-27	17:43:48	17:55:24	692144	5f4fe37111a2531213497942	3	1	main_z	11	main_z	147	stimuli_distractor_trianglediamonds.svg	stimuli_distractor_trianglediamonds.svg	33	no	0	1	2000	0	0			0	0			1				0	
6.6.1	mac	2023-06-27	17:43:48	17:55:24	692144	5f4fe37111a2531213497942	3	1	main_z	11	advance_on_keypress_ZEE	148	stimuli_distractor_trianglediamonds.svg	stimuli_distractor_trianglediamonds.svg	33	no	57	0	104	0	0			0	0			1				0	
6.6.1	mac	2023-06-27	17:43:48	17:55:25	693399	5f4fe37111a2531213497942	3	1	main_z	11	main_z	149	stimuli_distractor_diamondtriangles.svg	stimuli_target_squarediamonds.svg	16	yes	44	1	521	0	0			0	0			1				0	
6.6.1	mac	2023-06-27	17:43:48	17:55:25	693399	5f4fe37111a2531213497942	3	1	main_z	11	advance_on_keypress_ZEE	150	stimuli_distractor_diamondtriangles.svg	stimuli_target_squarediamonds.svg	16	yes	57	0	207	0	0			0	0			1				0	
6.6.1	mac	2023-06-27	17:43:48	17:55:26	694885	5f4fe37111a2531213497942	3	1	main_z	11	main_z	151	stimuli_distractor_trianglediamonds.svg	stimuli_distractor_diamondtriangles.svg	35	no	44	0	656	0	0			0	0			1				0	
6.6.1	mac	2023-06-27	17:43:48	17:55:26	694885	5f4fe37111a2531213497942	3	1	main_z	11	advance_on_keypress_ZEE	152	stimuli_distractor_trianglediamonds.svg	stimuli_distractor_diamondtriangles.svg	35	no	57	0	266	0	0			0	0			1				0	
6.6.1	mac	2023-06-27	17:43:48	17:55:28	696322	5f4fe37111a2531213497942	3	1	main_z	11	main_z	153	stimuli_target_rectangletriangles.svg	stimuli_distractor_diamondtriangles.svg	5	yes	44	1	544	0	0			0	0			1				0	
6.6.1	mac	2023-06-27	17:43:48	17:55:28	696322	5f4fe37111a2531213497942	3	1	main_z	11	advance_on_keypress_ZEE	154	stimuli_target_rectangletriangles.svg	stimuli_distractor_diamondtriangles.svg	5	yes	57	0	245	0	0			0	0			1				0	
6.6.1	mac	2023-06-27	17:43:48	17:55:29	697965	5f4fe37111a2531213497942	3	1	main_z	11	main_z	155	stimuli_distractor_trianglediamonds.svg	stimuli_target_diamondsquares.svg	28	yes	44	1	752	0	0			0	0			1				0	
6.6.1	mac	2023-06-27	17:43:48	17:55:29	697965	5f4fe37111a2531213497942	3	1	main_z	11	advance_on_keypress_ZEE	156	stimuli_distractor_trianglediamonds.svg	stimuli_target_diamondsquares.svg	28	yes	57	0	236	0	0			0	0			1				0	
6.6.1	mac	2023-06-27	17:43:48	17:55:31	699347	5f4fe37111a2531213497942	3	1	main_z	11	main_z	157	stimuli_target_diamondsquares.svg	stimuli_distractor_diamondtriangles.svg	24	yes	44	1	518	0	0			0	0			1				0	
6.6.1	mac	2023-06-27	17:43:48	17:55:31	699347	5f4fe37111a2531213497942	3	1	main_z	11	advance_on_keypress_ZEE	158	stimuli_target_diamondsquares.svg	stimuli_distractor_diamondtriangles.svg	24	yes	57	0	211	0	0			0	0			1				0	
6.6.1	mac	2023-06-27	17:43:48	17:55:33	701023	5f4fe37111a2531213497942	3	1	main_z	11	main_z	159	stimuli_target_squaretriangles.svg	stimuli_distractor_diamondtriangles.svg	7	yes	44	1	827	0	0			0	0			1				0	
6.6.1	mac	2023-06-27	17:43:48	17:55:33	701023	5f4fe37111a2531213497942	3	1	main_z	11	advance_on_keypress_ZEE	160	stimuli_target_squaretriangles.svg	stimuli_distractor_diamondtriangles.svg	7	yes	57	0	254	0	0			0	0			1				0	
6.6.1	mac	2023-06-27	17:43:48	17:55:33	701023	5f4fe37111a2531213497942	3	1	headphonecheck_calibration	14	headphonecheck_calibrationIntro	1	stimuli_target_squaretriangles.svg	stimuli_distractor_diamondtriangles.svg	7	yes	calibrationButton	0	2012	0	0			0	0			1				0	
6.6.1	mac	2023-06-27	17:43:48	17:55:33	701023	5f4fe37111a2531213497942	3	1	headphonecheck_testphase	15	test_collectResponse	3	stimuli_target_squaretriangles.svg	stimuli_distractor_diamondtriangles.svg	7	yes	first	1	9170	1	4	antiphase_hc_sio.wav	1	0	0			1				0	
6.6.1	mac	2023-06-27	17:43:48	17:55:33	701023	5f4fe37111a2531213497942	3	1	headphonecheck_testphase	15	test_collectResponse	6	stimuli_target_squaretriangles.svg	stimuli_distractor_diamondtriangles.svg	7	yes	second	1	637	2	5	antiphase_hc_osi.wav	2	0	0			1				0	
6.6.1	mac	2023-06-27	17:43:48	17:55:33	701023	5f4fe37111a2531213497942	3	1	headphonecheck_testphase	15	test_collectResponse	9	stimuli_target_squaretriangles.svg	stimuli_distractor_diamondtriangles.svg	7	yes	third	1	582	3	2	antiphase_hc_ios.wav	3	0	0			1				0	
6.6.1	mac	2023-06-27	17:43:48	17:55:33	701023	5f4fe37111a2531213497942	3	1	headphonecheck_testphase	15	test_collectResponse	12	stimuli_target_squaretriangles.svg	stimuli_distractor_diamondtriangles.svg	7	yes	first	1	290	4	3	antiphase_hc_soi.wav	1	0	0			1				0	
6.6.1	mac	2023-06-27	17:43:48	17:55:33	701023	5f4fe37111a2531213497942	3	1	headphonecheck_testphase	15	test_collectResponse	15	stimuli_target_squaretriangles.svg	stimuli_distractor_diamondtriangles.svg	7	yes	third	1	319	5	6	antiphase_hc_ois.wav	3	0	0			1				0	
6.6.1	mac	2023-06-27	17:43:48	17:55:33	701023	5f4fe37111a2531213497942	3	1	headphonecheck_testphase	15	test_collectResponse	18	stimuli_target_squaretriangles.svg	stimuli_distractor_diamondtriangles.svg	7	yes	second	1	445	6	1	antiphase_hc_iso.wav	2	0	0			1				0	
6.6.1	mac	2023-06-27	17:43:48	17:55:33	701023	5f4fe37111a2531213497942	3	1	stereocheck_calibration	17	stereocheck_calibrationIntro	1	stimuli_target_squaretriangles.svg	stimuli_distractor_diamondtriangles.svg	7	yes	stereocheck_calibrationButton	0	3846	6	1	antiphase_hc_iso.wav	2	0	0			1				0	
6.6.1	mac	2023-06-27	17:43:48	17:55:33	701023	5f4fe37111a2531213497942	3	1	stereocheck_testphase	18	stereocheck_test_collectResponse	3	stimuli_target_squaretriangles.svg	stimuli_distractor_diamondtriangles.svg	7	yes	stereocheck_left	1	303	6	1	antiphase_hc_iso.wav	2	1	2	noise_calib_stim_LEFT.wav	1	1				0	
6.6.1	mac	2023-06-27	17:43:48	17:55:33	701023	5f4fe37111a2531213497942	3	1	stereocheck_testphase	18	stereocheck_test_collectResponse	6	stimuli_target_squaretriangles.svg	stimuli_distractor_diamondtriangles.svg	7	yes	stereocheck_right	1	178	6	1	antiphase_hc_iso.wav	2	2	5	noise_calib_stim_RIGHT.wav	2	1				0	
6.6.1	mac	2023-06-27	17:43:48	17:55:33	701023	5f4fe37111a2531213497942	3	1	stereocheck_testphase	18	stereocheck_test_collectResponse	9	stimuli_target_squaretriangles.svg	stimuli_distractor_diamondtriangles.svg	7	yes	stereocheck_right	1	261	6	1	antiphase_hc_iso.wav	2	3	4	noise_calib_stim_RIGHT.wav	2	1				0	
6.6.1	mac	2023-06-27	17:43:48	17:55:33	701023	5f4fe37111a2531213497942	3	1	stereocheck_testphase	18	stereocheck_test_collectResponse	12	stimuli_target_squaretriangles.svg	stimuli_distractor_diamondtriangles.svg	7	yes	stereocheck_right	1	237	6	1	antiphase_hc_iso.wav	2	4	6	noise_calib_stim_RIGHT.wav	2	1				0	
6.6.1	mac	2023-06-27	17:43:48	17:55:33	701023	5f4fe37111a2531213497942	3	1	stereocheck_testphase	18	stereocheck_test_collectResponse	15	stimuli_target_squaretriangles.svg	stimuli_distractor_diamondtriangles.svg	7	yes	stereocheck_left	1	66	6	1	antiphase_hc_iso.wav	2	5	3	noise_calib_stim_LEFT.wav	1	1				0	
6.6.1	mac	2023-06-27	17:43:48	17:55:33	701023	5f4fe37111a2531213497942	3	1	stereocheck_testphase	18	stereocheck_test_collectResponse	18	stimuli_target_squaretriangles.svg	stimuli_distractor_diamondtriangles.svg	7	yes	stereocheck_right	0	16741	6	1	antiphase_hc_iso.wav	2	6	1	noise_calib_stim_LEFT.wav	1	1				0	
6.6.1	mac	2023-06-27	17:43:48	17:55:33	701023	5f4fe37111a2531213497942	3	1	DL_practice	21	DL_practice	2	stimuli_target_squaretriangles.svg	stimuli_distractor_diamondtriangles.svg	7	yes	ta	1	2240	6	1	antiphase_hc_iso.wav	2	6	1	noise_calib_stim_LEFT.wav	1	36	blb_dichoticlistening_ta-ta.mp3	ta	ta	0	left
6.6.1	mac	2023-06-27	17:43:48	17:55:33	701023	5f4fe37111a2531213497942	3	1	DL_practice	21	DL_practice	3	stimuli_target_squaretriangles.svg	stimuli_distractor_diamondtriangles.svg	7	yes	pa	1	1170	6	1	antiphase_hc_iso.wav	2	6	1	noise_calib_stim_LEFT.wav	1	23	blb_dichoticlistening_ka-pa.mp3	ka	pa	1	right
6.6.1	mac	2023-06-27	17:43:48	17:55:33	701023	5f4fe37111a2531213497942	3	1	DL_practice	21	DL_practice	4	stimuli_target_squaretriangles.svg	stimuli_distractor_diamondtriangles.svg	7	yes	ka	0	1491	6	1	antiphase_hc_iso.wav	2	6	1	noise_calib_stim_LEFT.wav	1	18	blb_dichoticlistening_ga-ta.mp3	ga	ta	1	other
6.6.1	mac	2023-06-27	17:43:48	17:55:33	701023	5f4fe37111a2531213497942	3	1	DL_practice	21	DL_practice	5	stimuli_target_squaretriangles.svg	stimuli_distractor_diamondtriangles.svg	7	yes	ka	1	861	6	1	antiphase_hc_iso.wav	2	6	1	noise_calib_stim_LEFT.wav	1	22	blb_dichoticlistening_ka-ka.mp3	ka	ka	0	left
6.6.1	mac	2023-06-27	17:43:48	17:55:33	701023	5f4fe37111a2531213497942	3	1	DL_practice	21	DL_practice	6	stimuli_target_squaretriangles.svg	stimuli_distractor_diamondtriangles.svg	7	yes	ba	1	1953	6	1	antiphase_hc_iso.wav	2	6	1	noise_calib_stim_LEFT.wav	1	7	blb_dichoticlistening_da-ba.mp3	da	ba	1	right
6.6.1	mac	2023-06-27	17:43:48	17:55:33	701023	5f4fe37111a2531213497942	3	1	DL_practice	21	DL_practice	7	stimuli_target_squaretriangles.svg	stimuli_distractor_diamondtriangles.svg	7	yes	pa	1	1436	6	1	antiphase_hc_iso.wav	2	6	1	noise_calib_stim_LEFT.wav	1	29	blb_dichoticlistening_pa-pa.mp3	pa	pa	0	left
6.6.1	mac	2023-06-27	17:43:48	17:55:33	701023	5f4fe37111a2531213497942	3	1	DL_practice	21	DL_practice	8	stimuli_target_squaretriangles.svg	stimuli_distractor_diamondtriangles.svg	7	yes	ba	1	1956	6	1	antiphase_hc_iso.wav	2	6	1	noise_calib_stim_LEFT.wav	1	1	blb_dichoticlistening_ba-ba.mp3	ba	ba	0	left
6.6.1	mac	2023-06-27	17:43:48	17:55:33	701023	5f4fe37111a2531213497942	3	1	DL_practice	21	DL_practice	9	stimuli_target_squaretriangles.svg	stimuli_distractor_diamondtriangles.svg	7	yes	da	1	790	6	1	antiphase_hc_iso.wav	2	6	1	noise_calib_stim_LEFT.wav	1	8	blb_dichoticlistening_da-da.mp3	da	da	0	left
6.6.1	mac	2023-06-27	17:43:48	17:55:33	701023	5f4fe37111a2531213497942	3	1	DL_practice	21	DL_practice	10	stimuli_target_squaretriangles.svg	stimuli_distractor_diamondtriangles.svg	7	yes	ga	1	919	6	1	antiphase_hc_iso.wav	2	6	1	noise_calib_stim_LEFT.wav	1	15	blb_dichoticlistening_ga-ga.mp3	ga	ga	0	left
6.6.1	mac	2023-06-27	17:43:48	17:55:33	701023	5f4fe37111a2531213497942	3	1	DL_test	23	DL_test	1	stimuli_target_squaretriangles.svg	stimuli_distractor_diamondtriangles.svg	7	yes	ga	0	1469	6	1	antiphase_hc_iso.wav	2	6	1	noise_calib_stim_LEFT.wav	1	12	blb_dichoticlistening_da-ta.mp3	da	ta	1	other
6.6.1	mac	2023-06-27	17:43:48	17:55:33	701023	5f4fe37111a2531213497942	3	1	DL_test	23	DL_test	2	stimuli_target_squaretriangles.svg	stimuli_distractor_diamondtriangles.svg	7	yes	pa	1	1468	6	1	antiphase_hc_iso.wav	2	6	1	noise_calib_stim_LEFT.wav	1	25	blb_dichoticlistening_pa-ba.mp3	pa	ba	1	left
6.6.1	mac	2023-06-27	17:43:48	17:55:33	701023	5f4fe37111a2531213497942	3	1	DL_test	23	DL_test	3	stimuli_target_squaretriangles.svg	stimuli_distractor_diamondtriangles.svg	7	yes	ka	0	1136	6	1	antiphase_hc_iso.wav	2	6	1	noise_calib_stim_LEFT.wav	1	6	blb_dichoticlistening_ba-ta.mp3	ba	ta	1	other
6.6.1	mac	2023-06-27	17:43:48	17:55:33	701023	5f4fe37111a2531213497942	3	1	DL_test	23	DL_test	4	stimuli_target_squaretriangles.svg	stimuli_distractor_diamondtriangles.svg	7	yes	ba	1	2865	6	1	antiphase_hc_iso.wav	2	6	1	noise_calib_stim_LEFT.wav	1	1	blb_dichoticlistening_ba-ba.mp3	ba	ba	0	left
6.6.1	mac	2023-06-27	17:43:48	17:55:33	701023	5f4fe37111a2531213497942	3	1	DL_test	23	DL_test	5	stimuli_target_squaretriangles.svg	stimuli_distractor_diamondtriangles.svg	7	yes	pa	1	1577	6	1	antiphase_hc_iso.wav	2	6	1	noise_calib_stim_LEFT.wav	1	11	blb_dichoticlistening_da-pa.mp3	da	pa	1	right
6.6.1	mac	2023-06-27	17:43:48	17:55:33	701023	5f4fe37111a2531213497942	3	1	DL_test	23	DL_test	6	stimuli_target_squaretriangles.svg	stimuli_distractor_diamondtriangles.svg	7	yes	ga	1	1344	6	1	antiphase_hc_iso.wav	2	6	1	noise_calib_stim_LEFT.wav	1	13	blb_dichoticlistening_ga-ba.mp3	ga	ba	1	left
6.6.1	mac	2023-06-27	17:43:48	17:55:33	701023	5f4fe37111a2531213497942	3	1	DL_test	23	DL_test	7	stimuli_target_squaretriangles.svg	stimuli_distractor_diamondtriangles.svg	7	yes	pa	0	1573	6	1	antiphase_hc_iso.wav	2	6	1	noise_calib_stim_LEFT.wav	1	10	blb_dichoticlistening_da-ka.mp3	da	ka	1	other
6.6.1	mac	2023-06-27	17:43:48	17:55:33	701023	5f4fe37111a2531213497942	3	1	DL_test	23	DL_test	8	stimuli_target_squaretriangles.svg	stimuli_distractor_diamondtriangles.svg	7	yes	pa	1	848	6	1	antiphase_hc_iso.wav	2	6	1	noise_calib_stim_LEFT.wav	1	29	blb_dichoticlistening_pa-pa.mp3	pa	pa	0	left
6.6.1	mac	2023-06-27	17:43:48	17:55:33	701023	5f4fe37111a2531213497942	3	1	DL_test	23	DL_test	9	stimuli_target_squaretriangles.svg	stimuli_distractor_diamondtriangles.svg	7	yes	da	1	1561	6	1	antiphase_hc_iso.wav	2	6	1	noise_calib_stim_LEFT.wav	1	2	blb_dichoticlistening_ba-da.mp3	ba	da	1	right
6.6.1	mac	2023-06-27	17:43:48	17:55:33	701023	5f4fe37111a2531213497942	3	1	DL_test	23	DL_test	10	stimuli_target_squaretriangles.svg	stimuli_distractor_diamondtriangles.svg	7	yes	da	1	986	6	1	antiphase_hc_iso.wav	2	6	1	noise_calib_stim_LEFT.wav	1	9	blb_dichoticlistening_da-ga.mp3	da	ga	1	left
6.6.1	mac	2023-06-27	17:43:48	17:55:33	701023	5f4fe37111a2531213497942	3	1	DL_test	23	DL_test	11	stimuli_target_squaretriangles.svg	stimuli_distractor_diamondtriangles.svg	7	yes	ba	1	1565	6	1	antiphase_hc_iso.wav	2	6	1	noise_calib_stim_LEFT.wav	1	7	blb_dichoticlistening_da-ba.mp3	da	ba	1	right
6.6.1	mac	2023-06-27	17:43:48	17:55:33	701023	5f4fe37111a2531213497942	3	1	DL_test	23	DL_test	12	stimuli_target_squaretriangles.svg	stimuli_distractor_diamondtriangles.svg	7	yes	pa	0	2357	6	1	antiphase_hc_iso.wav	2	6	1	noise_calib_stim_LEFT.wav	1	31	blb_dichoticlistening_ta-ba.mp3	ta	ba	1	other
6.6.1	mac	2023-06-27	17:43:48	17:55:33	701023	5f4fe37111a2531213497942	3	1	DL_test	23	DL_test	13	stimuli_target_squaretriangles.svg	stimuli_distractor_diamondtriangles.svg	7	yes	da	1	6782	6	1	antiphase_hc_iso.wav	2	6	1	noise_calib_stim_LEFT.wav	1	14	blb_dichoticlistening_ga-da.mp3	ga	da	1	right
6.6.1	mac	2023-06-27	17:43:48	17:55:33	701023	5f4fe37111a2531213497942	3	1	DL_test	23	DL_test	14	stimuli_target_squaretriangles.svg	stimuli_distractor_diamondtriangles.svg	7	yes	pa	0	1240	6	1	antiphase_hc_iso.wav	2	6	1	noise_calib_stim_LEFT.wav	1	4	blb_dichoticlistening_ba-ka.mp3	ba	ka	1	other
6.6.1	mac	2023-06-27	17:43:48	17:55:33	701023	5f4fe37111a2531213497942	3	1	DL_test	23	DL_test	15	stimuli_target_squaretriangles.svg	stimuli_distractor_diamondtriangles.svg	7	yes	pa	1	861	6	1	antiphase_hc_iso.wav	2	6	1	noise_calib_stim_LEFT.wav	1	26	blb_dichoticlistening_pa-da.mp3	pa	da	1	left
6.6.1	mac	2023-06-27	17:43:48	17:55:33	701023	5f4fe37111a2531213497942	3	1	DL_test	23	DL_test	16	stimuli_target_squaretriangles.svg	stimuli_distractor_diamondtriangles.svg	7	yes	ta	1	1011	6	1	antiphase_hc_iso.wav	2	6	1	noise_calib_stim_LEFT.wav	1	32	blb_dichoticlistening_ta-da.mp3	ta	da	1	left
6.6.1	mac	2023-06-27	17:43:48	17:55:33	701023	5f4fe37111a2531213497942	3	1	DL_test	23	DL_test	17	stimuli_target_squaretriangles.svg	stimuli_distractor_diamondtriangles.svg	7	yes	pa	1	1024	6	1	antiphase_hc_iso.wav	2	6	1	noise_calib_stim_LEFT.wav	1	28	blb_dichoticlistening_pa-ka.mp3	pa	ka	1	left
6.6.1	mac	2023-06-27	17:43:48	17:55:33	701023	5f4fe37111a2531213497942	3	1	DL_test	23	DL_test	18	stimuli_target_squaretriangles.svg	stimuli_distractor_diamondtriangles.svg	7	yes	pa	1	994	6	1	antiphase_hc_iso.wav	2	6	1	noise_calib_stim_LEFT.wav	1	17	blb_dichoticlistening_ga-pa.mp3	ga	pa	1	right
6.6.1	mac	2023-06-27	17:43:48	17:55:33	701023	5f4fe37111a2531213497942	3	1	DL_test	23	DL_test	19	stimuli_target_squaretriangles.svg	stimuli_distractor_diamondtriangles.svg	7	yes	ka	0	1169	6	1	antiphase_hc_iso.wav	2	6	1	noise_calib_stim_LEFT.wav	1	18	blb_dichoticlistening_ga-ta.mp3	ga	ta	1	other
6.6.1	mac	2023-06-27	17:43:48	17:55:33	701023	5f4fe37111a2531213497942	3	1	DL_test	23	DL_test	20	stimuli_target_squaretriangles.svg	stimuli_distractor_diamondtriangles.svg	7	yes	ga	0	1773	6	1	antiphase_hc_iso.wav	2	6	1	noise_calib_stim_LEFT.wav	1	20	blb_dichoticlistening_ka-da.mp3	ka	da	1	other
6.6.1	mac	2023-06-27	17:43:48	17:55:33	701023	5f4fe37111a2531213497942	3	1	DL_test	23	DL_test	21	stimuli_target_squaretriangles.svg	stimuli_distractor_diamondtriangles.svg	7	yes	pa	1	1386	6	1	antiphase_hc_iso.wav	2	6	1	noise_calib_stim_LEFT.wav	1	23	blb_dichoticlistening_ka-pa.mp3	ka	pa	1	right
6.6.1	mac	2023-06-27	17:43:48	17:55:33	701023	5f4fe37111a2531213497942	3	1	DL_test	23	DL_test	22	stimuli_target_squaretriangles.svg	stimuli_distractor_diamondtriangles.svg	7	yes	ga	1	945	6	1	antiphase_hc_iso.wav	2	6	1	noise_calib_stim_LEFT.wav	1	21	blb_dichoticlistening_ka-ga.mp3	ka	ga	1	right
6.6.1	mac	2023-06-27	17:43:48	17:55:33	701023	5f4fe37111a2531213497942	3	1	DL_test	23	DL_test	23	stimuli_target_squaretriangles.svg	stimuli_distractor_diamondtriangles.svg	7	yes	pa	1	1869	6	1	antiphase_hc_iso.wav	2	6	1	noise_calib_stim_LEFT.wav	1	5	blb_dichoticlistening_ba-pa.mp3	ba	pa	1	right
6.6.1	mac	2023-06-27	17:43:48	17:55:33	701023	5f4fe37111a2531213497942	3	1	DL_test	23	DL_test	24	stimuli_target_squaretriangles.svg	stimuli_distractor_diamondtriangles.svg	7	yes	ka	1	891	6	1	antiphase_hc_iso.wav	2	6	1	noise_calib_stim_LEFT.wav	1	34	blb_dichoticlistening_ta-ka.mp3	ta	ka	1	right
6.6.1	mac	2023-06-27	17:43:48	17:55:33	701023	5f4fe37111a2531213497942	3	1	DL_test	23	DL_test	25	stimuli_target_squaretriangles.svg	stimuli_distractor_diamondtriangles.svg	7	yes	ga	1	986	6	1	antiphase_hc_iso.wav	2	6	1	noise_calib_stim_LEFT.wav	1	33	blb_dichoticlistening_ta-ga.mp3	ta	ga	1	right
6.6.1	mac	2023-06-27	17:43:48	17:55:33	701023	5f4fe37111a2531213497942	3	1	DL_test	23	DL_test	26	stimuli_target_squaretriangles.svg	stimuli_distractor_diamondtriangles.svg	7	yes	da	1	990	6	1	antiphase_hc_iso.wav	2	6	1	noise_calib_stim_LEFT.wav	1	8	blb_dichoticlistening_da-da.mp3	da	da	0	left
