build	computer.platform	date	time	timestamp	time_elapsed_ms	subject	group	session	blockcode	blocknum	trialcode	trialnum	stimulus_left	stimulus_right	stim_index	target_present	response	correct	latency	headphonecheck_countTestTrials	headphonecheck_index	headphonecheck_testSound	headphonecheck_correctResponse	stereocheck_countTestTrials	stereocheck_index	stereocheck_testSound	stereocheck_correctResponse	DL_index	DL_soundfile	DL_leftSound	DL_rightSound	DL_dualSound	DL_choice
6.6.1	win	2023-06-26	22:46:39	0	0	55d4c46f58c35800113dc131	2	1	headphonecheck_calibration	4	headphonecheck_calibrationIntro	1			0		calibrationButton	0	2377	0	0			0	0			1				0	
6.6.1	win	2023-06-26	22:46:39	0	0	55d4c46f58c35800113dc131	2	1	headphonecheck_testphase	5	test_collectResponse	3			0		third	1	400	1	2	antiphase_hc_ios.wav	3	0	0			1				0	
6.6.1	win	2023-06-26	22:46:39	0	0	55d4c46f58c35800113dc131	2	1	headphonecheck_testphase	5	test_collectResponse	6			0		first	1	2524	2	4	antiphase_hc_sio.wav	1	0	0			1				0	
6.6.1	win	2023-06-26	22:46:39	0	0	55d4c46f58c35800113dc131	2	1	headphonecheck_testphase	5	test_collectResponse	9			0		first	1	247	3	3	antiphase_hc_soi.wav	1	0	0			1				0	
6.6.1	win	2023-06-26	22:46:39	0	0	55d4c46f58c35800113dc131	2	1	headphonecheck_testphase	5	test_collectResponse	12			0		third	1	183	4	6	antiphase_hc_ois.wav	3	0	0			1				0	
6.6.1	win	2023-06-26	22:46:39	0	0	55d4c46f58c35800113dc131	2	1	headphonecheck_testphase	5	test_collectResponse	15			0		second	1	99	5	5	antiphase_hc_osi.wav	2	0	0			1				0	
6.6.1	win	2023-06-26	22:46:39	0	0	55d4c46f58c35800113dc131	2	1	headphonecheck_testphase	5	test_collectResponse	18			0		second	1	144	6	1	antiphase_hc_iso.wav	2	0	0			1				0	
6.6.1	win	2023-06-26	22:46:39	0	0	55d4c46f58c35800113dc131	2	1	stereocheck_calibration	7	stereocheck_calibrationIntro	1			0		stereocheck_calibrationButton	0	3823	6	1	antiphase_hc_iso.wav	2	0	0			1				0	
6.6.1	win	2023-06-26	22:46:39	0	0	55d4c46f58c35800113dc131	2	1	stereocheck_testphase	8	stereocheck_test_collectResponse	3			0		stereocheck_right	1	440	6	1	antiphase_hc_iso.wav	2	1	6	noise_calib_stim_RIGHT.wav	2	1				0	
6.6.1	win	2023-06-26	22:46:39	0	0	55d4c46f58c35800113dc131	2	1	stereocheck_testphase	8	stereocheck_test_collectResponse	6			0		stereocheck_left	1	253	6	1	antiphase_hc_iso.wav	2	2	1	noise_calib_stim_LEFT.wav	1	1				0	
6.6.1	win	2023-06-26	22:46:39	0	0	55d4c46f58c35800113dc131	2	1	stereocheck_testphase	8	stereocheck_test_collectResponse	9			0		stereocheck_left	1	239	6	1	antiphase_hc_iso.wav	2	3	3	noise_calib_stim_LEFT.wav	1	1				0	
6.6.1	win	2023-06-26	22:46:39	0	0	55d4c46f58c35800113dc131	2	1	stereocheck_testphase	8	stereocheck_test_collectResponse	12			0		stereocheck_right	1	154	6	1	antiphase_hc_iso.wav	2	4	4	noise_calib_stim_RIGHT.wav	2	1				0	
6.6.1	win	2023-06-26	22:46:39	0	0	55d4c46f58c35800113dc131	2	1	stereocheck_testphase	8	stereocheck_test_collectResponse	15			0		stereocheck_left	1	178	6	1	antiphase_hc_iso.wav	2	5	2	noise_calib_stim_LEFT.wav	1	1				0	
6.6.1	win	2023-06-26	22:46:39	0	0	55d4c46f58c35800113dc131	2	1	stereocheck_testphase	8	stereocheck_test_collectResponse	18			0		stereocheck_right	1	193	6	1	antiphase_hc_iso.wav	2	6	5	noise_calib_stim_RIGHT.wav	2	1				0	
6.6.1	win	2023-06-26	22:46:39	0	0	55d4c46f58c35800113dc131	2	1	DL_practice	11	DL_practice	2			0		pa	1	1484	6	1	antiphase_hc_iso.wav	2	6	5	noise_calib_stim_RIGHT.wav	2	29	blb_dichoticlistening_pa-pa.mp3	pa	pa	0	left
6.6.1	win	2023-06-26	22:46:39	0	0	55d4c46f58c35800113dc131	2	1	DL_practice	11	DL_practice	3			0		ga	1	882	6	1	antiphase_hc_iso.wav	2	6	5	noise_calib_stim_RIGHT.wav	2	15	blb_dichoticlistening_ga-ga.mp3	ga	ga	0	left
6.6.1	win	2023-06-26	22:46:39	0	0	55d4c46f58c35800113dc131	2	1	DL_practice	11	DL_practice	4			0		da	1	869	6	1	antiphase_hc_iso.wav	2	6	5	noise_calib_stim_RIGHT.wav	2	8	blb_dichoticlistening_da-da.mp3	da	da	0	left
6.6.1	win	2023-06-26	22:46:39	0	0	55d4c46f58c35800113dc131	2	1	DL_practice	11	DL_practice	5			0		pa	1	1474	6	1	antiphase_hc_iso.wav	2	6	5	noise_calib_stim_RIGHT.wav	2	23	blb_dichoticlistening_ka-pa.mp3	ka	pa	1	right
6.6.1	win	2023-06-26	22:46:39	0	0	55d4c46f58c35800113dc131	2	1	DL_practice	11	DL_practice	6			0		ta	1	1050	6	1	antiphase_hc_iso.wav	2	6	5	noise_calib_stim_RIGHT.wav	2	36	blb_dichoticlistening_ta-ta.mp3	ta	ta	0	left
6.6.1	win	2023-06-26	22:46:39	0	0	55d4c46f58c35800113dc131	2	1	DL_practice	11	DL_practice	7			0		ba	1	1323	6	1	antiphase_hc_iso.wav	2	6	5	noise_calib_stim_RIGHT.wav	2	1	blb_dichoticlistening_ba-ba.mp3	ba	ba	0	left
6.6.1	win	2023-06-26	22:46:39	0	0	55d4c46f58c35800113dc131	2	1	DL_practice	11	DL_practice	8			0		ka	1	862	6	1	antiphase_hc_iso.wav	2	6	5	noise_calib_stim_RIGHT.wav	2	22	blb_dichoticlistening_ka-ka.mp3	ka	ka	0	left
6.6.1	win	2023-06-26	22:46:39	0	0	55d4c46f58c35800113dc131	2	1	DL_practice	11	DL_practice	9			0		da	1	1065	6	1	antiphase_hc_iso.wav	2	6	5	noise_calib_stim_RIGHT.wav	2	7	blb_dichoticlistening_da-ba.mp3	da	ba	1	left
6.6.1	win	2023-06-26	22:46:39	0	0	55d4c46f58c35800113dc131	2	1	DL_practice	11	DL_practice	10			0		ka	0	1027	6	1	antiphase_hc_iso.wav	2	6	5	noise_calib_stim_RIGHT.wav	2	18	blb_dichoticlistening_ga-ta.mp3	ga	ta	1	other
6.6.1	win	2023-06-26	22:46:39	0	0	55d4c46f58c35800113dc131	2	1	DL_test	13	DL_test	1			0		pa	0	2035	6	1	antiphase_hc_iso.wav	2	6	5	noise_calib_stim_RIGHT.wav	2	10	blb_dichoticlistening_da-ka.mp3	da	ka	1	other
6.6.1	win	2023-06-26	22:46:39	0	0	55d4c46f58c35800113dc131	2	1	DL_test	13	DL_test	2			0		ta	1	810	6	1	antiphase_hc_iso.wav	2	6	5	noise_calib_stim_RIGHT.wav	2	36	blb_dichoticlistening_ta-ta.mp3	ta	ta	0	left
6.6.1	win	2023-06-26	22:46:39	0	0	55d4c46f58c35800113dc131	2	1	DL_test	13	DL_test	3			0		ta	1	932	6	1	antiphase_hc_iso.wav	2	6	5	noise_calib_stim_RIGHT.wav	2	31	blb_dichoticlistening_ta-ba.mp3	ta	ba	1	left
6.6.1	win	2023-06-26	22:46:39	0	0	55d4c46f58c35800113dc131	2	1	DL_test	13	DL_test	4			0		ka	1	930	6	1	antiphase_hc_iso.wav	2	6	5	noise_calib_stim_RIGHT.wav	2	28	blb_dichoticlistening_pa-ka.mp3	pa	ka	1	right
6.6.1	win	2023-06-26	22:46:39	0	0	55d4c46f58c35800113dc131	2	1	DL_test	13	DL_test	5			0		ta	1	1074	6	1	antiphase_hc_iso.wav	2	6	5	noise_calib_stim_RIGHT.wav	2	32	blb_dichoticlistening_ta-da.mp3	ta	da	1	left
6.6.1	win	2023-06-26	22:46:39	0	0	55d4c46f58c35800113dc131	2	1	DL_test	13	DL_test	6			0		pa	1	1143	6	1	antiphase_hc_iso.wav	2	6	5	noise_calib_stim_RIGHT.wav	2	17	blb_dichoticlistening_ga-pa.mp3	ga	pa	1	right
6.6.1	win	2023-06-26	22:46:39	0	0	55d4c46f58c35800113dc131	2	1	DL_test	13	DL_test	7			0		ta	1	1085	6	1	antiphase_hc_iso.wav	2	6	5	noise_calib_stim_RIGHT.wav	2	33	blb_dichoticlistening_ta-ga.mp3	ta	ga	1	left
6.6.1	win	2023-06-26	22:46:39	0	0	55d4c46f58c35800113dc131	2	1	DL_test	13	DL_test	8			0		da	0	1267	6	1	antiphase_hc_iso.wav	2	6	5	noise_calib_stim_RIGHT.wav	2	13	blb_dichoticlistening_ga-ba.mp3	ga	ba	1	other
6.6.1	win	2023-06-26	22:46:39	0	0	55d4c46f58c35800113dc131	2	1	DL_test	13	DL_test	9			0		ka	1	937	6	1	antiphase_hc_iso.wav	2	6	5	noise_calib_stim_RIGHT.wav	2	19	blb_dichoticlistening_ka-ba.mp3	ka	ba	1	left
6.6.1	win	2023-06-26	22:46:39	0	0	55d4c46f58c35800113dc131	2	1	DL_test	13	DL_test	10			0		ka	1	836	6	1	antiphase_hc_iso.wav	2	6	5	noise_calib_stim_RIGHT.wav	2	4	blb_dichoticlistening_ba-ka.mp3	ba	ka	1	right
6.6.1	win	2023-06-26	22:46:39	0	0	55d4c46f58c35800113dc131	2	1	DL_test	13	DL_test	11			0		pa	1	963	6	1	antiphase_hc_iso.wav	2	6	5	noise_calib_stim_RIGHT.wav	2	25	blb_dichoticlistening_pa-ba.mp3	pa	ba	1	left
6.6.1	win	2023-06-26	22:46:39	0	0	55d4c46f58c35800113dc131	2	1	DL_test	13	DL_test	12			0		da	1	1424	6	1	antiphase_hc_iso.wav	2	6	5	noise_calib_stim_RIGHT.wav	2	2	blb_dichoticlistening_ba-da.mp3	ba	da	1	right
6.6.1	win	2023-06-26	22:46:39	0	0	55d4c46f58c35800113dc131	2	1	DL_test	13	DL_test	13			0		da	1	788	6	1	antiphase_hc_iso.wav	2	6	5	noise_calib_stim_RIGHT.wav	2	9	blb_dichoticlistening_da-ga.mp3	da	ga	1	left
6.6.1	win	2023-06-26	22:46:39	0	0	55d4c46f58c35800113dc131	2	1	DL_test	13	DL_test	14			0		pa	1	996	6	1	antiphase_hc_iso.wav	2	6	5	noise_calib_stim_RIGHT.wav	2	27	blb_dichoticlistening_pa-ga.mp3	pa	ga	1	left
6.6.1	win	2023-06-26	22:46:39	0	0	55d4c46f58c35800113dc131	2	1	DL_test	13	DL_test	15			0		pa	1	804	6	1	antiphase_hc_iso.wav	2	6	5	noise_calib_stim_RIGHT.wav	2	29	blb_dichoticlistening_pa-pa.mp3	pa	pa	0	left
6.6.1	win	2023-06-26	22:46:39	0	0	55d4c46f58c35800113dc131	2	1	DL_test	13	DL_test	16			0		ka	1	1004	6	1	antiphase_hc_iso.wav	2	6	5	noise_calib_stim_RIGHT.wav	2	21	blb_dichoticlistening_ka-ga.mp3	ka	ga	1	left
6.6.1	win	2023-06-26	22:46:39	0	0	55d4c46f58c35800113dc131	2	1	DL_test	13	DL_test	17			0		ba	1	1079	6	1	antiphase_hc_iso.wav	2	6	5	noise_calib_stim_RIGHT.wav	2	1	blb_dichoticlistening_ba-ba.mp3	ba	ba	0	left
6.6.1	win	2023-06-26	22:46:39	0	0	55d4c46f58c35800113dc131	2	1	DL_test	13	DL_test	18			0		ta	1	886	6	1	antiphase_hc_iso.wav	2	6	5	noise_calib_stim_RIGHT.wav	2	12	blb_dichoticlistening_da-ta.mp3	da	ta	1	right
6.6.1	win	2023-06-26	22:46:39	0	0	55d4c46f58c35800113dc131	2	1	DL_test	13	DL_test	19			0		ta	0	857	6	1	antiphase_hc_iso.wav	2	6	5	noise_calib_stim_RIGHT.wav	2	26	blb_dichoticlistening_pa-da.mp3	pa	da	1	other
6.6.1	win	2023-06-26	22:46:39	0	0	55d4c46f58c35800113dc131	2	1	DL_test	13	DL_test	20			0		ta	1	828	6	1	antiphase_hc_iso.wav	2	6	5	noise_calib_stim_RIGHT.wav	2	30	blb_dichoticlistening_pa-ta.mp3	pa	ta	1	right
6.6.1	win	2023-06-26	22:46:39	0	0	55d4c46f58c35800113dc131	2	1	DL_test	13	DL_test	21			0		da	1	1079	6	1	antiphase_hc_iso.wav	2	6	5	noise_calib_stim_RIGHT.wav	2	7	blb_dichoticlistening_da-ba.mp3	da	ba	1	left
6.6.1	win	2023-06-26	22:46:39	0	0	55d4c46f58c35800113dc131	2	1	DL_test	13	DL_test	22			0		pa	1	846	6	1	antiphase_hc_iso.wav	2	6	5	noise_calib_stim_RIGHT.wav	2	23	blb_dichoticlistening_ka-pa.mp3	ka	pa	1	right
6.6.1	win	2023-06-26	22:46:39	0	0	55d4c46f58c35800113dc131	2	1	DL_test	13	DL_test	23			0		ka	1	812	6	1	antiphase_hc_iso.wav	2	6	5	noise_calib_stim_RIGHT.wav	2	24	blb_dichoticlistening_ka-ta.mp3	ka	ta	1	left
6.6.1	win	2023-06-26	22:46:39	0	0	55d4c46f58c35800113dc131	2	1	DL_test	13	DL_test	24			0		ka	1	620	6	1	antiphase_hc_iso.wav	2	6	5	noise_calib_stim_RIGHT.wav	2	34	blb_dichoticlistening_ta-ka.mp3	ta	ka	1	right
6.6.1	win	2023-06-26	22:46:39	0	0	55d4c46f58c35800113dc131	2	1	DL_test	13	DL_test	25			0		ta	1	884	6	1	antiphase_hc_iso.wav	2	6	5	noise_calib_stim_RIGHT.wav	2	6	blb_dichoticlistening_ba-ta.mp3	ba	ta	1	right
6.6.1	win	2023-06-26	22:46:39	0	0	55d4c46f58c35800113dc131	2	1	DL_test	13	DL_test	26			0		pa	1	978	6	1	antiphase_hc_iso.wav	2	6	5	noise_calib_stim_RIGHT.wav	2	11	blb_dichoticlistening_da-pa.mp3	da	pa	1	right
6.6.1	win	2023-06-26	22:46:39	0	0	55d4c46f58c35800113dc131	2	1	DL_test	13	DL_test	27			0		pa	1	727	6	1	antiphase_hc_iso.wav	2	6	5	noise_calib_stim_RIGHT.wav	2	5	blb_dichoticlistening_ba-pa.mp3	ba	pa	1	right
6.6.1	win	2023-06-26	22:46:39	0	0	55d4c46f58c35800113dc131	2	1	DL_test	13	DL_test	28			0		ga	1	1009	6	1	antiphase_hc_iso.wav	2	6	5	noise_calib_stim_RIGHT.wav	2	15	blb_dichoticlistening_ga-ga.mp3	ga	ga	0	left
6.6.1	win	2023-06-26	22:46:39	0	0	55d4c46f58c35800113dc131	2	1	DL_test	13	DL_test	29			0		ka	1	1026	6	1	antiphase_hc_iso.wav	2	6	5	noise_calib_stim_RIGHT.wav	2	20	blb_dichoticlistening_ka-da.mp3	ka	da	1	left
6.6.1	win	2023-06-26	22:46:39	0	0	55d4c46f58c35800113dc131	2	1	DL_test	13	DL_test	30			0		da	1	866	6	1	antiphase_hc_iso.wav	2	6	5	noise_calib_stim_RIGHT.wav	2	8	blb_dichoticlistening_da-da.mp3	da	da	0	left
6.6.1	win	2023-06-26	22:46:39	0	0	55d4c46f58c35800113dc131	2	1	DL_test	13	DL_test	31			0		ka	1	803	6	1	antiphase_hc_iso.wav	2	6	5	noise_calib_stim_RIGHT.wav	2	16	blb_dichoticlistening_ga-ka.mp3	ga	ka	1	right
6.6.1	win	2023-06-26	22:46:39	0	0	55d4c46f58c35800113dc131	2	1	DL_test	13	DL_test	32			0		ka	1	637	6	1	antiphase_hc_iso.wav	2	6	5	noise_calib_stim_RIGHT.wav	2	22	blb_dichoticlistening_ka-ka.mp3	ka	ka	0	left
6.6.1	win	2023-06-26	22:46:39	0	0	55d4c46f58c35800113dc131	2	1	DL_test	13	DL_test	33			0		pa	1	1064	6	1	antiphase_hc_iso.wav	2	6	5	noise_calib_stim_RIGHT.wav	2	35	blb_dichoticlistening_ta-pa.mp3	ta	pa	1	right
6.6.1	win	2023-06-26	22:46:39	0	0	55d4c46f58c35800113dc131	2	1	DL_test	13	DL_test	34			0		ka	0	1086	6	1	antiphase_hc_iso.wav	2	6	5	noise_calib_stim_RIGHT.wav	2	18	blb_dichoticlistening_ga-ta.mp3	ga	ta	1	other
6.6.1	win	2023-06-26	22:46:39	0	0	55d4c46f58c35800113dc131	2	1	DL_test	13	DL_test	35			0		da	0	1289	6	1	antiphase_hc_iso.wav	2	6	5	noise_calib_stim_RIGHT.wav	2	3	blb_dichoticlistening_ba-ga.mp3	ba	ga	1	other
6.6.1	win	2023-06-26	22:46:39	0	0	55d4c46f58c35800113dc131	2	1	DL_test	13	DL_test	36			0		da	1	1585	6	1	antiphase_hc_iso.wav	2	6	5	noise_calib_stim_RIGHT.wav	2	14	blb_dichoticlistening_ga-da.mp3	ga	da	1	right
6.6.1	win	2023-06-26	22:46:39	0	0	55d4c46f58c35800113dc131	2	1	DL_test	14	DL_test	1			0		ta	1	1037	6	1	antiphase_hc_iso.wav	2	6	5	noise_calib_stim_RIGHT.wav	2	36	blb_dichoticlistening_ta-ta.mp3	ta	ta	0	left
6.6.1	win	2023-06-26	22:46:39	0	0	55d4c46f58c35800113dc131	2	1	DL_test	14	DL_test	2			0		da	0	951	6	1	antiphase_hc_iso.wav	2	6	5	noise_calib_stim_RIGHT.wav	2	3	blb_dichoticlistening_ba-ga.mp3	ba	ga	1	other
6.6.1	win	2023-06-26	22:46:39	0	0	55d4c46f58c35800113dc131	2	1	DL_test	14	DL_test	3			0		pa	1	1915	6	1	antiphase_hc_iso.wav	2	6	5	noise_calib_stim_RIGHT.wav	2	27	blb_dichoticlistening_pa-ga.mp3	pa	ga	1	left
6.6.1	win	2023-06-26	22:46:39	0	0	55d4c46f58c35800113dc131	2	1	DL_test	14	DL_test	4			0		pa	1	1155	6	1	antiphase_hc_iso.wav	2	6	5	noise_calib_stim_RIGHT.wav	2	26	blb_dichoticlistening_pa-da.mp3	pa	da	1	left
6.6.1	win	2023-06-26	22:46:39	0	0	55d4c46f58c35800113dc131	2	1	DL_test	14	DL_test	5			0		ta	1	1063	6	1	antiphase_hc_iso.wav	2	6	5	noise_calib_stim_RIGHT.wav	2	31	blb_dichoticlistening_ta-ba.mp3	ta	ba	1	left
6.6.1	win	2023-06-26	22:46:39	0	0	55d4c46f58c35800113dc131	2	1	DL_test	14	DL_test	6			0		da	1	865	6	1	antiphase_hc_iso.wav	2	6	5	noise_calib_stim_RIGHT.wav	2	8	blb_dichoticlistening_da-da.mp3	da	da	0	left
6.6.1	win	2023-06-26	22:46:39	0	0	55d4c46f58c35800113dc131	2	1	DL_test	14	DL_test	7			0		ka	1	685	6	1	antiphase_hc_iso.wav	2	6	5	noise_calib_stim_RIGHT.wav	2	22	blb_dichoticlistening_ka-ka.mp3	ka	ka	0	left
6.6.1	win	2023-06-26	22:46:39	0	0	55d4c46f58c35800113dc131	2	1	DL_test	14	DL_test	8			0		ka	1	728	6	1	antiphase_hc_iso.wav	2	6	5	noise_calib_stim_RIGHT.wav	2	4	blb_dichoticlistening_ba-ka.mp3	ba	ka	1	right
6.6.1	win	2023-06-26	22:46:39	0	0	55d4c46f58c35800113dc131	2	1	DL_test	14	DL_test	9			0		ta	1	820	6	1	antiphase_hc_iso.wav	2	6	5	noise_calib_stim_RIGHT.wav	2	30	blb_dichoticlistening_pa-ta.mp3	pa	ta	1	right
6.6.1	win	2023-06-26	22:46:39	0	0	55d4c46f58c35800113dc131	2	1	DL_test	14	DL_test	10			0		ka	0	959	6	1	antiphase_hc_iso.wav	2	6	5	noise_calib_stim_RIGHT.wav	2	18	blb_dichoticlistening_ga-ta.mp3	ga	ta	1	other
6.6.1	win	2023-06-26	22:46:39	0	0	55d4c46f58c35800113dc131	2	1	DL_test	14	DL_test	11			0		pa	1	805	6	1	antiphase_hc_iso.wav	2	6	5	noise_calib_stim_RIGHT.wav	2	5	blb_dichoticlistening_ba-pa.mp3	ba	pa	1	right
6.6.1	win	2023-06-26	22:46:39	0	0	55d4c46f58c35800113dc131	2	1	DL_test	14	DL_test	12			0		ga	1	1249	6	1	antiphase_hc_iso.wav	2	6	5	noise_calib_stim_RIGHT.wav	2	15	blb_dichoticlistening_ga-ga.mp3	ga	ga	0	left
6.6.1	win	2023-06-26	22:46:39	0	0	55d4c46f58c35800113dc131	2	1	DL_test	14	DL_test	13			0		pa	0	1829	6	1	antiphase_hc_iso.wav	2	6	5	noise_calib_stim_RIGHT.wav	2	6	blb_dichoticlistening_ba-ta.mp3	ba	ta	1	other
6.6.1	win	2023-06-26	22:46:39	0	0	55d4c46f58c35800113dc131	2	1	DL_test	14	DL_test	14			0		ka	1	820	6	1	antiphase_hc_iso.wav	2	6	5	noise_calib_stim_RIGHT.wav	2	24	blb_dichoticlistening_ka-ta.mp3	ka	ta	1	left
6.6.1	win	2023-06-26	22:46:39	0	0	55d4c46f58c35800113dc131	2	1	DL_test	14	DL_test	15			0		ta	1	1186	6	1	antiphase_hc_iso.wav	2	6	5	noise_calib_stim_RIGHT.wav	2	32	blb_dichoticlistening_ta-da.mp3	ta	da	1	left
6.6.1	win	2023-06-26	22:46:39	0	0	55d4c46f58c35800113dc131	2	1	DL_test	14	DL_test	16			0		ka	1	958	6	1	antiphase_hc_iso.wav	2	6	5	noise_calib_stim_RIGHT.wav	2	34	blb_dichoticlistening_ta-ka.mp3	ta	ka	1	right
6.6.1	win	2023-06-26	22:46:39	0	0	55d4c46f58c35800113dc131	2	1	DL_test	14	DL_test	17			0		pa	0	1214	6	1	antiphase_hc_iso.wav	2	6	5	noise_calib_stim_RIGHT.wav	2	10	blb_dichoticlistening_da-ka.mp3	da	ka	1	other
6.6.1	win	2023-06-26	22:46:39	0	0	55d4c46f58c35800113dc131	2	1	DL_test	14	DL_test	18			0		pa	1	1016	6	1	antiphase_hc_iso.wav	2	6	5	noise_calib_stim_RIGHT.wav	2	17	blb_dichoticlistening_ga-pa.mp3	ga	pa	1	right
6.6.1	win	2023-06-26	22:46:39	0	0	55d4c46f58c35800113dc131	2	1	DL_test	14	DL_test	19			0		da	0	903	6	1	antiphase_hc_iso.wav	2	6	5	noise_calib_stim_RIGHT.wav	2	13	blb_dichoticlistening_ga-ba.mp3	ga	ba	1	other
6.6.1	win	2023-06-26	22:46:39	0	0	55d4c46f58c35800113dc131	2	1	DL_test	14	DL_test	20			0		ta	1	809	6	1	antiphase_hc_iso.wav	2	6	5	noise_calib_stim_RIGHT.wav	2	12	blb_dichoticlistening_da-ta.mp3	da	ta	1	right
6.6.1	win	2023-06-26	22:46:39	0	0	55d4c46f58c35800113dc131	2	1	DL_test	14	DL_test	21			0		ka	1	896	6	1	antiphase_hc_iso.wav	2	6	5	noise_calib_stim_RIGHT.wav	2	19	blb_dichoticlistening_ka-ba.mp3	ka	ba	1	left
6.6.1	win	2023-06-26	22:46:39	0	0	55d4c46f58c35800113dc131	2	1	DL_test	14	DL_test	22			0		ta	0	865	6	1	antiphase_hc_iso.wav	2	6	5	noise_calib_stim_RIGHT.wav	2	20	blb_dichoticlistening_ka-da.mp3	ka	da	1	other
6.6.1	win	2023-06-26	22:46:39	0	0	55d4c46f58c35800113dc131	2	1	DL_test	14	DL_test	23			0		pa	1	919	6	1	antiphase_hc_iso.wav	2	6	5	noise_calib_stim_RIGHT.wav	2	23	blb_dichoticlistening_ka-pa.mp3	ka	pa	1	right
6.6.1	win	2023-06-26	22:46:39	0	0	55d4c46f58c35800113dc131	2	1	DL_test	14	DL_test	24			0		ka	1	772	6	1	antiphase_hc_iso.wav	2	6	5	noise_calib_stim_RIGHT.wav	2	16	blb_dichoticlistening_ga-ka.mp3	ga	ka	1	right
6.6.1	win	2023-06-26	22:46:39	0	0	55d4c46f58c35800113dc131	2	1	DL_test	14	DL_test	25			0		da	1	1233	6	1	antiphase_hc_iso.wav	2	6	5	noise_calib_stim_RIGHT.wav	2	9	blb_dichoticlistening_da-ga.mp3	da	ga	1	left
6.6.1	win	2023-06-26	22:46:39	0	0	55d4c46f58c35800113dc131	2	1	DL_test	14	DL_test	26			0		pa	1	944	6	1	antiphase_hc_iso.wav	2	6	5	noise_calib_stim_RIGHT.wav	2	11	blb_dichoticlistening_da-pa.mp3	da	pa	1	right
6.6.1	win	2023-06-26	22:46:39	0	0	55d4c46f58c35800113dc131	2	1	DL_test	14	DL_test	27			0		da	1	847	6	1	antiphase_hc_iso.wav	2	6	5	noise_calib_stim_RIGHT.wav	2	7	blb_dichoticlistening_da-ba.mp3	da	ba	1	left
6.6.1	win	2023-06-26	22:46:39	0	0	55d4c46f58c35800113dc131	2	1	DL_test	14	DL_test	28			0		ka	0	823	6	1	antiphase_hc_iso.wav	2	6	5	noise_calib_stim_RIGHT.wav	2	33	blb_dichoticlistening_ta-ga.mp3	ta	ga	1	other
6.6.1	win	2023-06-26	22:46:39	0	0	55d4c46f58c35800113dc131	2	1	DL_test	14	DL_test	29			0		da	1	732	6	1	antiphase_hc_iso.wav	2	6	5	noise_calib_stim_RIGHT.wav	2	2	blb_dichoticlistening_ba-da.mp3	ba	da	1	right
6.6.1	win	2023-06-26	22:46:39	0	0	55d4c46f58c35800113dc131	2	1	DL_test	14	DL_test	30			0		ta	0	721	6	1	antiphase_hc_iso.wav	2	6	5	noise_calib_stim_RIGHT.wav	2	25	blb_dichoticlistening_pa-ba.mp3	pa	ba	1	other
6.6.1	win	2023-06-26	22:46:39	0	0	55d4c46f58c35800113dc131	2	1	DL_test	14	DL_test	31			0		ta	1	713	6	1	antiphase_hc_iso.wav	2	6	5	noise_calib_stim_RIGHT.wav	2	35	blb_dichoticlistening_ta-pa.mp3	ta	pa	1	left
6.6.1	win	2023-06-26	22:46:39	0	0	55d4c46f58c35800113dc131	2	1	DL_test	14	DL_test	32			0		ka	1	846	6	1	antiphase_hc_iso.wav	2	6	5	noise_calib_stim_RIGHT.wav	2	21	blb_dichoticlistening_ka-ga.mp3	ka	ga	1	left
6.6.1	win	2023-06-26	22:46:39	0	0	55d4c46f58c35800113dc131	2	1	DL_test	14	DL_test	33			0		ka	1	1007	6	1	antiphase_hc_iso.wav	2	6	5	noise_calib_stim_RIGHT.wav	2	28	blb_dichoticlistening_pa-ka.mp3	pa	ka	1	right
6.6.1	win	2023-06-26	22:46:39	0	0	55d4c46f58c35800113dc131	2	1	DL_test	14	DL_test	34			0		pa	0	902	6	1	antiphase_hc_iso.wav	2	6	5	noise_calib_stim_RIGHT.wav	2	1	blb_dichoticlistening_ba-ba.mp3	ba	ba	0	other
6.6.1	win	2023-06-26	22:46:39	0	0	55d4c46f58c35800113dc131	2	1	DL_test	14	DL_test	35			0		pa	1	626	6	1	antiphase_hc_iso.wav	2	6	5	noise_calib_stim_RIGHT.wav	2	29	blb_dichoticlistening_pa-pa.mp3	pa	pa	0	left
6.6.1	win	2023-06-26	22:46:39	0	0	55d4c46f58c35800113dc131	2	1	DL_test	14	DL_test	36			0		da	1	806	6	1	antiphase_hc_iso.wav	2	6	5	noise_calib_stim_RIGHT.wav	2	14	blb_dichoticlistening_ga-da.mp3	ga	da	1	right
6.6.1	win	2023-06-26	22:46:39	0	0	55d4c46f58c35800113dc131	2	1	DL_test	15	DL_test	1			0		ta	0	858	6	1	antiphase_hc_iso.wav	2	6	5	noise_calib_stim_RIGHT.wav	2	11	blb_dichoticlistening_da-pa.mp3	da	pa	1	other
6.6.1	win	2023-06-26	22:46:39	0	0	55d4c46f58c35800113dc131	2	1	DL_test	15	DL_test	2			0		ga	1	820	6	1	antiphase_hc_iso.wav	2	6	5	noise_calib_stim_RIGHT.wav	2	27	blb_dichoticlistening_pa-ga.mp3	pa	ga	1	right
6.6.1	win	2023-06-26	22:46:39	0	0	55d4c46f58c35800113dc131	2	1	DL_test	15	DL_test	3			0		ta	1	758	6	1	antiphase_hc_iso.wav	2	6	5	noise_calib_stim_RIGHT.wav	2	30	blb_dichoticlistening_pa-ta.mp3	pa	ta	1	right
6.6.1	win	2023-06-26	22:46:39	0	0	55d4c46f58c35800113dc131	2	1	DL_test	15	DL_test	4			0		da	1	806	6	1	antiphase_hc_iso.wav	2	6	5	noise_calib_stim_RIGHT.wav	2	14	blb_dichoticlistening_ga-da.mp3	ga	da	1	right
6.6.1	win	2023-06-26	22:46:39	0	0	55d4c46f58c35800113dc131	2	1	DL_test	15	DL_test	5			0		pa	1	1096	6	1	antiphase_hc_iso.wav	2	6	5	noise_calib_stim_RIGHT.wav	2	17	blb_dichoticlistening_ga-pa.mp3	ga	pa	1	right
6.6.1	win	2023-06-26	22:46:39	0	0	55d4c46f58c35800113dc131	2	1	DL_test	15	DL_test	6			0		ta	1	818	6	1	antiphase_hc_iso.wav	2	6	5	noise_calib_stim_RIGHT.wav	2	32	blb_dichoticlistening_ta-da.mp3	ta	da	1	left
6.6.1	win	2023-06-26	22:46:39	0	0	55d4c46f58c35800113dc131	2	1	DL_test	15	DL_test	7			0		pa	1	906	6	1	antiphase_hc_iso.wav	2	6	5	noise_calib_stim_RIGHT.wav	2	5	blb_dichoticlistening_ba-pa.mp3	ba	pa	1	right
6.6.1	win	2023-06-26	22:46:39	0	0	55d4c46f58c35800113dc131	2	1	DL_test	15	DL_test	8			0		pa	1	934	6	1	antiphase_hc_iso.wav	2	6	5	noise_calib_stim_RIGHT.wav	2	25	blb_dichoticlistening_pa-ba.mp3	pa	ba	1	left
6.6.1	win	2023-06-26	22:46:39	0	0	55d4c46f58c35800113dc131	2	1	DL_test	15	DL_test	9			0		ga	1	1232	6	1	antiphase_hc_iso.wav	2	6	5	noise_calib_stim_RIGHT.wav	2	33	blb_dichoticlistening_ta-ga.mp3	ta	ga	1	right
6.6.1	win	2023-06-26	22:46:39	0	0	55d4c46f58c35800113dc131	2	1	DL_test	15	DL_test	10			0		ta	1	1093	6	1	antiphase_hc_iso.wav	2	6	5	noise_calib_stim_RIGHT.wav	2	6	blb_dichoticlistening_ba-ta.mp3	ba	ta	1	right
6.6.1	win	2023-06-26	22:46:39	0	0	55d4c46f58c35800113dc131	2	1	DL_test	15	DL_test	11			0		da	1	922	6	1	antiphase_hc_iso.wav	2	6	5	noise_calib_stim_RIGHT.wav	2	7	blb_dichoticlistening_da-ba.mp3	da	ba	1	left
6.6.1	win	2023-06-26	22:46:39	0	0	55d4c46f58c35800113dc131	2	1	DL_test	15	DL_test	12			0		ba	1	1247	6	1	antiphase_hc_iso.wav	2	6	5	noise_calib_stim_RIGHT.wav	2	1	blb_dichoticlistening_ba-ba.mp3	ba	ba	0	left
6.6.1	win	2023-06-26	22:46:39	0	0	55d4c46f58c35800113dc131	2	1	DL_test	15	DL_test	13			0		ka	1	942	6	1	antiphase_hc_iso.wav	2	6	5	noise_calib_stim_RIGHT.wav	2	24	blb_dichoticlistening_ka-ta.mp3	ka	ta	1	left
6.6.1	win	2023-06-26	22:46:39	0	0	55d4c46f58c35800113dc131	2	1	DL_test	15	DL_test	14			0		ka	1	779	6	1	antiphase_hc_iso.wav	2	6	5	noise_calib_stim_RIGHT.wav	2	19	blb_dichoticlistening_ka-ba.mp3	ka	ba	1	left
6.6.1	win	2023-06-26	22:46:39	0	0	55d4c46f58c35800113dc131	2	1	DL_test	15	DL_test	15			0		ka	1	750	6	1	antiphase_hc_iso.wav	2	6	5	noise_calib_stim_RIGHT.wav	2	20	blb_dichoticlistening_ka-da.mp3	ka	da	1	left
6.6.1	win	2023-06-26	22:46:39	0	0	55d4c46f58c35800113dc131	2	1	DL_test	15	DL_test	16			0		ka	0	1060	6	1	antiphase_hc_iso.wav	2	6	5	noise_calib_stim_RIGHT.wav	2	18	blb_dichoticlistening_ga-ta.mp3	ga	ta	1	other
6.6.1	win	2023-06-26	22:46:39	0	0	55d4c46f58c35800113dc131	2	1	DL_test	15	DL_test	17			0		pa	1	847	6	1	antiphase_hc_iso.wav	2	6	5	noise_calib_stim_RIGHT.wav	2	26	blb_dichoticlistening_pa-da.mp3	pa	da	1	left
6.6.1	win	2023-06-26	22:46:39	0	0	55d4c46f58c35800113dc131	2	1	DL_test	15	DL_test	18			0		ta	1	696	6	1	antiphase_hc_iso.wav	2	6	5	noise_calib_stim_RIGHT.wav	2	36	blb_dichoticlistening_ta-ta.mp3	ta	ta	0	left
6.6.1	win	2023-06-26	22:46:39	0	0	55d4c46f58c35800113dc131	2	1	DL_test	15	DL_test	19			0		ga	1	833	6	1	antiphase_hc_iso.wav	2	6	5	noise_calib_stim_RIGHT.wav	2	15	blb_dichoticlistening_ga-ga.mp3	ga	ga	0	left
6.6.1	win	2023-06-26	22:46:39	0	0	55d4c46f58c35800113dc131	2	1	DL_test	15	DL_test	20			0		da	1	777	6	1	antiphase_hc_iso.wav	2	6	5	noise_calib_stim_RIGHT.wav	2	9	blb_dichoticlistening_da-ga.mp3	da	ga	1	left
6.6.1	win	2023-06-26	22:46:39	0	0	55d4c46f58c35800113dc131	2	1	DL_test	15	DL_test	21			0		ka	1	735	6	1	antiphase_hc_iso.wav	2	6	5	noise_calib_stim_RIGHT.wav	2	21	blb_dichoticlistening_ka-ga.mp3	ka	ga	1	left
6.6.1	win	2023-06-26	22:46:39	0	0	55d4c46f58c35800113dc131	2	1	DL_test	15	DL_test	22			0		pa	1	1196	6	1	antiphase_hc_iso.wav	2	6	5	noise_calib_stim_RIGHT.wav	2	29	blb_dichoticlistening_pa-pa.mp3	pa	pa	0	left
6.6.1	win	2023-06-26	22:46:39	0	0	55d4c46f58c35800113dc131	2	1	DL_test	15	DL_test	23			0		da	0	825	6	1	antiphase_hc_iso.wav	2	6	5	noise_calib_stim_RIGHT.wav	2	3	blb_dichoticlistening_ba-ga.mp3	ba	ga	1	other
6.6.1	win	2023-06-26	22:46:39	0	0	55d4c46f58c35800113dc131	2	1	DL_test	15	DL_test	24			0		ta	1	1300	6	1	antiphase_hc_iso.wav	2	6	5	noise_calib_stim_RIGHT.wav	2	35	blb_dichoticlistening_ta-pa.mp3	ta	pa	1	left
6.6.1	win	2023-06-26	22:46:39	0	0	55d4c46f58c35800113dc131	2	1	DL_test	15	DL_test	25			0		da	0	864	6	1	antiphase_hc_iso.wav	2	6	5	noise_calib_stim_RIGHT.wav	2	13	blb_dichoticlistening_ga-ba.mp3	ga	ba	1	other
6.6.1	win	2023-06-26	22:46:39	0	0	55d4c46f58c35800113dc131	2	1	DL_test	15	DL_test	26			0		ka	1	828	6	1	antiphase_hc_iso.wav	2	6	5	noise_calib_stim_RIGHT.wav	2	28	blb_dichoticlistening_pa-ka.mp3	pa	ka	1	right
6.6.1	win	2023-06-26	22:46:39	0	0	55d4c46f58c35800113dc131	2	1	DL_test	15	DL_test	27			0		ta	1	879	6	1	antiphase_hc_iso.wav	2	6	5	noise_calib_stim_RIGHT.wav	2	31	blb_dichoticlistening_ta-ba.mp3	ta	ba	1	left
6.6.1	win	2023-06-26	22:46:39	0	0	55d4c46f58c35800113dc131	2	1	DL_test	15	DL_test	28			0		ta	0	728	6	1	antiphase_hc_iso.wav	2	6	5	noise_calib_stim_RIGHT.wav	2	23	blb_dichoticlistening_ka-pa.mp3	ka	pa	1	other
6.6.1	win	2023-06-26	22:46:39	0	0	55d4c46f58c35800113dc131	2	1	DL_test	15	DL_test	29			0		ta	1	768	6	1	antiphase_hc_iso.wav	2	6	5	noise_calib_stim_RIGHT.wav	2	12	blb_dichoticlistening_da-ta.mp3	da	ta	1	right
6.6.1	win	2023-06-26	22:46:39	0	0	55d4c46f58c35800113dc131	2	1	DL_test	15	DL_test	30			0		ka	1	997	6	1	antiphase_hc_iso.wav	2	6	5	noise_calib_stim_RIGHT.wav	2	34	blb_dichoticlistening_ta-ka.mp3	ta	ka	1	right
6.6.1	win	2023-06-26	22:46:39	0	0	55d4c46f58c35800113dc131	2	1	DL_test	15	DL_test	31			0		pa	0	686	6	1	antiphase_hc_iso.wav	2	6	5	noise_calib_stim_RIGHT.wav	2	10	blb_dichoticlistening_da-ka.mp3	da	ka	1	other
6.6.1	win	2023-06-26	22:46:39	0	0	55d4c46f58c35800113dc131	2	1	DL_test	15	DL_test	32			0		pa	0	777	6	1	antiphase_hc_iso.wav	2	6	5	noise_calib_stim_RIGHT.wav	2	22	blb_dichoticlistening_ka-ka.mp3	ka	ka	0	other
6.6.1	win	2023-06-26	22:46:39	0	0	55d4c46f58c35800113dc131	2	1	DL_test	15	DL_test	33			0		da	1	963	6	1	antiphase_hc_iso.wav	2	6	5	noise_calib_stim_RIGHT.wav	2	8	blb_dichoticlistening_da-da.mp3	da	da	0	left
6.6.1	win	2023-06-26	22:46:39	0	0	55d4c46f58c35800113dc131	2	1	DL_test	15	DL_test	34			0		da	1	948	6	1	antiphase_hc_iso.wav	2	6	5	noise_calib_stim_RIGHT.wav	2	2	blb_dichoticlistening_ba-da.mp3	ba	da	1	right
6.6.1	win	2023-06-26	22:46:39	0	0	55d4c46f58c35800113dc131	2	1	DL_test	15	DL_test	35			0		ka	1	814	6	1	antiphase_hc_iso.wav	2	6	5	noise_calib_stim_RIGHT.wav	2	16	blb_dichoticlistening_ga-ka.mp3	ga	ka	1	right
6.6.1	win	2023-06-26	22:46:39	0	0	55d4c46f58c35800113dc131	2	1	DL_test	15	DL_test	36			0		ka	1	942	6	1	antiphase_hc_iso.wav	2	6	5	noise_calib_stim_RIGHT.wav	2	4	blb_dichoticlistening_ba-ka.mp3	ba	ka	1	right
6.6.1	win	2023-06-26	22:46:39	0	0	55d4c46f58c35800113dc131	2	1	DL_test	16	DL_test	1			0		ka	0	884	6	1	antiphase_hc_iso.wav	2	6	5	noise_calib_stim_RIGHT.wav	2	35	blb_dichoticlistening_ta-pa.mp3	ta	pa	1	other
6.6.1	win	2023-06-26	22:46:39	0	0	55d4c46f58c35800113dc131	2	1	DL_test	16	DL_test	2			0		pa	1	1763	6	1	antiphase_hc_iso.wav	2	6	5	noise_calib_stim_RIGHT.wav	2	27	blb_dichoticlistening_pa-ga.mp3	pa	ga	1	left
6.6.1	win	2023-06-26	22:46:39	0	0	55d4c46f58c35800113dc131	2	1	DL_test	16	DL_test	3			0		ga	1	736	6	1	antiphase_hc_iso.wav	2	6	5	noise_calib_stim_RIGHT.wav	2	13	blb_dichoticlistening_ga-ba.mp3	ga	ba	1	left
6.6.1	win	2023-06-26	22:46:39	0	0	55d4c46f58c35800113dc131	2	1	DL_test	16	DL_test	4			0		ka	1	843	6	1	antiphase_hc_iso.wav	2	6	5	noise_calib_stim_RIGHT.wav	2	34	blb_dichoticlistening_ta-ka.mp3	ta	ka	1	right
6.6.1	win	2023-06-26	22:46:39	0	0	55d4c46f58c35800113dc131	2	1	DL_test	16	DL_test	5			0		ka	0	797	6	1	antiphase_hc_iso.wav	2	6	5	noise_calib_stim_RIGHT.wav	2	18	blb_dichoticlistening_ga-ta.mp3	ga	ta	1	other
6.6.1	win	2023-06-26	22:46:39	0	0	55d4c46f58c35800113dc131	2	1	DL_test	16	DL_test	6			0		ka	1	906	6	1	antiphase_hc_iso.wav	2	6	5	noise_calib_stim_RIGHT.wav	2	19	blb_dichoticlistening_ka-ba.mp3	ka	ba	1	left
6.6.1	win	2023-06-26	22:46:39	0	0	55d4c46f58c35800113dc131	2	1	DL_test	16	DL_test	7			0		pa	1	953	6	1	antiphase_hc_iso.wav	2	6	5	noise_calib_stim_RIGHT.wav	2	23	blb_dichoticlistening_ka-pa.mp3	ka	pa	1	right
6.6.1	win	2023-06-26	22:46:39	0	0	55d4c46f58c35800113dc131	2	1	DL_test	16	DL_test	8			0		da	1	971	6	1	antiphase_hc_iso.wav	2	6	5	noise_calib_stim_RIGHT.wav	2	20	blb_dichoticlistening_ka-da.mp3	ka	da	1	right
6.6.1	win	2023-06-26	22:46:39	0	0	55d4c46f58c35800113dc131	2	1	DL_test	16	DL_test	9			0		pa	1	828	6	1	antiphase_hc_iso.wav	2	6	5	noise_calib_stim_RIGHT.wav	2	17	blb_dichoticlistening_ga-pa.mp3	ga	pa	1	right
6.6.1	win	2023-06-26	22:46:39	0	0	55d4c46f58c35800113dc131	2	1	DL_test	16	DL_test	10			0		ga	1	855	6	1	antiphase_hc_iso.wav	2	6	5	noise_calib_stim_RIGHT.wav	2	33	blb_dichoticlistening_ta-ga.mp3	ta	ga	1	right
6.6.1	win	2023-06-26	22:46:39	0	0	55d4c46f58c35800113dc131	2	1	DL_test	16	DL_test	11			0		ba	1	1074	6	1	antiphase_hc_iso.wav	2	6	5	noise_calib_stim_RIGHT.wav	2	1	blb_dichoticlistening_ba-ba.mp3	ba	ba	0	left
6.6.1	win	2023-06-26	22:46:39	0	0	55d4c46f58c35800113dc131	2	1	DL_test	16	DL_test	12			0		pa	1	923	6	1	antiphase_hc_iso.wav	2	6	5	noise_calib_stim_RIGHT.wav	2	25	blb_dichoticlistening_pa-ba.mp3	pa	ba	1	left
6.6.1	win	2023-06-26	22:46:39	0	0	55d4c46f58c35800113dc131	2	1	DL_test	16	DL_test	13			0		ka	1	760	6	1	antiphase_hc_iso.wav	2	6	5	noise_calib_stim_RIGHT.wav	2	4	blb_dichoticlistening_ba-ka.mp3	ba	ka	1	right
6.6.1	win	2023-06-26	22:46:39	0	0	55d4c46f58c35800113dc131	2	1	DL_test	16	DL_test	14			0		ta	1	950	6	1	antiphase_hc_iso.wav	2	6	5	noise_calib_stim_RIGHT.wav	2	32	blb_dichoticlistening_ta-da.mp3	ta	da	1	left
6.6.1	win	2023-06-26	22:46:39	0	0	55d4c46f58c35800113dc131	2	1	DL_test	16	DL_test	15			0		ta	1	697	6	1	antiphase_hc_iso.wav	2	6	5	noise_calib_stim_RIGHT.wav	2	36	blb_dichoticlistening_ta-ta.mp3	ta	ta	0	left
6.6.1	win	2023-06-26	22:46:39	0	0	55d4c46f58c35800113dc131	2	1	DL_test	16	DL_test	16			0		da	1	1088	6	1	antiphase_hc_iso.wav	2	6	5	noise_calib_stim_RIGHT.wav	2	14	blb_dichoticlistening_ga-da.mp3	ga	da	1	right
6.6.1	win	2023-06-26	22:46:39	0	0	55d4c46f58c35800113dc131	2	1	DL_test	16	DL_test	17			0		da	1	756	6	1	antiphase_hc_iso.wav	2	6	5	noise_calib_stim_RIGHT.wav	2	8	blb_dichoticlistening_da-da.mp3	da	da	0	left
6.6.1	win	2023-06-26	22:46:39	0	0	55d4c46f58c35800113dc131	2	1	DL_test	16	DL_test	18			0		ta	1	1122	6	1	antiphase_hc_iso.wav	2	6	5	noise_calib_stim_RIGHT.wav	2	30	blb_dichoticlistening_pa-ta.mp3	pa	ta	1	right
6.6.1	win	2023-06-26	22:46:39	0	0	55d4c46f58c35800113dc131	2	1	DL_test	16	DL_test	19			0		pa	1	1340	6	1	antiphase_hc_iso.wav	2	6	5	noise_calib_stim_RIGHT.wav	2	26	blb_dichoticlistening_pa-da.mp3	pa	da	1	left
6.6.1	win	2023-06-26	22:46:39	0	0	55d4c46f58c35800113dc131	2	1	DL_test	16	DL_test	20			0		pa	1	782	6	1	antiphase_hc_iso.wav	2	6	5	noise_calib_stim_RIGHT.wav	2	29	blb_dichoticlistening_pa-pa.mp3	pa	pa	0	left
6.6.1	win	2023-06-26	22:46:39	0	0	55d4c46f58c35800113dc131	2	1	DL_test	16	DL_test	21			0		ka	1	730	6	1	antiphase_hc_iso.wav	2	6	5	noise_calib_stim_RIGHT.wav	2	16	blb_dichoticlistening_ga-ka.mp3	ga	ka	1	right
6.6.1	win	2023-06-26	22:46:39	0	0	55d4c46f58c35800113dc131	2	1	DL_test	16	DL_test	22			0		ga	1	792	6	1	antiphase_hc_iso.wav	2	6	5	noise_calib_stim_RIGHT.wav	2	15	blb_dichoticlistening_ga-ga.mp3	ga	ga	0	left
6.6.1	win	2023-06-26	22:46:39	0	0	55d4c46f58c35800113dc131	2	1	DL_test	16	DL_test	23			0		ta	1	1048	6	1	antiphase_hc_iso.wav	2	6	5	noise_calib_stim_RIGHT.wav	2	31	blb_dichoticlistening_ta-ba.mp3	ta	ba	1	left
6.6.1	win	2023-06-26	22:46:39	0	0	55d4c46f58c35800113dc131	2	1	DL_test	16	DL_test	24			0		ga	1	853	6	1	antiphase_hc_iso.wav	2	6	5	noise_calib_stim_RIGHT.wav	2	3	blb_dichoticlistening_ba-ga.mp3	ba	ga	1	right
6.6.1	win	2023-06-26	22:46:39	0	0	55d4c46f58c35800113dc131	2	1	DL_test	16	DL_test	25			0		da	1	1286	6	1	antiphase_hc_iso.wav	2	6	5	noise_calib_stim_RIGHT.wav	2	9	blb_dichoticlistening_da-ga.mp3	da	ga	1	left
6.6.1	win	2023-06-26	22:46:39	0	0	55d4c46f58c35800113dc131	2	1	DL_test	16	DL_test	26			0		ka	1	746	6	1	antiphase_hc_iso.wav	2	6	5	noise_calib_stim_RIGHT.wav	2	24	blb_dichoticlistening_ka-ta.mp3	ka	ta	1	left
6.6.1	win	2023-06-26	22:46:39	0	0	55d4c46f58c35800113dc131	2	1	DL_test	16	DL_test	27			0		ta	1	1129	6	1	antiphase_hc_iso.wav	2	6	5	noise_calib_stim_RIGHT.wav	2	12	blb_dichoticlistening_da-ta.mp3	da	ta	1	right
6.6.1	win	2023-06-26	22:46:39	0	0	55d4c46f58c35800113dc131	2	1	DL_test	16	DL_test	28			0		pa	1	818	6	1	antiphase_hc_iso.wav	2	6	5	noise_calib_stim_RIGHT.wav	2	5	blb_dichoticlistening_ba-pa.mp3	ba	pa	1	right
6.6.1	win	2023-06-26	22:46:39	0	0	55d4c46f58c35800113dc131	2	1	DL_test	16	DL_test	29			0		ka	1	833	6	1	antiphase_hc_iso.wav	2	6	5	noise_calib_stim_RIGHT.wav	2	28	blb_dichoticlistening_pa-ka.mp3	pa	ka	1	right
6.6.1	win	2023-06-26	22:46:39	0	0	55d4c46f58c35800113dc131	2	1	DL_test	16	DL_test	30			0		pa	1	1321	6	1	antiphase_hc_iso.wav	2	6	5	noise_calib_stim_RIGHT.wav	2	11	blb_dichoticlistening_da-pa.mp3	da	pa	1	right
6.6.1	win	2023-06-26	22:46:39	0	0	55d4c46f58c35800113dc131	2	1	DL_test	16	DL_test	31			0		ka	1	1608	6	1	antiphase_hc_iso.wav	2	6	5	noise_calib_stim_RIGHT.wav	2	21	blb_dichoticlistening_ka-ga.mp3	ka	ga	1	left
6.6.1	win	2023-06-26	22:46:39	0	0	55d4c46f58c35800113dc131	2	1	DL_test	16	DL_test	32			0		pa	0	1104	6	1	antiphase_hc_iso.wav	2	6	5	noise_calib_stim_RIGHT.wav	2	10	blb_dichoticlistening_da-ka.mp3	da	ka	1	other
6.6.1	win	2023-06-26	22:46:39	0	0	55d4c46f58c35800113dc131	2	1	DL_test	16	DL_test	33			0		da	1	851	6	1	antiphase_hc_iso.wav	2	6	5	noise_calib_stim_RIGHT.wav	2	2	blb_dichoticlistening_ba-da.mp3	ba	da	1	right
6.6.1	win	2023-06-26	22:46:39	0	0	55d4c46f58c35800113dc131	2	1	DL_test	16	DL_test	34			0		da	1	639	6	1	antiphase_hc_iso.wav	2	6	5	noise_calib_stim_RIGHT.wav	2	7	blb_dichoticlistening_da-ba.mp3	da	ba	1	left
6.6.1	win	2023-06-26	22:46:39	0	0	55d4c46f58c35800113dc131	2	1	DL_test	16	DL_test	35			0		ka	1	701	6	1	antiphase_hc_iso.wav	2	6	5	noise_calib_stim_RIGHT.wav	2	22	blb_dichoticlistening_ka-ka.mp3	ka	ka	0	left
6.6.1	win	2023-06-26	22:46:39	0	0	55d4c46f58c35800113dc131	2	1	DL_test	16	DL_test	36			0		ta	1	959	6	1	antiphase_hc_iso.wav	2	6	5	noise_calib_stim_RIGHT.wav	2	6	blb_dichoticlistening_ba-ta.mp3	ba	ta	1	right
6.6.1	win	2023-06-26	22:46:39	22:55:19	515766	55d4c46f58c35800113dc131	2	1	practice_z	22	practice_z	1	stimuli_target_diamondsquares.svg	stimuli_distractor_diamondtriangles.svg	3	yes	44	1	1137	6	1	antiphase_hc_iso.wav	2	6	5	noise_calib_stim_RIGHT.wav	2	6	blb_dichoticlistening_ba-ta.mp3	ba	ta	1	right
6.6.1	win	2023-06-26	22:46:39	22:55:19	515766	55d4c46f58c35800113dc131	2	1	practice_z	22	advance_on_keypress_ZEE	2	stimuli_target_diamondsquares.svg	stimuli_distractor_diamondtriangles.svg	3	yes	57	0	1443	6	1	antiphase_hc_iso.wav	2	6	5	noise_calib_stim_RIGHT.wav	2	6	blb_dichoticlistening_ba-ta.mp3	ba	ta	1	right
6.6.1	win	2023-06-26	22:46:39	22:55:24	520838	55d4c46f58c35800113dc131	2	1	practice_z	22	practice_z	3	stimuli_target_diamondsquares.svg	stimuli_distractor_trianglediamonds.svg	6	yes	0	0	2000	6	1	antiphase_hc_iso.wav	2	6	5	noise_calib_stim_RIGHT.wav	2	6	blb_dichoticlistening_ba-ta.mp3	ba	ta	1	right
6.6.1	win	2023-06-26	22:46:39	22:55:24	520838	55d4c46f58c35800113dc131	2	1	practice_z	22	advance_on_keypress_ZEE	4	stimuli_target_diamondsquares.svg	stimuli_distractor_trianglediamonds.svg	6	yes	57	0	1467	6	1	antiphase_hc_iso.wav	2	6	5	noise_calib_stim_RIGHT.wav	2	6	blb_dichoticlistening_ba-ta.mp3	ba	ta	1	right
6.6.1	win	2023-06-26	22:46:39	22:55:28	524567	55d4c46f58c35800113dc131	2	1	practice_z	22	practice_z	5	stimuli_distractor_trianglediamonds.svg	stimuli_target_squarediamonds.svg	11	yes	44	1	636	6	1	antiphase_hc_iso.wav	2	6	5	noise_calib_stim_RIGHT.wav	2	6	blb_dichoticlistening_ba-ta.mp3	ba	ta	1	right
6.6.1	win	2023-06-26	22:46:39	22:55:28	524567	55d4c46f58c35800113dc131	2	1	practice_z	22	advance_on_keypress_ZEE	6	stimuli_distractor_trianglediamonds.svg	stimuli_target_squarediamonds.svg	11	yes	57	0	879	6	1	antiphase_hc_iso.wav	2	6	5	noise_calib_stim_RIGHT.wav	2	6	blb_dichoticlistening_ba-ta.mp3	ba	ta	1	right
6.6.1	win	2023-06-26	22:46:39	22:55:31	527634	55d4c46f58c35800113dc131	2	1	practice_z	22	practice_z	7	stimuli_target_squarediamonds.svg	stimuli_distractor_trianglediamonds.svg	5	yes	44	1	570	6	1	antiphase_hc_iso.wav	2	6	5	noise_calib_stim_RIGHT.wav	2	6	blb_dichoticlistening_ba-ta.mp3	ba	ta	1	right
6.6.1	win	2023-06-26	22:46:39	22:55:31	527634	55d4c46f58c35800113dc131	2	1	practice_z	22	advance_on_keypress_ZEE	8	stimuli_target_squarediamonds.svg	stimuli_distractor_trianglediamonds.svg	5	yes	57	0	674	6	1	antiphase_hc_iso.wav	2	6	5	noise_calib_stim_RIGHT.wav	2	6	blb_dichoticlistening_ba-ta.mp3	ba	ta	1	right
6.6.1	win	2023-06-26	22:46:39	22:55:36	531930	55d4c46f58c35800113dc131	2	1	practice_z	22	practice_z	9	stimuli_distractor_diamondtriangles.svg	stimuli_distractor_diamondtriangles.svg	13	no	0	1	2000	6	1	antiphase_hc_iso.wav	2	6	5	noise_calib_stim_RIGHT.wav	2	6	blb_dichoticlistening_ba-ta.mp3	ba	ta	1	right
6.6.1	win	2023-06-26	22:46:39	22:55:36	531930	55d4c46f58c35800113dc131	2	1	practice_z	22	advance_on_keypress_ZEE	10	stimuli_distractor_diamondtriangles.svg	stimuli_distractor_diamondtriangles.svg	13	no	57	0	487	6	1	antiphase_hc_iso.wav	2	6	5	noise_calib_stim_RIGHT.wav	2	6	blb_dichoticlistening_ba-ta.mp3	ba	ta	1	right
6.6.1	win	2023-06-26	22:46:39	22:55:38	534774	55d4c46f58c35800113dc131	2	1	practice_z	22	practice_z	11	stimuli_distractor_diamondtriangles.svg	stimuli_target_diamondrectangles.svg	8	yes	44	1	727	6	1	antiphase_hc_iso.wav	2	6	5	noise_calib_stim_RIGHT.wav	2	6	blb_dichoticlistening_ba-ta.mp3	ba	ta	1	right
6.6.1	win	2023-06-26	22:46:39	22:55:38	534774	55d4c46f58c35800113dc131	2	1	practice_z	22	advance_on_keypress_ZEE	12	stimuli_distractor_diamondtriangles.svg	stimuli_target_diamondrectangles.svg	8	yes	57	0	583	6	1	antiphase_hc_iso.wav	2	6	5	noise_calib_stim_RIGHT.wav	2	6	blb_dichoticlistening_ba-ta.mp3	ba	ta	1	right
6.6.1	win	2023-06-26	22:46:39	22:55:41	537826	55d4c46f58c35800113dc131	2	1	practice_z	22	practice_z	13	stimuli_distractor_trianglediamonds.svg	stimuli_target_rectanglediamonds.svg	10	yes	44	1	846	6	1	antiphase_hc_iso.wav	2	6	5	noise_calib_stim_RIGHT.wav	2	6	blb_dichoticlistening_ba-ta.mp3	ba	ta	1	right
6.6.1	win	2023-06-26	22:46:39	22:55:41	537826	55d4c46f58c35800113dc131	2	1	practice_z	22	advance_on_keypress_ZEE	14	stimuli_distractor_trianglediamonds.svg	stimuli_target_rectanglediamonds.svg	10	yes	57	0	444	6	1	antiphase_hc_iso.wav	2	6	5	noise_calib_stim_RIGHT.wav	2	6	blb_dichoticlistening_ba-ta.mp3	ba	ta	1	right
6.6.1	win	2023-06-26	22:46:39	22:55:44	540643	55d4c46f58c35800113dc131	2	1	practice_z	22	practice_z	15	stimuli_target_squarediamonds.svg	stimuli_distractor_diamondtriangles.svg	2	yes	44	1	754	6	1	antiphase_hc_iso.wav	2	6	5	noise_calib_stim_RIGHT.wav	2	6	blb_dichoticlistening_ba-ta.mp3	ba	ta	1	right
6.6.1	win	2023-06-26	22:46:39	22:55:44	540643	55d4c46f58c35800113dc131	2	1	practice_z	22	advance_on_keypress_ZEE	16	stimuli_target_squarediamonds.svg	stimuli_distractor_diamondtriangles.svg	2	yes	57	0	449	6	1	antiphase_hc_iso.wav	2	6	5	noise_calib_stim_RIGHT.wav	2	6	blb_dichoticlistening_ba-ta.mp3	ba	ta	1	right
6.6.1	win	2023-06-26	22:46:39	22:55:47	543434	55d4c46f58c35800113dc131	2	1	practice_z	22	practice_z	17	stimuli_distractor_diamondtriangles.svg	stimuli_target_rectangletriangles.svg	7	yes	44	1	720	6	1	antiphase_hc_iso.wav	2	6	5	noise_calib_stim_RIGHT.wav	2	6	blb_dichoticlistening_ba-ta.mp3	ba	ta	1	right
6.6.1	win	2023-06-26	22:46:39	22:55:47	543434	55d4c46f58c35800113dc131	2	1	practice_z	22	advance_on_keypress_ZEE	18	stimuli_distractor_diamondtriangles.svg	stimuli_target_rectangletriangles.svg	7	yes	57	0	560	6	1	antiphase_hc_iso.wav	2	6	5	noise_calib_stim_RIGHT.wav	2	6	blb_dichoticlistening_ba-ta.mp3	ba	ta	1	right
6.6.1	win	2023-06-26	22:46:39	22:55:51	547613	55d4c46f58c35800113dc131	2	1	practice_z	22	practice_z	19	stimuli_distractor_trianglediamonds.svg	stimuli_distractor_trianglediamonds.svg	15	no	0	1	2000	6	1	antiphase_hc_iso.wav	2	6	5	noise_calib_stim_RIGHT.wav	2	6	blb_dichoticlistening_ba-ta.mp3	ba	ta	1	right
6.6.1	win	2023-06-26	22:46:39	22:55:51	547613	55d4c46f58c35800113dc131	2	1	practice_z	22	advance_on_keypress_ZEE	20	stimuli_distractor_trianglediamonds.svg	stimuli_distractor_trianglediamonds.svg	15	no	57	0	404	6	1	antiphase_hc_iso.wav	2	6	5	noise_calib_stim_RIGHT.wav	2	6	blb_dichoticlistening_ba-ta.mp3	ba	ta	1	right
6.6.1	win	2023-06-26	22:46:39	22:55:54	550531	55d4c46f58c35800113dc131	2	1	practice_z	22	practice_z	21	stimuli_distractor_diamondtriangles.svg	stimuli_target_trianglerectangles.svg	9	yes	44	1	883	6	1	antiphase_hc_iso.wav	2	6	5	noise_calib_stim_RIGHT.wav	2	6	blb_dichoticlistening_ba-ta.mp3	ba	ta	1	right
6.6.1	win	2023-06-26	22:46:39	22:55:54	550531	55d4c46f58c35800113dc131	2	1	practice_z	22	advance_on_keypress_ZEE	22	stimuli_distractor_diamondtriangles.svg	stimuli_target_trianglerectangles.svg	9	yes	57	0	369	6	1	antiphase_hc_iso.wav	2	6	5	noise_calib_stim_RIGHT.wav	2	6	blb_dichoticlistening_ba-ta.mp3	ba	ta	1	right
6.6.1	win	2023-06-26	22:46:39	22:55:57	553387	55d4c46f58c35800113dc131	2	1	practice_z	22	practice_z	23	stimuli_target_rectanglediamonds.svg	stimuli_distractor_diamondtriangles.svg	1	yes	44	1	864	6	1	antiphase_hc_iso.wav	2	6	5	noise_calib_stim_RIGHT.wav	2	6	blb_dichoticlistening_ba-ta.mp3	ba	ta	1	right
6.6.1	win	2023-06-26	22:46:39	22:55:57	553387	55d4c46f58c35800113dc131	2	1	practice_z	22	advance_on_keypress_ZEE	24	stimuli_target_rectanglediamonds.svg	stimuli_distractor_diamondtriangles.svg	1	yes	57	0	418	6	1	antiphase_hc_iso.wav	2	6	5	noise_calib_stim_RIGHT.wav	2	6	blb_dichoticlistening_ba-ta.mp3	ba	ta	1	right
6.6.1	win	2023-06-26	22:46:39	22:56:00	556229	55d4c46f58c35800113dc131	2	1	practice_z	22	practice_z	25	stimuli_distractor_trianglediamonds.svg	stimuli_target_diamondrectangles.svg	12	yes	44	1	797	6	1	antiphase_hc_iso.wav	2	6	5	noise_calib_stim_RIGHT.wav	2	6	blb_dichoticlistening_ba-ta.mp3	ba	ta	1	right
6.6.1	win	2023-06-26	22:46:39	22:56:00	556229	55d4c46f58c35800113dc131	2	1	practice_z	22	advance_on_keypress_ZEE	26	stimuli_distractor_trianglediamonds.svg	stimuli_target_diamondrectangles.svg	12	yes	57	0	362	6	1	antiphase_hc_iso.wav	2	6	5	noise_calib_stim_RIGHT.wav	2	6	blb_dichoticlistening_ba-ta.mp3	ba	ta	1	right
6.6.1	win	2023-06-26	22:46:39	22:56:04	560223	55d4c46f58c35800113dc131	2	1	practice_z	22	practice_z	27	stimuli_distractor_trianglediamonds.svg	stimuli_distractor_diamondtriangles.svg	16	no	0	1	2000	6	1	antiphase_hc_iso.wav	2	6	5	noise_calib_stim_RIGHT.wav	2	6	blb_dichoticlistening_ba-ta.mp3	ba	ta	1	right
6.6.1	win	2023-06-26	22:46:39	22:56:04	560223	55d4c46f58c35800113dc131	2	1	practice_z	22	advance_on_keypress_ZEE	28	stimuli_distractor_trianglediamonds.svg	stimuli_distractor_diamondtriangles.svg	16	no	57	0	564	6	1	antiphase_hc_iso.wav	2	6	5	noise_calib_stim_RIGHT.wav	2	6	blb_dichoticlistening_ba-ta.mp3	ba	ta	1	right
6.6.1	win	2023-06-26	22:46:39	22:56:07	563200	55d4c46f58c35800113dc131	2	1	practice_z	22	practice_z	29	stimuli_target_rectanglediamonds.svg	stimuli_distractor_trianglediamonds.svg	4	yes	44	1	785	6	1	antiphase_hc_iso.wav	2	6	5	noise_calib_stim_RIGHT.wav	2	6	blb_dichoticlistening_ba-ta.mp3	ba	ta	1	right
6.6.1	win	2023-06-26	22:46:39	22:56:07	563200	55d4c46f58c35800113dc131	2	1	practice_z	22	advance_on_keypress_ZEE	30	stimuli_target_rectanglediamonds.svg	stimuli_distractor_trianglediamonds.svg	4	yes	57	0	506	6	1	antiphase_hc_iso.wav	2	6	5	noise_calib_stim_RIGHT.wav	2	6	blb_dichoticlistening_ba-ta.mp3	ba	ta	1	right
6.6.1	win	2023-06-26	22:46:39	22:56:11	567332	55d4c46f58c35800113dc131	2	1	practice_z	22	practice_z	31	stimuli_distractor_diamondtriangles.svg	stimuli_distractor_trianglediamonds.svg	14	no	0	1	2000	6	1	antiphase_hc_iso.wav	2	6	5	noise_calib_stim_RIGHT.wav	2	6	blb_dichoticlistening_ba-ta.mp3	ba	ta	1	right
6.6.1	win	2023-06-26	22:46:39	22:56:11	567332	55d4c46f58c35800113dc131	2	1	practice_z	22	advance_on_keypress_ZEE	32	stimuli_distractor_diamondtriangles.svg	stimuli_distractor_trianglediamonds.svg	14	no	57	0	411	6	1	antiphase_hc_iso.wav	2	6	5	noise_calib_stim_RIGHT.wav	2	6	blb_dichoticlistening_ba-ta.mp3	ba	ta	1	right
6.6.1	win	2023-06-26	22:46:39	22:56:20	576286	55d4c46f58c35800113dc131	2	1	main_z	24	main_z	1	stimuli_target_diamondrectangles.svg	stimuli_distractor_diamondtriangles.svg	23	yes	44	1	762	6	1	antiphase_hc_iso.wav	2	6	5	noise_calib_stim_RIGHT.wav	2	6	blb_dichoticlistening_ba-ta.mp3	ba	ta	1	right
6.6.1	win	2023-06-26	22:46:39	22:56:20	576286	55d4c46f58c35800113dc131	2	1	main_z	24	advance_on_keypress_ZEE	2	stimuli_target_diamondrectangles.svg	stimuli_distractor_diamondtriangles.svg	23	yes	57	0	1264	6	1	antiphase_hc_iso.wav	2	6	5	noise_calib_stim_RIGHT.wav	2	6	blb_dichoticlistening_ba-ta.mp3	ba	ta	1	right
6.6.1	win	2023-06-26	22:46:39	22:56:23	578937	55d4c46f58c35800113dc131	2	1	main_z	24	main_z	3	stimuli_target_trianglerectangles.svg	stimuli_distractor_diamondtriangles.svg	21	yes	44	1	772	6	1	antiphase_hc_iso.wav	2	6	5	noise_calib_stim_RIGHT.wav	2	6	blb_dichoticlistening_ba-ta.mp3	ba	ta	1	right
6.6.1	win	2023-06-26	22:46:39	22:56:23	578937	55d4c46f58c35800113dc131	2	1	main_z	24	advance_on_keypress_ZEE	4	stimuli_target_trianglerectangles.svg	stimuli_distractor_diamondtriangles.svg	21	yes	57	0	864	6	1	antiphase_hc_iso.wav	2	6	5	noise_calib_stim_RIGHT.wav	2	6	blb_dichoticlistening_ba-ta.mp3	ba	ta	1	right
6.6.1	win	2023-06-26	22:46:39	22:56:25	581242	55d4c46f58c35800113dc131	2	1	main_z	24	main_z	5	stimuli_target_squarediamonds.svg	stimuli_distractor_trianglediamonds.svg	4	yes	44	1	818	6	1	antiphase_hc_iso.wav	2	6	5	noise_calib_stim_RIGHT.wav	2	6	blb_dichoticlistening_ba-ta.mp3	ba	ta	1	right
6.6.1	win	2023-06-26	22:46:39	22:56:25	581242	55d4c46f58c35800113dc131	2	1	main_z	24	advance_on_keypress_ZEE	6	stimuli_target_squarediamonds.svg	stimuli_distractor_trianglediamonds.svg	4	yes	57	0	966	6	1	antiphase_hc_iso.wav	2	6	5	noise_calib_stim_RIGHT.wav	2	6	blb_dichoticlistening_ba-ta.mp3	ba	ta	1	right
6.6.1	win	2023-06-26	22:46:39	22:56:27	583613	55d4c46f58c35800113dc131	2	1	main_z	24	main_z	7	stimuli_target_squarediamonds.svg	stimuli_distractor_diamondtriangles.svg	8	yes	44	1	781	6	1	antiphase_hc_iso.wav	2	6	5	noise_calib_stim_RIGHT.wav	2	6	blb_dichoticlistening_ba-ta.mp3	ba	ta	1	right
6.6.1	win	2023-06-26	22:46:39	22:56:27	583613	55d4c46f58c35800113dc131	2	1	main_z	24	advance_on_keypress_ZEE	8	stimuli_target_squarediamonds.svg	stimuli_distractor_diamondtriangles.svg	8	yes	57	0	1031	6	1	antiphase_hc_iso.wav	2	6	5	noise_calib_stim_RIGHT.wav	2	6	blb_dichoticlistening_ba-ta.mp3	ba	ta	1	right
6.6.1	win	2023-06-26	22:46:39	22:56:30	586053	55d4c46f58c35800113dc131	2	1	main_z	24	main_z	9	stimuli_distractor_diamondtriangles.svg	stimuli_target_rectangletriangles.svg	13	yes	44	1	779	6	1	antiphase_hc_iso.wav	2	6	5	noise_calib_stim_RIGHT.wav	2	6	blb_dichoticlistening_ba-ta.mp3	ba	ta	1	right
6.6.1	win	2023-06-26	22:46:39	22:56:30	586053	55d4c46f58c35800113dc131	2	1	main_z	24	advance_on_keypress_ZEE	10	stimuli_distractor_diamondtriangles.svg	stimuli_target_rectangletriangles.svg	13	yes	57	0	782	6	1	antiphase_hc_iso.wav	2	6	5	noise_calib_stim_RIGHT.wav	2	6	blb_dichoticlistening_ba-ta.mp3	ba	ta	1	right
6.6.1	win	2023-06-26	22:46:39	22:56:32	588233	55d4c46f58c35800113dc131	2	1	main_z	24	main_z	11	stimuli_distractor_diamondtriangles.svg	stimuli_target_trianglerectangles.svg	29	yes	44	1	775	6	1	antiphase_hc_iso.wav	2	6	5	noise_calib_stim_RIGHT.wav	2	6	blb_dichoticlistening_ba-ta.mp3	ba	ta	1	right
6.6.1	win	2023-06-26	22:46:39	22:56:32	588233	55d4c46f58c35800113dc131	2	1	main_z	24	advance_on_keypress_ZEE	12	stimuli_distractor_diamondtriangles.svg	stimuli_target_trianglerectangles.svg	29	yes	57	0	544	6	1	antiphase_hc_iso.wav	2	6	5	noise_calib_stim_RIGHT.wav	2	6	blb_dichoticlistening_ba-ta.mp3	ba	ta	1	right
6.6.1	win	2023-06-26	22:46:39	22:56:35	591399	55d4c46f58c35800113dc131	2	1	main_z	24	main_z	13	stimuli_distractor_trianglediamonds.svg	stimuli_distractor_trianglediamonds.svg	33	no	0	1	2000	6	1	antiphase_hc_iso.wav	2	6	5	noise_calib_stim_RIGHT.wav	2	6	blb_dichoticlistening_ba-ta.mp3	ba	ta	1	right
6.6.1	win	2023-06-26	22:46:39	22:56:35	591399	55d4c46f58c35800113dc131	2	1	main_z	24	advance_on_keypress_ZEE	14	stimuli_distractor_trianglediamonds.svg	stimuli_distractor_trianglediamonds.svg	33	no	57	0	650	6	1	antiphase_hc_iso.wav	2	6	5	noise_calib_stim_RIGHT.wav	2	6	blb_dichoticlistening_ba-ta.mp3	ba	ta	1	right
6.6.1	win	2023-06-26	22:46:39	22:56:37	593475	55d4c46f58c35800113dc131	2	1	main_z	24	main_z	15	stimuli_distractor_trianglediamonds.svg	stimuli_target_trianglerectangles.svg	25	yes	44	1	800	6	1	antiphase_hc_iso.wav	2	6	5	noise_calib_stim_RIGHT.wav	2	6	blb_dichoticlistening_ba-ta.mp3	ba	ta	1	right
6.6.1	win	2023-06-26	22:46:39	22:56:37	593475	55d4c46f58c35800113dc131	2	1	main_z	24	advance_on_keypress_ZEE	16	stimuli_distractor_trianglediamonds.svg	stimuli_target_trianglerectangles.svg	25	yes	57	0	669	6	1	antiphase_hc_iso.wav	2	6	5	noise_calib_stim_RIGHT.wav	2	6	blb_dichoticlistening_ba-ta.mp3	ba	ta	1	right
6.6.1	win	2023-06-26	22:46:39	22:56:39	595620	55d4c46f58c35800113dc131	2	1	main_z	24	main_z	17	stimuli_distractor_trianglediamonds.svg	stimuli_target_squarediamonds.svg	12	yes	44	1	853	6	1	antiphase_hc_iso.wav	2	6	5	noise_calib_stim_RIGHT.wav	2	6	blb_dichoticlistening_ba-ta.mp3	ba	ta	1	right
6.6.1	win	2023-06-26	22:46:39	22:56:39	595620	55d4c46f58c35800113dc131	2	1	main_z	24	advance_on_keypress_ZEE	18	stimuli_distractor_trianglediamonds.svg	stimuli_target_squarediamonds.svg	12	yes	57	0	687	6	1	antiphase_hc_iso.wav	2	6	5	noise_calib_stim_RIGHT.wav	2	6	blb_dichoticlistening_ba-ta.mp3	ba	ta	1	right
6.6.1	win	2023-06-26	22:46:39	22:56:41	597720	55d4c46f58c35800113dc131	2	1	main_z	24	main_z	19	stimuli_distractor_trianglediamonds.svg	stimuli_target_diamondrectangles.svg	27	yes	44	1	795	6	1	antiphase_hc_iso.wav	2	6	5	noise_calib_stim_RIGHT.wav	2	6	blb_dichoticlistening_ba-ta.mp3	ba	ta	1	right
6.6.1	win	2023-06-26	22:46:39	22:56:41	597720	55d4c46f58c35800113dc131	2	1	main_z	24	advance_on_keypress_ZEE	20	stimuli_distractor_trianglediamonds.svg	stimuli_target_diamondrectangles.svg	27	yes	57	0	616	6	1	antiphase_hc_iso.wav	2	6	5	noise_calib_stim_RIGHT.wav	2	6	blb_dichoticlistening_ba-ta.mp3	ba	ta	1	right
6.6.1	win	2023-06-26	22:46:39	22:56:45	600958	55d4c46f58c35800113dc131	2	1	main_z	24	main_z	21	stimuli_distractor_diamondtriangles.svg	stimuli_distractor_diamondtriangles.svg	40	no	0	1	2000	6	1	antiphase_hc_iso.wav	2	6	5	noise_calib_stim_RIGHT.wav	2	6	blb_dichoticlistening_ba-ta.mp3	ba	ta	1	right
6.6.1	win	2023-06-26	22:46:39	22:56:45	600958	55d4c46f58c35800113dc131	2	1	main_z	24	advance_on_keypress_ZEE	22	stimuli_distractor_diamondtriangles.svg	stimuli_distractor_diamondtriangles.svg	40	no	57	0	697	6	1	antiphase_hc_iso.wav	2	6	5	noise_calib_stim_RIGHT.wav	2	6	blb_dichoticlistening_ba-ta.mp3	ba	ta	1	right
6.6.1	win	2023-06-26	22:46:39	22:56:48	604276	55d4c46f58c35800113dc131	2	1	main_z	24	main_z	23	stimuli_distractor_diamondtriangles.svg	stimuli_distractor_diamondtriangles.svg	39	no	0	1	2000	6	1	antiphase_hc_iso.wav	2	6	5	noise_calib_stim_RIGHT.wav	2	6	blb_dichoticlistening_ba-ta.mp3	ba	ta	1	right
6.6.1	win	2023-06-26	22:46:39	22:56:48	604276	55d4c46f58c35800113dc131	2	1	main_z	24	advance_on_keypress_ZEE	24	stimuli_distractor_diamondtriangles.svg	stimuli_distractor_diamondtriangles.svg	39	no	57	0	432	6	1	antiphase_hc_iso.wav	2	6	5	noise_calib_stim_RIGHT.wav	2	6	blb_dichoticlistening_ba-ta.mp3	ba	ta	1	right
6.6.1	win	2023-06-26	22:46:39	22:56:50	606179	55d4c46f58c35800113dc131	2	1	main_z	24	main_z	25	stimuli_target_rectangletriangles.svg	stimuli_distractor_trianglediamonds.svg	1	yes	44	1	845	6	1	antiphase_hc_iso.wav	2	6	5	noise_calib_stim_RIGHT.wav	2	6	blb_dichoticlistening_ba-ta.mp3	ba	ta	1	right
6.6.1	win	2023-06-26	22:46:39	22:56:50	606179	55d4c46f58c35800113dc131	2	1	main_z	24	advance_on_keypress_ZEE	26	stimuli_target_rectangletriangles.svg	stimuli_distractor_trianglediamonds.svg	1	yes	57	0	1129	6	1	antiphase_hc_iso.wav	2	6	5	noise_calib_stim_RIGHT.wav	2	6	blb_dichoticlistening_ba-ta.mp3	ba	ta	1	right
6.6.1	win	2023-06-26	22:46:39	22:56:52	608725	55d4c46f58c35800113dc131	2	1	main_z	24	main_z	27	stimuli_distractor_diamondtriangles.svg	stimuli_target_diamondsquares.svg	32	yes	44	1	799	6	1	antiphase_hc_iso.wav	2	6	5	noise_calib_stim_RIGHT.wav	2	6	blb_dichoticlistening_ba-ta.mp3	ba	ta	1	right
6.6.1	win	2023-06-26	22:46:39	22:56:52	608725	55d4c46f58c35800113dc131	2	1	main_z	24	advance_on_keypress_ZEE	28	stimuli_distractor_diamondtriangles.svg	stimuli_target_diamondsquares.svg	32	yes	57	0	758	6	1	antiphase_hc_iso.wav	2	6	5	noise_calib_stim_RIGHT.wav	2	6	blb_dichoticlistening_ba-ta.mp3	ba	ta	1	right
6.6.1	win	2023-06-26	22:46:39	22:56:55	610955	55d4c46f58c35800113dc131	2	1	main_z	24	main_z	29	stimuli_target_diamondsquares.svg	stimuli_distractor_trianglediamonds.svg	20	yes	44	1	846	6	1	antiphase_hc_iso.wav	2	6	5	noise_calib_stim_RIGHT.wav	2	6	blb_dichoticlistening_ba-ta.mp3	ba	ta	1	right
6.6.1	win	2023-06-26	22:46:39	22:56:55	610955	55d4c46f58c35800113dc131	2	1	main_z	24	advance_on_keypress_ZEE	30	stimuli_target_diamondsquares.svg	stimuli_distractor_trianglediamonds.svg	20	yes	57	0	668	6	1	antiphase_hc_iso.wav	2	6	5	noise_calib_stim_RIGHT.wav	2	6	blb_dichoticlistening_ba-ta.mp3	ba	ta	1	right
6.6.1	win	2023-06-26	22:46:39	22:56:57	613075	55d4c46f58c35800113dc131	2	1	main_z	24	main_z	31	stimuli_target_trianglesquares.svg	stimuli_distractor_trianglediamonds.svg	18	yes	44	1	832	6	1	antiphase_hc_iso.wav	2	6	5	noise_calib_stim_RIGHT.wav	2	6	blb_dichoticlistening_ba-ta.mp3	ba	ta	1	right
6.6.1	win	2023-06-26	22:46:39	22:56:57	613075	55d4c46f58c35800113dc131	2	1	main_z	24	advance_on_keypress_ZEE	32	stimuli_target_trianglesquares.svg	stimuli_distractor_trianglediamonds.svg	18	yes	57	0	587	6	1	antiphase_hc_iso.wav	2	6	5	noise_calib_stim_RIGHT.wav	2	6	blb_dichoticlistening_ba-ta.mp3	ba	ta	1	right
6.6.1	win	2023-06-26	22:46:39	22:56:59	615155	55d4c46f58c35800113dc131	2	1	main_z	24	main_z	33	stimuli_distractor_trianglediamonds.svg	stimuli_target_rectanglediamonds.svg	10	yes	44	1	870	6	1	antiphase_hc_iso.wav	2	6	5	noise_calib_stim_RIGHT.wav	2	6	blb_dichoticlistening_ba-ta.mp3	ba	ta	1	right
6.6.1	win	2023-06-26	22:46:39	22:56:59	615155	55d4c46f58c35800113dc131	2	1	main_z	24	advance_on_keypress_ZEE	34	stimuli_distractor_trianglediamonds.svg	stimuli_target_rectanglediamonds.svg	10	yes	57	0	652	6	1	antiphase_hc_iso.wav	2	6	5	noise_calib_stim_RIGHT.wav	2	6	blb_dichoticlistening_ba-ta.mp3	ba	ta	1	right
6.6.1	win	2023-06-26	22:46:39	22:57:02	618426	55d4c46f58c35800113dc131	2	1	main_z	24	main_z	35	stimuli_distractor_diamondtriangles.svg	stimuli_target_squaretriangles.svg	15	yes	0	0	2000	6	1	antiphase_hc_iso.wav	2	6	5	noise_calib_stim_RIGHT.wav	2	6	blb_dichoticlistening_ba-ta.mp3	ba	ta	1	right
6.6.1	win	2023-06-26	22:46:39	22:57:02	618426	55d4c46f58c35800113dc131	2	1	main_z	24	advance_on_keypress_ZEE	36	stimuli_distractor_diamondtriangles.svg	stimuli_target_squaretriangles.svg	15	yes	57	0	774	6	1	antiphase_hc_iso.wav	2	6	5	noise_calib_stim_RIGHT.wav	2	6	blb_dichoticlistening_ba-ta.mp3	ba	ta	1	right
6.6.1	win	2023-06-26	22:46:39	22:57:05	621827	55d4c46f58c35800113dc131	2	1	main_z	24	main_z	37	stimuli_distractor_trianglediamonds.svg	stimuli_distractor_diamondtriangles.svg	36	no	0	1	2000	6	1	antiphase_hc_iso.wav	2	6	5	noise_calib_stim_RIGHT.wav	2	6	blb_dichoticlistening_ba-ta.mp3	ba	ta	1	right
6.6.1	win	2023-06-26	22:46:39	22:57:05	621827	55d4c46f58c35800113dc131	2	1	main_z	24	advance_on_keypress_ZEE	38	stimuli_distractor_trianglediamonds.svg	stimuli_distractor_diamondtriangles.svg	36	no	57	0	386	6	1	antiphase_hc_iso.wav	2	6	5	noise_calib_stim_RIGHT.wav	2	6	blb_dichoticlistening_ba-ta.mp3	ba	ta	1	right
6.6.1	win	2023-06-26	22:46:39	22:57:07	623654	55d4c46f58c35800113dc131	2	1	main_z	24	main_z	39	stimuli_target_rectanglediamonds.svg	stimuli_distractor_trianglediamonds.svg	2	yes	44	1	819	6	1	antiphase_hc_iso.wav	2	6	5	noise_calib_stim_RIGHT.wav	2	6	blb_dichoticlistening_ba-ta.mp3	ba	ta	1	right
6.6.1	win	2023-06-26	22:46:39	22:57:07	623654	55d4c46f58c35800113dc131	2	1	main_z	24	advance_on_keypress_ZEE	40	stimuli_target_rectanglediamonds.svg	stimuli_distractor_trianglediamonds.svg	2	yes	57	0	676	6	1	antiphase_hc_iso.wav	2	6	5	noise_calib_stim_RIGHT.wav	2	6	blb_dichoticlistening_ba-ta.mp3	ba	ta	1	right
6.6.1	win	2023-06-26	22:46:39	22:57:09	625760	55d4c46f58c35800113dc131	2	1	main_z	24	main_z	41	stimuli_target_trianglesquares.svg	stimuli_distractor_diamondtriangles.svg	22	yes	44	1	807	6	1	antiphase_hc_iso.wav	2	6	5	noise_calib_stim_RIGHT.wav	2	6	blb_dichoticlistening_ba-ta.mp3	ba	ta	1	right
6.6.1	win	2023-06-26	22:46:39	22:57:09	625760	55d4c46f58c35800113dc131	2	1	main_z	24	advance_on_keypress_ZEE	42	stimuli_target_trianglesquares.svg	stimuli_distractor_diamondtriangles.svg	22	yes	57	0	582	6	1	antiphase_hc_iso.wav	2	6	5	noise_calib_stim_RIGHT.wav	2	6	blb_dichoticlistening_ba-ta.mp3	ba	ta	1	right
6.6.1	win	2023-06-26	22:46:39	22:57:11	627769	55d4c46f58c35800113dc131	2	1	main_z	24	main_z	43	stimuli_target_diamondsquares.svg	stimuli_distractor_diamondtriangles.svg	24	yes	44	1	800	6	1	antiphase_hc_iso.wav	2	6	5	noise_calib_stim_RIGHT.wav	2	6	blb_dichoticlistening_ba-ta.mp3	ba	ta	1	right
6.6.1	win	2023-06-26	22:46:39	22:57:11	627769	55d4c46f58c35800113dc131	2	1	main_z	24	advance_on_keypress_ZEE	44	stimuli_target_diamondsquares.svg	stimuli_distractor_diamondtriangles.svg	24	yes	57	0	543	6	1	antiphase_hc_iso.wav	2	6	5	noise_calib_stim_RIGHT.wav	2	6	blb_dichoticlistening_ba-ta.mp3	ba	ta	1	right
6.6.1	win	2023-06-26	22:46:39	22:57:15	630936	55d4c46f58c35800113dc131	2	1	main_z	24	main_z	45	stimuli_distractor_diamondtriangles.svg	stimuli_target_rectanglediamonds.svg	14	yes	0	0	2000	6	1	antiphase_hc_iso.wav	2	6	5	noise_calib_stim_RIGHT.wav	2	6	blb_dichoticlistening_ba-ta.mp3	ba	ta	1	right
6.6.1	win	2023-06-26	22:46:39	22:57:15	630936	55d4c46f58c35800113dc131	2	1	main_z	24	advance_on_keypress_ZEE	46	stimuli_distractor_diamondtriangles.svg	stimuli_target_rectanglediamonds.svg	14	yes	57	0	473	6	1	antiphase_hc_iso.wav	2	6	5	noise_calib_stim_RIGHT.wav	2	6	blb_dichoticlistening_ba-ta.mp3	ba	ta	1	right
6.6.1	win	2023-06-26	22:46:39	22:57:16	632856	55d4c46f58c35800113dc131	2	1	main_z	24	main_z	47	stimuli_distractor_diamondtriangles.svg	stimuli_target_trianglesquares.svg	30	yes	44	1	820	6	1	antiphase_hc_iso.wav	2	6	5	noise_calib_stim_RIGHT.wav	2	6	blb_dichoticlistening_ba-ta.mp3	ba	ta	1	right
6.6.1	win	2023-06-26	22:46:39	22:57:16	632856	55d4c46f58c35800113dc131	2	1	main_z	24	advance_on_keypress_ZEE	48	stimuli_distractor_diamondtriangles.svg	stimuli_target_trianglesquares.svg	30	yes	57	0	536	6	1	antiphase_hc_iso.wav	2	6	5	noise_calib_stim_RIGHT.wav	2	6	blb_dichoticlistening_ba-ta.mp3	ba	ta	1	right
6.6.1	win	2023-06-26	22:46:39	22:57:18	634875	55d4c46f58c35800113dc131	2	1	main_z	24	main_z	49	stimuli_distractor_diamondtriangles.svg	stimuli_target_squarediamonds.svg	16	yes	44	1	864	6	1	antiphase_hc_iso.wav	2	6	5	noise_calib_stim_RIGHT.wav	2	6	blb_dichoticlistening_ba-ta.mp3	ba	ta	1	right
6.6.1	win	2023-06-26	22:46:39	22:57:18	634875	55d4c46f58c35800113dc131	2	1	main_z	24	advance_on_keypress_ZEE	50	stimuli_distractor_diamondtriangles.svg	stimuli_target_squarediamonds.svg	16	yes	57	0	724	6	1	antiphase_hc_iso.wav	2	6	5	noise_calib_stim_RIGHT.wav	2	6	blb_dichoticlistening_ba-ta.mp3	ba	ta	1	right
6.6.1	win	2023-06-26	22:46:39	22:57:22	638219	55d4c46f58c35800113dc131	2	1	main_z	24	main_z	51	stimuli_distractor_diamondtriangles.svg	stimuli_distractor_trianglediamonds.svg	38	no	0	1	2000	6	1	antiphase_hc_iso.wav	2	6	5	noise_calib_stim_RIGHT.wav	2	6	blb_dichoticlistening_ba-ta.mp3	ba	ta	1	right
6.6.1	win	2023-06-26	22:46:39	22:57:22	638219	55d4c46f58c35800113dc131	2	1	main_z	24	advance_on_keypress_ZEE	52	stimuli_distractor_diamondtriangles.svg	stimuli_distractor_trianglediamonds.svg	38	no	57	0	486	6	1	antiphase_hc_iso.wav	2	6	5	noise_calib_stim_RIGHT.wav	2	6	blb_dichoticlistening_ba-ta.mp3	ba	ta	1	right
6.6.1	win	2023-06-26	22:46:39	22:57:24	640172	55d4c46f58c35800113dc131	2	1	main_z	24	main_z	53	stimuli_target_squaretriangles.svg	stimuli_distractor_trianglediamonds.svg	3	yes	44	1	844	6	1	antiphase_hc_iso.wav	2	6	5	noise_calib_stim_RIGHT.wav	2	6	blb_dichoticlistening_ba-ta.mp3	ba	ta	1	right
6.6.1	win	2023-06-26	22:46:39	22:57:24	640172	55d4c46f58c35800113dc131	2	1	main_z	24	advance_on_keypress_ZEE	54	stimuli_target_squaretriangles.svg	stimuli_distractor_trianglediamonds.svg	3	yes	57	0	611	6	1	antiphase_hc_iso.wav	2	6	5	noise_calib_stim_RIGHT.wav	2	6	blb_dichoticlistening_ba-ta.mp3	ba	ta	1	right
6.6.1	win	2023-06-26	22:46:39	22:57:26	642247	55d4c46f58c35800113dc131	2	1	main_z	24	main_z	55	stimuli_target_squaretriangles.svg	stimuli_distractor_diamondtriangles.svg	7	yes	44	1	844	6	1	antiphase_hc_iso.wav	2	6	5	noise_calib_stim_RIGHT.wav	2	6	blb_dichoticlistening_ba-ta.mp3	ba	ta	1	right
6.6.1	win	2023-06-26	22:46:39	22:57:26	642247	55d4c46f58c35800113dc131	2	1	main_z	24	advance_on_keypress_ZEE	56	stimuli_target_squaretriangles.svg	stimuli_distractor_diamondtriangles.svg	7	yes	57	0	485	6	1	antiphase_hc_iso.wav	2	6	5	noise_calib_stim_RIGHT.wav	2	6	blb_dichoticlistening_ba-ta.mp3	ba	ta	1	right
6.6.1	win	2023-06-26	22:46:39	22:57:28	644207	55d4c46f58c35800113dc131	2	1	main_z	24	main_z	57	stimuli_distractor_trianglediamonds.svg	stimuli_target_rectangletriangles.svg	9	yes	44	1	854	6	1	antiphase_hc_iso.wav	2	6	5	noise_calib_stim_RIGHT.wav	2	6	blb_dichoticlistening_ba-ta.mp3	ba	ta	1	right
6.6.1	win	2023-06-26	22:46:39	22:57:28	644207	55d4c46f58c35800113dc131	2	1	main_z	24	advance_on_keypress_ZEE	58	stimuli_distractor_trianglediamonds.svg	stimuli_target_rectangletriangles.svg	9	yes	57	0	451	6	1	antiphase_hc_iso.wav	2	6	5	noise_calib_stim_RIGHT.wav	2	6	blb_dichoticlistening_ba-ta.mp3	ba	ta	1	right
6.6.1	win	2023-06-26	22:46:39	22:57:31	647278	55d4c46f58c35800113dc131	2	1	main_z	24	main_z	59	stimuli_distractor_trianglediamonds.svg	stimuli_distractor_trianglediamonds.svg	34	no	0	1	2000	6	1	antiphase_hc_iso.wav	2	6	5	noise_calib_stim_RIGHT.wav	2	6	blb_dichoticlistening_ba-ta.mp3	ba	ta	1	right
6.6.1	win	2023-06-26	22:46:39	22:57:31	647278	55d4c46f58c35800113dc131	2	1	main_z	24	advance_on_keypress_ZEE	60	stimuli_distractor_trianglediamonds.svg	stimuli_distractor_trianglediamonds.svg	34	no	57	0	508	6	1	antiphase_hc_iso.wav	2	6	5	noise_calib_stim_RIGHT.wav	2	6	blb_dichoticlistening_ba-ta.mp3	ba	ta	1	right
6.6.1	win	2023-06-26	22:46:39	22:57:33	649268	55d4c46f58c35800113dc131	2	1	main_z	24	main_z	61	stimuli_distractor_trianglediamonds.svg	stimuli_target_diamondsquares.svg	28	yes	44	1	856	6	1	antiphase_hc_iso.wav	2	6	5	noise_calib_stim_RIGHT.wav	2	6	blb_dichoticlistening_ba-ta.mp3	ba	ta	1	right
6.6.1	win	2023-06-26	22:46:39	22:57:33	649268	55d4c46f58c35800113dc131	2	1	main_z	24	advance_on_keypress_ZEE	62	stimuli_distractor_trianglediamonds.svg	stimuli_target_diamondsquares.svg	28	yes	57	0	540	6	1	antiphase_hc_iso.wav	2	6	5	noise_calib_stim_RIGHT.wav	2	6	blb_dichoticlistening_ba-ta.mp3	ba	ta	1	right
6.6.1	win	2023-06-26	22:46:39	22:57:36	652437	55d4c46f58c35800113dc131	2	1	main_z	24	main_z	63	stimuli_distractor_trianglediamonds.svg	stimuli_distractor_diamondtriangles.svg	35	no	0	1	2000	6	1	antiphase_hc_iso.wav	2	6	5	noise_calib_stim_RIGHT.wav	2	6	blb_dichoticlistening_ba-ta.mp3	ba	ta	1	right
6.6.1	win	2023-06-26	22:46:39	22:57:36	652437	55d4c46f58c35800113dc131	2	1	main_z	24	advance_on_keypress_ZEE	64	stimuli_distractor_trianglediamonds.svg	stimuli_distractor_diamondtriangles.svg	35	no	57	0	376	6	1	antiphase_hc_iso.wav	2	6	5	noise_calib_stim_RIGHT.wav	2	6	blb_dichoticlistening_ba-ta.mp3	ba	ta	1	right
6.6.1	win	2023-06-26	22:46:39	22:57:38	654211	55d4c46f58c35800113dc131	2	1	main_z	24	main_z	65	stimuli_target_rectanglediamonds.svg	stimuli_distractor_diamondtriangles.svg	6	yes	44	1	773	6	1	antiphase_hc_iso.wav	2	6	5	noise_calib_stim_RIGHT.wav	2	6	blb_dichoticlistening_ba-ta.mp3	ba	ta	1	right
6.6.1	win	2023-06-26	22:46:39	22:57:38	654211	55d4c46f58c35800113dc131	2	1	main_z	24	advance_on_keypress_ZEE	66	stimuli_target_rectanglediamonds.svg	stimuli_distractor_diamondtriangles.svg	6	yes	57	0	500	6	1	antiphase_hc_iso.wav	2	6	5	noise_calib_stim_RIGHT.wav	2	6	blb_dichoticlistening_ba-ta.mp3	ba	ta	1	right
6.6.1	win	2023-06-26	22:46:39	22:57:40	656209	55d4c46f58c35800113dc131	2	1	main_z	24	main_z	67	stimuli_distractor_trianglediamonds.svg	stimuli_target_squaretriangles.svg	11	yes	44	1	872	6	1	antiphase_hc_iso.wav	2	6	5	noise_calib_stim_RIGHT.wav	2	6	blb_dichoticlistening_ba-ta.mp3	ba	ta	1	right
6.6.1	win	2023-06-26	22:46:39	22:57:40	656209	55d4c46f58c35800113dc131	2	1	main_z	24	advance_on_keypress_ZEE	68	stimuli_distractor_trianglediamonds.svg	stimuli_target_squaretriangles.svg	11	yes	57	0	528	6	1	antiphase_hc_iso.wav	2	6	5	noise_calib_stim_RIGHT.wav	2	6	blb_dichoticlistening_ba-ta.mp3	ba	ta	1	right
6.6.1	win	2023-06-26	22:46:39	22:57:42	658209	55d4c46f58c35800113dc131	2	1	main_z	24	main_z	69	stimuli_distractor_diamondtriangles.svg	stimuli_target_diamondrectangles.svg	31	yes	44	1	856	6	1	antiphase_hc_iso.wav	2	6	5	noise_calib_stim_RIGHT.wav	2	6	blb_dichoticlistening_ba-ta.mp3	ba	ta	1	right
6.6.1	win	2023-06-26	22:46:39	22:57:42	658209	55d4c46f58c35800113dc131	2	1	main_z	24	advance_on_keypress_ZEE	70	stimuli_distractor_diamondtriangles.svg	stimuli_target_diamondrectangles.svg	31	yes	57	0	463	6	1	antiphase_hc_iso.wav	2	6	5	noise_calib_stim_RIGHT.wav	2	6	blb_dichoticlistening_ba-ta.mp3	ba	ta	1	right
6.6.1	win	2023-06-26	22:46:39	22:57:44	660113	55d4c46f58c35800113dc131	2	1	main_z	24	main_z	71	stimuli_distractor_trianglediamonds.svg	stimuli_target_trianglesquares.svg	26	yes	44	1	825	6	1	antiphase_hc_iso.wav	2	6	5	noise_calib_stim_RIGHT.wav	2	6	blb_dichoticlistening_ba-ta.mp3	ba	ta	1	right
6.6.1	win	2023-06-26	22:46:39	22:57:44	660113	55d4c46f58c35800113dc131	2	1	main_z	24	advance_on_keypress_ZEE	72	stimuli_distractor_trianglediamonds.svg	stimuli_target_trianglesquares.svg	26	yes	57	0	438	6	1	antiphase_hc_iso.wav	2	6	5	noise_calib_stim_RIGHT.wav	2	6	blb_dichoticlistening_ba-ta.mp3	ba	ta	1	right
6.6.1	win	2023-06-26	22:46:39	22:57:46	661972	55d4c46f58c35800113dc131	2	1	main_z	24	main_z	73	stimuli_target_rectangletriangles.svg	stimuli_distractor_diamondtriangles.svg	5	yes	44	1	801	6	1	antiphase_hc_iso.wav	2	6	5	noise_calib_stim_RIGHT.wav	2	6	blb_dichoticlistening_ba-ta.mp3	ba	ta	1	right
6.6.1	win	2023-06-26	22:46:39	22:57:46	661972	55d4c46f58c35800113dc131	2	1	main_z	24	advance_on_keypress_ZEE	74	stimuli_target_rectangletriangles.svg	stimuli_distractor_diamondtriangles.svg	5	yes	57	0	469	6	1	antiphase_hc_iso.wav	2	6	5	noise_calib_stim_RIGHT.wav	2	6	blb_dichoticlistening_ba-ta.mp3	ba	ta	1	right
6.6.1	win	2023-06-26	22:46:39	22:57:48	663922	55d4c46f58c35800113dc131	2	1	main_z	24	main_z	75	stimuli_target_diamondrectangles.svg	stimuli_distractor_trianglediamonds.svg	19	yes	44	1	859	6	1	antiphase_hc_iso.wav	2	6	5	noise_calib_stim_RIGHT.wav	2	6	blb_dichoticlistening_ba-ta.mp3	ba	ta	1	right
6.6.1	win	2023-06-26	22:46:39	22:57:48	663922	55d4c46f58c35800113dc131	2	1	main_z	24	advance_on_keypress_ZEE	76	stimuli_target_diamondrectangles.svg	stimuli_distractor_trianglediamonds.svg	19	yes	57	0	423	6	1	antiphase_hc_iso.wav	2	6	5	noise_calib_stim_RIGHT.wav	2	6	blb_dichoticlistening_ba-ta.mp3	ba	ta	1	right
6.6.1	win	2023-06-26	22:46:39	22:57:49	665801	55d4c46f58c35800113dc131	2	1	main_z	24	main_z	77	stimuli_target_trianglerectangles.svg	stimuli_distractor_trianglediamonds.svg	17	yes	44	1	830	6	1	antiphase_hc_iso.wav	2	6	5	noise_calib_stim_RIGHT.wav	2	6	blb_dichoticlistening_ba-ta.mp3	ba	ta	1	right
6.6.1	win	2023-06-26	22:46:39	22:57:49	665801	55d4c46f58c35800113dc131	2	1	main_z	24	advance_on_keypress_ZEE	78	stimuli_target_trianglerectangles.svg	stimuli_distractor_trianglediamonds.svg	17	yes	57	0	387	6	1	antiphase_hc_iso.wav	2	6	5	noise_calib_stim_RIGHT.wav	2	6	blb_dichoticlistening_ba-ta.mp3	ba	ta	1	right
6.6.1	win	2023-06-26	22:46:39	22:57:52	668805	55d4c46f58c35800113dc131	2	1	main_z	24	main_z	79	stimuli_distractor_diamondtriangles.svg	stimuli_distractor_trianglediamonds.svg	37	no	0	1	2000	6	1	antiphase_hc_iso.wav	2	6	5	noise_calib_stim_RIGHT.wav	2	6	blb_dichoticlistening_ba-ta.mp3	ba	ta	1	right
6.6.1	win	2023-06-26	22:46:39	22:57:52	668805	55d4c46f58c35800113dc131	2	1	main_z	24	advance_on_keypress_ZEE	80	stimuli_distractor_diamondtriangles.svg	stimuli_distractor_trianglediamonds.svg	37	no	57	0	536	6	1	antiphase_hc_iso.wav	2	6	5	noise_calib_stim_RIGHT.wav	2	6	blb_dichoticlistening_ba-ta.mp3	ba	ta	1	right
6.6.1	win	2023-06-26	22:46:39	22:57:55	670933	55d4c46f58c35800113dc131	2	1	main_z	24	main_z	81	stimuli_distractor_trianglediamonds.svg	stimuli_distractor_trianglediamonds.svg	34	no	44	0	970	6	1	antiphase_hc_iso.wav	2	6	5	noise_calib_stim_RIGHT.wav	2	6	blb_dichoticlistening_ba-ta.mp3	ba	ta	1	right
6.6.1	win	2023-06-26	22:46:39	22:57:55	670933	55d4c46f58c35800113dc131	2	1	main_z	24	advance_on_keypress_ZEE	82	stimuli_distractor_trianglediamonds.svg	stimuli_distractor_trianglediamonds.svg	34	no	57	0	417	6	1	antiphase_hc_iso.wav	2	6	5	noise_calib_stim_RIGHT.wav	2	6	blb_dichoticlistening_ba-ta.mp3	ba	ta	1	right
6.6.1	win	2023-06-26	22:46:39	22:57:56	672862	55d4c46f58c35800113dc131	2	1	main_z	24	main_z	83	stimuli_distractor_diamondtriangles.svg	stimuli_target_squaretriangles.svg	15	yes	44	1	890	6	1	antiphase_hc_iso.wav	2	6	5	noise_calib_stim_RIGHT.wav	2	6	blb_dichoticlistening_ba-ta.mp3	ba	ta	1	right
6.6.1	win	2023-06-26	22:46:39	22:57:56	672862	55d4c46f58c35800113dc131	2	1	main_z	24	advance_on_keypress_ZEE	84	stimuli_distractor_diamondtriangles.svg	stimuli_target_squaretriangles.svg	15	yes	57	0	391	6	1	antiphase_hc_iso.wav	2	6	5	noise_calib_stim_RIGHT.wav	2	6	blb_dichoticlistening_ba-ta.mp3	ba	ta	1	right
6.6.1	win	2023-06-26	22:46:39	22:57:58	674656	55d4c46f58c35800113dc131	2	1	main_z	24	main_z	85	stimuli_distractor_diamondtriangles.svg	stimuli_target_rectangletriangles.svg	13	yes	44	1	776	6	1	antiphase_hc_iso.wav	2	6	5	noise_calib_stim_RIGHT.wav	2	6	blb_dichoticlistening_ba-ta.mp3	ba	ta	1	right
6.6.1	win	2023-06-26	22:46:39	22:57:58	674656	55d4c46f58c35800113dc131	2	1	main_z	24	advance_on_keypress_ZEE	86	stimuli_distractor_diamondtriangles.svg	stimuli_target_rectangletriangles.svg	13	yes	57	0	403	6	1	antiphase_hc_iso.wav	2	6	5	noise_calib_stim_RIGHT.wav	2	6	blb_dichoticlistening_ba-ta.mp3	ba	ta	1	right
6.6.1	win	2023-06-26	22:46:39	22:58:00	676476	55d4c46f58c35800113dc131	2	1	main_z	24	main_z	87	stimuli_distractor_trianglediamonds.svg	stimuli_target_diamondrectangles.svg	27	yes	44	1	796	6	1	antiphase_hc_iso.wav	2	6	5	noise_calib_stim_RIGHT.wav	2	6	blb_dichoticlistening_ba-ta.mp3	ba	ta	1	right
6.6.1	win	2023-06-26	22:46:39	22:58:00	676476	55d4c46f58c35800113dc131	2	1	main_z	24	advance_on_keypress_ZEE	88	stimuli_distractor_trianglediamonds.svg	stimuli_target_diamondrectangles.svg	27	yes	57	0	447	6	1	antiphase_hc_iso.wav	2	6	5	noise_calib_stim_RIGHT.wav	2	6	blb_dichoticlistening_ba-ta.mp3	ba	ta	1	right
6.6.1	win	2023-06-26	22:46:39	22:58:02	678280	55d4c46f58c35800113dc131	2	1	main_z	24	main_z	89	stimuli_distractor_trianglediamonds.svg	stimuli_target_rectanglediamonds.svg	10	yes	44	1	741	6	1	antiphase_hc_iso.wav	2	6	5	noise_calib_stim_RIGHT.wav	2	6	blb_dichoticlistening_ba-ta.mp3	ba	ta	1	right
6.6.1	win	2023-06-26	22:46:39	22:58:02	678280	55d4c46f58c35800113dc131	2	1	main_z	24	advance_on_keypress_ZEE	90	stimuli_distractor_trianglediamonds.svg	stimuli_target_rectanglediamonds.svg	10	yes	57	0	432	6	1	antiphase_hc_iso.wav	2	6	5	noise_calib_stim_RIGHT.wav	2	6	blb_dichoticlistening_ba-ta.mp3	ba	ta	1	right
6.6.1	win	2023-06-26	22:46:39	22:58:04	680154	55d4c46f58c35800113dc131	2	1	main_z	24	main_z	91	stimuli_distractor_trianglediamonds.svg	stimuli_target_trianglesquares.svg	26	yes	44	1	815	6	1	antiphase_hc_iso.wav	2	6	5	noise_calib_stim_RIGHT.wav	2	6	blb_dichoticlistening_ba-ta.mp3	ba	ta	1	right
6.6.1	win	2023-06-26	22:46:39	22:58:04	680154	55d4c46f58c35800113dc131	2	1	main_z	24	advance_on_keypress_ZEE	92	stimuli_distractor_trianglediamonds.svg	stimuli_target_trianglesquares.svg	26	yes	57	0	376	6	1	antiphase_hc_iso.wav	2	6	5	noise_calib_stim_RIGHT.wav	2	6	blb_dichoticlistening_ba-ta.mp3	ba	ta	1	right
6.6.1	win	2023-06-26	22:46:39	22:58:06	681908	55d4c46f58c35800113dc131	2	1	main_z	24	main_z	93	stimuli_target_trianglesquares.svg	stimuli_distractor_diamondtriangles.svg	22	yes	44	1	752	6	1	antiphase_hc_iso.wav	2	6	5	noise_calib_stim_RIGHT.wav	2	6	blb_dichoticlistening_ba-ta.mp3	ba	ta	1	right
6.6.1	win	2023-06-26	22:46:39	22:58:06	681908	55d4c46f58c35800113dc131	2	1	main_z	24	advance_on_keypress_ZEE	94	stimuli_target_trianglesquares.svg	stimuli_distractor_diamondtriangles.svg	22	yes	57	0	425	6	1	antiphase_hc_iso.wav	2	6	5	noise_calib_stim_RIGHT.wav	2	6	blb_dichoticlistening_ba-ta.mp3	ba	ta	1	right
6.6.1	win	2023-06-26	22:46:39	22:58:09	684956	55d4c46f58c35800113dc131	2	1	main_z	24	main_z	95	stimuli_distractor_trianglediamonds.svg	stimuli_distractor_diamondtriangles.svg	36	no	0	1	2000	6	1	antiphase_hc_iso.wav	2	6	5	noise_calib_stim_RIGHT.wav	2	6	blb_dichoticlistening_ba-ta.mp3	ba	ta	1	right
6.6.1	win	2023-06-26	22:46:39	22:58:09	684956	55d4c46f58c35800113dc131	2	1	main_z	24	advance_on_keypress_ZEE	96	stimuli_distractor_trianglediamonds.svg	stimuli_distractor_diamondtriangles.svg	36	no	57	0	467	6	1	antiphase_hc_iso.wav	2	6	5	noise_calib_stim_RIGHT.wav	2	6	blb_dichoticlistening_ba-ta.mp3	ba	ta	1	right
6.6.1	win	2023-06-26	22:46:39	22:58:12	688047	55d4c46f58c35800113dc131	2	1	main_z	24	main_z	97	stimuli_distractor_trianglediamonds.svg	stimuli_distractor_diamondtriangles.svg	35	no	0	1	2000	6	1	antiphase_hc_iso.wav	2	6	5	noise_calib_stim_RIGHT.wav	2	6	blb_dichoticlistening_ba-ta.mp3	ba	ta	1	right
6.6.1	win	2023-06-26	22:46:39	22:58:12	688047	55d4c46f58c35800113dc131	2	1	main_z	24	advance_on_keypress_ZEE	98	stimuli_distractor_trianglediamonds.svg	stimuli_distractor_diamondtriangles.svg	35	no	57	0	407	6	1	antiphase_hc_iso.wav	2	6	5	noise_calib_stim_RIGHT.wav	2	6	blb_dichoticlistening_ba-ta.mp3	ba	ta	1	right
6.6.1	win	2023-06-26	22:46:39	22:58:15	691081	55d4c46f58c35800113dc131	2	1	main_z	24	main_z	99	stimuli_distractor_trianglediamonds.svg	stimuli_distractor_trianglediamonds.svg	33	no	0	1	2000	6	1	antiphase_hc_iso.wav	2	6	5	noise_calib_stim_RIGHT.wav	2	6	blb_dichoticlistening_ba-ta.mp3	ba	ta	1	right
6.6.1	win	2023-06-26	22:46:39	22:58:15	691081	55d4c46f58c35800113dc131	2	1	main_z	24	advance_on_keypress_ZEE	100	stimuli_distractor_trianglediamonds.svg	stimuli_distractor_trianglediamonds.svg	33	no	57	0	425	6	1	antiphase_hc_iso.wav	2	6	5	noise_calib_stim_RIGHT.wav	2	6	blb_dichoticlistening_ba-ta.mp3	ba	ta	1	right
6.6.1	win	2023-06-26	22:46:39	22:58:17	692908	55d4c46f58c35800113dc131	2	1	main_z	24	main_z	101	stimuli_distractor_diamondtriangles.svg	stimuli_target_trianglerectangles.svg	29	yes	44	1	777	6	1	antiphase_hc_iso.wav	2	6	5	noise_calib_stim_RIGHT.wav	2	6	blb_dichoticlistening_ba-ta.mp3	ba	ta	1	right
6.6.1	win	2023-06-26	22:46:39	22:58:17	692908	55d4c46f58c35800113dc131	2	1	main_z	24	advance_on_keypress_ZEE	102	stimuli_distractor_diamondtriangles.svg	stimuli_target_trianglerectangles.svg	29	yes	57	0	524	6	1	antiphase_hc_iso.wav	2	6	5	noise_calib_stim_RIGHT.wav	2	6	blb_dichoticlistening_ba-ta.mp3	ba	ta	1	right
6.6.1	win	2023-06-26	22:46:39	22:58:18	694858	55d4c46f58c35800113dc131	2	1	main_z	24	main_z	103	stimuli_target_diamondrectangles.svg	stimuli_distractor_trianglediamonds.svg	19	yes	44	1	801	6	1	antiphase_hc_iso.wav	2	6	5	noise_calib_stim_RIGHT.wav	2	6	blb_dichoticlistening_ba-ta.mp3	ba	ta	1	right
6.6.1	win	2023-06-26	22:46:39	22:58:18	694858	55d4c46f58c35800113dc131	2	1	main_z	24	advance_on_keypress_ZEE	104	stimuli_target_diamondrectangles.svg	stimuli_distractor_trianglediamonds.svg	19	yes	57	0	415	6	1	antiphase_hc_iso.wav	2	6	5	noise_calib_stim_RIGHT.wav	2	6	blb_dichoticlistening_ba-ta.mp3	ba	ta	1	right
6.6.1	win	2023-06-26	22:46:39	22:58:20	696667	55d4c46f58c35800113dc131	2	1	main_z	24	main_z	105	stimuli_distractor_diamondtriangles.svg	stimuli_target_diamondsquares.svg	32	yes	44	1	769	6	1	antiphase_hc_iso.wav	2	6	5	noise_calib_stim_RIGHT.wav	2	6	blb_dichoticlistening_ba-ta.mp3	ba	ta	1	right
6.6.1	win	2023-06-26	22:46:39	22:58:20	696667	55d4c46f58c35800113dc131	2	1	main_z	24	advance_on_keypress_ZEE	106	stimuli_distractor_diamondtriangles.svg	stimuli_target_diamondsquares.svg	32	yes	57	0	440	6	1	antiphase_hc_iso.wav	2	6	5	noise_calib_stim_RIGHT.wav	2	6	blb_dichoticlistening_ba-ta.mp3	ba	ta	1	right
6.6.1	win	2023-06-26	22:46:39	22:58:22	698506	55d4c46f58c35800113dc131	2	1	main_z	24	main_z	107	stimuli_target_diamondsquares.svg	stimuli_distractor_diamondtriangles.svg	24	yes	44	1	774	6	1	antiphase_hc_iso.wav	2	6	5	noise_calib_stim_RIGHT.wav	2	6	blb_dichoticlistening_ba-ta.mp3	ba	ta	1	right
6.6.1	win	2023-06-26	22:46:39	22:58:22	698506	55d4c46f58c35800113dc131	2	1	main_z	24	advance_on_keypress_ZEE	108	stimuli_target_diamondsquares.svg	stimuli_distractor_diamondtriangles.svg	24	yes	57	0	382	6	1	antiphase_hc_iso.wav	2	6	5	noise_calib_stim_RIGHT.wav	2	6	blb_dichoticlistening_ba-ta.mp3	ba	ta	1	right
6.6.1	win	2023-06-26	22:46:39	22:58:24	700306	55d4c46f58c35800113dc131	2	1	main_z	24	main_z	109	stimuli_distractor_diamondtriangles.svg	stimuli_target_rectanglediamonds.svg	14	yes	44	1	790	6	1	antiphase_hc_iso.wav	2	6	5	noise_calib_stim_RIGHT.wav	2	6	blb_dichoticlistening_ba-ta.mp3	ba	ta	1	right
6.6.1	win	2023-06-26	22:46:39	22:58:24	700306	55d4c46f58c35800113dc131	2	1	main_z	24	advance_on_keypress_ZEE	110	stimuli_distractor_diamondtriangles.svg	stimuli_target_rectanglediamonds.svg	14	yes	57	0	496	6	1	antiphase_hc_iso.wav	2	6	5	noise_calib_stim_RIGHT.wav	2	6	blb_dichoticlistening_ba-ta.mp3	ba	ta	1	right
6.6.1	win	2023-06-26	22:46:39	22:58:26	702215	55d4c46f58c35800113dc131	2	1	main_z	24	main_z	111	stimuli_target_squaretriangles.svg	stimuli_distractor_trianglediamonds.svg	3	yes	44	1	791	6	1	antiphase_hc_iso.wav	2	6	5	noise_calib_stim_RIGHT.wav	2	6	blb_dichoticlistening_ba-ta.mp3	ba	ta	1	right
6.6.1	win	2023-06-26	22:46:39	22:58:26	702215	55d4c46f58c35800113dc131	2	1	main_z	24	advance_on_keypress_ZEE	112	stimuli_target_squaretriangles.svg	stimuli_distractor_trianglediamonds.svg	3	yes	57	0	422	6	1	antiphase_hc_iso.wav	2	6	5	noise_calib_stim_RIGHT.wav	2	6	blb_dichoticlistening_ba-ta.mp3	ba	ta	1	right
6.6.1	win	2023-06-26	22:46:39	22:58:28	704084	55d4c46f58c35800113dc131	2	1	main_z	24	main_z	113	stimuli_distractor_trianglediamonds.svg	stimuli_target_diamondsquares.svg	28	yes	44	1	819	6	1	antiphase_hc_iso.wav	2	6	5	noise_calib_stim_RIGHT.wav	2	6	blb_dichoticlistening_ba-ta.mp3	ba	ta	1	right
6.6.1	win	2023-06-26	22:46:39	22:58:28	704084	55d4c46f58c35800113dc131	2	1	main_z	24	advance_on_keypress_ZEE	114	stimuli_distractor_trianglediamonds.svg	stimuli_target_diamondsquares.svg	28	yes	57	0	360	6	1	antiphase_hc_iso.wav	2	6	5	noise_calib_stim_RIGHT.wav	2	6	blb_dichoticlistening_ba-ta.mp3	ba	ta	1	right
6.6.1	win	2023-06-26	22:46:39	22:58:29	705853	55d4c46f58c35800113dc131	2	1	main_z	24	main_z	115	stimuli_target_diamondrectangles.svg	stimuli_distractor_diamondtriangles.svg	23	yes	44	1	787	6	1	antiphase_hc_iso.wav	2	6	5	noise_calib_stim_RIGHT.wav	2	6	blb_dichoticlistening_ba-ta.mp3	ba	ta	1	right
6.6.1	win	2023-06-26	22:46:39	22:58:29	705853	55d4c46f58c35800113dc131	2	1	main_z	24	advance_on_keypress_ZEE	116	stimuli_target_diamondrectangles.svg	stimuli_distractor_diamondtriangles.svg	23	yes	57	0	417	6	1	antiphase_hc_iso.wav	2	6	5	noise_calib_stim_RIGHT.wav	2	6	blb_dichoticlistening_ba-ta.mp3	ba	ta	1	right
6.6.1	win	2023-06-26	22:46:39	22:58:31	707672	55d4c46f58c35800113dc131	2	1	main_z	24	main_z	117	stimuli_distractor_trianglediamonds.svg	stimuli_target_squaretriangles.svg	11	yes	44	1	781	6	1	antiphase_hc_iso.wav	2	6	5	noise_calib_stim_RIGHT.wav	2	6	blb_dichoticlistening_ba-ta.mp3	ba	ta	1	right
6.6.1	win	2023-06-26	22:46:39	22:58:31	707672	55d4c46f58c35800113dc131	2	1	main_z	24	advance_on_keypress_ZEE	118	stimuli_distractor_trianglediamonds.svg	stimuli_target_squaretriangles.svg	11	yes	57	0	356	6	1	antiphase_hc_iso.wav	2	6	5	noise_calib_stim_RIGHT.wav	2	6	blb_dichoticlistening_ba-ta.mp3	ba	ta	1	right
6.6.1	win	2023-06-26	22:46:39	22:58:33	709461	55d4c46f58c35800113dc131	2	1	main_z	24	main_z	119	stimuli_target_diamondsquares.svg	stimuli_distractor_trianglediamonds.svg	20	yes	44	1	804	6	1	antiphase_hc_iso.wav	2	6	5	noise_calib_stim_RIGHT.wav	2	6	blb_dichoticlistening_ba-ta.mp3	ba	ta	1	right
6.6.1	win	2023-06-26	22:46:39	22:58:33	709461	55d4c46f58c35800113dc131	2	1	main_z	24	advance_on_keypress_ZEE	120	stimuli_target_diamondsquares.svg	stimuli_distractor_trianglediamonds.svg	20	yes	57	0	321	6	1	antiphase_hc_iso.wav	2	6	5	noise_calib_stim_RIGHT.wav	2	6	blb_dichoticlistening_ba-ta.mp3	ba	ta	1	right
6.6.1	win	2023-06-26	22:46:39	22:58:35	711195	55d4c46f58c35800113dc131	2	1	main_z	24	main_z	121	stimuli_distractor_trianglediamonds.svg	stimuli_target_rectangletriangles.svg	9	yes	44	1	796	6	1	antiphase_hc_iso.wav	2	6	5	noise_calib_stim_RIGHT.wav	2	6	blb_dichoticlistening_ba-ta.mp3	ba	ta	1	right
6.6.1	win	2023-06-26	22:46:39	22:58:35	711195	55d4c46f58c35800113dc131	2	1	main_z	24	advance_on_keypress_ZEE	122	stimuli_distractor_trianglediamonds.svg	stimuli_target_rectangletriangles.svg	9	yes	57	0	332	6	1	antiphase_hc_iso.wav	2	6	5	noise_calib_stim_RIGHT.wav	2	6	blb_dichoticlistening_ba-ta.mp3	ba	ta	1	right
6.6.1	win	2023-06-26	22:46:39	22:58:37	713240	55d4c46f58c35800113dc131	2	1	main_z	24	main_z	123	stimuli_target_trianglerectangles.svg	stimuli_distractor_diamondtriangles.svg	21	yes	44	1	1092	6	1	antiphase_hc_iso.wav	2	6	5	noise_calib_stim_RIGHT.wav	2	6	blb_dichoticlistening_ba-ta.mp3	ba	ta	1	right
6.6.1	win	2023-06-26	22:46:39	22:58:37	713240	55d4c46f58c35800113dc131	2	1	main_z	24	advance_on_keypress_ZEE	124	stimuli_target_trianglerectangles.svg	stimuli_distractor_diamondtriangles.svg	21	yes	57	0	352	6	1	antiphase_hc_iso.wav	2	6	5	noise_calib_stim_RIGHT.wav	2	6	blb_dichoticlistening_ba-ta.mp3	ba	ta	1	right
6.6.1	win	2023-06-26	22:46:39	22:58:39	715019	55d4c46f58c35800113dc131	2	1	main_z	24	main_z	125	stimuli_distractor_trianglediamonds.svg	stimuli_target_trianglerectangles.svg	25	yes	44	1	804	6	1	antiphase_hc_iso.wav	2	6	5	noise_calib_stim_RIGHT.wav	2	6	blb_dichoticlistening_ba-ta.mp3	ba	ta	1	right
6.6.1	win	2023-06-26	22:46:39	22:58:39	715019	55d4c46f58c35800113dc131	2	1	main_z	24	advance_on_keypress_ZEE	126	stimuli_distractor_trianglediamonds.svg	stimuli_target_trianglerectangles.svg	25	yes	57	0	295	6	1	antiphase_hc_iso.wav	2	6	5	noise_calib_stim_RIGHT.wav	2	6	blb_dichoticlistening_ba-ta.mp3	ba	ta	1	right
6.6.1	win	2023-06-26	22:46:39	22:58:40	716718	55d4c46f58c35800113dc131	2	1	main_z	24	main_z	127	stimuli_target_squarediamonds.svg	stimuli_distractor_trianglediamonds.svg	4	yes	44	1	785	6	1	antiphase_hc_iso.wav	2	6	5	noise_calib_stim_RIGHT.wav	2	6	blb_dichoticlistening_ba-ta.mp3	ba	ta	1	right
6.6.1	win	2023-06-26	22:46:39	22:58:40	716718	55d4c46f58c35800113dc131	2	1	main_z	24	advance_on_keypress_ZEE	128	stimuli_target_squarediamonds.svg	stimuli_distractor_trianglediamonds.svg	4	yes	57	0	324	6	1	antiphase_hc_iso.wav	2	6	5	noise_calib_stim_RIGHT.wav	2	6	blb_dichoticlistening_ba-ta.mp3	ba	ta	1	right
6.6.1	win	2023-06-26	22:46:39	22:58:42	718532	55d4c46f58c35800113dc131	2	1	main_z	24	main_z	129	stimuli_target_rectangletriangles.svg	stimuli_distractor_diamondtriangles.svg	5	yes	44	1	866	6	1	antiphase_hc_iso.wav	2	6	5	noise_calib_stim_RIGHT.wav	2	6	blb_dichoticlistening_ba-ta.mp3	ba	ta	1	right
6.6.1	win	2023-06-26	22:46:39	22:58:42	718532	55d4c46f58c35800113dc131	2	1	main_z	24	advance_on_keypress_ZEE	130	stimuli_target_rectangletriangles.svg	stimuli_distractor_diamondtriangles.svg	5	yes	57	0	277	6	1	antiphase_hc_iso.wav	2	6	5	noise_calib_stim_RIGHT.wav	2	6	blb_dichoticlistening_ba-ta.mp3	ba	ta	1	right
6.6.1	win	2023-06-26	22:46:39	22:58:44	720221	55d4c46f58c35800113dc131	2	1	main_z	24	main_z	131	stimuli_target_rectanglediamonds.svg	stimuli_distractor_trianglediamonds.svg	2	yes	44	1	788	6	1	antiphase_hc_iso.wav	2	6	5	noise_calib_stim_RIGHT.wav	2	6	blb_dichoticlistening_ba-ta.mp3	ba	ta	1	right
6.6.1	win	2023-06-26	22:46:39	22:58:44	720221	55d4c46f58c35800113dc131	2	1	main_z	24	advance_on_keypress_ZEE	132	stimuli_target_rectanglediamonds.svg	stimuli_distractor_trianglediamonds.svg	2	yes	57	0	307	6	1	antiphase_hc_iso.wav	2	6	5	noise_calib_stim_RIGHT.wav	2	6	blb_dichoticlistening_ba-ta.mp3	ba	ta	1	right
6.6.1	win	2023-06-26	22:46:39	22:58:46	721895	55d4c46f58c35800113dc131	2	1	main_z	24	main_z	133	stimuli_target_rectanglediamonds.svg	stimuli_distractor_diamondtriangles.svg	6	yes	44	1	745	6	1	antiphase_hc_iso.wav	2	6	5	noise_calib_stim_RIGHT.wav	2	6	blb_dichoticlistening_ba-ta.mp3	ba	ta	1	right
6.6.1	win	2023-06-26	22:46:39	22:58:46	721895	55d4c46f58c35800113dc131	2	1	main_z	24	advance_on_keypress_ZEE	134	stimuli_target_rectanglediamonds.svg	stimuli_distractor_diamondtriangles.svg	6	yes	57	0	330	6	1	antiphase_hc_iso.wav	2	6	5	noise_calib_stim_RIGHT.wav	2	6	blb_dichoticlistening_ba-ta.mp3	ba	ta	1	right
6.6.1	win	2023-06-26	22:46:39	22:58:47	723634	55d4c46f58c35800113dc131	2	1	main_z	24	main_z	135	stimuli_distractor_diamondtriangles.svg	stimuli_target_trianglesquares.svg	30	yes	44	1	784	6	1	antiphase_hc_iso.wav	2	6	5	noise_calib_stim_RIGHT.wav	2	6	blb_dichoticlistening_ba-ta.mp3	ba	ta	1	right
6.6.1	win	2023-06-26	22:46:39	22:58:47	723634	55d4c46f58c35800113dc131	2	1	main_z	24	advance_on_keypress_ZEE	136	stimuli_distractor_diamondtriangles.svg	stimuli_target_trianglesquares.svg	30	yes	57	0	337	6	1	antiphase_hc_iso.wav	2	6	5	noise_calib_stim_RIGHT.wav	2	6	blb_dichoticlistening_ba-ta.mp3	ba	ta	1	right
6.6.1	win	2023-06-26	22:46:39	22:58:49	725483	55d4c46f58c35800113dc131	2	1	main_z	24	main_z	137	stimuli_target_squaretriangles.svg	stimuli_distractor_diamondtriangles.svg	7	yes	44	1	891	6	1	antiphase_hc_iso.wav	2	6	5	noise_calib_stim_RIGHT.wav	2	6	blb_dichoticlistening_ba-ta.mp3	ba	ta	1	right
6.6.1	win	2023-06-26	22:46:39	22:58:49	725483	55d4c46f58c35800113dc131	2	1	main_z	24	advance_on_keypress_ZEE	138	stimuli_target_squaretriangles.svg	stimuli_distractor_diamondtriangles.svg	7	yes	57	0	362	6	1	antiphase_hc_iso.wav	2	6	5	noise_calib_stim_RIGHT.wav	2	6	blb_dichoticlistening_ba-ta.mp3	ba	ta	1	right
6.6.1	win	2023-06-26	22:46:39	22:58:52	728467	55d4c46f58c35800113dc131	2	1	main_z	24	main_z	139	stimuli_distractor_diamondtriangles.svg	stimuli_distractor_trianglediamonds.svg	37	no	0	1	2000	6	1	antiphase_hc_iso.wav	2	6	5	noise_calib_stim_RIGHT.wav	2	6	blb_dichoticlistening_ba-ta.mp3	ba	ta	1	right
6.6.1	win	2023-06-26	22:46:39	22:58:52	728467	55d4c46f58c35800113dc131	2	1	main_z	24	advance_on_keypress_ZEE	140	stimuli_distractor_diamondtriangles.svg	stimuli_distractor_trianglediamonds.svg	37	no	57	0	416	6	1	antiphase_hc_iso.wav	2	6	5	noise_calib_stim_RIGHT.wav	2	6	blb_dichoticlistening_ba-ta.mp3	ba	ta	1	right
6.6.1	win	2023-06-26	22:46:39	22:58:55	731509	55d4c46f58c35800113dc131	2	1	main_z	24	main_z	141	stimuli_distractor_diamondtriangles.svg	stimuli_distractor_diamondtriangles.svg	39	no	0	1	2000	6	1	antiphase_hc_iso.wav	2	6	5	noise_calib_stim_RIGHT.wav	2	6	blb_dichoticlistening_ba-ta.mp3	ba	ta	1	right
6.6.1	win	2023-06-26	22:46:39	22:58:55	731509	55d4c46f58c35800113dc131	2	1	main_z	24	advance_on_keypress_ZEE	142	stimuli_distractor_diamondtriangles.svg	stimuli_distractor_diamondtriangles.svg	39	no	57	0	371	6	1	antiphase_hc_iso.wav	2	6	5	noise_calib_stim_RIGHT.wav	2	6	blb_dichoticlistening_ba-ta.mp3	ba	ta	1	right
6.6.1	win	2023-06-26	22:46:39	22:58:57	733256	55d4c46f58c35800113dc131	2	1	main_z	24	main_z	143	stimuli_distractor_diamondtriangles.svg	stimuli_target_squarediamonds.svg	16	yes	44	1	755	6	1	antiphase_hc_iso.wav	2	6	5	noise_calib_stim_RIGHT.wav	2	6	blb_dichoticlistening_ba-ta.mp3	ba	ta	1	right
6.6.1	win	2023-06-26	22:46:39	22:58:57	733256	55d4c46f58c35800113dc131	2	1	main_z	24	advance_on_keypress_ZEE	144	stimuli_distractor_diamondtriangles.svg	stimuli_target_squarediamonds.svg	16	yes	57	0	388	6	1	antiphase_hc_iso.wav	2	6	5	noise_calib_stim_RIGHT.wav	2	6	blb_dichoticlistening_ba-ta.mp3	ba	ta	1	right
6.6.1	win	2023-06-26	22:46:39	22:59:00	736260	55d4c46f58c35800113dc131	2	1	main_z	24	main_z	145	stimuli_distractor_diamondtriangles.svg	stimuli_distractor_trianglediamonds.svg	38	no	0	1	2000	6	1	antiphase_hc_iso.wav	2	6	5	noise_calib_stim_RIGHT.wav	2	6	blb_dichoticlistening_ba-ta.mp3	ba	ta	1	right
6.6.1	win	2023-06-26	22:46:39	22:59:00	736260	55d4c46f58c35800113dc131	2	1	main_z	24	advance_on_keypress_ZEE	146	stimuli_distractor_diamondtriangles.svg	stimuli_distractor_trianglediamonds.svg	38	no	57	0	382	6	1	antiphase_hc_iso.wav	2	6	5	noise_calib_stim_RIGHT.wav	2	6	blb_dichoticlistening_ba-ta.mp3	ba	ta	1	right
6.6.1	win	2023-06-26	22:46:39	22:59:02	738042	55d4c46f58c35800113dc131	2	1	main_z	24	main_z	147	stimuli_distractor_diamondtriangles.svg	stimuli_target_diamondrectangles.svg	31	yes	44	1	774	6	1	antiphase_hc_iso.wav	2	6	5	noise_calib_stim_RIGHT.wav	2	6	blb_dichoticlistening_ba-ta.mp3	ba	ta	1	right
6.6.1	win	2023-06-26	22:46:39	22:59:02	738042	55d4c46f58c35800113dc131	2	1	main_z	24	advance_on_keypress_ZEE	148	stimuli_distractor_diamondtriangles.svg	stimuli_target_diamondrectangles.svg	31	yes	57	0	372	6	1	antiphase_hc_iso.wav	2	6	5	noise_calib_stim_RIGHT.wav	2	6	blb_dichoticlistening_ba-ta.mp3	ba	ta	1	right
6.6.1	win	2023-06-26	22:46:39	22:59:03	739846	55d4c46f58c35800113dc131	2	1	main_z	24	main_z	149	stimuli_target_trianglerectangles.svg	stimuli_distractor_trianglediamonds.svg	17	yes	44	1	812	6	1	antiphase_hc_iso.wav	2	6	5	noise_calib_stim_RIGHT.wav	2	6	blb_dichoticlistening_ba-ta.mp3	ba	ta	1	right
6.6.1	win	2023-06-26	22:46:39	22:59:03	739846	55d4c46f58c35800113dc131	2	1	main_z	24	advance_on_keypress_ZEE	150	stimuli_target_trianglerectangles.svg	stimuli_distractor_trianglediamonds.svg	17	yes	57	0	332	6	1	antiphase_hc_iso.wav	2	6	5	noise_calib_stim_RIGHT.wav	2	6	blb_dichoticlistening_ba-ta.mp3	ba	ta	1	right
6.6.1	win	2023-06-26	22:46:39	22:59:05	741630	55d4c46f58c35800113dc131	2	1	main_z	24	main_z	151	stimuli_target_trianglesquares.svg	stimuli_distractor_trianglediamonds.svg	18	yes	44	1	829	6	1	antiphase_hc_iso.wav	2	6	5	noise_calib_stim_RIGHT.wav	2	6	blb_dichoticlistening_ba-ta.mp3	ba	ta	1	right
6.6.1	win	2023-06-26	22:46:39	22:59:05	741630	55d4c46f58c35800113dc131	2	1	main_z	24	advance_on_keypress_ZEE	152	stimuli_target_trianglesquares.svg	stimuli_distractor_trianglediamonds.svg	18	yes	57	0	326	6	1	antiphase_hc_iso.wav	2	6	5	noise_calib_stim_RIGHT.wav	2	6	blb_dichoticlistening_ba-ta.mp3	ba	ta	1	right
6.6.1	win	2023-06-26	22:46:39	22:59:08	744577	55d4c46f58c35800113dc131	2	1	main_z	24	main_z	153	stimuli_distractor_diamondtriangles.svg	stimuli_distractor_diamondtriangles.svg	40	no	0	1	2000	6	1	antiphase_hc_iso.wav	2	6	5	noise_calib_stim_RIGHT.wav	2	6	blb_dichoticlistening_ba-ta.mp3	ba	ta	1	right
6.6.1	win	2023-06-26	22:46:39	22:59:08	744577	55d4c46f58c35800113dc131	2	1	main_z	24	advance_on_keypress_ZEE	154	stimuli_distractor_diamondtriangles.svg	stimuli_distractor_diamondtriangles.svg	40	no	57	0	418	6	1	antiphase_hc_iso.wav	2	6	5	noise_calib_stim_RIGHT.wav	2	6	blb_dichoticlistening_ba-ta.mp3	ba	ta	1	right
6.6.1	win	2023-06-26	22:46:39	22:59:10	746401	55d4c46f58c35800113dc131	2	1	main_z	24	main_z	155	stimuli_distractor_trianglediamonds.svg	stimuli_target_squarediamonds.svg	12	yes	44	1	783	6	1	antiphase_hc_iso.wav	2	6	5	noise_calib_stim_RIGHT.wav	2	6	blb_dichoticlistening_ba-ta.mp3	ba	ta	1	right
6.6.1	win	2023-06-26	22:46:39	22:59:10	746401	55d4c46f58c35800113dc131	2	1	main_z	24	advance_on_keypress_ZEE	156	stimuli_distractor_trianglediamonds.svg	stimuli_target_squarediamonds.svg	12	yes	57	0	367	6	1	antiphase_hc_iso.wav	2	6	5	noise_calib_stim_RIGHT.wav	2	6	blb_dichoticlistening_ba-ta.mp3	ba	ta	1	right
6.6.1	win	2023-06-26	22:46:39	22:59:12	748265	55d4c46f58c35800113dc131	2	1	main_z	24	main_z	157	stimuli_target_squarediamonds.svg	stimuli_distractor_diamondtriangles.svg	8	yes	44	1	872	6	1	antiphase_hc_iso.wav	2	6	5	noise_calib_stim_RIGHT.wav	2	6	blb_dichoticlistening_ba-ta.mp3	ba	ta	1	right
6.6.1	win	2023-06-26	22:46:39	22:59:12	748265	55d4c46f58c35800113dc131	2	1	main_z	24	advance_on_keypress_ZEE	158	stimuli_target_squarediamonds.svg	stimuli_distractor_diamondtriangles.svg	8	yes	57	0	313	6	1	antiphase_hc_iso.wav	2	6	5	noise_calib_stim_RIGHT.wav	2	6	blb_dichoticlistening_ba-ta.mp3	ba	ta	1	right
6.6.1	win	2023-06-26	22:46:39	22:59:14	750094	55d4c46f58c35800113dc131	2	1	main_z	24	main_z	159	stimuli_target_rectangletriangles.svg	stimuli_distractor_trianglediamonds.svg	1	yes	44	1	901	6	1	antiphase_hc_iso.wav	2	6	5	noise_calib_stim_RIGHT.wav	2	6	blb_dichoticlistening_ba-ta.mp3	ba	ta	1	right
6.6.1	win	2023-06-26	22:46:39	22:59:14	750094	55d4c46f58c35800113dc131	2	1	main_z	24	advance_on_keypress_ZEE	160	stimuli_target_rectangletriangles.svg	stimuli_distractor_trianglediamonds.svg	1	yes	57	0	338	6	1	antiphase_hc_iso.wav	2	6	5	noise_calib_stim_RIGHT.wav	2	6	blb_dichoticlistening_ba-ta.mp3	ba	ta	1	right
6.6.1	win	2023-06-26	22:46:39	22:59:41	777604	55d4c46f58c35800113dc131	2	1	practice_slash	26	practice_slash	1	stimuli_distractor_trianglediamonds.svg	stimuli_distractor_diamondtriangles.svg	16	no	0	1	2000	6	1	antiphase_hc_iso.wav	2	6	5	noise_calib_stim_RIGHT.wav	2	6	blb_dichoticlistening_ba-ta.mp3	ba	ta	1	right
6.6.1	win	2023-06-26	22:46:39	22:59:41	777604	55d4c46f58c35800113dc131	2	1	practice_slash	26	advance_on_keypress_SLASH	2	stimuli_distractor_trianglediamonds.svg	stimuli_distractor_diamondtriangles.svg	16	no	57	0	406	6	1	antiphase_hc_iso.wav	2	6	5	noise_calib_stim_RIGHT.wav	2	6	blb_dichoticlistening_ba-ta.mp3	ba	ta	1	right
6.6.1	win	2023-06-26	22:46:39	22:59:44	780479	55d4c46f58c35800113dc131	2	1	practice_slash	26	practice_slash	3	stimuli_distractor_diamondtriangles.svg	stimuli_target_rectangletriangles.svg	7	yes	53	1	840	6	1	antiphase_hc_iso.wav	2	6	5	noise_calib_stim_RIGHT.wav	2	6	blb_dichoticlistening_ba-ta.mp3	ba	ta	1	right
6.6.1	win	2023-06-26	22:46:39	22:59:44	780479	55d4c46f58c35800113dc131	2	1	practice_slash	26	advance_on_keypress_SLASH	4	stimuli_distractor_diamondtriangles.svg	stimuli_target_rectangletriangles.svg	7	yes	57	0	989	6	1	antiphase_hc_iso.wav	2	6	5	noise_calib_stim_RIGHT.wav	2	6	blb_dichoticlistening_ba-ta.mp3	ba	ta	1	right
6.6.1	win	2023-06-26	22:46:39	22:59:48	784016	55d4c46f58c35800113dc131	2	1	practice_slash	26	practice_slash	5	stimuli_target_diamondsquares.svg	stimuli_distractor_trianglediamonds.svg	6	yes	53	1	920	6	1	antiphase_hc_iso.wav	2	6	5	noise_calib_stim_RIGHT.wav	2	6	blb_dichoticlistening_ba-ta.mp3	ba	ta	1	right
6.6.1	win	2023-06-26	22:46:39	22:59:48	784016	55d4c46f58c35800113dc131	2	1	practice_slash	26	advance_on_keypress_SLASH	6	stimuli_target_diamondsquares.svg	stimuli_distractor_trianglediamonds.svg	6	yes	57	0	1285	6	1	antiphase_hc_iso.wav	2	6	5	noise_calib_stim_RIGHT.wav	2	6	blb_dichoticlistening_ba-ta.mp3	ba	ta	1	right
6.6.1	win	2023-06-26	22:46:39	22:59:51	787724	55d4c46f58c35800113dc131	2	1	practice_slash	26	practice_slash	7	stimuli_distractor_trianglediamonds.svg	stimuli_target_squarediamonds.svg	11	yes	53	1	802	6	1	antiphase_hc_iso.wav	2	6	5	noise_calib_stim_RIGHT.wav	2	6	blb_dichoticlistening_ba-ta.mp3	ba	ta	1	right
6.6.1	win	2023-06-26	22:46:39	22:59:51	787724	55d4c46f58c35800113dc131	2	1	practice_slash	26	advance_on_keypress_SLASH	8	stimuli_distractor_trianglediamonds.svg	stimuli_target_squarediamonds.svg	11	yes	57	0	312	6	1	antiphase_hc_iso.wav	2	6	5	noise_calib_stim_RIGHT.wav	2	6	blb_dichoticlistening_ba-ta.mp3	ba	ta	1	right
6.6.1	win	2023-06-26	22:46:39	22:59:54	790496	55d4c46f58c35800113dc131	2	1	practice_slash	26	practice_slash	9	stimuli_target_diamondsquares.svg	stimuli_distractor_diamondtriangles.svg	3	yes	53	1	841	6	1	antiphase_hc_iso.wav	2	6	5	noise_calib_stim_RIGHT.wav	2	6	blb_dichoticlistening_ba-ta.mp3	ba	ta	1	right
6.6.1	win	2023-06-26	22:46:39	22:59:54	790496	55d4c46f58c35800113dc131	2	1	practice_slash	26	advance_on_keypress_SLASH	10	stimuli_target_diamondsquares.svg	stimuli_distractor_diamondtriangles.svg	3	yes	57	0	513	6	1	antiphase_hc_iso.wav	2	6	5	noise_calib_stim_RIGHT.wav	2	6	blb_dichoticlistening_ba-ta.mp3	ba	ta	1	right
6.6.1	win	2023-06-26	22:46:39	22:59:57	793458	55d4c46f58c35800113dc131	2	1	practice_slash	26	practice_slash	11	stimuli_distractor_diamondtriangles.svg	stimuli_target_diamondrectangles.svg	8	yes	53	1	818	6	1	antiphase_hc_iso.wav	2	6	5	noise_calib_stim_RIGHT.wav	2	6	blb_dichoticlistening_ba-ta.mp3	ba	ta	1	right
6.6.1	win	2023-06-26	22:46:39	22:59:57	793458	55d4c46f58c35800113dc131	2	1	practice_slash	26	advance_on_keypress_SLASH	12	stimuli_distractor_diamondtriangles.svg	stimuli_target_diamondrectangles.svg	8	yes	57	0	357	6	1	antiphase_hc_iso.wav	2	6	5	noise_calib_stim_RIGHT.wav	2	6	blb_dichoticlistening_ba-ta.mp3	ba	ta	1	right
6.6.1	win	2023-06-26	22:46:39	23:00:00	796184	55d4c46f58c35800113dc131	2	1	practice_slash	26	practice_slash	13	stimuli_target_squarediamonds.svg	stimuli_distractor_trianglediamonds.svg	5	yes	53	1	746	6	1	antiphase_hc_iso.wav	2	6	5	noise_calib_stim_RIGHT.wav	2	6	blb_dichoticlistening_ba-ta.mp3	ba	ta	1	right
6.6.1	win	2023-06-26	22:46:39	23:00:00	796184	55d4c46f58c35800113dc131	2	1	practice_slash	26	advance_on_keypress_SLASH	14	stimuli_target_squarediamonds.svg	stimuli_distractor_trianglediamonds.svg	5	yes	57	0	443	6	1	antiphase_hc_iso.wav	2	6	5	noise_calib_stim_RIGHT.wav	2	6	blb_dichoticlistening_ba-ta.mp3	ba	ta	1	right
6.6.1	win	2023-06-26	22:46:39	23:00:03	799075	55d4c46f58c35800113dc131	2	1	practice_slash	26	practice_slash	15	stimuli_distractor_trianglediamonds.svg	stimuli_target_diamondrectangles.svg	12	yes	53	1	827	6	1	antiphase_hc_iso.wav	2	6	5	noise_calib_stim_RIGHT.wav	2	6	blb_dichoticlistening_ba-ta.mp3	ba	ta	1	right
6.6.1	win	2023-06-26	22:46:39	23:00:03	799075	55d4c46f58c35800113dc131	2	1	practice_slash	26	advance_on_keypress_SLASH	16	stimuli_distractor_trianglediamonds.svg	stimuli_target_diamondrectangles.svg	12	yes	57	0	307	6	1	antiphase_hc_iso.wav	2	6	5	noise_calib_stim_RIGHT.wav	2	6	blb_dichoticlistening_ba-ta.mp3	ba	ta	1	right
6.6.1	win	2023-06-26	22:46:39	23:00:07	803006	55d4c46f58c35800113dc131	2	1	practice_slash	26	practice_slash	17	stimuli_distractor_diamondtriangles.svg	stimuli_distractor_diamondtriangles.svg	13	no	0	1	2000	6	1	antiphase_hc_iso.wav	2	6	5	noise_calib_stim_RIGHT.wav	2	6	blb_dichoticlistening_ba-ta.mp3	ba	ta	1	right
6.6.1	win	2023-06-26	22:46:39	23:00:07	803006	55d4c46f58c35800113dc131	2	1	practice_slash	26	advance_on_keypress_SLASH	18	stimuli_distractor_diamondtriangles.svg	stimuli_distractor_diamondtriangles.svg	13	no	57	0	262	6	1	antiphase_hc_iso.wav	2	6	5	noise_calib_stim_RIGHT.wav	2	6	blb_dichoticlistening_ba-ta.mp3	ba	ta	1	right
6.6.1	win	2023-06-26	22:46:39	23:00:09	805732	55d4c46f58c35800113dc131	2	1	practice_slash	26	practice_slash	19	stimuli_distractor_trianglediamonds.svg	stimuli_target_rectanglediamonds.svg	10	yes	53	1	841	6	1	antiphase_hc_iso.wav	2	6	5	noise_calib_stim_RIGHT.wav	2	6	blb_dichoticlistening_ba-ta.mp3	ba	ta	1	right
