build	computer.platform	date	time	timestamp	time_elapsed_ms	subject	group	session	blockcode	blocknum	trialcode	trialnum	stimulus_left	stimulus_right	stim_index	target_present	response	correct	latency	headphonecheck_countTestTrials	headphonecheck_index	headphonecheck_testSound	headphonecheck_correctResponse	stereocheck_countTestTrials	stereocheck_index	stereocheck_testSound	stereocheck_correctResponse	DL_index	DL_soundfile	DL_leftSound	DL_rightSound	DL_dualSound	DL_choice
6.6.1	win	2023-06-02	05:43:57	0	0	615fdfca4830432512527cf3	1	1	headphonecheck_calibration	4	headphonecheck_calibrationIntro	1			0		calibrationButton	0	2398	0	0			0	0			1				0	
6.6.1	win	2023-06-02	05:43:57	0	0	615fdfca4830432512527cf3	1	1	headphonecheck_testphase	5	test_collectResponse	3			0		second	1	1587	1	5	antiphase_hc_osi.wav	2	0	0			1				0	
6.6.1	win	2023-06-02	05:43:57	0	0	615fdfca4830432512527cf3	1	1	headphonecheck_testphase	5	test_collectResponse	6			0		first	1	299	2	4	antiphase_hc_sio.wav	1	0	0			1				0	
6.6.1	win	2023-06-02	05:43:57	0	0	615fdfca4830432512527cf3	1	1	headphonecheck_testphase	5	test_collectResponse	9			0		third	1	18	3	2	antiphase_hc_ios.wav	3	0	0			1				0	
6.6.1	win	2023-06-02	05:43:57	0	0	615fdfca4830432512527cf3	1	1	headphonecheck_testphase	5	test_collectResponse	12			0		second	1	5443	4	1	antiphase_hc_iso.wav	2	0	0			1				0	
6.6.1	win	2023-06-02	05:43:57	0	0	615fdfca4830432512527cf3	1	1	headphonecheck_testphase	5	test_collectResponse	15			0		first	1	1723	5	3	antiphase_hc_soi.wav	1	0	0			1				0	
6.6.1	win	2023-06-02	05:43:57	0	0	615fdfca4830432512527cf3	1	1	headphonecheck_testphase	5	test_collectResponse	18			0		third	1	455	6	6	antiphase_hc_ois.wav	3	0	0			1				0	
6.6.1	win	2023-06-02	05:43:57	0	0	615fdfca4830432512527cf3	1	1	stereocheck_calibration	7	stereocheck_calibrationIntro	1			0		stereocheck_calibrationButton	0	2813	6	6	antiphase_hc_ois.wav	3	0	0			1				0	
6.6.1	win	2023-06-02	05:43:57	0	0	615fdfca4830432512527cf3	1	1	stereocheck_testphase	8	stereocheck_test_collectResponse	3			0		stereocheck_right	1	1701	6	6	antiphase_hc_ois.wav	3	1	4	noise_calib_stim_RIGHT.wav	2	1				0	
6.6.1	win	2023-06-02	05:43:57	0	0	615fdfca4830432512527cf3	1	1	stereocheck_testphase	8	stereocheck_test_collectResponse	6			0		stereocheck_left	1	1917	6	6	antiphase_hc_ois.wav	3	2	2	noise_calib_stim_LEFT.wav	1	1				0	
6.6.1	win	2023-06-02	05:43:57	0	0	615fdfca4830432512527cf3	1	1	stereocheck_testphase	8	stereocheck_test_collectResponse	9			0		stereocheck_left	1	454	6	6	antiphase_hc_ois.wav	3	3	1	noise_calib_stim_LEFT.wav	1	1				0	
6.6.1	win	2023-06-02	05:43:57	0	0	615fdfca4830432512527cf3	1	1	stereocheck_testphase	8	stereocheck_test_collectResponse	12			0		stereocheck_right	1	867	6	6	antiphase_hc_ois.wav	3	4	6	noise_calib_stim_RIGHT.wav	2	1				0	
6.6.1	win	2023-06-02	05:43:57	0	0	615fdfca4830432512527cf3	1	1	stereocheck_testphase	8	stereocheck_test_collectResponse	15			0		stereocheck_right	1	399	6	6	antiphase_hc_ois.wav	3	5	5	noise_calib_stim_RIGHT.wav	2	1				0	
6.6.1	win	2023-06-02	05:43:57	0	0	615fdfca4830432512527cf3	1	1	stereocheck_testphase	8	stereocheck_test_collectResponse	18			0		stereocheck_left	1	193	6	6	antiphase_hc_ois.wav	3	6	3	noise_calib_stim_LEFT.wav	1	1				0	
6.6.1	win	2023-06-02	05:43:57	0	0	615fdfca4830432512527cf3	1	1	DL_practice	11	DL_practice	2			0		ka	1	1714	6	6	antiphase_hc_ois.wav	3	6	3	noise_calib_stim_LEFT.wav	1	23	blb_dichoticlistening_ka-pa.mp3	ka	pa	1	left
6.6.1	win	2023-06-02	05:43:57	0	0	615fdfca4830432512527cf3	1	1	DL_practice	11	DL_practice	3			0		da	0	1283	6	6	antiphase_hc_ois.wav	3	6	3	noise_calib_stim_LEFT.wav	1	18	blb_dichoticlistening_ga-ta.mp3	ga	ta	1	other
6.6.1	win	2023-06-02	05:43:57	0	0	615fdfca4830432512527cf3	1	1	DL_practice	11	DL_practice	4			0		ta	1	1724	6	6	antiphase_hc_ois.wav	3	6	3	noise_calib_stim_LEFT.wav	1	36	blb_dichoticlistening_ta-ta.mp3	ta	ta	0	left
6.6.1	win	2023-06-02	05:43:57	0	0	615fdfca4830432512527cf3	1	1	DL_practice	11	DL_practice	5			0		ga	1	951	6	6	antiphase_hc_ois.wav	3	6	3	noise_calib_stim_LEFT.wav	1	15	blb_dichoticlistening_ga-ga.mp3	ga	ga	0	left
6.6.1	win	2023-06-02	05:43:57	0	0	615fdfca4830432512527cf3	1	1	DL_practice	11	DL_practice	6			0		da	1	1051	6	6	antiphase_hc_ois.wav	3	6	3	noise_calib_stim_LEFT.wav	1	7	blb_dichoticlistening_da-ba.mp3	da	ba	1	left
6.6.1	win	2023-06-02	05:43:57	0	0	615fdfca4830432512527cf3	1	1	DL_practice	11	DL_practice	7			0		pa	0	1542	6	6	antiphase_hc_ois.wav	3	6	3	noise_calib_stim_LEFT.wav	1	1	blb_dichoticlistening_ba-ba.mp3	ba	ba	0	other
6.6.1	win	2023-06-02	05:43:57	0	0	615fdfca4830432512527cf3	1	1	DL_practice	11	DL_practice	8			0		ka	1	770	6	6	antiphase_hc_ois.wav	3	6	3	noise_calib_stim_LEFT.wav	1	22	blb_dichoticlistening_ka-ka.mp3	ka	ka	0	left
6.6.1	win	2023-06-02	05:43:57	0	0	615fdfca4830432512527cf3	1	1	DL_practice	11	DL_practice	9			0		pa	1	1431	6	6	antiphase_hc_ois.wav	3	6	3	noise_calib_stim_LEFT.wav	1	29	blb_dichoticlistening_pa-pa.mp3	pa	pa	0	left
6.6.1	win	2023-06-02	05:43:57	0	0	615fdfca4830432512527cf3	1	1	DL_practice	11	DL_practice	10			0		da	1	1216	6	6	antiphase_hc_ois.wav	3	6	3	noise_calib_stim_LEFT.wav	1	8	blb_dichoticlistening_da-da.mp3	da	da	0	left
6.6.1	win	2023-06-02	05:43:57	0	0	615fdfca4830432512527cf3	1	1	DL_test	13	DL_test	1			0		pa	1	1296	6	6	antiphase_hc_ois.wav	3	6	3	noise_calib_stim_LEFT.wav	1	26	blb_dichoticlistening_pa-da.mp3	pa	da	1	left
6.6.1	win	2023-06-02	05:43:57	0	0	615fdfca4830432512527cf3	1	1	DL_test	13	DL_test	2			0		ka	1	1072	6	6	antiphase_hc_ois.wav	3	6	3	noise_calib_stim_LEFT.wav	1	19	blb_dichoticlistening_ka-ba.mp3	ka	ba	1	left
6.6.1	win	2023-06-02	05:43:57	0	0	615fdfca4830432512527cf3	1	1	DL_test	13	DL_test	3			0		ga	1	1065	6	6	antiphase_hc_ois.wav	3	6	3	noise_calib_stim_LEFT.wav	1	33	blb_dichoticlistening_ta-ga.mp3	ta	ga	1	right
6.6.1	win	2023-06-02	05:43:57	0	0	615fdfca4830432512527cf3	1	1	DL_test	13	DL_test	4			0		ba	1	1624	6	6	antiphase_hc_ois.wav	3	6	3	noise_calib_stim_LEFT.wav	1	5	blb_dichoticlistening_ba-pa.mp3	ba	pa	1	left
6.6.1	win	2023-06-02	05:43:57	0	0	615fdfca4830432512527cf3	1	1	DL_test	13	DL_test	5			0		pa	1	1257	6	6	antiphase_hc_ois.wav	3	6	3	noise_calib_stim_LEFT.wav	1	28	blb_dichoticlistening_pa-ka.mp3	pa	ka	1	left
6.6.1	win	2023-06-02	05:43:57	0	0	615fdfca4830432512527cf3	1	1	DL_test	13	DL_test	6			0		pa	1	673	6	6	antiphase_hc_ois.wav	3	6	3	noise_calib_stim_LEFT.wav	1	29	blb_dichoticlistening_pa-pa.mp3	pa	pa	0	left
6.6.1	win	2023-06-02	05:43:57	0	0	615fdfca4830432512527cf3	1	1	DL_test	13	DL_test	7			0		pa	1	693	6	6	antiphase_hc_ois.wav	3	6	3	noise_calib_stim_LEFT.wav	1	25	blb_dichoticlistening_pa-ba.mp3	pa	ba	1	left
6.6.1	win	2023-06-02	05:43:57	0	0	615fdfca4830432512527cf3	1	1	DL_test	13	DL_test	8			0		ka	1	983	6	6	antiphase_hc_ois.wav	3	6	3	noise_calib_stim_LEFT.wav	1	34	blb_dichoticlistening_ta-ka.mp3	ta	ka	1	right
6.6.1	win	2023-06-02	05:43:57	0	0	615fdfca4830432512527cf3	1	1	DL_test	13	DL_test	9			0		ta	1	1333	6	6	antiphase_hc_ois.wav	3	6	3	noise_calib_stim_LEFT.wav	1	32	blb_dichoticlistening_ta-da.mp3	ta	da	1	left
6.6.1	win	2023-06-02	05:43:57	0	0	615fdfca4830432512527cf3	1	1	DL_test	13	DL_test	10			0		da	0	1263	6	6	antiphase_hc_ois.wav	3	6	3	noise_calib_stim_LEFT.wav	1	18	blb_dichoticlistening_ga-ta.mp3	ga	ta	1	other
6.6.1	win	2023-06-02	05:43:57	0	0	615fdfca4830432512527cf3	1	1	DL_test	13	DL_test	11			0		ga	1	968	6	6	antiphase_hc_ois.wav	3	6	3	noise_calib_stim_LEFT.wav	1	17	blb_dichoticlistening_ga-pa.mp3	ga	pa	1	left
6.6.1	win	2023-06-02	05:43:57	0	0	615fdfca4830432512527cf3	1	1	DL_test	13	DL_test	12			0		ka	1	2614	6	6	antiphase_hc_ois.wav	3	6	3	noise_calib_stim_LEFT.wav	1	20	blb_dichoticlistening_ka-da.mp3	ka	da	1	left
6.6.1	win	2023-06-02	05:43:57	0	0	615fdfca4830432512527cf3	1	1	DL_test	13	DL_test	13			0		ka	1	1378	6	6	antiphase_hc_ois.wav	3	6	3	noise_calib_stim_LEFT.wav	1	22	blb_dichoticlistening_ka-ka.mp3	ka	ka	0	left
6.6.1	win	2023-06-02	05:43:57	0	0	615fdfca4830432512527cf3	1	1	DL_test	13	DL_test	14			0		ga	1	1531	6	6	antiphase_hc_ois.wav	3	6	3	noise_calib_stim_LEFT.wav	1	15	blb_dichoticlistening_ga-ga.mp3	ga	ga	0	left
6.6.1	win	2023-06-02	05:43:57	0	0	615fdfca4830432512527cf3	1	1	DL_test	13	DL_test	15			0		ka	1	1529	6	6	antiphase_hc_ois.wav	3	6	3	noise_calib_stim_LEFT.wav	1	23	blb_dichoticlistening_ka-pa.mp3	ka	pa	1	left
6.6.1	win	2023-06-02	05:43:57	0	0	615fdfca4830432512527cf3	1	1	DL_test	13	DL_test	16			0		ka	0	1717	6	6	antiphase_hc_ois.wav	3	6	3	noise_calib_stim_LEFT.wav	1	31	blb_dichoticlistening_ta-ba.mp3	ta	ba	1	other
6.6.1	win	2023-06-02	05:43:57	0	0	615fdfca4830432512527cf3	1	1	DL_test	13	DL_test	17			0		ka	0	516	6	6	antiphase_hc_ois.wav	3	6	3	noise_calib_stim_LEFT.wav	1	30	blb_dichoticlistening_pa-ta.mp3	pa	ta	1	other
6.6.1	win	2023-06-02	05:43:57	0	0	615fdfca4830432512527cf3	1	1	DL_test	13	DL_test	18			0		ba	1	1824	6	6	antiphase_hc_ois.wav	3	6	3	noise_calib_stim_LEFT.wav	1	6	blb_dichoticlistening_ba-ta.mp3	ba	ta	1	left
6.6.1	win	2023-06-02	05:43:57	0	0	615fdfca4830432512527cf3	1	1	DL_test	13	DL_test	19			0		da	1	1231	6	6	antiphase_hc_ois.wav	3	6	3	noise_calib_stim_LEFT.wav	1	8	blb_dichoticlistening_da-da.mp3	da	da	0	left
6.6.1	win	2023-06-02	05:43:57	0	0	615fdfca4830432512527cf3	1	1	DL_test	13	DL_test	20			0		ga	1	1268	6	6	antiphase_hc_ois.wav	3	6	3	noise_calib_stim_LEFT.wav	1	9	blb_dichoticlistening_da-ga.mp3	da	ga	1	right
6.6.1	win	2023-06-02	05:43:57	0	0	615fdfca4830432512527cf3	1	1	DL_test	13	DL_test	21			0		ga	1	918	6	6	antiphase_hc_ois.wav	3	6	3	noise_calib_stim_LEFT.wav	1	16	blb_dichoticlistening_ga-ka.mp3	ga	ka	1	left
6.6.1	win	2023-06-02	05:43:57	0	0	615fdfca4830432512527cf3	1	1	DL_test	13	DL_test	22			0		ba	1	1614	6	6	antiphase_hc_ois.wav	3	6	3	noise_calib_stim_LEFT.wav	1	1	blb_dichoticlistening_ba-ba.mp3	ba	ba	0	left
6.6.1	win	2023-06-02	05:43:57	0	0	615fdfca4830432512527cf3	1	1	DL_test	13	DL_test	23			0		ta	1	1928	6	6	antiphase_hc_ois.wav	3	6	3	noise_calib_stim_LEFT.wav	1	35	blb_dichoticlistening_ta-pa.mp3	ta	pa	1	left
6.6.1	win	2023-06-02	05:43:57	0	0	615fdfca4830432512527cf3	1	1	DL_test	13	DL_test	24			0		da	1	1470	6	6	antiphase_hc_ois.wav	3	6	3	noise_calib_stim_LEFT.wav	1	10	blb_dichoticlistening_da-ka.mp3	da	ka	1	left
6.6.1	win	2023-06-02	05:43:57	0	0	615fdfca4830432512527cf3	1	1	DL_test	13	DL_test	25			0		ga	1	1135	6	6	antiphase_hc_ois.wav	3	6	3	noise_calib_stim_LEFT.wav	1	14	blb_dichoticlistening_ga-da.mp3	ga	da	1	left
6.6.1	win	2023-06-02	05:43:57	0	0	615fdfca4830432512527cf3	1	1	DL_test	13	DL_test	26			0		da	1	1196	6	6	antiphase_hc_ois.wav	3	6	3	noise_calib_stim_LEFT.wav	1	12	blb_dichoticlistening_da-ta.mp3	da	ta	1	left
6.6.1	win	2023-06-02	05:43:57	0	0	615fdfca4830432512527cf3	1	1	DL_test	13	DL_test	27			0		da	1	1540	6	6	antiphase_hc_ois.wav	3	6	3	noise_calib_stim_LEFT.wav	1	11	blb_dichoticlistening_da-pa.mp3	da	pa	1	left
6.6.1	win	2023-06-02	05:43:57	0	0	615fdfca4830432512527cf3	1	1	DL_test	13	DL_test	28			0		ta	1	1230	6	6	antiphase_hc_ois.wav	3	6	3	noise_calib_stim_LEFT.wav	1	36	blb_dichoticlistening_ta-ta.mp3	ta	ta	0	left
6.6.1	win	2023-06-02	05:43:57	0	0	615fdfca4830432512527cf3	1	1	DL_test	13	DL_test	29			0		ka	1	1201	6	6	antiphase_hc_ois.wav	3	6	3	noise_calib_stim_LEFT.wav	1	24	blb_dichoticlistening_ka-ta.mp3	ka	ta	1	left
6.6.1	win	2023-06-02	05:43:57	0	0	615fdfca4830432512527cf3	1	1	DL_test	13	DL_test	30			0		ba	1	1590	6	6	antiphase_hc_ois.wav	3	6	3	noise_calib_stim_LEFT.wav	1	4	blb_dichoticlistening_ba-ka.mp3	ba	ka	1	left
6.6.1	win	2023-06-02	05:43:57	0	0	615fdfca4830432512527cf3	1	1	DL_test	13	DL_test	31			0		ka	1	1930	6	6	antiphase_hc_ois.wav	3	6	3	noise_calib_stim_LEFT.wav	1	21	blb_dichoticlistening_ka-ga.mp3	ka	ga	1	left
6.6.1	win	2023-06-02	05:43:57	0	0	615fdfca4830432512527cf3	1	1	DL_test	13	DL_test	32			0		ga	1	1079	6	6	antiphase_hc_ois.wav	3	6	3	noise_calib_stim_LEFT.wav	1	13	blb_dichoticlistening_ga-ba.mp3	ga	ba	1	left
6.6.1	win	2023-06-02	05:43:57	0	0	615fdfca4830432512527cf3	1	1	DL_test	13	DL_test	33			0		pa	1	1276	6	6	antiphase_hc_ois.wav	3	6	3	noise_calib_stim_LEFT.wav	1	27	blb_dichoticlistening_pa-ga.mp3	pa	ga	1	left
6.6.1	win	2023-06-02	05:43:57	0	0	615fdfca4830432512527cf3	1	1	DL_test	13	DL_test	34			0		da	1	1414	6	6	antiphase_hc_ois.wav	3	6	3	noise_calib_stim_LEFT.wav	1	2	blb_dichoticlistening_ba-da.mp3	ba	da	1	right
6.6.1	win	2023-06-02	05:43:57	0	0	615fdfca4830432512527cf3	1	1	DL_test	13	DL_test	35			0		da	1	877	6	6	antiphase_hc_ois.wav	3	6	3	noise_calib_stim_LEFT.wav	1	7	blb_dichoticlistening_da-ba.mp3	da	ba	1	left
6.6.1	win	2023-06-02	05:43:57	0	0	615fdfca4830432512527cf3	1	1	DL_test	13	DL_test	36			0		ba	1	1741	6	6	antiphase_hc_ois.wav	3	6	3	noise_calib_stim_LEFT.wav	1	3	blb_dichoticlistening_ba-ga.mp3	ba	ga	1	left
6.6.1	win	2023-06-02	05:43:57	0	0	615fdfca4830432512527cf3	1	1	DL_test	14	DL_test	1			0		ka	1	1124	6	6	antiphase_hc_ois.wav	3	6	3	noise_calib_stim_LEFT.wav	1	21	blb_dichoticlistening_ka-ga.mp3	ka	ga	1	left
6.6.1	win	2023-06-02	05:43:57	0	0	615fdfca4830432512527cf3	1	1	DL_test	14	DL_test	2			0		ta	1	1181	6	6	antiphase_hc_ois.wav	3	6	3	noise_calib_stim_LEFT.wav	1	36	blb_dichoticlistening_ta-ta.mp3	ta	ta	0	left
6.6.1	win	2023-06-02	05:43:57	0	0	615fdfca4830432512527cf3	1	1	DL_test	14	DL_test	3			0		pa	1	1130	6	6	antiphase_hc_ois.wav	3	6	3	noise_calib_stim_LEFT.wav	1	28	blb_dichoticlistening_pa-ka.mp3	pa	ka	1	left
6.6.1	win	2023-06-02	05:43:57	0	0	615fdfca4830432512527cf3	1	1	DL_test	14	DL_test	4			0		ba	1	998	6	6	antiphase_hc_ois.wav	3	6	3	noise_calib_stim_LEFT.wav	1	2	blb_dichoticlistening_ba-da.mp3	ba	da	1	left
6.6.1	win	2023-06-02	05:43:57	0	0	615fdfca4830432512527cf3	1	1	DL_test	14	DL_test	5			0		ta	1	1342	6	6	antiphase_hc_ois.wav	3	6	3	noise_calib_stim_LEFT.wav	1	30	blb_dichoticlistening_pa-ta.mp3	pa	ta	1	right
6.6.1	win	2023-06-02	05:43:57	0	0	615fdfca4830432512527cf3	1	1	DL_test	14	DL_test	6			0		da	1	1172	6	6	antiphase_hc_ois.wav	3	6	3	noise_calib_stim_LEFT.wav	1	7	blb_dichoticlistening_da-ba.mp3	da	ba	1	left
6.6.1	win	2023-06-02	05:43:57	0	0	615fdfca4830432512527cf3	1	1	DL_test	14	DL_test	7			0		ga	1	865	6	6	antiphase_hc_ois.wav	3	6	3	noise_calib_stim_LEFT.wav	1	18	blb_dichoticlistening_ga-ta.mp3	ga	ta	1	left
6.6.1	win	2023-06-02	05:43:57	0	0	615fdfca4830432512527cf3	1	1	DL_test	14	DL_test	8			0		pa	1	1459	6	6	antiphase_hc_ois.wav	3	6	3	noise_calib_stim_LEFT.wav	1	29	blb_dichoticlistening_pa-pa.mp3	pa	pa	0	left
6.6.1	win	2023-06-02	05:43:57	0	0	615fdfca4830432512527cf3	1	1	DL_test	14	DL_test	9			0		ga	1	1216	6	6	antiphase_hc_ois.wav	3	6	3	noise_calib_stim_LEFT.wav	1	17	blb_dichoticlistening_ga-pa.mp3	ga	pa	1	left
6.6.1	win	2023-06-02	05:43:57	0	0	615fdfca4830432512527cf3	1	1	DL_test	14	DL_test	10			0		ka	1	694	6	6	antiphase_hc_ois.wav	3	6	3	noise_calib_stim_LEFT.wav	1	19	blb_dichoticlistening_ka-ba.mp3	ka	ba	1	left
6.6.1	win	2023-06-02	05:43:57	0	0	615fdfca4830432512527cf3	1	1	DL_test	14	DL_test	11			0		da	1	1616	6	6	antiphase_hc_ois.wav	3	6	3	noise_calib_stim_LEFT.wav	1	10	blb_dichoticlistening_da-ka.mp3	da	ka	1	left
6.6.1	win	2023-06-02	05:43:57	0	0	615fdfca4830432512527cf3	1	1	DL_test	14	DL_test	12			0		ba	1	1616	6	6	antiphase_hc_ois.wav	3	6	3	noise_calib_stim_LEFT.wav	1	3	blb_dichoticlistening_ba-ga.mp3	ba	ga	1	left
6.6.1	win	2023-06-02	05:43:57	0	0	615fdfca4830432512527cf3	1	1	DL_test	14	DL_test	13			0		ga	1	2005	6	6	antiphase_hc_ois.wav	3	6	3	noise_calib_stim_LEFT.wav	1	16	blb_dichoticlistening_ga-ka.mp3	ga	ka	1	left
6.6.1	win	2023-06-02	05:43:57	0	0	615fdfca4830432512527cf3	1	1	DL_test	14	DL_test	14			0		ba	1	1734	6	6	antiphase_hc_ois.wav	3	6	3	noise_calib_stim_LEFT.wav	1	6	blb_dichoticlistening_ba-ta.mp3	ba	ta	1	left
6.6.1	win	2023-06-02	05:43:57	0	0	615fdfca4830432512527cf3	1	1	DL_test	14	DL_test	15			0		ka	0	1611	6	6	antiphase_hc_ois.wav	3	6	3	noise_calib_stim_LEFT.wav	1	33	blb_dichoticlistening_ta-ga.mp3	ta	ga	1	other
6.6.1	win	2023-06-02	05:43:57	0	0	615fdfca4830432512527cf3	1	1	DL_test	14	DL_test	16			0		ta	1	1709	6	6	antiphase_hc_ois.wav	3	6	3	noise_calib_stim_LEFT.wav	1	35	blb_dichoticlistening_ta-pa.mp3	ta	pa	1	left
6.6.1	win	2023-06-02	05:43:57	0	0	615fdfca4830432512527cf3	1	1	DL_test	14	DL_test	17			0		ka	1	1340	6	6	antiphase_hc_ois.wav	3	6	3	noise_calib_stim_LEFT.wav	1	24	blb_dichoticlistening_ka-ta.mp3	ka	ta	1	left
6.6.1	win	2023-06-02	05:43:57	0	0	615fdfca4830432512527cf3	1	1	DL_test	14	DL_test	18			0		pa	1	1494	6	6	antiphase_hc_ois.wav	3	6	3	noise_calib_stim_LEFT.wav	1	26	blb_dichoticlistening_pa-da.mp3	pa	da	1	left
6.6.1	win	2023-06-02	05:43:57	0	0	615fdfca4830432512527cf3	1	1	DL_test	14	DL_test	19			0		ka	1	1110	6	6	antiphase_hc_ois.wav	3	6	3	noise_calib_stim_LEFT.wav	1	22	blb_dichoticlistening_ka-ka.mp3	ka	ka	0	left
6.6.1	win	2023-06-02	05:43:57	0	0	615fdfca4830432512527cf3	1	1	DL_test	14	DL_test	20			0		da	1	1769	6	6	antiphase_hc_ois.wav	3	6	3	noise_calib_stim_LEFT.wav	1	32	blb_dichoticlistening_ta-da.mp3	ta	da	1	right
6.6.1	win	2023-06-02	05:43:57	0	0	615fdfca4830432512527cf3	1	1	DL_test	14	DL_test	21			0		pa	1	1607	6	6	antiphase_hc_ois.wav	3	6	3	noise_calib_stim_LEFT.wav	1	5	blb_dichoticlistening_ba-pa.mp3	ba	pa	1	right
6.6.1	win	2023-06-02	05:43:57	0	0	615fdfca4830432512527cf3	1	1	DL_test	14	DL_test	22			0		ga	1	1337	6	6	antiphase_hc_ois.wav	3	6	3	noise_calib_stim_LEFT.wav	1	13	blb_dichoticlistening_ga-ba.mp3	ga	ba	1	left
6.6.1	win	2023-06-02	05:43:57	0	0	615fdfca4830432512527cf3	1	1	DL_test	14	DL_test	23			0		ga	1	1437	6	6	antiphase_hc_ois.wav	3	6	3	noise_calib_stim_LEFT.wav	1	9	blb_dichoticlistening_da-ga.mp3	da	ga	1	right
6.6.1	win	2023-06-02	05:43:57	0	0	615fdfca4830432512527cf3	1	1	DL_test	14	DL_test	24			0		ka	0	1195	6	6	antiphase_hc_ois.wav	3	6	3	noise_calib_stim_LEFT.wav	1	31	blb_dichoticlistening_ta-ba.mp3	ta	ba	1	other
6.6.1	win	2023-06-02	05:43:57	0	0	615fdfca4830432512527cf3	1	1	DL_test	14	DL_test	25			0		ka	1	1234	6	6	antiphase_hc_ois.wav	3	6	3	noise_calib_stim_LEFT.wav	1	20	blb_dichoticlistening_ka-da.mp3	ka	da	1	left
6.6.1	win	2023-06-02	05:43:57	0	0	615fdfca4830432512527cf3	1	1	DL_test	14	DL_test	26			0		da	1	1360	6	6	antiphase_hc_ois.wav	3	6	3	noise_calib_stim_LEFT.wav	1	8	blb_dichoticlistening_da-da.mp3	da	da	0	left
6.6.1	win	2023-06-02	05:43:57	0	0	615fdfca4830432512527cf3	1	1	DL_test	14	DL_test	27			0		ga	1	1086	6	6	antiphase_hc_ois.wav	3	6	3	noise_calib_stim_LEFT.wav	1	15	blb_dichoticlistening_ga-ga.mp3	ga	ga	0	left
6.6.1	win	2023-06-02	05:43:57	0	0	615fdfca4830432512527cf3	1	1	DL_test	14	DL_test	28			0		ba	1	1496	6	6	antiphase_hc_ois.wav	3	6	3	noise_calib_stim_LEFT.wav	1	4	blb_dichoticlistening_ba-ka.mp3	ba	ka	1	left
6.6.1	win	2023-06-02	05:43:57	0	0	615fdfca4830432512527cf3	1	1	DL_test	14	DL_test	29			0		pa	1	1173	6	6	antiphase_hc_ois.wav	3	6	3	noise_calib_stim_LEFT.wav	1	25	blb_dichoticlistening_pa-ba.mp3	pa	ba	1	left
6.6.1	win	2023-06-02	05:43:57	0	0	615fdfca4830432512527cf3	1	1	DL_test	14	DL_test	30			0		ga	1	1161	6	6	antiphase_hc_ois.wav	3	6	3	noise_calib_stim_LEFT.wav	1	14	blb_dichoticlistening_ga-da.mp3	ga	da	1	left
6.6.1	win	2023-06-02	05:43:57	0	0	615fdfca4830432512527cf3	1	1	DL_test	14	DL_test	31			0		ka	1	1199	6	6	antiphase_hc_ois.wav	3	6	3	noise_calib_stim_LEFT.wav	1	34	blb_dichoticlistening_ta-ka.mp3	ta	ka	1	right
6.6.1	win	2023-06-02	05:43:57	0	0	615fdfca4830432512527cf3	1	1	DL_test	14	DL_test	32			0		pa	1	1154	6	6	antiphase_hc_ois.wav	3	6	3	noise_calib_stim_LEFT.wav	1	27	blb_dichoticlistening_pa-ga.mp3	pa	ga	1	left
6.6.1	win	2023-06-02	05:43:57	0	0	615fdfca4830432512527cf3	1	1	DL_test	14	DL_test	33			0		ka	1	1554	6	6	antiphase_hc_ois.wav	3	6	3	noise_calib_stim_LEFT.wav	1	23	blb_dichoticlistening_ka-pa.mp3	ka	pa	1	left
6.6.1	win	2023-06-02	05:43:57	0	0	615fdfca4830432512527cf3	1	1	DL_test	14	DL_test	34			0		da	1	1628	6	6	antiphase_hc_ois.wav	3	6	3	noise_calib_stim_LEFT.wav	1	11	blb_dichoticlistening_da-pa.mp3	da	pa	1	left
6.6.1	win	2023-06-02	05:43:57	0	0	615fdfca4830432512527cf3	1	1	DL_test	14	DL_test	35			0		da	1	870	6	6	antiphase_hc_ois.wav	3	6	3	noise_calib_stim_LEFT.wav	1	12	blb_dichoticlistening_da-ta.mp3	da	ta	1	left
6.6.1	win	2023-06-02	05:43:57	0	0	615fdfca4830432512527cf3	1	1	DL_test	14	DL_test	36			0		pa	0	1284	6	6	antiphase_hc_ois.wav	3	6	3	noise_calib_stim_LEFT.wav	1	1	blb_dichoticlistening_ba-ba.mp3	ba	ba	0	other
6.6.1	win	2023-06-02	05:43:57	0	0	615fdfca4830432512527cf3	1	1	DL_test	15	DL_test	1			0		da	1	957	6	6	antiphase_hc_ois.wav	3	6	3	noise_calib_stim_LEFT.wav	1	8	blb_dichoticlistening_da-da.mp3	da	da	0	left
6.6.1	win	2023-06-02	05:43:57	0	0	615fdfca4830432512527cf3	1	1	DL_test	15	DL_test	2			0		ka	1	1121	6	6	antiphase_hc_ois.wav	3	6	3	noise_calib_stim_LEFT.wav	1	19	blb_dichoticlistening_ka-ba.mp3	ka	ba	1	left
6.6.1	win	2023-06-02	05:43:57	0	0	615fdfca4830432512527cf3	1	1	DL_test	15	DL_test	3			0		ga	0	1573	6	6	antiphase_hc_ois.wav	3	6	3	noise_calib_stim_LEFT.wav	1	26	blb_dichoticlistening_pa-da.mp3	pa	da	1	other
6.6.1	win	2023-06-02	05:43:57	0	0	615fdfca4830432512527cf3	1	1	DL_test	15	DL_test	4			0		da	1	1527	6	6	antiphase_hc_ois.wav	3	6	3	noise_calib_stim_LEFT.wav	1	10	blb_dichoticlistening_da-ka.mp3	da	ka	1	left
6.6.1	win	2023-06-02	05:43:57	0	0	615fdfca4830432512527cf3	1	1	DL_test	15	DL_test	5			0		da	1	797	6	6	antiphase_hc_ois.wav	3	6	3	noise_calib_stim_LEFT.wav	1	14	blb_dichoticlistening_ga-da.mp3	ga	da	1	right
6.6.1	win	2023-06-02	05:43:57	0	0	615fdfca4830432512527cf3	1	1	DL_test	15	DL_test	6			0		ta	1	1369	6	6	antiphase_hc_ois.wav	3	6	3	noise_calib_stim_LEFT.wav	1	36	blb_dichoticlistening_ta-ta.mp3	ta	ta	0	left
6.6.1	win	2023-06-02	05:43:57	0	0	615fdfca4830432512527cf3	1	1	DL_test	15	DL_test	7			0		pa	1	1620	6	6	antiphase_hc_ois.wav	3	6	3	noise_calib_stim_LEFT.wav	1	5	blb_dichoticlistening_ba-pa.mp3	ba	pa	1	right
6.6.1	win	2023-06-02	05:43:57	0	0	615fdfca4830432512527cf3	1	1	DL_test	15	DL_test	8			0		da	1	1375	6	6	antiphase_hc_ois.wav	3	6	3	noise_calib_stim_LEFT.wav	1	2	blb_dichoticlistening_ba-da.mp3	ba	da	1	right
6.6.1	win	2023-06-02	05:43:57	0	0	615fdfca4830432512527cf3	1	1	DL_test	15	DL_test	9			0		ka	1	937	6	6	antiphase_hc_ois.wav	3	6	3	noise_calib_stim_LEFT.wav	1	20	blb_dichoticlistening_ka-da.mp3	ka	da	1	left
6.6.1	win	2023-06-02	05:43:57	0	0	615fdfca4830432512527cf3	1	1	DL_test	15	DL_test	10			0		ka	1	555	6	6	antiphase_hc_ois.wav	3	6	3	noise_calib_stim_LEFT.wav	1	23	blb_dichoticlistening_ka-pa.mp3	ka	pa	1	left
6.6.1	win	2023-06-02	05:43:57	0	0	615fdfca4830432512527cf3	1	1	DL_test	15	DL_test	11			0		ka	0	812	6	6	antiphase_hc_ois.wav	3	6	3	noise_calib_stim_LEFT.wav	1	27	blb_dichoticlistening_pa-ga.mp3	pa	ga	1	other
6.6.1	win	2023-06-02	05:43:57	0	0	615fdfca4830432512527cf3	1	1	DL_test	15	DL_test	12			0		ka	1	767	6	6	antiphase_hc_ois.wav	3	6	3	noise_calib_stim_LEFT.wav	1	34	blb_dichoticlistening_ta-ka.mp3	ta	ka	1	right
6.6.1	win	2023-06-02	05:43:57	0	0	615fdfca4830432512527cf3	1	1	DL_test	15	DL_test	13			0		da	1	1057	6	6	antiphase_hc_ois.wav	3	6	3	noise_calib_stim_LEFT.wav	1	12	blb_dichoticlistening_da-ta.mp3	da	ta	1	left
6.6.1	win	2023-06-02	05:43:57	0	0	615fdfca4830432512527cf3	1	1	DL_test	15	DL_test	14			0		ka	1	965	6	6	antiphase_hc_ois.wav	3	6	3	noise_calib_stim_LEFT.wav	1	22	blb_dichoticlistening_ka-ka.mp3	ka	ka	0	left
6.6.1	win	2023-06-02	05:43:57	0	0	615fdfca4830432512527cf3	1	1	DL_test	15	DL_test	15			0		da	1	925	6	6	antiphase_hc_ois.wav	3	6	3	noise_calib_stim_LEFT.wav	1	9	blb_dichoticlistening_da-ga.mp3	da	ga	1	left
6.6.1	win	2023-06-02	05:43:57	0	0	615fdfca4830432512527cf3	1	1	DL_test	15	DL_test	16			0		ba	1	1361	6	6	antiphase_hc_ois.wav	3	6	3	noise_calib_stim_LEFT.wav	1	6	blb_dichoticlistening_ba-ta.mp3	ba	ta	1	left
6.6.1	win	2023-06-02	05:43:57	0	0	615fdfca4830432512527cf3	1	1	DL_test	15	DL_test	17			0		da	0	1338	6	6	antiphase_hc_ois.wav	3	6	3	noise_calib_stim_LEFT.wav	1	17	blb_dichoticlistening_ga-pa.mp3	ga	pa	1	other
6.6.1	win	2023-06-02	05:43:57	0	0	615fdfca4830432512527cf3	1	1	DL_test	15	DL_test	18			0		pa	1	1715	6	6	antiphase_hc_ois.wav	3	6	3	noise_calib_stim_LEFT.wav	1	11	blb_dichoticlistening_da-pa.mp3	da	pa	1	right
6.6.1	win	2023-06-02	05:43:57	0	0	615fdfca4830432512527cf3	1	1	DL_test	15	DL_test	19			0		ka	1	719	6	6	antiphase_hc_ois.wav	3	6	3	noise_calib_stim_LEFT.wav	1	28	blb_dichoticlistening_pa-ka.mp3	pa	ka	1	right
6.6.1	win	2023-06-02	05:43:57	0	0	615fdfca4830432512527cf3	1	1	DL_test	15	DL_test	20			0		ka	1	609	6	6	antiphase_hc_ois.wav	3	6	3	noise_calib_stim_LEFT.wav	1	4	blb_dichoticlistening_ba-ka.mp3	ba	ka	1	right
6.6.1	win	2023-06-02	05:43:57	0	0	615fdfca4830432512527cf3	1	1	DL_test	15	DL_test	21			0		pa	0	1450	6	6	antiphase_hc_ois.wav	3	6	3	noise_calib_stim_LEFT.wav	1	31	blb_dichoticlistening_ta-ba.mp3	ta	ba	1	other
6.6.1	win	2023-06-02	05:43:57	0	0	615fdfca4830432512527cf3	1	1	DL_test	15	DL_test	22			0		ga	1	1042	6	6	antiphase_hc_ois.wav	3	6	3	noise_calib_stim_LEFT.wav	1	3	blb_dichoticlistening_ba-ga.mp3	ba	ga	1	right
6.6.1	win	2023-06-02	05:43:57	0	0	615fdfca4830432512527cf3	1	1	DL_test	15	DL_test	23			0		pa	1	1375	6	6	antiphase_hc_ois.wav	3	6	3	noise_calib_stim_LEFT.wav	1	25	blb_dichoticlistening_pa-ba.mp3	pa	ba	1	left
6.6.1	win	2023-06-02	05:43:57	0	0	615fdfca4830432512527cf3	1	1	DL_test	15	DL_test	24			0		ba	1	1277	6	6	antiphase_hc_ois.wav	3	6	3	noise_calib_stim_LEFT.wav	1	1	blb_dichoticlistening_ba-ba.mp3	ba	ba	0	left
6.6.1	win	2023-06-02	05:43:57	0	0	615fdfca4830432512527cf3	1	1	DL_test	15	DL_test	25			0		ka	0	954	6	6	antiphase_hc_ois.wav	3	6	3	noise_calib_stim_LEFT.wav	1	32	blb_dichoticlistening_ta-da.mp3	ta	da	1	other
6.6.1	win	2023-06-02	05:43:57	0	0	615fdfca4830432512527cf3	1	1	DL_test	15	DL_test	26			0		ka	0	747	6	6	antiphase_hc_ois.wav	3	6	3	noise_calib_stim_LEFT.wav	1	35	blb_dichoticlistening_ta-pa.mp3	ta	pa	1	other
6.6.1	win	2023-06-02	05:43:57	0	0	615fdfca4830432512527cf3	1	1	DL_test	15	DL_test	27			0		pa	0	1162	6	6	antiphase_hc_ois.wav	3	6	3	noise_calib_stim_LEFT.wav	1	13	blb_dichoticlistening_ga-ba.mp3	ga	ba	1	other
6.6.1	win	2023-06-02	05:43:57	0	0	615fdfca4830432512527cf3	1	1	DL_test	15	DL_test	28			0		ga	1	1765	6	6	antiphase_hc_ois.wav	3	6	3	noise_calib_stim_LEFT.wav	1	18	blb_dichoticlistening_ga-ta.mp3	ga	ta	1	left
6.6.1	win	2023-06-02	05:43:57	0	0	615fdfca4830432512527cf3	1	1	DL_test	15	DL_test	29			0		ka	1	1495	6	6	antiphase_hc_ois.wav	3	6	3	noise_calib_stim_LEFT.wav	1	24	blb_dichoticlistening_ka-ta.mp3	ka	ta	1	left
6.6.1	win	2023-06-02	05:43:57	0	0	615fdfca4830432512527cf3	1	1	DL_test	15	DL_test	30			0		ga	1	1234	6	6	antiphase_hc_ois.wav	3	6	3	noise_calib_stim_LEFT.wav	1	16	blb_dichoticlistening_ga-ka.mp3	ga	ka	1	left
6.6.1	win	2023-06-02	05:43:57	0	0	615fdfca4830432512527cf3	1	1	DL_test	15	DL_test	31			0		ga	1	941	6	6	antiphase_hc_ois.wav	3	6	3	noise_calib_stim_LEFT.wav	1	15	blb_dichoticlistening_ga-ga.mp3	ga	ga	0	left
6.6.1	win	2023-06-02	05:43:57	0	0	615fdfca4830432512527cf3	1	1	DL_test	15	DL_test	32			0		pa	1	1103	6	6	antiphase_hc_ois.wav	3	6	3	noise_calib_stim_LEFT.wav	1	29	blb_dichoticlistening_pa-pa.mp3	pa	pa	0	left
6.6.1	win	2023-06-02	05:43:57	0	0	615fdfca4830432512527cf3	1	1	DL_test	15	DL_test	33			0		ga	1	1431	6	6	antiphase_hc_ois.wav	3	6	3	noise_calib_stim_LEFT.wav	1	33	blb_dichoticlistening_ta-ga.mp3	ta	ga	1	right
6.6.1	win	2023-06-02	05:43:57	0	0	615fdfca4830432512527cf3	1	1	DL_test	15	DL_test	34			0		ga	1	870	6	6	antiphase_hc_ois.wav	3	6	3	noise_calib_stim_LEFT.wav	1	21	blb_dichoticlistening_ka-ga.mp3	ka	ga	1	right
6.6.1	win	2023-06-02	05:43:57	0	0	615fdfca4830432512527cf3	1	1	DL_test	15	DL_test	35			0		pa	1	1396	6	6	antiphase_hc_ois.wav	3	6	3	noise_calib_stim_LEFT.wav	1	30	blb_dichoticlistening_pa-ta.mp3	pa	ta	1	left
6.6.1	win	2023-06-02	05:43:57	0	0	615fdfca4830432512527cf3	1	1	DL_test	15	DL_test	36			0		da	1	1374	6	6	antiphase_hc_ois.wav	3	6	3	noise_calib_stim_LEFT.wav	1	7	blb_dichoticlistening_da-ba.mp3	da	ba	1	left
6.6.1	win	2023-06-02	05:43:57	0	0	615fdfca4830432512527cf3	1	1	DL_test	16	DL_test	1			0		ga	1	1168	6	6	antiphase_hc_ois.wav	3	6	3	noise_calib_stim_LEFT.wav	1	15	blb_dichoticlistening_ga-ga.mp3	ga	ga	0	left
6.6.1	win	2023-06-02	05:43:57	0	0	615fdfca4830432512527cf3	1	1	DL_test	16	DL_test	2			0		pa	0	1602	6	6	antiphase_hc_ois.wav	3	6	3	noise_calib_stim_LEFT.wav	1	19	blb_dichoticlistening_ka-ba.mp3	ka	ba	1	other
6.6.1	win	2023-06-02	05:43:57	0	0	615fdfca4830432512527cf3	1	1	DL_test	16	DL_test	3			0		ka	0	1732	6	6	antiphase_hc_ois.wav	3	6	3	noise_calib_stim_LEFT.wav	1	17	blb_dichoticlistening_ga-pa.mp3	ga	pa	1	other
6.6.1	win	2023-06-02	05:43:57	0	0	615fdfca4830432512527cf3	1	1	DL_test	16	DL_test	4			0		pa	1	1122	6	6	antiphase_hc_ois.wav	3	6	3	noise_calib_stim_LEFT.wav	1	25	blb_dichoticlistening_pa-ba.mp3	pa	ba	1	left
6.6.1	win	2023-06-02	05:43:57	0	0	615fdfca4830432512527cf3	1	1	DL_test	16	DL_test	5			0		ga	1	937	6	6	antiphase_hc_ois.wav	3	6	3	noise_calib_stim_LEFT.wav	1	18	blb_dichoticlistening_ga-ta.mp3	ga	ta	1	left
6.6.1	win	2023-06-02	05:43:57	0	0	615fdfca4830432512527cf3	1	1	DL_test	16	DL_test	6			0		ka	0	925	6	6	antiphase_hc_ois.wav	3	6	3	noise_calib_stim_LEFT.wav	1	36	blb_dichoticlistening_ta-ta.mp3	ta	ta	0	other
6.6.1	win	2023-06-02	05:43:57	0	0	615fdfca4830432512527cf3	1	1	DL_test	16	DL_test	7			0		da	1	1279	6	6	antiphase_hc_ois.wav	3	6	3	noise_calib_stim_LEFT.wav	1	7	blb_dichoticlistening_da-ba.mp3	da	ba	1	left
6.6.1	win	2023-06-02	05:43:57	0	0	615fdfca4830432512527cf3	1	1	DL_test	16	DL_test	8			0		ka	1	943	6	6	antiphase_hc_ois.wav	3	6	3	noise_calib_stim_LEFT.wav	1	34	blb_dichoticlistening_ta-ka.mp3	ta	ka	1	right
6.6.1	win	2023-06-02	05:43:57	0	0	615fdfca4830432512527cf3	1	1	DL_test	16	DL_test	9			0		ga	1	1271	6	6	antiphase_hc_ois.wav	3	6	3	noise_calib_stim_LEFT.wav	1	14	blb_dichoticlistening_ga-da.mp3	ga	da	1	left
6.6.1	win	2023-06-02	05:43:57	0	0	615fdfca4830432512527cf3	1	1	DL_test	16	DL_test	10			0		ka	1	1242	6	6	antiphase_hc_ois.wav	3	6	3	noise_calib_stim_LEFT.wav	1	22	blb_dichoticlistening_ka-ka.mp3	ka	ka	0	left
6.6.1	win	2023-06-02	05:43:57	0	0	615fdfca4830432512527cf3	1	1	DL_test	16	DL_test	11			0		da	1	1062	6	6	antiphase_hc_ois.wav	3	6	3	noise_calib_stim_LEFT.wav	1	2	blb_dichoticlistening_ba-da.mp3	ba	da	1	right
6.6.1	win	2023-06-02	05:43:57	0	0	615fdfca4830432512527cf3	1	1	DL_test	16	DL_test	12			0		ta	1	1392	6	6	antiphase_hc_ois.wav	3	6	3	noise_calib_stim_LEFT.wav	1	32	blb_dichoticlistening_ta-da.mp3	ta	da	1	left
6.6.1	win	2023-06-02	05:43:57	0	0	615fdfca4830432512527cf3	1	1	DL_test	16	DL_test	13			0		ka	1	900	6	6	antiphase_hc_ois.wav	3	6	3	noise_calib_stim_LEFT.wav	1	23	blb_dichoticlistening_ka-pa.mp3	ka	pa	1	left
6.6.1	win	2023-06-02	05:43:57	0	0	615fdfca4830432512527cf3	1	1	DL_test	16	DL_test	14			0		ga	1	868	6	6	antiphase_hc_ois.wav	3	6	3	noise_calib_stim_LEFT.wav	1	13	blb_dichoticlistening_ga-ba.mp3	ga	ba	1	left
6.6.1	win	2023-06-02	05:43:57	0	0	615fdfca4830432512527cf3	1	1	DL_test	16	DL_test	15			0		pa	1	963	6	6	antiphase_hc_ois.wav	3	6	3	noise_calib_stim_LEFT.wav	1	30	blb_dichoticlistening_pa-ta.mp3	pa	ta	1	left
6.6.1	win	2023-06-02	05:43:57	0	0	615fdfca4830432512527cf3	1	1	DL_test	16	DL_test	16			0		ka	1	1250	6	6	antiphase_hc_ois.wav	3	6	3	noise_calib_stim_LEFT.wav	1	20	blb_dichoticlistening_ka-da.mp3	ka	da	1	left
6.6.1	win	2023-06-02	05:43:57	0	0	615fdfca4830432512527cf3	1	1	DL_test	16	DL_test	17			0		da	1	1464	6	6	antiphase_hc_ois.wav	3	6	3	noise_calib_stim_LEFT.wav	1	10	blb_dichoticlistening_da-ka.mp3	da	ka	1	left
6.6.1	win	2023-06-02	05:43:57	0	0	615fdfca4830432512527cf3	1	1	DL_test	16	DL_test	18			0		ba	1	1798	6	6	antiphase_hc_ois.wav	3	6	3	noise_calib_stim_LEFT.wav	1	31	blb_dichoticlistening_ta-ba.mp3	ta	ba	1	right
6.6.1	win	2023-06-02	05:43:57	0	0	615fdfca4830432512527cf3	1	1	DL_test	16	DL_test	19			0		ka	1	1317	6	6	antiphase_hc_ois.wav	3	6	3	noise_calib_stim_LEFT.wav	1	24	blb_dichoticlistening_ka-ta.mp3	ka	ta	1	left
6.6.1	win	2023-06-02	05:43:57	0	0	615fdfca4830432512527cf3	1	1	DL_test	16	DL_test	20			0		da	1	1047	6	6	antiphase_hc_ois.wav	3	6	3	noise_calib_stim_LEFT.wav	1	11	blb_dichoticlistening_da-pa.mp3	da	pa	1	left
6.6.1	win	2023-06-02	05:43:57	0	0	615fdfca4830432512527cf3	1	1	DL_test	16	DL_test	21			0		ta	1	1480	6	6	antiphase_hc_ois.wav	3	6	3	noise_calib_stim_LEFT.wav	1	35	blb_dichoticlistening_ta-pa.mp3	ta	pa	1	left
6.6.1	win	2023-06-02	05:43:57	0	0	615fdfca4830432512527cf3	1	1	DL_test	16	DL_test	22			0		ka	0	1832	6	6	antiphase_hc_ois.wav	3	6	3	noise_calib_stim_LEFT.wav	1	27	blb_dichoticlistening_pa-ga.mp3	pa	ga	1	other
6.6.1	win	2023-06-02	05:43:57	0	0	615fdfca4830432512527cf3	1	1	DL_test	16	DL_test	23			0		ba	1	1392	6	6	antiphase_hc_ois.wav	3	6	3	noise_calib_stim_LEFT.wav	1	1	blb_dichoticlistening_ba-ba.mp3	ba	ba	0	left
6.6.1	win	2023-06-02	05:43:57	0	0	615fdfca4830432512527cf3	1	1	DL_test	16	DL_test	24			0		pa	1	1367	6	6	antiphase_hc_ois.wav	3	6	3	noise_calib_stim_LEFT.wav	1	29	blb_dichoticlistening_pa-pa.mp3	pa	pa	0	left
6.6.1	win	2023-06-02	05:43:57	0	0	615fdfca4830432512527cf3	1	1	DL_test	16	DL_test	25			0		ga	1	897	6	6	antiphase_hc_ois.wav	3	6	3	noise_calib_stim_LEFT.wav	1	3	blb_dichoticlistening_ba-ga.mp3	ba	ga	1	right
6.6.1	win	2023-06-02	05:43:57	0	0	615fdfca4830432512527cf3	1	1	DL_test	16	DL_test	26			0		da	1	788	6	6	antiphase_hc_ois.wav	3	6	3	noise_calib_stim_LEFT.wav	1	8	blb_dichoticlistening_da-da.mp3	da	da	0	left
6.6.1	win	2023-06-02	05:43:57	0	0	615fdfca4830432512527cf3	1	1	DL_test	16	DL_test	27			0		pa	1	914	6	6	antiphase_hc_ois.wav	3	6	3	noise_calib_stim_LEFT.wav	1	5	blb_dichoticlistening_ba-pa.mp3	ba	pa	1	right
6.6.1	win	2023-06-02	05:43:57	0	0	615fdfca4830432512527cf3	1	1	DL_test	16	DL_test	28			0		da	1	962	6	6	antiphase_hc_ois.wav	3	6	3	noise_calib_stim_LEFT.wav	1	12	blb_dichoticlistening_da-ta.mp3	da	ta	1	left
6.6.1	win	2023-06-02	05:43:57	0	0	615fdfca4830432512527cf3	1	1	DL_test	16	DL_test	29			0		ka	1	826	6	6	antiphase_hc_ois.wav	3	6	3	noise_calib_stim_LEFT.wav	1	4	blb_dichoticlistening_ba-ka.mp3	ba	ka	1	right
6.6.1	win	2023-06-02	05:43:57	0	0	615fdfca4830432512527cf3	1	1	DL_test	16	DL_test	30			0		ga	1	764	6	6	antiphase_hc_ois.wav	3	6	3	noise_calib_stim_LEFT.wav	1	33	blb_dichoticlistening_ta-ga.mp3	ta	ga	1	right
6.6.1	win	2023-06-02	05:43:57	0	0	615fdfca4830432512527cf3	1	1	DL_test	16	DL_test	31			0		ga	1	2658	6	6	antiphase_hc_ois.wav	3	6	3	noise_calib_stim_LEFT.wav	1	9	blb_dichoticlistening_da-ga.mp3	da	ga	1	right
6.6.1	win	2023-06-02	05:43:57	0	0	615fdfca4830432512527cf3	1	1	DL_test	16	DL_test	32			0		ga	1	1598	6	6	antiphase_hc_ois.wav	3	6	3	noise_calib_stim_LEFT.wav	1	16	blb_dichoticlistening_ga-ka.mp3	ga	ka	1	left
6.6.1	win	2023-06-02	05:43:57	0	0	615fdfca4830432512527cf3	1	1	DL_test	16	DL_test	33			0		ka	1	1421	6	6	antiphase_hc_ois.wav	3	6	3	noise_calib_stim_LEFT.wav	1	21	blb_dichoticlistening_ka-ga.mp3	ka	ga	1	left
6.6.1	win	2023-06-02	05:43:57	0	0	615fdfca4830432512527cf3	1	1	DL_test	16	DL_test	34			0		pa	0	1350	6	6	antiphase_hc_ois.wav	3	6	3	noise_calib_stim_LEFT.wav	1	6	blb_dichoticlistening_ba-ta.mp3	ba	ta	1	other
6.6.1	win	2023-06-02	05:43:57	0	0	615fdfca4830432512527cf3	1	1	DL_test	16	DL_test	35			0		ka	1	907	6	6	antiphase_hc_ois.wav	3	6	3	noise_calib_stim_LEFT.wav	1	28	blb_dichoticlistening_pa-ka.mp3	pa	ka	1	right
6.6.1	win	2023-06-02	05:43:57	0	0	615fdfca4830432512527cf3	1	1	DL_test	16	DL_test	36			0		da	1	1885	6	6	antiphase_hc_ois.wav	3	6	3	noise_calib_stim_LEFT.wav	1	26	blb_dichoticlistening_pa-da.mp3	pa	da	1	right
6.6.1	win	2023-06-02	05:43:57	05:55:16	673659	615fdfca4830432512527cf3	1	1	practice_slash	22	practice_slash	1	stimuli_target_diamondsquares.svg	stimuli_distractor_trianglediamonds.svg	6	yes	53	1	1457	6	6	antiphase_hc_ois.wav	3	6	3	noise_calib_stim_LEFT.wav	1	26	blb_dichoticlistening_pa-da.mp3	pa	da	1	right
6.6.1	win	2023-06-02	05:43:57	05:55:16	673659	615fdfca4830432512527cf3	1	1	practice_slash	22	advance_on_keypress_SLASH	2	stimuli_target_diamondsquares.svg	stimuli_distractor_trianglediamonds.svg	6	yes	57	0	1346	6	6	antiphase_hc_ois.wav	3	6	3	noise_calib_stim_LEFT.wav	1	26	blb_dichoticlistening_pa-da.mp3	pa	da	1	right
6.6.1	win	2023-06-02	05:43:57	05:55:20	677162	615fdfca4830432512527cf3	1	1	practice_slash	22	practice_slash	3	stimuli_distractor_trianglediamonds.svg	stimuli_target_rectanglediamonds.svg	10	yes	53	1	492	6	6	antiphase_hc_ois.wav	3	6	3	noise_calib_stim_LEFT.wav	1	26	blb_dichoticlistening_pa-da.mp3	pa	da	1	right
6.6.1	win	2023-06-02	05:43:57	05:55:20	677162	615fdfca4830432512527cf3	1	1	practice_slash	22	advance_on_keypress_SLASH	4	stimuli_distractor_trianglediamonds.svg	stimuli_target_rectanglediamonds.svg	10	yes	57	0	1156	6	6	antiphase_hc_ois.wav	3	6	3	noise_calib_stim_LEFT.wav	1	26	blb_dichoticlistening_pa-da.mp3	pa	da	1	right
6.6.1	win	2023-06-02	05:43:57	05:55:25	681969	615fdfca4830432512527cf3	1	1	practice_slash	22	practice_slash	5	stimuli_target_diamondsquares.svg	stimuli_distractor_diamondtriangles.svg	3	yes	0	0	2000	6	6	antiphase_hc_ois.wav	3	6	3	noise_calib_stim_LEFT.wav	1	26	blb_dichoticlistening_pa-da.mp3	pa	da	1	right
6.6.1	win	2023-06-02	05:43:57	05:55:25	681969	615fdfca4830432512527cf3	1	1	practice_slash	22	advance_on_keypress_SLASH	6	stimuli_target_diamondsquares.svg	stimuli_distractor_diamondtriangles.svg	3	yes	57	0	1277	6	6	antiphase_hc_ois.wav	3	6	3	noise_calib_stim_LEFT.wav	1	26	blb_dichoticlistening_pa-da.mp3	pa	da	1	right
6.6.1	win	2023-06-02	05:43:57	05:55:30	686902	615fdfca4830432512527cf3	1	1	practice_slash	22	practice_slash	7	stimuli_distractor_trianglediamonds.svg	stimuli_distractor_trianglediamonds.svg	15	no	0	1	2000	6	6	antiphase_hc_ois.wav	3	6	3	noise_calib_stim_LEFT.wav	1	26	blb_dichoticlistening_pa-da.mp3	pa	da	1	right
6.6.1	win	2023-06-02	05:43:57	05:55:30	686902	615fdfca4830432512527cf3	1	1	practice_slash	22	advance_on_keypress_SLASH	8	stimuli_distractor_trianglediamonds.svg	stimuli_distractor_trianglediamonds.svg	15	no	57	0	446	6	6	antiphase_hc_ois.wav	3	6	3	noise_calib_stim_LEFT.wav	1	26	blb_dichoticlistening_pa-da.mp3	pa	da	1	right
6.6.1	win	2023-06-02	05:43:57	05:55:32	689443	615fdfca4830432512527cf3	1	1	practice_slash	22	practice_slash	9	stimuli_distractor_diamondtriangles.svg	stimuli_target_rectangletriangles.svg	7	yes	53	1	441	6	6	antiphase_hc_ois.wav	3	6	3	noise_calib_stim_LEFT.wav	1	26	blb_dichoticlistening_pa-da.mp3	pa	da	1	right
6.6.1	win	2023-06-02	05:43:57	05:55:32	689443	615fdfca4830432512527cf3	1	1	practice_slash	22	advance_on_keypress_SLASH	10	stimuli_distractor_diamondtriangles.svg	stimuli_target_rectangletriangles.svg	7	yes	57	0	654	6	6	antiphase_hc_ois.wav	3	6	3	noise_calib_stim_LEFT.wav	1	26	blb_dichoticlistening_pa-da.mp3	pa	da	1	right
6.6.1	win	2023-06-02	05:43:57	05:55:35	692122	615fdfca4830432512527cf3	1	1	practice_slash	22	practice_slash	11	stimuli_target_rectanglediamonds.svg	stimuli_distractor_trianglediamonds.svg	4	yes	53	1	386	6	6	antiphase_hc_ois.wav	3	6	3	noise_calib_stim_LEFT.wav	1	26	blb_dichoticlistening_pa-da.mp3	pa	da	1	right
6.6.1	win	2023-06-02	05:43:57	05:55:35	692122	615fdfca4830432512527cf3	1	1	practice_slash	22	advance_on_keypress_SLASH	12	stimuli_target_rectanglediamonds.svg	stimuli_distractor_trianglediamonds.svg	4	yes	57	0	2916	6	6	antiphase_hc_ois.wav	3	6	3	noise_calib_stim_LEFT.wav	1	26	blb_dichoticlistening_pa-da.mp3	pa	da	1	right
6.6.1	win	2023-06-02	05:43:57	05:55:40	697409	615fdfca4830432512527cf3	1	1	practice_slash	22	practice_slash	13	stimuli_distractor_trianglediamonds.svg	stimuli_target_squarediamonds.svg	11	yes	53	1	723	6	6	antiphase_hc_ois.wav	3	6	3	noise_calib_stim_LEFT.wav	1	26	blb_dichoticlistening_pa-da.mp3	pa	da	1	right
6.6.1	win	2023-06-02	05:43:57	05:55:40	697409	615fdfca4830432512527cf3	1	1	practice_slash	22	advance_on_keypress_SLASH	14	stimuli_distractor_trianglediamonds.svg	stimuli_target_squarediamonds.svg	11	yes	57	0	1123	6	6	antiphase_hc_ois.wav	3	6	3	noise_calib_stim_LEFT.wav	1	26	blb_dichoticlistening_pa-da.mp3	pa	da	1	right
6.6.1	win	2023-06-02	05:43:57	05:55:45	702169	615fdfca4830432512527cf3	1	1	practice_slash	22	practice_slash	15	stimuli_distractor_trianglediamonds.svg	stimuli_distractor_diamondtriangles.svg	16	no	0	1	2000	6	6	antiphase_hc_ois.wav	3	6	3	noise_calib_stim_LEFT.wav	1	26	blb_dichoticlistening_pa-da.mp3	pa	da	1	right
6.6.1	win	2023-06-02	05:43:57	05:55:45	702169	615fdfca4830432512527cf3	1	1	practice_slash	22	advance_on_keypress_SLASH	16	stimuli_distractor_trianglediamonds.svg	stimuli_distractor_diamondtriangles.svg	16	no	57	0	624	6	6	antiphase_hc_ois.wav	3	6	3	noise_calib_stim_LEFT.wav	1	26	blb_dichoticlistening_pa-da.mp3	pa	da	1	right
6.6.1	win	2023-06-02	05:43:57	05:55:48	704896	615fdfca4830432512527cf3	1	1	practice_slash	22	practice_slash	17	stimuli_target_squarediamonds.svg	stimuli_distractor_trianglediamonds.svg	5	yes	53	1	460	6	6	antiphase_hc_ois.wav	3	6	3	noise_calib_stim_LEFT.wav	1	26	blb_dichoticlistening_pa-da.mp3	pa	da	1	right
6.6.1	win	2023-06-02	05:43:57	05:55:48	704896	615fdfca4830432512527cf3	1	1	practice_slash	22	advance_on_keypress_SLASH	18	stimuli_target_squarediamonds.svg	stimuli_distractor_trianglediamonds.svg	5	yes	57	0	313	6	6	antiphase_hc_ois.wav	3	6	3	noise_calib_stim_LEFT.wav	1	26	blb_dichoticlistening_pa-da.mp3	pa	da	1	right
6.6.1	win	2023-06-02	05:43:57	05:55:53	707832	615fdfca4830432512527cf3	1	1	practice_slash	22	practice_slash	19	stimuli_distractor_diamondtriangles.svg	stimuli_target_diamondrectangles.svg	8	yes	53	1	962	6	6	antiphase_hc_ois.wav	3	6	3	noise_calib_stim_LEFT.wav	1	26	blb_dichoticlistening_pa-da.mp3	pa	da	1	right
6.6.1	win	2023-06-02	05:43:57	05:55:53	707832	615fdfca4830432512527cf3	1	1	practice_slash	22	advance_on_keypress_SLASH	20	stimuli_distractor_diamondtriangles.svg	stimuli_target_diamondrectangles.svg	8	yes	57	0	469	6	6	antiphase_hc_ois.wav	3	6	3	noise_calib_stim_LEFT.wav	1	26	blb_dichoticlistening_pa-da.mp3	pa	da	1	right
6.6.1	win	2023-06-02	05:43:57	05:55:57	711953	615fdfca4830432512527cf3	1	1	practice_slash	22	practice_slash	21	stimuli_distractor_diamondtriangles.svg	stimuli_distractor_diamondtriangles.svg	13	no	0	1	2000	6	6	antiphase_hc_ois.wav	3	6	3	noise_calib_stim_LEFT.wav	1	26	blb_dichoticlistening_pa-da.mp3	pa	da	1	right
6.6.1	win	2023-06-02	05:43:57	05:55:57	711953	615fdfca4830432512527cf3	1	1	practice_slash	22	advance_on_keypress_SLASH	22	stimuli_distractor_diamondtriangles.svg	stimuli_distractor_diamondtriangles.svg	13	no	57	0	788	6	6	antiphase_hc_ois.wav	3	6	3	noise_calib_stim_LEFT.wav	1	26	blb_dichoticlistening_pa-da.mp3	pa	da	1	right
6.6.1	win	2023-06-02	05:43:57	05:56:00	714816	615fdfca4830432512527cf3	1	1	practice_slash	22	practice_slash	23	stimuli_target_squarediamonds.svg	stimuli_distractor_diamondtriangles.svg	2	yes	53	1	430	6	6	antiphase_hc_ois.wav	3	6	3	noise_calib_stim_LEFT.wav	1	26	blb_dichoticlistening_pa-da.mp3	pa	da	1	right
6.6.1	win	2023-06-02	05:43:57	05:56:00	714816	615fdfca4830432512527cf3	1	1	practice_slash	22	advance_on_keypress_SLASH	24	stimuli_target_squarediamonds.svg	stimuli_distractor_diamondtriangles.svg	2	yes	57	0	2639	6	6	antiphase_hc_ois.wav	3	6	3	noise_calib_stim_LEFT.wav	1	26	blb_dichoticlistening_pa-da.mp3	pa	da	1	right
6.6.1	win	2023-06-02	05:43:57	05:56:05	719502	615fdfca4830432512527cf3	1	1	practice_slash	22	practice_slash	25	stimuli_target_rectanglediamonds.svg	stimuli_distractor_diamondtriangles.svg	1	yes	53	1	400	6	6	antiphase_hc_ois.wav	3	6	3	noise_calib_stim_LEFT.wav	1	26	blb_dichoticlistening_pa-da.mp3	pa	da	1	right
6.6.1	win	2023-06-02	05:43:57	05:56:05	719502	615fdfca4830432512527cf3	1	1	practice_slash	22	advance_on_keypress_SLASH	26	stimuli_target_rectanglediamonds.svg	stimuli_distractor_diamondtriangles.svg	1	yes	57	0	623	6	6	antiphase_hc_ois.wav	3	6	3	noise_calib_stim_LEFT.wav	1	26	blb_dichoticlistening_pa-da.mp3	pa	da	1	right
6.6.1	win	2023-06-02	05:43:57	05:56:07	722297	615fdfca4830432512527cf3	1	1	practice_slash	22	practice_slash	27	stimuli_distractor_trianglediamonds.svg	stimuli_target_diamondrectangles.svg	12	yes	53	1	528	6	6	antiphase_hc_ois.wav	3	6	3	noise_calib_stim_LEFT.wav	1	26	blb_dichoticlistening_pa-da.mp3	pa	da	1	right
6.6.1	win	2023-06-02	05:43:57	05:56:07	722297	615fdfca4830432512527cf3	1	1	practice_slash	22	advance_on_keypress_SLASH	28	stimuli_distractor_trianglediamonds.svg	stimuli_target_diamondrectangles.svg	12	yes	57	0	357	6	6	antiphase_hc_ois.wav	3	6	3	noise_calib_stim_LEFT.wav	1	26	blb_dichoticlistening_pa-da.mp3	pa	da	1	right
6.6.1	win	2023-06-02	05:43:57	05:56:10	724873	615fdfca4830432512527cf3	1	1	practice_slash	22	practice_slash	29	stimuli_distractor_diamondtriangles.svg	stimuli_target_trianglerectangles.svg	9	yes	53	1	554	6	6	antiphase_hc_ois.wav	3	6	3	noise_calib_stim_LEFT.wav	1	26	blb_dichoticlistening_pa-da.mp3	pa	da	1	right
6.6.1	win	2023-06-02	05:43:57	05:56:10	724873	615fdfca4830432512527cf3	1	1	practice_slash	22	advance_on_keypress_SLASH	30	stimuli_distractor_diamondtriangles.svg	stimuli_target_trianglerectangles.svg	9	yes	57	0	423	6	6	antiphase_hc_ois.wav	3	6	3	noise_calib_stim_LEFT.wav	1	26	blb_dichoticlistening_pa-da.mp3	pa	da	1	right
6.6.1	win	2023-06-02	05:43:57	05:56:13	728207	615fdfca4830432512527cf3	1	1	practice_slash	22	practice_slash	31	stimuli_distractor_diamondtriangles.svg	stimuli_distractor_trianglediamonds.svg	14	no	53	0	1271	6	6	antiphase_hc_ois.wav	3	6	3	noise_calib_stim_LEFT.wav	1	26	blb_dichoticlistening_pa-da.mp3	pa	da	1	right
6.6.1	win	2023-06-02	05:43:57	05:56:13	728207	615fdfca4830432512527cf3	1	1	practice_slash	22	advance_on_keypress_SLASH	32	stimuli_distractor_diamondtriangles.svg	stimuli_distractor_trianglediamonds.svg	14	no	57	0	598	6	6	antiphase_hc_ois.wav	3	6	3	noise_calib_stim_LEFT.wav	1	26	blb_dichoticlistening_pa-da.mp3	pa	da	1	right
6.6.1	win	2023-06-02	05:43:57	05:56:23	738147	615fdfca4830432512527cf3	1	1	main_slash	24	main_slash	1	stimuli_target_diamondsquares.svg	stimuli_distractor_diamondtriangles.svg	24	yes	53	1	480	6	6	antiphase_hc_ois.wav	3	6	3	noise_calib_stim_LEFT.wav	1	26	blb_dichoticlistening_pa-da.mp3	pa	da	1	right
6.6.1	win	2023-06-02	05:43:57	05:56:23	738147	615fdfca4830432512527cf3	1	1	main_slash	24	advance_on_keypress_SLASH	2	stimuli_target_diamondsquares.svg	stimuli_distractor_diamondtriangles.svg	24	yes	57	0	1262	6	6	antiphase_hc_ois.wav	3	6	3	noise_calib_stim_LEFT.wav	1	26	blb_dichoticlistening_pa-da.mp3	pa	da	1	right
6.6.1	win	2023-06-02	05:43:57	05:56:26	740554	615fdfca4830432512527cf3	1	1	main_slash	24	main_slash	3	stimuli_distractor_diamondtriangles.svg	stimuli_target_squaretriangles.svg	15	yes	53	1	486	6	6	antiphase_hc_ois.wav	3	6	3	noise_calib_stim_LEFT.wav	1	26	blb_dichoticlistening_pa-da.mp3	pa	da	1	right
6.6.1	win	2023-06-02	05:43:57	05:56:26	740554	615fdfca4830432512527cf3	1	1	main_slash	24	advance_on_keypress_SLASH	4	stimuli_distractor_diamondtriangles.svg	stimuli_target_squaretriangles.svg	15	yes	57	0	902	6	6	antiphase_hc_ois.wav	3	6	3	noise_calib_stim_LEFT.wav	1	26	blb_dichoticlistening_pa-da.mp3	pa	da	1	right
6.6.1	win	2023-06-02	05:43:57	05:56:28	742552	615fdfca4830432512527cf3	1	1	main_slash	24	main_slash	5	stimuli_target_rectangletriangles.svg	stimuli_distractor_diamondtriangles.svg	5	yes	53	1	451	6	6	antiphase_hc_ois.wav	3	6	3	noise_calib_stim_LEFT.wav	1	26	blb_dichoticlistening_pa-da.mp3	pa	da	1	right
6.6.1	win	2023-06-02	05:43:57	05:56:28	742552	615fdfca4830432512527cf3	1	1	main_slash	24	advance_on_keypress_SLASH	6	stimuli_target_rectangletriangles.svg	stimuli_distractor_diamondtriangles.svg	5	yes	57	0	647	6	6	antiphase_hc_ois.wav	3	6	3	noise_calib_stim_LEFT.wav	1	26	blb_dichoticlistening_pa-da.mp3	pa	da	1	right
6.6.1	win	2023-06-02	05:43:57	05:56:31	745851	615fdfca4830432512527cf3	1	1	main_slash	24	main_slash	7	stimuli_distractor_diamondtriangles.svg	stimuli_distractor_trianglediamonds.svg	37	no	0	1	2000	6	6	antiphase_hc_ois.wav	3	6	3	noise_calib_stim_LEFT.wav	1	26	blb_dichoticlistening_pa-da.mp3	pa	da	1	right
6.6.1	win	2023-06-02	05:43:57	05:56:31	745851	615fdfca4830432512527cf3	1	1	main_slash	24	advance_on_keypress_SLASH	8	stimuli_distractor_diamondtriangles.svg	stimuli_distractor_trianglediamonds.svg	37	no	57	0	700	6	6	antiphase_hc_ois.wav	3	6	3	noise_calib_stim_LEFT.wav	1	26	blb_dichoticlistening_pa-da.mp3	pa	da	1	right
6.6.1	win	2023-06-02	05:43:57	05:56:33	747679	615fdfca4830432512527cf3	1	1	main_slash	24	main_slash	9	stimuli_distractor_trianglediamonds.svg	stimuli_target_rectanglediamonds.svg	10	yes	53	1	478	6	6	antiphase_hc_ois.wav	3	6	3	noise_calib_stim_LEFT.wav	1	26	blb_dichoticlistening_pa-da.mp3	pa	da	1	right
6.6.1	win	2023-06-02	05:43:57	05:56:33	747679	615fdfca4830432512527cf3	1	1	main_slash	24	advance_on_keypress_SLASH	10	stimuli_distractor_trianglediamonds.svg	stimuli_target_rectanglediamonds.svg	10	yes	57	0	602	6	6	antiphase_hc_ois.wav	3	6	3	noise_calib_stim_LEFT.wav	1	26	blb_dichoticlistening_pa-da.mp3	pa	da	1	right
6.6.1	win	2023-06-02	05:43:57	05:56:35	749773	615fdfca4830432512527cf3	1	1	main_slash	24	main_slash	11	stimuli_distractor_diamondtriangles.svg	stimuli_distractor_diamondtriangles.svg	39	no	53	0	857	6	6	antiphase_hc_ois.wav	3	6	3	noise_calib_stim_LEFT.wav	1	26	blb_dichoticlistening_pa-da.mp3	pa	da	1	right
6.6.1	win	2023-06-02	05:43:57	05:56:35	749773	615fdfca4830432512527cf3	1	1	main_slash	24	advance_on_keypress_SLASH	12	stimuli_distractor_diamondtriangles.svg	stimuli_distractor_diamondtriangles.svg	39	no	57	0	500	6	6	antiphase_hc_ois.wav	3	6	3	noise_calib_stim_LEFT.wav	1	26	blb_dichoticlistening_pa-da.mp3	pa	da	1	right
6.6.1	win	2023-06-02	05:43:57	05:56:37	751540	615fdfca4830432512527cf3	1	1	main_slash	24	main_slash	13	stimuli_distractor_diamondtriangles.svg	stimuli_target_trianglerectangles.svg	29	yes	53	1	623	6	6	antiphase_hc_ois.wav	3	6	3	noise_calib_stim_LEFT.wav	1	26	blb_dichoticlistening_pa-da.mp3	pa	da	1	right
6.6.1	win	2023-06-02	05:43:57	05:56:37	751540	615fdfca4830432512527cf3	1	1	main_slash	24	advance_on_keypress_SLASH	14	stimuli_distractor_diamondtriangles.svg	stimuli_target_trianglerectangles.svg	29	yes	57	0	590	6	6	antiphase_hc_ois.wav	3	6	3	noise_calib_stim_LEFT.wav	1	26	blb_dichoticlistening_pa-da.mp3	pa	da	1	right
6.6.1	win	2023-06-02	05:43:57	05:56:39	753508	615fdfca4830432512527cf3	1	1	main_slash	24	main_slash	15	stimuli_distractor_trianglediamonds.svg	stimuli_target_diamondrectangles.svg	27	yes	53	1	741	6	6	antiphase_hc_ois.wav	3	6	3	noise_calib_stim_LEFT.wav	1	26	blb_dichoticlistening_pa-da.mp3	pa	da	1	right
6.6.1	win	2023-06-02	05:43:57	05:56:39	753508	615fdfca4830432512527cf3	1	1	main_slash	24	advance_on_keypress_SLASH	16	stimuli_distractor_trianglediamonds.svg	stimuli_target_diamondrectangles.svg	27	yes	57	0	655	6	6	antiphase_hc_ois.wav	3	6	3	noise_calib_stim_LEFT.wav	1	26	blb_dichoticlistening_pa-da.mp3	pa	da	1	right
6.6.1	win	2023-06-02	05:43:57	05:56:40	755290	615fdfca4830432512527cf3	1	1	main_slash	24	main_slash	17	stimuli_target_rectangletriangles.svg	stimuli_distractor_trianglediamonds.svg	1	yes	53	1	489	6	6	antiphase_hc_ois.wav	3	6	3	noise_calib_stim_LEFT.wav	1	26	blb_dichoticlistening_pa-da.mp3	pa	da	1	right
6.6.1	win	2023-06-02	05:43:57	05:56:40	755290	615fdfca4830432512527cf3	1	1	main_slash	24	advance_on_keypress_SLASH	18	stimuli_target_rectangletriangles.svg	stimuli_distractor_trianglediamonds.svg	1	yes	57	0	603	6	6	antiphase_hc_ois.wav	3	6	3	noise_calib_stim_LEFT.wav	1	26	blb_dichoticlistening_pa-da.mp3	pa	da	1	right
6.6.1	win	2023-06-02	05:43:57	05:56:43	757402	615fdfca4830432512527cf3	1	1	main_slash	24	main_slash	19	stimuli_target_diamondrectangles.svg	stimuli_distractor_diamondtriangles.svg	23	yes	53	1	868	6	6	antiphase_hc_ois.wav	3	6	3	noise_calib_stim_LEFT.wav	1	26	blb_dichoticlistening_pa-da.mp3	pa	da	1	right
6.6.1	win	2023-06-02	05:43:57	05:56:43	757402	615fdfca4830432512527cf3	1	1	main_slash	24	advance_on_keypress_SLASH	20	stimuli_target_diamondrectangles.svg	stimuli_distractor_diamondtriangles.svg	23	yes	57	0	489	6	6	antiphase_hc_ois.wav	3	6	3	noise_calib_stim_LEFT.wav	1	26	blb_dichoticlistening_pa-da.mp3	pa	da	1	right
6.6.1	win	2023-06-02	05:43:57	05:56:46	760534	615fdfca4830432512527cf3	1	1	main_slash	24	main_slash	21	stimuli_target_trianglerectangles.svg	stimuli_distractor_diamondtriangles.svg	21	yes	0	0	2000	6	6	antiphase_hc_ois.wav	3	6	3	noise_calib_stim_LEFT.wav	1	26	blb_dichoticlistening_pa-da.mp3	pa	da	1	right
6.6.1	win	2023-06-02	05:43:57	05:56:46	760534	615fdfca4830432512527cf3	1	1	main_slash	24	advance_on_keypress_SLASH	22	stimuli_target_trianglerectangles.svg	stimuli_distractor_diamondtriangles.svg	21	yes	57	0	627	6	6	antiphase_hc_ois.wav	3	6	3	noise_calib_stim_LEFT.wav	1	26	blb_dichoticlistening_pa-da.mp3	pa	da	1	right
6.6.1	win	2023-06-02	05:43:57	05:56:47	762186	615fdfca4830432512527cf3	1	1	main_slash	24	main_slash	23	stimuli_target_rectanglediamonds.svg	stimuli_distractor_trianglediamonds.svg	2	yes	53	1	385	6	6	antiphase_hc_ois.wav	3	6	3	noise_calib_stim_LEFT.wav	1	26	blb_dichoticlistening_pa-da.mp3	pa	da	1	right
6.6.1	win	2023-06-02	05:43:57	05:56:47	762186	615fdfca4830432512527cf3	1	1	main_slash	24	advance_on_keypress_SLASH	24	stimuli_target_rectanglediamonds.svg	stimuli_distractor_trianglediamonds.svg	2	yes	57	0	530	6	6	antiphase_hc_ois.wav	3	6	3	noise_calib_stim_LEFT.wav	1	26	blb_dichoticlistening_pa-da.mp3	pa	da	1	right
6.6.1	win	2023-06-02	05:43:57	05:56:49	763858	615fdfca4830432512527cf3	1	1	main_slash	24	main_slash	25	stimuli_distractor_diamondtriangles.svg	stimuli_target_squarediamonds.svg	16	yes	53	1	490	6	6	antiphase_hc_ois.wav	3	6	3	noise_calib_stim_LEFT.wav	1	26	blb_dichoticlistening_pa-da.mp3	pa	da	1	right
6.6.1	win	2023-06-02	05:43:57	05:56:49	763858	615fdfca4830432512527cf3	1	1	main_slash	24	advance_on_keypress_SLASH	26	stimuli_distractor_diamondtriangles.svg	stimuli_target_squarediamonds.svg	16	yes	57	0	509	6	6	antiphase_hc_ois.wav	3	6	3	noise_calib_stim_LEFT.wav	1	26	blb_dichoticlistening_pa-da.mp3	pa	da	1	right
6.6.1	win	2023-06-02	05:43:57	05:56:52	767001	615fdfca4830432512527cf3	1	1	main_slash	24	main_slash	27	stimuli_distractor_trianglediamonds.svg	stimuli_distractor_diamondtriangles.svg	35	no	0	1	2000	6	6	antiphase_hc_ois.wav	3	6	3	noise_calib_stim_LEFT.wav	1	26	blb_dichoticlistening_pa-da.mp3	pa	da	1	right
6.6.1	win	2023-06-02	05:43:57	05:56:52	767001	615fdfca4830432512527cf3	1	1	main_slash	24	advance_on_keypress_SLASH	28	stimuli_distractor_trianglediamonds.svg	stimuli_distractor_diamondtriangles.svg	35	no	57	0	301	6	6	antiphase_hc_ois.wav	3	6	3	noise_calib_stim_LEFT.wav	1	26	blb_dichoticlistening_pa-da.mp3	pa	da	1	right
6.6.1	win	2023-06-02	05:43:57	05:56:54	768747	615fdfca4830432512527cf3	1	1	main_slash	24	main_slash	29	stimuli_distractor_trianglediamonds.svg	stimuli_target_trianglerectangles.svg	25	yes	53	1	796	6	6	antiphase_hc_ois.wav	3	6	3	noise_calib_stim_LEFT.wav	1	26	blb_dichoticlistening_pa-da.mp3	pa	da	1	right
6.6.1	win	2023-06-02	05:43:57	05:56:54	768747	615fdfca4830432512527cf3	1	1	main_slash	24	advance_on_keypress_SLASH	30	stimuli_distractor_trianglediamonds.svg	stimuli_target_trianglerectangles.svg	25	yes	57	0	568	6	6	antiphase_hc_ois.wav	3	6	3	noise_calib_stim_LEFT.wav	1	26	blb_dichoticlistening_pa-da.mp3	pa	da	1	right
6.6.1	win	2023-06-02	05:43:57	05:56:56	770487	615fdfca4830432512527cf3	1	1	main_slash	24	main_slash	31	stimuli_target_squaretriangles.svg	stimuli_distractor_trianglediamonds.svg	3	yes	53	1	536	6	6	antiphase_hc_ois.wav	3	6	3	noise_calib_stim_LEFT.wav	1	26	blb_dichoticlistening_pa-da.mp3	pa	da	1	right
6.6.1	win	2023-06-02	05:43:57	05:56:56	770487	615fdfca4830432512527cf3	1	1	main_slash	24	advance_on_keypress_SLASH	32	stimuli_target_squaretriangles.svg	stimuli_distractor_trianglediamonds.svg	3	yes	57	0	502	6	6	antiphase_hc_ois.wav	3	6	3	noise_calib_stim_LEFT.wav	1	26	blb_dichoticlistening_pa-da.mp3	pa	da	1	right
6.6.1	win	2023-06-02	05:43:57	05:56:58	772334	615fdfca4830432512527cf3	1	1	main_slash	24	main_slash	33	stimuli_distractor_diamondtriangles.svg	stimuli_target_rectanglediamonds.svg	14	yes	53	1	700	6	6	antiphase_hc_ois.wav	3	6	3	noise_calib_stim_LEFT.wav	1	26	blb_dichoticlistening_pa-da.mp3	pa	da	1	right
6.6.1	win	2023-06-02	05:43:57	05:56:58	772334	615fdfca4830432512527cf3	1	1	main_slash	24	advance_on_keypress_SLASH	34	stimuli_distractor_diamondtriangles.svg	stimuli_target_rectanglediamonds.svg	14	yes	57	0	498	6	6	antiphase_hc_ois.wav	3	6	3	noise_calib_stim_LEFT.wav	1	26	blb_dichoticlistening_pa-da.mp3	pa	da	1	right
6.6.1	win	2023-06-02	05:43:57	05:56:59	774035	615fdfca4830432512527cf3	1	1	main_slash	24	main_slash	35	stimuli_target_diamondrectangles.svg	stimuli_distractor_trianglediamonds.svg	19	yes	53	1	551	6	6	antiphase_hc_ois.wav	3	6	3	noise_calib_stim_LEFT.wav	1	26	blb_dichoticlistening_pa-da.mp3	pa	da	1	right
6.6.1	win	2023-06-02	05:43:57	05:56:59	774035	615fdfca4830432512527cf3	1	1	main_slash	24	advance_on_keypress_SLASH	36	stimuli_target_diamondrectangles.svg	stimuli_distractor_trianglediamonds.svg	19	yes	57	0	574	6	6	antiphase_hc_ois.wav	3	6	3	noise_calib_stim_LEFT.wav	1	26	blb_dichoticlistening_pa-da.mp3	pa	da	1	right
6.6.1	win	2023-06-02	05:43:57	05:57:02	776423	615fdfca4830432512527cf3	1	1	main_slash	24	main_slash	37	stimuli_distractor_diamondtriangles.svg	stimuli_target_rectangletriangles.svg	13	yes	53	1	1172	6	6	antiphase_hc_ois.wav	3	6	3	noise_calib_stim_LEFT.wav	1	26	blb_dichoticlistening_pa-da.mp3	pa	da	1	right
6.6.1	win	2023-06-02	05:43:57	05:57:02	776423	615fdfca4830432512527cf3	1	1	main_slash	24	advance_on_keypress_SLASH	38	stimuli_distractor_diamondtriangles.svg	stimuli_target_rectangletriangles.svg	13	yes	57	0	595	6	6	antiphase_hc_ois.wav	3	6	3	noise_calib_stim_LEFT.wav	1	26	blb_dichoticlistening_pa-da.mp3	pa	da	1	right
6.6.1	win	2023-06-02	05:43:57	05:57:05	779651	615fdfca4830432512527cf3	1	1	main_slash	24	main_slash	39	stimuli_target_diamondsquares.svg	stimuli_distractor_trianglediamonds.svg	20	yes	0	0	2000	6	6	antiphase_hc_ois.wav	3	6	3	noise_calib_stim_LEFT.wav	1	26	blb_dichoticlistening_pa-da.mp3	pa	da	1	right
6.6.1	win	2023-06-02	05:43:57	05:57:05	779651	615fdfca4830432512527cf3	1	1	main_slash	24	advance_on_keypress_SLASH	40	stimuli_target_diamondsquares.svg	stimuli_distractor_trianglediamonds.svg	20	yes	57	0	301	6	6	antiphase_hc_ois.wav	3	6	3	noise_calib_stim_LEFT.wav	1	26	blb_dichoticlistening_pa-da.mp3	pa	da	1	right
6.6.1	win	2023-06-02	05:43:57	05:57:06	781293	615fdfca4830432512527cf3	1	1	main_slash	24	main_slash	41	stimuli_target_trianglesquares.svg	stimuli_distractor_diamondtriangles.svg	22	yes	53	1	692	6	6	antiphase_hc_ois.wav	3	6	3	noise_calib_stim_LEFT.wav	1	26	blb_dichoticlistening_pa-da.mp3	pa	da	1	right
6.6.1	win	2023-06-02	05:43:57	05:57:06	781293	615fdfca4830432512527cf3	1	1	main_slash	24	advance_on_keypress_SLASH	42	stimuli_target_trianglesquares.svg	stimuli_distractor_diamondtriangles.svg	22	yes	57	0	550	6	6	antiphase_hc_ois.wav	3	6	3	noise_calib_stim_LEFT.wav	1	26	blb_dichoticlistening_pa-da.mp3	pa	da	1	right
6.6.1	win	2023-06-02	05:43:57	05:57:10	784485	615fdfca4830432512527cf3	1	1	main_slash	24	main_slash	43	stimuli_distractor_diamondtriangles.svg	stimuli_distractor_diamondtriangles.svg	40	no	0	1	2000	6	6	antiphase_hc_ois.wav	3	6	3	noise_calib_stim_LEFT.wav	1	26	blb_dichoticlistening_pa-da.mp3	pa	da	1	right
6.6.1	win	2023-06-02	05:43:57	05:57:10	784485	615fdfca4830432512527cf3	1	1	main_slash	24	advance_on_keypress_SLASH	44	stimuli_distractor_diamondtriangles.svg	stimuli_distractor_diamondtriangles.svg	40	no	57	0	857	6	6	antiphase_hc_ois.wav	3	6	3	noise_calib_stim_LEFT.wav	1	26	blb_dichoticlistening_pa-da.mp3	pa	da	1	right
6.6.1	win	2023-06-02	05:43:57	05:57:12	786464	615fdfca4830432512527cf3	1	1	main_slash	24	main_slash	45	stimuli_target_trianglerectangles.svg	stimuli_distractor_trianglediamonds.svg	17	yes	53	1	479	6	6	antiphase_hc_ois.wav	3	6	3	noise_calib_stim_LEFT.wav	1	26	blb_dichoticlistening_pa-da.mp3	pa	da	1	right
6.6.1	win	2023-06-02	05:43:57	05:57:12	786464	615fdfca4830432512527cf3	1	1	main_slash	24	advance_on_keypress_SLASH	46	stimuli_target_trianglerectangles.svg	stimuli_distractor_trianglediamonds.svg	17	yes	57	0	660	6	6	antiphase_hc_ois.wav	3	6	3	noise_calib_stim_LEFT.wav	1	26	blb_dichoticlistening_pa-da.mp3	pa	da	1	right
6.6.1	win	2023-06-02	05:43:57	05:57:14	788762	615fdfca4830432512527cf3	1	1	main_slash	24	main_slash	47	stimuli_distractor_trianglediamonds.svg	stimuli_distractor_diamondtriangles.svg	36	no	53	0	994	6	6	antiphase_hc_ois.wav	3	6	3	noise_calib_stim_LEFT.wav	1	26	blb_dichoticlistening_pa-da.mp3	pa	da	1	right
6.6.1	win	2023-06-02	05:43:57	05:57:14	788762	615fdfca4830432512527cf3	1	1	main_slash	24	advance_on_keypress_SLASH	48	stimuli_distractor_trianglediamonds.svg	stimuli_distractor_diamondtriangles.svg	36	no	57	0	618	6	6	antiphase_hc_ois.wav	3	6	3	noise_calib_stim_LEFT.wav	1	26	blb_dichoticlistening_pa-da.mp3	pa	da	1	right
6.6.1	win	2023-06-02	05:43:57	05:57:16	790512	615fdfca4830432512527cf3	1	1	main_slash	24	main_slash	49	stimuli_target_squaretriangles.svg	stimuli_distractor_diamondtriangles.svg	7	yes	53	1	494	6	6	antiphase_hc_ois.wav	3	6	3	noise_calib_stim_LEFT.wav	1	26	blb_dichoticlistening_pa-da.mp3	pa	da	1	right
6.6.1	win	2023-06-02	05:43:57	05:57:16	790512	615fdfca4830432512527cf3	1	1	main_slash	24	advance_on_keypress_SLASH	50	stimuli_target_squaretriangles.svg	stimuli_distractor_diamondtriangles.svg	7	yes	57	0	535	6	6	antiphase_hc_ois.wav	3	6	3	noise_calib_stim_LEFT.wav	1	26	blb_dichoticlistening_pa-da.mp3	pa	da	1	right
6.6.1	win	2023-06-02	05:43:57	05:57:17	792190	615fdfca4830432512527cf3	1	1	main_slash	24	main_slash	51	stimuli_distractor_trianglediamonds.svg	stimuli_target_trianglesquares.svg	26	yes	53	1	503	6	6	antiphase_hc_ois.wav	3	6	3	noise_calib_stim_LEFT.wav	1	26	blb_dichoticlistening_pa-da.mp3	pa	da	1	right
6.6.1	win	2023-06-02	05:43:57	05:57:17	792190	615fdfca4830432512527cf3	1	1	main_slash	24	advance_on_keypress_SLASH	52	stimuli_distractor_trianglediamonds.svg	stimuli_target_trianglesquares.svg	26	yes	57	0	485	6	6	antiphase_hc_ois.wav	3	6	3	noise_calib_stim_LEFT.wav	1	26	blb_dichoticlistening_pa-da.mp3	pa	da	1	right
6.6.1	win	2023-06-02	05:43:57	05:57:19	793788	615fdfca4830432512527cf3	1	1	main_slash	24	main_slash	53	stimuli_distractor_diamondtriangles.svg	stimuli_target_trianglesquares.svg	30	yes	53	1	470	6	6	antiphase_hc_ois.wav	3	6	3	noise_calib_stim_LEFT.wav	1	26	blb_dichoticlistening_pa-da.mp3	pa	da	1	right
6.6.1	win	2023-06-02	05:43:57	05:57:19	793788	615fdfca4830432512527cf3	1	1	main_slash	24	advance_on_keypress_SLASH	54	stimuli_distractor_diamondtriangles.svg	stimuli_target_trianglesquares.svg	30	yes	57	0	615	6	6	antiphase_hc_ois.wav	3	6	3	noise_calib_stim_LEFT.wav	1	26	blb_dichoticlistening_pa-da.mp3	pa	da	1	right
6.6.1	win	2023-06-02	05:43:57	05:57:21	795992	615fdfca4830432512527cf3	1	1	main_slash	24	main_slash	55	stimuli_distractor_diamondtriangles.svg	stimuli_distractor_trianglediamonds.svg	38	no	53	0	940	6	6	antiphase_hc_ois.wav	3	6	3	noise_calib_stim_LEFT.wav	1	26	blb_dichoticlistening_pa-da.mp3	pa	da	1	right
6.6.1	win	2023-06-02	05:43:57	05:57:21	795992	615fdfca4830432512527cf3	1	1	main_slash	24	advance_on_keypress_SLASH	56	stimuli_distractor_diamondtriangles.svg	stimuli_distractor_trianglediamonds.svg	38	no	57	0	3748	6	6	antiphase_hc_ois.wav	3	6	3	noise_calib_stim_LEFT.wav	1	26	blb_dichoticlistening_pa-da.mp3	pa	da	1	right
6.6.1	win	2023-06-02	05:43:57	05:57:26	800815	615fdfca4830432512527cf3	1	1	main_slash	24	main_slash	57	stimuli_target_squarediamonds.svg	stimuli_distractor_trianglediamonds.svg	4	yes	53	1	430	6	6	antiphase_hc_ois.wav	3	6	3	noise_calib_stim_LEFT.wav	1	26	blb_dichoticlistening_pa-da.mp3	pa	da	1	right
6.6.1	win	2023-06-02	05:43:57	05:57:26	800815	615fdfca4830432512527cf3	1	1	main_slash	24	advance_on_keypress_SLASH	58	stimuli_target_squarediamonds.svg	stimuli_distractor_trianglediamonds.svg	4	yes	57	0	763	6	6	antiphase_hc_ois.wav	3	6	3	noise_calib_stim_LEFT.wav	1	26	blb_dichoticlistening_pa-da.mp3	pa	da	1	right
6.6.1	win	2023-06-02	05:43:57	05:57:28	802721	615fdfca4830432512527cf3	1	1	main_slash	24	main_slash	59	stimuli_distractor_trianglediamonds.svg	stimuli_target_diamondsquares.svg	28	yes	53	1	486	6	6	antiphase_hc_ois.wav	3	6	3	noise_calib_stim_LEFT.wav	1	26	blb_dichoticlistening_pa-da.mp3	pa	da	1	right
6.6.1	win	2023-06-02	05:43:57	05:57:28	802721	615fdfca4830432512527cf3	1	1	main_slash	24	advance_on_keypress_SLASH	60	stimuli_distractor_trianglediamonds.svg	stimuli_target_diamondsquares.svg	28	yes	57	0	512	6	6	antiphase_hc_ois.wav	3	6	3	noise_calib_stim_LEFT.wav	1	26	blb_dichoticlistening_pa-da.mp3	pa	da	1	right
6.6.1	win	2023-06-02	05:43:57	05:57:30	804464	615fdfca4830432512527cf3	1	1	main_slash	24	main_slash	61	stimuli_distractor_trianglediamonds.svg	stimuli_target_rectangletriangles.svg	9	yes	53	1	596	6	6	antiphase_hc_ois.wav	3	6	3	noise_calib_stim_LEFT.wav	1	26	blb_dichoticlistening_pa-da.mp3	pa	da	1	right
6.6.1	win	2023-06-02	05:43:57	05:57:30	804464	615fdfca4830432512527cf3	1	1	main_slash	24	advance_on_keypress_SLASH	62	stimuli_distractor_trianglediamonds.svg	stimuli_target_rectangletriangles.svg	9	yes	57	0	498	6	6	antiphase_hc_ois.wav	3	6	3	noise_calib_stim_LEFT.wav	1	26	blb_dichoticlistening_pa-da.mp3	pa	da	1	right
6.6.1	win	2023-06-02	05:43:57	05:57:31	806290	615fdfca4830432512527cf3	1	1	main_slash	24	main_slash	63	stimuli_distractor_trianglediamonds.svg	stimuli_target_squaretriangles.svg	11	yes	53	1	690	6	6	antiphase_hc_ois.wav	3	6	3	noise_calib_stim_LEFT.wav	1	26	blb_dichoticlistening_pa-da.mp3	pa	da	1	right
6.6.1	win	2023-06-02	05:43:57	05:57:31	806290	615fdfca4830432512527cf3	1	1	main_slash	24	advance_on_keypress_SLASH	64	stimuli_distractor_trianglediamonds.svg	stimuli_target_squaretriangles.svg	11	yes	57	0	486	6	6	antiphase_hc_ois.wav	3	6	3	noise_calib_stim_LEFT.wav	1	26	blb_dichoticlistening_pa-da.mp3	pa	da	1	right
6.6.1	win	2023-06-02	05:43:57	05:57:33	807959	615fdfca4830432512527cf3	1	1	main_slash	24	main_slash	65	stimuli_target_rectanglediamonds.svg	stimuli_distractor_diamondtriangles.svg	6	yes	53	1	542	6	6	antiphase_hc_ois.wav	3	6	3	noise_calib_stim_LEFT.wav	1	26	blb_dichoticlistening_pa-da.mp3	pa	da	1	right
6.6.1	win	2023-06-02	05:43:57	05:57:33	807959	615fdfca4830432512527cf3	1	1	main_slash	24	advance_on_keypress_SLASH	66	stimuli_target_rectanglediamonds.svg	stimuli_distractor_diamondtriangles.svg	6	yes	57	0	517	6	6	antiphase_hc_ois.wav	3	6	3	noise_calib_stim_LEFT.wav	1	26	blb_dichoticlistening_pa-da.mp3	pa	da	1	right
6.6.1	win	2023-06-02	05:43:57	05:57:35	809599	615fdfca4830432512527cf3	1	1	main_slash	24	main_slash	67	stimuli_distractor_diamondtriangles.svg	stimuli_target_diamondsquares.svg	32	yes	53	1	481	6	6	antiphase_hc_ois.wav	3	6	3	noise_calib_stim_LEFT.wav	1	26	blb_dichoticlistening_pa-da.mp3	pa	da	1	right
6.6.1	win	2023-06-02	05:43:57	05:57:35	809599	615fdfca4830432512527cf3	1	1	main_slash	24	advance_on_keypress_SLASH	68	stimuli_distractor_diamondtriangles.svg	stimuli_target_diamondsquares.svg	32	yes	57	0	510	6	6	antiphase_hc_ois.wav	3	6	3	noise_calib_stim_LEFT.wav	1	26	blb_dichoticlistening_pa-da.mp3	pa	da	1	right
6.6.1	win	2023-06-02	05:43:57	05:57:36	811224	615fdfca4830432512527cf3	1	1	main_slash	24	main_slash	69	stimuli_distractor_trianglediamonds.svg	stimuli_target_squarediamonds.svg	12	yes	53	1	473	6	6	antiphase_hc_ois.wav	3	6	3	noise_calib_stim_LEFT.wav	1	26	blb_dichoticlistening_pa-da.mp3	pa	da	1	right
6.6.1	win	2023-06-02	05:43:57	05:57:36	811224	615fdfca4830432512527cf3	1	1	main_slash	24	advance_on_keypress_SLASH	70	stimuli_distractor_trianglediamonds.svg	stimuli_target_squarediamonds.svg	12	yes	57	0	457	6	6	antiphase_hc_ois.wav	3	6	3	noise_calib_stim_LEFT.wav	1	26	blb_dichoticlistening_pa-da.mp3	pa	da	1	right
6.6.1	win	2023-06-02	05:43:57	05:57:39	813983	615fdfca4830432512527cf3	1	1	main_slash	24	main_slash	71	stimuli_target_trianglesquares.svg	stimuli_distractor_trianglediamonds.svg	18	yes	53	1	1666	6	6	antiphase_hc_ois.wav	3	6	3	noise_calib_stim_LEFT.wav	1	26	blb_dichoticlistening_pa-da.mp3	pa	da	1	right
6.6.1	win	2023-06-02	05:43:57	05:57:39	813983	615fdfca4830432512527cf3	1	1	main_slash	24	advance_on_keypress_SLASH	72	stimuli_target_trianglesquares.svg	stimuli_distractor_trianglediamonds.svg	18	yes	57	0	456	6	6	antiphase_hc_ois.wav	3	6	3	noise_calib_stim_LEFT.wav	1	26	blb_dichoticlistening_pa-da.mp3	pa	da	1	right
6.6.1	win	2023-06-02	05:43:57	05:57:42	817086	615fdfca4830432512527cf3	1	1	main_slash	24	main_slash	73	stimuli_distractor_trianglediamonds.svg	stimuli_distractor_trianglediamonds.svg	33	no	0	1	2000	6	6	antiphase_hc_ois.wav	3	6	3	noise_calib_stim_LEFT.wav	1	26	blb_dichoticlistening_pa-da.mp3	pa	da	1	right
6.6.1	win	2023-06-02	05:43:57	05:57:42	817086	615fdfca4830432512527cf3	1	1	main_slash	24	advance_on_keypress_SLASH	74	stimuli_distractor_trianglediamonds.svg	stimuli_distractor_trianglediamonds.svg	33	no	57	0	4682	6	6	antiphase_hc_ois.wav	3	6	3	noise_calib_stim_LEFT.wav	1	26	blb_dichoticlistening_pa-da.mp3	pa	da	1	right
6.6.1	win	2023-06-02	05:43:57	05:57:50	824419	615fdfca4830432512527cf3	1	1	main_slash	24	main_slash	75	stimuli_distractor_trianglediamonds.svg	stimuli_distractor_trianglediamonds.svg	34	no	0	1	2000	6	6	antiphase_hc_ois.wav	3	6	3	noise_calib_stim_LEFT.wav	1	26	blb_dichoticlistening_pa-da.mp3	pa	da	1	right
6.6.1	win	2023-06-02	05:43:57	05:57:50	824419	615fdfca4830432512527cf3	1	1	main_slash	24	advance_on_keypress_SLASH	76	stimuli_distractor_trianglediamonds.svg	stimuli_distractor_trianglediamonds.svg	34	no	57	0	1995	6	6	antiphase_hc_ois.wav	3	6	3	noise_calib_stim_LEFT.wav	1	26	blb_dichoticlistening_pa-da.mp3	pa	da	1	right
6.6.1	win	2023-06-02	05:43:57	05:57:53	827489	615fdfca4830432512527cf3	1	1	main_slash	24	main_slash	77	stimuli_target_squarediamonds.svg	stimuli_distractor_diamondtriangles.svg	8	yes	53	1	420	6	6	antiphase_hc_ois.wav	3	6	3	noise_calib_stim_LEFT.wav	1	26	blb_dichoticlistening_pa-da.mp3	pa	da	1	right
6.6.1	win	2023-06-02	05:43:57	05:57:53	827489	615fdfca4830432512527cf3	1	1	main_slash	24	advance_on_keypress_SLASH	78	stimuli_target_squarediamonds.svg	stimuli_distractor_diamondtriangles.svg	8	yes	57	0	477	6	6	antiphase_hc_ois.wav	3	6	3	noise_calib_stim_LEFT.wav	1	26	blb_dichoticlistening_pa-da.mp3	pa	da	1	right
6.6.1	win	2023-06-02	05:43:57	05:57:54	829199	615fdfca4830432512527cf3	1	1	main_slash	24	main_slash	79	stimuli_distractor_diamondtriangles.svg	stimuli_target_diamondrectangles.svg	31	yes	53	1	597	6	6	antiphase_hc_ois.wav	3	6	3	noise_calib_stim_LEFT.wav	1	26	blb_dichoticlistening_pa-da.mp3	pa	da	1	right
6.6.1	win	2023-06-02	05:43:57	05:57:54	829199	615fdfca4830432512527cf3	1	1	main_slash	24	advance_on_keypress_SLASH	80	stimuli_distractor_diamondtriangles.svg	stimuli_target_diamondrectangles.svg	31	yes	57	0	523	6	6	antiphase_hc_ois.wav	3	6	3	noise_calib_stim_LEFT.wav	1	26	blb_dichoticlistening_pa-da.mp3	pa	da	1	right
6.6.1	win	2023-06-02	05:43:57	05:57:56	830890	615fdfca4830432512527cf3	1	1	main_slash	24	main_slash	81	stimuli_distractor_diamondtriangles.svg	stimuli_target_squaretriangles.svg	15	yes	53	1	521	6	6	antiphase_hc_ois.wav	3	6	3	noise_calib_stim_LEFT.wav	1	26	blb_dichoticlistening_pa-da.mp3	pa	da	1	right
6.6.1	win	2023-06-02	05:43:57	05:57:56	830890	615fdfca4830432512527cf3	1	1	main_slash	24	advance_on_keypress_SLASH	82	stimuli_distractor_diamondtriangles.svg	stimuli_target_squaretriangles.svg	15	yes	57	0	538	6	6	antiphase_hc_ois.wav	3	6	3	noise_calib_stim_LEFT.wav	1	26	blb_dichoticlistening_pa-da.mp3	pa	da	1	right
6.6.1	win	2023-06-02	05:43:57	05:57:59	834069	615fdfca4830432512527cf3	1	1	main_slash	24	main_slash	83	stimuli_distractor_trianglediamonds.svg	stimuli_distractor_diamondtriangles.svg	35	no	0	1	2000	6	6	antiphase_hc_ois.wav	3	6	3	noise_calib_stim_LEFT.wav	1	26	blb_dichoticlistening_pa-da.mp3	pa	da	1	right
6.6.1	win	2023-06-02	05:43:57	05:57:59	834069	615fdfca4830432512527cf3	1	1	main_slash	24	advance_on_keypress_SLASH	84	stimuli_distractor_trianglediamonds.svg	stimuli_distractor_diamondtriangles.svg	35	no	57	0	291	6	6	antiphase_hc_ois.wav	3	6	3	noise_calib_stim_LEFT.wav	1	26	blb_dichoticlistening_pa-da.mp3	pa	da	1	right
6.6.1	win	2023-06-02	05:43:57	05:58:01	835432	615fdfca4830432512527cf3	1	1	main_slash	24	main_slash	85	stimuli_distractor_diamondtriangles.svg	stimuli_target_squarediamonds.svg	16	yes	53	1	430	6	6	antiphase_hc_ois.wav	3	6	3	noise_calib_stim_LEFT.wav	1	26	blb_dichoticlistening_pa-da.mp3	pa	da	1	right
6.6.1	win	2023-06-02	05:43:57	05:58:01	835432	615fdfca4830432512527cf3	1	1	main_slash	24	advance_on_keypress_SLASH	86	stimuli_distractor_diamondtriangles.svg	stimuli_target_squarediamonds.svg	16	yes	57	0	439	6	6	antiphase_hc_ois.wav	3	6	3	noise_calib_stim_LEFT.wav	1	26	blb_dichoticlistening_pa-da.mp3	pa	da	1	right
6.6.1	win	2023-06-02	05:43:57	05:58:03	837723	615fdfca4830432512527cf3	1	1	main_slash	24	main_slash	87	stimuli_distractor_trianglediamonds.svg	stimuli_target_rectangletriangles.svg	9	yes	53	1	1204	6	6	antiphase_hc_ois.wav	3	6	3	noise_calib_stim_LEFT.wav	1	26	blb_dichoticlistening_pa-da.mp3	pa	da	1	right
6.6.1	win	2023-06-02	05:43:57	05:58:03	837723	615fdfca4830432512527cf3	1	1	main_slash	24	advance_on_keypress_SLASH	88	stimuli_distractor_trianglediamonds.svg	stimuli_target_rectangletriangles.svg	9	yes	57	0	466	6	6	antiphase_hc_ois.wav	3	6	3	noise_calib_stim_LEFT.wav	1	26	blb_dichoticlistening_pa-da.mp3	pa	da	1	right
6.6.1	win	2023-06-02	05:43:57	05:58:04	839186	615fdfca4830432512527cf3	1	1	main_slash	24	main_slash	89	stimuli_distractor_trianglediamonds.svg	stimuli_target_squarediamonds.svg	12	yes	53	1	352	6	6	antiphase_hc_ois.wav	3	6	3	noise_calib_stim_LEFT.wav	1	26	blb_dichoticlistening_pa-da.mp3	pa	da	1	right
6.6.1	win	2023-06-02	05:43:57	05:58:04	839186	615fdfca4830432512527cf3	1	1	main_slash	24	advance_on_keypress_SLASH	90	stimuli_distractor_trianglediamonds.svg	stimuli_target_squarediamonds.svg	12	yes	57	0	435	6	6	antiphase_hc_ois.wav	3	6	3	noise_calib_stim_LEFT.wav	1	26	blb_dichoticlistening_pa-da.mp3	pa	da	1	right
6.6.1	win	2023-06-02	05:43:57	05:58:06	841062	615fdfca4830432512527cf3	1	1	main_slash	24	main_slash	91	stimuli_distractor_diamondtriangles.svg	stimuli_target_trianglesquares.svg	30	yes	53	1	793	6	6	antiphase_hc_ois.wav	3	6	3	noise_calib_stim_LEFT.wav	1	26	blb_dichoticlistening_pa-da.mp3	pa	da	1	right
6.6.1	win	2023-06-02	05:43:57	05:58:06	841062	615fdfca4830432512527cf3	1	1	main_slash	24	advance_on_keypress_SLASH	92	stimuli_distractor_diamondtriangles.svg	stimuli_target_trianglesquares.svg	30	yes	57	0	468	6	6	antiphase_hc_ois.wav	3	6	3	noise_calib_stim_LEFT.wav	1	26	blb_dichoticlistening_pa-da.mp3	pa	da	1	right
6.6.1	win	2023-06-02	05:43:57	05:58:09	844169	615fdfca4830432512527cf3	1	1	main_slash	24	main_slash	93	stimuli_distractor_trianglediamonds.svg	stimuli_target_diamondrectangles.svg	27	yes	0	0	2000	6	6	antiphase_hc_ois.wav	3	6	3	noise_calib_stim_LEFT.wav	1	26	blb_dichoticlistening_pa-da.mp3	pa	da	1	right
6.6.1	win	2023-06-02	05:43:57	05:58:09	844169	615fdfca4830432512527cf3	1	1	main_slash	24	advance_on_keypress_SLASH	94	stimuli_distractor_trianglediamonds.svg	stimuli_target_diamondrectangles.svg	27	yes	57	0	308	6	6	antiphase_hc_ois.wav	3	6	3	noise_calib_stim_LEFT.wav	1	26	blb_dichoticlistening_pa-da.mp3	pa	da	1	right
6.6.1	win	2023-06-02	05:43:57	05:58:11	845467	615fdfca4830432512527cf3	1	1	main_slash	24	main_slash	95	stimuli_distractor_trianglediamonds.svg	stimuli_target_trianglesquares.svg	26	yes	53	1	348	6	6	antiphase_hc_ois.wav	3	6	3	noise_calib_stim_LEFT.wav	1	26	blb_dichoticlistening_pa-da.mp3	pa	da	1	right
6.6.1	win	2023-06-02	05:43:57	05:58:11	845467	615fdfca4830432512527cf3	1	1	main_slash	24	advance_on_keypress_SLASH	96	stimuli_distractor_trianglediamonds.svg	stimuli_target_trianglesquares.svg	26	yes	57	0	547	6	6	antiphase_hc_ois.wav	3	6	3	noise_calib_stim_LEFT.wav	1	26	blb_dichoticlistening_pa-da.mp3	pa	da	1	right
6.6.1	win	2023-06-02	05:43:57	05:58:12	847050	615fdfca4830432512527cf3	1	1	main_slash	24	main_slash	97	stimuli_distractor_trianglediamonds.svg	stimuli_target_diamondsquares.svg	28	yes	53	1	382	6	6	antiphase_hc_ois.wav	3	6	3	noise_calib_stim_LEFT.wav	1	26	blb_dichoticlistening_pa-da.mp3	pa	da	1	right
6.6.1	win	2023-06-02	05:43:57	05:58:12	847050	615fdfca4830432512527cf3	1	1	main_slash	24	advance_on_keypress_SLASH	98	stimuli_distractor_trianglediamonds.svg	stimuli_target_diamondsquares.svg	28	yes	57	0	473	6	6	antiphase_hc_ois.wav	3	6	3	noise_calib_stim_LEFT.wav	1	26	blb_dichoticlistening_pa-da.mp3	pa	da	1	right
6.6.1	win	2023-06-02	05:43:57	05:58:15	850169	615fdfca4830432512527cf3	1	1	main_slash	24	main_slash	99	stimuli_distractor_trianglediamonds.svg	stimuli_distractor_diamondtriangles.svg	36	no	0	1	2000	6	6	antiphase_hc_ois.wav	3	6	3	noise_calib_stim_LEFT.wav	1	26	blb_dichoticlistening_pa-da.mp3	pa	da	1	right
6.6.1	win	2023-06-02	05:43:57	05:58:15	850169	615fdfca4830432512527cf3	1	1	main_slash	24	advance_on_keypress_SLASH	100	stimuli_distractor_trianglediamonds.svg	stimuli_distractor_diamondtriangles.svg	36	no	57	0	272	6	6	antiphase_hc_ois.wav	3	6	3	noise_calib_stim_LEFT.wav	1	26	blb_dichoticlistening_pa-da.mp3	pa	da	1	right
6.6.1	win	2023-06-02	05:43:57	05:58:17	851508	615fdfca4830432512527cf3	1	1	main_slash	24	main_slash	101	stimuli_target_squaretriangles.svg	stimuli_distractor_diamondtriangles.svg	7	yes	53	1	423	6	6	antiphase_hc_ois.wav	3	6	3	noise_calib_stim_LEFT.wav	1	26	blb_dichoticlistening_pa-da.mp3	pa	da	1	right
6.6.1	win	2023-06-02	05:43:57	05:58:17	851508	615fdfca4830432512527cf3	1	1	main_slash	24	advance_on_keypress_SLASH	102	stimuli_target_squaretriangles.svg	stimuli_distractor_diamondtriangles.svg	7	yes	57	0	451	6	6	antiphase_hc_ois.wav	3	6	3	noise_calib_stim_LEFT.wav	1	26	blb_dichoticlistening_pa-da.mp3	pa	da	1	right
6.6.1	win	2023-06-02	05:43:57	05:58:20	854602	615fdfca4830432512527cf3	1	1	main_slash	24	main_slash	103	stimuli_distractor_diamondtriangles.svg	stimuli_distractor_trianglediamonds.svg	37	no	0	1	2000	6	6	antiphase_hc_ois.wav	3	6	3	noise_calib_stim_LEFT.wav	1	26	blb_dichoticlistening_pa-da.mp3	pa	da	1	right
6.6.1	win	2023-06-02	05:43:57	05:58:20	854602	615fdfca4830432512527cf3	1	1	main_slash	24	advance_on_keypress_SLASH	104	stimuli_distractor_diamondtriangles.svg	stimuli_distractor_trianglediamonds.svg	37	no	57	0	283	6	6	antiphase_hc_ois.wav	3	6	3	noise_calib_stim_LEFT.wav	1	26	blb_dichoticlistening_pa-da.mp3	pa	da	1	right
6.6.1	win	2023-06-02	05:43:57	05:58:23	857535	615fdfca4830432512527cf3	1	1	main_slash	24	main_slash	105	stimuli_target_trianglerectangles.svg	stimuli_distractor_trianglediamonds.svg	17	yes	0	0	2000	6	6	antiphase_hc_ois.wav	3	6	3	noise_calib_stim_LEFT.wav	1	26	blb_dichoticlistening_pa-da.mp3	pa	da	1	right
6.6.1	win	2023-06-02	05:43:57	05:58:23	857535	615fdfca4830432512527cf3	1	1	main_slash	24	advance_on_keypress_SLASH	106	stimuli_target_trianglerectangles.svg	stimuli_distractor_trianglediamonds.svg	17	yes	57	0	286	6	6	antiphase_hc_ois.wav	3	6	3	noise_calib_stim_LEFT.wav	1	26	blb_dichoticlistening_pa-da.mp3	pa	da	1	right
6.6.1	win	2023-06-02	05:43:57	05:58:24	859197	615fdfca4830432512527cf3	1	1	main_slash	24	main_slash	107	stimuli_target_diamondsquares.svg	stimuli_distractor_trianglediamonds.svg	20	yes	53	1	729	6	6	antiphase_hc_ois.wav	3	6	3	noise_calib_stim_LEFT.wav	1	26	blb_dichoticlistening_pa-da.mp3	pa	da	1	right
6.6.1	win	2023-06-02	05:43:57	05:58:24	859197	615fdfca4830432512527cf3	1	1	main_slash	24	advance_on_keypress_SLASH	108	stimuli_target_diamondsquares.svg	stimuli_distractor_trianglediamonds.svg	20	yes	57	0	509	6	6	antiphase_hc_ois.wav	3	6	3	noise_calib_stim_LEFT.wav	1	26	blb_dichoticlistening_pa-da.mp3	pa	da	1	right
6.6.1	win	2023-06-02	05:43:57	05:58:27	861862	615fdfca4830432512527cf3	1	1	main_slash	24	main_slash	109	stimuli_distractor_diamondtriangles.svg	stimuli_target_diamondrectangles.svg	31	yes	53	1	1527	6	6	antiphase_hc_ois.wav	3	6	3	noise_calib_stim_LEFT.wav	1	26	blb_dichoticlistening_pa-da.mp3	pa	da	1	right
6.6.1	win	2023-06-02	05:43:57	05:58:27	861862	615fdfca4830432512527cf3	1	1	main_slash	24	advance_on_keypress_SLASH	110	stimuli_distractor_diamondtriangles.svg	stimuli_target_diamondrectangles.svg	31	yes	57	0	476	6	6	antiphase_hc_ois.wav	3	6	3	noise_calib_stim_LEFT.wav	1	26	blb_dichoticlistening_pa-da.mp3	pa	da	1	right
6.6.1	win	2023-06-02	05:43:57	05:58:30	864969	615fdfca4830432512527cf3	1	1	main_slash	24	main_slash	111	stimuli_distractor_diamondtriangles.svg	stimuli_distractor_diamondtriangles.svg	40	no	0	1	2000	6	6	antiphase_hc_ois.wav	3	6	3	noise_calib_stim_LEFT.wav	1	26	blb_dichoticlistening_pa-da.mp3	pa	da	1	right
6.6.1	win	2023-06-02	05:43:57	05:58:30	864969	615fdfca4830432512527cf3	1	1	main_slash	24	advance_on_keypress_SLASH	112	stimuli_distractor_diamondtriangles.svg	stimuli_distractor_diamondtriangles.svg	40	no	57	0	290	6	6	antiphase_hc_ois.wav	3	6	3	noise_calib_stim_LEFT.wav	1	26	blb_dichoticlistening_pa-da.mp3	pa	da	1	right
6.6.1	win	2023-06-02	05:43:57	05:58:32	866810	615fdfca4830432512527cf3	1	1	main_slash	24	main_slash	113	stimuli_target_trianglerectangles.svg	stimuli_distractor_diamondtriangles.svg	21	yes	53	1	908	6	6	antiphase_hc_ois.wav	3	6	3	noise_calib_stim_LEFT.wav	1	26	blb_dichoticlistening_pa-da.mp3	pa	da	1	right
6.6.1	win	2023-06-02	05:43:57	05:58:32	866810	615fdfca4830432512527cf3	1	1	main_slash	24	advance_on_keypress_SLASH	114	stimuli_target_trianglerectangles.svg	stimuli_distractor_diamondtriangles.svg	21	yes	57	0	449	6	6	antiphase_hc_ois.wav	3	6	3	noise_calib_stim_LEFT.wav	1	26	blb_dichoticlistening_pa-da.mp3	pa	da	1	right
6.6.1	win	2023-06-02	05:43:57	05:58:34	868328	615fdfca4830432512527cf3	1	1	main_slash	24	main_slash	115	stimuli_distractor_trianglediamonds.svg	stimuli_target_rectanglediamonds.svg	10	yes	53	1	427	6	6	antiphase_hc_ois.wav	3	6	3	noise_calib_stim_LEFT.wav	1	26	blb_dichoticlistening_pa-da.mp3	pa	da	1	right
6.6.1	win	2023-06-02	05:43:57	05:58:34	868328	615fdfca4830432512527cf3	1	1	main_slash	24	advance_on_keypress_SLASH	116	stimuli_distractor_trianglediamonds.svg	stimuli_target_rectanglediamonds.svg	10	yes	57	0	449	6	6	antiphase_hc_ois.wav	3	6	3	noise_calib_stim_LEFT.wav	1	26	blb_dichoticlistening_pa-da.mp3	pa	da	1	right
6.6.1	win	2023-06-02	05:43:57	05:58:37	871419	615fdfca4830432512527cf3	1	1	main_slash	24	main_slash	117	stimuli_distractor_diamondtriangles.svg	stimuli_distractor_diamondtriangles.svg	39	no	0	1	2000	6	6	antiphase_hc_ois.wav	3	6	3	noise_calib_stim_LEFT.wav	1	26	blb_dichoticlistening_pa-da.mp3	pa	da	1	right
6.6.1	win	2023-06-02	05:43:57	05:58:37	871419	615fdfca4830432512527cf3	1	1	main_slash	24	advance_on_keypress_SLASH	118	stimuli_distractor_diamondtriangles.svg	stimuli_distractor_diamondtriangles.svg	39	no	57	0	2827	6	6	antiphase_hc_ois.wav	3	6	3	noise_calib_stim_LEFT.wav	1	26	blb_dichoticlistening_pa-da.mp3	pa	da	1	right
6.6.1	win	2023-06-02	05:43:57	05:58:41	875341	615fdfca4830432512527cf3	1	1	main_slash	24	main_slash	119	stimuli_distractor_diamondtriangles.svg	stimuli_target_trianglerectangles.svg	29	yes	53	1	455	6	6	antiphase_hc_ois.wav	3	6	3	noise_calib_stim_LEFT.wav	1	26	blb_dichoticlistening_pa-da.mp3	pa	da	1	right
6.6.1	win	2023-06-02	05:43:57	05:58:41	875341	615fdfca4830432512527cf3	1	1	main_slash	24	advance_on_keypress_SLASH	120	stimuli_distractor_diamondtriangles.svg	stimuli_target_trianglerectangles.svg	29	yes	57	0	479	6	6	antiphase_hc_ois.wav	3	6	3	noise_calib_stim_LEFT.wav	1	26	blb_dichoticlistening_pa-da.mp3	pa	da	1	right
6.6.1	win	2023-06-02	05:43:57	05:58:44	878453	615fdfca4830432512527cf3	1	1	main_slash	24	main_slash	121	stimuli_distractor_diamondtriangles.svg	stimuli_distractor_trianglediamonds.svg	38	no	0	1	2000	6	6	antiphase_hc_ois.wav	3	6	3	noise_calib_stim_LEFT.wav	1	26	blb_dichoticlistening_pa-da.mp3	pa	da	1	right
6.6.1	win	2023-06-02	05:43:57	05:58:44	878453	615fdfca4830432512527cf3	1	1	main_slash	24	advance_on_keypress_SLASH	122	stimuli_distractor_diamondtriangles.svg	stimuli_distractor_trianglediamonds.svg	38	no	57	0	319	6	6	antiphase_hc_ois.wav	3	6	3	noise_calib_stim_LEFT.wav	1	26	blb_dichoticlistening_pa-da.mp3	pa	da	1	right
6.6.1	win	2023-06-02	05:43:57	05:58:45	879802	615fdfca4830432512527cf3	1	1	main_slash	24	main_slash	123	stimuli_target_rectangletriangles.svg	stimuli_distractor_trianglediamonds.svg	1	yes	53	1	383	6	6	antiphase_hc_ois.wav	3	6	3	noise_calib_stim_LEFT.wav	1	26	blb_dichoticlistening_pa-da.mp3	pa	da	1	right
6.6.1	win	2023-06-02	05:43:57	05:58:45	879802	615fdfca4830432512527cf3	1	1	main_slash	24	advance_on_keypress_SLASH	124	stimuli_target_rectangletriangles.svg	stimuli_distractor_trianglediamonds.svg	1	yes	57	0	425	6	6	antiphase_hc_ois.wav	3	6	3	noise_calib_stim_LEFT.wav	1	26	blb_dichoticlistening_pa-da.mp3	pa	da	1	right
6.6.1	win	2023-06-02	05:43:57	05:58:48	882869	615fdfca4830432512527cf3	1	1	main_slash	24	main_slash	125	stimuli_distractor_trianglediamonds.svg	stimuli_distractor_trianglediamonds.svg	33	no	0	1	2000	6	6	antiphase_hc_ois.wav	3	6	3	noise_calib_stim_LEFT.wav	1	26	blb_dichoticlistening_pa-da.mp3	pa	da	1	right
6.6.1	win	2023-06-02	05:43:57	05:58:48	882869	615fdfca4830432512527cf3	1	1	main_slash	24	advance_on_keypress_SLASH	126	stimuli_distractor_trianglediamonds.svg	stimuli_distractor_trianglediamonds.svg	33	no	57	0	316	6	6	antiphase_hc_ois.wav	3	6	3	noise_calib_stim_LEFT.wav	1	26	blb_dichoticlistening_pa-da.mp3	pa	da	1	right
6.6.1	win	2023-06-02	05:43:57	05:58:49	884243	615fdfca4830432512527cf3	1	1	main_slash	24	main_slash	127	stimuli_distractor_diamondtriangles.svg	stimuli_target_rectangletriangles.svg	13	yes	53	1	408	6	6	antiphase_hc_ois.wav	3	6	3	noise_calib_stim_LEFT.wav	1	26	blb_dichoticlistening_pa-da.mp3	pa	da	1	right
6.6.1	win	2023-06-02	05:43:57	05:58:49	884243	615fdfca4830432512527cf3	1	1	main_slash	24	advance_on_keypress_SLASH	128	stimuli_distractor_diamondtriangles.svg	stimuli_target_rectangletriangles.svg	13	yes	57	0	433	6	6	antiphase_hc_ois.wav	3	6	3	noise_calib_stim_LEFT.wav	1	26	blb_dichoticlistening_pa-da.mp3	pa	da	1	right
6.6.1	win	2023-06-02	05:43:57	05:58:51	885795	615fdfca4830432512527cf3	1	1	main_slash	24	main_slash	129	stimuli_target_diamondrectangles.svg	stimuli_distractor_trianglediamonds.svg	19	yes	53	1	476	6	6	antiphase_hc_ois.wav	3	6	3	noise_calib_stim_LEFT.wav	1	26	blb_dichoticlistening_pa-da.mp3	pa	da	1	right
6.6.1	win	2023-06-02	05:43:57	05:58:51	885795	615fdfca4830432512527cf3	1	1	main_slash	24	advance_on_keypress_SLASH	130	stimuli_target_diamondrectangles.svg	stimuli_distractor_trianglediamonds.svg	19	yes	57	0	450	6	6	antiphase_hc_ois.wav	3	6	3	noise_calib_stim_LEFT.wav	1	26	blb_dichoticlistening_pa-da.mp3	pa	da	1	right
6.6.1	win	2023-06-02	05:43:57	05:58:54	888886	615fdfca4830432512527cf3	1	1	main_slash	24	main_slash	131	stimuli_distractor_trianglediamonds.svg	stimuli_distractor_trianglediamonds.svg	34	no	0	1	2000	6	6	antiphase_hc_ois.wav	3	6	3	noise_calib_stim_LEFT.wav	1	26	blb_dichoticlistening_pa-da.mp3	pa	da	1	right
6.6.1	win	2023-06-02	05:43:57	05:58:54	888886	615fdfca4830432512527cf3	1	1	main_slash	24	advance_on_keypress_SLASH	132	stimuli_distractor_trianglediamonds.svg	stimuli_distractor_trianglediamonds.svg	34	no	57	0	309	6	6	antiphase_hc_ois.wav	3	6	3	noise_calib_stim_LEFT.wav	1	26	blb_dichoticlistening_pa-da.mp3	pa	da	1	right
6.6.1	win	2023-06-02	05:43:57	05:58:55	890280	615fdfca4830432512527cf3	1	1	main_slash	24	main_slash	133	stimuli_target_rectangletriangles.svg	stimuli_distractor_diamondtriangles.svg	5	yes	53	1	444	6	6	antiphase_hc_ois.wav	3	6	3	noise_calib_stim_LEFT.wav	1	26	blb_dichoticlistening_pa-da.mp3	pa	da	1	right
6.6.1	win	2023-06-02	05:43:57	05:58:55	890280	615fdfca4830432512527cf3	1	1	main_slash	24	advance_on_keypress_SLASH	134	stimuli_target_rectangletriangles.svg	stimuli_distractor_diamondtriangles.svg	5	yes	57	0	449	6	6	antiphase_hc_ois.wav	3	6	3	noise_calib_stim_LEFT.wav	1	26	blb_dichoticlistening_pa-da.mp3	pa	da	1	right
6.6.1	win	2023-06-02	05:43:57	05:58:57	891992	615fdfca4830432512527cf3	1	1	main_slash	24	main_slash	135	stimuli_distractor_diamondtriangles.svg	stimuli_target_diamondsquares.svg	32	yes	53	1	623	6	6	antiphase_hc_ois.wav	3	6	3	noise_calib_stim_LEFT.wav	1	26	blb_dichoticlistening_pa-da.mp3	pa	da	1	right
6.6.1	win	2023-06-02	05:43:57	05:58:57	891992	615fdfca4830432512527cf3	1	1	main_slash	24	advance_on_keypress_SLASH	136	stimuli_distractor_diamondtriangles.svg	stimuli_target_diamondsquares.svg	32	yes	57	0	463	6	6	antiphase_hc_ois.wav	3	6	3	noise_calib_stim_LEFT.wav	1	26	blb_dichoticlistening_pa-da.mp3	pa	da	1	right
6.6.1	win	2023-06-02	05:43:57	05:58:59	893511	615fdfca4830432512527cf3	1	1	main_slash	24	main_slash	137	stimuli_target_squarediamonds.svg	stimuli_distractor_diamondtriangles.svg	8	yes	53	1	408	6	6	antiphase_hc_ois.wav	3	6	3	noise_calib_stim_LEFT.wav	1	26	blb_dichoticlistening_pa-da.mp3	pa	da	1	right
6.6.1	win	2023-06-02	05:43:57	05:58:59	893511	615fdfca4830432512527cf3	1	1	main_slash	24	advance_on_keypress_SLASH	138	stimuli_target_squarediamonds.svg	stimuli_distractor_diamondtriangles.svg	8	yes	57	0	452	6	6	antiphase_hc_ois.wav	3	6	3	noise_calib_stim_LEFT.wav	1	26	blb_dichoticlistening_pa-da.mp3	pa	da	1	right
6.6.1	win	2023-06-02	05:43:57	05:59:00	895038	615fdfca4830432512527cf3	1	1	main_slash	24	main_slash	139	stimuli_distractor_trianglediamonds.svg	stimuli_target_squaretriangles.svg	11	yes	53	1	435	6	6	antiphase_hc_ois.wav	3	6	3	noise_calib_stim_LEFT.wav	1	26	blb_dichoticlistening_pa-da.mp3	pa	da	1	right
6.6.1	win	2023-06-02	05:43:57	05:59:00	895038	615fdfca4830432512527cf3	1	1	main_slash	24	advance_on_keypress_SLASH	140	stimuli_distractor_trianglediamonds.svg	stimuli_target_squaretriangles.svg	11	yes	57	0	440	6	6	antiphase_hc_ois.wav	3	6	3	noise_calib_stim_LEFT.wav	1	26	blb_dichoticlistening_pa-da.mp3	pa	da	1	right
6.6.1	win	2023-06-02	05:43:57	05:59:02	896572	615fdfca4830432512527cf3	1	1	main_slash	24	main_slash	141	stimuli_distractor_diamondtriangles.svg	stimuli_target_rectanglediamonds.svg	14	yes	53	1	453	6	6	antiphase_hc_ois.wav	3	6	3	noise_calib_stim_LEFT.wav	1	26	blb_dichoticlistening_pa-da.mp3	pa	da	1	right
6.6.1	win	2023-06-02	05:43:57	05:59:02	896572	615fdfca4830432512527cf3	1	1	main_slash	24	advance_on_keypress_SLASH	142	stimuli_distractor_diamondtriangles.svg	stimuli_target_rectanglediamonds.svg	14	yes	57	0	504	6	6	antiphase_hc_ois.wav	3	6	3	noise_calib_stim_LEFT.wav	1	26	blb_dichoticlistening_pa-da.mp3	pa	da	1	right
6.6.1	win	2023-06-02	05:43:57	05:59:03	898027	615fdfca4830432512527cf3	1	1	main_slash	24	main_slash	143	stimuli_target_rectanglediamonds.svg	stimuli_distractor_diamondtriangles.svg	6	yes	53	1	308	6	6	antiphase_hc_ois.wav	3	6	3	noise_calib_stim_LEFT.wav	1	26	blb_dichoticlistening_pa-da.mp3	pa	da	1	right
6.6.1	win	2023-06-02	05:43:57	05:59:03	898027	615fdfca4830432512527cf3	1	1	main_slash	24	advance_on_keypress_SLASH	144	stimuli_target_rectanglediamonds.svg	stimuli_distractor_diamondtriangles.svg	6	yes	57	0	411	6	6	antiphase_hc_ois.wav	3	6	3	noise_calib_stim_LEFT.wav	1	26	blb_dichoticlistening_pa-da.mp3	pa	da	1	right
6.6.1	win	2023-06-02	05:43:57	05:59:05	899464	615fdfca4830432512527cf3	1	1	main_slash	24	main_slash	145	stimuli_target_squarediamonds.svg	stimuli_distractor_trianglediamonds.svg	4	yes	53	1	395	6	6	antiphase_hc_ois.wav	3	6	3	noise_calib_stim_LEFT.wav	1	26	blb_dichoticlistening_pa-da.mp3	pa	da	1	right
6.6.1	win	2023-06-02	05:43:57	05:59:05	899464	615fdfca4830432512527cf3	1	1	main_slash	24	advance_on_keypress_SLASH	146	stimuli_target_squarediamonds.svg	stimuli_distractor_trianglediamonds.svg	4	yes	57	0	399	6	6	antiphase_hc_ois.wav	3	6	3	noise_calib_stim_LEFT.wav	1	26	blb_dichoticlistening_pa-da.mp3	pa	da	1	right
6.6.1	win	2023-06-02	05:43:57	05:59:06	901238	615fdfca4830432512527cf3	1	1	main_slash	24	main_slash	147	stimuli_target_diamondsquares.svg	stimuli_distractor_diamondtriangles.svg	24	yes	53	1	735	6	6	antiphase_hc_ois.wav	3	6	3	noise_calib_stim_LEFT.wav	1	26	blb_dichoticlistening_pa-da.mp3	pa	da	1	right
6.6.1	win	2023-06-02	05:43:57	05:59:06	901238	615fdfca4830432512527cf3	1	1	main_slash	24	advance_on_keypress_SLASH	148	stimuli_target_diamondsquares.svg	stimuli_distractor_diamondtriangles.svg	24	yes	57	0	413	6	6	antiphase_hc_ois.wav	3	6	3	noise_calib_stim_LEFT.wav	1	26	blb_dichoticlistening_pa-da.mp3	pa	da	1	right
6.6.1	win	2023-06-02	05:43:57	05:59:09	903583	615fdfca4830432512527cf3	1	1	main_slash	24	main_slash	149	stimuli_target_trianglesquares.svg	stimuli_distractor_trianglediamonds.svg	18	yes	53	1	1280	6	6	antiphase_hc_ois.wav	3	6	3	noise_calib_stim_LEFT.wav	1	26	blb_dichoticlistening_pa-da.mp3	pa	da	1	right
6.6.1	win	2023-06-02	05:43:57	05:59:09	903583	615fdfca4830432512527cf3	1	1	main_slash	24	advance_on_keypress_SLASH	150	stimuli_target_trianglesquares.svg	stimuli_distractor_trianglediamonds.svg	18	yes	57	0	485	6	6	antiphase_hc_ois.wav	3	6	3	noise_calib_stim_LEFT.wav	1	26	blb_dichoticlistening_pa-da.mp3	pa	da	1	right
6.6.1	win	2023-06-02	05:43:57	05:59:10	905119	615fdfca4830432512527cf3	1	1	main_slash	24	main_slash	151	stimuli_target_squaretriangles.svg	stimuli_distractor_trianglediamonds.svg	3	yes	53	1	399	6	6	antiphase_hc_ois.wav	3	6	3	noise_calib_stim_LEFT.wav	1	26	blb_dichoticlistening_pa-da.mp3	pa	da	1	right
6.6.1	win	2023-06-02	05:43:57	05:59:10	905119	615fdfca4830432512527cf3	1	1	main_slash	24	advance_on_keypress_SLASH	152	stimuli_target_squaretriangles.svg	stimuli_distractor_trianglediamonds.svg	3	yes	57	0	418	6	6	antiphase_hc_ois.wav	3	6	3	noise_calib_stim_LEFT.wav	1	26	blb_dichoticlistening_pa-da.mp3	pa	da	1	right
6.6.1	win	2023-06-02	05:43:57	05:59:13	908186	615fdfca4830432512527cf3	1	1	main_slash	24	main_slash	153	stimuli_target_trianglesquares.svg	stimuli_distractor_diamondtriangles.svg	22	yes	0	0	2000	6	6	antiphase_hc_ois.wav	3	6	3	noise_calib_stim_LEFT.wav	1	26	blb_dichoticlistening_pa-da.mp3	pa	da	1	right
6.6.1	win	2023-06-02	05:43:57	05:59:13	908186	615fdfca4830432512527cf3	1	1	main_slash	24	advance_on_keypress_SLASH	154	stimuli_target_trianglesquares.svg	stimuli_distractor_diamondtriangles.svg	22	yes	57	0	318	6	6	antiphase_hc_ois.wav	3	6	3	noise_calib_stim_LEFT.wav	1	26	blb_dichoticlistening_pa-da.mp3	pa	da	1	right
6.6.1	win	2023-06-02	05:43:57	05:59:15	909957	615fdfca4830432512527cf3	1	1	main_slash	24	main_slash	155	stimuli_distractor_trianglediamonds.svg	stimuli_target_trianglerectangles.svg	25	yes	53	1	804	6	6	antiphase_hc_ois.wav	3	6	3	noise_calib_stim_LEFT.wav	1	26	blb_dichoticlistening_pa-da.mp3	pa	da	1	right
6.6.1	win	2023-06-02	05:43:57	05:59:15	909957	615fdfca4830432512527cf3	1	1	main_slash	24	advance_on_keypress_SLASH	156	stimuli_distractor_trianglediamonds.svg	stimuli_target_trianglerectangles.svg	25	yes	57	0	403	6	6	antiphase_hc_ois.wav	3	6	3	noise_calib_stim_LEFT.wav	1	26	blb_dichoticlistening_pa-da.mp3	pa	da	1	right
6.6.1	win	2023-06-02	05:43:57	05:59:17	911343	615fdfca4830432512527cf3	1	1	main_slash	24	main_slash	157	stimuli_target_rectanglediamonds.svg	stimuli_distractor_trianglediamonds.svg	2	yes	53	1	340	6	6	antiphase_hc_ois.wav	3	6	3	noise_calib_stim_LEFT.wav	1	26	blb_dichoticlistening_pa-da.mp3	pa	da	1	right
6.6.1	win	2023-06-02	05:43:57	05:59:17	911343	615fdfca4830432512527cf3	1	1	main_slash	24	advance_on_keypress_SLASH	158	stimuli_target_rectanglediamonds.svg	stimuli_distractor_trianglediamonds.svg	2	yes	57	0	356	6	6	antiphase_hc_ois.wav	3	6	3	noise_calib_stim_LEFT.wav	1	26	blb_dichoticlistening_pa-da.mp3	pa	da	1	right
6.6.1	win	2023-06-02	05:43:57	05:59:18	912962	615fdfca4830432512527cf3	1	1	main_slash	24	main_slash	159	stimuli_target_diamondrectangles.svg	stimuli_distractor_diamondtriangles.svg	23	yes	53	1	627	6	6	antiphase_hc_ois.wav	3	6	3	noise_calib_stim_LEFT.wav	1	26	blb_dichoticlistening_pa-da.mp3	pa	da	1	right
6.6.1	win	2023-06-02	05:43:57	05:59:18	912962	615fdfca4830432512527cf3	1	1	main_slash	24	advance_on_keypress_SLASH	160	stimuli_target_diamondrectangles.svg	stimuli_distractor_diamondtriangles.svg	23	yes	57	0	438	6	6	antiphase_hc_ois.wav	3	6	3	noise_calib_stim_LEFT.wav	1	26	blb_dichoticlistening_pa-da.mp3	pa	da	1	right
6.6.1	win	2023-06-02	05:43:57	05:59:36	930900	615fdfca4830432512527cf3	1	1	practice_z	26	practice_z	1	stimuli_distractor_trianglediamonds.svg	stimuli_target_rectanglediamonds.svg	10	yes	44	1	361	6	6	antiphase_hc_ois.wav	3	6	3	noise_calib_stim_LEFT.wav	1	26	blb_dichoticlistening_pa-da.mp3	pa	da	1	right
6.6.1	win	2023-06-02	05:43:57	05:59:36	930900	615fdfca4830432512527cf3	1	1	practice_z	26	advance_on_keypress_ZEE	2	stimuli_distractor_trianglediamonds.svg	stimuli_target_rectanglediamonds.svg	10	yes	57	0	366	6	6	antiphase_hc_ois.wav	3	6	3	noise_calib_stim_LEFT.wav	1	26	blb_dichoticlistening_pa-da.mp3	pa	da	1	right
6.6.1	win	2023-06-02	05:43:57	05:59:39	933299	615fdfca4830432512527cf3	1	1	practice_z	26	practice_z	3	stimuli_target_squarediamonds.svg	stimuli_distractor_diamondtriangles.svg	2	yes	44	1	377	6	6	antiphase_hc_ois.wav	3	6	3	noise_calib_stim_LEFT.wav	1	26	blb_dichoticlistening_pa-da.mp3	pa	da	1	right
6.6.1	win	2023-06-02	05:43:57	05:59:39	933299	615fdfca4830432512527cf3	1	1	practice_z	26	advance_on_keypress_ZEE	4	stimuli_target_squarediamonds.svg	stimuli_distractor_diamondtriangles.svg	2	yes	57	0	446	6	6	antiphase_hc_ois.wav	3	6	3	noise_calib_stim_LEFT.wav	1	26	blb_dichoticlistening_pa-da.mp3	pa	da	1	right
6.6.1	win	2023-06-02	05:43:57	05:59:41	936233	615fdfca4830432512527cf3	1	1	practice_z	26	practice_z	5	stimuli_distractor_trianglediamonds.svg	stimuli_distractor_diamondtriangles.svg	16	no	44	0	828	6	6	antiphase_hc_ois.wav	3	6	3	noise_calib_stim_LEFT.wav	1	26	blb_dichoticlistening_pa-da.mp3	pa	da	1	right
6.6.1	win	2023-06-02	05:43:57	05:59:41	936233	615fdfca4830432512527cf3	1	1	practice_z	26	advance_on_keypress_ZEE	6	stimuli_distractor_trianglediamonds.svg	stimuli_distractor_diamondtriangles.svg	16	no	57	0	504	6	6	antiphase_hc_ois.wav	3	6	3	noise_calib_stim_LEFT.wav	1	26	blb_dichoticlistening_pa-da.mp3	pa	da	1	right
6.6.1	win	2023-06-02	05:43:57	05:59:44	938821	615fdfca4830432512527cf3	1	1	practice_z	26	practice_z	7	stimuli_distractor_diamondtriangles.svg	stimuli_target_rectangletriangles.svg	7	yes	44	1	434	6	6	antiphase_hc_ois.wav	3	6	3	noise_calib_stim_LEFT.wav	1	26	blb_dichoticlistening_pa-da.mp3	pa	da	1	right
6.6.1	win	2023-06-02	05:43:57	05:59:44	938821	615fdfca4830432512527cf3	1	1	practice_z	26	advance_on_keypress_ZEE	8	stimuli_distractor_diamondtriangles.svg	stimuli_target_rectangletriangles.svg	7	yes	57	0	427	6	6	antiphase_hc_ois.wav	3	6	3	noise_calib_stim_LEFT.wav	1	26	blb_dichoticlistening_pa-da.mp3	pa	da	1	right
6.6.1	win	2023-06-02	05:43:57	05:59:47	941387	615fdfca4830432512527cf3	1	1	practice_z	26	practice_z	9	stimuli_distractor_diamondtriangles.svg	stimuli_target_trianglerectangles.svg	9	yes	44	1	499	6	6	antiphase_hc_ois.wav	3	6	3	noise_calib_stim_LEFT.wav	1	26	blb_dichoticlistening_pa-da.mp3	pa	da	1	right
6.6.1	win	2023-06-02	05:43:57	05:59:47	941387	615fdfca4830432512527cf3	1	1	practice_z	26	advance_on_keypress_ZEE	10	stimuli_distractor_diamondtriangles.svg	stimuli_target_trianglerectangles.svg	9	yes	57	0	416	6	6	antiphase_hc_ois.wav	3	6	3	noise_calib_stim_LEFT.wav	1	26	blb_dichoticlistening_pa-da.mp3	pa	da	1	right
6.6.1	win	2023-06-02	05:43:57	05:59:50	944449	615fdfca4830432512527cf3	1	1	practice_z	26	practice_z	11	stimuli_distractor_trianglediamonds.svg	stimuli_distractor_trianglediamonds.svg	15	no	44	0	993	6	6	antiphase_hc_ois.wav	3	6	3	noise_calib_stim_LEFT.wav	1	26	blb_dichoticlistening_pa-da.mp3	pa	da	1	right
6.6.1	win	2023-06-02	05:43:57	05:59:50	944449	615fdfca4830432512527cf3	1	1	practice_z	26	advance_on_keypress_ZEE	12	stimuli_distractor_trianglediamonds.svg	stimuli_distractor_trianglediamonds.svg	15	no	57	0	449	6	6	antiphase_hc_ois.wav	3	6	3	noise_calib_stim_LEFT.wav	1	26	blb_dichoticlistening_pa-da.mp3	pa	da	1	right
6.6.1	win	2023-06-02	05:43:57	05:59:52	947027	615fdfca4830432512527cf3	1	1	practice_z	26	practice_z	13	stimuli_target_rectanglediamonds.svg	stimuli_distractor_diamondtriangles.svg	1	yes	44	1	472	6	6	antiphase_hc_ois.wav	3	6	3	noise_calib_stim_LEFT.wav	1	26	blb_dichoticlistening_pa-da.mp3	pa	da	1	right
6.6.1	win	2023-06-02	05:43:57	05:59:52	947027	615fdfca4830432512527cf3	1	1	practice_z	26	advance_on_keypress_ZEE	14	stimuli_target_rectanglediamonds.svg	stimuli_distractor_diamondtriangles.svg	1	yes	57	0	262	6	6	antiphase_hc_ois.wav	3	6	3	noise_calib_stim_LEFT.wav	1	26	blb_dichoticlistening_pa-da.mp3	pa	da	1	right
6.6.1	win	2023-06-02	05:43:57	05:59:56	950939	615fdfca4830432512527cf3	1	1	practice_z	26	practice_z	15	stimuli_distractor_diamondtriangles.svg	stimuli_distractor_diamondtriangles.svg	13	no	0	1	2000	6	6	antiphase_hc_ois.wav	3	6	3	noise_calib_stim_LEFT.wav	1	26	blb_dichoticlistening_pa-da.mp3	pa	da	1	right
