build	computer.platform	date	time	timestamp	time_elapsed_ms	subject	group	session	blockcode	blocknum	trialcode	trialnum	stimulus_left	stimulus_right	stim_index	target_present	response	correct	latency	headphonecheck_countTestTrials	headphonecheck_index	headphonecheck_testSound	headphonecheck_correctResponse	stereocheck_countTestTrials	stereocheck_index	stereocheck_testSound	stereocheck_correctResponse	DL_index	DL_soundfile	DL_leftSound	DL_rightSound	DL_dualSound	DL_choice
6.6.1	win	2023-06-02	03:43:16	03:52:07	528434	63039dbefda87c47a91fec04	4	1	practice_z	5	practice_z	1	stimuli_distractor_diamondtriangles.svg	stimuli_target_diamondrectangles.svg	8	yes	44	1	434	0	0			0	0			1				0	
6.6.1	win	2023-06-02	03:43:16	03:52:07	528434	63039dbefda87c47a91fec04	4	1	practice_z	5	advance_on_keypress_ZEE	2	stimuli_distractor_diamondtriangles.svg	stimuli_target_diamondrectangles.svg	8	yes	57	0	971	0	0			0	0			1				0	
6.6.1	win	2023-06-02	03:43:16	03:52:10	531561	63039dbefda87c47a91fec04	4	1	practice_z	5	practice_z	3	stimuli_distractor_trianglediamonds.svg	stimuli_target_diamondrectangles.svg	12	yes	44	1	507	0	0			0	0			1				0	
6.6.1	win	2023-06-02	03:43:16	03:52:10	531561	63039dbefda87c47a91fec04	4	1	practice_z	5	advance_on_keypress_ZEE	4	stimuli_distractor_trianglediamonds.svg	stimuli_target_diamondrectangles.svg	12	yes	57	0	3926	0	0			0	0			1				0	
6.6.1	win	2023-06-02	03:43:16	03:52:16	537527	63039dbefda87c47a91fec04	4	1	practice_z	5	practice_z	5	stimuli_target_diamondsquares.svg	stimuli_distractor_diamondtriangles.svg	3	yes	44	1	402	0	0			0	0			1				0	
6.6.1	win	2023-06-02	03:43:16	03:52:16	537527	63039dbefda87c47a91fec04	4	1	practice_z	5	advance_on_keypress_ZEE	6	stimuli_target_diamondsquares.svg	stimuli_distractor_diamondtriangles.svg	3	yes	57	0	2111	0	0			0	0			1				0	
6.6.1	win	2023-06-02	03:43:16	03:52:21	541752	63039dbefda87c47a91fec04	4	1	practice_z	5	practice_z	7	stimuli_distractor_diamondtriangles.svg	stimuli_target_rectangletriangles.svg	7	yes	44	1	454	0	0			0	0			1				0	
6.6.1	win	2023-06-02	03:43:16	03:52:21	541752	63039dbefda87c47a91fec04	4	1	practice_z	5	advance_on_keypress_ZEE	8	stimuli_distractor_diamondtriangles.svg	stimuli_target_rectangletriangles.svg	7	yes	57	0	1161	0	0			0	0			1				0	
6.6.1	win	2023-06-02	03:43:16	03:52:25	546566	63039dbefda87c47a91fec04	4	1	practice_z	5	practice_z	9	stimuli_distractor_diamondtriangles.svg	stimuli_distractor_diamondtriangles.svg	13	no	0	1	2000	0	0			0	0			1				0	
6.6.1	win	2023-06-02	03:43:16	03:52:25	546566	63039dbefda87c47a91fec04	4	1	practice_z	5	advance_on_keypress_ZEE	10	stimuli_distractor_diamondtriangles.svg	stimuli_distractor_diamondtriangles.svg	13	no	57	0	1563	0	0			0	0			1				0	
6.6.1	win	2023-06-02	03:43:16	03:52:29	550207	63039dbefda87c47a91fec04	4	1	practice_z	5	practice_z	11	stimuli_target_rectanglediamonds.svg	stimuli_distractor_trianglediamonds.svg	4	yes	44	1	419	0	0			0	0			1				0	
6.6.1	win	2023-06-02	03:43:16	03:52:29	550207	63039dbefda87c47a91fec04	4	1	practice_z	5	advance_on_keypress_ZEE	12	stimuli_target_rectanglediamonds.svg	stimuli_distractor_trianglediamonds.svg	4	yes	57	0	2858	0	0			0	0			1				0	
6.6.1	win	2023-06-02	03:43:16	03:52:34	555133	63039dbefda87c47a91fec04	4	1	practice_z	5	practice_z	13	stimuli_distractor_trianglediamonds.svg	stimuli_target_rectanglediamonds.svg	10	yes	44	1	424	0	0			0	0			1				0	
6.6.1	win	2023-06-02	03:43:16	03:52:34	555133	63039dbefda87c47a91fec04	4	1	practice_z	5	advance_on_keypress_ZEE	14	stimuli_distractor_trianglediamonds.svg	stimuli_target_rectanglediamonds.svg	10	yes	57	0	2892	0	0			0	0			1				0	
6.6.1	win	2023-06-02	03:43:16	03:52:39	560010	63039dbefda87c47a91fec04	4	1	practice_z	5	practice_z	15	stimuli_distractor_diamondtriangles.svg	stimuli_target_trianglerectangles.svg	9	yes	44	1	329	0	0			0	0			1				0	
6.6.1	win	2023-06-02	03:43:16	03:52:39	560010	63039dbefda87c47a91fec04	4	1	practice_z	5	advance_on_keypress_ZEE	16	stimuli_distractor_diamondtriangles.svg	stimuli_target_trianglerectangles.svg	9	yes	57	0	1177	0	0			0	0			1				0	
6.6.1	win	2023-06-02	03:43:16	03:52:42	563301	63039dbefda87c47a91fec04	4	1	practice_z	5	practice_z	17	stimuli_target_squarediamonds.svg	stimuli_distractor_trianglediamonds.svg	5	yes	44	1	450	0	0			0	0			1				0	
6.6.1	win	2023-06-02	03:43:16	03:52:42	563301	63039dbefda87c47a91fec04	4	1	practice_z	5	advance_on_keypress_ZEE	18	stimuli_target_squarediamonds.svg	stimuli_distractor_trianglediamonds.svg	5	yes	57	0	4658	0	0			0	0			1				0	
6.6.1	win	2023-06-02	03:43:16	03:52:49	569927	63039dbefda87c47a91fec04	4	1	practice_z	5	practice_z	19	stimuli_distractor_trianglediamonds.svg	stimuli_target_squarediamonds.svg	11	yes	44	1	320	0	0			0	0			1				0	
6.6.1	win	2023-06-02	03:43:16	03:52:49	569927	63039dbefda87c47a91fec04	4	1	practice_z	5	advance_on_keypress_ZEE	20	stimuli_distractor_trianglediamonds.svg	stimuli_target_squarediamonds.svg	11	yes	57	0	1041	0	0			0	0			1				0	
6.6.1	win	2023-06-02	03:43:16	03:52:52	572911	63039dbefda87c47a91fec04	4	1	practice_z	5	practice_z	21	stimuli_target_squarediamonds.svg	stimuli_distractor_diamondtriangles.svg	2	yes	44	1	301	0	0			0	0			1				0	
6.6.1	win	2023-06-02	03:43:16	03:52:52	572911	63039dbefda87c47a91fec04	4	1	practice_z	5	advance_on_keypress_ZEE	22	stimuli_target_squarediamonds.svg	stimuli_distractor_diamondtriangles.svg	2	yes	57	0	878	0	0			0	0			1				0	
6.6.1	win	2023-06-02	03:43:16	03:52:55	575734	63039dbefda87c47a91fec04	4	1	practice_z	5	practice_z	23	stimuli_distractor_trianglediamonds.svg	stimuli_distractor_trianglediamonds.svg	15	no	44	0	286	0	0			0	0			1				0	
6.6.1	win	2023-06-02	03:43:16	03:52:55	575734	63039dbefda87c47a91fec04	4	1	practice_z	5	advance_on_keypress_ZEE	24	stimuli_distractor_trianglediamonds.svg	stimuli_distractor_trianglediamonds.svg	15	no	57	0	2166	0	0			0	0			1				0	
6.6.1	win	2023-06-02	03:43:16	03:52:59	579825	63039dbefda87c47a91fec04	4	1	practice_z	5	practice_z	25	stimuli_target_rectanglediamonds.svg	stimuli_distractor_diamondtriangles.svg	1	yes	44	1	274	0	0			0	0			1				0	
6.6.1	win	2023-06-02	03:43:16	03:52:59	579825	63039dbefda87c47a91fec04	4	1	practice_z	5	advance_on_keypress_ZEE	26	stimuli_target_rectanglediamonds.svg	stimuli_distractor_diamondtriangles.svg	1	yes	57	0	1201	0	0			0	0			1				0	
6.6.1	win	2023-06-02	03:43:16	03:53:04	584670	63039dbefda87c47a91fec04	4	1	practice_z	5	practice_z	27	stimuli_distractor_diamondtriangles.svg	stimuli_distractor_trianglediamonds.svg	14	no	0	1	2000	0	0			0	0			1				0	
6.6.1	win	2023-06-02	03:43:16	03:53:04	584670	63039dbefda87c47a91fec04	4	1	practice_z	5	advance_on_keypress_ZEE	28	stimuli_distractor_diamondtriangles.svg	stimuli_distractor_trianglediamonds.svg	14	no	57	0	1155	0	0			0	0			1				0	
6.6.1	win	2023-06-02	03:43:16	03:53:07	587775	63039dbefda87c47a91fec04	4	1	practice_z	5	practice_z	29	stimuli_target_diamondsquares.svg	stimuli_distractor_trianglediamonds.svg	6	yes	44	1	300	0	0			0	0			1				0	
6.6.1	win	2023-06-02	03:43:16	03:53:07	587775	63039dbefda87c47a91fec04	4	1	practice_z	5	advance_on_keypress_ZEE	30	stimuli_target_diamondsquares.svg	stimuli_distractor_trianglediamonds.svg	6	yes	57	0	1308	0	0			0	0			1				0	
6.6.1	win	2023-06-02	03:43:16	03:53:12	592728	63039dbefda87c47a91fec04	4	1	practice_z	5	practice_z	31	stimuli_distractor_trianglediamonds.svg	stimuli_distractor_diamondtriangles.svg	16	no	0	1	2000	0	0			0	0			1				0	
6.6.1	win	2023-06-02	03:43:16	03:53:12	592728	63039dbefda87c47a91fec04	4	1	practice_z	5	advance_on_keypress_ZEE	32	stimuli_distractor_trianglediamonds.svg	stimuli_distractor_diamondtriangles.svg	16	no	57	0	939	0	0			0	0			1				0	
6.6.1	win	2023-06-02	03:43:16	03:55:46	747124	63039dbefda87c47a91fec04	4	1	main_z	7	main_z	1	stimuli_target_rectanglediamonds.svg	stimuli_distractor_diamondtriangles.svg	6	yes	44	1	307	0	0			0	0			1				0	
6.6.1	win	2023-06-02	03:43:16	03:55:46	747124	63039dbefda87c47a91fec04	4	1	main_z	7	advance_on_keypress_ZEE	2	stimuli_target_rectanglediamonds.svg	stimuli_distractor_diamondtriangles.svg	6	yes	57	0	1889	0	0			0	0			1				0	
6.6.1	win	2023-06-02	03:43:16	03:55:49	750039	63039dbefda87c47a91fec04	4	1	main_z	7	main_z	3	stimuli_distractor_trianglediamonds.svg	stimuli_target_rectangletriangles.svg	9	yes	44	1	386	0	0			0	0			1				0	
6.6.1	win	2023-06-02	03:43:16	03:55:49	750039	63039dbefda87c47a91fec04	4	1	main_z	7	advance_on_keypress_ZEE	4	stimuli_distractor_trianglediamonds.svg	stimuli_target_rectangletriangles.svg	9	yes	57	0	1385	0	0			0	0			1				0	
6.6.1	win	2023-06-02	03:43:16	03:55:51	752536	63039dbefda87c47a91fec04	4	1	main_z	7	main_z	5	stimuli_distractor_trianglediamonds.svg	stimuli_target_diamondrectangles.svg	27	yes	44	1	463	0	0			0	0			1				0	
6.6.1	win	2023-06-02	03:43:16	03:55:51	752536	63039dbefda87c47a91fec04	4	1	main_z	7	advance_on_keypress_ZEE	6	stimuli_distractor_trianglediamonds.svg	stimuli_target_diamondrectangles.svg	27	yes	57	0	1014	0	0			0	0			1				0	
6.6.1	win	2023-06-02	03:43:16	03:55:53	754606	63039dbefda87c47a91fec04	4	1	main_z	7	main_z	7	stimuli_target_rectangletriangles.svg	stimuli_distractor_diamondtriangles.svg	5	yes	44	1	398	0	0			0	0			1				0	
6.6.1	win	2023-06-02	03:43:16	03:55:53	754606	63039dbefda87c47a91fec04	4	1	main_z	7	advance_on_keypress_ZEE	8	stimuli_target_rectangletriangles.svg	stimuli_distractor_diamondtriangles.svg	5	yes	57	0	1103	0	0			0	0			1				0	
6.6.1	win	2023-06-02	03:43:16	03:55:56	756628	63039dbefda87c47a91fec04	4	1	main_z	7	main_z	9	stimuli_target_diamondrectangles.svg	stimuli_distractor_trianglediamonds.svg	19	yes	44	1	268	0	0			0	0			1				0	
6.6.1	win	2023-06-02	03:43:16	03:55:56	756628	63039dbefda87c47a91fec04	4	1	main_z	7	advance_on_keypress_ZEE	10	stimuli_target_diamondrectangles.svg	stimuli_distractor_trianglediamonds.svg	19	yes	57	0	964	0	0			0	0			1				0	
6.6.1	win	2023-06-02	03:43:16	03:55:58	758635	63039dbefda87c47a91fec04	4	1	main_z	7	main_z	11	stimuli_distractor_trianglediamonds.svg	stimuli_target_trianglesquares.svg	26	yes	44	1	390	0	0			0	0			1				0	
6.6.1	win	2023-06-02	03:43:16	03:55:58	758635	63039dbefda87c47a91fec04	4	1	main_z	7	advance_on_keypress_ZEE	12	stimuli_distractor_trianglediamonds.svg	stimuli_target_trianglesquares.svg	26	yes	57	0	787	0	0			0	0			1				0	
6.6.1	win	2023-06-02	03:43:16	03:55:59	760418	63039dbefda87c47a91fec04	4	1	main_z	7	main_z	13	stimuli_distractor_diamondtriangles.svg	stimuli_target_diamondsquares.svg	32	yes	44	1	354	0	0			0	0			1				0	
6.6.1	win	2023-06-02	03:43:16	03:55:59	760418	63039dbefda87c47a91fec04	4	1	main_z	7	advance_on_keypress_ZEE	14	stimuli_distractor_diamondtriangles.svg	stimuli_target_diamondsquares.svg	32	yes	57	0	826	0	0			0	0			1				0	
6.6.1	win	2023-06-02	03:43:16	03:56:03	763882	63039dbefda87c47a91fec04	4	1	main_z	7	main_z	15	stimuli_distractor_trianglediamonds.svg	stimuli_distractor_diamondtriangles.svg	36	no	0	1	2000	0	0			0	0			1				0	
6.6.1	win	2023-06-02	03:43:16	03:56:03	763882	63039dbefda87c47a91fec04	4	1	main_z	7	advance_on_keypress_ZEE	16	stimuli_distractor_trianglediamonds.svg	stimuli_distractor_diamondtriangles.svg	36	no	57	0	2081	0	0			0	0			1				0	
6.6.1	win	2023-06-02	03:43:16	03:56:06	767046	63039dbefda87c47a91fec04	4	1	main_z	7	main_z	17	stimuli_target_trianglesquares.svg	stimuli_distractor_diamondtriangles.svg	22	yes	44	1	426	0	0			0	0			1				0	
6.6.1	win	2023-06-02	03:43:16	03:56:06	767046	63039dbefda87c47a91fec04	4	1	main_z	7	advance_on_keypress_ZEE	18	stimuli_target_trianglesquares.svg	stimuli_distractor_diamondtriangles.svg	22	yes	57	0	920	0	0			0	0			1				0	
6.6.1	win	2023-06-02	03:43:16	03:56:09	770605	63039dbefda87c47a91fec04	4	1	main_z	7	main_z	19	stimuli_distractor_diamondtriangles.svg	stimuli_distractor_diamondtriangles.svg	40	no	0	1	2000	0	0			0	0			1				0	
6.6.1	win	2023-06-02	03:43:16	03:56:09	770605	63039dbefda87c47a91fec04	4	1	main_z	7	advance_on_keypress_ZEE	20	stimuli_distractor_diamondtriangles.svg	stimuli_distractor_diamondtriangles.svg	40	no	57	0	2811	0	0			0	0			1				0	
6.6.1	win	2023-06-02	03:43:16	03:56:13	774520	63039dbefda87c47a91fec04	4	1	main_z	7	main_z	21	stimuli_target_trianglerectangles.svg	stimuli_distractor_diamondtriangles.svg	21	yes	44	1	442	0	0			0	0			1				0	
6.6.1	win	2023-06-02	03:43:16	03:56:13	774520	63039dbefda87c47a91fec04	4	1	main_z	7	advance_on_keypress_ZEE	22	stimuli_target_trianglerectangles.svg	stimuli_distractor_diamondtriangles.svg	21	yes	57	0	922	0	0			0	0			1				0	
6.6.1	win	2023-06-02	03:43:16	03:56:15	776393	63039dbefda87c47a91fec04	4	1	main_z	7	main_z	23	stimuli_distractor_trianglediamonds.svg	stimuli_target_squaretriangles.svg	11	yes	44	1	313	0	0			0	0			1				0	
6.6.1	win	2023-06-02	03:43:16	03:56:15	776393	63039dbefda87c47a91fec04	4	1	main_z	7	advance_on_keypress_ZEE	24	stimuli_distractor_trianglediamonds.svg	stimuli_target_squaretriangles.svg	11	yes	57	0	1183	0	0			0	0			1				0	
6.6.1	win	2023-06-02	03:43:16	03:56:18	778650	63039dbefda87c47a91fec04	4	1	main_z	7	main_z	25	stimuli_target_squarediamonds.svg	stimuli_distractor_diamondtriangles.svg	8	yes	44	1	418	0	0			0	0			1				0	
6.6.1	win	2023-06-02	03:43:16	03:56:18	778650	63039dbefda87c47a91fec04	4	1	main_z	7	advance_on_keypress_ZEE	26	stimuli_target_squarediamonds.svg	stimuli_distractor_diamondtriangles.svg	8	yes	57	0	690	0	0			0	0			1				0	
6.6.1	win	2023-06-02	03:43:16	03:56:19	780458	63039dbefda87c47a91fec04	4	1	main_z	7	main_z	27	stimuli_target_trianglerectangles.svg	stimuli_distractor_trianglediamonds.svg	17	yes	44	1	474	0	0			0	0			1				0	
6.6.1	win	2023-06-02	03:43:16	03:56:19	780458	63039dbefda87c47a91fec04	4	1	main_z	7	advance_on_keypress_ZEE	28	stimuli_target_trianglerectangles.svg	stimuli_distractor_trianglediamonds.svg	17	yes	57	0	655	0	0			0	0			1				0	
6.6.1	win	2023-06-02	03:43:16	03:56:21	782174	63039dbefda87c47a91fec04	4	1	main_z	7	main_z	29	stimuli_distractor_diamondtriangles.svg	stimuli_target_rectangletriangles.svg	13	yes	44	1	422	0	0			0	0			1				0	
6.6.1	win	2023-06-02	03:43:16	03:56:21	782174	63039dbefda87c47a91fec04	4	1	main_z	7	advance_on_keypress_ZEE	30	stimuli_distractor_diamondtriangles.svg	stimuli_target_rectangletriangles.svg	13	yes	57	0	499	0	0			0	0			1				0	
6.6.1	win	2023-06-02	03:43:16	03:56:23	783801	63039dbefda87c47a91fec04	4	1	main_z	7	main_z	31	stimuli_target_trianglesquares.svg	stimuli_distractor_trianglediamonds.svg	18	yes	44	1	481	0	0			0	0			1				0	
6.6.1	win	2023-06-02	03:43:16	03:56:23	783801	63039dbefda87c47a91fec04	4	1	main_z	7	advance_on_keypress_ZEE	32	stimuli_target_trianglesquares.svg	stimuli_distractor_trianglediamonds.svg	18	yes	57	0	508	0	0			0	0			1				0	
6.6.1	win	2023-06-02	03:43:16	03:56:24	785358	63039dbefda87c47a91fec04	4	1	main_z	7	main_z	33	stimuli_distractor_trianglediamonds.svg	stimuli_target_trianglerectangles.svg	25	yes	44	1	403	0	0			0	0			1				0	
6.6.1	win	2023-06-02	03:43:16	03:56:24	785358	63039dbefda87c47a91fec04	4	1	main_z	7	advance_on_keypress_ZEE	34	stimuli_distractor_trianglediamonds.svg	stimuli_target_trianglerectangles.svg	25	yes	57	0	436	0	0			0	0			1				0	
6.6.1	win	2023-06-02	03:43:16	03:56:26	786961	63039dbefda87c47a91fec04	4	1	main_z	7	main_z	35	stimuli_distractor_diamondtriangles.svg	stimuli_distractor_trianglediamonds.svg	38	no	44	0	521	0	0			0	0			1				0	
6.6.1	win	2023-06-02	03:43:16	03:56:26	786961	63039dbefda87c47a91fec04	4	1	main_z	7	advance_on_keypress_ZEE	36	stimuli_distractor_diamondtriangles.svg	stimuli_distractor_trianglediamonds.svg	38	no	57	0	1405	0	0			0	0			1				0	
6.6.1	win	2023-06-02	03:43:16	03:56:28	789529	63039dbefda87c47a91fec04	4	1	main_z	7	main_z	37	stimuli_target_diamondsquares.svg	stimuli_distractor_trianglediamonds.svg	20	yes	44	1	520	0	0			0	0			1				0	
6.6.1	win	2023-06-02	03:43:16	03:56:28	789529	63039dbefda87c47a91fec04	4	1	main_z	7	advance_on_keypress_ZEE	38	stimuli_target_diamondsquares.svg	stimuli_distractor_trianglediamonds.svg	20	yes	57	0	487	0	0			0	0			1				0	
6.6.1	win	2023-06-02	03:43:16	03:56:30	791063	63039dbefda87c47a91fec04	4	1	main_z	7	main_z	39	stimuli_target_squaretriangles.svg	stimuli_distractor_trianglediamonds.svg	3	yes	44	1	402	0	0			0	0			1				0	
6.6.1	win	2023-06-02	03:43:16	03:56:30	791063	63039dbefda87c47a91fec04	4	1	main_z	7	advance_on_keypress_ZEE	40	stimuli_target_squaretriangles.svg	stimuli_distractor_trianglediamonds.svg	3	yes	57	0	423	0	0			0	0			1				0	
6.6.1	win	2023-06-02	03:43:16	03:56:33	794129	63039dbefda87c47a91fec04	4	1	main_z	7	main_z	41	stimuli_distractor_diamondtriangles.svg	stimuli_distractor_trianglediamonds.svg	37	no	0	1	2000	0	0			0	0			1				0	
6.6.1	win	2023-06-02	03:43:16	03:56:33	794129	63039dbefda87c47a91fec04	4	1	main_z	7	advance_on_keypress_ZEE	42	stimuli_distractor_diamondtriangles.svg	stimuli_distractor_trianglediamonds.svg	37	no	57	0	860	0	0			0	0			1				0	
6.6.1	win	2023-06-02	03:43:16	03:56:35	796194	63039dbefda87c47a91fec04	4	1	main_z	7	main_z	43	stimuli_distractor_trianglediamonds.svg	stimuli_target_squarediamonds.svg	12	yes	44	1	545	0	0			0	0			1				0	
6.6.1	win	2023-06-02	03:43:16	03:56:35	796194	63039dbefda87c47a91fec04	4	1	main_z	7	advance_on_keypress_ZEE	44	stimuli_distractor_trianglediamonds.svg	stimuli_target_squarediamonds.svg	12	yes	57	0	666	0	0			0	0			1				0	
6.6.1	win	2023-06-02	03:43:16	03:56:37	798224	63039dbefda87c47a91fec04	4	1	main_z	7	main_z	45	stimuli_distractor_trianglediamonds.svg	stimuli_distractor_trianglediamonds.svg	34	no	44	0	707	0	0			0	0			1				0	
6.6.1	win	2023-06-02	03:43:16	03:56:37	798224	63039dbefda87c47a91fec04	4	1	main_z	7	advance_on_keypress_ZEE	46	stimuli_distractor_trianglediamonds.svg	stimuli_distractor_trianglediamonds.svg	34	no	57	0	751	0	0			0	0			1				0	
6.6.1	win	2023-06-02	03:43:16	03:56:40	801620	63039dbefda87c47a91fec04	4	1	main_z	7	main_z	47	stimuli_distractor_trianglediamonds.svg	stimuli_distractor_diamondtriangles.svg	35	no	0	1	2000	0	0			0	0			1				0	
6.6.1	win	2023-06-02	03:43:16	03:56:40	801620	63039dbefda87c47a91fec04	4	1	main_z	7	advance_on_keypress_ZEE	48	stimuli_distractor_trianglediamonds.svg	stimuli_distractor_diamondtriangles.svg	35	no	57	0	923	0	0			0	0			1				0	
6.6.1	win	2023-06-02	03:43:16	03:56:43	803683	63039dbefda87c47a91fec04	4	1	main_z	7	main_z	49	stimuli_distractor_diamondtriangles.svg	stimuli_target_diamondrectangles.svg	31	yes	44	1	493	0	0			0	0			1				0	
6.6.1	win	2023-06-02	03:43:16	03:56:43	803683	63039dbefda87c47a91fec04	4	1	main_z	7	advance_on_keypress_ZEE	50	stimuli_distractor_diamondtriangles.svg	stimuli_target_diamondrectangles.svg	31	yes	57	0	619	0	0			0	0			1				0	
6.6.1	win	2023-06-02	03:43:16	03:56:44	805483	63039dbefda87c47a91fec04	4	1	main_z	7	main_z	51	stimuli_distractor_diamondtriangles.svg	stimuli_target_trianglerectangles.svg	29	yes	44	1	541	0	0			0	0			1				0	
6.6.1	win	2023-06-02	03:43:16	03:56:44	805483	63039dbefda87c47a91fec04	4	1	main_z	7	advance_on_keypress_ZEE	52	stimuli_distractor_diamondtriangles.svg	stimuli_target_trianglerectangles.svg	29	yes	57	0	583	0	0			0	0			1				0	
6.6.1	win	2023-06-02	03:43:16	03:56:46	807258	63039dbefda87c47a91fec04	4	1	main_z	7	main_z	53	stimuli_distractor_trianglediamonds.svg	stimuli_target_rectanglediamonds.svg	10	yes	44	1	548	0	0			0	0			1				0	
6.6.1	win	2023-06-02	03:43:16	03:56:46	807258	63039dbefda87c47a91fec04	4	1	main_z	7	advance_on_keypress_ZEE	54	stimuli_distractor_trianglediamonds.svg	stimuli_target_rectanglediamonds.svg	10	yes	57	0	545	0	0			0	0			1				0	
6.6.1	win	2023-06-02	03:43:16	03:56:48	809581	63039dbefda87c47a91fec04	4	1	main_z	7	main_z	55	stimuli_target_diamondsquares.svg	stimuli_distractor_diamondtriangles.svg	24	yes	44	1	1119	0	0			0	0			1				0	
6.6.1	win	2023-06-02	03:43:16	03:56:48	809581	63039dbefda87c47a91fec04	4	1	main_z	7	advance_on_keypress_ZEE	56	stimuli_target_diamondsquares.svg	stimuli_distractor_diamondtriangles.svg	24	yes	57	0	542	0	0			0	0			1				0	
6.6.1	win	2023-06-02	03:43:16	03:56:50	811445	63039dbefda87c47a91fec04	4	1	main_z	7	main_z	57	stimuli_distractor_diamondtriangles.svg	stimuli_target_squaretriangles.svg	15	yes	44	1	681	0	0			0	0			1				0	
6.6.1	win	2023-06-02	03:43:16	03:56:50	811445	63039dbefda87c47a91fec04	4	1	main_z	7	advance_on_keypress_ZEE	58	stimuli_distractor_diamondtriangles.svg	stimuli_target_squaretriangles.svg	15	yes	57	0	607	0	0			0	0			1				0	
6.6.1	win	2023-06-02	03:43:16	03:56:52	813399	63039dbefda87c47a91fec04	4	1	main_z	7	main_z	59	stimuli_distractor_diamondtriangles.svg	stimuli_target_squarediamonds.svg	16	yes	44	1	701	0	0			0	0			1				0	
6.6.1	win	2023-06-02	03:43:16	03:56:52	813399	63039dbefda87c47a91fec04	4	1	main_z	7	advance_on_keypress_ZEE	60	stimuli_distractor_diamondtriangles.svg	stimuli_target_squarediamonds.svg	16	yes	57	0	530	0	0			0	0			1				0	
6.6.1	win	2023-06-02	03:43:16	03:56:54	815214	63039dbefda87c47a91fec04	4	1	main_z	7	main_z	61	stimuli_distractor_diamondtriangles.svg	stimuli_target_trianglesquares.svg	30	yes	44	1	629	0	0			0	0			1				0	
6.6.1	win	2023-06-02	03:43:16	03:56:54	815214	63039dbefda87c47a91fec04	4	1	main_z	7	advance_on_keypress_ZEE	62	stimuli_distractor_diamondtriangles.svg	stimuli_target_trianglesquares.svg	30	yes	57	0	423	0	0			0	0			1				0	
6.6.1	win	2023-06-02	03:43:16	03:56:57	818286	63039dbefda87c47a91fec04	4	1	main_z	7	main_z	63	stimuli_distractor_trianglediamonds.svg	stimuli_distractor_trianglediamonds.svg	33	no	0	1	2000	0	0			0	0			1				0	
6.6.1	win	2023-06-02	03:43:16	03:56:57	818286	63039dbefda87c47a91fec04	4	1	main_z	7	advance_on_keypress_ZEE	64	stimuli_distractor_trianglediamonds.svg	stimuli_distractor_trianglediamonds.svg	33	no	57	0	661	0	0			0	0			1				0	
6.6.1	win	2023-06-02	03:43:16	03:56:59	820132	63039dbefda87c47a91fec04	4	1	main_z	7	main_z	65	stimuli_target_squarediamonds.svg	stimuli_distractor_trianglediamonds.svg	4	yes	44	1	525	0	0			0	0			1				0	
6.6.1	win	2023-06-02	03:43:16	03:56:59	820132	63039dbefda87c47a91fec04	4	1	main_z	7	advance_on_keypress_ZEE	66	stimuli_target_squarediamonds.svg	stimuli_distractor_trianglediamonds.svg	4	yes	57	0	578	0	0			0	0			1				0	
6.6.1	win	2023-06-02	03:43:16	03:57:01	821930	63039dbefda87c47a91fec04	4	1	main_z	7	main_z	67	stimuli_target_rectangletriangles.svg	stimuli_distractor_trianglediamonds.svg	1	yes	44	1	572	0	0			0	0			1				0	
6.6.1	win	2023-06-02	03:43:16	03:57:01	821930	63039dbefda87c47a91fec04	4	1	main_z	7	advance_on_keypress_ZEE	68	stimuli_target_rectangletriangles.svg	stimuli_distractor_trianglediamonds.svg	1	yes	57	0	549	0	0			0	0			1				0	
6.6.1	win	2023-06-02	03:43:16	03:57:03	823656	63039dbefda87c47a91fec04	4	1	main_z	7	main_z	69	stimuli_target_rectanglediamonds.svg	stimuli_distractor_trianglediamonds.svg	2	yes	44	1	529	0	0			0	0			1				0	
6.6.1	win	2023-06-02	03:43:16	03:57:03	823656	63039dbefda87c47a91fec04	4	1	main_z	7	advance_on_keypress_ZEE	70	stimuli_target_rectanglediamonds.svg	stimuli_distractor_trianglediamonds.svg	2	yes	57	0	479	0	0			0	0			1				0	
6.6.1	win	2023-06-02	03:43:16	03:57:04	825398	63039dbefda87c47a91fec04	4	1	main_z	7	main_z	71	stimuli_distractor_diamondtriangles.svg	stimuli_target_rectanglediamonds.svg	14	yes	44	1	603	0	0			0	0			1				0	
6.6.1	win	2023-06-02	03:43:16	03:57:04	825398	63039dbefda87c47a91fec04	4	1	main_z	7	advance_on_keypress_ZEE	72	stimuli_distractor_diamondtriangles.svg	stimuli_target_rectanglediamonds.svg	14	yes	57	0	482	0	0			0	0			1				0	
6.6.1	win	2023-06-02	03:43:16	03:57:07	828530	63039dbefda87c47a91fec04	4	1	main_z	7	main_z	73	stimuli_target_diamondrectangles.svg	stimuli_distractor_diamondtriangles.svg	23	yes	0	0	2000	0	0			0	0			1				0	
6.6.1	win	2023-06-02	03:43:16	03:57:07	828530	63039dbefda87c47a91fec04	4	1	main_z	7	advance_on_keypress_ZEE	74	stimuli_target_diamondrectangles.svg	stimuli_distractor_diamondtriangles.svg	23	yes	57	0	720	0	0			0	0			1				0	
6.6.1	win	2023-06-02	03:43:16	03:57:09	830512	63039dbefda87c47a91fec04	4	1	main_z	7	main_z	75	stimuli_distractor_trianglediamonds.svg	stimuli_target_diamondsquares.svg	28	yes	44	1	613	0	0			0	0			1				0	
6.6.1	win	2023-06-02	03:43:16	03:57:09	830512	63039dbefda87c47a91fec04	4	1	main_z	7	advance_on_keypress_ZEE	76	stimuli_distractor_trianglediamonds.svg	stimuli_target_diamondsquares.svg	28	yes	57	0	526	0	0			0	0			1				0	
6.6.1	win	2023-06-02	03:43:16	03:57:11	832201	63039dbefda87c47a91fec04	4	1	main_z	7	main_z	77	stimuli_target_squaretriangles.svg	stimuli_distractor_diamondtriangles.svg	7	yes	44	1	516	0	0			0	0			1				0	
6.6.1	win	2023-06-02	03:43:16	03:57:11	832201	63039dbefda87c47a91fec04	4	1	main_z	7	advance_on_keypress_ZEE	78	stimuli_target_squaretriangles.svg	stimuli_distractor_diamondtriangles.svg	7	yes	57	0	527	0	0			0	0			1				0	
6.6.1	win	2023-06-02	03:43:16	03:57:14	835387	63039dbefda87c47a91fec04	4	1	main_z	7	main_z	79	stimuli_distractor_diamondtriangles.svg	stimuli_distractor_diamondtriangles.svg	39	no	0	1	2000	0	0			0	0			1				0	
6.6.1	win	2023-06-02	03:43:16	03:57:14	835387	63039dbefda87c47a91fec04	4	1	main_z	7	advance_on_keypress_ZEE	80	stimuli_distractor_diamondtriangles.svg	stimuli_distractor_diamondtriangles.svg	39	no	57	0	915	0	0			0	0			1				0	
6.6.1	win	2023-06-02	03:43:16	03:57:16	837586	63039dbefda87c47a91fec04	4	1	main_z	7	main_z	81	stimuli_target_diamondsquares.svg	stimuli_distractor_diamondtriangles.svg	24	yes	44	1	629	0	0			0	0			1				0	
6.6.1	win	2023-06-02	03:43:16	03:57:16	837586	63039dbefda87c47a91fec04	4	1	main_z	7	advance_on_keypress_ZEE	82	stimuli_target_diamondsquares.svg	stimuli_distractor_diamondtriangles.svg	24	yes	57	0	502	0	0			0	0			1				0	
6.6.1	win	2023-06-02	03:43:16	03:57:18	839287	63039dbefda87c47a91fec04	4	1	main_z	7	main_z	83	stimuli_target_diamondrectangles.svg	stimuli_distractor_diamondtriangles.svg	23	yes	44	1	545	0	0			0	0			1				0	
6.6.1	win	2023-06-02	03:43:16	03:57:18	839287	63039dbefda87c47a91fec04	4	1	main_z	7	advance_on_keypress_ZEE	84	stimuli_target_diamondrectangles.svg	stimuli_distractor_diamondtriangles.svg	23	yes	57	0	511	0	0			0	0			1				0	
6.6.1	win	2023-06-02	03:43:16	03:57:20	841167	63039dbefda87c47a91fec04	4	1	main_z	7	main_z	85	stimuli_distractor_diamondtriangles.svg	stimuli_distractor_diamondtriangles.svg	40	no	44	0	740	0	0			0	0			1				0	
6.6.1	win	2023-06-02	03:43:16	03:57:20	841167	63039dbefda87c47a91fec04	4	1	main_z	7	advance_on_keypress_ZEE	86	stimuli_distractor_diamondtriangles.svg	stimuli_distractor_diamondtriangles.svg	40	no	57	0	778	0	0			0	0			1				0	
6.6.1	win	2023-06-02	03:43:16	03:57:22	843153	63039dbefda87c47a91fec04	4	1	main_z	7	main_z	87	stimuli_target_squaretriangles.svg	stimuli_distractor_diamondtriangles.svg	7	yes	44	1	557	0	0			0	0			1				0	
6.6.1	win	2023-06-02	03:43:16	03:57:22	843153	63039dbefda87c47a91fec04	4	1	main_z	7	advance_on_keypress_ZEE	88	stimuli_target_squaretriangles.svg	stimuli_distractor_diamondtriangles.svg	7	yes	57	0	516	0	0			0	0			1				0	
6.6.1	win	2023-06-02	03:43:16	03:57:25	846314	63039dbefda87c47a91fec04	4	1	main_z	7	main_z	89	stimuli_distractor_trianglediamonds.svg	stimuli_distractor_trianglediamonds.svg	33	no	0	1	2000	0	0			0	0			1				0	
6.6.1	win	2023-06-02	03:43:16	03:57:25	846314	63039dbefda87c47a91fec04	4	1	main_z	7	advance_on_keypress_ZEE	90	stimuli_distractor_trianglediamonds.svg	stimuli_distractor_trianglediamonds.svg	33	no	57	0	633	0	0			0	0			1				0	
6.6.1	win	2023-06-02	03:43:16	03:57:27	848142	63039dbefda87c47a91fec04	4	1	main_z	7	main_z	91	stimuli_target_rectangletriangles.svg	stimuli_distractor_diamondtriangles.svg	5	yes	44	1	542	0	0			0	0			1				0	
6.6.1	win	2023-06-02	03:43:16	03:57:27	848142	63039dbefda87c47a91fec04	4	1	main_z	7	advance_on_keypress_ZEE	92	stimuli_target_rectangletriangles.svg	stimuli_distractor_diamondtriangles.svg	5	yes	57	0	479	0	0			0	0			1				0	
6.6.1	win	2023-06-02	03:43:16	03:57:29	849891	63039dbefda87c47a91fec04	4	1	main_z	7	main_z	93	stimuli_target_squarediamonds.svg	stimuli_distractor_diamondtriangles.svg	8	yes	44	1	622	0	0			0	0			1				0	
6.6.1	win	2023-06-02	03:43:16	03:57:29	849891	63039dbefda87c47a91fec04	4	1	main_z	7	advance_on_keypress_ZEE	94	stimuli_target_squarediamonds.svg	stimuli_distractor_diamondtriangles.svg	8	yes	57	0	577	0	0			0	0			1				0	
6.6.1	win	2023-06-02	03:43:16	03:57:31	851724	63039dbefda87c47a91fec04	4	1	main_z	7	main_z	95	stimuli_distractor_trianglediamonds.svg	stimuli_target_rectanglediamonds.svg	10	yes	44	1	620	0	0			0	0			1				0	
6.6.1	win	2023-06-02	03:43:16	03:57:31	851724	63039dbefda87c47a91fec04	4	1	main_z	7	advance_on_keypress_ZEE	96	stimuli_distractor_trianglediamonds.svg	stimuli_target_rectanglediamonds.svg	10	yes	57	0	514	0	0			0	0			1				0	
6.6.1	win	2023-06-02	03:43:16	03:57:34	854889	63039dbefda87c47a91fec04	4	1	main_z	7	main_z	97	stimuli_distractor_diamondtriangles.svg	stimuli_distractor_trianglediamonds.svg	37	no	0	1	2000	0	0			0	0			1				0	
6.6.1	win	2023-06-02	03:43:16	03:57:34	854889	63039dbefda87c47a91fec04	4	1	main_z	7	advance_on_keypress_ZEE	98	stimuli_distractor_diamondtriangles.svg	stimuli_distractor_trianglediamonds.svg	37	no	57	0	653	0	0			0	0			1				0	
6.6.1	win	2023-06-02	03:43:16	03:57:36	856774	63039dbefda87c47a91fec04	4	1	main_z	7	main_z	99	stimuli_distractor_diamondtriangles.svg	stimuli_target_diamondrectangles.svg	31	yes	44	1	581	0	0			0	0			1				0	
6.6.1	win	2023-06-02	03:43:16	03:57:36	856774	63039dbefda87c47a91fec04	4	1	main_z	7	advance_on_keypress_ZEE	100	stimuli_distractor_diamondtriangles.svg	stimuli_target_diamondrectangles.svg	31	yes	57	0	538	0	0			0	0			1				0	
6.6.1	win	2023-06-02	03:43:16	03:57:37	858509	63039dbefda87c47a91fec04	4	1	main_z	7	main_z	101	stimuli_target_rectanglediamonds.svg	stimuli_distractor_trianglediamonds.svg	2	yes	44	1	548	0	0			0	0			1				0	
6.6.1	win	2023-06-02	03:43:16	03:57:37	858509	63039dbefda87c47a91fec04	4	1	main_z	7	advance_on_keypress_ZEE	102	stimuli_target_rectanglediamonds.svg	stimuli_distractor_trianglediamonds.svg	2	yes	57	0	444	0	0			0	0			1				0	
6.6.1	win	2023-06-02	03:43:16	03:57:39	860193	63039dbefda87c47a91fec04	4	1	main_z	7	main_z	103	stimuli_target_squarediamonds.svg	stimuli_distractor_trianglediamonds.svg	4	yes	44	1	598	0	0			0	0			1				0	
6.6.1	win	2023-06-02	03:43:16	03:57:39	860193	63039dbefda87c47a91fec04	4	1	main_z	7	advance_on_keypress_ZEE	104	stimuli_target_squarediamonds.svg	stimuli_distractor_trianglediamonds.svg	4	yes	57	0	514	0	0			0	0			1				0	
6.6.1	win	2023-06-02	03:43:16	03:57:41	861982	63039dbefda87c47a91fec04	4	1	main_z	7	main_z	105	stimuli_distractor_trianglediamonds.svg	stimuli_target_squaretriangles.svg	11	yes	44	1	617	0	0			0	0			1				0	
6.6.1	win	2023-06-02	03:43:16	03:57:41	861982	63039dbefda87c47a91fec04	4	1	main_z	7	advance_on_keypress_ZEE	106	stimuli_distractor_trianglediamonds.svg	stimuli_target_squaretriangles.svg	11	yes	57	0	485	0	0			0	0			1				0	
6.6.1	win	2023-06-02	03:43:16	03:57:43	863782	63039dbefda87c47a91fec04	4	1	main_z	7	main_z	107	stimuli_target_rectanglediamonds.svg	stimuli_distractor_diamondtriangles.svg	6	yes	44	1	666	0	0			0	0			1				0	
6.6.1	win	2023-06-02	03:43:16	03:57:43	863782	63039dbefda87c47a91fec04	4	1	main_z	7	advance_on_keypress_ZEE	108	stimuli_target_rectanglediamonds.svg	stimuli_distractor_diamondtriangles.svg	6	yes	57	0	427	0	0			0	0			1				0	
6.6.1	win	2023-06-02	03:43:16	03:57:44	865446	63039dbefda87c47a91fec04	4	1	main_z	7	main_z	109	stimuli_distractor_trianglediamonds.svg	stimuli_target_diamondsquares.svg	28	yes	44	1	595	0	0			0	0			1				0	
6.6.1	win	2023-06-02	03:43:16	03:57:44	865446	63039dbefda87c47a91fec04	4	1	main_z	7	advance_on_keypress_ZEE	110	stimuli_distractor_trianglediamonds.svg	stimuli_target_diamondsquares.svg	28	yes	57	0	469	0	0			0	0			1				0	
6.6.1	win	2023-06-02	03:43:16	03:57:46	867101	63039dbefda87c47a91fec04	4	1	main_z	7	main_z	111	stimuli_distractor_diamondtriangles.svg	stimuli_target_squaretriangles.svg	15	yes	44	1	548	0	0			0	0			1				0	
6.6.1	win	2023-06-02	03:43:16	03:57:46	867101	63039dbefda87c47a91fec04	4	1	main_z	7	advance_on_keypress_ZEE	112	stimuli_distractor_diamondtriangles.svg	stimuli_target_squaretriangles.svg	15	yes	57	0	452	0	0			0	0			1				0	
6.6.1	win	2023-06-02	03:43:16	03:57:48	868796	63039dbefda87c47a91fec04	4	1	main_z	7	main_z	113	stimuli_distractor_trianglediamonds.svg	stimuli_target_trianglerectangles.svg	25	yes	44	1	591	0	0			0	0			1				0	
6.6.1	win	2023-06-02	03:43:16	03:57:48	868796	63039dbefda87c47a91fec04	4	1	main_z	7	advance_on_keypress_ZEE	114	stimuli_distractor_trianglediamonds.svg	stimuli_target_trianglerectangles.svg	25	yes	57	0	429	0	0			0	0			1				0	
6.6.1	win	2023-06-02	03:43:16	03:57:49	870487	63039dbefda87c47a91fec04	4	1	main_z	7	main_z	115	stimuli_target_diamondsquares.svg	stimuli_distractor_trianglediamonds.svg	20	yes	44	1	614	0	0			0	0			1				0	
6.6.1	win	2023-06-02	03:43:16	03:57:49	870487	63039dbefda87c47a91fec04	4	1	main_z	7	advance_on_keypress_ZEE	116	stimuli_target_diamondsquares.svg	stimuli_distractor_trianglediamonds.svg	20	yes	57	0	495	0	0			0	0			1				0	
6.6.1	win	2023-06-02	03:43:16	03:57:51	872242	63039dbefda87c47a91fec04	4	1	main_z	7	main_z	117	stimuli_distractor_trianglediamonds.svg	stimuli_target_squarediamonds.svg	12	yes	44	1	599	0	0			0	0			1				0	
6.6.1	win	2023-06-02	03:43:16	03:57:51	872242	63039dbefda87c47a91fec04	4	1	main_z	7	advance_on_keypress_ZEE	118	stimuli_distractor_trianglediamonds.svg	stimuli_target_squarediamonds.svg	12	yes	57	0	551	0	0			0	0			1				0	
6.6.1	win	2023-06-02	03:43:16	03:57:53	874069	63039dbefda87c47a91fec04	4	1	main_z	7	main_z	119	stimuli_distractor_diamondtriangles.svg	stimuli_target_trianglerectangles.svg	29	yes	44	1	626	0	0			0	0			1				0	
6.6.1	win	2023-06-02	03:43:16	03:57:53	874069	63039dbefda87c47a91fec04	4	1	main_z	7	advance_on_keypress_ZEE	120	stimuli_distractor_diamondtriangles.svg	stimuli_target_trianglerectangles.svg	29	yes	57	0	430	0	0			0	0			1				0	
6.6.1	win	2023-06-02	03:43:16	03:57:55	875814	63039dbefda87c47a91fec04	4	1	main_z	7	main_z	121	stimuli_target_diamondrectangles.svg	stimuli_distractor_trianglediamonds.svg	19	yes	44	1	669	0	0			0	0			1				0	
6.6.1	win	2023-06-02	03:43:16	03:57:55	875814	63039dbefda87c47a91fec04	4	1	main_z	7	advance_on_keypress_ZEE	122	stimuli_target_diamondrectangles.svg	stimuli_distractor_trianglediamonds.svg	19	yes	57	0	405	0	0			0	0			1				0	
6.6.1	win	2023-06-02	03:43:16	03:57:56	877402	63039dbefda87c47a91fec04	4	1	main_z	7	main_z	123	stimuli_distractor_trianglediamonds.svg	stimuli_target_trianglesquares.svg	26	yes	44	1	539	0	0			0	0			1				0	
6.6.1	win	2023-06-02	03:43:16	03:57:56	877402	63039dbefda87c47a91fec04	4	1	main_z	7	advance_on_keypress_ZEE	124	stimuli_distractor_trianglediamonds.svg	stimuli_target_trianglesquares.svg	26	yes	57	0	416	0	0			0	0			1				0	
6.6.1	win	2023-06-02	03:43:16	03:57:59	880465	63039dbefda87c47a91fec04	4	1	main_z	7	main_z	125	stimuli_distractor_trianglediamonds.svg	stimuli_distractor_trianglediamonds.svg	34	no	0	1	2000	0	0			0	0			1				0	
6.6.1	win	2023-06-02	03:43:16	03:57:59	880465	63039dbefda87c47a91fec04	4	1	main_z	7	advance_on_keypress_ZEE	126	stimuli_distractor_trianglediamonds.svg	stimuli_distractor_trianglediamonds.svg	34	no	57	0	660	0	0			0	0			1				0	
6.6.1	win	2023-06-02	03:43:16	03:58:03	883768	63039dbefda87c47a91fec04	4	1	main_z	7	main_z	127	stimuli_distractor_diamondtriangles.svg	stimuli_distractor_trianglediamonds.svg	38	no	0	1	2000	0	0			0	0			1				0	
6.6.1	win	2023-06-02	03:43:16	03:58:03	883768	63039dbefda87c47a91fec04	4	1	main_z	7	advance_on_keypress_ZEE	128	stimuli_distractor_diamondtriangles.svg	stimuli_distractor_trianglediamonds.svg	38	no	57	0	907	0	0			0	0			1				0	
6.6.1	win	2023-06-02	03:43:16	03:58:05	885811	63039dbefda87c47a91fec04	4	1	main_z	7	main_z	129	stimuli_distractor_diamondtriangles.svg	stimuli_target_trianglesquares.svg	30	yes	44	1	489	0	0			0	0			1				0	
6.6.1	win	2023-06-02	03:43:16	03:58:05	885811	63039dbefda87c47a91fec04	4	1	main_z	7	advance_on_keypress_ZEE	130	stimuli_distractor_diamondtriangles.svg	stimuli_target_trianglesquares.svg	30	yes	57	0	539	0	0			0	0			1				0	
6.6.1	win	2023-06-02	03:43:16	03:58:06	887436	63039dbefda87c47a91fec04	4	1	main_z	7	main_z	131	stimuli_distractor_diamondtriangles.svg	stimuli_target_squarediamonds.svg	16	yes	44	1	446	0	0			0	0			1				0	
6.6.1	win	2023-06-02	03:43:16	03:58:06	887436	63039dbefda87c47a91fec04	4	1	main_z	7	advance_on_keypress_ZEE	132	stimuli_distractor_diamondtriangles.svg	stimuli_target_squarediamonds.svg	16	yes	57	0	430	0	0			0	0			1				0	
6.6.1	win	2023-06-02	03:43:16	03:58:08	889093	63039dbefda87c47a91fec04	4	1	main_z	7	main_z	133	stimuli_distractor_trianglediamonds.svg	stimuli_target_rectangletriangles.svg	9	yes	44	1	568	0	0			0	0			1				0	
6.6.1	win	2023-06-02	03:43:16	03:58:08	889093	63039dbefda87c47a91fec04	4	1	main_z	7	advance_on_keypress_ZEE	134	stimuli_distractor_trianglediamonds.svg	stimuli_target_rectangletriangles.svg	9	yes	57	0	535	0	0			0	0			1				0	
6.6.1	win	2023-06-02	03:43:16	03:58:10	890822	63039dbefda87c47a91fec04	4	1	main_z	7	main_z	135	stimuli_distractor_diamondtriangles.svg	stimuli_target_rectanglediamonds.svg	14	yes	44	1	545	0	0			0	0			1				0	
6.6.1	win	2023-06-02	03:43:16	03:58:10	890822	63039dbefda87c47a91fec04	4	1	main_z	7	advance_on_keypress_ZEE	136	stimuli_distractor_diamondtriangles.svg	stimuli_target_rectanglediamonds.svg	14	yes	57	0	436	0	0			0	0			1				0	
6.6.1	win	2023-06-02	03:43:16	03:58:11	892390	63039dbefda87c47a91fec04	4	1	main_z	7	main_z	137	stimuli_target_rectangletriangles.svg	stimuli_distractor_trianglediamonds.svg	1	yes	44	1	478	0	0			0	0			1				0	
6.6.1	win	2023-06-02	03:43:16	03:58:11	892390	63039dbefda87c47a91fec04	4	1	main_z	7	advance_on_keypress_ZEE	138	stimuli_target_rectangletriangles.svg	stimuli_distractor_trianglediamonds.svg	1	yes	57	0	533	0	0			0	0			1				0	
6.6.1	win	2023-06-02	03:43:16	03:58:13	894050	63039dbefda87c47a91fec04	4	1	main_z	7	main_z	139	stimuli_target_squaretriangles.svg	stimuli_distractor_trianglediamonds.svg	3	yes	44	1	470	0	0			0	0			1				0	
6.6.1	win	2023-06-02	03:43:16	03:58:13	894050	63039dbefda87c47a91fec04	4	1	main_z	7	advance_on_keypress_ZEE	140	stimuli_target_squaretriangles.svg	stimuli_distractor_trianglediamonds.svg	3	yes	57	0	472	0	0			0	0			1				0	
6.6.1	win	2023-06-02	03:43:16	03:58:15	895685	63039dbefda87c47a91fec04	4	1	main_z	7	main_z	141	stimuli_distractor_diamondtriangles.svg	stimuli_target_rectangletriangles.svg	13	yes	44	1	520	0	0			0	0			1				0	
6.6.1	win	2023-06-02	03:43:16	03:58:15	895685	63039dbefda87c47a91fec04	4	1	main_z	7	advance_on_keypress_ZEE	142	stimuli_distractor_diamondtriangles.svg	stimuli_target_rectangletriangles.svg	13	yes	57	0	397	0	0			0	0			1				0	
6.6.1	win	2023-06-02	03:43:16	03:58:16	897269	63039dbefda87c47a91fec04	4	1	main_z	7	main_z	143	stimuli_distractor_trianglediamonds.svg	stimuli_target_diamondrectangles.svg	27	yes	44	1	536	0	0			0	0			1				0	
6.6.1	win	2023-06-02	03:43:16	03:58:16	897269	63039dbefda87c47a91fec04	4	1	main_z	7	advance_on_keypress_ZEE	144	stimuli_distractor_trianglediamonds.svg	stimuli_target_diamondrectangles.svg	27	yes	57	0	389	0	0			0	0			1				0	
6.6.1	win	2023-06-02	03:43:16	03:58:18	898882	63039dbefda87c47a91fec04	4	1	main_z	7	main_z	145	stimuli_target_trianglerectangles.svg	stimuli_distractor_trianglediamonds.svg	17	yes	44	1	581	0	0			0	0			1				0	
6.6.1	win	2023-06-02	03:43:16	03:58:18	898882	63039dbefda87c47a91fec04	4	1	main_z	7	advance_on_keypress_ZEE	146	stimuli_target_trianglerectangles.svg	stimuli_distractor_trianglediamonds.svg	17	yes	57	0	452	0	0			0	0			1				0	
6.6.1	win	2023-06-02	03:43:16	03:58:19	900493	63039dbefda87c47a91fec04	4	1	main_z	7	main_z	147	stimuli_target_trianglesquares.svg	stimuli_distractor_trianglediamonds.svg	18	yes	44	1	505	0	0			0	0			1				0	
6.6.1	win	2023-06-02	03:43:16	03:58:19	900493	63039dbefda87c47a91fec04	4	1	main_z	7	advance_on_keypress_ZEE	148	stimuli_target_trianglesquares.svg	stimuli_distractor_trianglediamonds.svg	18	yes	57	0	546	0	0			0	0			1				0	
6.6.1	win	2023-06-02	03:43:16	03:58:21	902185	63039dbefda87c47a91fec04	4	1	main_z	7	main_z	149	stimuli_target_trianglerectangles.svg	stimuli_distractor_diamondtriangles.svg	21	yes	44	1	497	0	0			0	0			1				0	
6.6.1	win	2023-06-02	03:43:16	03:58:21	902185	63039dbefda87c47a91fec04	4	1	main_z	7	advance_on_keypress_ZEE	150	stimuli_target_trianglerectangles.svg	stimuli_distractor_diamondtriangles.svg	21	yes	57	0	597	0	0			0	0			1				0	
6.6.1	win	2023-06-02	03:43:16	03:58:24	905440	63039dbefda87c47a91fec04	4	1	main_z	7	main_z	151	stimuli_distractor_diamondtriangles.svg	stimuli_distractor_diamondtriangles.svg	39	no	0	1	2000	0	0			0	0			1				0	
6.6.1	win	2023-06-02	03:43:16	03:58:24	905440	63039dbefda87c47a91fec04	4	1	main_z	7	advance_on_keypress_ZEE	152	stimuli_distractor_diamondtriangles.svg	stimuli_distractor_diamondtriangles.svg	39	no	57	0	549	0	0			0	0			1				0	
6.6.1	win	2023-06-02	03:43:16	03:58:28	908643	63039dbefda87c47a91fec04	4	1	main_z	7	main_z	153	stimuli_distractor_trianglediamonds.svg	stimuli_distractor_diamondtriangles.svg	35	no	0	1	2000	0	0			0	0			1				0	
6.6.1	win	2023-06-02	03:43:16	03:58:28	908643	63039dbefda87c47a91fec04	4	1	main_z	7	advance_on_keypress_ZEE	154	stimuli_distractor_trianglediamonds.svg	stimuli_distractor_diamondtriangles.svg	35	no	57	0	821	0	0			0	0			1				0	
6.6.1	win	2023-06-02	03:43:16	03:58:29	910476	63039dbefda87c47a91fec04	4	1	main_z	7	main_z	155	stimuli_distractor_diamondtriangles.svg	stimuli_target_diamondsquares.svg	32	yes	44	1	364	0	0			0	0			1				0	
6.6.1	win	2023-06-02	03:43:16	03:58:29	910476	63039dbefda87c47a91fec04	4	1	main_z	7	advance_on_keypress_ZEE	156	stimuli_distractor_diamondtriangles.svg	stimuli_target_diamondsquares.svg	32	yes	57	0	700	0	0			0	0			1				0	
6.6.1	win	2023-06-02	03:43:16	03:58:31	912392	63039dbefda87c47a91fec04	4	1	main_z	7	main_z	157	stimuli_target_trianglesquares.svg	stimuli_distractor_diamondtriangles.svg	22	yes	44	1	561	0	0			0	0			1				0	
6.6.1	win	2023-06-02	03:43:16	03:58:31	912392	63039dbefda87c47a91fec04	4	1	main_z	7	advance_on_keypress_ZEE	158	stimuli_target_trianglesquares.svg	stimuli_distractor_diamondtriangles.svg	22	yes	57	0	577	0	0			0	0			1				0	
6.6.1	win	2023-06-02	03:43:16	03:58:34	915600	63039dbefda87c47a91fec04	4	1	main_z	7	main_z	159	stimuli_distractor_trianglediamonds.svg	stimuli_distractor_diamondtriangles.svg	36	no	0	1	2000	0	0			0	0			1				0	
6.6.1	win	2023-06-02	03:43:16	03:58:34	915600	63039dbefda87c47a91fec04	4	1	main_z	7	advance_on_keypress_ZEE	160	stimuli_distractor_trianglediamonds.svg	stimuli_distractor_diamondtriangles.svg	36	no	57	0	949	0	0			0	0			1				0	
6.6.1	win	2023-06-02	03:43:16	04:00:43	1044543	63039dbefda87c47a91fec04	4	1	practice_slash	9	practice_slash	1	stimuli_target_rectanglediamonds.svg	stimuli_distractor_trianglediamonds.svg	4	yes	53	1	380	0	0			0	0			1				0	
6.6.1	win	2023-06-02	03:43:16	04:00:43	1044543	63039dbefda87c47a91fec04	4	1	practice_slash	9	advance_on_keypress_SLASH	2	stimuli_target_rectanglediamonds.svg	stimuli_distractor_trianglediamonds.svg	4	yes	57	0	597	0	0			0	0			1				0	
6.6.1	win	2023-06-02	03:43:16	04:00:46	1047143	63039dbefda87c47a91fec04	4	1	practice_slash	9	practice_slash	3	stimuli_distractor_trianglediamonds.svg	stimuli_target_diamondrectangles.svg	12	yes	53	1	344	0	0			0	0			1				0	
6.6.1	win	2023-06-02	03:43:16	04:00:46	1047143	63039dbefda87c47a91fec04	4	1	practice_slash	9	advance_on_keypress_SLASH	4	stimuli_distractor_trianglediamonds.svg	stimuli_target_diamondrectangles.svg	12	yes	57	0	23	0	0			0	0			1				0	
6.6.1	win	2023-06-02	03:43:16	04:00:48	1049259	63039dbefda87c47a91fec04	4	1	practice_slash	9	practice_slash	5	stimuli_distractor_diamondtriangles.svg	stimuli_distractor_diamondtriangles.svg	13	no	53	0	441	0	0			0	0			1				0	
6.6.1	win	2023-06-02	03:43:16	04:00:48	1049259	63039dbefda87c47a91fec04	4	1	practice_slash	9	advance_on_keypress_SLASH	6	stimuli_distractor_diamondtriangles.svg	stimuli_distractor_diamondtriangles.svg	13	no	57	0	801	0	0			0	0			1				0	
6.6.1	win	2023-06-02	03:43:16	04:00:51	1051988	63039dbefda87c47a91fec04	4	1	practice_slash	9	practice_slash	7	stimuli_target_diamondsquares.svg	stimuli_distractor_trianglediamonds.svg	6	yes	53	1	283	0	0			0	0			1				0	
6.6.1	win	2023-06-02	03:43:16	04:00:51	1051988	63039dbefda87c47a91fec04	4	1	practice_slash	9	advance_on_keypress_SLASH	8	stimuli_target_diamondsquares.svg	stimuli_distractor_trianglediamonds.svg	6	yes	57	0	640	0	0			0	0			1				0	
6.6.1	win	2023-06-02	03:43:16	04:00:54	1054714	63039dbefda87c47a91fec04	4	1	practice_slash	9	practice_slash	9	stimuli_distractor_trianglediamonds.svg	stimuli_target_squarediamonds.svg	11	yes	53	1	440	0	0			0	0			1				0	
6.6.1	win	2023-06-02	03:43:16	04:00:54	1054714	63039dbefda87c47a91fec04	4	1	practice_slash	9	advance_on_keypress_SLASH	10	stimuli_distractor_trianglediamonds.svg	stimuli_target_squarediamonds.svg	11	yes	57	0	577	0	0			0	0			1				0	
6.6.1	win	2023-06-02	03:43:16	04:00:58	1058944	63039dbefda87c47a91fec04	4	1	practice_slash	9	practice_slash	11	stimuli_distractor_trianglediamonds.svg	stimuli_distractor_trianglediamonds.svg	15	no	0	1	2000	0	0			0	0			1				0	
6.6.1	win	2023-06-02	03:43:16	04:00:58	1058944	63039dbefda87c47a91fec04	4	1	practice_slash	9	advance_on_keypress_SLASH	12	stimuli_distractor_trianglediamonds.svg	stimuli_distractor_trianglediamonds.svg	15	no	57	0	352	0	0			0	0			1				0	
6.6.1	win	2023-06-02	03:43:16	04:01:00	1061388	63039dbefda87c47a91fec04	4	1	practice_slash	9	practice_slash	13	stimuli_distractor_diamondtriangles.svg	stimuli_target_rectangletriangles.svg	7	yes	53	1	441	0	0			0	0			1				0	
6.6.1	win	2023-06-02	03:43:16	04:01:00	1061388	63039dbefda87c47a91fec04	4	1	practice_slash	9	advance_on_keypress_SLASH	14	stimuli_distractor_diamondtriangles.svg	stimuli_target_rectangletriangles.svg	7	yes	57	0	667	0	0			0	0			1				0	
6.6.1	win	2023-06-02	03:43:16	04:01:03	1064143	63039dbefda87c47a91fec04	4	1	practice_slash	9	practice_slash	15	stimuli_target_squarediamonds.svg	stimuli_distractor_diamondtriangles.svg	2	yes	53	1	442	0	0			0	0			1				0	
6.6.1	win	2023-06-02	03:43:16	04:01:03	1064143	63039dbefda87c47a91fec04	4	1	practice_slash	9	advance_on_keypress_SLASH	16	stimuli_target_squarediamonds.svg	stimuli_distractor_diamondtriangles.svg	2	yes	57	0	803	0	0			0	0			1				0	
6.6.1	win	2023-06-02	03:43:16	04:01:06	1066963	63039dbefda87c47a91fec04	4	1	practice_slash	9	practice_slash	17	stimuli_distractor_trianglediamonds.svg	stimuli_target_rectanglediamonds.svg	10	yes	53	1	376	0	0			0	0			1				0	
6.6.1	win	2023-06-02	03:43:16	04:01:06	1066963	63039dbefda87c47a91fec04	4	1	practice_slash	9	advance_on_keypress_SLASH	18	stimuli_distractor_trianglediamonds.svg	stimuli_target_rectanglediamonds.svg	10	yes	57	0	767	0	0			0	0			1				0	
6.6.1	win	2023-06-02	03:43:16	04:01:09	1069752	63039dbefda87c47a91fec04	4	1	practice_slash	9	practice_slash	19	stimuli_distractor_diamondtriangles.svg	stimuli_target_diamondrectangles.svg	8	yes	53	1	379	0	0			0	0			1				0	
6.6.1	win	2023-06-02	03:43:16	04:01:09	1069752	63039dbefda87c47a91fec04	4	1	practice_slash	9	advance_on_keypress_SLASH	20	stimuli_distractor_diamondtriangles.svg	stimuli_target_diamondrectangles.svg	8	yes	57	0	641	0	0			0	0			1				0	
6.6.1	win	2023-06-02	03:43:16	04:01:13	1074041	63039dbefda87c47a91fec04	4	1	practice_slash	9	practice_slash	21	stimuli_distractor_diamondtriangles.svg	stimuli_distractor_trianglediamonds.svg	14	no	0	1	2000	0	0			0	0			1				0	
6.6.1	win	2023-06-02	03:43:16	04:01:13	1074041	63039dbefda87c47a91fec04	4	1	practice_slash	9	advance_on_keypress_SLASH	22	stimuli_distractor_diamondtriangles.svg	stimuli_distractor_trianglediamonds.svg	14	no	57	0	2643	0	0			0	0			1				0	
6.6.1	win	2023-06-02	03:43:16	04:01:18	1078839	63039dbefda87c47a91fec04	4	1	practice_slash	9	practice_slash	23	stimuli_target_diamondsquares.svg	stimuli_distractor_diamondtriangles.svg	3	yes	53	1	505	0	0			0	0			1				0	
6.6.1	win	2023-06-02	03:43:16	04:01:18	1078839	63039dbefda87c47a91fec04	4	1	practice_slash	9	advance_on_keypress_SLASH	24	stimuli_target_diamondsquares.svg	stimuli_distractor_diamondtriangles.svg	3	yes	57	0	4146	0	0			0	0			1				0	
6.6.1	win	2023-06-02	03:43:16	04:01:24	1085156	63039dbefda87c47a91fec04	4	1	practice_slash	9	practice_slash	25	stimuli_distractor_trianglediamonds.svg	stimuli_distractor_diamondtriangles.svg	16	no	53	0	518	0	0			0	0			1				0	
6.6.1	win	2023-06-02	03:43:16	04:01:24	1085156	63039dbefda87c47a91fec04	4	1	practice_slash	9	advance_on_keypress_SLASH	26	stimuli_distractor_trianglediamonds.svg	stimuli_distractor_diamondtriangles.svg	16	no	57	0	1007	0	0			0	0			1				0	
6.6.1	win	2023-06-02	03:43:16	04:01:27	1088255	63039dbefda87c47a91fec04	4	1	practice_slash	9	practice_slash	27	stimuli_target_squarediamonds.svg	stimuli_distractor_trianglediamonds.svg	5	yes	53	1	448	0	0			0	0			1				0	
6.6.1	win	2023-06-02	03:43:16	04:01:27	1088255	63039dbefda87c47a91fec04	4	1	practice_slash	9	advance_on_keypress_SLASH	28	stimuli_target_squarediamonds.svg	stimuli_distractor_trianglediamonds.svg	5	yes	57	0	1003	0	0			0	0			1				0	
6.6.1	win	2023-06-02	03:43:16	04:01:30	1091296	63039dbefda87c47a91fec04	4	1	practice_slash	9	practice_slash	29	stimuli_distractor_diamondtriangles.svg	stimuli_target_trianglerectangles.svg	9	yes	53	1	385	0	0			0	0			1				0	
6.6.1	win	2023-06-02	03:43:16	04:01:30	1091296	63039dbefda87c47a91fec04	4	1	practice_slash	9	advance_on_keypress_SLASH	30	stimuli_distractor_diamondtriangles.svg	stimuli_target_trianglerectangles.svg	9	yes	57	0	2359	0	0			0	0			1				0	
6.6.1	win	2023-06-02	03:43:16	04:01:35	1095709	63039dbefda87c47a91fec04	4	1	practice_slash	9	practice_slash	31	stimuli_target_rectanglediamonds.svg	stimuli_distractor_diamondtriangles.svg	1	yes	53	1	410	0	0			0	0			1				0	
6.6.1	win	2023-06-02	03:43:16	04:01:35	1095709	63039dbefda87c47a91fec04	4	1	practice_slash	9	advance_on_keypress_SLASH	32	stimuli_target_rectanglediamonds.svg	stimuli_distractor_diamondtriangles.svg	1	yes	57	0	2771	0	0			0	0			1				0	
6.6.1	win	2023-06-02	03:43:16	04:03:08	1188912	63039dbefda87c47a91fec04	4	1	main_slash	11	main_slash	1	stimuli_target_squarediamonds.svg	stimuli_distractor_trianglediamonds.svg	4	yes	53	1	355	0	0			0	0			1				0	
6.6.1	win	2023-06-02	03:43:16	04:03:08	1188912	63039dbefda87c47a91fec04	4	1	main_slash	11	advance_on_keypress_SLASH	2	stimuli_target_squarediamonds.svg	stimuli_distractor_trianglediamonds.svg	4	yes	57	0	1147	0	0			0	0			1				0	
6.6.1	win	2023-06-02	03:43:16	04:03:10	1191231	63039dbefda87c47a91fec04	4	1	main_slash	11	main_slash	3	stimuli_distractor_trianglediamonds.svg	stimuli_target_trianglerectangles.svg	25	yes	53	1	521	0	0			0	0			1				0	
6.6.1	win	2023-06-02	03:43:16	04:03:10	1191231	63039dbefda87c47a91fec04	4	1	main_slash	11	advance_on_keypress_SLASH	4	stimuli_distractor_trianglediamonds.svg	stimuli_target_trianglerectangles.svg	25	yes	57	0	1758	0	0			0	0			1				0	
6.6.1	win	2023-06-02	03:43:16	04:03:13	1193941	63039dbefda87c47a91fec04	4	1	main_slash	11	main_slash	5	stimuli_distractor_diamondtriangles.svg	stimuli_target_trianglesquares.svg	30	yes	53	1	312	0	0			0	0			1				0	
6.6.1	win	2023-06-02	03:43:16	04:03:13	1193941	63039dbefda87c47a91fec04	4	1	main_slash	11	advance_on_keypress_SLASH	6	stimuli_distractor_diamondtriangles.svg	stimuli_target_trianglesquares.svg	30	yes	57	0	742	0	0			0	0			1				0	
6.6.1	win	2023-06-02	03:43:16	04:03:15	1195630	63039dbefda87c47a91fec04	4	1	main_slash	11	main_slash	7	stimuli_distractor_trianglediamonds.svg	stimuli_target_diamondrectangles.svg	27	yes	53	1	299	0	0			0	0			1				0	
6.6.1	win	2023-06-02	03:43:16	04:03:15	1195630	63039dbefda87c47a91fec04	4	1	main_slash	11	advance_on_keypress_SLASH	8	stimuli_distractor_trianglediamonds.svg	stimuli_target_diamondrectangles.svg	27	yes	57	0	633	0	0			0	0			1				0	
6.6.1	win	2023-06-02	03:43:16	04:03:16	1197423	63039dbefda87c47a91fec04	4	1	main_slash	11	main_slash	9	stimuli_distractor_diamondtriangles.svg	stimuli_target_squaretriangles.svg	15	yes	53	1	504	0	0			0	0			1				0	
6.6.1	win	2023-06-02	03:43:16	04:03:16	1197423	63039dbefda87c47a91fec04	4	1	main_slash	11	advance_on_keypress_SLASH	10	stimuli_distractor_diamondtriangles.svg	stimuli_target_squaretriangles.svg	15	yes	57	0	576	0	0			0	0			1				0	
6.6.1	win	2023-06-02	03:43:16	04:03:18	1199169	63039dbefda87c47a91fec04	4	1	main_slash	11	main_slash	11	stimuli_target_diamondrectangles.svg	stimuli_distractor_trianglediamonds.svg	19	yes	53	1	535	0	0			0	0			1				0	
6.6.1	win	2023-06-02	03:43:16	04:03:18	1199169	63039dbefda87c47a91fec04	4	1	main_slash	11	advance_on_keypress_SLASH	12	stimuli_target_diamondrectangles.svg	stimuli_distractor_trianglediamonds.svg	19	yes	57	0	514	0	0			0	0			1				0	
6.6.1	win	2023-06-02	03:43:16	04:03:20	1200666	63039dbefda87c47a91fec04	4	1	main_slash	11	main_slash	13	stimuli_target_squaretriangles.svg	stimuli_distractor_diamondtriangles.svg	7	yes	53	1	330	0	0			0	0			1				0	
6.6.1	win	2023-06-02	03:43:16	04:03:20	1200666	63039dbefda87c47a91fec04	4	1	main_slash	11	advance_on_keypress_SLASH	14	stimuli_target_squaretriangles.svg	stimuli_distractor_diamondtriangles.svg	7	yes	57	0	440	0	0			0	0			1				0	
6.6.1	win	2023-06-02	03:43:16	04:03:21	1202143	63039dbefda87c47a91fec04	4	1	main_slash	11	main_slash	15	stimuli_distractor_trianglediamonds.svg	stimuli_target_squarediamonds.svg	12	yes	53	1	389	0	0			0	0			1				0	
6.6.1	win	2023-06-02	03:43:16	04:03:21	1202143	63039dbefda87c47a91fec04	4	1	main_slash	11	advance_on_keypress_SLASH	16	stimuli_distractor_trianglediamonds.svg	stimuli_target_squarediamonds.svg	12	yes	57	0	515	0	0			0	0			1				0	
6.6.1	win	2023-06-02	03:43:16	04:03:23	1203635	63039dbefda87c47a91fec04	4	1	main_slash	11	main_slash	17	stimuli_distractor_diamondtriangles.svg	stimuli_target_trianglerectangles.svg	29	yes	53	1	330	0	0			0	0			1				0	
6.6.1	win	2023-06-02	03:43:16	04:03:23	1203635	63039dbefda87c47a91fec04	4	1	main_slash	11	advance_on_keypress_SLASH	18	stimuli_distractor_diamondtriangles.svg	stimuli_target_trianglerectangles.svg	29	yes	57	0	458	0	0			0	0			1				0	
6.6.1	win	2023-06-02	03:43:16	04:03:24	1205206	63039dbefda87c47a91fec04	4	1	main_slash	11	main_slash	19	stimuli_distractor_diamondtriangles.svg	stimuli_target_rectangletriangles.svg	13	yes	53	1	466	0	0			0	0			1				0	
6.6.1	win	2023-06-02	03:43:16	04:03:24	1205206	63039dbefda87c47a91fec04	4	1	main_slash	11	advance_on_keypress_SLASH	20	stimuli_distractor_diamondtriangles.svg	stimuli_target_rectangletriangles.svg	13	yes	57	0	471	0	0			0	0			1				0	
6.6.1	win	2023-06-02	03:43:16	04:03:27	1208325	63039dbefda87c47a91fec04	4	1	main_slash	11	main_slash	21	stimuli_distractor_trianglediamonds.svg	stimuli_distractor_trianglediamonds.svg	34	no	0	1	2000	0	0			0	0			1				0	
6.6.1	win	2023-06-02	03:43:16	04:03:27	1208325	63039dbefda87c47a91fec04	4	1	main_slash	11	advance_on_keypress_SLASH	22	stimuli_distractor_trianglediamonds.svg	stimuli_distractor_trianglediamonds.svg	34	no	57	0	790	0	0			0	0			1				0	
6.6.1	win	2023-06-02	03:43:16	04:03:29	1210113	63039dbefda87c47a91fec04	4	1	main_slash	11	main_slash	23	stimuli_target_rectanglediamonds.svg	stimuli_distractor_diamondtriangles.svg	6	yes	53	1	351	0	0			0	0			1				0	
6.6.1	win	2023-06-02	03:43:16	04:03:29	1210113	63039dbefda87c47a91fec04	4	1	main_slash	11	advance_on_keypress_SLASH	24	stimuli_target_rectanglediamonds.svg	stimuli_distractor_diamondtriangles.svg	6	yes	57	0	515	0	0			0	0			1				0	
6.6.1	win	2023-06-02	03:43:16	04:03:31	1211805	63039dbefda87c47a91fec04	4	1	main_slash	11	main_slash	25	stimuli_distractor_diamondtriangles.svg	stimuli_distractor_trianglediamonds.svg	37	no	53	0	525	0	0			0	0			1				0	
6.6.1	win	2023-06-02	03:43:16	04:03:31	1211805	63039dbefda87c47a91fec04	4	1	main_slash	11	advance_on_keypress_SLASH	26	stimuli_distractor_diamondtriangles.svg	stimuli_distractor_trianglediamonds.svg	37	no	57	0	1127	0	0			0	0			1				0	
6.6.1	win	2023-06-02	03:43:16	04:03:34	1215565	63039dbefda87c47a91fec04	4	1	main_slash	11	main_slash	27	stimuli_distractor_trianglediamonds.svg	stimuli_distractor_diamondtriangles.svg	36	no	0	1	2000	0	0			0	0			1				0	
6.6.1	win	2023-06-02	03:43:16	04:03:34	1215565	63039dbefda87c47a91fec04	4	1	main_slash	11	advance_on_keypress_SLASH	28	stimuli_distractor_trianglediamonds.svg	stimuli_distractor_diamondtriangles.svg	36	no	57	0	802	0	0			0	0			1				0	
6.6.1	win	2023-06-02	03:43:16	04:03:36	1217526	63039dbefda87c47a91fec04	4	1	main_slash	11	main_slash	29	stimuli_target_diamondsquares.svg	stimuli_distractor_trianglediamonds.svg	20	yes	53	1	504	0	0			0	0			1				0	
6.6.1	win	2023-06-02	03:43:16	04:03:36	1217526	63039dbefda87c47a91fec04	4	1	main_slash	11	advance_on_keypress_SLASH	30	stimuli_target_diamondsquares.svg	stimuli_distractor_trianglediamonds.svg	20	yes	57	0	729	0	0			0	0			1				0	
6.6.1	win	2023-06-02	03:43:16	04:03:40	1220904	63039dbefda87c47a91fec04	4	1	main_slash	11	main_slash	31	stimuli_distractor_diamondtriangles.svg	stimuli_distractor_diamondtriangles.svg	39	no	0	1	2000	0	0			0	0			1				0	
6.6.1	win	2023-06-02	03:43:16	04:03:40	1220904	63039dbefda87c47a91fec04	4	1	main_slash	11	advance_on_keypress_SLASH	32	stimuli_distractor_diamondtriangles.svg	stimuli_distractor_diamondtriangles.svg	39	no	57	0	627	0	0			0	0			1				0	
6.6.1	win	2023-06-02	03:43:16	04:03:41	1222577	63039dbefda87c47a91fec04	4	1	main_slash	11	main_slash	33	stimuli_target_rectangletriangles.svg	stimuli_distractor_trianglediamonds.svg	1	yes	53	1	387	0	0			0	0			1				0	
6.6.1	win	2023-06-02	03:43:16	04:03:41	1222577	63039dbefda87c47a91fec04	4	1	main_slash	11	advance_on_keypress_SLASH	34	stimuli_target_rectangletriangles.svg	stimuli_distractor_trianglediamonds.svg	1	yes	57	0	1286	0	0			0	0			1				0	
6.6.1	win	2023-06-02	03:43:16	04:03:44	1224970	63039dbefda87c47a91fec04	4	1	main_slash	11	main_slash	35	stimuli_target_trianglesquares.svg	stimuli_distractor_trianglediamonds.svg	18	yes	53	1	460	0	0			0	0			1				0	
6.6.1	win	2023-06-02	03:43:16	04:03:44	1224970	63039dbefda87c47a91fec04	4	1	main_slash	11	advance_on_keypress_SLASH	36	stimuli_target_trianglesquares.svg	stimuli_distractor_trianglediamonds.svg	18	yes	57	0	736	0	0			0	0			1				0	
6.6.1	win	2023-06-02	03:43:16	04:03:46	1226710	63039dbefda87c47a91fec04	4	1	main_slash	11	main_slash	37	stimuli_target_trianglerectangles.svg	stimuli_distractor_trianglediamonds.svg	17	yes	53	1	365	0	0			0	0			1				0	
6.6.1	win	2023-06-02	03:43:16	04:03:46	1226710	63039dbefda87c47a91fec04	4	1	main_slash	11	advance_on_keypress_SLASH	38	stimuli_target_trianglerectangles.svg	stimuli_distractor_trianglediamonds.svg	17	yes	57	0	710	0	0			0	0			1				0	
6.6.1	win	2023-06-02	03:43:16	04:03:47	1228454	63039dbefda87c47a91fec04	4	1	main_slash	11	main_slash	39	stimuli_distractor_trianglediamonds.svg	stimuli_target_squaretriangles.svg	11	yes	53	1	373	0	0			0	0			1				0	
6.6.1	win	2023-06-02	03:43:16	04:03:47	1228454	63039dbefda87c47a91fec04	4	1	main_slash	11	advance_on_keypress_SLASH	40	stimuli_distractor_trianglediamonds.svg	stimuli_target_squaretriangles.svg	11	yes	57	0	663	0	0			0	0			1				0	
6.6.1	win	2023-06-02	03:43:16	04:03:49	1230177	63039dbefda87c47a91fec04	4	1	main_slash	11	main_slash	41	stimuli_distractor_diamondtriangles.svg	stimuli_target_rectanglediamonds.svg	14	yes	53	1	412	0	0			0	0			1				0	
6.6.1	win	2023-06-02	03:43:16	04:03:49	1230177	63039dbefda87c47a91fec04	4	1	main_slash	11	advance_on_keypress_SLASH	42	stimuli_distractor_diamondtriangles.svg	stimuli_target_rectanglediamonds.svg	14	yes	57	0	504	0	0			0	0			1				0	
6.6.1	win	2023-06-02	03:43:16	04:03:51	1231660	63039dbefda87c47a91fec04	4	1	main_slash	11	main_slash	43	stimuli_distractor_trianglediamonds.svg	stimuli_target_rectanglediamonds.svg	10	yes	53	1	327	0	0			0	0			1				0	
6.6.1	win	2023-06-02	03:43:16	04:03:51	1231660	63039dbefda87c47a91fec04	4	1	main_slash	11	advance_on_keypress_SLASH	44	stimuli_distractor_trianglediamonds.svg	stimuli_target_rectanglediamonds.svg	10	yes	57	0	539	0	0			0	0			1				0	
6.6.1	win	2023-06-02	03:43:16	04:03:52	1233312	63039dbefda87c47a91fec04	4	1	main_slash	11	main_slash	45	stimuli_target_squarediamonds.svg	stimuli_distractor_diamondtriangles.svg	8	yes	53	1	477	0	0			0	0			1				0	
6.6.1	win	2023-06-02	03:43:16	04:03:52	1233312	63039dbefda87c47a91fec04	4	1	main_slash	11	advance_on_keypress_SLASH	46	stimuli_target_squarediamonds.svg	stimuli_distractor_diamondtriangles.svg	8	yes	57	0	490	0	0			0	0			1				0	
6.6.1	win	2023-06-02	03:43:16	04:03:54	1234867	63039dbefda87c47a91fec04	4	1	main_slash	11	main_slash	47	stimuli_target_squaretriangles.svg	stimuli_distractor_trianglediamonds.svg	3	yes	53	1	431	0	0			0	0			1				0	
6.6.1	win	2023-06-02	03:43:16	04:03:54	1234867	63039dbefda87c47a91fec04	4	1	main_slash	11	advance_on_keypress_SLASH	48	stimuli_target_squaretriangles.svg	stimuli_distractor_trianglediamonds.svg	3	yes	57	0	672	0	0			0	0			1				0	
6.6.1	win	2023-06-02	03:43:16	04:03:55	1236599	63039dbefda87c47a91fec04	4	1	main_slash	11	main_slash	49	stimuli_distractor_trianglediamonds.svg	stimuli_target_diamondsquares.svg	28	yes	53	1	412	0	0			0	0			1				0	
6.6.1	win	2023-06-02	03:43:16	04:03:55	1236599	63039dbefda87c47a91fec04	4	1	main_slash	11	advance_on_keypress_SLASH	50	stimuli_distractor_trianglediamonds.svg	stimuli_target_diamondsquares.svg	28	yes	57	0	493	0	0			0	0			1				0	
6.6.1	win	2023-06-02	03:43:16	04:03:57	1238284	63039dbefda87c47a91fec04	4	1	main_slash	11	main_slash	51	stimuli_target_diamondrectangles.svg	stimuli_distractor_diamondtriangles.svg	23	yes	53	1	544	0	0			0	0			1				0	
6.6.1	win	2023-06-02	03:43:16	04:03:57	1238284	63039dbefda87c47a91fec04	4	1	main_slash	11	advance_on_keypress_SLASH	52	stimuli_target_diamondrectangles.svg	stimuli_distractor_diamondtriangles.svg	23	yes	57	0	672	0	0			0	0			1				0	
6.6.1	win	2023-06-02	03:43:16	04:03:59	1239979	63039dbefda87c47a91fec04	4	1	main_slash	11	main_slash	53	stimuli_target_trianglerectangles.svg	stimuli_distractor_diamondtriangles.svg	21	yes	53	1	389	0	0			0	0			1				0	
6.6.1	win	2023-06-02	03:43:16	04:03:59	1239979	63039dbefda87c47a91fec04	4	1	main_slash	11	advance_on_keypress_SLASH	54	stimuli_target_trianglerectangles.svg	stimuli_distractor_diamondtriangles.svg	21	yes	57	0	604	0	0			0	0			1				0	
6.6.1	win	2023-06-02	03:43:16	04:04:00	1241558	63039dbefda87c47a91fec04	4	1	main_slash	11	main_slash	55	stimuli_distractor_trianglediamonds.svg	stimuli_target_trianglesquares.svg	26	yes	53	1	333	0	0			0	0			1				0	
6.6.1	win	2023-06-02	03:43:16	04:04:00	1241558	63039dbefda87c47a91fec04	4	1	main_slash	11	advance_on_keypress_SLASH	56	stimuli_distractor_trianglediamonds.svg	stimuli_target_trianglesquares.svg	26	yes	57	0	508	0	0			0	0			1				0	
6.6.1	win	2023-06-02	03:43:16	04:04:04	1244711	63039dbefda87c47a91fec04	4	1	main_slash	11	main_slash	57	stimuli_distractor_trianglediamonds.svg	stimuli_distractor_trianglediamonds.svg	33	no	0	1	2000	0	0			0	0			1				0	
6.6.1	win	2023-06-02	03:43:16	04:04:04	1244711	63039dbefda87c47a91fec04	4	1	main_slash	11	advance_on_keypress_SLASH	58	stimuli_distractor_trianglediamonds.svg	stimuli_distractor_trianglediamonds.svg	33	no	57	0	563	0	0			0	0			1				0	
6.6.1	win	2023-06-02	03:43:16	04:04:05	1246319	63039dbefda87c47a91fec04	4	1	main_slash	11	main_slash	59	stimuli_target_rectanglediamonds.svg	stimuli_distractor_trianglediamonds.svg	2	yes	53	1	389	0	0			0	0			1				0	
6.6.1	win	2023-06-02	03:43:16	04:04:05	1246319	63039dbefda87c47a91fec04	4	1	main_slash	11	advance_on_keypress_SLASH	60	stimuli_target_rectanglediamonds.svg	stimuli_distractor_trianglediamonds.svg	2	yes	57	0	594	0	0			0	0			1				0	
6.6.1	win	2023-06-02	03:43:16	04:04:07	1247961	63039dbefda87c47a91fec04	4	1	main_slash	11	main_slash	61	stimuli_distractor_diamondtriangles.svg	stimuli_target_diamondrectangles.svg	31	yes	53	1	395	0	0			0	0			1				0	
6.6.1	win	2023-06-02	03:43:16	04:04:07	1247961	63039dbefda87c47a91fec04	4	1	main_slash	11	advance_on_keypress_SLASH	62	stimuli_distractor_diamondtriangles.svg	stimuli_target_diamondrectangles.svg	31	yes	57	0	580	0	0			0	0			1				0	
6.6.1	win	2023-06-02	03:43:16	04:04:08	1249579	63039dbefda87c47a91fec04	4	1	main_slash	11	main_slash	63	stimuli_distractor_diamondtriangles.svg	stimuli_target_diamondsquares.svg	32	yes	53	1	376	0	0			0	0			1				0	
6.6.1	win	2023-06-02	03:43:16	04:04:08	1249579	63039dbefda87c47a91fec04	4	1	main_slash	11	advance_on_keypress_SLASH	64	stimuli_distractor_diamondtriangles.svg	stimuli_target_diamondsquares.svg	32	yes	57	0	599	0	0			0	0			1				0	
6.6.1	win	2023-06-02	03:43:16	04:04:12	1252836	63039dbefda87c47a91fec04	4	1	main_slash	11	main_slash	65	stimuli_distractor_diamondtriangles.svg	stimuli_distractor_trianglediamonds.svg	38	no	0	1	2000	0	0			0	0			1				0	
6.6.1	win	2023-06-02	03:43:16	04:04:12	1252836	63039dbefda87c47a91fec04	4	1	main_slash	11	advance_on_keypress_SLASH	66	stimuli_distractor_diamondtriangles.svg	stimuli_distractor_trianglediamonds.svg	38	no	57	0	538	0	0			0	0			1				0	
6.6.1	win	2023-06-02	03:43:16	04:04:15	1256022	63039dbefda87c47a91fec04	4	1	main_slash	11	main_slash	67	stimuli_distractor_trianglediamonds.svg	stimuli_distractor_diamondtriangles.svg	35	no	0	1	2000	0	0			0	0			1				0	
6.6.1	win	2023-06-02	03:43:16	04:04:15	1256022	63039dbefda87c47a91fec04	4	1	main_slash	11	advance_on_keypress_SLASH	68	stimuli_distractor_trianglediamonds.svg	stimuli_distractor_diamondtriangles.svg	35	no	57	0	616	0	0			0	0			1				0	
6.6.1	win	2023-06-02	03:43:16	04:04:18	1259292	63039dbefda87c47a91fec04	4	1	main_slash	11	main_slash	69	stimuli_distractor_diamondtriangles.svg	stimuli_distractor_diamondtriangles.svg	40	no	0	1	2000	0	0			0	0			1				0	
6.6.1	win	2023-06-02	03:43:16	04:04:18	1259292	63039dbefda87c47a91fec04	4	1	main_slash	11	advance_on_keypress_SLASH	70	stimuli_distractor_diamondtriangles.svg	stimuli_distractor_diamondtriangles.svg	40	no	57	0	79	0	0			0	0			1				0	
6.6.1	win	2023-06-02	03:43:16	04:04:19	1260558	63039dbefda87c47a91fec04	4	1	main_slash	11	main_slash	71	stimuli_target_diamondsquares.svg	stimuli_distractor_diamondtriangles.svg	24	yes	53	1	530	0	0			0	0			1				0	
6.6.1	win	2023-06-02	03:43:16	04:04:19	1260558	63039dbefda87c47a91fec04	4	1	main_slash	11	advance_on_keypress_SLASH	72	stimuli_target_diamondsquares.svg	stimuli_distractor_diamondtriangles.svg	24	yes	57	0	694	0	0			0	0			1				0	
6.6.1	win	2023-06-02	03:43:16	04:04:21	1262380	63039dbefda87c47a91fec04	4	1	main_slash	11	main_slash	73	stimuli_distractor_trianglediamonds.svg	stimuli_target_rectangletriangles.svg	9	yes	53	1	466	0	0			0	0			1				0	
6.6.1	win	2023-06-02	03:43:16	04:04:21	1262380	63039dbefda87c47a91fec04	4	1	main_slash	11	advance_on_keypress_SLASH	74	stimuli_distractor_trianglediamonds.svg	stimuli_target_rectangletriangles.svg	9	yes	57	0	970	0	0			0	0			1				0	
6.6.1	win	2023-06-02	03:43:16	04:04:23	1264547	63039dbefda87c47a91fec04	4	1	main_slash	11	main_slash	75	stimuli_target_rectangletriangles.svg	stimuli_distractor_diamondtriangles.svg	5	yes	53	1	548	0	0			0	0			1				0	
6.6.1	win	2023-06-02	03:43:16	04:04:23	1264547	63039dbefda87c47a91fec04	4	1	main_slash	11	advance_on_keypress_SLASH	76	stimuli_target_rectangletriangles.svg	stimuli_distractor_diamondtriangles.svg	5	yes	57	0	741	0	0			0	0			1				0	
6.6.1	win	2023-06-02	03:43:16	04:04:25	1266507	63039dbefda87c47a91fec04	4	1	main_slash	11	main_slash	77	stimuli_distractor_diamondtriangles.svg	stimuli_target_squarediamonds.svg	16	yes	53	1	574	0	0			0	0			1				0	
6.6.1	win	2023-06-02	03:43:16	04:04:25	1266507	63039dbefda87c47a91fec04	4	1	main_slash	11	advance_on_keypress_SLASH	78	stimuli_distractor_diamondtriangles.svg	stimuli_target_squarediamonds.svg	16	yes	57	0	731	0	0			0	0			1				0	
6.6.1	win	2023-06-02	03:43:16	04:04:27	1268454	63039dbefda87c47a91fec04	4	1	main_slash	11	main_slash	79	stimuli_target_trianglesquares.svg	stimuli_distractor_diamondtriangles.svg	22	yes	53	1	568	0	0			0	0			1				0	
6.6.1	win	2023-06-02	03:43:16	04:04:27	1268454	63039dbefda87c47a91fec04	4	1	main_slash	11	advance_on_keypress_SLASH	80	stimuli_target_trianglesquares.svg	stimuli_distractor_diamondtriangles.svg	22	yes	57	0	635	0	0			0	0			1				0	
6.6.1	win	2023-06-02	03:43:16	04:04:29	1270360	63039dbefda87c47a91fec04	4	1	main_slash	11	main_slash	81	stimuli_target_diamondsquares.svg	stimuli_distractor_trianglediamonds.svg	20	yes	53	1	622	0	0			0	0			1				0	
6.6.1	win	2023-06-02	03:43:16	04:04:29	1270360	63039dbefda87c47a91fec04	4	1	main_slash	11	advance_on_keypress_SLASH	82	stimuli_target_diamondsquares.svg	stimuli_distractor_trianglediamonds.svg	20	yes	57	0	610	0	0			0	0			1				0	
6.6.1	win	2023-06-02	03:43:16	04:04:31	1272187	63039dbefda87c47a91fec04	4	1	main_slash	11	main_slash	83	stimuli_distractor_trianglediamonds.svg	stimuli_target_rectangletriangles.svg	9	yes	53	1	564	0	0			0	0			1				0	
6.6.1	win	2023-06-02	03:43:16	04:04:31	1272187	63039dbefda87c47a91fec04	4	1	main_slash	11	advance_on_keypress_SLASH	84	stimuli_distractor_trianglediamonds.svg	stimuli_target_rectangletriangles.svg	9	yes	57	0	765	0	0			0	0			1				0	
6.6.1	win	2023-06-02	03:43:16	04:04:33	1274337	63039dbefda87c47a91fec04	4	1	main_slash	11	main_slash	85	stimuli_target_diamondrectangles.svg	stimuli_distractor_diamondtriangles.svg	23	yes	53	1	728	0	0			0	0			1				0	
6.6.1	win	2023-06-02	03:43:16	04:04:33	1274337	63039dbefda87c47a91fec04	4	1	main_slash	11	advance_on_keypress_SLASH	86	stimuli_target_diamondrectangles.svg	stimuli_distractor_diamondtriangles.svg	23	yes	57	0	821	0	0			0	0			1				0	
6.6.1	win	2023-06-02	03:43:16	04:04:37	1277811	63039dbefda87c47a91fec04	4	1	main_slash	11	main_slash	87	stimuli_distractor_diamondtriangles.svg	stimuli_distractor_trianglediamonds.svg	38	no	0	1	2000	0	0			0	0			1				0	
6.6.1	win	2023-06-02	03:43:16	04:04:37	1277811	63039dbefda87c47a91fec04	4	1	main_slash	11	advance_on_keypress_SLASH	88	stimuli_distractor_diamondtriangles.svg	stimuli_distractor_trianglediamonds.svg	38	no	57	0	664	0	0			0	0			1				0	
6.6.1	win	2023-06-02	03:43:16	04:04:39	1279664	63039dbefda87c47a91fec04	4	1	main_slash	11	main_slash	89	stimuli_distractor_trianglediamonds.svg	stimuli_target_squaretriangles.svg	11	yes	53	1	534	0	0			0	0			1				0	
6.6.1	win	2023-06-02	03:43:16	04:04:39	1279664	63039dbefda87c47a91fec04	4	1	main_slash	11	advance_on_keypress_SLASH	90	stimuli_distractor_trianglediamonds.svg	stimuli_target_squaretriangles.svg	11	yes	57	0	730	0	0			0	0			1				0	
6.6.1	win	2023-06-02	03:43:16	04:04:40	1281596	63039dbefda87c47a91fec04	4	1	main_slash	11	main_slash	91	stimuli_distractor_diamondtriangles.svg	stimuli_target_squaretriangles.svg	15	yes	53	1	547	0	0			0	0			1				0	
6.6.1	win	2023-06-02	03:43:16	04:04:40	1281596	63039dbefda87c47a91fec04	4	1	main_slash	11	advance_on_keypress_SLASH	92	stimuli_distractor_diamondtriangles.svg	stimuli_target_squaretriangles.svg	15	yes	57	0	775	0	0			0	0			1				0	
6.6.1	win	2023-06-02	03:43:16	04:04:42	1283590	63039dbefda87c47a91fec04	4	1	main_slash	11	main_slash	93	stimuli_target_diamondrectangles.svg	stimuli_distractor_trianglediamonds.svg	19	yes	53	1	572	0	0			0	0			1				0	
6.6.1	win	2023-06-02	03:43:16	04:04:42	1283590	63039dbefda87c47a91fec04	4	1	main_slash	11	advance_on_keypress_SLASH	94	stimuli_target_diamondrectangles.svg	stimuli_distractor_trianglediamonds.svg	19	yes	57	0	698	0	0			0	0			1				0	
6.6.1	win	2023-06-02	03:43:16	04:04:44	1285487	63039dbefda87c47a91fec04	4	1	main_slash	11	main_slash	95	stimuli_target_trianglesquares.svg	stimuli_distractor_trianglediamonds.svg	18	yes	53	1	550	0	0			0	0			1				0	
6.6.1	win	2023-06-02	03:43:16	04:04:44	1285487	63039dbefda87c47a91fec04	4	1	main_slash	11	advance_on_keypress_SLASH	96	stimuli_target_trianglesquares.svg	stimuli_distractor_trianglediamonds.svg	18	yes	57	0	670	0	0			0	0			1				0	
6.6.1	win	2023-06-02	03:43:16	04:04:48	1288805	63039dbefda87c47a91fec04	4	1	main_slash	11	main_slash	97	stimuli_distractor_trianglediamonds.svg	stimuli_distractor_trianglediamonds.svg	34	no	0	1	2000	0	0			0	0			1				0	
6.6.1	win	2023-06-02	03:43:16	04:04:48	1288805	63039dbefda87c47a91fec04	4	1	main_slash	11	advance_on_keypress_SLASH	98	stimuli_distractor_trianglediamonds.svg	stimuli_distractor_trianglediamonds.svg	34	no	57	0	563	0	0			0	0			1				0	
6.6.1	win	2023-06-02	03:43:16	04:04:51	1292025	63039dbefda87c47a91fec04	4	1	main_slash	11	main_slash	99	stimuli_distractor_trianglediamonds.svg	stimuli_distractor_trianglediamonds.svg	33	no	0	1	2000	0	0			0	0			1				0	
6.6.1	win	2023-06-02	03:43:16	04:04:51	1292025	63039dbefda87c47a91fec04	4	1	main_slash	11	advance_on_keypress_SLASH	100	stimuli_distractor_trianglediamonds.svg	stimuli_distractor_trianglediamonds.svg	33	no	57	0	610	0	0			0	0			1				0	
6.6.1	win	2023-06-02	03:43:16	04:04:54	1295296	63039dbefda87c47a91fec04	4	1	main_slash	11	main_slash	101	stimuli_distractor_diamondtriangles.svg	stimuli_distractor_diamondtriangles.svg	39	no	0	1	2000	0	0			0	0			1				0	
6.6.1	win	2023-06-02	03:43:16	04:04:54	1295296	63039dbefda87c47a91fec04	4	1	main_slash	11	advance_on_keypress_SLASH	102	stimuli_distractor_diamondtriangles.svg	stimuli_distractor_diamondtriangles.svg	39	no	57	0	68	0	0			0	0			1				0	
6.6.1	win	2023-06-02	03:43:16	04:04:55	1296484	63039dbefda87c47a91fec04	4	1	main_slash	11	main_slash	103	stimuli_distractor_trianglediamonds.svg	stimuli_target_trianglesquares.svg	26	yes	53	1	470	0	0			0	0			1				0	
6.6.1	win	2023-06-02	03:43:16	04:04:55	1296484	63039dbefda87c47a91fec04	4	1	main_slash	11	advance_on_keypress_SLASH	104	stimuli_distractor_trianglediamonds.svg	stimuli_target_trianglesquares.svg	26	yes	57	0	947	0	0			0	0			1				0	
6.6.1	win	2023-06-02	03:43:16	04:04:59	1300083	63039dbefda87c47a91fec04	4	1	main_slash	11	main_slash	105	stimuli_distractor_diamondtriangles.svg	stimuli_distractor_trianglediamonds.svg	37	no	0	1	2000	0	0			0	0			1				0	
6.6.1	win	2023-06-02	03:43:16	04:04:59	1300083	63039dbefda87c47a91fec04	4	1	main_slash	11	advance_on_keypress_SLASH	106	stimuli_distractor_diamondtriangles.svg	stimuli_distractor_trianglediamonds.svg	37	no	57	0	965	0	0			0	0			1				0	
6.6.1	win	2023-06-02	03:43:16	04:05:01	1302112	63039dbefda87c47a91fec04	4	1	main_slash	11	main_slash	107	stimuli_target_rectanglediamonds.svg	stimuli_distractor_trianglediamonds.svg	2	yes	53	1	410	0	0			0	0			1				0	
6.6.1	win	2023-06-02	03:43:16	04:05:01	1302112	63039dbefda87c47a91fec04	4	1	main_slash	11	advance_on_keypress_SLASH	108	stimuli_target_rectanglediamonds.svg	stimuli_distractor_trianglediamonds.svg	2	yes	57	0	1490	0	0			0	0			1				0	
6.6.1	win	2023-06-02	03:43:16	04:05:04	1304679	63039dbefda87c47a91fec04	4	1	main_slash	11	main_slash	109	stimuli_target_rectanglediamonds.svg	stimuli_distractor_diamondtriangles.svg	6	yes	53	1	440	0	0			0	0			1				0	
6.6.1	win	2023-06-02	03:43:16	04:05:04	1304679	63039dbefda87c47a91fec04	4	1	main_slash	11	advance_on_keypress_SLASH	110	stimuli_target_rectanglediamonds.svg	stimuli_distractor_diamondtriangles.svg	6	yes	57	0	1821	0	0			0	0			1				0	
6.6.1	win	2023-06-02	03:43:16	04:05:06	1307517	63039dbefda87c47a91fec04	4	1	main_slash	11	main_slash	111	stimuli_distractor_trianglediamonds.svg	stimuli_target_rectanglediamonds.svg	10	yes	53	1	373	0	0			0	0			1				0	
6.6.1	win	2023-06-02	03:43:16	04:05:06	1307517	63039dbefda87c47a91fec04	4	1	main_slash	11	advance_on_keypress_SLASH	112	stimuli_distractor_trianglediamonds.svg	stimuli_target_rectanglediamonds.svg	10	yes	57	0	1412	0	0			0	0			1				0	
6.6.1	win	2023-06-02	03:43:16	04:05:09	1309951	63039dbefda87c47a91fec04	4	1	main_slash	11	main_slash	113	stimuli_distractor_diamondtriangles.svg	stimuli_target_trianglerectangles.svg	29	yes	53	1	370	0	0			0	0			1				0	
6.6.1	win	2023-06-02	03:43:16	04:05:09	1309951	63039dbefda87c47a91fec04	4	1	main_slash	11	advance_on_keypress_SLASH	114	stimuli_distractor_diamondtriangles.svg	stimuli_target_trianglerectangles.svg	29	yes	57	0	1621	0	0			0	0			1				0	
6.6.1	win	2023-06-02	03:43:16	04:05:11	1312611	63039dbefda87c47a91fec04	4	1	main_slash	11	main_slash	115	stimuli_distractor_diamondtriangles.svg	stimuli_target_rectangletriangles.svg	13	yes	53	1	397	0	0			0	0			1				0	
6.6.1	win	2023-06-02	03:43:16	04:05:11	1312611	63039dbefda87c47a91fec04	4	1	main_slash	11	advance_on_keypress_SLASH	116	stimuli_distractor_diamondtriangles.svg	stimuli_target_rectangletriangles.svg	13	yes	57	0	1310	0	0			0	0			1				0	
6.6.1	win	2023-06-02	03:43:16	04:05:14	1314927	63039dbefda87c47a91fec04	4	1	main_slash	11	main_slash	117	stimuli_distractor_diamondtriangles.svg	stimuli_target_trianglesquares.svg	30	yes	53	1	361	0	0			0	0			1				0	
6.6.1	win	2023-06-02	03:43:16	04:05:14	1314927	63039dbefda87c47a91fec04	4	1	main_slash	11	advance_on_keypress_SLASH	118	stimuli_distractor_diamondtriangles.svg	stimuli_target_trianglesquares.svg	30	yes	57	0	1250	0	0			0	0			1				0	
6.6.1	win	2023-06-02	03:43:16	04:05:16	1317223	63039dbefda87c47a91fec04	4	1	main_slash	11	main_slash	119	stimuli_distractor_trianglediamonds.svg	stimuli_target_squarediamonds.svg	12	yes	53	1	405	0	0			0	0			1				0	
6.6.1	win	2023-06-02	03:43:16	04:05:16	1317223	63039dbefda87c47a91fec04	4	1	main_slash	11	advance_on_keypress_SLASH	120	stimuli_distractor_trianglediamonds.svg	stimuli_target_squarediamonds.svg	12	yes	57	0	1186	0	0			0	0			1				0	
6.6.1	win	2023-06-02	03:43:16	04:05:18	1319371	63039dbefda87c47a91fec04	4	1	main_slash	11	main_slash	121	stimuli_distractor_trianglediamonds.svg	stimuli_target_diamondrectangles.svg	27	yes	53	1	317	0	0			0	0			1				0	
6.6.1	win	2023-06-02	03:43:16	04:05:18	1319371	63039dbefda87c47a91fec04	4	1	main_slash	11	advance_on_keypress_SLASH	122	stimuli_distractor_trianglediamonds.svg	stimuli_target_diamondrectangles.svg	27	yes	57	0	1346	0	0			0	0			1				0	
6.6.1	win	2023-06-02	03:43:16	04:05:22	1323373	63039dbefda87c47a91fec04	4	1	main_slash	11	main_slash	123	stimuli_distractor_trianglediamonds.svg	stimuli_distractor_diamondtriangles.svg	36	no	0	1	2000	0	0			0	0			1				0	
6.6.1	win	2023-06-02	03:43:16	04:05:22	1323373	63039dbefda87c47a91fec04	4	1	main_slash	11	advance_on_keypress_SLASH	124	stimuli_distractor_trianglediamonds.svg	stimuli_distractor_diamondtriangles.svg	36	no	57	0	753	0	0			0	0			1				0	
6.6.1	win	2023-06-02	03:43:16	04:05:24	1325154	63039dbefda87c47a91fec04	4	1	main_slash	11	main_slash	125	stimuli_distractor_trianglediamonds.svg	stimuli_target_diamondsquares.svg	28	yes	53	1	378	0	0			0	0			1				0	
6.6.1	win	2023-06-02	03:43:16	04:05:24	1325154	63039dbefda87c47a91fec04	4	1	main_slash	11	advance_on_keypress_SLASH	126	stimuli_distractor_trianglediamonds.svg	stimuli_target_diamondsquares.svg	28	yes	57	0	920	0	0			0	0			1				0	
6.6.1	win	2023-06-02	03:43:16	04:05:26	1327260	63039dbefda87c47a91fec04	4	1	main_slash	11	main_slash	127	stimuli_target_trianglesquares.svg	stimuli_distractor_diamondtriangles.svg	22	yes	53	1	532	0	0			0	0			1				0	
6.6.1	win	2023-06-02	03:43:16	04:05:26	1327260	63039dbefda87c47a91fec04	4	1	main_slash	11	advance_on_keypress_SLASH	128	stimuli_target_trianglesquares.svg	stimuli_distractor_diamondtriangles.svg	22	yes	57	0	807	0	0			0	0			1				0	
6.6.1	win	2023-06-02	03:43:16	04:05:28	1329234	63039dbefda87c47a91fec04	4	1	main_slash	11	main_slash	129	stimuli_target_diamondsquares.svg	stimuli_distractor_diamondtriangles.svg	24	yes	53	1	520	0	0			0	0			1				0	
6.6.1	win	2023-06-02	03:43:16	04:05:28	1329234	63039dbefda87c47a91fec04	4	1	main_slash	11	advance_on_keypress_SLASH	130	stimuli_target_diamondsquares.svg	stimuli_distractor_diamondtriangles.svg	24	yes	57	0	1183	0	0			0	0			1				0	
6.6.1	win	2023-06-02	03:43:16	04:05:30	1331584	63039dbefda87c47a91fec04	4	1	main_slash	11	main_slash	131	stimuli_distractor_trianglediamonds.svg	stimuli_target_trianglerectangles.svg	25	yes	53	1	518	0	0			0	0			1				0	
6.6.1	win	2023-06-02	03:43:16	04:05:30	1331584	63039dbefda87c47a91fec04	4	1	main_slash	11	advance_on_keypress_SLASH	132	stimuli_distractor_trianglediamonds.svg	stimuli_target_trianglerectangles.svg	25	yes	57	0	1443	0	0			0	0			1				0	
6.6.1	win	2023-06-02	03:43:16	04:05:33	1334198	63039dbefda87c47a91fec04	4	1	main_slash	11	main_slash	133	stimuli_target_trianglerectangles.svg	stimuli_distractor_diamondtriangles.svg	21	yes	53	1	530	0	0			0	0			1				0	
6.6.1	win	2023-06-02	03:43:16	04:05:33	1334198	63039dbefda87c47a91fec04	4	1	main_slash	11	advance_on_keypress_SLASH	134	stimuli_target_trianglerectangles.svg	stimuli_distractor_diamondtriangles.svg	21	yes	57	0	2884	0	0			0	0			1				0	
6.6.1	win	2023-06-02	03:43:16	04:05:37	1338152	63039dbefda87c47a91fec04	4	1	main_slash	11	main_slash	135	stimuli_target_squaretriangles.svg	stimuli_distractor_trianglediamonds.svg	3	yes	53	1	412	0	0			0	0			1				0	
6.6.1	win	2023-06-02	03:43:16	04:05:37	1338152	63039dbefda87c47a91fec04	4	1	main_slash	11	advance_on_keypress_SLASH	136	stimuli_target_squaretriangles.svg	stimuli_distractor_trianglediamonds.svg	3	yes	57	0	926	0	0			0	0			1				0	
6.6.1	win	2023-06-02	03:43:16	04:05:39	1340146	63039dbefda87c47a91fec04	4	1	main_slash	11	main_slash	137	stimuli_target_rectangletriangles.svg	stimuli_distractor_diamondtriangles.svg	5	yes	53	1	423	0	0			0	0			1				0	
6.6.1	win	2023-06-02	03:43:16	04:05:39	1340146	63039dbefda87c47a91fec04	4	1	main_slash	11	advance_on_keypress_SLASH	138	stimuli_target_rectangletriangles.svg	stimuli_distractor_diamondtriangles.svg	5	yes	57	0	1212	0	0			0	0			1				0	
6.6.1	win	2023-06-02	03:43:16	04:05:41	1342366	63039dbefda87c47a91fec04	4	1	main_slash	11	main_slash	139	stimuli_target_trianglerectangles.svg	stimuli_distractor_trianglediamonds.svg	17	yes	53	1	357	0	0			0	0			1				0	
6.6.1	win	2023-06-02	03:43:16	04:05:41	1342366	63039dbefda87c47a91fec04	4	1	main_slash	11	advance_on_keypress_SLASH	140	stimuli_target_trianglerectangles.svg	stimuli_distractor_trianglediamonds.svg	17	yes	57	0	2042	0	0			0	0			1				0	
6.6.1	win	2023-06-02	03:43:16	04:05:44	1345584	63039dbefda87c47a91fec04	4	1	main_slash	11	main_slash	141	stimuli_distractor_diamondtriangles.svg	stimuli_target_diamondsquares.svg	32	yes	53	1	538	0	0			0	0			1				0	
6.6.1	win	2023-06-02	03:43:16	04:05:44	1345584	63039dbefda87c47a91fec04	4	1	main_slash	11	advance_on_keypress_SLASH	142	stimuli_distractor_diamondtriangles.svg	stimuli_target_diamondsquares.svg	32	yes	57	0	850	0	0			0	0			1				0	
6.6.1	win	2023-06-02	03:43:16	04:05:46	1347455	63039dbefda87c47a91fec04	4	1	main_slash	11	main_slash	143	stimuli_target_rectangletriangles.svg	stimuli_distractor_trianglediamonds.svg	1	yes	53	1	372	0	0			0	0			1				0	
6.6.1	win	2023-06-02	03:43:16	04:05:46	1347455	63039dbefda87c47a91fec04	4	1	main_slash	11	advance_on_keypress_SLASH	144	stimuli_target_rectangletriangles.svg	stimuli_distractor_trianglediamonds.svg	1	yes	57	0	1065	0	0			0	0			1				0	
6.6.1	win	2023-06-02	03:43:16	04:05:48	1349458	63039dbefda87c47a91fec04	4	1	main_slash	11	main_slash	145	stimuli_distractor_diamondtriangles.svg	stimuli_target_rectanglediamonds.svg	14	yes	53	1	291	0	0			0	0			1				0	
6.6.1	win	2023-06-02	03:43:16	04:05:48	1349458	63039dbefda87c47a91fec04	4	1	main_slash	11	advance_on_keypress_SLASH	146	stimuli_distractor_diamondtriangles.svg	stimuli_target_rectanglediamonds.svg	14	yes	57	0	1201	0	0			0	0			1				0	
6.6.1	win	2023-06-02	03:43:16	04:05:50	1351590	63039dbefda87c47a91fec04	4	1	main_slash	11	main_slash	147	stimuli_distractor_diamondtriangles.svg	stimuli_target_diamondrectangles.svg	31	yes	53	1	287	0	0			0	0			1				0	
6.6.1	win	2023-06-02	03:43:16	04:05:50	1351590	63039dbefda87c47a91fec04	4	1	main_slash	11	advance_on_keypress_SLASH	148	stimuli_distractor_diamondtriangles.svg	stimuli_target_diamondrectangles.svg	31	yes	57	0	1202	0	0			0	0			1				0	
6.6.1	win	2023-06-02	03:43:16	04:05:53	1353781	63039dbefda87c47a91fec04	4	1	main_slash	11	main_slash	149	stimuli_target_squarediamonds.svg	stimuli_distractor_diamondtriangles.svg	8	yes	53	1	344	0	0			0	0			1				0	
6.6.1	win	2023-06-02	03:43:16	04:05:53	1353781	63039dbefda87c47a91fec04	4	1	main_slash	11	advance_on_keypress_SLASH	150	stimuli_target_squarediamonds.svg	stimuli_distractor_diamondtriangles.svg	8	yes	57	0	1386	0	0			0	0			1				0	
6.6.1	win	2023-06-02	03:43:16	04:05:55	1356121	63039dbefda87c47a91fec04	4	1	main_slash	11	main_slash	151	stimuli_target_squarediamonds.svg	stimuli_distractor_trianglediamonds.svg	4	yes	53	1	314	0	0			0	0			1				0	
6.6.1	win	2023-06-02	03:43:16	04:05:55	1356121	63039dbefda87c47a91fec04	4	1	main_slash	11	advance_on_keypress_SLASH	152	stimuli_target_squarediamonds.svg	stimuli_distractor_trianglediamonds.svg	4	yes	57	0	889	0	0			0	0			1				0	
6.6.1	win	2023-06-02	03:43:16	04:05:57	1357958	63039dbefda87c47a91fec04	4	1	main_slash	11	main_slash	153	stimuli_distractor_trianglediamonds.svg	stimuli_distractor_diamondtriangles.svg	35	no	53	0	300	0	0			0	0			1				0	
6.6.1	win	2023-06-02	03:43:16	04:05:57	1357958	63039dbefda87c47a91fec04	4	1	main_slash	11	advance_on_keypress_SLASH	154	stimuli_distractor_trianglediamonds.svg	stimuli_distractor_diamondtriangles.svg	35	no	57	0	1202	0	0			0	0			1				0	
6.6.1	win	2023-06-02	03:43:16	04:05:59	1360259	63039dbefda87c47a91fec04	4	1	main_slash	11	main_slash	155	stimuli_target_squaretriangles.svg	stimuli_distractor_diamondtriangles.svg	7	yes	53	1	448	0	0			0	0			1				0	
6.6.1	win	2023-06-02	03:43:16	04:05:59	1360259	63039dbefda87c47a91fec04	4	1	main_slash	11	advance_on_keypress_SLASH	156	stimuli_target_squaretriangles.svg	stimuli_distractor_diamondtriangles.svg	7	yes	57	0	861	0	0			0	0			1				0	
6.6.1	win	2023-06-02	03:43:16	04:06:01	1362374	63039dbefda87c47a91fec04	4	1	main_slash	11	main_slash	157	stimuli_distractor_diamondtriangles.svg	stimuli_target_squarediamonds.svg	16	yes	53	1	594	0	0			0	0			1				0	
6.6.1	win	2023-06-02	03:43:16	04:06:01	1362374	63039dbefda87c47a91fec04	4	1	main_slash	11	advance_on_keypress_SLASH	158	stimuli_distractor_diamondtriangles.svg	stimuli_target_squarediamonds.svg	16	yes	57	0	923	0	0			0	0			1				0	
6.6.1	win	2023-06-02	03:43:16	04:06:05	1365932	63039dbefda87c47a91fec04	4	1	main_slash	11	main_slash	159	stimuli_distractor_diamondtriangles.svg	stimuli_distractor_diamondtriangles.svg	40	no	0	1	2000	0	0			0	0			1				0	
6.6.1	win	2023-06-02	03:43:16	04:06:05	1365932	63039dbefda87c47a91fec04	4	1	main_slash	11	advance_on_keypress_SLASH	160	stimuli_distractor_diamondtriangles.svg	stimuli_distractor_diamondtriangles.svg	40	no	57	0	486	0	0			0	0			1				0	
6.6.1	win	2023-06-02	03:43:16	04:06:05	1365932	63039dbefda87c47a91fec04	4	1	headphonecheck_calibration	14	headphonecheck_calibrationIntro	1	stimuli_distractor_diamondtriangles.svg	stimuli_distractor_diamondtriangles.svg	40	no	calibrationButton	0	5323	0	0			0	0			1				0	
6.6.1	win	2023-06-02	03:43:16	04:06:05	1365932	63039dbefda87c47a91fec04	4	1	headphonecheck_testphase	15	test_collectResponse	3	stimuli_distractor_diamondtriangles.svg	stimuli_distractor_diamondtriangles.svg	40	no	third	1	2595	1	6	antiphase_hc_ois.wav	3	0	0			1				0	
6.6.1	win	2023-06-02	03:43:16	04:06:05	1365932	63039dbefda87c47a91fec04	4	1	headphonecheck_testphase	15	test_collectResponse	6	stimuli_distractor_diamondtriangles.svg	stimuli_distractor_diamondtriangles.svg	40	no	third	1	2027	2	2	antiphase_hc_ios.wav	3	0	0			1				0	
6.6.1	win	2023-06-02	03:43:16	04:06:05	1365932	63039dbefda87c47a91fec04	4	1	headphonecheck_testphase	15	test_collectResponse	9	stimuli_distractor_diamondtriangles.svg	stimuli_distractor_diamondtriangles.svg	40	no	second	1	1091	3	5	antiphase_hc_osi.wav	2	0	0			1				0	
6.6.1	win	2023-06-02	03:43:16	04:06:05	1365932	63039dbefda87c47a91fec04	4	1	headphonecheck_testphase	15	test_collectResponse	12	stimuli_distractor_diamondtriangles.svg	stimuli_distractor_diamondtriangles.svg	40	no	first	1	914	4	4	antiphase_hc_sio.wav	1	0	0			1				0	
6.6.1	win	2023-06-02	03:43:16	04:06:05	1365932	63039dbefda87c47a91fec04	4	1	headphonecheck_testphase	15	test_collectResponse	15	stimuli_distractor_diamondtriangles.svg	stimuli_distractor_diamondtriangles.svg	40	no	first	1	790	5	3	antiphase_hc_soi.wav	1	0	0			1				0	
6.6.1	win	2023-06-02	03:43:16	04:06:05	1365932	63039dbefda87c47a91fec04	4	1	headphonecheck_testphase	15	test_collectResponse	18	stimuli_distractor_diamondtriangles.svg	stimuli_distractor_diamondtriangles.svg	40	no	second	1	774	6	1	antiphase_hc_iso.wav	2	0	0			1				0	
6.6.1	win	2023-06-02	03:43:16	04:06:05	1365932	63039dbefda87c47a91fec04	4	1	stereocheck_calibration	17	stereocheck_calibrationIntro	1	stimuli_distractor_diamondtriangles.svg	stimuli_distractor_diamondtriangles.svg	40	no	stereocheck_calibrationButton	0	12240	6	1	antiphase_hc_iso.wav	2	0	0			1				0	
6.6.1	win	2023-06-02	03:43:16	04:06:05	1365932	63039dbefda87c47a91fec04	4	1	stereocheck_testphase	18	stereocheck_test_collectResponse	3	stimuli_distractor_diamondtriangles.svg	stimuli_distractor_diamondtriangles.svg	40	no	stereocheck_right	1	590	6	1	antiphase_hc_iso.wav	2	1	6	noise_calib_stim_RIGHT.wav	2	1				0	
6.6.1	win	2023-06-02	03:43:16	04:06:05	1365932	63039dbefda87c47a91fec04	4	1	stereocheck_testphase	18	stereocheck_test_collectResponse	6	stimuli_distractor_diamondtriangles.svg	stimuli_distractor_diamondtriangles.svg	40	no	stereocheck_right	1	5599	6	1	antiphase_hc_iso.wav	2	2	5	noise_calib_stim_RIGHT.wav	2	1				0	
6.6.1	win	2023-06-02	03:43:16	04:06:05	1365932	63039dbefda87c47a91fec04	4	1	stereocheck_testphase	18	stereocheck_test_collectResponse	9	stimuli_distractor_diamondtriangles.svg	stimuli_distractor_diamondtriangles.svg	40	no	stereocheck_left	1	725	6	1	antiphase_hc_iso.wav	2	3	3	noise_calib_stim_LEFT.wav	1	1				0	
6.6.1	win	2023-06-02	03:43:16	04:06:05	1365932	63039dbefda87c47a91fec04	4	1	stereocheck_testphase	18	stereocheck_test_collectResponse	12	stimuli_distractor_diamondtriangles.svg	stimuli_distractor_diamondtriangles.svg	40	no	stereocheck_left	1	995	6	1	antiphase_hc_iso.wav	2	4	1	noise_calib_stim_LEFT.wav	1	1				0	
6.6.1	win	2023-06-02	03:43:16	04:06:05	1365932	63039dbefda87c47a91fec04	4	1	stereocheck_testphase	18	stereocheck_test_collectResponse	15	stimuli_distractor_diamondtriangles.svg	stimuli_distractor_diamondtriangles.svg	40	no	stereocheck_left	1	1711	6	1	antiphase_hc_iso.wav	2	5	2	noise_calib_stim_LEFT.wav	1	1				0	
6.6.1	win	2023-06-02	03:43:16	04:06:05	1365932	63039dbefda87c47a91fec04	4	1	stereocheck_testphase	18	stereocheck_test_collectResponse	18	stimuli_distractor_diamondtriangles.svg	stimuli_distractor_diamondtriangles.svg	40	no	stereocheck_right	1	1283	6	1	antiphase_hc_iso.wav	2	6	4	noise_calib_stim_RIGHT.wav	2	1				0	
6.6.1	win	2023-06-02	03:43:16	04:06:05	1365932	63039dbefda87c47a91fec04	4	1	DL_practice	21	DL_practice	2	stimuli_distractor_diamondtriangles.svg	stimuli_distractor_diamondtriangles.svg	40	no	ka	1	2042	6	1	antiphase_hc_iso.wav	2	6	4	noise_calib_stim_RIGHT.wav	2	22	blb_dichoticlistening_ka-ka.mp3	ka	ka	0	left
6.6.1	win	2023-06-02	03:43:16	04:06:05	1365932	63039dbefda87c47a91fec04	4	1	DL_practice	21	DL_practice	3	stimuli_distractor_diamondtriangles.svg	stimuli_distractor_diamondtriangles.svg	40	no	ga	1	1580	6	1	antiphase_hc_iso.wav	2	6	4	noise_calib_stim_RIGHT.wav	2	18	blb_dichoticlistening_ga-ta.mp3	ga	ta	1	left
6.6.1	win	2023-06-02	03:43:16	04:06:05	1365932	63039dbefda87c47a91fec04	4	1	DL_practice	21	DL_practice	4	stimuli_distractor_diamondtriangles.svg	stimuli_distractor_diamondtriangles.svg	40	no	ba	1	1901	6	1	antiphase_hc_iso.wav	2	6	4	noise_calib_stim_RIGHT.wav	2	1	blb_dichoticlistening_ba-ba.mp3	ba	ba	0	left
6.6.1	win	2023-06-02	03:43:16	04:06:05	1365932	63039dbefda87c47a91fec04	4	1	DL_practice	21	DL_practice	5	stimuli_distractor_diamondtriangles.svg	stimuli_distractor_diamondtriangles.svg	40	no	da	1	1401	6	1	antiphase_hc_iso.wav	2	6	4	noise_calib_stim_RIGHT.wav	2	7	blb_dichoticlistening_da-ba.mp3	da	ba	1	left
6.6.1	win	2023-06-02	03:43:16	04:06:05	1365932	63039dbefda87c47a91fec04	4	1	DL_practice	21	DL_practice	6	stimuli_distractor_diamondtriangles.svg	stimuli_distractor_diamondtriangles.svg	40	no	da	1	1154	6	1	antiphase_hc_iso.wav	2	6	4	noise_calib_stim_RIGHT.wav	2	8	blb_dichoticlistening_da-da.mp3	da	da	0	left
6.6.1	win	2023-06-02	03:43:16	04:06:05	1365932	63039dbefda87c47a91fec04	4	1	DL_practice	21	DL_practice	7	stimuli_distractor_diamondtriangles.svg	stimuli_distractor_diamondtriangles.svg	40	no	pa	1	1492	6	1	antiphase_hc_iso.wav	2	6	4	noise_calib_stim_RIGHT.wav	2	29	blb_dichoticlistening_pa-pa.mp3	pa	pa	0	left
6.6.1	win	2023-06-02	03:43:16	04:06:05	1365932	63039dbefda87c47a91fec04	4	1	DL_practice	21	DL_practice	8	stimuli_distractor_diamondtriangles.svg	stimuli_distractor_diamondtriangles.svg	40	no	ga	1	974	6	1	antiphase_hc_iso.wav	2	6	4	noise_calib_stim_RIGHT.wav	2	15	blb_dichoticlistening_ga-ga.mp3	ga	ga	0	left
6.6.1	win	2023-06-02	03:43:16	04:06:05	1365932	63039dbefda87c47a91fec04	4	1	DL_practice	21	DL_practice	9	stimuli_distractor_diamondtriangles.svg	stimuli_distractor_diamondtriangles.svg	40	no	ta	1	1549	6	1	antiphase_hc_iso.wav	2	6	4	noise_calib_stim_RIGHT.wav	2	36	blb_dichoticlistening_ta-ta.mp3	ta	ta	0	left
6.6.1	win	2023-06-02	03:43:16	04:06:05	1365932	63039dbefda87c47a91fec04	4	1	DL_practice	21	DL_practice	10	stimuli_distractor_diamondtriangles.svg	stimuli_distractor_diamondtriangles.svg	40	no	pa	1	1875	6	1	antiphase_hc_iso.wav	2	6	4	noise_calib_stim_RIGHT.wav	2	23	blb_dichoticlistening_ka-pa.mp3	ka	pa	1	right
6.6.1	win	2023-06-02	03:43:16	04:06:05	1365932	63039dbefda87c47a91fec04	4	1	DL_test	23	DL_test	1	stimuli_distractor_diamondtriangles.svg	stimuli_distractor_diamondtriangles.svg	40	no	ga	1	799	6	1	antiphase_hc_iso.wav	2	6	4	noise_calib_stim_RIGHT.wav	2	15	blb_dichoticlistening_ga-ga.mp3	ga	ga	0	left
6.6.1	win	2023-06-02	03:43:16	04:06:05	1365932	63039dbefda87c47a91fec04	4	1	DL_test	23	DL_test	2	stimuli_distractor_diamondtriangles.svg	stimuli_distractor_diamondtriangles.svg	40	no	ba	1	1461	6	1	antiphase_hc_iso.wav	2	6	4	noise_calib_stim_RIGHT.wav	2	1	blb_dichoticlistening_ba-ba.mp3	ba	ba	0	left
6.6.1	win	2023-06-02	03:43:16	04:06:05	1365932	63039dbefda87c47a91fec04	4	1	DL_test	23	DL_test	3	stimuli_distractor_diamondtriangles.svg	stimuli_distractor_diamondtriangles.svg	40	no	pa	1	2891	6	1	antiphase_hc_iso.wav	2	6	4	noise_calib_stim_RIGHT.wav	2	17	blb_dichoticlistening_ga-pa.mp3	ga	pa	1	right
6.6.1	win	2023-06-02	03:43:16	04:06:05	1365932	63039dbefda87c47a91fec04	4	1	DL_test	23	DL_test	4	stimuli_distractor_diamondtriangles.svg	stimuli_distractor_diamondtriangles.svg	40	no	ga	1	1064	6	1	antiphase_hc_iso.wav	2	6	4	noise_calib_stim_RIGHT.wav	2	9	blb_dichoticlistening_da-ga.mp3	da	ga	1	right
6.6.1	win	2023-06-02	03:43:16	04:06:05	1365932	63039dbefda87c47a91fec04	4	1	DL_test	23	DL_test	5	stimuli_distractor_diamondtriangles.svg	stimuli_distractor_diamondtriangles.svg	40	no	ga	0	1703	6	1	antiphase_hc_iso.wav	2	6	4	noise_calib_stim_RIGHT.wav	2	19	blb_dichoticlistening_ka-ba.mp3	ka	ba	1	other
6.6.1	win	2023-06-02	03:43:16	04:06:05	1365932	63039dbefda87c47a91fec04	4	1	DL_test	23	DL_test	6	stimuli_distractor_diamondtriangles.svg	stimuli_distractor_diamondtriangles.svg	40	no	ga	1	1264	6	1	antiphase_hc_iso.wav	2	6	4	noise_calib_stim_RIGHT.wav	2	16	blb_dichoticlistening_ga-ka.mp3	ga	ka	1	left
6.6.1	win	2023-06-02	03:43:16	04:06:05	1365932	63039dbefda87c47a91fec04	4	1	DL_test	23	DL_test	7	stimuli_distractor_diamondtriangles.svg	stimuli_distractor_diamondtriangles.svg	40	no	pa	1	1764	6	1	antiphase_hc_iso.wav	2	6	4	noise_calib_stim_RIGHT.wav	2	27	blb_dichoticlistening_pa-ga.mp3	pa	ga	1	left
6.6.1	win	2023-06-02	03:43:16	04:06:05	1365932	63039dbefda87c47a91fec04	4	1	DL_test	23	DL_test	8	stimuli_distractor_diamondtriangles.svg	stimuli_distractor_diamondtriangles.svg	40	no	pa	0	1862	6	1	antiphase_hc_iso.wav	2	6	4	noise_calib_stim_RIGHT.wav	2	10	blb_dichoticlistening_da-ka.mp3	da	ka	1	other
6.6.1	win	2023-06-02	03:43:16	04:06:05	1365932	63039dbefda87c47a91fec04	4	1	DL_test	23	DL_test	9	stimuli_distractor_diamondtriangles.svg	stimuli_distractor_diamondtriangles.svg	40	no	ka	1	1970	6	1	antiphase_hc_iso.wav	2	6	4	noise_calib_stim_RIGHT.wav	2	22	blb_dichoticlistening_ka-ka.mp3	ka	ka	0	left
6.6.1	win	2023-06-02	03:43:16	04:06:05	1365932	63039dbefda87c47a91fec04	4	1	DL_test	23	DL_test	10	stimuli_distractor_diamondtriangles.svg	stimuli_distractor_diamondtriangles.svg	40	no	pa	1	1526	6	1	antiphase_hc_iso.wav	2	6	4	noise_calib_stim_RIGHT.wav	2	35	blb_dichoticlistening_ta-pa.mp3	ta	pa	1	right
6.6.1	win	2023-06-02	03:43:16	04:06:05	1365932	63039dbefda87c47a91fec04	4	1	DL_test	23	DL_test	11	stimuli_distractor_diamondtriangles.svg	stimuli_distractor_diamondtriangles.svg	40	no	ga	1	1063	6	1	antiphase_hc_iso.wav	2	6	4	noise_calib_stim_RIGHT.wav	2	33	blb_dichoticlistening_ta-ga.mp3	ta	ga	1	right
6.6.1	win	2023-06-02	03:43:16	04:06:05	1365932	63039dbefda87c47a91fec04	4	1	DL_test	23	DL_test	12	stimuli_distractor_diamondtriangles.svg	stimuli_distractor_diamondtriangles.svg	40	no	ga	0	1227	6	1	antiphase_hc_iso.wav	2	6	4	noise_calib_stim_RIGHT.wav	2	6	blb_dichoticlistening_ba-ta.mp3	ba	ta	1	other
6.6.1	win	2023-06-02	03:43:16	04:06:05	1365932	63039dbefda87c47a91fec04	4	1	DL_test	23	DL_test	13	stimuli_distractor_diamondtriangles.svg	stimuli_distractor_diamondtriangles.svg	40	no	ga	0	1192	6	1	antiphase_hc_iso.wav	2	6	4	noise_calib_stim_RIGHT.wav	2	12	blb_dichoticlistening_da-ta.mp3	da	ta	1	other
6.6.1	win	2023-06-02	03:43:16	04:06:05	1365932	63039dbefda87c47a91fec04	4	1	DL_test	23	DL_test	14	stimuli_distractor_diamondtriangles.svg	stimuli_distractor_diamondtriangles.svg	40	no	ta	1	1480	6	1	antiphase_hc_iso.wav	2	6	4	noise_calib_stim_RIGHT.wav	2	36	blb_dichoticlistening_ta-ta.mp3	ta	ta	0	left
6.6.1	win	2023-06-02	03:43:16	04:06:05	1365932	63039dbefda87c47a91fec04	4	1	DL_test	23	DL_test	15	stimuli_distractor_diamondtriangles.svg	stimuli_distractor_diamondtriangles.svg	40	no	ga	1	1244	6	1	antiphase_hc_iso.wav	2	6	4	noise_calib_stim_RIGHT.wav	2	21	blb_dichoticlistening_ka-ga.mp3	ka	ga	1	right
6.6.1	win	2023-06-02	03:43:16	04:06:05	1365932	63039dbefda87c47a91fec04	4	1	DL_test	23	DL_test	16	stimuli_distractor_diamondtriangles.svg	stimuli_distractor_diamondtriangles.svg	40	no	ga	0	1473	6	1	antiphase_hc_iso.wav	2	6	4	noise_calib_stim_RIGHT.wav	2	32	blb_dichoticlistening_ta-da.mp3	ta	da	1	other
6.6.1	win	2023-06-02	03:43:16	04:06:05	1365932	63039dbefda87c47a91fec04	4	1	DL_test	23	DL_test	17	stimuli_distractor_diamondtriangles.svg	stimuli_distractor_diamondtriangles.svg	40	no	pa	1	1197	6	1	antiphase_hc_iso.wav	2	6	4	noise_calib_stim_RIGHT.wav	2	23	blb_dichoticlistening_ka-pa.mp3	ka	pa	1	right
6.6.1	win	2023-06-02	03:43:16	04:06:05	1365932	63039dbefda87c47a91fec04	4	1	DL_test	23	DL_test	18	stimuli_distractor_diamondtriangles.svg	stimuli_distractor_diamondtriangles.svg	40	no	ka	1	1297	6	1	antiphase_hc_iso.wav	2	6	4	noise_calib_stim_RIGHT.wav	2	24	blb_dichoticlistening_ka-ta.mp3	ka	ta	1	left
6.6.1	win	2023-06-02	03:43:16	04:06:05	1365932	63039dbefda87c47a91fec04	4	1	DL_test	23	DL_test	19	stimuli_distractor_diamondtriangles.svg	stimuli_distractor_diamondtriangles.svg	40	no	ga	1	956	6	1	antiphase_hc_iso.wav	2	6	4	noise_calib_stim_RIGHT.wav	2	13	blb_dichoticlistening_ga-ba.mp3	ga	ba	1	left
6.6.1	win	2023-06-02	03:43:16	04:06:05	1365932	63039dbefda87c47a91fec04	4	1	DL_test	23	DL_test	20	stimuli_distractor_diamondtriangles.svg	stimuli_distractor_diamondtriangles.svg	40	no	ga	0	834	6	1	antiphase_hc_iso.wav	2	6	4	noise_calib_stim_RIGHT.wav	2	20	blb_dichoticlistening_ka-da.mp3	ka	da	1	other
6.6.1	win	2023-06-02	03:43:16	04:06:05	1365932	63039dbefda87c47a91fec04	4	1	DL_test	23	DL_test	21	stimuli_distractor_diamondtriangles.svg	stimuli_distractor_diamondtriangles.svg	40	no	ga	1	900	6	1	antiphase_hc_iso.wav	2	6	4	noise_calib_stim_RIGHT.wav	2	18	blb_dichoticlistening_ga-ta.mp3	ga	ta	1	left
6.6.1	win	2023-06-02	03:43:16	04:06:05	1365932	63039dbefda87c47a91fec04	4	1	DL_test	23	DL_test	22	stimuli_distractor_diamondtriangles.svg	stimuli_distractor_diamondtriangles.svg	40	no	ga	1	665	6	1	antiphase_hc_iso.wav	2	6	4	noise_calib_stim_RIGHT.wav	2	3	blb_dichoticlistening_ba-ga.mp3	ba	ga	1	right
6.6.1	win	2023-06-02	03:43:16	04:06:05	1365932	63039dbefda87c47a91fec04	4	1	DL_test	23	DL_test	23	stimuli_distractor_diamondtriangles.svg	stimuli_distractor_diamondtriangles.svg	40	no	pa	1	1466	6	1	antiphase_hc_iso.wav	2	6	4	noise_calib_stim_RIGHT.wav	2	26	blb_dichoticlistening_pa-da.mp3	pa	da	1	left
6.6.1	win	2023-06-02	03:43:16	04:06:05	1365932	63039dbefda87c47a91fec04	4	1	DL_test	23	DL_test	24	stimuli_distractor_diamondtriangles.svg	stimuli_distractor_diamondtriangles.svg	40	no	pa	1	1377	6	1	antiphase_hc_iso.wav	2	6	4	noise_calib_stim_RIGHT.wav	2	29	blb_dichoticlistening_pa-pa.mp3	pa	pa	0	left
6.6.1	win	2023-06-02	03:43:16	04:06:05	1365932	63039dbefda87c47a91fec04	4	1	DL_test	23	DL_test	25	stimuli_distractor_diamondtriangles.svg	stimuli_distractor_diamondtriangles.svg	40	no	ga	0	1138	6	1	antiphase_hc_iso.wav	2	6	4	noise_calib_stim_RIGHT.wav	2	4	blb_dichoticlistening_ba-ka.mp3	ba	ka	1	other
