build	computer.platform	date	time	timestamp	time_elapsed_ms	subject	group	session	blockcode	blocknum	trialcode	trialnum	stimulus_left	stimulus_right	stim_index	target_present	response	correct	latency	headphonecheck_countTestTrials	headphonecheck_index	headphonecheck_testSound	headphonecheck_correctResponse	stereocheck_countTestTrials	stereocheck_index	stereocheck_testSound	stereocheck_correctResponse	DL_index	DL_soundfile	DL_leftSound	DL_rightSound	DL_dualSound	DL_choice
6.6.1	win	2023-06-15	08:33:36	0	0	63d13b764f00a53476867c25	2	1	headphonecheck_calibration	4	headphonecheck_calibrationIntro	1			0		calibrationButton	0	1935	0	0			0	0			1				0	
6.6.1	win	2023-06-15	08:33:36	0	0	63d13b764f00a53476867c25	2	1	headphonecheck_testphase	5	test_collectResponse	3			0		first	1	588	1	4	antiphase_hc_sio.wav	1	0	0			1				0	
6.6.1	win	2023-06-15	08:33:36	0	0	63d13b764f00a53476867c25	2	1	headphonecheck_testphase	5	test_collectResponse	6			0		first	1	399	2	3	antiphase_hc_soi.wav	1	0	0			1				0	
6.6.1	win	2023-06-15	08:33:36	0	0	63d13b764f00a53476867c25	2	1	headphonecheck_testphase	5	test_collectResponse	9			0		second	1	328	3	1	antiphase_hc_iso.wav	2	0	0			1				0	
6.6.1	win	2023-06-15	08:33:36	0	0	63d13b764f00a53476867c25	2	1	headphonecheck_testphase	5	test_collectResponse	12			0		third	1	386	4	2	antiphase_hc_ios.wav	3	0	0			1				0	
6.6.1	win	2023-06-15	08:33:36	0	0	63d13b764f00a53476867c25	2	1	headphonecheck_testphase	5	test_collectResponse	15			0		third	1	256	5	6	antiphase_hc_ois.wav	3	0	0			1				0	
6.6.1	win	2023-06-15	08:33:36	0	0	63d13b764f00a53476867c25	2	1	headphonecheck_testphase	5	test_collectResponse	18			0		second	1	244	6	5	antiphase_hc_osi.wav	2	0	0			1				0	
6.6.1	win	2023-06-15	08:33:36	0	0	63d13b764f00a53476867c25	2	1	stereocheck_calibration	7	stereocheck_calibrationIntro	1			0		stereocheck_calibrationButton	0	1618	6	5	antiphase_hc_osi.wav	2	0	0			1				0	
6.6.1	win	2023-06-15	08:33:36	0	0	63d13b764f00a53476867c25	2	1	stereocheck_testphase	8	stereocheck_test_collectResponse	3			0		stereocheck_right	1	326	6	5	antiphase_hc_osi.wav	2	1	5	noise_calib_stim_RIGHT.wav	2	1				0	
6.6.1	win	2023-06-15	08:33:36	0	0	63d13b764f00a53476867c25	2	1	stereocheck_testphase	8	stereocheck_test_collectResponse	6			0		stereocheck_right	1	250	6	5	antiphase_hc_osi.wav	2	2	6	noise_calib_stim_RIGHT.wav	2	1				0	
6.6.1	win	2023-06-15	08:33:36	0	0	63d13b764f00a53476867c25	2	1	stereocheck_testphase	8	stereocheck_test_collectResponse	9			0		stereocheck_right	1	225	6	5	antiphase_hc_osi.wav	2	3	4	noise_calib_stim_RIGHT.wav	2	1				0	
6.6.1	win	2023-06-15	08:33:36	0	0	63d13b764f00a53476867c25	2	1	stereocheck_testphase	8	stereocheck_test_collectResponse	12			0		stereocheck_left	1	228	6	5	antiphase_hc_osi.wav	2	4	2	noise_calib_stim_LEFT.wav	1	1				0	
6.6.1	win	2023-06-15	08:33:36	0	0	63d13b764f00a53476867c25	2	1	stereocheck_testphase	8	stereocheck_test_collectResponse	15			0		stereocheck_left	1	203	6	5	antiphase_hc_osi.wav	2	5	3	noise_calib_stim_LEFT.wav	1	1				0	
6.6.1	win	2023-06-15	08:33:36	0	0	63d13b764f00a53476867c25	2	1	stereocheck_testphase	8	stereocheck_test_collectResponse	18			0		stereocheck_left	1	223	6	5	antiphase_hc_osi.wav	2	6	1	noise_calib_stim_LEFT.wav	1	1				0	
6.6.1	win	2023-06-15	08:33:36	0	0	63d13b764f00a53476867c25	2	1	DL_practice	11	DL_practice	2			0		ba	1	1041	6	5	antiphase_hc_osi.wav	2	6	1	noise_calib_stim_LEFT.wav	1	7	blb_dichoticlistening_da-ba.mp3	da	ba	1	right
6.6.1	win	2023-06-15	08:33:36	0	0	63d13b764f00a53476867c25	2	1	DL_practice	11	DL_practice	3			0		ta	1	1111	6	5	antiphase_hc_osi.wav	2	6	1	noise_calib_stim_LEFT.wav	1	36	blb_dichoticlistening_ta-ta.mp3	ta	ta	0	left
6.6.1	win	2023-06-15	08:33:36	0	0	63d13b764f00a53476867c25	2	1	DL_practice	11	DL_practice	4			0		da	1	752	6	5	antiphase_hc_osi.wav	2	6	1	noise_calib_stim_LEFT.wav	1	8	blb_dichoticlistening_da-da.mp3	da	da	0	left
6.6.1	win	2023-06-15	08:33:36	0	0	63d13b764f00a53476867c25	2	1	DL_practice	11	DL_practice	5			0		ga	1	814	6	5	antiphase_hc_osi.wav	2	6	1	noise_calib_stim_LEFT.wav	1	18	blb_dichoticlistening_ga-ta.mp3	ga	ta	1	left
6.6.1	win	2023-06-15	08:33:36	0	0	63d13b764f00a53476867c25	2	1	DL_practice	11	DL_practice	6			0		ga	1	761	6	5	antiphase_hc_osi.wav	2	6	1	noise_calib_stim_LEFT.wav	1	15	blb_dichoticlistening_ga-ga.mp3	ga	ga	0	left
6.6.1	win	2023-06-15	08:33:36	0	0	63d13b764f00a53476867c25	2	1	DL_practice	11	DL_practice	7			0		ka	1	812	6	5	antiphase_hc_osi.wav	2	6	1	noise_calib_stim_LEFT.wav	1	23	blb_dichoticlistening_ka-pa.mp3	ka	pa	1	left
6.6.1	win	2023-06-15	08:33:36	0	0	63d13b764f00a53476867c25	2	1	DL_practice	11	DL_practice	8			0		ba	1	1144	6	5	antiphase_hc_osi.wav	2	6	1	noise_calib_stim_LEFT.wav	1	1	blb_dichoticlistening_ba-ba.mp3	ba	ba	0	left
6.6.1	win	2023-06-15	08:33:36	0	0	63d13b764f00a53476867c25	2	1	DL_practice	11	DL_practice	9			0		pa	1	815	6	5	antiphase_hc_osi.wav	2	6	1	noise_calib_stim_LEFT.wav	1	29	blb_dichoticlistening_pa-pa.mp3	pa	pa	0	left
6.6.1	win	2023-06-15	08:33:36	0	0	63d13b764f00a53476867c25	2	1	DL_practice	11	DL_practice	10			0		ka	1	763	6	5	antiphase_hc_osi.wav	2	6	1	noise_calib_stim_LEFT.wav	1	22	blb_dichoticlistening_ka-ka.mp3	ka	ka	0	left
6.6.1	win	2023-06-15	08:33:36	0	0	63d13b764f00a53476867c25	2	1	DL_test	13	DL_test	1			0		ka	1	766	6	5	antiphase_hc_osi.wav	2	6	1	noise_calib_stim_LEFT.wav	1	28	blb_dichoticlistening_pa-ka.mp3	pa	ka	1	right
6.6.1	win	2023-06-15	08:33:36	0	0	63d13b764f00a53476867c25	2	1	DL_test	13	DL_test	2			0		ga	0	1011	6	5	antiphase_hc_osi.wav	2	6	1	noise_calib_stim_LEFT.wav	1	20	blb_dichoticlistening_ka-da.mp3	ka	da	1	other
6.6.1	win	2023-06-15	08:33:36	0	0	63d13b764f00a53476867c25	2	1	DL_test	13	DL_test	3			0		ga	1	833	6	5	antiphase_hc_osi.wav	2	6	1	noise_calib_stim_LEFT.wav	1	21	blb_dichoticlistening_ka-ga.mp3	ka	ga	1	right
6.6.1	win	2023-06-15	08:33:36	0	0	63d13b764f00a53476867c25	2	1	DL_test	13	DL_test	4			0		ka	1	839	6	5	antiphase_hc_osi.wav	2	6	1	noise_calib_stim_LEFT.wav	1	23	blb_dichoticlistening_ka-pa.mp3	ka	pa	1	left
6.6.1	win	2023-06-15	08:33:36	0	0	63d13b764f00a53476867c25	2	1	DL_test	13	DL_test	5			0		da	1	782	6	5	antiphase_hc_osi.wav	2	6	1	noise_calib_stim_LEFT.wav	1	11	blb_dichoticlistening_da-pa.mp3	da	pa	1	left
6.6.1	win	2023-06-15	08:33:36	0	0	63d13b764f00a53476867c25	2	1	DL_test	13	DL_test	6			0		ka	1	760	6	5	antiphase_hc_osi.wav	2	6	1	noise_calib_stim_LEFT.wav	1	24	blb_dichoticlistening_ka-ta.mp3	ka	ta	1	left
6.6.1	win	2023-06-15	08:33:36	0	0	63d13b764f00a53476867c25	2	1	DL_test	13	DL_test	7			0		ga	1	659	6	5	antiphase_hc_osi.wav	2	6	1	noise_calib_stim_LEFT.wav	1	16	blb_dichoticlistening_ga-ka.mp3	ga	ka	1	left
6.6.1	win	2023-06-15	08:33:36	0	0	63d13b764f00a53476867c25	2	1	DL_test	13	DL_test	8			0		da	1	789	6	5	antiphase_hc_osi.wav	2	6	1	noise_calib_stim_LEFT.wav	1	9	blb_dichoticlistening_da-ga.mp3	da	ga	1	left
6.6.1	win	2023-06-15	08:33:36	0	0	63d13b764f00a53476867c25	2	1	DL_test	13	DL_test	9			0		ba	1	870	6	5	antiphase_hc_osi.wav	2	6	1	noise_calib_stim_LEFT.wav	1	1	blb_dichoticlistening_ba-ba.mp3	ba	ba	0	left
6.6.1	win	2023-06-15	08:33:36	0	0	63d13b764f00a53476867c25	2	1	DL_test	13	DL_test	10			0		ta	0	1511	6	5	antiphase_hc_osi.wav	2	6	1	noise_calib_stim_LEFT.wav	1	26	blb_dichoticlistening_pa-da.mp3	pa	da	1	other
6.6.1	win	2023-06-15	08:33:36	0	0	63d13b764f00a53476867c25	2	1	DL_test	13	DL_test	11			0		ba	1	825	6	5	antiphase_hc_osi.wav	2	6	1	noise_calib_stim_LEFT.wav	1	7	blb_dichoticlistening_da-ba.mp3	da	ba	1	right
6.6.1	win	2023-06-15	08:33:36	0	0	63d13b764f00a53476867c25	2	1	DL_test	13	DL_test	12			0		pa	1	1026	6	5	antiphase_hc_osi.wav	2	6	1	noise_calib_stim_LEFT.wav	1	25	blb_dichoticlistening_pa-ba.mp3	pa	ba	1	left
6.6.1	win	2023-06-15	08:33:36	0	0	63d13b764f00a53476867c25	2	1	DL_test	13	DL_test	13			0		ta	1	1086	6	5	antiphase_hc_osi.wav	2	6	1	noise_calib_stim_LEFT.wav	1	30	blb_dichoticlistening_pa-ta.mp3	pa	ta	1	right
6.6.1	win	2023-06-15	08:33:36	0	0	63d13b764f00a53476867c25	2	1	DL_test	13	DL_test	14			0		ta	1	891	6	5	antiphase_hc_osi.wav	2	6	1	noise_calib_stim_LEFT.wav	1	31	blb_dichoticlistening_ta-ba.mp3	ta	ba	1	left
6.6.1	win	2023-06-15	08:33:36	0	0	63d13b764f00a53476867c25	2	1	DL_test	13	DL_test	15			0		ka	1	1049	6	5	antiphase_hc_osi.wav	2	6	1	noise_calib_stim_LEFT.wav	1	19	blb_dichoticlistening_ka-ba.mp3	ka	ba	1	left
6.6.1	win	2023-06-15	08:33:36	0	0	63d13b764f00a53476867c25	2	1	DL_test	13	DL_test	16			0		ka	0	1024	6	5	antiphase_hc_osi.wav	2	6	1	noise_calib_stim_LEFT.wav	1	13	blb_dichoticlistening_ga-ba.mp3	ga	ba	1	other
6.6.1	win	2023-06-15	08:33:36	0	0	63d13b764f00a53476867c25	2	1	DL_test	13	DL_test	17			0		ba	1	1462	6	5	antiphase_hc_osi.wav	2	6	1	noise_calib_stim_LEFT.wav	1	3	blb_dichoticlistening_ba-ga.mp3	ba	ga	1	left
6.6.1	win	2023-06-15	08:33:36	0	0	63d13b764f00a53476867c25	2	1	DL_test	13	DL_test	18			0		ga	1	861	6	5	antiphase_hc_osi.wav	2	6	1	noise_calib_stim_LEFT.wav	1	14	blb_dichoticlistening_ga-da.mp3	ga	da	1	left
6.6.1	win	2023-06-15	08:33:36	0	0	63d13b764f00a53476867c25	2	1	DL_test	13	DL_test	19			0		da	1	1152	6	5	antiphase_hc_osi.wav	2	6	1	noise_calib_stim_LEFT.wav	1	12	blb_dichoticlistening_da-ta.mp3	da	ta	1	left
6.6.1	win	2023-06-15	08:33:36	0	0	63d13b764f00a53476867c25	2	1	DL_test	13	DL_test	20			0		ba	1	2004	6	5	antiphase_hc_osi.wav	2	6	1	noise_calib_stim_LEFT.wav	1	6	blb_dichoticlistening_ba-ta.mp3	ba	ta	1	left
6.6.1	win	2023-06-15	08:33:36	0	0	63d13b764f00a53476867c25	2	1	DL_test	13	DL_test	21			0		ga	1	926	6	5	antiphase_hc_osi.wav	2	6	1	noise_calib_stim_LEFT.wav	1	33	blb_dichoticlistening_ta-ga.mp3	ta	ga	1	right
6.6.1	win	2023-06-15	08:33:36	0	0	63d13b764f00a53476867c25	2	1	DL_test	13	DL_test	22			0		ga	1	919	6	5	antiphase_hc_osi.wav	2	6	1	noise_calib_stim_LEFT.wav	1	18	blb_dichoticlistening_ga-ta.mp3	ga	ta	1	left
6.6.1	win	2023-06-15	08:33:36	0	0	63d13b764f00a53476867c25	2	1	DL_test	13	DL_test	23			0		ta	1	928	6	5	antiphase_hc_osi.wav	2	6	1	noise_calib_stim_LEFT.wav	1	36	blb_dichoticlistening_ta-ta.mp3	ta	ta	0	left
6.6.1	win	2023-06-15	08:33:36	0	0	63d13b764f00a53476867c25	2	1	DL_test	13	DL_test	24			0		ta	1	764	6	5	antiphase_hc_osi.wav	2	6	1	noise_calib_stim_LEFT.wav	1	35	blb_dichoticlistening_ta-pa.mp3	ta	pa	1	left
6.6.1	win	2023-06-15	08:33:36	0	0	63d13b764f00a53476867c25	2	1	DL_test	13	DL_test	25			0		pa	1	1042	6	5	antiphase_hc_osi.wav	2	6	1	noise_calib_stim_LEFT.wav	1	29	blb_dichoticlistening_pa-pa.mp3	pa	pa	0	left
6.6.1	win	2023-06-15	08:33:36	0	0	63d13b764f00a53476867c25	2	1	DL_test	13	DL_test	26			0		pa	1	2656	6	5	antiphase_hc_osi.wav	2	6	1	noise_calib_stim_LEFT.wav	1	17	blb_dichoticlistening_ga-pa.mp3	ga	pa	1	right
6.6.1	win	2023-06-15	08:33:36	0	0	63d13b764f00a53476867c25	2	1	DL_test	13	DL_test	27			0		ga	1	1762	6	5	antiphase_hc_osi.wav	2	6	1	noise_calib_stim_LEFT.wav	1	27	blb_dichoticlistening_pa-ga.mp3	pa	ga	1	right
6.6.1	win	2023-06-15	08:33:36	0	0	63d13b764f00a53476867c25	2	1	DL_test	13	DL_test	28			0		ka	1	857	6	5	antiphase_hc_osi.wav	2	6	1	noise_calib_stim_LEFT.wav	1	34	blb_dichoticlistening_ta-ka.mp3	ta	ka	1	right
6.6.1	win	2023-06-15	08:33:36	0	0	63d13b764f00a53476867c25	2	1	DL_test	13	DL_test	29			0		da	1	1271	6	5	antiphase_hc_osi.wav	2	6	1	noise_calib_stim_LEFT.wav	1	10	blb_dichoticlistening_da-ka.mp3	da	ka	1	left
6.6.1	win	2023-06-15	08:33:36	0	0	63d13b764f00a53476867c25	2	1	DL_test	13	DL_test	30			0		ka	1	2677	6	5	antiphase_hc_osi.wav	2	6	1	noise_calib_stim_LEFT.wav	1	4	blb_dichoticlistening_ba-ka.mp3	ba	ka	1	right
6.6.1	win	2023-06-15	08:33:36	0	0	63d13b764f00a53476867c25	2	1	DL_test	13	DL_test	31			0		ka	1	613	6	5	antiphase_hc_osi.wav	2	6	1	noise_calib_stim_LEFT.wav	1	22	blb_dichoticlistening_ka-ka.mp3	ka	ka	0	left
6.6.1	win	2023-06-15	08:33:36	0	0	63d13b764f00a53476867c25	2	1	DL_test	13	DL_test	32			0		ba	1	959	6	5	antiphase_hc_osi.wav	2	6	1	noise_calib_stim_LEFT.wav	1	2	blb_dichoticlistening_ba-da.mp3	ba	da	1	left
6.6.1	win	2023-06-15	08:33:36	0	0	63d13b764f00a53476867c25	2	1	DL_test	13	DL_test	33			0		da	1	873	6	5	antiphase_hc_osi.wav	2	6	1	noise_calib_stim_LEFT.wav	1	8	blb_dichoticlistening_da-da.mp3	da	da	0	left
6.6.1	win	2023-06-15	08:33:36	0	0	63d13b764f00a53476867c25	2	1	DL_test	13	DL_test	34			0		ta	1	963	6	5	antiphase_hc_osi.wav	2	6	1	noise_calib_stim_LEFT.wav	1	32	blb_dichoticlistening_ta-da.mp3	ta	da	1	left
6.6.1	win	2023-06-15	08:33:36	0	0	63d13b764f00a53476867c25	2	1	DL_test	13	DL_test	35			0		ga	1	773	6	5	antiphase_hc_osi.wav	2	6	1	noise_calib_stim_LEFT.wav	1	15	blb_dichoticlistening_ga-ga.mp3	ga	ga	0	left
6.6.1	win	2023-06-15	08:33:36	0	0	63d13b764f00a53476867c25	2	1	DL_test	13	DL_test	36			0		ba	1	1111	6	5	antiphase_hc_osi.wav	2	6	1	noise_calib_stim_LEFT.wav	1	5	blb_dichoticlistening_ba-pa.mp3	ba	pa	1	left
6.6.1	win	2023-06-15	08:33:36	0	0	63d13b764f00a53476867c25	2	1	DL_test	14	DL_test	1			0		da	1	1114	6	5	antiphase_hc_osi.wav	2	6	1	noise_calib_stim_LEFT.wav	1	9	blb_dichoticlistening_da-ga.mp3	da	ga	1	left
6.6.1	win	2023-06-15	08:33:36	0	0	63d13b764f00a53476867c25	2	1	DL_test	14	DL_test	2			0		pa	1	1922	6	5	antiphase_hc_osi.wav	2	6	1	noise_calib_stim_LEFT.wav	1	5	blb_dichoticlistening_ba-pa.mp3	ba	pa	1	right
6.6.1	win	2023-06-15	08:33:36	0	0	63d13b764f00a53476867c25	2	1	DL_test	14	DL_test	3			0		ta	1	1024	6	5	antiphase_hc_osi.wav	2	6	1	noise_calib_stim_LEFT.wav	1	35	blb_dichoticlistening_ta-pa.mp3	ta	pa	1	left
6.6.1	win	2023-06-15	08:33:36	0	0	63d13b764f00a53476867c25	2	1	DL_test	14	DL_test	4			0		da	1	1930	6	5	antiphase_hc_osi.wav	2	6	1	noise_calib_stim_LEFT.wav	1	26	blb_dichoticlistening_pa-da.mp3	pa	da	1	right
6.6.1	win	2023-06-15	08:33:36	0	0	63d13b764f00a53476867c25	2	1	DL_test	14	DL_test	5			0		ka	1	991	6	5	antiphase_hc_osi.wav	2	6	1	noise_calib_stim_LEFT.wav	1	19	blb_dichoticlistening_ka-ba.mp3	ka	ba	1	left
6.6.1	win	2023-06-15	08:33:36	0	0	63d13b764f00a53476867c25	2	1	DL_test	14	DL_test	6			0		ba	1	1264	6	5	antiphase_hc_osi.wav	2	6	1	noise_calib_stim_LEFT.wav	1	25	blb_dichoticlistening_pa-ba.mp3	pa	ba	1	right
6.6.1	win	2023-06-15	08:33:36	0	0	63d13b764f00a53476867c25	2	1	DL_test	14	DL_test	7			0		ta	1	1291	6	5	antiphase_hc_osi.wav	2	6	1	noise_calib_stim_LEFT.wav	1	6	blb_dichoticlistening_ba-ta.mp3	ba	ta	1	right
6.6.1	win	2023-06-15	08:33:36	0	0	63d13b764f00a53476867c25	2	1	DL_test	14	DL_test	8			0		ga	1	1267	6	5	antiphase_hc_osi.wav	2	6	1	noise_calib_stim_LEFT.wav	1	18	blb_dichoticlistening_ga-ta.mp3	ga	ta	1	left
6.6.1	win	2023-06-15	08:33:36	0	0	63d13b764f00a53476867c25	2	1	DL_test	14	DL_test	9			0		ka	1	952	6	5	antiphase_hc_osi.wav	2	6	1	noise_calib_stim_LEFT.wav	1	20	blb_dichoticlistening_ka-da.mp3	ka	da	1	left
6.6.1	win	2023-06-15	08:33:36	0	0	63d13b764f00a53476867c25	2	1	DL_test	14	DL_test	10			0		ka	1	900	6	5	antiphase_hc_osi.wav	2	6	1	noise_calib_stim_LEFT.wav	1	22	blb_dichoticlistening_ka-ka.mp3	ka	ka	0	left
6.6.1	win	2023-06-15	08:33:36	0	0	63d13b764f00a53476867c25	2	1	DL_test	14	DL_test	11			0		ta	1	907	6	5	antiphase_hc_osi.wav	2	6	1	noise_calib_stim_LEFT.wav	1	30	blb_dichoticlistening_pa-ta.mp3	pa	ta	1	right
6.6.1	win	2023-06-15	08:33:36	0	0	63d13b764f00a53476867c25	2	1	DL_test	14	DL_test	12			0		ba	1	1458	6	5	antiphase_hc_osi.wav	2	6	1	noise_calib_stim_LEFT.wav	1	3	blb_dichoticlistening_ba-ga.mp3	ba	ga	1	left
6.6.1	win	2023-06-15	08:33:36	0	0	63d13b764f00a53476867c25	2	1	DL_test	14	DL_test	13			0		ga	1	872	6	5	antiphase_hc_osi.wav	2	6	1	noise_calib_stim_LEFT.wav	1	33	blb_dichoticlistening_ta-ga.mp3	ta	ga	1	right
6.6.1	win	2023-06-15	08:33:36	0	0	63d13b764f00a53476867c25	2	1	DL_test	14	DL_test	14			0		ga	1	1043	6	5	antiphase_hc_osi.wav	2	6	1	noise_calib_stim_LEFT.wav	1	13	blb_dichoticlistening_ga-ba.mp3	ga	ba	1	left
6.6.1	win	2023-06-15	08:33:36	0	0	63d13b764f00a53476867c25	2	1	DL_test	14	DL_test	15			0		da	1	897	6	5	antiphase_hc_osi.wav	2	6	1	noise_calib_stim_LEFT.wav	1	10	blb_dichoticlistening_da-ka.mp3	da	ka	1	left
6.6.1	win	2023-06-15	08:33:36	0	0	63d13b764f00a53476867c25	2	1	DL_test	14	DL_test	16			0		ta	1	1267	6	5	antiphase_hc_osi.wav	2	6	1	noise_calib_stim_LEFT.wav	1	36	blb_dichoticlistening_ta-ta.mp3	ta	ta	0	left
6.6.1	win	2023-06-15	08:33:36	0	0	63d13b764f00a53476867c25	2	1	DL_test	14	DL_test	17			0		da	1	1727	6	5	antiphase_hc_osi.wav	2	6	1	noise_calib_stim_LEFT.wav	1	11	blb_dichoticlistening_da-pa.mp3	da	pa	1	left
6.6.1	win	2023-06-15	08:33:36	0	0	63d13b764f00a53476867c25	2	1	DL_test	14	DL_test	18			0		ga	1	1057	6	5	antiphase_hc_osi.wav	2	6	1	noise_calib_stim_LEFT.wav	1	16	blb_dichoticlistening_ga-ka.mp3	ga	ka	1	left
6.6.1	win	2023-06-15	08:33:36	0	0	63d13b764f00a53476867c25	2	1	DL_test	14	DL_test	19			0		ta	1	897	6	5	antiphase_hc_osi.wav	2	6	1	noise_calib_stim_LEFT.wav	1	12	blb_dichoticlistening_da-ta.mp3	da	ta	1	right
6.6.1	win	2023-06-15	08:33:36	0	0	63d13b764f00a53476867c25	2	1	DL_test	14	DL_test	20			0		ka	1	917	6	5	antiphase_hc_osi.wav	2	6	1	noise_calib_stim_LEFT.wav	1	21	blb_dichoticlistening_ka-ga.mp3	ka	ga	1	left
6.6.1	win	2023-06-15	08:33:36	0	0	63d13b764f00a53476867c25	2	1	DL_test	14	DL_test	21			0		ta	1	1068	6	5	antiphase_hc_osi.wav	2	6	1	noise_calib_stim_LEFT.wav	1	32	blb_dichoticlistening_ta-da.mp3	ta	da	1	left
6.6.1	win	2023-06-15	08:33:36	0	0	63d13b764f00a53476867c25	2	1	DL_test	14	DL_test	22			0		ka	1	1212	6	5	antiphase_hc_osi.wav	2	6	1	noise_calib_stim_LEFT.wav	1	28	blb_dichoticlistening_pa-ka.mp3	pa	ka	1	right
6.6.1	win	2023-06-15	08:33:36	0	0	63d13b764f00a53476867c25	2	1	DL_test	14	DL_test	23			0		ga	1	969	6	5	antiphase_hc_osi.wav	2	6	1	noise_calib_stim_LEFT.wav	1	14	blb_dichoticlistening_ga-da.mp3	ga	da	1	left
6.6.1	win	2023-06-15	08:33:36	0	0	63d13b764f00a53476867c25	2	1	DL_test	14	DL_test	24			0		ga	1	796	6	5	antiphase_hc_osi.wav	2	6	1	noise_calib_stim_LEFT.wav	1	15	blb_dichoticlistening_ga-ga.mp3	ga	ga	0	left
6.6.1	win	2023-06-15	08:33:36	0	0	63d13b764f00a53476867c25	2	1	DL_test	14	DL_test	25			0		ka	1	798	6	5	antiphase_hc_osi.wav	2	6	1	noise_calib_stim_LEFT.wav	1	34	blb_dichoticlistening_ta-ka.mp3	ta	ka	1	right
6.6.1	win	2023-06-15	08:33:36	0	0	63d13b764f00a53476867c25	2	1	DL_test	14	DL_test	26			0		ta	1	957	6	5	antiphase_hc_osi.wav	2	6	1	noise_calib_stim_LEFT.wav	1	31	blb_dichoticlistening_ta-ba.mp3	ta	ba	1	left
6.6.1	win	2023-06-15	08:33:36	0	0	63d13b764f00a53476867c25	2	1	DL_test	14	DL_test	27			0		ba	1	906	6	5	antiphase_hc_osi.wav	2	6	1	noise_calib_stim_LEFT.wav	1	2	blb_dichoticlistening_ba-da.mp3	ba	da	1	left
6.6.1	win	2023-06-15	08:33:36	0	0	63d13b764f00a53476867c25	2	1	DL_test	14	DL_test	28			0		da	1	1125	6	5	antiphase_hc_osi.wav	2	6	1	noise_calib_stim_LEFT.wav	1	8	blb_dichoticlistening_da-da.mp3	da	da	0	left
6.6.1	win	2023-06-15	08:33:36	0	0	63d13b764f00a53476867c25	2	1	DL_test	14	DL_test	29			0		da	1	724	6	5	antiphase_hc_osi.wav	2	6	1	noise_calib_stim_LEFT.wav	1	7	blb_dichoticlistening_da-ba.mp3	da	ba	1	left
6.6.1	win	2023-06-15	08:33:36	0	0	63d13b764f00a53476867c25	2	1	DL_test	14	DL_test	30			0		ka	0	1327	6	5	antiphase_hc_osi.wav	2	6	1	noise_calib_stim_LEFT.wav	1	17	blb_dichoticlistening_ga-pa.mp3	ga	pa	1	other
6.6.1	win	2023-06-15	08:33:36	0	0	63d13b764f00a53476867c25	2	1	DL_test	14	DL_test	31			0		pa	1	792	6	5	antiphase_hc_osi.wav	2	6	1	noise_calib_stim_LEFT.wav	1	29	blb_dichoticlistening_pa-pa.mp3	pa	pa	0	left
6.6.1	win	2023-06-15	08:33:36	0	0	63d13b764f00a53476867c25	2	1	DL_test	14	DL_test	32			0		ka	1	1500	6	5	antiphase_hc_osi.wav	2	6	1	noise_calib_stim_LEFT.wav	1	23	blb_dichoticlistening_ka-pa.mp3	ka	pa	1	left
6.6.1	win	2023-06-15	08:33:36	0	0	63d13b764f00a53476867c25	2	1	DL_test	14	DL_test	33			0		ba	1	879	6	5	antiphase_hc_osi.wav	2	6	1	noise_calib_stim_LEFT.wav	1	1	blb_dichoticlistening_ba-ba.mp3	ba	ba	0	left
6.6.1	win	2023-06-15	08:33:36	0	0	63d13b764f00a53476867c25	2	1	DL_test	14	DL_test	34			0		ka	0	831	6	5	antiphase_hc_osi.wav	2	6	1	noise_calib_stim_LEFT.wav	1	27	blb_dichoticlistening_pa-ga.mp3	pa	ga	1	other
6.6.1	win	2023-06-15	08:33:36	0	0	63d13b764f00a53476867c25	2	1	DL_test	14	DL_test	35			0		ka	1	1037	6	5	antiphase_hc_osi.wav	2	6	1	noise_calib_stim_LEFT.wav	1	4	blb_dichoticlistening_ba-ka.mp3	ba	ka	1	right
6.6.1	win	2023-06-15	08:33:36	0	0	63d13b764f00a53476867c25	2	1	DL_test	14	DL_test	36			0		ka	1	1052	6	5	antiphase_hc_osi.wav	2	6	1	noise_calib_stim_LEFT.wav	1	24	blb_dichoticlistening_ka-ta.mp3	ka	ta	1	left
6.6.1	win	2023-06-15	08:33:36	0	0	63d13b764f00a53476867c25	2	1	DL_test	15	DL_test	1			0		da	1	1024	6	5	antiphase_hc_osi.wav	2	6	1	noise_calib_stim_LEFT.wav	1	9	blb_dichoticlistening_da-ga.mp3	da	ga	1	left
6.6.1	win	2023-06-15	08:33:36	0	0	63d13b764f00a53476867c25	2	1	DL_test	15	DL_test	2			0		ka	1	1008	6	5	antiphase_hc_osi.wav	2	6	1	noise_calib_stim_LEFT.wav	1	22	blb_dichoticlistening_ka-ka.mp3	ka	ka	0	left
6.6.1	win	2023-06-15	08:33:36	0	0	63d13b764f00a53476867c25	2	1	DL_test	15	DL_test	3			0		ka	1	530	6	5	antiphase_hc_osi.wav	2	6	1	noise_calib_stim_LEFT.wav	1	23	blb_dichoticlistening_ka-pa.mp3	ka	pa	1	left
6.6.1	win	2023-06-15	08:33:36	0	0	63d13b764f00a53476867c25	2	1	DL_test	15	DL_test	4			0		ta	1	1727	6	5	antiphase_hc_osi.wav	2	6	1	noise_calib_stim_LEFT.wav	1	32	blb_dichoticlistening_ta-da.mp3	ta	da	1	left
6.6.1	win	2023-06-15	08:33:36	0	0	63d13b764f00a53476867c25	2	1	DL_test	15	DL_test	5			0		ka	1	916	6	5	antiphase_hc_osi.wav	2	6	1	noise_calib_stim_LEFT.wav	1	4	blb_dichoticlistening_ba-ka.mp3	ba	ka	1	right
6.6.1	win	2023-06-15	08:33:36	0	0	63d13b764f00a53476867c25	2	1	DL_test	15	DL_test	6			0		ga	1	1352	6	5	antiphase_hc_osi.wav	2	6	1	noise_calib_stim_LEFT.wav	1	14	blb_dichoticlistening_ga-da.mp3	ga	da	1	left
6.6.1	win	2023-06-15	08:33:36	0	0	63d13b764f00a53476867c25	2	1	DL_test	15	DL_test	7			0		da	1	1027	6	5	antiphase_hc_osi.wav	2	6	1	noise_calib_stim_LEFT.wav	1	8	blb_dichoticlistening_da-da.mp3	da	da	0	left
6.6.1	win	2023-06-15	08:33:36	0	0	63d13b764f00a53476867c25	2	1	DL_test	15	DL_test	8			0		ta	1	1090	6	5	antiphase_hc_osi.wav	2	6	1	noise_calib_stim_LEFT.wav	1	31	blb_dichoticlistening_ta-ba.mp3	ta	ba	1	left
6.6.1	win	2023-06-15	08:33:36	0	0	63d13b764f00a53476867c25	2	1	DL_test	15	DL_test	9			0		pa	1	1626	6	5	antiphase_hc_osi.wav	2	6	1	noise_calib_stim_LEFT.wav	1	17	blb_dichoticlistening_ga-pa.mp3	ga	pa	1	right
6.6.1	win	2023-06-15	08:33:36	0	0	63d13b764f00a53476867c25	2	1	DL_test	15	DL_test	10			0		ga	1	1376	6	5	antiphase_hc_osi.wav	2	6	1	noise_calib_stim_LEFT.wav	1	33	blb_dichoticlistening_ta-ga.mp3	ta	ga	1	right
6.6.1	win	2023-06-15	08:33:36	0	0	63d13b764f00a53476867c25	2	1	DL_test	15	DL_test	11			0		ta	1	1043	6	5	antiphase_hc_osi.wav	2	6	1	noise_calib_stim_LEFT.wav	1	30	blb_dichoticlistening_pa-ta.mp3	pa	ta	1	right
6.6.1	win	2023-06-15	08:33:36	0	0	63d13b764f00a53476867c25	2	1	DL_test	15	DL_test	12			0		da	1	1009	6	5	antiphase_hc_osi.wav	2	6	1	noise_calib_stim_LEFT.wav	1	26	blb_dichoticlistening_pa-da.mp3	pa	da	1	right
6.6.1	win	2023-06-15	08:33:36	0	0	63d13b764f00a53476867c25	2	1	DL_test	15	DL_test	13			0		ba	1	886	6	5	antiphase_hc_osi.wav	2	6	1	noise_calib_stim_LEFT.wav	1	1	blb_dichoticlistening_ba-ba.mp3	ba	ba	0	left
6.6.1	win	2023-06-15	08:33:36	0	0	63d13b764f00a53476867c25	2	1	DL_test	15	DL_test	14			0		ba	1	986	6	5	antiphase_hc_osi.wav	2	6	1	noise_calib_stim_LEFT.wav	1	3	blb_dichoticlistening_ba-ga.mp3	ba	ga	1	left
6.6.1	win	2023-06-15	08:33:36	0	0	63d13b764f00a53476867c25	2	1	DL_test	15	DL_test	15			0		ka	1	1213	6	5	antiphase_hc_osi.wav	2	6	1	noise_calib_stim_LEFT.wav	1	28	blb_dichoticlistening_pa-ka.mp3	pa	ka	1	right
6.6.1	win	2023-06-15	08:33:36	0	0	63d13b764f00a53476867c25	2	1	DL_test	15	DL_test	16			0		ga	1	1049	6	5	antiphase_hc_osi.wav	2	6	1	noise_calib_stim_LEFT.wav	1	15	blb_dichoticlistening_ga-ga.mp3	ga	ga	0	left
6.6.1	win	2023-06-15	08:33:36	0	0	63d13b764f00a53476867c25	2	1	DL_test	15	DL_test	17			0		ga	1	523	6	5	antiphase_hc_osi.wav	2	6	1	noise_calib_stim_LEFT.wav	1	27	blb_dichoticlistening_pa-ga.mp3	pa	ga	1	right
6.6.1	win	2023-06-15	08:33:36	0	0	63d13b764f00a53476867c25	2	1	DL_test	15	DL_test	18			0		ka	1	874	6	5	antiphase_hc_osi.wav	2	6	1	noise_calib_stim_LEFT.wav	1	19	blb_dichoticlistening_ka-ba.mp3	ka	ba	1	left
6.6.1	win	2023-06-15	08:33:36	0	0	63d13b764f00a53476867c25	2	1	DL_test	15	DL_test	19			0		ta	0	1097	6	5	antiphase_hc_osi.wav	2	6	1	noise_calib_stim_LEFT.wav	1	10	blb_dichoticlistening_da-ka.mp3	da	ka	1	other
6.6.1	win	2023-06-15	08:33:36	0	0	63d13b764f00a53476867c25	2	1	DL_test	15	DL_test	20			0		ba	1	1252	6	5	antiphase_hc_osi.wav	2	6	1	noise_calib_stim_LEFT.wav	1	7	blb_dichoticlistening_da-ba.mp3	da	ba	1	right
6.6.1	win	2023-06-15	08:33:36	0	0	63d13b764f00a53476867c25	2	1	DL_test	15	DL_test	21			0		pa	1	893	6	5	antiphase_hc_osi.wav	2	6	1	noise_calib_stim_LEFT.wav	1	5	blb_dichoticlistening_ba-pa.mp3	ba	pa	1	right
6.6.1	win	2023-06-15	08:33:36	0	0	63d13b764f00a53476867c25	2	1	DL_test	15	DL_test	22			0		ka	1	719	6	5	antiphase_hc_osi.wav	2	6	1	noise_calib_stim_LEFT.wav	1	16	blb_dichoticlistening_ga-ka.mp3	ga	ka	1	right
6.6.1	win	2023-06-15	08:33:36	0	0	63d13b764f00a53476867c25	2	1	DL_test	15	DL_test	23			0		ta	1	946	6	5	antiphase_hc_osi.wav	2	6	1	noise_calib_stim_LEFT.wav	1	6	blb_dichoticlistening_ba-ta.mp3	ba	ta	1	right
6.6.1	win	2023-06-15	08:33:36	0	0	63d13b764f00a53476867c25	2	1	DL_test	15	DL_test	24			0		ta	1	748	6	5	antiphase_hc_osi.wav	2	6	1	noise_calib_stim_LEFT.wav	1	35	blb_dichoticlistening_ta-pa.mp3	ta	pa	1	left
6.6.1	win	2023-06-15	08:33:36	0	0	63d13b764f00a53476867c25	2	1	DL_test	15	DL_test	25			0		ka	1	1013	6	5	antiphase_hc_osi.wav	2	6	1	noise_calib_stim_LEFT.wav	1	24	blb_dichoticlistening_ka-ta.mp3	ka	ta	1	left
6.6.1	win	2023-06-15	08:33:36	0	0	63d13b764f00a53476867c25	2	1	DL_test	15	DL_test	26			0		ba	1	1279	6	5	antiphase_hc_osi.wav	2	6	1	noise_calib_stim_LEFT.wav	1	2	blb_dichoticlistening_ba-da.mp3	ba	da	1	left
6.6.1	win	2023-06-15	08:33:36	0	0	63d13b764f00a53476867c25	2	1	DL_test	15	DL_test	27			0		ba	0	1917	6	5	antiphase_hc_osi.wav	2	6	1	noise_calib_stim_LEFT.wav	1	18	blb_dichoticlistening_ga-ta.mp3	ga	ta	1	other
6.6.1	win	2023-06-15	08:33:36	0	0	63d13b764f00a53476867c25	2	1	DL_test	15	DL_test	28			0		pa	1	1621	6	5	antiphase_hc_osi.wav	2	6	1	noise_calib_stim_LEFT.wav	1	25	blb_dichoticlistening_pa-ba.mp3	pa	ba	1	left
6.6.1	win	2023-06-15	08:33:36	0	0	63d13b764f00a53476867c25	2	1	DL_test	15	DL_test	29			0		ta	1	1010	6	5	antiphase_hc_osi.wav	2	6	1	noise_calib_stim_LEFT.wav	1	12	blb_dichoticlistening_da-ta.mp3	da	ta	1	right
6.6.1	win	2023-06-15	08:33:36	0	0	63d13b764f00a53476867c25	2	1	DL_test	15	DL_test	30			0		da	1	1715	6	5	antiphase_hc_osi.wav	2	6	1	noise_calib_stim_LEFT.wav	1	11	blb_dichoticlistening_da-pa.mp3	da	pa	1	left
6.6.1	win	2023-06-15	08:33:36	0	0	63d13b764f00a53476867c25	2	1	DL_test	15	DL_test	31			0		ka	1	875	6	5	antiphase_hc_osi.wav	2	6	1	noise_calib_stim_LEFT.wav	1	34	blb_dichoticlistening_ta-ka.mp3	ta	ka	1	right
6.6.1	win	2023-06-15	08:33:36	0	0	63d13b764f00a53476867c25	2	1	DL_test	15	DL_test	32			0		ga	1	987	6	5	antiphase_hc_osi.wav	2	6	1	noise_calib_stim_LEFT.wav	1	13	blb_dichoticlistening_ga-ba.mp3	ga	ba	1	left
6.6.1	win	2023-06-15	08:33:36	0	0	63d13b764f00a53476867c25	2	1	DL_test	15	DL_test	33			0		ta	1	1033	6	5	antiphase_hc_osi.wav	2	6	1	noise_calib_stim_LEFT.wav	1	36	blb_dichoticlistening_ta-ta.mp3	ta	ta	0	left
6.6.1	win	2023-06-15	08:33:36	0	0	63d13b764f00a53476867c25	2	1	DL_test	15	DL_test	34			0		ka	1	798	6	5	antiphase_hc_osi.wav	2	6	1	noise_calib_stim_LEFT.wav	1	20	blb_dichoticlistening_ka-da.mp3	ka	da	1	left
6.6.1	win	2023-06-15	08:33:36	0	0	63d13b764f00a53476867c25	2	1	DL_test	15	DL_test	35			0		pa	1	974	6	5	antiphase_hc_osi.wav	2	6	1	noise_calib_stim_LEFT.wav	1	29	blb_dichoticlistening_pa-pa.mp3	pa	pa	0	left
6.6.1	win	2023-06-15	08:33:36	0	0	63d13b764f00a53476867c25	2	1	DL_test	15	DL_test	36			0		ka	1	759	6	5	antiphase_hc_osi.wav	2	6	1	noise_calib_stim_LEFT.wav	1	21	blb_dichoticlistening_ka-ga.mp3	ka	ga	1	left
6.6.1	win	2023-06-15	08:33:36	0	0	63d13b764f00a53476867c25	2	1	DL_test	16	DL_test	1			0		pa	1	833	6	5	antiphase_hc_osi.wav	2	6	1	noise_calib_stim_LEFT.wav	1	25	blb_dichoticlistening_pa-ba.mp3	pa	ba	1	left
6.6.1	win	2023-06-15	08:33:36	0	0	63d13b764f00a53476867c25	2	1	DL_test	16	DL_test	2			0		ta	1	840	6	5	antiphase_hc_osi.wav	2	6	1	noise_calib_stim_LEFT.wav	1	32	blb_dichoticlistening_ta-da.mp3	ta	da	1	left
6.6.1	win	2023-06-15	08:33:36	0	0	63d13b764f00a53476867c25	2	1	DL_test	16	DL_test	3			0		ba	1	844	6	5	antiphase_hc_osi.wav	2	6	1	noise_calib_stim_LEFT.wav	1	7	blb_dichoticlistening_da-ba.mp3	da	ba	1	right
6.6.1	win	2023-06-15	08:33:36	0	0	63d13b764f00a53476867c25	2	1	DL_test	16	DL_test	4			0		ba	1	1133	6	5	antiphase_hc_osi.wav	2	6	1	noise_calib_stim_LEFT.wav	1	6	blb_dichoticlistening_ba-ta.mp3	ba	ta	1	left
6.6.1	win	2023-06-15	08:33:36	0	0	63d13b764f00a53476867c25	2	1	DL_test	16	DL_test	5			0		da	1	1523	6	5	antiphase_hc_osi.wav	2	6	1	noise_calib_stim_LEFT.wav	1	10	blb_dichoticlistening_da-ka.mp3	da	ka	1	left
6.6.1	win	2023-06-15	08:33:36	0	0	63d13b764f00a53476867c25	2	1	DL_test	16	DL_test	6			0		ka	1	1130	6	5	antiphase_hc_osi.wav	2	6	1	noise_calib_stim_LEFT.wav	1	23	blb_dichoticlistening_ka-pa.mp3	ka	pa	1	left
6.6.1	win	2023-06-15	08:33:36	0	0	63d13b764f00a53476867c25	2	1	DL_test	16	DL_test	7			0		ka	1	734	6	5	antiphase_hc_osi.wav	2	6	1	noise_calib_stim_LEFT.wav	1	34	blb_dichoticlistening_ta-ka.mp3	ta	ka	1	right
6.6.1	win	2023-06-15	08:33:36	0	0	63d13b764f00a53476867c25	2	1	DL_test	16	DL_test	8			0		da	1	916	6	5	antiphase_hc_osi.wav	2	6	1	noise_calib_stim_LEFT.wav	1	9	blb_dichoticlistening_da-ga.mp3	da	ga	1	left
6.6.1	win	2023-06-15	08:33:36	0	0	63d13b764f00a53476867c25	2	1	DL_test	16	DL_test	9			0		ka	1	1316	6	5	antiphase_hc_osi.wav	2	6	1	noise_calib_stim_LEFT.wav	1	24	blb_dichoticlistening_ka-ta.mp3	ka	ta	1	left
6.6.1	win	2023-06-15	08:33:36	0	0	63d13b764f00a53476867c25	2	1	DL_test	16	DL_test	10			0		da	0	1498	6	5	antiphase_hc_osi.wav	2	6	1	noise_calib_stim_LEFT.wav	1	3	blb_dichoticlistening_ba-ga.mp3	ba	ga	1	other
6.6.1	win	2023-06-15	08:33:36	0	0	63d13b764f00a53476867c25	2	1	DL_test	16	DL_test	11			0		ba	0	102	6	5	antiphase_hc_osi.wav	2	6	1	noise_calib_stim_LEFT.wav	1	14	blb_dichoticlistening_ga-da.mp3	ga	da	1	other
6.6.1	win	2023-06-15	08:33:36	0	0	63d13b764f00a53476867c25	2	1	DL_test	16	DL_test	12			0		ta	0	1123	6	5	antiphase_hc_osi.wav	2	6	1	noise_calib_stim_LEFT.wav	1	26	blb_dichoticlistening_pa-da.mp3	pa	da	1	other
6.6.1	win	2023-06-15	08:33:36	0	0	63d13b764f00a53476867c25	2	1	DL_test	16	DL_test	13			0		ka	0	693	6	5	antiphase_hc_osi.wav	2	6	1	noise_calib_stim_LEFT.wav	1	18	blb_dichoticlistening_ga-ta.mp3	ga	ta	1	other
6.6.1	win	2023-06-15	08:33:36	0	0	63d13b764f00a53476867c25	2	1	DL_test	16	DL_test	14			0		pa	1	1940	6	5	antiphase_hc_osi.wav	2	6	1	noise_calib_stim_LEFT.wav	1	27	blb_dichoticlistening_pa-ga.mp3	pa	ga	1	left
6.6.1	win	2023-06-15	08:33:36	0	0	63d13b764f00a53476867c25	2	1	DL_test	16	DL_test	15			0		ka	1	733	6	5	antiphase_hc_osi.wav	2	6	1	noise_calib_stim_LEFT.wav	1	20	blb_dichoticlistening_ka-da.mp3	ka	da	1	left
6.6.1	win	2023-06-15	08:33:36	0	0	63d13b764f00a53476867c25	2	1	DL_test	16	DL_test	16			0		da	1	986	6	5	antiphase_hc_osi.wav	2	6	1	noise_calib_stim_LEFT.wav	1	11	blb_dichoticlistening_da-pa.mp3	da	pa	1	left
6.6.1	win	2023-06-15	08:33:36	0	0	63d13b764f00a53476867c25	2	1	DL_test	16	DL_test	17			0		ka	1	1088	6	5	antiphase_hc_osi.wav	2	6	1	noise_calib_stim_LEFT.wav	1	22	blb_dichoticlistening_ka-ka.mp3	ka	ka	0	left
6.6.1	win	2023-06-15	08:33:36	0	0	63d13b764f00a53476867c25	2	1	DL_test	16	DL_test	18			0		da	0	810	6	5	antiphase_hc_osi.wav	2	6	1	noise_calib_stim_LEFT.wav	1	1	blb_dichoticlistening_ba-ba.mp3	ba	ba	0	other
6.6.1	win	2023-06-15	08:33:36	0	0	63d13b764f00a53476867c25	2	1	DL_test	16	DL_test	19			0		ka	1	1023	6	5	antiphase_hc_osi.wav	2	6	1	noise_calib_stim_LEFT.wav	1	21	blb_dichoticlistening_ka-ga.mp3	ka	ga	1	left
6.6.1	win	2023-06-15	08:33:36	0	0	63d13b764f00a53476867c25	2	1	DL_test	16	DL_test	20			0		da	1	1192	6	5	antiphase_hc_osi.wav	2	6	1	noise_calib_stim_LEFT.wav	1	8	blb_dichoticlistening_da-da.mp3	da	da	0	left
6.6.1	win	2023-06-15	08:33:36	0	0	63d13b764f00a53476867c25	2	1	DL_test	16	DL_test	21			0		pa	0	1261	6	5	antiphase_hc_osi.wav	2	6	1	noise_calib_stim_LEFT.wav	1	19	blb_dichoticlistening_ka-ba.mp3	ka	ba	1	other
6.6.1	win	2023-06-15	08:33:36	0	0	63d13b764f00a53476867c25	2	1	DL_test	16	DL_test	22			0		pa	1	917	6	5	antiphase_hc_osi.wav	2	6	1	noise_calib_stim_LEFT.wav	1	5	blb_dichoticlistening_ba-pa.mp3	ba	pa	1	right
6.6.1	win	2023-06-15	08:33:36	0	0	63d13b764f00a53476867c25	2	1	DL_test	16	DL_test	23			0		ka	1	1081	6	5	antiphase_hc_osi.wav	2	6	1	noise_calib_stim_LEFT.wav	1	16	blb_dichoticlistening_ga-ka.mp3	ga	ka	1	right
6.6.1	win	2023-06-15	08:33:36	0	0	63d13b764f00a53476867c25	2	1	DL_test	16	DL_test	24			0		ta	1	670	6	5	antiphase_hc_osi.wav	2	6	1	noise_calib_stim_LEFT.wav	1	35	blb_dichoticlistening_ta-pa.mp3	ta	pa	1	left
6.6.1	win	2023-06-15	08:33:36	0	0	63d13b764f00a53476867c25	2	1	DL_test	16	DL_test	25			0		ga	1	1402	6	5	antiphase_hc_osi.wav	2	6	1	noise_calib_stim_LEFT.wav	1	13	blb_dichoticlistening_ga-ba.mp3	ga	ba	1	left
6.6.1	win	2023-06-15	08:33:36	0	0	63d13b764f00a53476867c25	2	1	DL_test	16	DL_test	26			0		ga	1	499	6	5	antiphase_hc_osi.wav	2	6	1	noise_calib_stim_LEFT.wav	1	17	blb_dichoticlistening_ga-pa.mp3	ga	pa	1	left
6.6.1	win	2023-06-15	08:33:36	0	0	63d13b764f00a53476867c25	2	1	DL_test	16	DL_test	27			0		ta	1	921	6	5	antiphase_hc_osi.wav	2	6	1	noise_calib_stim_LEFT.wav	1	31	blb_dichoticlistening_ta-ba.mp3	ta	ba	1	left
6.6.1	win	2023-06-15	08:33:36	0	0	63d13b764f00a53476867c25	2	1	DL_test	16	DL_test	28			0		ba	1	1869	6	5	antiphase_hc_osi.wav	2	6	1	noise_calib_stim_LEFT.wav	1	4	blb_dichoticlistening_ba-ka.mp3	ba	ka	1	left
6.6.1	win	2023-06-15	08:33:36	0	0	63d13b764f00a53476867c25	2	1	DL_test	16	DL_test	29			0		ta	1	936	6	5	antiphase_hc_osi.wav	2	6	1	noise_calib_stim_LEFT.wav	1	30	blb_dichoticlistening_pa-ta.mp3	pa	ta	1	right
6.6.1	win	2023-06-15	08:33:36	0	0	63d13b764f00a53476867c25	2	1	DL_test	16	DL_test	30			0		da	1	1230	6	5	antiphase_hc_osi.wav	2	6	1	noise_calib_stim_LEFT.wav	1	12	blb_dichoticlistening_da-ta.mp3	da	ta	1	left
6.6.1	win	2023-06-15	08:33:36	0	0	63d13b764f00a53476867c25	2	1	DL_test	16	DL_test	31			0		pa	1	868	6	5	antiphase_hc_osi.wav	2	6	1	noise_calib_stim_LEFT.wav	1	29	blb_dichoticlistening_pa-pa.mp3	pa	pa	0	left
6.6.1	win	2023-06-15	08:33:36	0	0	63d13b764f00a53476867c25	2	1	DL_test	16	DL_test	32			0		ta	1	745	6	5	antiphase_hc_osi.wav	2	6	1	noise_calib_stim_LEFT.wav	1	36	blb_dichoticlistening_ta-ta.mp3	ta	ta	0	left
6.6.1	win	2023-06-15	08:33:36	0	0	63d13b764f00a53476867c25	2	1	DL_test	16	DL_test	33			0		ga	1	844	6	5	antiphase_hc_osi.wav	2	6	1	noise_calib_stim_LEFT.wav	1	15	blb_dichoticlistening_ga-ga.mp3	ga	ga	0	left
6.6.1	win	2023-06-15	08:33:36	0	0	63d13b764f00a53476867c25	2	1	DL_test	16	DL_test	34			0		ga	1	1189	6	5	antiphase_hc_osi.wav	2	6	1	noise_calib_stim_LEFT.wav	1	33	blb_dichoticlistening_ta-ga.mp3	ta	ga	1	right
6.6.1	win	2023-06-15	08:33:36	0	0	63d13b764f00a53476867c25	2	1	DL_test	16	DL_test	35			0		ba	1	1162	6	5	antiphase_hc_osi.wav	2	6	1	noise_calib_stim_LEFT.wav	1	2	blb_dichoticlistening_ba-da.mp3	ba	da	1	left
6.6.1	win	2023-06-15	08:33:36	0	0	63d13b764f00a53476867c25	2	1	DL_test	16	DL_test	36			0		ka	1	742	6	5	antiphase_hc_osi.wav	2	6	1	noise_calib_stim_LEFT.wav	1	28	blb_dichoticlistening_pa-ka.mp3	pa	ka	1	right
6.6.1	win	2023-06-15	08:33:36	08:41:37	478635	63d13b764f00a53476867c25	2	1	practice_z	22	practice_z	1	stimuli_distractor_trianglediamonds.svg	stimuli_target_rectanglediamonds.svg	10	yes	44	1	1254	6	5	antiphase_hc_osi.wav	2	6	1	noise_calib_stim_LEFT.wav	1	28	blb_dichoticlistening_pa-ka.mp3	pa	ka	1	right
6.6.1	win	2023-06-15	08:33:36	08:41:37	478635	63d13b764f00a53476867c25	2	1	practice_z	22	advance_on_keypress_ZEE	2	stimuli_distractor_trianglediamonds.svg	stimuli_target_rectanglediamonds.svg	10	yes	57	0	1110	6	5	antiphase_hc_osi.wav	2	6	1	noise_calib_stim_LEFT.wav	1	28	blb_dichoticlistening_pa-ka.mp3	pa	ka	1	right
6.6.1	win	2023-06-15	08:33:36	08:41:42	483369	63d13b764f00a53476867c25	2	1	practice_z	22	practice_z	3	stimuli_distractor_trianglediamonds.svg	stimuli_distractor_diamondtriangles.svg	16	no	0	1	2003	6	5	antiphase_hc_osi.wav	2	6	1	noise_calib_stim_LEFT.wav	1	28	blb_dichoticlistening_pa-ka.mp3	pa	ka	1	right
6.6.1	win	2023-06-15	08:33:36	08:41:42	483369	63d13b764f00a53476867c25	2	1	practice_z	22	advance_on_keypress_ZEE	4	stimuli_distractor_trianglediamonds.svg	stimuli_distractor_diamondtriangles.svg	16	no	57	0	732	6	5	antiphase_hc_osi.wav	2	6	1	noise_calib_stim_LEFT.wav	1	28	blb_dichoticlistening_pa-ka.mp3	pa	ka	1	right
6.6.1	win	2023-06-15	08:33:36	08:41:45	486427	63d13b764f00a53476867c25	2	1	practice_z	22	practice_z	5	stimuli_target_rectanglediamonds.svg	stimuli_distractor_trianglediamonds.svg	4	yes	44	1	712	6	5	antiphase_hc_osi.wav	2	6	1	noise_calib_stim_LEFT.wav	1	28	blb_dichoticlistening_pa-ka.mp3	pa	ka	1	right
6.6.1	win	2023-06-15	08:33:36	08:41:45	486427	63d13b764f00a53476867c25	2	1	practice_z	22	advance_on_keypress_ZEE	6	stimuli_target_rectanglediamonds.svg	stimuli_distractor_trianglediamonds.svg	4	yes	57	0	718	6	5	antiphase_hc_osi.wav	2	6	1	noise_calib_stim_LEFT.wav	1	28	blb_dichoticlistening_pa-ka.mp3	pa	ka	1	right
6.6.1	win	2023-06-15	08:33:36	08:41:48	489752	63d13b764f00a53476867c25	2	1	practice_z	22	practice_z	7	stimuli_target_squarediamonds.svg	stimuli_distractor_trianglediamonds.svg	5	yes	44	1	993	6	5	antiphase_hc_osi.wav	2	6	1	noise_calib_stim_LEFT.wav	1	28	blb_dichoticlistening_pa-ka.mp3	pa	ka	1	right
6.6.1	win	2023-06-15	08:33:36	08:41:48	489752	63d13b764f00a53476867c25	2	1	practice_z	22	advance_on_keypress_ZEE	8	stimuli_target_squarediamonds.svg	stimuli_distractor_trianglediamonds.svg	5	yes	57	0	642	6	5	antiphase_hc_osi.wav	2	6	1	noise_calib_stim_LEFT.wav	1	28	blb_dichoticlistening_pa-ka.mp3	pa	ka	1	right
6.6.1	win	2023-06-15	08:33:36	08:41:51	492708	63d13b764f00a53476867c25	2	1	practice_z	22	practice_z	9	stimuli_target_rectanglediamonds.svg	stimuli_distractor_diamondtriangles.svg	1	yes	44	1	696	6	5	antiphase_hc_osi.wav	2	6	1	noise_calib_stim_LEFT.wav	1	28	blb_dichoticlistening_pa-ka.mp3	pa	ka	1	right
6.6.1	win	2023-06-15	08:33:36	08:41:51	492708	63d13b764f00a53476867c25	2	1	practice_z	22	advance_on_keypress_ZEE	10	stimuli_target_rectanglediamonds.svg	stimuli_distractor_diamondtriangles.svg	1	yes	57	0	526	6	5	antiphase_hc_osi.wav	2	6	1	noise_calib_stim_LEFT.wav	1	28	blb_dichoticlistening_pa-ka.mp3	pa	ka	1	right
6.6.1	win	2023-06-15	08:33:36	08:41:54	495997	63d13b764f00a53476867c25	2	1	practice_z	22	practice_z	11	stimuli_distractor_diamondtriangles.svg	stimuli_target_diamondrectangles.svg	8	yes	44	1	1143	6	5	antiphase_hc_osi.wav	2	6	1	noise_calib_stim_LEFT.wav	1	28	blb_dichoticlistening_pa-ka.mp3	pa	ka	1	right
6.6.1	win	2023-06-15	08:33:36	08:41:54	495997	63d13b764f00a53476867c25	2	1	practice_z	22	advance_on_keypress_ZEE	12	stimuli_distractor_diamondtriangles.svg	stimuli_target_diamondrectangles.svg	8	yes	57	0	502	6	5	antiphase_hc_osi.wav	2	6	1	noise_calib_stim_LEFT.wav	1	28	blb_dichoticlistening_pa-ka.mp3	pa	ka	1	right
6.6.1	win	2023-06-15	08:33:36	08:41:57	498962	63d13b764f00a53476867c25	2	1	practice_z	22	practice_z	13	stimuli_target_squarediamonds.svg	stimuli_distractor_diamondtriangles.svg	2	yes	44	1	849	6	5	antiphase_hc_osi.wav	2	6	1	noise_calib_stim_LEFT.wav	1	28	blb_dichoticlistening_pa-ka.mp3	pa	ka	1	right
6.6.1	win	2023-06-15	08:33:36	08:41:57	498962	63d13b764f00a53476867c25	2	1	practice_z	22	advance_on_keypress_ZEE	14	stimuli_target_squarediamonds.svg	stimuli_distractor_diamondtriangles.svg	2	yes	57	0	411	6	5	antiphase_hc_osi.wav	2	6	1	noise_calib_stim_LEFT.wav	1	28	blb_dichoticlistening_pa-ka.mp3	pa	ka	1	right
6.6.1	win	2023-06-15	08:33:36	08:42:00	501718	63d13b764f00a53476867c25	2	1	practice_z	22	practice_z	15	stimuli_distractor_diamondtriangles.svg	stimuli_target_rectangletriangles.svg	7	yes	44	1	728	6	5	antiphase_hc_osi.wav	2	6	1	noise_calib_stim_LEFT.wav	1	28	blb_dichoticlistening_pa-ka.mp3	pa	ka	1	right
6.6.1	win	2023-06-15	08:33:36	08:42:00	501718	63d13b764f00a53476867c25	2	1	practice_z	22	advance_on_keypress_ZEE	16	stimuli_distractor_diamondtriangles.svg	stimuli_target_rectangletriangles.svg	7	yes	57	0	456	6	5	antiphase_hc_osi.wav	2	6	1	noise_calib_stim_LEFT.wav	1	28	blb_dichoticlistening_pa-ka.mp3	pa	ka	1	right
6.6.1	win	2023-06-15	08:33:36	08:42:04	505800	63d13b764f00a53476867c25	2	1	practice_z	22	practice_z	17	stimuli_target_diamondsquares.svg	stimuli_distractor_diamondtriangles.svg	3	yes	0	0	2003	6	5	antiphase_hc_osi.wav	2	6	1	noise_calib_stim_LEFT.wav	1	28	blb_dichoticlistening_pa-ka.mp3	pa	ka	1	right
6.6.1	win	2023-06-15	08:33:36	08:42:04	505800	63d13b764f00a53476867c25	2	1	practice_z	22	advance_on_keypress_ZEE	18	stimuli_target_diamondsquares.svg	stimuli_distractor_diamondtriangles.svg	3	yes	57	0	476	6	5	antiphase_hc_osi.wav	2	6	1	noise_calib_stim_LEFT.wav	1	28	blb_dichoticlistening_pa-ka.mp3	pa	ka	1	right
6.6.1	win	2023-06-15	08:33:36	08:42:07	508584	63d13b764f00a53476867c25	2	1	practice_z	22	practice_z	19	stimuli_target_diamondsquares.svg	stimuli_distractor_trianglediamonds.svg	6	yes	44	1	694	6	5	antiphase_hc_osi.wav	2	6	1	noise_calib_stim_LEFT.wav	1	28	blb_dichoticlistening_pa-ka.mp3	pa	ka	1	right
6.6.1	win	2023-06-15	08:33:36	08:42:07	508584	63d13b764f00a53476867c25	2	1	practice_z	22	advance_on_keypress_ZEE	20	stimuli_target_diamondsquares.svg	stimuli_distractor_trianglediamonds.svg	6	yes	57	0	440	6	5	antiphase_hc_osi.wav	2	6	1	noise_calib_stim_LEFT.wav	1	28	blb_dichoticlistening_pa-ka.mp3	pa	ka	1	right
6.6.1	win	2023-06-15	08:33:36	08:42:10	511547	63d13b764f00a53476867c25	2	1	practice_z	22	practice_z	21	stimuli_distractor_trianglediamonds.svg	stimuli_target_diamondrectangles.svg	12	yes	44	1	906	6	5	antiphase_hc_osi.wav	2	6	1	noise_calib_stim_LEFT.wav	1	28	blb_dichoticlistening_pa-ka.mp3	pa	ka	1	right
6.6.1	win	2023-06-15	08:33:36	08:42:10	511547	63d13b764f00a53476867c25	2	1	practice_z	22	advance_on_keypress_ZEE	22	stimuli_distractor_trianglediamonds.svg	stimuli_target_diamondrectangles.svg	12	yes	57	0	395	6	5	antiphase_hc_osi.wav	2	6	1	noise_calib_stim_LEFT.wav	1	28	blb_dichoticlistening_pa-ka.mp3	pa	ka	1	right
6.6.1	win	2023-06-15	08:33:36	08:42:14	515563	63d13b764f00a53476867c25	2	1	practice_z	22	practice_z	23	stimuli_distractor_trianglediamonds.svg	stimuli_distractor_trianglediamonds.svg	15	no	0	1	2003	6	5	antiphase_hc_osi.wav	2	6	1	noise_calib_stim_LEFT.wav	1	28	blb_dichoticlistening_pa-ka.mp3	pa	ka	1	right
6.6.1	win	2023-06-15	08:33:36	08:42:14	515563	63d13b764f00a53476867c25	2	1	practice_z	22	advance_on_keypress_ZEE	24	stimuli_distractor_trianglediamonds.svg	stimuli_distractor_trianglediamonds.svg	15	no	57	0	389	6	5	antiphase_hc_osi.wav	2	6	1	noise_calib_stim_LEFT.wav	1	28	blb_dichoticlistening_pa-ka.mp3	pa	ka	1	right
6.6.1	win	2023-06-15	08:33:36	08:42:18	519573	63d13b764f00a53476867c25	2	1	practice_z	22	practice_z	25	stimuli_distractor_diamondtriangles.svg	stimuli_distractor_trianglediamonds.svg	14	no	0	1	2003	6	5	antiphase_hc_osi.wav	2	6	1	noise_calib_stim_LEFT.wav	1	28	blb_dichoticlistening_pa-ka.mp3	pa	ka	1	right
6.6.1	win	2023-06-15	08:33:36	08:42:18	519573	63d13b764f00a53476867c25	2	1	practice_z	22	advance_on_keypress_ZEE	26	stimuli_distractor_diamondtriangles.svg	stimuli_distractor_trianglediamonds.svg	14	no	57	0	467	6	5	antiphase_hc_osi.wav	2	6	1	noise_calib_stim_LEFT.wav	1	28	blb_dichoticlistening_pa-ka.mp3	pa	ka	1	right
6.6.1	win	2023-06-15	08:33:36	08:42:21	522418	63d13b764f00a53476867c25	2	1	practice_z	22	practice_z	27	stimuli_distractor_trianglediamonds.svg	stimuli_target_squarediamonds.svg	11	yes	44	1	763	6	5	antiphase_hc_osi.wav	2	6	1	noise_calib_stim_LEFT.wav	1	28	blb_dichoticlistening_pa-ka.mp3	pa	ka	1	right
6.6.1	win	2023-06-15	08:33:36	08:42:21	522418	63d13b764f00a53476867c25	2	1	practice_z	22	advance_on_keypress_ZEE	28	stimuli_distractor_trianglediamonds.svg	stimuli_target_squarediamonds.svg	11	yes	57	0	441	6	5	antiphase_hc_osi.wav	2	6	1	noise_calib_stim_LEFT.wav	1	28	blb_dichoticlistening_pa-ka.mp3	pa	ka	1	right
6.6.1	win	2023-06-15	08:33:36	08:42:24	525708	63d13b764f00a53476867c25	2	1	practice_z	22	practice_z	29	stimuli_distractor_diamondtriangles.svg	stimuli_target_trianglerectangles.svg	9	yes	44	1	1232	6	5	antiphase_hc_osi.wav	2	6	1	noise_calib_stim_LEFT.wav	1	28	blb_dichoticlistening_pa-ka.mp3	pa	ka	1	right
6.6.1	win	2023-06-15	08:33:36	08:42:24	525708	63d13b764f00a53476867c25	2	1	practice_z	22	advance_on_keypress_ZEE	30	stimuli_distractor_diamondtriangles.svg	stimuli_target_trianglerectangles.svg	9	yes	57	0	313	6	5	antiphase_hc_osi.wav	2	6	1	noise_calib_stim_LEFT.wav	1	28	blb_dichoticlistening_pa-ka.mp3	pa	ka	1	right
6.6.1	win	2023-06-15	08:33:36	08:42:28	529641	63d13b764f00a53476867c25	2	1	practice_z	22	practice_z	31	stimuli_distractor_diamondtriangles.svg	stimuli_distractor_diamondtriangles.svg	13	no	0	1	2003	6	5	antiphase_hc_osi.wav	2	6	1	noise_calib_stim_LEFT.wav	1	28	blb_dichoticlistening_pa-ka.mp3	pa	ka	1	right
6.6.1	win	2023-06-15	08:33:36	08:42:28	529641	63d13b764f00a53476867c25	2	1	practice_z	22	advance_on_keypress_ZEE	32	stimuli_distractor_diamondtriangles.svg	stimuli_distractor_diamondtriangles.svg	13	no	57	0	388	6	5	antiphase_hc_osi.wav	2	6	1	noise_calib_stim_LEFT.wav	1	28	blb_dichoticlistening_pa-ka.mp3	pa	ka	1	right
6.6.1	win	2023-06-15	08:33:36	08:42:39	541118	63d13b764f00a53476867c25	2	1	main_z	24	main_z	1	stimuli_distractor_trianglediamonds.svg	stimuli_distractor_diamondtriangles.svg	35	no	0	1	2003	6	5	antiphase_hc_osi.wav	2	6	1	noise_calib_stim_LEFT.wav	1	28	blb_dichoticlistening_pa-ka.mp3	pa	ka	1	right
6.6.1	win	2023-06-15	08:33:36	08:42:39	541118	63d13b764f00a53476867c25	2	1	main_z	24	advance_on_keypress_ZEE	2	stimuli_distractor_trianglediamonds.svg	stimuli_distractor_diamondtriangles.svg	35	no	57	0	1132	6	5	antiphase_hc_osi.wav	2	6	1	noise_calib_stim_LEFT.wav	1	28	blb_dichoticlistening_pa-ka.mp3	pa	ka	1	right
6.6.1	win	2023-06-15	08:33:36	08:42:42	543552	63d13b764f00a53476867c25	2	1	main_z	24	main_z	3	stimuli_distractor_diamondtriangles.svg	stimuli_target_squarediamonds.svg	16	yes	44	1	657	6	5	antiphase_hc_osi.wav	2	6	1	noise_calib_stim_LEFT.wav	1	28	blb_dichoticlistening_pa-ka.mp3	pa	ka	1	right
6.6.1	win	2023-06-15	08:33:36	08:42:42	543552	63d13b764f00a53476867c25	2	1	main_z	24	advance_on_keypress_ZEE	4	stimuli_distractor_diamondtriangles.svg	stimuli_target_squarediamonds.svg	16	yes	57	0	544	6	5	antiphase_hc_osi.wav	2	6	1	noise_calib_stim_LEFT.wav	1	28	blb_dichoticlistening_pa-ka.mp3	pa	ka	1	right
6.6.1	win	2023-06-15	08:33:36	08:42:45	546737	63d13b764f00a53476867c25	2	1	main_z	24	main_z	5	stimuli_distractor_trianglediamonds.svg	stimuli_distractor_diamondtriangles.svg	36	no	0	1	2003	6	5	antiphase_hc_osi.wav	2	6	1	noise_calib_stim_LEFT.wav	1	28	blb_dichoticlistening_pa-ka.mp3	pa	ka	1	right
6.6.1	win	2023-06-15	08:33:36	08:42:45	546737	63d13b764f00a53476867c25	2	1	main_z	24	advance_on_keypress_ZEE	6	stimuli_distractor_trianglediamonds.svg	stimuli_distractor_diamondtriangles.svg	36	no	57	0	441	6	5	antiphase_hc_osi.wav	2	6	1	noise_calib_stim_LEFT.wav	1	28	blb_dichoticlistening_pa-ka.mp3	pa	ka	1	right
6.6.1	win	2023-06-15	08:33:36	08:42:48	549803	63d13b764f00a53476867c25	2	1	main_z	24	main_z	7	stimuli_distractor_trianglediamonds.svg	stimuli_distractor_trianglediamonds.svg	33	no	0	1	2003	6	5	antiphase_hc_osi.wav	2	6	1	noise_calib_stim_LEFT.wav	1	28	blb_dichoticlistening_pa-ka.mp3	pa	ka	1	right
6.6.1	win	2023-06-15	08:33:36	08:42:48	549803	63d13b764f00a53476867c25	2	1	main_z	24	advance_on_keypress_ZEE	8	stimuli_distractor_trianglediamonds.svg	stimuli_distractor_trianglediamonds.svg	33	no	57	0	438	6	5	antiphase_hc_osi.wav	2	6	1	noise_calib_stim_LEFT.wav	1	28	blb_dichoticlistening_pa-ka.mp3	pa	ka	1	right
6.6.1	win	2023-06-15	08:33:36	08:42:50	551716	63d13b764f00a53476867c25	2	1	main_z	24	main_z	9	stimuli_target_trianglerectangles.svg	stimuli_distractor_diamondtriangles.svg	21	yes	44	1	848	6	5	antiphase_hc_osi.wav	2	6	1	noise_calib_stim_LEFT.wav	1	28	blb_dichoticlistening_pa-ka.mp3	pa	ka	1	right
6.6.1	win	2023-06-15	08:33:36	08:42:50	551716	63d13b764f00a53476867c25	2	1	main_z	24	advance_on_keypress_ZEE	10	stimuli_target_trianglerectangles.svg	stimuli_distractor_diamondtriangles.svg	21	yes	57	0	677	6	5	antiphase_hc_osi.wav	2	6	1	noise_calib_stim_LEFT.wav	1	28	blb_dichoticlistening_pa-ka.mp3	pa	ka	1	right
6.6.1	win	2023-06-15	08:33:36	08:42:52	553772	63d13b764f00a53476867c25	2	1	main_z	24	main_z	11	stimuli_target_diamondsquares.svg	stimuli_distractor_diamondtriangles.svg	24	yes	44	1	764	6	5	antiphase_hc_osi.wav	2	6	1	noise_calib_stim_LEFT.wav	1	28	blb_dichoticlistening_pa-ka.mp3	pa	ka	1	right
6.6.1	win	2023-06-15	08:33:36	08:42:52	553772	63d13b764f00a53476867c25	2	1	main_z	24	advance_on_keypress_ZEE	12	stimuli_target_diamondsquares.svg	stimuli_distractor_diamondtriangles.svg	24	yes	57	0	387	6	5	antiphase_hc_osi.wav	2	6	1	noise_calib_stim_LEFT.wav	1	28	blb_dichoticlistening_pa-ka.mp3	pa	ka	1	right
6.6.1	win	2023-06-15	08:33:36	08:42:54	555778	63d13b764f00a53476867c25	2	1	main_z	24	main_z	13	stimuli_distractor_trianglediamonds.svg	stimuli_target_rectanglediamonds.svg	10	yes	44	1	1004	6	5	antiphase_hc_osi.wav	2	6	1	noise_calib_stim_LEFT.wav	1	28	blb_dichoticlistening_pa-ka.mp3	pa	ka	1	right
6.6.1	win	2023-06-15	08:33:36	08:42:54	555778	63d13b764f00a53476867c25	2	1	main_z	24	advance_on_keypress_ZEE	14	stimuli_distractor_trianglediamonds.svg	stimuli_target_rectanglediamonds.svg	10	yes	57	0	403	6	5	antiphase_hc_osi.wav	2	6	1	noise_calib_stim_LEFT.wav	1	28	blb_dichoticlistening_pa-ka.mp3	pa	ka	1	right
6.6.1	win	2023-06-15	08:33:36	08:42:56	557478	63d13b764f00a53476867c25	2	1	main_z	24	main_z	15	stimuli_distractor_diamondtriangles.svg	stimuli_target_rectanglediamonds.svg	14	yes	44	1	683	6	5	antiphase_hc_osi.wav	2	6	1	noise_calib_stim_LEFT.wav	1	28	blb_dichoticlistening_pa-ka.mp3	pa	ka	1	right
6.6.1	win	2023-06-15	08:33:36	08:42:56	557478	63d13b764f00a53476867c25	2	1	main_z	24	advance_on_keypress_ZEE	16	stimuli_distractor_diamondtriangles.svg	stimuli_target_rectanglediamonds.svg	14	yes	57	0	275	6	5	antiphase_hc_osi.wav	2	6	1	noise_calib_stim_LEFT.wav	1	28	blb_dichoticlistening_pa-ka.mp3	pa	ka	1	right
6.6.1	win	2023-06-15	08:33:36	08:42:57	559069	63d13b764f00a53476867c25	2	1	main_z	24	main_z	17	stimuli_target_squarediamonds.svg	stimuli_distractor_diamondtriangles.svg	8	yes	44	1	703	6	5	antiphase_hc_osi.wav	2	6	1	noise_calib_stim_LEFT.wav	1	28	blb_dichoticlistening_pa-ka.mp3	pa	ka	1	right
6.6.1	win	2023-06-15	08:33:36	08:42:57	559069	63d13b764f00a53476867c25	2	1	main_z	24	advance_on_keypress_ZEE	18	stimuli_target_squarediamonds.svg	stimuli_distractor_diamondtriangles.svg	8	yes	57	0	280	6	5	antiphase_hc_osi.wav	2	6	1	noise_calib_stim_LEFT.wav	1	28	blb_dichoticlistening_pa-ka.mp3	pa	ka	1	right
6.6.1	win	2023-06-15	08:33:36	08:43:00	561967	63d13b764f00a53476867c25	2	1	main_z	24	main_z	19	stimuli_distractor_diamondtriangles.svg	stimuli_distractor_diamondtriangles.svg	40	no	0	1	2003	6	5	antiphase_hc_osi.wav	2	6	1	noise_calib_stim_LEFT.wav	1	28	blb_dichoticlistening_pa-ka.mp3	pa	ka	1	right
6.6.1	win	2023-06-15	08:33:36	08:43:00	561967	63d13b764f00a53476867c25	2	1	main_z	24	advance_on_keypress_ZEE	20	stimuli_distractor_diamondtriangles.svg	stimuli_distractor_diamondtriangles.svg	40	no	57	0	277	6	5	antiphase_hc_osi.wav	2	6	1	noise_calib_stim_LEFT.wav	1	28	blb_dichoticlistening_pa-ka.mp3	pa	ka	1	right
6.6.1	win	2023-06-15	08:33:36	08:43:02	563733	63d13b764f00a53476867c25	2	1	main_z	24	main_z	21	stimuli_distractor_diamondtriangles.svg	stimuli_target_diamondrectangles.svg	31	yes	44	1	870	6	5	antiphase_hc_osi.wav	2	6	1	noise_calib_stim_LEFT.wav	1	28	blb_dichoticlistening_pa-ka.mp3	pa	ka	1	right
6.6.1	win	2023-06-15	08:33:36	08:43:02	563733	63d13b764f00a53476867c25	2	1	main_z	24	advance_on_keypress_ZEE	22	stimuli_distractor_diamondtriangles.svg	stimuli_target_diamondrectangles.svg	31	yes	57	0	579	6	5	antiphase_hc_osi.wav	2	6	1	noise_calib_stim_LEFT.wav	1	28	blb_dichoticlistening_pa-ka.mp3	pa	ka	1	right
6.6.1	win	2023-06-15	08:33:36	08:43:04	565810	63d13b764f00a53476867c25	2	1	main_z	24	main_z	23	stimuli_target_diamondrectangles.svg	stimuli_distractor_trianglediamonds.svg	19	yes	44	1	885	6	5	antiphase_hc_osi.wav	2	6	1	noise_calib_stim_LEFT.wav	1	28	blb_dichoticlistening_pa-ka.mp3	pa	ka	1	right
6.6.1	win	2023-06-15	08:33:36	08:43:04	565810	63d13b764f00a53476867c25	2	1	main_z	24	advance_on_keypress_ZEE	24	stimuli_target_diamondrectangles.svg	stimuli_distractor_trianglediamonds.svg	19	yes	57	0	266	6	5	antiphase_hc_osi.wav	2	6	1	noise_calib_stim_LEFT.wav	1	28	blb_dichoticlistening_pa-ka.mp3	pa	ka	1	right
6.6.1	win	2023-06-15	08:33:36	08:43:07	568693	63d13b764f00a53476867c25	2	1	main_z	24	main_z	25	stimuli_distractor_diamondtriangles.svg	stimuli_distractor_diamondtriangles.svg	39	no	0	1	2003	6	5	antiphase_hc_osi.wav	2	6	1	noise_calib_stim_LEFT.wav	1	28	blb_dichoticlistening_pa-ka.mp3	pa	ka	1	right
6.6.1	win	2023-06-15	08:33:36	08:43:07	568693	63d13b764f00a53476867c25	2	1	main_z	24	advance_on_keypress_ZEE	26	stimuli_distractor_diamondtriangles.svg	stimuli_distractor_diamondtriangles.svg	39	no	57	0	242	6	5	antiphase_hc_osi.wav	2	6	1	noise_calib_stim_LEFT.wav	1	28	blb_dichoticlistening_pa-ka.mp3	pa	ka	1	right
6.6.1	win	2023-06-15	08:33:36	08:43:09	570366	63d13b764f00a53476867c25	2	1	main_z	24	main_z	27	stimuli_distractor_diamondtriangles.svg	stimuli_target_rectangletriangles.svg	13	yes	44	1	813	6	5	antiphase_hc_osi.wav	2	6	1	noise_calib_stim_LEFT.wav	1	28	blb_dichoticlistening_pa-ka.mp3	pa	ka	1	right
6.6.1	win	2023-06-15	08:33:36	08:43:09	570366	63d13b764f00a53476867c25	2	1	main_z	24	advance_on_keypress_ZEE	28	stimuli_distractor_diamondtriangles.svg	stimuli_target_rectangletriangles.svg	13	yes	57	0	315	6	5	antiphase_hc_osi.wav	2	6	1	noise_calib_stim_LEFT.wav	1	28	blb_dichoticlistening_pa-ka.mp3	pa	ka	1	right
6.6.1	win	2023-06-15	08:33:36	08:43:10	572188	63d13b764f00a53476867c25	2	1	main_z	24	main_z	29	stimuli_distractor_trianglediamonds.svg	stimuli_target_diamondrectangles.svg	27	yes	44	1	891	6	5	antiphase_hc_osi.wav	2	6	1	noise_calib_stim_LEFT.wav	1	28	blb_dichoticlistening_pa-ka.mp3	pa	ka	1	right
6.6.1	win	2023-06-15	08:33:36	08:43:10	572188	63d13b764f00a53476867c25	2	1	main_z	24	advance_on_keypress_ZEE	30	stimuli_distractor_trianglediamonds.svg	stimuli_target_diamondrectangles.svg	27	yes	57	0	429	6	5	antiphase_hc_osi.wav	2	6	1	noise_calib_stim_LEFT.wav	1	28	blb_dichoticlistening_pa-ka.mp3	pa	ka	1	right
6.6.1	win	2023-06-15	08:33:36	08:43:12	574183	63d13b764f00a53476867c25	2	1	main_z	24	main_z	31	stimuli_target_rectanglediamonds.svg	stimuli_distractor_diamondtriangles.svg	6	yes	44	1	954	6	5	antiphase_hc_osi.wav	2	6	1	noise_calib_stim_LEFT.wav	1	28	blb_dichoticlistening_pa-ka.mp3	pa	ka	1	right
6.6.1	win	2023-06-15	08:33:36	08:43:12	574183	63d13b764f00a53476867c25	2	1	main_z	24	advance_on_keypress_ZEE	32	stimuli_target_rectanglediamonds.svg	stimuli_distractor_diamondtriangles.svg	6	yes	57	0	428	6	5	antiphase_hc_osi.wav	2	6	1	noise_calib_stim_LEFT.wav	1	28	blb_dichoticlistening_pa-ka.mp3	pa	ka	1	right
6.6.1	win	2023-06-15	08:33:36	08:43:14	576246	63d13b764f00a53476867c25	2	1	main_z	24	main_z	33	stimuli_target_trianglerectangles.svg	stimuli_distractor_trianglediamonds.svg	17	yes	44	1	1024	6	5	antiphase_hc_osi.wav	2	6	1	noise_calib_stim_LEFT.wav	1	28	blb_dichoticlistening_pa-ka.mp3	pa	ka	1	right
6.6.1	win	2023-06-15	08:33:36	08:43:14	576246	63d13b764f00a53476867c25	2	1	main_z	24	advance_on_keypress_ZEE	34	stimuli_target_trianglerectangles.svg	stimuli_distractor_trianglediamonds.svg	17	yes	57	0	405	6	5	antiphase_hc_osi.wav	2	6	1	noise_calib_stim_LEFT.wav	1	28	blb_dichoticlistening_pa-ka.mp3	pa	ka	1	right
6.6.1	win	2023-06-15	08:33:36	08:43:16	578096	63d13b764f00a53476867c25	2	1	main_z	24	main_z	35	stimuli_target_rectanglediamonds.svg	stimuli_distractor_trianglediamonds.svg	2	yes	44	1	830	6	5	antiphase_hc_osi.wav	2	6	1	noise_calib_stim_LEFT.wav	1	28	blb_dichoticlistening_pa-ka.mp3	pa	ka	1	right
6.6.1	win	2023-06-15	08:33:36	08:43:16	578096	63d13b764f00a53476867c25	2	1	main_z	24	advance_on_keypress_ZEE	36	stimuli_target_rectanglediamonds.svg	stimuli_distractor_trianglediamonds.svg	2	yes	57	0	346	6	5	antiphase_hc_osi.wav	2	6	1	noise_calib_stim_LEFT.wav	1	28	blb_dichoticlistening_pa-ka.mp3	pa	ka	1	right
6.6.1	win	2023-06-15	08:33:36	08:43:18	579976	63d13b764f00a53476867c25	2	1	main_z	24	main_z	37	stimuli_target_rectangletriangles.svg	stimuli_distractor_diamondtriangles.svg	5	yes	44	1	917	6	5	antiphase_hc_osi.wav	2	6	1	noise_calib_stim_LEFT.wav	1	28	blb_dichoticlistening_pa-ka.mp3	pa	ka	1	right
6.6.1	win	2023-06-15	08:33:36	08:43:18	579976	63d13b764f00a53476867c25	2	1	main_z	24	advance_on_keypress_ZEE	38	stimuli_target_rectangletriangles.svg	stimuli_distractor_diamondtriangles.svg	5	yes	57	0	246	6	5	antiphase_hc_osi.wav	2	6	1	noise_calib_stim_LEFT.wav	1	28	blb_dichoticlistening_pa-ka.mp3	pa	ka	1	right
6.6.1	win	2023-06-15	08:33:36	08:43:20	581708	63d13b764f00a53476867c25	2	1	main_z	24	main_z	39	stimuli_distractor_trianglediamonds.svg	stimuli_target_trianglesquares.svg	26	yes	44	1	870	6	5	antiphase_hc_osi.wav	2	6	1	noise_calib_stim_LEFT.wav	1	28	blb_dichoticlistening_pa-ka.mp3	pa	ka	1	right
6.6.1	win	2023-06-15	08:33:36	08:43:20	581708	63d13b764f00a53476867c25	2	1	main_z	24	advance_on_keypress_ZEE	40	stimuli_distractor_trianglediamonds.svg	stimuli_target_trianglesquares.svg	26	yes	57	0	266	6	5	antiphase_hc_osi.wav	2	6	1	noise_calib_stim_LEFT.wav	1	28	blb_dichoticlistening_pa-ka.mp3	pa	ka	1	right
6.6.1	win	2023-06-15	08:33:36	08:43:22	583404	63d13b764f00a53476867c25	2	1	main_z	24	main_z	41	stimuli_target_diamondrectangles.svg	stimuli_distractor_diamondtriangles.svg	23	yes	44	1	815	6	5	antiphase_hc_osi.wav	2	6	1	noise_calib_stim_LEFT.wav	1	28	blb_dichoticlistening_pa-ka.mp3	pa	ka	1	right
6.6.1	win	2023-06-15	08:33:36	08:43:22	583404	63d13b764f00a53476867c25	2	1	main_z	24	advance_on_keypress_ZEE	42	stimuli_target_diamondrectangles.svg	stimuli_distractor_diamondtriangles.svg	23	yes	57	0	289	6	5	antiphase_hc_osi.wav	2	6	1	noise_calib_stim_LEFT.wav	1	28	blb_dichoticlistening_pa-ka.mp3	pa	ka	1	right
6.6.1	win	2023-06-15	08:33:36	08:43:23	585108	63d13b764f00a53476867c25	2	1	main_z	24	main_z	43	stimuli_distractor_trianglediamonds.svg	stimuli_target_trianglerectangles.svg	25	yes	44	1	802	6	5	antiphase_hc_osi.wav	2	6	1	noise_calib_stim_LEFT.wav	1	28	blb_dichoticlistening_pa-ka.mp3	pa	ka	1	right
6.6.1	win	2023-06-15	08:33:36	08:43:23	585108	63d13b764f00a53476867c25	2	1	main_z	24	advance_on_keypress_ZEE	44	stimuli_distractor_trianglediamonds.svg	stimuli_target_trianglerectangles.svg	25	yes	57	0	273	6	5	antiphase_hc_osi.wav	2	6	1	noise_calib_stim_LEFT.wav	1	28	blb_dichoticlistening_pa-ka.mp3	pa	ka	1	right
6.6.1	win	2023-06-15	08:33:36	08:43:25	586884	63d13b764f00a53476867c25	2	1	main_z	24	main_z	45	stimuli_distractor_trianglediamonds.svg	stimuli_target_rectangletriangles.svg	9	yes	44	1	889	6	5	antiphase_hc_osi.wav	2	6	1	noise_calib_stim_LEFT.wav	1	28	blb_dichoticlistening_pa-ka.mp3	pa	ka	1	right
6.6.1	win	2023-06-15	08:33:36	08:43:25	586884	63d13b764f00a53476867c25	2	1	main_z	24	advance_on_keypress_ZEE	46	stimuli_distractor_trianglediamonds.svg	stimuli_target_rectangletriangles.svg	9	yes	57	0	249	6	5	antiphase_hc_osi.wav	2	6	1	noise_calib_stim_LEFT.wav	1	28	blb_dichoticlistening_pa-ka.mp3	pa	ka	1	right
6.6.1	win	2023-06-15	08:33:36	08:43:27	588691	63d13b764f00a53476867c25	2	1	main_z	24	main_z	47	stimuli_distractor_diamondtriangles.svg	stimuli_distractor_trianglediamonds.svg	38	no	44	0	939	6	5	antiphase_hc_osi.wav	2	6	1	noise_calib_stim_LEFT.wav	1	28	blb_dichoticlistening_pa-ka.mp3	pa	ka	1	right
6.6.1	win	2023-06-15	08:33:36	08:43:27	588691	63d13b764f00a53476867c25	2	1	main_z	24	advance_on_keypress_ZEE	48	stimuli_distractor_diamondtriangles.svg	stimuli_distractor_trianglediamonds.svg	38	no	57	0	376	6	5	antiphase_hc_osi.wav	2	6	1	noise_calib_stim_LEFT.wav	1	28	blb_dichoticlistening_pa-ka.mp3	pa	ka	1	right
6.6.1	win	2023-06-15	08:33:36	08:43:29	590715	63d13b764f00a53476867c25	2	1	main_z	24	main_z	49	stimuli_distractor_trianglediamonds.svg	stimuli_target_squarediamonds.svg	12	yes	44	1	1031	6	5	antiphase_hc_osi.wav	2	6	1	noise_calib_stim_LEFT.wav	1	28	blb_dichoticlistening_pa-ka.mp3	pa	ka	1	right
6.6.1	win	2023-06-15	08:33:36	08:43:29	590715	63d13b764f00a53476867c25	2	1	main_z	24	advance_on_keypress_ZEE	50	stimuli_distractor_trianglediamonds.svg	stimuli_target_squarediamonds.svg	12	yes	57	0	419	6	5	antiphase_hc_osi.wav	2	6	1	noise_calib_stim_LEFT.wav	1	28	blb_dichoticlistening_pa-ka.mp3	pa	ka	1	right
6.6.1	win	2023-06-15	08:33:36	08:43:32	593751	63d13b764f00a53476867c25	2	1	main_z	24	main_z	51	stimuli_distractor_diamondtriangles.svg	stimuli_target_trianglesquares.svg	30	yes	0	0	2003	6	5	antiphase_hc_osi.wav	2	6	1	noise_calib_stim_LEFT.wav	1	28	blb_dichoticlistening_pa-ka.mp3	pa	ka	1	right
6.6.1	win	2023-06-15	08:33:36	08:43:32	593751	63d13b764f00a53476867c25	2	1	main_z	24	advance_on_keypress_ZEE	52	stimuli_distractor_diamondtriangles.svg	stimuli_target_trianglesquares.svg	30	yes	57	0	413	6	5	antiphase_hc_osi.wav	2	6	1	noise_calib_stim_LEFT.wav	1	28	blb_dichoticlistening_pa-ka.mp3	pa	ka	1	right
6.6.1	win	2023-06-15	08:33:36	08:43:34	595580	63d13b764f00a53476867c25	2	1	main_z	24	main_z	53	stimuli_target_trianglesquares.svg	stimuli_distractor_diamondtriangles.svg	22	yes	44	1	804	6	5	antiphase_hc_osi.wav	2	6	1	noise_calib_stim_LEFT.wav	1	28	blb_dichoticlistening_pa-ka.mp3	pa	ka	1	right
6.6.1	win	2023-06-15	08:33:36	08:43:34	595580	63d13b764f00a53476867c25	2	1	main_z	24	advance_on_keypress_ZEE	54	stimuli_target_trianglesquares.svg	stimuli_distractor_diamondtriangles.svg	22	yes	57	0	344	6	5	antiphase_hc_osi.wav	2	6	1	noise_calib_stim_LEFT.wav	1	28	blb_dichoticlistening_pa-ka.mp3	pa	ka	1	right
6.6.1	win	2023-06-15	08:33:36	08:43:36	597503	63d13b764f00a53476867c25	2	1	main_z	24	main_z	55	stimuli_distractor_trianglediamonds.svg	stimuli_distractor_trianglediamonds.svg	34	no	44	0	968	6	5	antiphase_hc_osi.wav	2	6	1	noise_calib_stim_LEFT.wav	1	28	blb_dichoticlistening_pa-ka.mp3	pa	ka	1	right
6.6.1	win	2023-06-15	08:33:36	08:43:36	597503	63d13b764f00a53476867c25	2	1	main_z	24	advance_on_keypress_ZEE	56	stimuli_distractor_trianglediamonds.svg	stimuli_distractor_trianglediamonds.svg	34	no	57	0	287	6	5	antiphase_hc_osi.wav	2	6	1	noise_calib_stim_LEFT.wav	1	28	blb_dichoticlistening_pa-ka.mp3	pa	ka	1	right
6.6.1	win	2023-06-15	08:33:36	08:43:38	599400	63d13b764f00a53476867c25	2	1	main_z	24	main_z	57	stimuli_distractor_trianglediamonds.svg	stimuli_target_diamondsquares.svg	28	yes	44	1	995	6	5	antiphase_hc_osi.wav	2	6	1	noise_calib_stim_LEFT.wav	1	28	blb_dichoticlistening_pa-ka.mp3	pa	ka	1	right
6.6.1	win	2023-06-15	08:33:36	08:43:38	599400	63d13b764f00a53476867c25	2	1	main_z	24	advance_on_keypress_ZEE	58	stimuli_distractor_trianglediamonds.svg	stimuli_target_diamondsquares.svg	28	yes	57	0	241	6	5	antiphase_hc_osi.wav	2	6	1	noise_calib_stim_LEFT.wav	1	28	blb_dichoticlistening_pa-ka.mp3	pa	ka	1	right
6.6.1	win	2023-06-15	08:33:36	08:43:40	601856	63d13b764f00a53476867c25	2	1	main_z	24	main_z	59	stimuli_distractor_diamondtriangles.svg	stimuli_target_trianglerectangles.svg	29	yes	44	1	1602	6	5	antiphase_hc_osi.wav	2	6	1	noise_calib_stim_LEFT.wav	1	28	blb_dichoticlistening_pa-ka.mp3	pa	ka	1	right
6.6.1	win	2023-06-15	08:33:36	08:43:40	601856	63d13b764f00a53476867c25	2	1	main_z	24	advance_on_keypress_ZEE	60	stimuli_distractor_diamondtriangles.svg	stimuli_target_trianglerectangles.svg	29	yes	57	0	302	6	5	antiphase_hc_osi.wav	2	6	1	noise_calib_stim_LEFT.wav	1	28	blb_dichoticlistening_pa-ka.mp3	pa	ka	1	right
6.6.1	win	2023-06-15	08:33:36	08:43:42	603679	63d13b764f00a53476867c25	2	1	main_z	24	main_z	61	stimuli_target_rectangletriangles.svg	stimuli_distractor_trianglediamonds.svg	1	yes	44	1	911	6	5	antiphase_hc_osi.wav	2	6	1	noise_calib_stim_LEFT.wav	1	28	blb_dichoticlistening_pa-ka.mp3	pa	ka	1	right
6.6.1	win	2023-06-15	08:33:36	08:43:42	603679	63d13b764f00a53476867c25	2	1	main_z	24	advance_on_keypress_ZEE	62	stimuli_target_rectangletriangles.svg	stimuli_distractor_trianglediamonds.svg	1	yes	57	0	219	6	5	antiphase_hc_osi.wav	2	6	1	noise_calib_stim_LEFT.wav	1	28	blb_dichoticlistening_pa-ka.mp3	pa	ka	1	right
6.6.1	win	2023-06-15	08:33:36	08:43:44	605400	63d13b764f00a53476867c25	2	1	main_z	24	main_z	63	stimuli_target_trianglesquares.svg	stimuli_distractor_trianglediamonds.svg	18	yes	44	1	887	6	5	antiphase_hc_osi.wav	2	6	1	noise_calib_stim_LEFT.wav	1	28	blb_dichoticlistening_pa-ka.mp3	pa	ka	1	right
6.6.1	win	2023-06-15	08:33:36	08:43:44	605400	63d13b764f00a53476867c25	2	1	main_z	24	advance_on_keypress_ZEE	64	stimuli_target_trianglesquares.svg	stimuli_distractor_trianglediamonds.svg	18	yes	57	0	158	6	5	antiphase_hc_osi.wav	2	6	1	noise_calib_stim_LEFT.wav	1	28	blb_dichoticlistening_pa-ka.mp3	pa	ka	1	right
6.6.1	win	2023-06-15	08:33:36	08:43:45	607032	63d13b764f00a53476867c25	2	1	main_z	24	main_z	65	stimuli_target_diamondsquares.svg	stimuli_distractor_trianglediamonds.svg	20	yes	44	1	866	6	5	antiphase_hc_osi.wav	2	6	1	noise_calib_stim_LEFT.wav	1	28	blb_dichoticlistening_pa-ka.mp3	pa	ka	1	right
6.6.1	win	2023-06-15	08:33:36	08:43:45	607032	63d13b764f00a53476867c25	2	1	main_z	24	advance_on_keypress_ZEE	66	stimuli_target_diamondsquares.svg	stimuli_distractor_trianglediamonds.svg	20	yes	57	0	236	6	5	antiphase_hc_osi.wav	2	6	1	noise_calib_stim_LEFT.wav	1	28	blb_dichoticlistening_pa-ka.mp3	pa	ka	1	right
6.6.1	win	2023-06-15	08:33:36	08:43:47	608802	63d13b764f00a53476867c25	2	1	main_z	24	main_z	67	stimuli_distractor_diamondtriangles.svg	stimuli_target_diamondsquares.svg	32	yes	44	1	919	6	5	antiphase_hc_osi.wav	2	6	1	noise_calib_stim_LEFT.wav	1	28	blb_dichoticlistening_pa-ka.mp3	pa	ka	1	right
6.6.1	win	2023-06-15	08:33:36	08:43:47	608802	63d13b764f00a53476867c25	2	1	main_z	24	advance_on_keypress_ZEE	68	stimuli_distractor_diamondtriangles.svg	stimuli_target_diamondsquares.svg	32	yes	57	0	186	6	5	antiphase_hc_osi.wav	2	6	1	noise_calib_stim_LEFT.wav	1	28	blb_dichoticlistening_pa-ka.mp3	pa	ka	1	right
6.6.1	win	2023-06-15	08:33:36	08:43:49	610634	63d13b764f00a53476867c25	2	1	main_z	24	main_z	69	stimuli_distractor_diamondtriangles.svg	stimuli_target_squaretriangles.svg	15	yes	44	1	1021	6	5	antiphase_hc_osi.wav	2	6	1	noise_calib_stim_LEFT.wav	1	28	blb_dichoticlistening_pa-ka.mp3	pa	ka	1	right
6.6.1	win	2023-06-15	08:33:36	08:43:49	610634	63d13b764f00a53476867c25	2	1	main_z	24	advance_on_keypress_ZEE	70	stimuli_distractor_diamondtriangles.svg	stimuli_target_squaretriangles.svg	15	yes	57	0	178	6	5	antiphase_hc_osi.wav	2	6	1	noise_calib_stim_LEFT.wav	1	28	blb_dichoticlistening_pa-ka.mp3	pa	ka	1	right
6.6.1	win	2023-06-15	08:33:36	08:43:52	613437	63d13b764f00a53476867c25	2	1	main_z	24	main_z	71	stimuli_distractor_diamondtriangles.svg	stimuli_distractor_trianglediamonds.svg	37	no	0	1	2003	6	5	antiphase_hc_osi.wav	2	6	1	noise_calib_stim_LEFT.wav	1	28	blb_dichoticlistening_pa-ka.mp3	pa	ka	1	right
6.6.1	win	2023-06-15	08:33:36	08:43:52	613437	63d13b764f00a53476867c25	2	1	main_z	24	advance_on_keypress_ZEE	72	stimuli_distractor_diamondtriangles.svg	stimuli_distractor_trianglediamonds.svg	37	no	57	0	511	6	5	antiphase_hc_osi.wav	2	6	1	noise_calib_stim_LEFT.wav	1	28	blb_dichoticlistening_pa-ka.mp3	pa	ka	1	right
6.6.1	win	2023-06-15	08:33:36	08:43:54	615305	63d13b764f00a53476867c25	2	1	main_z	24	main_z	73	stimuli_target_squarediamonds.svg	stimuli_distractor_trianglediamonds.svg	4	yes	44	1	744	6	5	antiphase_hc_osi.wav	2	6	1	noise_calib_stim_LEFT.wav	1	28	blb_dichoticlistening_pa-ka.mp3	pa	ka	1	right
6.6.1	win	2023-06-15	08:33:36	08:43:54	615305	63d13b764f00a53476867c25	2	1	main_z	24	advance_on_keypress_ZEE	74	stimuli_target_squarediamonds.svg	stimuli_distractor_trianglediamonds.svg	4	yes	57	0	192	6	5	antiphase_hc_osi.wav	2	6	1	noise_calib_stim_LEFT.wav	1	28	blb_dichoticlistening_pa-ka.mp3	pa	ka	1	right
6.6.1	win	2023-06-15	08:33:36	08:43:55	617094	63d13b764f00a53476867c25	2	1	main_z	24	main_z	75	stimuli_target_squaretriangles.svg	stimuli_distractor_trianglediamonds.svg	3	yes	44	1	984	6	5	antiphase_hc_osi.wav	2	6	1	noise_calib_stim_LEFT.wav	1	28	blb_dichoticlistening_pa-ka.mp3	pa	ka	1	right
6.6.1	win	2023-06-15	08:33:36	08:43:55	617094	63d13b764f00a53476867c25	2	1	main_z	24	advance_on_keypress_ZEE	76	stimuli_target_squaretriangles.svg	stimuli_distractor_trianglediamonds.svg	3	yes	57	0	217	6	5	antiphase_hc_osi.wav	2	6	1	noise_calib_stim_LEFT.wav	1	28	blb_dichoticlistening_pa-ka.mp3	pa	ka	1	right
6.6.1	win	2023-06-15	08:33:36	08:43:57	619192	63d13b764f00a53476867c25	2	1	main_z	24	main_z	77	stimuli_target_squaretriangles.svg	stimuli_distractor_diamondtriangles.svg	7	yes	44	1	1268	6	5	antiphase_hc_osi.wav	2	6	1	noise_calib_stim_LEFT.wav	1	28	blb_dichoticlistening_pa-ka.mp3	pa	ka	1	right
6.6.1	win	2023-06-15	08:33:36	08:43:57	619192	63d13b764f00a53476867c25	2	1	main_z	24	advance_on_keypress_ZEE	78	stimuli_target_squaretriangles.svg	stimuli_distractor_diamondtriangles.svg	7	yes	57	0	246	6	5	antiphase_hc_osi.wav	2	6	1	noise_calib_stim_LEFT.wav	1	28	blb_dichoticlistening_pa-ka.mp3	pa	ka	1	right
6.6.1	win	2023-06-15	08:33:36	08:43:59	620824	63d13b764f00a53476867c25	2	1	main_z	24	main_z	79	stimuli_distractor_trianglediamonds.svg	stimuli_target_squaretriangles.svg	11	yes	44	1	774	6	5	antiphase_hc_osi.wav	2	6	1	noise_calib_stim_LEFT.wav	1	28	blb_dichoticlistening_pa-ka.mp3	pa	ka	1	right
6.6.1	win	2023-06-15	08:33:36	08:43:59	620824	63d13b764f00a53476867c25	2	1	main_z	24	advance_on_keypress_ZEE	80	stimuli_distractor_trianglediamonds.svg	stimuli_target_squaretriangles.svg	11	yes	57	0	176	6	5	antiphase_hc_osi.wav	2	6	1	noise_calib_stim_LEFT.wav	1	28	blb_dichoticlistening_pa-ka.mp3	pa	ka	1	right
6.6.1	win	2023-06-15	08:33:36	08:44:02	623617	63d13b764f00a53476867c25	2	1	main_z	24	main_z	81	stimuli_distractor_trianglediamonds.svg	stimuli_distractor_diamondtriangles.svg	35	no	0	1	2003	6	5	antiphase_hc_osi.wav	2	6	1	noise_calib_stim_LEFT.wav	1	28	blb_dichoticlistening_pa-ka.mp3	pa	ka	1	right
6.6.1	win	2023-06-15	08:33:36	08:44:02	623617	63d13b764f00a53476867c25	2	1	main_z	24	advance_on_keypress_ZEE	82	stimuli_distractor_trianglediamonds.svg	stimuli_distractor_diamondtriangles.svg	35	no	57	0	296	6	5	antiphase_hc_osi.wav	2	6	1	noise_calib_stim_LEFT.wav	1	28	blb_dichoticlistening_pa-ka.mp3	pa	ka	1	right
6.6.1	win	2023-06-15	08:33:36	08:44:04	625395	63d13b764f00a53476867c25	2	1	main_z	24	main_z	83	stimuli_target_rectangletriangles.svg	stimuli_distractor_diamondtriangles.svg	5	yes	44	1	870	6	5	antiphase_hc_osi.wav	2	6	1	noise_calib_stim_LEFT.wav	1	28	blb_dichoticlistening_pa-ka.mp3	pa	ka	1	right
6.6.1	win	2023-06-15	08:33:36	08:44:04	625395	63d13b764f00a53476867c25	2	1	main_z	24	advance_on_keypress_ZEE	84	stimuli_target_rectangletriangles.svg	stimuli_distractor_diamondtriangles.svg	5	yes	57	0	203	6	5	antiphase_hc_osi.wav	2	6	1	noise_calib_stim_LEFT.wav	1	28	blb_dichoticlistening_pa-ka.mp3	pa	ka	1	right
6.6.1	win	2023-06-15	08:33:36	08:44:05	627140	63d13b764f00a53476867c25	2	1	main_z	24	main_z	85	stimuli_target_diamondrectangles.svg	stimuli_distractor_diamondtriangles.svg	23	yes	44	1	925	6	5	antiphase_hc_osi.wav	2	6	1	noise_calib_stim_LEFT.wav	1	28	blb_dichoticlistening_pa-ka.mp3	pa	ka	1	right
6.6.1	win	2023-06-15	08:33:36	08:44:05	627140	63d13b764f00a53476867c25	2	1	main_z	24	advance_on_keypress_ZEE	86	stimuli_target_diamondrectangles.svg	stimuli_distractor_diamondtriangles.svg	23	yes	57	0	183	6	5	antiphase_hc_osi.wav	2	6	1	noise_calib_stim_LEFT.wav	1	28	blb_dichoticlistening_pa-ka.mp3	pa	ka	1	right
6.6.1	win	2023-06-15	08:33:36	08:44:07	628784	63d13b764f00a53476867c25	2	1	main_z	24	main_z	87	stimuli_target_diamondrectangles.svg	stimuli_distractor_trianglediamonds.svg	19	yes	44	1	847	6	5	antiphase_hc_osi.wav	2	6	1	noise_calib_stim_LEFT.wav	1	28	blb_dichoticlistening_pa-ka.mp3	pa	ka	1	right
6.6.1	win	2023-06-15	08:33:36	08:44:07	628784	63d13b764f00a53476867c25	2	1	main_z	24	advance_on_keypress_ZEE	88	stimuli_target_diamondrectangles.svg	stimuli_distractor_trianglediamonds.svg	19	yes	57	0	215	6	5	antiphase_hc_osi.wav	2	6	1	noise_calib_stim_LEFT.wav	1	28	blb_dichoticlistening_pa-ka.mp3	pa	ka	1	right
6.6.1	win	2023-06-15	08:33:36	08:44:09	630497	63d13b764f00a53476867c25	2	1	main_z	24	main_z	89	stimuli_distractor_trianglediamonds.svg	stimuli_target_rectanglediamonds.svg	10	yes	44	1	878	6	5	antiphase_hc_osi.wav	2	6	1	noise_calib_stim_LEFT.wav	1	28	blb_dichoticlistening_pa-ka.mp3	pa	ka	1	right
6.6.1	win	2023-06-15	08:33:36	08:44:09	630497	63d13b764f00a53476867c25	2	1	main_z	24	advance_on_keypress_ZEE	90	stimuli_distractor_trianglediamonds.svg	stimuli_target_rectanglediamonds.svg	10	yes	57	0	199	6	5	antiphase_hc_osi.wav	2	6	1	noise_calib_stim_LEFT.wav	1	28	blb_dichoticlistening_pa-ka.mp3	pa	ka	1	right
6.6.1	win	2023-06-15	08:33:36	08:44:10	632017	63d13b764f00a53476867c25	2	1	main_z	24	main_z	91	stimuli_distractor_trianglediamonds.svg	stimuli_target_squaretriangles.svg	11	yes	44	1	710	6	5	antiphase_hc_osi.wav	2	6	1	noise_calib_stim_LEFT.wav	1	28	blb_dichoticlistening_pa-ka.mp3	pa	ka	1	right
6.6.1	win	2023-06-15	08:33:36	08:44:10	632017	63d13b764f00a53476867c25	2	1	main_z	24	advance_on_keypress_ZEE	92	stimuli_distractor_trianglediamonds.svg	stimuli_target_squaretriangles.svg	11	yes	57	0	240	6	5	antiphase_hc_osi.wav	2	6	1	noise_calib_stim_LEFT.wav	1	28	blb_dichoticlistening_pa-ka.mp3	pa	ka	1	right
6.6.1	win	2023-06-15	08:33:36	08:44:12	633699	63d13b764f00a53476867c25	2	1	main_z	24	main_z	93	stimuli_distractor_diamondtriangles.svg	stimuli_target_trianglesquares.svg	30	yes	44	1	828	6	5	antiphase_hc_osi.wav	2	6	1	noise_calib_stim_LEFT.wav	1	28	blb_dichoticlistening_pa-ka.mp3	pa	ka	1	right
6.6.1	win	2023-06-15	08:33:36	08:44:12	633699	63d13b764f00a53476867c25	2	1	main_z	24	advance_on_keypress_ZEE	94	stimuli_distractor_diamondtriangles.svg	stimuli_target_trianglesquares.svg	30	yes	57	0	159	6	5	antiphase_hc_osi.wav	2	6	1	noise_calib_stim_LEFT.wav	1	28	blb_dichoticlistening_pa-ka.mp3	pa	ka	1	right
6.6.1	win	2023-06-15	08:33:36	08:44:15	636479	63d13b764f00a53476867c25	2	1	main_z	24	main_z	95	stimuli_distractor_diamondtriangles.svg	stimuli_distractor_trianglediamonds.svg	37	no	0	1	2003	6	5	antiphase_hc_osi.wav	2	6	1	noise_calib_stim_LEFT.wav	1	28	blb_dichoticlistening_pa-ka.mp3	pa	ka	1	right
6.6.1	win	2023-06-15	08:33:36	08:44:15	636479	63d13b764f00a53476867c25	2	1	main_z	24	advance_on_keypress_ZEE	96	stimuli_distractor_diamondtriangles.svg	stimuli_distractor_trianglediamonds.svg	37	no	57	0	266	6	5	antiphase_hc_osi.wav	2	6	1	noise_calib_stim_LEFT.wav	1	28	blb_dichoticlistening_pa-ka.mp3	pa	ka	1	right
6.6.1	win	2023-06-15	08:33:36	08:44:16	637986	63d13b764f00a53476867c25	2	1	main_z	24	main_z	97	stimuli_target_squaretriangles.svg	stimuli_distractor_trianglediamonds.svg	3	yes	44	1	626	6	5	antiphase_hc_osi.wav	2	6	1	noise_calib_stim_LEFT.wav	1	28	blb_dichoticlistening_pa-ka.mp3	pa	ka	1	right
6.6.1	win	2023-06-15	08:33:36	08:44:16	637986	63d13b764f00a53476867c25	2	1	main_z	24	advance_on_keypress_ZEE	98	stimuli_target_squaretriangles.svg	stimuli_distractor_trianglediamonds.svg	3	yes	57	0	183	6	5	antiphase_hc_osi.wav	2	6	1	noise_calib_stim_LEFT.wav	1	28	blb_dichoticlistening_pa-ka.mp3	pa	ka	1	right
6.6.1	win	2023-06-15	08:33:36	08:44:19	640787	63d13b764f00a53476867c25	2	1	main_z	24	main_z	99	stimuli_distractor_trianglediamonds.svg	stimuli_distractor_diamondtriangles.svg	36	no	0	1	2003	6	5	antiphase_hc_osi.wav	2	6	1	noise_calib_stim_LEFT.wav	1	28	blb_dichoticlistening_pa-ka.mp3	pa	ka	1	right
6.6.1	win	2023-06-15	08:33:36	08:44:19	640787	63d13b764f00a53476867c25	2	1	main_z	24	advance_on_keypress_ZEE	100	stimuli_distractor_trianglediamonds.svg	stimuli_distractor_diamondtriangles.svg	36	no	57	0	394	6	5	antiphase_hc_osi.wav	2	6	1	noise_calib_stim_LEFT.wav	1	28	blb_dichoticlistening_pa-ka.mp3	pa	ka	1	right
6.6.1	win	2023-06-15	08:33:36	08:44:21	642809	63d13b764f00a53476867c25	2	1	main_z	24	main_z	101	stimuli_distractor_trianglediamonds.svg	stimuli_target_diamondrectangles.svg	27	yes	44	1	1009	6	5	antiphase_hc_osi.wav	2	6	1	noise_calib_stim_LEFT.wav	1	28	blb_dichoticlistening_pa-ka.mp3	pa	ka	1	right
6.6.1	win	2023-06-15	08:33:36	08:44:21	642809	63d13b764f00a53476867c25	2	1	main_z	24	advance_on_keypress_ZEE	102	stimuli_distractor_trianglediamonds.svg	stimuli_target_diamondrectangles.svg	27	yes	57	0	184	6	5	antiphase_hc_osi.wav	2	6	1	noise_calib_stim_LEFT.wav	1	28	blb_dichoticlistening_pa-ka.mp3	pa	ka	1	right
6.6.1	win	2023-06-15	08:33:36	08:44:23	644521	63d13b764f00a53476867c25	2	1	main_z	24	main_z	103	stimuli_target_squarediamonds.svg	stimuli_distractor_trianglediamonds.svg	4	yes	44	1	914	6	5	antiphase_hc_osi.wav	2	6	1	noise_calib_stim_LEFT.wav	1	28	blb_dichoticlistening_pa-ka.mp3	pa	ka	1	right
6.6.1	win	2023-06-15	08:33:36	08:44:23	644521	63d13b764f00a53476867c25	2	1	main_z	24	advance_on_keypress_ZEE	104	stimuli_target_squarediamonds.svg	stimuli_distractor_trianglediamonds.svg	4	yes	57	0	163	6	5	antiphase_hc_osi.wav	2	6	1	noise_calib_stim_LEFT.wav	1	28	blb_dichoticlistening_pa-ka.mp3	pa	ka	1	right
6.6.1	win	2023-06-15	08:33:36	08:44:25	647298	63d13b764f00a53476867c25	2	1	main_z	24	main_z	105	stimuli_distractor_trianglediamonds.svg	stimuli_distractor_trianglediamonds.svg	34	no	0	1	2003	6	5	antiphase_hc_osi.wav	2	6	1	noise_calib_stim_LEFT.wav	1	28	blb_dichoticlistening_pa-ka.mp3	pa	ka	1	right
6.6.1	win	2023-06-15	08:33:36	08:44:25	647298	63d13b764f00a53476867c25	2	1	main_z	24	advance_on_keypress_ZEE	106	stimuli_distractor_trianglediamonds.svg	stimuli_distractor_trianglediamonds.svg	34	no	57	0	249	6	5	antiphase_hc_osi.wav	2	6	1	noise_calib_stim_LEFT.wav	1	28	blb_dichoticlistening_pa-ka.mp3	pa	ka	1	right
6.6.1	win	2023-06-15	08:33:36	08:44:27	648954	63d13b764f00a53476867c25	2	1	main_z	24	main_z	107	stimuli_target_diamondsquares.svg	stimuli_distractor_trianglediamonds.svg	20	yes	44	1	789	6	5	antiphase_hc_osi.wav	2	6	1	noise_calib_stim_LEFT.wav	1	28	blb_dichoticlistening_pa-ka.mp3	pa	ka	1	right
6.6.1	win	2023-06-15	08:33:36	08:44:27	648954	63d13b764f00a53476867c25	2	1	main_z	24	advance_on_keypress_ZEE	108	stimuli_target_diamondsquares.svg	stimuli_distractor_trianglediamonds.svg	20	yes	57	0	183	6	5	antiphase_hc_osi.wav	2	6	1	noise_calib_stim_LEFT.wav	1	28	blb_dichoticlistening_pa-ka.mp3	pa	ka	1	right
6.6.1	win	2023-06-15	08:33:36	08:44:29	650579	63d13b764f00a53476867c25	2	1	main_z	24	main_z	109	stimuli_target_trianglesquares.svg	stimuli_distractor_diamondtriangles.svg	22	yes	44	1	829	6	5	antiphase_hc_osi.wav	2	6	1	noise_calib_stim_LEFT.wav	1	28	blb_dichoticlistening_pa-ka.mp3	pa	ka	1	right
6.6.1	win	2023-06-15	08:33:36	08:44:29	650579	63d13b764f00a53476867c25	2	1	main_z	24	advance_on_keypress_ZEE	110	stimuli_target_trianglesquares.svg	stimuli_distractor_diamondtriangles.svg	22	yes	57	0	183	6	5	antiphase_hc_osi.wav	2	6	1	noise_calib_stim_LEFT.wav	1	28	blb_dichoticlistening_pa-ka.mp3	pa	ka	1	right
6.6.1	win	2023-06-15	08:33:36	08:44:30	652054	63d13b764f00a53476867c25	2	1	main_z	24	main_z	111	stimuli_target_trianglesquares.svg	stimuli_distractor_trianglediamonds.svg	18	yes	44	1	679	6	5	antiphase_hc_osi.wav	2	6	1	noise_calib_stim_LEFT.wav	1	28	blb_dichoticlistening_pa-ka.mp3	pa	ka	1	right
6.6.1	win	2023-06-15	08:33:36	08:44:30	652054	63d13b764f00a53476867c25	2	1	main_z	24	advance_on_keypress_ZEE	112	stimuli_target_trianglesquares.svg	stimuli_distractor_trianglediamonds.svg	18	yes	57	0	192	6	5	antiphase_hc_osi.wav	2	6	1	noise_calib_stim_LEFT.wav	1	28	blb_dichoticlistening_pa-ka.mp3	pa	ka	1	right
6.6.1	win	2023-06-15	08:33:36	08:44:32	653714	63d13b764f00a53476867c25	2	1	main_z	24	main_z	113	stimuli_target_trianglerectangles.svg	stimuli_distractor_trianglediamonds.svg	17	yes	44	1	860	6	5	antiphase_hc_osi.wav	2	6	1	noise_calib_stim_LEFT.wav	1	28	blb_dichoticlistening_pa-ka.mp3	pa	ka	1	right
6.6.1	win	2023-06-15	08:33:36	08:44:32	653714	63d13b764f00a53476867c25	2	1	main_z	24	advance_on_keypress_ZEE	114	stimuli_target_trianglerectangles.svg	stimuli_distractor_trianglediamonds.svg	17	yes	57	0	181	6	5	antiphase_hc_osi.wav	2	6	1	noise_calib_stim_LEFT.wav	1	28	blb_dichoticlistening_pa-ka.mp3	pa	ka	1	right
6.6.1	win	2023-06-15	08:33:36	08:44:34	655372	63d13b764f00a53476867c25	2	1	main_z	24	main_z	115	stimuli_target_squaretriangles.svg	stimuli_distractor_diamondtriangles.svg	7	yes	44	1	863	6	5	antiphase_hc_osi.wav	2	6	1	noise_calib_stim_LEFT.wav	1	28	blb_dichoticlistening_pa-ka.mp3	pa	ka	1	right
6.6.1	win	2023-06-15	08:33:36	08:44:34	655372	63d13b764f00a53476867c25	2	1	main_z	24	advance_on_keypress_ZEE	116	stimuli_target_squaretriangles.svg	stimuli_distractor_diamondtriangles.svg	7	yes	57	0	147	6	5	antiphase_hc_osi.wav	2	6	1	noise_calib_stim_LEFT.wav	1	28	blb_dichoticlistening_pa-ka.mp3	pa	ka	1	right
6.6.1	win	2023-06-15	08:33:36	08:44:36	658138	63d13b764f00a53476867c25	2	1	main_z	24	main_z	117	stimuli_distractor_diamondtriangles.svg	stimuli_distractor_diamondtriangles.svg	40	no	0	1	2003	6	5	antiphase_hc_osi.wav	2	6	1	noise_calib_stim_LEFT.wav	1	28	blb_dichoticlistening_pa-ka.mp3	pa	ka	1	right
6.6.1	win	2023-06-15	08:33:36	08:44:36	658138	63d13b764f00a53476867c25	2	1	main_z	24	advance_on_keypress_ZEE	118	stimuli_distractor_diamondtriangles.svg	stimuli_distractor_diamondtriangles.svg	40	no	57	0	254	6	5	antiphase_hc_osi.wav	2	6	1	noise_calib_stim_LEFT.wav	1	28	blb_dichoticlistening_pa-ka.mp3	pa	ka	1	right
6.6.1	win	2023-06-15	08:33:36	08:44:38	659665	63d13b764f00a53476867c25	2	1	main_z	24	main_z	119	stimuli_distractor_diamondtriangles.svg	stimuli_target_rectanglediamonds.svg	14	yes	44	1	660	6	5	antiphase_hc_osi.wav	2	6	1	noise_calib_stim_LEFT.wav	1	28	blb_dichoticlistening_pa-ka.mp3	pa	ka	1	right
6.6.1	win	2023-06-15	08:33:36	08:44:38	659665	63d13b764f00a53476867c25	2	1	main_z	24	advance_on_keypress_ZEE	120	stimuli_distractor_diamondtriangles.svg	stimuli_target_rectanglediamonds.svg	14	yes	57	0	197	6	5	antiphase_hc_osi.wav	2	6	1	noise_calib_stim_LEFT.wav	1	28	blb_dichoticlistening_pa-ka.mp3	pa	ka	1	right
6.6.1	win	2023-06-15	08:33:36	08:44:40	661411	63d13b764f00a53476867c25	2	1	main_z	24	main_z	121	stimuli_target_trianglerectangles.svg	stimuli_distractor_diamondtriangles.svg	21	yes	44	1	933	6	5	antiphase_hc_osi.wav	2	6	1	noise_calib_stim_LEFT.wav	1	28	blb_dichoticlistening_pa-ka.mp3	pa	ka	1	right
6.6.1	win	2023-06-15	08:33:36	08:44:40	661411	63d13b764f00a53476867c25	2	1	main_z	24	advance_on_keypress_ZEE	122	stimuli_target_trianglerectangles.svg	stimuli_distractor_diamondtriangles.svg	21	yes	57	0	216	6	5	antiphase_hc_osi.wav	2	6	1	noise_calib_stim_LEFT.wav	1	28	blb_dichoticlistening_pa-ka.mp3	pa	ka	1	right
6.6.1	win	2023-06-15	08:33:36	08:44:41	663184	63d13b764f00a53476867c25	2	1	main_z	24	main_z	123	stimuli_distractor_trianglediamonds.svg	stimuli_target_rectangletriangles.svg	9	yes	44	1	940	6	5	antiphase_hc_osi.wav	2	6	1	noise_calib_stim_LEFT.wav	1	28	blb_dichoticlistening_pa-ka.mp3	pa	ka	1	right
6.6.1	win	2023-06-15	08:33:36	08:44:41	663184	63d13b764f00a53476867c25	2	1	main_z	24	advance_on_keypress_ZEE	124	stimuli_distractor_trianglediamonds.svg	stimuli_target_rectangletriangles.svg	9	yes	57	0	152	6	5	antiphase_hc_osi.wav	2	6	1	noise_calib_stim_LEFT.wav	1	28	blb_dichoticlistening_pa-ka.mp3	pa	ka	1	right
6.6.1	win	2023-06-15	08:33:36	08:44:43	664747	63d13b764f00a53476867c25	2	1	main_z	24	main_z	125	stimuli_distractor_diamondtriangles.svg	stimuli_target_squarediamonds.svg	16	yes	44	1	794	6	5	antiphase_hc_osi.wav	2	6	1	noise_calib_stim_LEFT.wav	1	28	blb_dichoticlistening_pa-ka.mp3	pa	ka	1	right
6.6.1	win	2023-06-15	08:33:36	08:44:43	664747	63d13b764f00a53476867c25	2	1	main_z	24	advance_on_keypress_ZEE	126	stimuli_distractor_diamondtriangles.svg	stimuli_target_squarediamonds.svg	16	yes	57	0	175	6	5	antiphase_hc_osi.wav	2	6	1	noise_calib_stim_LEFT.wav	1	28	blb_dichoticlistening_pa-ka.mp3	pa	ka	1	right
6.6.1	win	2023-06-15	08:33:36	08:44:45	666390	63d13b764f00a53476867c25	2	1	main_z	24	main_z	127	stimuli_distractor_trianglediamonds.svg	stimuli_target_squarediamonds.svg	12	yes	44	1	852	6	5	antiphase_hc_osi.wav	2	6	1	noise_calib_stim_LEFT.wav	1	28	blb_dichoticlistening_pa-ka.mp3	pa	ka	1	right
6.6.1	win	2023-06-15	08:33:36	08:44:45	666390	63d13b764f00a53476867c25	2	1	main_z	24	advance_on_keypress_ZEE	128	stimuli_distractor_trianglediamonds.svg	stimuli_target_squarediamonds.svg	12	yes	57	0	192	6	5	antiphase_hc_osi.wav	2	6	1	noise_calib_stim_LEFT.wav	1	28	blb_dichoticlistening_pa-ka.mp3	pa	ka	1	right
6.6.1	win	2023-06-15	08:33:36	08:44:47	668665	63d13b764f00a53476867c25	2	1	main_z	24	main_z	129	stimuli_distractor_diamondtriangles.svg	stimuli_distractor_diamondtriangles.svg	39	no	44	0	1474	6	5	antiphase_hc_osi.wav	2	6	1	noise_calib_stim_LEFT.wav	1	28	blb_dichoticlistening_pa-ka.mp3	pa	ka	1	right
6.6.1	win	2023-06-15	08:33:36	08:44:47	668665	63d13b764f00a53476867c25	2	1	main_z	24	advance_on_keypress_ZEE	130	stimuli_distractor_diamondtriangles.svg	stimuli_distractor_diamondtriangles.svg	39	no	57	0	207	6	5	antiphase_hc_osi.wav	2	6	1	noise_calib_stim_LEFT.wav	1	28	blb_dichoticlistening_pa-ka.mp3	pa	ka	1	right
6.6.1	win	2023-06-15	08:33:36	08:44:49	670312	63d13b764f00a53476867c25	2	1	main_z	24	main_z	131	stimuli_distractor_diamondtriangles.svg	stimuli_target_trianglerectangles.svg	29	yes	44	1	821	6	5	antiphase_hc_osi.wav	2	6	1	noise_calib_stim_LEFT.wav	1	28	blb_dichoticlistening_pa-ka.mp3	pa	ka	1	right
6.6.1	win	2023-06-15	08:33:36	08:44:49	670312	63d13b764f00a53476867c25	2	1	main_z	24	advance_on_keypress_ZEE	132	stimuli_distractor_diamondtriangles.svg	stimuli_target_trianglerectangles.svg	29	yes	57	0	157	6	5	antiphase_hc_osi.wav	2	6	1	noise_calib_stim_LEFT.wav	1	28	blb_dichoticlistening_pa-ka.mp3	pa	ka	1	right
6.6.1	win	2023-06-15	08:33:36	08:44:50	672161	63d13b764f00a53476867c25	2	1	main_z	24	main_z	133	stimuli_distractor_diamondtriangles.svg	stimuli_target_squaretriangles.svg	15	yes	44	1	1079	6	5	antiphase_hc_osi.wav	2	6	1	noise_calib_stim_LEFT.wav	1	28	blb_dichoticlistening_pa-ka.mp3	pa	ka	1	right
6.6.1	win	2023-06-15	08:33:36	08:44:50	672161	63d13b764f00a53476867c25	2	1	main_z	24	advance_on_keypress_ZEE	134	stimuli_distractor_diamondtriangles.svg	stimuli_target_squaretriangles.svg	15	yes	57	0	162	6	5	antiphase_hc_osi.wav	2	6	1	noise_calib_stim_LEFT.wav	1	28	blb_dichoticlistening_pa-ka.mp3	pa	ka	1	right
6.6.1	win	2023-06-15	08:33:36	08:44:52	673756	63d13b764f00a53476867c25	2	1	main_z	24	main_z	135	stimuli_target_squarediamonds.svg	stimuli_distractor_diamondtriangles.svg	8	yes	44	1	819	6	5	antiphase_hc_osi.wav	2	6	1	noise_calib_stim_LEFT.wav	1	28	blb_dichoticlistening_pa-ka.mp3	pa	ka	1	right
6.6.1	win	2023-06-15	08:33:36	08:44:52	673756	63d13b764f00a53476867c25	2	1	main_z	24	advance_on_keypress_ZEE	136	stimuli_target_squarediamonds.svg	stimuli_distractor_diamondtriangles.svg	8	yes	57	0	134	6	5	antiphase_hc_osi.wav	2	6	1	noise_calib_stim_LEFT.wav	1	28	blb_dichoticlistening_pa-ka.mp3	pa	ka	1	right
6.6.1	win	2023-06-15	08:33:36	08:44:54	675333	63d13b764f00a53476867c25	2	1	main_z	24	main_z	137	stimuli_distractor_trianglediamonds.svg	stimuli_target_diamondsquares.svg	28	yes	44	1	825	6	5	antiphase_hc_osi.wav	2	6	1	noise_calib_stim_LEFT.wav	1	28	blb_dichoticlistening_pa-ka.mp3	pa	ka	1	right
6.6.1	win	2023-06-15	08:33:36	08:44:54	675333	63d13b764f00a53476867c25	2	1	main_z	24	advance_on_keypress_ZEE	138	stimuli_distractor_trianglediamonds.svg	stimuli_target_diamondsquares.svg	28	yes	57	0	149	6	5	antiphase_hc_osi.wav	2	6	1	noise_calib_stim_LEFT.wav	1	28	blb_dichoticlistening_pa-ka.mp3	pa	ka	1	right
6.6.1	win	2023-06-15	08:33:36	08:44:55	676876	63d13b764f00a53476867c25	2	1	main_z	24	main_z	139	stimuli_distractor_trianglediamonds.svg	stimuli_target_trianglerectangles.svg	25	yes	44	1	785	6	5	antiphase_hc_osi.wav	2	6	1	noise_calib_stim_LEFT.wav	1	28	blb_dichoticlistening_pa-ka.mp3	pa	ka	1	right
6.6.1	win	2023-06-15	08:33:36	08:44:55	676876	63d13b764f00a53476867c25	2	1	main_z	24	advance_on_keypress_ZEE	140	stimuli_distractor_trianglediamonds.svg	stimuli_target_trianglerectangles.svg	25	yes	57	0	159	6	5	antiphase_hc_osi.wav	2	6	1	noise_calib_stim_LEFT.wav	1	28	blb_dichoticlistening_pa-ka.mp3	pa	ka	1	right
6.6.1	win	2023-06-15	08:33:36	08:44:57	678525	63d13b764f00a53476867c25	2	1	main_z	24	main_z	141	stimuli_distractor_diamondtriangles.svg	stimuli_target_rectangletriangles.svg	13	yes	44	1	869	6	5	antiphase_hc_osi.wav	2	6	1	noise_calib_stim_LEFT.wav	1	28	blb_dichoticlistening_pa-ka.mp3	pa	ka	1	right
6.6.1	win	2023-06-15	08:33:36	08:44:57	678525	63d13b764f00a53476867c25	2	1	main_z	24	advance_on_keypress_ZEE	142	stimuli_distractor_diamondtriangles.svg	stimuli_target_rectangletriangles.svg	13	yes	57	0	154	6	5	antiphase_hc_osi.wav	2	6	1	noise_calib_stim_LEFT.wav	1	28	blb_dichoticlistening_pa-ka.mp3	pa	ka	1	right
6.6.1	win	2023-06-15	08:33:36	08:44:58	680083	63d13b764f00a53476867c25	2	1	main_z	24	main_z	143	stimuli_distractor_diamondtriangles.svg	stimuli_target_diamondrectangles.svg	31	yes	44	1	786	6	5	antiphase_hc_osi.wav	2	6	1	noise_calib_stim_LEFT.wav	1	28	blb_dichoticlistening_pa-ka.mp3	pa	ka	1	right
6.6.1	win	2023-06-15	08:33:36	08:44:58	680083	63d13b764f00a53476867c25	2	1	main_z	24	advance_on_keypress_ZEE	144	stimuli_distractor_diamondtriangles.svg	stimuli_target_diamondrectangles.svg	31	yes	57	0	168	6	5	antiphase_hc_osi.wav	2	6	1	noise_calib_stim_LEFT.wav	1	28	blb_dichoticlistening_pa-ka.mp3	pa	ka	1	right
6.6.1	win	2023-06-15	08:33:36	08:45:00	681651	63d13b764f00a53476867c25	2	1	main_z	24	main_z	145	stimuli_target_rectanglediamonds.svg	stimuli_distractor_diamondtriangles.svg	6	yes	44	1	785	6	5	antiphase_hc_osi.wav	2	6	1	noise_calib_stim_LEFT.wav	1	28	blb_dichoticlistening_pa-ka.mp3	pa	ka	1	right
6.6.1	win	2023-06-15	08:33:36	08:45:00	681651	63d13b764f00a53476867c25	2	1	main_z	24	advance_on_keypress_ZEE	146	stimuli_target_rectanglediamonds.svg	stimuli_distractor_diamondtriangles.svg	6	yes	57	0	183	6	5	antiphase_hc_osi.wav	2	6	1	noise_calib_stim_LEFT.wav	1	28	blb_dichoticlistening_pa-ka.mp3	pa	ka	1	right
6.6.1	win	2023-06-15	08:33:36	08:45:03	684453	63d13b764f00a53476867c25	2	1	main_z	24	main_z	147	stimuli_distractor_trianglediamonds.svg	stimuli_distractor_trianglediamonds.svg	33	no	0	1	2003	6	5	antiphase_hc_osi.wav	2	6	1	noise_calib_stim_LEFT.wav	1	28	blb_dichoticlistening_pa-ka.mp3	pa	ka	1	right
6.6.1	win	2023-06-15	08:33:36	08:45:03	684453	63d13b764f00a53476867c25	2	1	main_z	24	advance_on_keypress_ZEE	148	stimuli_distractor_trianglediamonds.svg	stimuli_distractor_trianglediamonds.svg	33	no	57	0	425	6	5	antiphase_hc_osi.wav	2	6	1	noise_calib_stim_LEFT.wav	1	28	blb_dichoticlistening_pa-ka.mp3	pa	ka	1	right
6.6.1	win	2023-06-15	08:33:36	08:45:04	686218	63d13b764f00a53476867c25	2	1	main_z	24	main_z	149	stimuli_target_diamondsquares.svg	stimuli_distractor_diamondtriangles.svg	24	yes	44	1	724	6	5	antiphase_hc_osi.wav	2	6	1	noise_calib_stim_LEFT.wav	1	28	blb_dichoticlistening_pa-ka.mp3	pa	ka	1	right
6.6.1	win	2023-06-15	08:33:36	08:45:04	686218	63d13b764f00a53476867c25	2	1	main_z	24	advance_on_keypress_ZEE	150	stimuli_target_diamondsquares.svg	stimuli_distractor_diamondtriangles.svg	24	yes	57	0	132	6	5	antiphase_hc_osi.wav	2	6	1	noise_calib_stim_LEFT.wav	1	28	blb_dichoticlistening_pa-ka.mp3	pa	ka	1	right
6.6.1	win	2023-06-15	08:33:36	08:45:06	687591	63d13b764f00a53476867c25	2	1	main_z	24	main_z	151	stimuli_distractor_diamondtriangles.svg	stimuli_target_diamondsquares.svg	32	yes	44	1	624	6	5	antiphase_hc_osi.wav	2	6	1	noise_calib_stim_LEFT.wav	1	28	blb_dichoticlistening_pa-ka.mp3	pa	ka	1	right
6.6.1	win	2023-06-15	08:33:36	08:45:06	687591	63d13b764f00a53476867c25	2	1	main_z	24	advance_on_keypress_ZEE	152	stimuli_distractor_diamondtriangles.svg	stimuli_target_diamondsquares.svg	32	yes	57	0	122	6	5	antiphase_hc_osi.wav	2	6	1	noise_calib_stim_LEFT.wav	1	28	blb_dichoticlistening_pa-ka.mp3	pa	ka	1	right
6.6.1	win	2023-06-15	08:33:36	08:45:07	689189	63d13b764f00a53476867c25	2	1	main_z	24	main_z	153	stimuli_distractor_trianglediamonds.svg	stimuli_target_trianglesquares.svg	26	yes	44	1	867	6	5	antiphase_hc_osi.wav	2	6	1	noise_calib_stim_LEFT.wav	1	28	blb_dichoticlistening_pa-ka.mp3	pa	ka	1	right
6.6.1	win	2023-06-15	08:33:36	08:45:07	689189	63d13b764f00a53476867c25	2	1	main_z	24	advance_on_keypress_ZEE	154	stimuli_distractor_trianglediamonds.svg	stimuli_target_trianglesquares.svg	26	yes	57	0	120	6	5	antiphase_hc_osi.wav	2	6	1	noise_calib_stim_LEFT.wav	1	28	blb_dichoticlistening_pa-ka.mp3	pa	ka	1	right
6.6.1	win	2023-06-15	08:33:36	08:45:09	690842	63d13b764f00a53476867c25	2	1	main_z	24	main_z	155	stimuli_target_rectangletriangles.svg	stimuli_distractor_trianglediamonds.svg	1	yes	44	1	915	6	5	antiphase_hc_osi.wav	2	6	1	noise_calib_stim_LEFT.wav	1	28	blb_dichoticlistening_pa-ka.mp3	pa	ka	1	right
6.6.1	win	2023-06-15	08:33:36	08:45:09	690842	63d13b764f00a53476867c25	2	1	main_z	24	advance_on_keypress_ZEE	156	stimuli_target_rectangletriangles.svg	stimuli_distractor_trianglediamonds.svg	1	yes	57	0	112	6	5	antiphase_hc_osi.wav	2	6	1	noise_calib_stim_LEFT.wav	1	28	blb_dichoticlistening_pa-ka.mp3	pa	ka	1	right
6.6.1	win	2023-06-15	08:33:36	08:45:12	693570	63d13b764f00a53476867c25	2	1	main_z	24	main_z	157	stimuli_distractor_diamondtriangles.svg	stimuli_distractor_trianglediamonds.svg	38	no	0	1	2003	6	5	antiphase_hc_osi.wav	2	6	1	noise_calib_stim_LEFT.wav	1	28	blb_dichoticlistening_pa-ka.mp3	pa	ka	1	right
6.6.1	win	2023-06-15	08:33:36	08:45:12	693570	63d13b764f00a53476867c25	2	1	main_z	24	advance_on_keypress_ZEE	158	stimuli_distractor_diamondtriangles.svg	stimuli_distractor_trianglediamonds.svg	38	no	57	0	447	6	5	antiphase_hc_osi.wav	2	6	1	noise_calib_stim_LEFT.wav	1	28	blb_dichoticlistening_pa-ka.mp3	pa	ka	1	right
6.6.1	win	2023-06-15	08:33:36	08:45:14	695401	63d13b764f00a53476867c25	2	1	main_z	24	main_z	159	stimuli_target_rectanglediamonds.svg	stimuli_distractor_trianglediamonds.svg	2	yes	44	1	770	6	5	antiphase_hc_osi.wav	2	6	1	noise_calib_stim_LEFT.wav	1	28	blb_dichoticlistening_pa-ka.mp3	pa	ka	1	right
6.6.1	win	2023-06-15	08:33:36	08:45:14	695401	63d13b764f00a53476867c25	2	1	main_z	24	advance_on_keypress_ZEE	160	stimuli_target_rectanglediamonds.svg	stimuli_distractor_trianglediamonds.svg	2	yes	57	0	248	6	5	antiphase_hc_osi.wav	2	6	1	noise_calib_stim_LEFT.wav	1	28	blb_dichoticlistening_pa-ka.mp3	pa	ka	1	right
6.6.1	win	2023-06-15	08:33:36	08:45:30	711575	63d13b764f00a53476867c25	2	1	practice_slash	26	practice_slash	1	stimuli_target_squarediamonds.svg	stimuli_distractor_diamondtriangles.svg	2	yes	53	1	718	6	5	antiphase_hc_osi.wav	2	6	1	noise_calib_stim_LEFT.wav	1	28	blb_dichoticlistening_pa-ka.mp3	pa	ka	1	right
6.6.1	win	2023-06-15	08:33:36	08:45:30	711575	63d13b764f00a53476867c25	2	1	practice_slash	26	advance_on_keypress_SLASH	2	stimuli_target_squarediamonds.svg	stimuli_distractor_diamondtriangles.svg	2	yes	57	0	397	6	5	antiphase_hc_osi.wav	2	6	1	noise_calib_stim_LEFT.wav	1	28	blb_dichoticlistening_pa-ka.mp3	pa	ka	1	right
6.6.1	win	2023-06-15	08:33:36	08:45:33	714298	63d13b764f00a53476867c25	2	1	practice_slash	26	practice_slash	3	stimuli_target_rectanglediamonds.svg	stimuli_distractor_trianglediamonds.svg	4	yes	53	1	695	6	5	antiphase_hc_osi.wav	2	6	1	noise_calib_stim_LEFT.wav	1	28	blb_dichoticlistening_pa-ka.mp3	pa	ka	1	right
6.6.1	win	2023-06-15	08:33:36	08:45:33	714298	63d13b764f00a53476867c25	2	1	practice_slash	26	advance_on_keypress_SLASH	4	stimuli_target_rectanglediamonds.svg	stimuli_distractor_trianglediamonds.svg	4	yes	57	0	458	6	5	antiphase_hc_osi.wav	2	6	1	noise_calib_stim_LEFT.wav	1	28	blb_dichoticlistening_pa-ka.mp3	pa	ka	1	right
6.6.1	win	2023-06-15	08:33:36	08:45:35	717083	63d13b764f00a53476867c25	2	1	practice_slash	26	practice_slash	5	stimuli_distractor_trianglediamonds.svg	stimuli_target_diamondrectangles.svg	12	yes	53	1	704	6	5	antiphase_hc_osi.wav	2	6	1	noise_calib_stim_LEFT.wav	1	28	blb_dichoticlistening_pa-ka.mp3	pa	ka	1	right
6.6.1	win	2023-06-15	08:33:36	08:45:35	717083	63d13b764f00a53476867c25	2	1	practice_slash	26	advance_on_keypress_SLASH	6	stimuli_distractor_trianglediamonds.svg	stimuli_target_diamondrectangles.svg	12	yes	57	0	363	6	5	antiphase_hc_osi.wav	2	6	1	noise_calib_stim_LEFT.wav	1	28	blb_dichoticlistening_pa-ka.mp3	pa	ka	1	right
6.6.1	win	2023-06-15	08:33:36	08:45:39	721067	63d13b764f00a53476867c25	2	1	practice_slash	26	practice_slash	7	stimuli_distractor_diamondtriangles.svg	stimuli_distractor_diamondtriangles.svg	13	no	0	1	2003	6	5	antiphase_hc_osi.wav	2	6	1	noise_calib_stim_LEFT.wav	1	28	blb_dichoticlistening_pa-ka.mp3	pa	ka	1	right
6.6.1	win	2023-06-15	08:33:36	08:45:39	721067	63d13b764f00a53476867c25	2	1	practice_slash	26	advance_on_keypress_SLASH	8	stimuli_distractor_diamondtriangles.svg	stimuli_distractor_diamondtriangles.svg	13	no	57	0	460	6	5	antiphase_hc_osi.wav	2	6	1	noise_calib_stim_LEFT.wav	1	28	blb_dichoticlistening_pa-ka.mp3	pa	ka	1	right
6.6.1	win	2023-06-15	08:33:36	08:45:42	723846	63d13b764f00a53476867c25	2	1	practice_slash	26	practice_slash	9	stimuli_target_rectanglediamonds.svg	stimuli_distractor_diamondtriangles.svg	1	yes	53	1	704	6	5	antiphase_hc_osi.wav	2	6	1	noise_calib_stim_LEFT.wav	1	28	blb_dichoticlistening_pa-ka.mp3	pa	ka	1	right
6.6.1	win	2023-06-15	08:33:36	08:45:42	723846	63d13b764f00a53476867c25	2	1	practice_slash	26	advance_on_keypress_SLASH	10	stimuli_target_rectanglediamonds.svg	stimuli_distractor_diamondtriangles.svg	1	yes	57	0	388	6	5	antiphase_hc_osi.wav	2	6	1	noise_calib_stim_LEFT.wav	1	28	blb_dichoticlistening_pa-ka.mp3	pa	ka	1	right
6.6.1	win	2023-06-15	08:33:36	08:45:45	726726	63d13b764f00a53476867c25	2	1	practice_slash	26	practice_slash	11	stimuli_distractor_diamondtriangles.svg	stimuli_target_rectangletriangles.svg	7	yes	53	1	874	6	5	antiphase_hc_osi.wav	2	6	1	noise_calib_stim_LEFT.wav	1	28	blb_dichoticlistening_pa-ka.mp3	pa	ka	1	right
6.6.1	win	2023-06-15	08:33:36	08:45:45	726726	63d13b764f00a53476867c25	2	1	practice_slash	26	advance_on_keypress_SLASH	12	stimuli_distractor_diamondtriangles.svg	stimuli_target_rectangletriangles.svg	7	yes	57	0	329	6	5	antiphase_hc_osi.wav	2	6	1	noise_calib_stim_LEFT.wav	1	28	blb_dichoticlistening_pa-ka.mp3	pa	ka	1	right
6.6.1	win	2023-06-15	08:33:36	08:45:49	730670	63d13b764f00a53476867c25	2	1	practice_slash	26	practice_slash	13	stimuli_distractor_diamondtriangles.svg	stimuli_distractor_trianglediamonds.svg	14	no	0	1	2003	6	5	antiphase_hc_osi.wav	2	6	1	noise_calib_stim_LEFT.wav	1	28	blb_dichoticlistening_pa-ka.mp3	pa	ka	1	right
6.6.1	win	2023-06-15	08:33:36	08:45:49	730670	63d13b764f00a53476867c25	2	1	practice_slash	26	advance_on_keypress_SLASH	14	stimuli_distractor_diamondtriangles.svg	stimuli_distractor_trianglediamonds.svg	14	no	57	0	408	6	5	antiphase_hc_osi.wav	2	6	1	noise_calib_stim_LEFT.wav	1	28	blb_dichoticlistening_pa-ka.mp3	pa	ka	1	right
6.6.1	win	2023-06-15	08:33:36	08:45:52	733494	63d13b764f00a53476867c25	2	1	practice_slash	26	practice_slash	15	stimuli_distractor_diamondtriangles.svg	stimuli_target_diamondrectangles.svg	8	yes	53	1	797	6	5	antiphase_hc_osi.wav	2	6	1	noise_calib_stim_LEFT.wav	1	28	blb_dichoticlistening_pa-ka.mp3	pa	ka	1	right
6.6.1	win	2023-06-15	08:33:36	08:45:52	733494	63d13b764f00a53476867c25	2	1	practice_slash	26	advance_on_keypress_SLASH	16	stimuli_distractor_diamondtriangles.svg	stimuli_target_diamondrectangles.svg	8	yes	57	0	312	6	5	antiphase_hc_osi.wav	2	6	1	noise_calib_stim_LEFT.wav	1	28	blb_dichoticlistening_pa-ka.mp3	pa	ka	1	right
6.6.1	win	2023-06-15	08:33:36	08:45:56	737424	63d13b764f00a53476867c25	2	1	practice_slash	26	practice_slash	17	stimuli_distractor_trianglediamonds.svg	stimuli_distractor_diamondtriangles.svg	16	no	0	1	2003	6	5	antiphase_hc_osi.wav	2	6	1	noise_calib_stim_LEFT.wav	1	28	blb_dichoticlistening_pa-ka.mp3	pa	ka	1	right
6.6.1	win	2023-06-15	08:33:36	08:45:56	737424	63d13b764f00a53476867c25	2	1	practice_slash	26	advance_on_keypress_SLASH	18	stimuli_distractor_trianglediamonds.svg	stimuli_distractor_diamondtriangles.svg	16	no	57	0	401	6	5	antiphase_hc_osi.wav	2	6	1	noise_calib_stim_LEFT.wav	1	28	blb_dichoticlistening_pa-ka.mp3	pa	ka	1	right
6.6.1	win	2023-06-15	08:33:36	08:45:58	740155	63d13b764f00a53476867c25	2	1	practice_slash	26	practice_slash	19	stimuli_distractor_trianglediamonds.svg	stimuli_target_rectanglediamonds.svg	10	yes	53	1	718	6	5	antiphase_hc_osi.wav	2	6	1	noise_calib_stim_LEFT.wav	1	28	blb_dichoticlistening_pa-ka.mp3	pa	ka	1	right
