build	computer.platform	date	time	timestamp	time_elapsed_ms	subject	group	session	blockcode	blocknum	trialcode	trialnum	stimulus_left	stimulus_right	stim_index	target_present	response	correct	latency	headphonecheck_countTestTrials	headphonecheck_index	headphonecheck_testSound	headphonecheck_correctResponse	stereocheck_countTestTrials	stereocheck_index	stereocheck_testSound	stereocheck_correctResponse	DL_index	DL_soundfile	DL_leftSound	DL_rightSound	DL_dualSound	DL_choice
6.6.1	win	2023-06-02	05:27:23	05:47:06	1179289	6108d6efa698e3dbe3b313d3	4	1	practice_z	5	practice_z	1	stimuli_distractor_diamondtriangles.svg	stimuli_target_trianglerectangles.svg	9	yes	44	1	1451	0	0			0	0			1				0	
6.6.1	win	2023-06-02	05:27:23	05:47:06	1179289	6108d6efa698e3dbe3b313d3	4	1	practice_z	5	advance_on_keypress_ZEE	2	stimuli_distractor_diamondtriangles.svg	stimuli_target_trianglerectangles.svg	9	yes	57	0	3224	0	0			0	0			1				0	
6.6.1	win	2023-06-02	05:27:23	05:47:12	1185500	6108d6efa698e3dbe3b313d3	4	1	practice_z	5	practice_z	3	stimuli_target_rectanglediamonds.svg	stimuli_distractor_trianglediamonds.svg	4	yes	44	1	1332	0	0			0	0			1				0	
6.6.1	win	2023-06-02	05:27:23	05:47:12	1185500	6108d6efa698e3dbe3b313d3	4	1	practice_z	5	advance_on_keypress_ZEE	4	stimuli_target_rectanglediamonds.svg	stimuli_distractor_trianglediamonds.svg	4	yes	57	0	1780	0	0			0	0			1				0	
6.6.1	win	2023-06-02	05:27:23	05:47:17	1189939	6108d6efa698e3dbe3b313d3	4	1	practice_z	5	practice_z	5	stimuli_distractor_diamondtriangles.svg	stimuli_target_rectangletriangles.svg	7	yes	44	1	1008	0	0			0	0			1				0	
6.6.1	win	2023-06-02	05:27:23	05:47:17	1189939	6108d6efa698e3dbe3b313d3	4	1	practice_z	5	advance_on_keypress_ZEE	6	stimuli_distractor_diamondtriangles.svg	stimuli_target_rectangletriangles.svg	7	yes	57	0	802	0	0			0	0			1				0	
6.6.1	win	2023-06-02	05:27:23	05:47:21	1194378	6108d6efa698e3dbe3b313d3	4	1	practice_z	5	practice_z	7	stimuli_target_diamondsquares.svg	stimuli_distractor_trianglediamonds.svg	6	yes	0	0	2000	0	0			0	0			1				0	
6.6.1	win	2023-06-02	05:27:23	05:47:21	1194378	6108d6efa698e3dbe3b313d3	4	1	practice_z	5	advance_on_keypress_ZEE	8	stimuli_target_diamondsquares.svg	stimuli_distractor_trianglediamonds.svg	6	yes	57	0	981	0	0			0	0			1				0	
6.6.1	win	2023-06-02	05:27:23	05:47:25	1197722	6108d6efa698e3dbe3b313d3	4	1	practice_z	5	practice_z	9	stimuli_distractor_diamondtriangles.svg	stimuli_distractor_diamondtriangles.svg	13	no	44	0	714	0	0			0	0			1				0	
6.6.1	win	2023-06-02	05:27:23	05:47:25	1197722	6108d6efa698e3dbe3b313d3	4	1	practice_z	5	advance_on_keypress_ZEE	10	stimuli_distractor_diamondtriangles.svg	stimuli_distractor_diamondtriangles.svg	13	no	57	0	2252	0	0			0	0			1				0	
6.6.1	win	2023-06-02	05:27:23	05:47:31	1203622	6108d6efa698e3dbe3b313d3	4	1	practice_z	5	practice_z	11	stimuli_distractor_diamondtriangles.svg	stimuli_distractor_trianglediamonds.svg	14	no	0	1	2000	0	0			0	0			1				0	
6.6.1	win	2023-06-02	05:27:23	05:47:31	1203622	6108d6efa698e3dbe3b313d3	4	1	practice_z	5	advance_on_keypress_ZEE	12	stimuli_distractor_diamondtriangles.svg	stimuli_distractor_trianglediamonds.svg	14	no	57	0	1217	0	0			0	0			1				0	
6.6.1	win	2023-06-02	05:27:23	05:47:34	1207363	6108d6efa698e3dbe3b313d3	4	1	practice_z	5	practice_z	13	stimuli_target_squarediamonds.svg	stimuli_distractor_trianglediamonds.svg	5	yes	44	1	876	0	0			0	0			1				0	
6.6.1	win	2023-06-02	05:27:23	05:47:34	1207363	6108d6efa698e3dbe3b313d3	4	1	practice_z	5	advance_on_keypress_ZEE	14	stimuli_target_squarediamonds.svg	stimuli_distractor_trianglediamonds.svg	5	yes	57	0	1846	0	0			0	0			1				0	
6.6.1	win	2023-06-02	05:27:23	05:47:40	1212867	6108d6efa698e3dbe3b313d3	4	1	practice_z	5	practice_z	15	stimuli_distractor_trianglediamonds.svg	stimuli_target_squarediamonds.svg	11	yes	0	0	2000	0	0			0	0			1				0	
6.6.1	win	2023-06-02	05:27:23	05:47:40	1212867	6108d6efa698e3dbe3b313d3	4	1	practice_z	5	advance_on_keypress_ZEE	16	stimuli_distractor_trianglediamonds.svg	stimuli_target_squarediamonds.svg	11	yes	57	0	1656	0	0			0	0			1				0	
6.6.1	win	2023-06-02	05:27:23	05:47:44	1216973	6108d6efa698e3dbe3b313d3	4	1	practice_z	5	practice_z	17	stimuli_distractor_diamondtriangles.svg	stimuli_target_diamondrectangles.svg	8	yes	44	1	809	0	0			0	0			1				0	
6.6.1	win	2023-06-02	05:27:23	05:47:44	1216973	6108d6efa698e3dbe3b313d3	4	1	practice_z	5	advance_on_keypress_ZEE	18	stimuli_distractor_diamondtriangles.svg	stimuli_target_diamondrectangles.svg	8	yes	57	0	2312	0	0			0	0			1				0	
6.6.1	win	2023-06-02	05:27:23	05:47:49	1221817	6108d6efa698e3dbe3b313d3	4	1	practice_z	5	practice_z	19	stimuli_distractor_trianglediamonds.svg	stimuli_target_rectanglediamonds.svg	10	yes	44	1	889	0	0			0	0			1				0	
6.6.1	win	2023-06-02	05:27:23	05:47:49	1221817	6108d6efa698e3dbe3b313d3	4	1	practice_z	5	advance_on_keypress_ZEE	20	stimuli_distractor_trianglediamonds.svg	stimuli_target_rectanglediamonds.svg	10	yes	57	0	1394	0	0			0	0			1				0	
6.6.1	win	2023-06-02	05:27:23	05:47:54	1226857	6108d6efa698e3dbe3b313d3	4	1	practice_z	5	practice_z	21	stimuli_distractor_trianglediamonds.svg	stimuli_target_diamondrectangles.svg	12	yes	0	0	2000	0	0			0	0			1				0	
6.6.1	win	2023-06-02	05:27:23	05:47:54	1226857	6108d6efa698e3dbe3b313d3	4	1	practice_z	5	advance_on_keypress_ZEE	22	stimuli_distractor_trianglediamonds.svg	stimuli_target_diamondrectangles.svg	12	yes	57	0	601	0	0			0	0			1				0	
6.6.1	win	2023-06-02	05:27:23	05:47:57	1230154	6108d6efa698e3dbe3b313d3	4	1	practice_z	5	practice_z	23	stimuli_distractor_trianglediamonds.svg	stimuli_distractor_trianglediamonds.svg	15	no	44	0	1048	0	0			0	0			1				0	
6.6.1	win	2023-06-02	05:27:23	05:47:57	1230154	6108d6efa698e3dbe3b313d3	4	1	practice_z	5	advance_on_keypress_ZEE	24	stimuli_distractor_trianglediamonds.svg	stimuli_distractor_trianglediamonds.svg	15	no	57	0	597	0	0			0	0			1				0	
6.6.1	win	2023-06-02	05:27:23	05:48:01	1233793	6108d6efa698e3dbe3b313d3	4	1	practice_z	5	practice_z	25	stimuli_target_squarediamonds.svg	stimuli_distractor_diamondtriangles.svg	2	yes	44	1	1389	0	0			0	0			1				0	
6.6.1	win	2023-06-02	05:27:23	05:48:01	1233793	6108d6efa698e3dbe3b313d3	4	1	practice_z	5	advance_on_keypress_ZEE	26	stimuli_target_squarediamonds.svg	stimuli_distractor_diamondtriangles.svg	2	yes	57	0	772	0	0			0	0			1				0	
6.6.1	win	2023-06-02	05:27:23	05:48:04	1237159	6108d6efa698e3dbe3b313d3	4	1	practice_z	5	practice_z	27	stimuli_distractor_trianglediamonds.svg	stimuli_distractor_diamondtriangles.svg	16	no	44	0	958	0	0			0	0			1				0	
6.6.1	win	2023-06-02	05:27:23	05:48:04	1237159	6108d6efa698e3dbe3b313d3	4	1	practice_z	5	advance_on_keypress_ZEE	28	stimuli_distractor_trianglediamonds.svg	stimuli_distractor_diamondtriangles.svg	16	no	57	0	499	0	0			0	0			1				0	
6.6.1	win	2023-06-02	05:27:23	05:48:08	1240801	6108d6efa698e3dbe3b313d3	4	1	practice_z	5	practice_z	29	stimuli_target_diamondsquares.svg	stimuli_distractor_diamondtriangles.svg	3	yes	44	1	1502	0	0			0	0			1				0	
6.6.1	win	2023-06-02	05:27:23	05:48:08	1240801	6108d6efa698e3dbe3b313d3	4	1	practice_z	5	advance_on_keypress_ZEE	30	stimuli_target_diamondsquares.svg	stimuli_distractor_diamondtriangles.svg	3	yes	57	0	347	0	0			0	0			1				0	
6.6.1	win	2023-06-02	05:27:23	05:48:11	1244005	6108d6efa698e3dbe3b313d3	4	1	practice_z	5	practice_z	31	stimuli_target_rectanglediamonds.svg	stimuli_distractor_diamondtriangles.svg	1	yes	44	1	1208	0	0			0	0			1				0	
6.6.1	win	2023-06-02	05:27:23	05:48:11	1244005	6108d6efa698e3dbe3b313d3	4	1	practice_z	5	advance_on_keypress_ZEE	32	stimuli_target_rectanglediamonds.svg	stimuli_distractor_diamondtriangles.svg	1	yes	57	0	701	0	0			0	0			1				0	
6.6.1	win	2023-06-02	05:27:23	05:54:15	1608422	6108d6efa698e3dbe3b313d3	4	1	main_z	7	main_z	1	stimuli_target_rectangletriangles.svg	stimuli_distractor_trianglediamonds.svg	1	yes	44	1	726	0	0			0	0			1				0	
6.6.1	win	2023-06-02	05:27:23	05:54:15	1608422	6108d6efa698e3dbe3b313d3	4	1	main_z	7	advance_on_keypress_ZEE	2	stimuli_target_rectangletriangles.svg	stimuli_distractor_trianglediamonds.svg	1	yes	57	0	2051	0	0			0	0			1				0	
6.6.1	win	2023-06-02	05:27:23	05:54:19	1612087	6108d6efa698e3dbe3b313d3	4	1	main_z	7	main_z	3	stimuli_distractor_diamondtriangles.svg	stimuli_target_trianglesquares.svg	30	yes	44	1	977	0	0			0	0			1				0	
6.6.1	win	2023-06-02	05:27:23	05:54:19	1612087	6108d6efa698e3dbe3b313d3	4	1	main_z	7	advance_on_keypress_ZEE	4	stimuli_distractor_diamondtriangles.svg	stimuli_target_trianglesquares.svg	30	yes	57	0	886	0	0			0	0			1				0	
6.6.1	win	2023-06-02	05:27:23	05:54:21	1614351	6108d6efa698e3dbe3b313d3	4	1	main_z	7	main_z	5	stimuli_target_rectanglediamonds.svg	stimuli_distractor_trianglediamonds.svg	2	yes	44	1	741	0	0			0	0			1				0	
6.6.1	win	2023-06-02	05:27:23	05:54:21	1614351	6108d6efa698e3dbe3b313d3	4	1	main_z	7	advance_on_keypress_ZEE	6	stimuli_target_rectanglediamonds.svg	stimuli_distractor_trianglediamonds.svg	2	yes	57	0	1113	0	0			0	0			1				0	
6.6.1	win	2023-06-02	05:27:23	05:54:25	1617932	6108d6efa698e3dbe3b313d3	4	1	main_z	7	main_z	7	stimuli_target_diamondsquares.svg	stimuli_distractor_trianglediamonds.svg	20	yes	44	1	1825	0	0			0	0			1				0	
6.6.1	win	2023-06-02	05:27:23	05:54:25	1617932	6108d6efa698e3dbe3b313d3	4	1	main_z	7	advance_on_keypress_ZEE	8	stimuli_target_diamondsquares.svg	stimuli_distractor_trianglediamonds.svg	20	yes	57	0	878	0	0			0	0			1				0	
6.6.1	win	2023-06-02	05:27:23	05:54:27	1620490	6108d6efa698e3dbe3b313d3	4	1	main_z	7	main_z	9	stimuli_distractor_trianglediamonds.svg	stimuli_target_squarediamonds.svg	12	yes	44	1	1034	0	0			0	0			1				0	
6.6.1	win	2023-06-02	05:27:23	05:54:27	1620490	6108d6efa698e3dbe3b313d3	4	1	main_z	7	advance_on_keypress_ZEE	10	stimuli_distractor_trianglediamonds.svg	stimuli_target_squarediamonds.svg	12	yes	57	0	800	0	0			0	0			1				0	
6.6.1	win	2023-06-02	05:27:23	05:54:30	1622991	6108d6efa698e3dbe3b313d3	4	1	main_z	7	main_z	11	stimuli_target_diamondrectangles.svg	stimuli_distractor_trianglediamonds.svg	19	yes	44	1	1053	0	0			0	0			1				0	
6.6.1	win	2023-06-02	05:27:23	05:54:30	1622991	6108d6efa698e3dbe3b313d3	4	1	main_z	7	advance_on_keypress_ZEE	12	stimuli_target_diamondrectangles.svg	stimuli_distractor_trianglediamonds.svg	19	yes	57	0	1390	0	0			0	0			1				0	
6.6.1	win	2023-06-02	05:27:23	05:54:33	1626354	6108d6efa698e3dbe3b313d3	4	1	main_z	7	main_z	13	stimuli_target_squarediamonds.svg	stimuli_distractor_trianglediamonds.svg	4	yes	44	1	1336	0	0			0	0			1				0	
6.6.1	win	2023-06-02	05:27:23	05:54:33	1626354	6108d6efa698e3dbe3b313d3	4	1	main_z	7	advance_on_keypress_ZEE	14	stimuli_target_squarediamonds.svg	stimuli_distractor_trianglediamonds.svg	4	yes	57	0	566	0	0			0	0			1				0	
6.6.1	win	2023-06-02	05:27:23	05:54:36	1629567	6108d6efa698e3dbe3b313d3	4	1	main_z	7	main_z	15	stimuli_distractor_diamondtriangles.svg	stimuli_target_diamondsquares.svg	32	yes	0	0	2000	0	0			0	0			1				0	
6.6.1	win	2023-06-02	05:27:23	05:54:36	1629567	6108d6efa698e3dbe3b313d3	4	1	main_z	7	advance_on_keypress_ZEE	16	stimuli_distractor_diamondtriangles.svg	stimuli_target_diamondsquares.svg	32	yes	57	0	838	0	0			0	0			1				0	
6.6.1	win	2023-06-02	05:27:23	05:54:40	1632909	6108d6efa698e3dbe3b313d3	4	1	main_z	7	main_z	17	stimuli_distractor_diamondtriangles.svg	stimuli_distractor_diamondtriangles.svg	40	no	44	0	1860	0	0			0	0			1				0	
6.6.1	win	2023-06-02	05:27:23	05:54:40	1632909	6108d6efa698e3dbe3b313d3	4	1	main_z	7	advance_on_keypress_ZEE	18	stimuli_distractor_diamondtriangles.svg	stimuli_distractor_diamondtriangles.svg	40	no	57	0	1649	0	0			0	0			1				0	
6.6.1	win	2023-06-02	05:27:23	05:54:44	1637195	6108d6efa698e3dbe3b313d3	4	1	main_z	7	main_z	19	stimuli_distractor_trianglediamonds.svg	stimuli_distractor_trianglediamonds.svg	33	no	0	1	2000	0	0			0	0			1				0	
6.6.1	win	2023-06-02	05:27:23	05:54:44	1637195	6108d6efa698e3dbe3b313d3	4	1	main_z	7	advance_on_keypress_ZEE	20	stimuli_distractor_trianglediamonds.svg	stimuli_distractor_trianglediamonds.svg	33	no	57	0	504	0	0			0	0			1				0	
6.6.1	win	2023-06-02	05:27:23	05:54:46	1639388	6108d6efa698e3dbe3b313d3	4	1	main_z	7	main_z	21	stimuli_distractor_diamondtriangles.svg	stimuli_distractor_trianglediamonds.svg	38	no	44	0	1044	0	0			0	0			1				0	
6.6.1	win	2023-06-02	05:27:23	05:54:46	1639388	6108d6efa698e3dbe3b313d3	4	1	main_z	7	advance_on_keypress_ZEE	22	stimuli_distractor_diamondtriangles.svg	stimuli_distractor_trianglediamonds.svg	38	no	57	0	1224	0	0			0	0			1				0	
6.6.1	win	2023-06-02	05:27:23	05:54:50	1643098	6108d6efa698e3dbe3b313d3	4	1	main_z	7	main_z	23	stimuli_distractor_diamondtriangles.svg	stimuli_distractor_diamondtriangles.svg	39	no	44	0	1857	0	0			0	0			1				0	
6.6.1	win	2023-06-02	05:27:23	05:54:50	1643098	6108d6efa698e3dbe3b313d3	4	1	main_z	7	advance_on_keypress_ZEE	24	stimuli_distractor_diamondtriangles.svg	stimuli_distractor_diamondtriangles.svg	39	no	57	0	707	0	0			0	0			1				0	
6.6.1	win	2023-06-02	05:27:23	05:54:52	1645469	6108d6efa698e3dbe3b313d3	4	1	main_z	7	main_z	25	stimuli_target_squarediamonds.svg	stimuli_distractor_diamondtriangles.svg	8	yes	44	1	1030	0	0			0	0			1				0	
6.6.1	win	2023-06-02	05:27:23	05:54:52	1645469	6108d6efa698e3dbe3b313d3	4	1	main_z	7	advance_on_keypress_ZEE	26	stimuli_target_squarediamonds.svg	stimuli_distractor_diamondtriangles.svg	8	yes	57	0	871	0	0			0	0			1				0	
6.6.1	win	2023-06-02	05:27:23	05:54:55	1648128	6108d6efa698e3dbe3b313d3	4	1	main_z	7	main_z	27	stimuli_distractor_diamondtriangles.svg	stimuli_target_trianglerectangles.svg	29	yes	44	1	1139	0	0			0	0			1				0	
6.6.1	win	2023-06-02	05:27:23	05:54:55	1648128	6108d6efa698e3dbe3b313d3	4	1	main_z	7	advance_on_keypress_ZEE	28	stimuli_distractor_diamondtriangles.svg	stimuli_target_trianglerectangles.svg	29	yes	57	0	435	0	0			0	0			1				0	
6.6.1	win	2023-06-02	05:27:23	05:54:57	1650181	6108d6efa698e3dbe3b313d3	4	1	main_z	7	main_z	29	stimuli_distractor_trianglediamonds.svg	stimuli_target_rectanglediamonds.svg	10	yes	44	1	978	0	0			0	0			1				0	
6.6.1	win	2023-06-02	05:27:23	05:54:57	1650181	6108d6efa698e3dbe3b313d3	4	1	main_z	7	advance_on_keypress_ZEE	30	stimuli_distractor_trianglediamonds.svg	stimuli_target_rectanglediamonds.svg	10	yes	57	0	827	0	0			0	0			1				0	
6.6.1	win	2023-06-02	05:27:23	05:55:00	1652798	6108d6efa698e3dbe3b313d3	4	1	main_z	7	main_z	31	stimuli_distractor_diamondtriangles.svg	stimuli_target_rectanglediamonds.svg	14	yes	44	1	1130	0	0			0	0			1				0	
6.6.1	win	2023-06-02	05:27:23	05:55:00	1652798	6108d6efa698e3dbe3b313d3	4	1	main_z	7	advance_on_keypress_ZEE	32	stimuli_distractor_diamondtriangles.svg	stimuli_target_rectanglediamonds.svg	14	yes	57	0	777	0	0			0	0			1				0	
6.6.1	win	2023-06-02	05:27:23	05:55:03	1656216	6108d6efa698e3dbe3b313d3	4	1	main_z	7	main_z	33	stimuli_distractor_trianglediamonds.svg	stimuli_distractor_trianglediamonds.svg	34	no	0	1	2000	0	0			0	0			1				0	
6.6.1	win	2023-06-02	05:27:23	05:55:03	1656216	6108d6efa698e3dbe3b313d3	4	1	main_z	7	advance_on_keypress_ZEE	34	stimuli_distractor_trianglediamonds.svg	stimuli_distractor_trianglediamonds.svg	34	no	57	0	887	0	0			0	0			1				0	
6.6.1	win	2023-06-02	05:27:23	05:55:06	1658797	6108d6efa698e3dbe3b313d3	4	1	main_z	7	main_z	35	stimuli_distractor_diamondtriangles.svg	stimuli_distractor_trianglediamonds.svg	37	no	44	0	1048	0	0			0	0			1				0	
6.6.1	win	2023-06-02	05:27:23	05:55:06	1658797	6108d6efa698e3dbe3b313d3	4	1	main_z	7	advance_on_keypress_ZEE	36	stimuli_distractor_diamondtriangles.svg	stimuli_distractor_trianglediamonds.svg	37	no	57	0	454	0	0			0	0			1				0	
6.6.1	win	2023-06-02	05:27:23	05:55:08	1660991	6108d6efa698e3dbe3b313d3	4	1	main_z	7	main_z	37	stimuli_distractor_trianglediamonds.svg	stimuli_target_squaretriangles.svg	11	yes	44	1	1094	0	0			0	0			1				0	
6.6.1	win	2023-06-02	05:27:23	05:55:08	1660991	6108d6efa698e3dbe3b313d3	4	1	main_z	7	advance_on_keypress_ZEE	38	stimuli_distractor_trianglediamonds.svg	stimuli_target_squaretriangles.svg	11	yes	57	0	428	0	0			0	0			1				0	
6.6.1	win	2023-06-02	05:27:23	05:55:11	1664078	6108d6efa698e3dbe3b313d3	4	1	main_z	7	main_z	39	stimuli_distractor_trianglediamonds.svg	stimuli_target_trianglerectangles.svg	25	yes	0	0	2000	0	0			0	0			1				0	
6.6.1	win	2023-06-02	05:27:23	05:55:11	1664078	6108d6efa698e3dbe3b313d3	4	1	main_z	7	advance_on_keypress_ZEE	40	stimuli_distractor_trianglediamonds.svg	stimuli_target_trianglerectangles.svg	25	yes	57	0	567	0	0			0	0			1				0	
6.6.1	win	2023-06-02	05:27:23	05:55:13	1666235	6108d6efa698e3dbe3b313d3	4	1	main_z	7	main_z	41	stimuli_target_trianglerectangles.svg	stimuli_distractor_diamondtriangles.svg	21	yes	44	1	941	0	0			0	0			1				0	
6.6.1	win	2023-06-02	05:27:23	05:55:13	1666235	6108d6efa698e3dbe3b313d3	4	1	main_z	7	advance_on_keypress_ZEE	42	stimuli_target_trianglerectangles.svg	stimuli_distractor_diamondtriangles.svg	21	yes	57	0	665	0	0			0	0			1				0	
6.6.1	win	2023-06-02	05:27:23	05:55:16	1668646	6108d6efa698e3dbe3b313d3	4	1	main_z	7	main_z	43	stimuli_distractor_trianglediamonds.svg	stimuli_distractor_diamondtriangles.svg	35	no	44	0	1104	0	0			0	0			1				0	
6.6.1	win	2023-06-02	05:27:23	05:55:16	1668646	6108d6efa698e3dbe3b313d3	4	1	main_z	7	advance_on_keypress_ZEE	44	stimuli_distractor_trianglediamonds.svg	stimuli_distractor_diamondtriangles.svg	35	no	57	0	442	0	0			0	0			1				0	
6.6.1	win	2023-06-02	05:27:23	05:55:19	1671723	6108d6efa698e3dbe3b313d3	4	1	main_z	7	main_z	45	stimuli_target_trianglesquares.svg	stimuli_distractor_trianglediamonds.svg	18	yes	0	0	2000	0	0			0	0			1				0	
6.6.1	win	2023-06-02	05:27:23	05:55:19	1671723	6108d6efa698e3dbe3b313d3	4	1	main_z	7	advance_on_keypress_ZEE	46	stimuli_target_trianglesquares.svg	stimuli_distractor_trianglediamonds.svg	18	yes	57	0	407	0	0			0	0			1				0	
6.6.1	win	2023-06-02	05:27:23	05:55:20	1673468	6108d6efa698e3dbe3b313d3	4	1	main_z	7	main_z	47	stimuli_target_diamondrectangles.svg	stimuli_distractor_diamondtriangles.svg	23	yes	44	1	696	0	0			0	0			1				0	
6.6.1	win	2023-06-02	05:27:23	05:55:20	1673468	6108d6efa698e3dbe3b313d3	4	1	main_z	7	advance_on_keypress_ZEE	48	stimuli_target_diamondrectangles.svg	stimuli_distractor_diamondtriangles.svg	23	yes	57	0	703	0	0			0	0			1				0	
6.6.1	win	2023-06-02	05:27:23	05:55:23	1675679	6108d6efa698e3dbe3b313d3	4	1	main_z	7	main_z	49	stimuli_distractor_diamondtriangles.svg	stimuli_target_squaretriangles.svg	15	yes	44	1	859	0	0			0	0			1				0	
6.6.1	win	2023-06-02	05:27:23	05:55:23	1675679	6108d6efa698e3dbe3b313d3	4	1	main_z	7	advance_on_keypress_ZEE	50	stimuli_distractor_diamondtriangles.svg	stimuli_target_squaretriangles.svg	15	yes	57	0	874	0	0			0	0			1				0	
6.6.1	win	2023-06-02	05:27:23	05:55:25	1678104	6108d6efa698e3dbe3b313d3	4	1	main_z	7	main_z	51	stimuli_distractor_trianglediamonds.svg	stimuli_target_diamondrectangles.svg	27	yes	44	1	919	0	0			0	0			1				0	
6.6.1	win	2023-06-02	05:27:23	05:55:25	1678104	6108d6efa698e3dbe3b313d3	4	1	main_z	7	advance_on_keypress_ZEE	52	stimuli_distractor_trianglediamonds.svg	stimuli_target_diamondrectangles.svg	27	yes	57	0	696	0	0			0	0			1				0	
6.6.1	win	2023-06-02	05:27:23	05:55:27	1680404	6108d6efa698e3dbe3b313d3	4	1	main_z	7	main_z	53	stimuli_distractor_trianglediamonds.svg	stimuli_target_rectangletriangles.svg	9	yes	44	1	953	0	0			0	0			1				0	
6.6.1	win	2023-06-02	05:27:23	05:55:27	1680404	6108d6efa698e3dbe3b313d3	4	1	main_z	7	advance_on_keypress_ZEE	54	stimuli_distractor_trianglediamonds.svg	stimuli_target_rectangletriangles.svg	9	yes	57	0	371	0	0			0	0			1				0	
6.6.1	win	2023-06-02	05:27:23	05:55:30	1683416	6108d6efa698e3dbe3b313d3	4	1	main_z	7	main_z	55	stimuli_distractor_trianglediamonds.svg	stimuli_target_trianglesquares.svg	26	yes	0	0	2000	0	0			0	0			1				0	
6.6.1	win	2023-06-02	05:27:23	05:55:30	1683416	6108d6efa698e3dbe3b313d3	4	1	main_z	7	advance_on_keypress_ZEE	56	stimuli_distractor_trianglediamonds.svg	stimuli_target_trianglesquares.svg	26	yes	57	0	1423	0	0			0	0			1				0	
6.6.1	win	2023-06-02	05:27:23	05:55:34	1686628	6108d6efa698e3dbe3b313d3	4	1	main_z	7	main_z	57	stimuli_distractor_trianglediamonds.svg	stimuli_distractor_diamondtriangles.svg	36	no	44	0	1147	0	0			0	0			1				0	
6.6.1	win	2023-06-02	05:27:23	05:55:34	1686628	6108d6efa698e3dbe3b313d3	4	1	main_z	7	advance_on_keypress_ZEE	58	stimuli_distractor_trianglediamonds.svg	stimuli_distractor_diamondtriangles.svg	36	no	57	0	578	0	0			0	0			1				0	
6.6.1	win	2023-06-02	05:27:23	05:55:36	1688899	6108d6efa698e3dbe3b313d3	4	1	main_z	7	main_z	59	stimuli_target_trianglesquares.svg	stimuli_distractor_diamondtriangles.svg	22	yes	44	1	1053	0	0			0	0			1				0	
6.6.1	win	2023-06-02	05:27:23	05:55:36	1688899	6108d6efa698e3dbe3b313d3	4	1	main_z	7	advance_on_keypress_ZEE	60	stimuli_target_trianglesquares.svg	stimuli_distractor_diamondtriangles.svg	22	yes	57	0	347	0	0			0	0			1				0	
6.6.1	win	2023-06-02	05:27:23	05:55:38	1690729	6108d6efa698e3dbe3b313d3	4	1	main_z	7	main_z	61	stimuli_target_squaretriangles.svg	stimuli_distractor_diamondtriangles.svg	7	yes	44	1	835	0	0			0	0			1				0	
6.6.1	win	2023-06-02	05:27:23	05:55:38	1690729	6108d6efa698e3dbe3b313d3	4	1	main_z	7	advance_on_keypress_ZEE	62	stimuli_target_squaretriangles.svg	stimuli_distractor_diamondtriangles.svg	7	yes	57	0	407	0	0			0	0			1				0	
6.6.1	win	2023-06-02	05:27:23	05:55:40	1692838	6108d6efa698e3dbe3b313d3	4	1	main_z	7	main_z	63	stimuli_target_diamondsquares.svg	stimuli_distractor_diamondtriangles.svg	24	yes	44	1	1061	0	0			0	0			1				0	
6.6.1	win	2023-06-02	05:27:23	05:55:40	1692838	6108d6efa698e3dbe3b313d3	4	1	main_z	7	advance_on_keypress_ZEE	64	stimuli_target_diamondsquares.svg	stimuli_distractor_diamondtriangles.svg	24	yes	57	0	1044	0	0			0	0			1				0	
6.6.1	win	2023-06-02	05:27:23	05:55:43	1695625	6108d6efa698e3dbe3b313d3	4	1	main_z	7	main_z	65	stimuli_target_rectanglediamonds.svg	stimuli_distractor_diamondtriangles.svg	6	yes	44	1	1084	0	0			0	0			1				0	
6.6.1	win	2023-06-02	05:27:23	05:55:43	1695625	6108d6efa698e3dbe3b313d3	4	1	main_z	7	advance_on_keypress_ZEE	66	stimuli_target_rectanglediamonds.svg	stimuli_distractor_diamondtriangles.svg	6	yes	57	0	1380	0	0			0	0			1				0	
6.6.1	win	2023-06-02	05:27:23	05:55:47	1699656	6108d6efa698e3dbe3b313d3	4	1	main_z	7	main_z	67	stimuli_target_trianglerectangles.svg	stimuli_distractor_trianglediamonds.svg	17	yes	0	0	2000	0	0			0	0			1				0	
6.6.1	win	2023-06-02	05:27:23	05:55:47	1699656	6108d6efa698e3dbe3b313d3	4	1	main_z	7	advance_on_keypress_ZEE	68	stimuli_target_trianglerectangles.svg	stimuli_distractor_trianglediamonds.svg	17	yes	57	0	544	0	0			0	0			1				0	
6.6.1	win	2023-06-02	05:27:23	05:55:49	1701772	6108d6efa698e3dbe3b313d3	4	1	main_z	7	main_z	69	stimuli_target_rectangletriangles.svg	stimuli_distractor_diamondtriangles.svg	5	yes	44	1	935	0	0			0	0			1				0	
6.6.1	win	2023-06-02	05:27:23	05:55:49	1701772	6108d6efa698e3dbe3b313d3	4	1	main_z	7	advance_on_keypress_ZEE	70	stimuli_target_rectangletriangles.svg	stimuli_distractor_diamondtriangles.svg	5	yes	57	0	1347	0	0			0	0			1				0	
6.6.1	win	2023-06-02	05:27:23	05:55:52	1705112	6108d6efa698e3dbe3b313d3	4	1	main_z	7	main_z	71	stimuli_distractor_diamondtriangles.svg	stimuli_target_diamondrectangles.svg	31	yes	44	1	1344	0	0			0	0			1				0	
6.6.1	win	2023-06-02	05:27:23	05:55:52	1705112	6108d6efa698e3dbe3b313d3	4	1	main_z	7	advance_on_keypress_ZEE	72	stimuli_distractor_diamondtriangles.svg	stimuli_target_diamondrectangles.svg	31	yes	57	0	392	0	0			0	0			1				0	
6.6.1	win	2023-06-02	05:27:23	05:55:54	1707175	6108d6efa698e3dbe3b313d3	4	1	main_z	7	main_z	73	stimuli_distractor_diamondtriangles.svg	stimuli_target_rectangletriangles.svg	13	yes	44	1	1042	0	0			0	0			1				0	
6.6.1	win	2023-06-02	05:27:23	05:55:54	1707175	6108d6efa698e3dbe3b313d3	4	1	main_z	7	advance_on_keypress_ZEE	74	stimuli_distractor_diamondtriangles.svg	stimuli_target_rectangletriangles.svg	13	yes	57	0	325	0	0			0	0			1				0	
6.6.1	win	2023-06-02	05:27:23	05:55:56	1708987	6108d6efa698e3dbe3b313d3	4	1	main_z	7	main_z	75	stimuli_distractor_trianglediamonds.svg	stimuli_target_diamondsquares.svg	28	yes	44	1	855	0	0			0	0			1				0	
6.6.1	win	2023-06-02	05:27:23	05:55:56	1708987	6108d6efa698e3dbe3b313d3	4	1	main_z	7	advance_on_keypress_ZEE	76	stimuli_distractor_trianglediamonds.svg	stimuli_target_diamondsquares.svg	28	yes	57	0	466	0	0			0	0			1				0	
6.6.1	win	2023-06-02	05:27:23	05:55:58	1711016	6108d6efa698e3dbe3b313d3	4	1	main_z	7	main_z	77	stimuli_distractor_diamondtriangles.svg	stimuli_target_squarediamonds.svg	16	yes	44	1	918	0	0			0	0			1				0	
6.6.1	win	2023-06-02	05:27:23	05:55:58	1711016	6108d6efa698e3dbe3b313d3	4	1	main_z	7	advance_on_keypress_ZEE	78	stimuli_distractor_diamondtriangles.svg	stimuli_target_squarediamonds.svg	16	yes	57	0	382	0	0			0	0			1				0	
6.6.1	win	2023-06-02	05:27:23	05:56:00	1712972	6108d6efa698e3dbe3b313d3	4	1	main_z	7	main_z	79	stimuli_target_squaretriangles.svg	stimuli_distractor_trianglediamonds.svg	3	yes	44	1	925	0	0			0	0			1				0	
6.6.1	win	2023-06-02	05:27:23	05:56:00	1712972	6108d6efa698e3dbe3b313d3	4	1	main_z	7	advance_on_keypress_ZEE	80	stimuli_target_squaretriangles.svg	stimuli_distractor_trianglediamonds.svg	3	yes	57	0	605	0	0			0	0			1				0	
6.6.1	win	2023-06-02	05:27:23	05:56:02	1715108	6108d6efa698e3dbe3b313d3	4	1	main_z	7	main_z	81	stimuli_distractor_trianglediamonds.svg	stimuli_target_squaretriangles.svg	11	yes	44	1	895	0	0			0	0			1				0	
6.6.1	win	2023-06-02	05:27:23	05:56:02	1715108	6108d6efa698e3dbe3b313d3	4	1	main_z	7	advance_on_keypress_ZEE	82	stimuli_distractor_trianglediamonds.svg	stimuli_target_squaretriangles.svg	11	yes	57	0	348	0	0			0	0			1				0	
6.6.1	win	2023-06-02	05:27:23	05:56:04	1717049	6108d6efa698e3dbe3b313d3	4	1	main_z	7	main_z	83	stimuli_target_diamondrectangles.svg	stimuli_distractor_diamondtriangles.svg	23	yes	44	1	939	0	0			0	0			1				0	
6.6.1	win	2023-06-02	05:27:23	05:56:04	1717049	6108d6efa698e3dbe3b313d3	4	1	main_z	7	advance_on_keypress_ZEE	84	stimuli_target_diamondrectangles.svg	stimuli_distractor_diamondtriangles.svg	23	yes	57	0	358	0	0			0	0			1				0	
6.6.1	win	2023-06-02	05:27:23	05:56:07	1720043	6108d6efa698e3dbe3b313d3	4	1	main_z	7	main_z	85	stimuli_distractor_trianglediamonds.svg	stimuli_distractor_trianglediamonds.svg	33	no	0	1	2000	0	0			0	0			1				0	
6.6.1	win	2023-06-02	05:27:23	05:56:07	1720043	6108d6efa698e3dbe3b313d3	4	1	main_z	7	advance_on_keypress_ZEE	86	stimuli_distractor_trianglediamonds.svg	stimuli_distractor_trianglediamonds.svg	33	no	57	0	327	0	0			0	0			1				0	
6.6.1	win	2023-06-02	05:27:23	05:56:09	1721908	6108d6efa698e3dbe3b313d3	4	1	main_z	7	main_z	87	stimuli_distractor_trianglediamonds.svg	stimuli_distractor_diamondtriangles.svg	35	no	44	0	901	0	0			0	0			1				0	
6.6.1	win	2023-06-02	05:27:23	05:56:09	1721908	6108d6efa698e3dbe3b313d3	4	1	main_z	7	advance_on_keypress_ZEE	88	stimuli_distractor_trianglediamonds.svg	stimuli_distractor_diamondtriangles.svg	35	no	57	0	351	0	0			0	0			1				0	
6.6.1	win	2023-06-02	05:27:23	05:56:11	1723797	6108d6efa698e3dbe3b313d3	4	1	main_z	7	main_z	89	stimuli_target_trianglesquares.svg	stimuli_distractor_diamondtriangles.svg	22	yes	44	1	890	0	0			0	0			1				0	
6.6.1	win	2023-06-02	05:27:23	05:56:11	1723797	6108d6efa698e3dbe3b313d3	4	1	main_z	7	advance_on_keypress_ZEE	90	stimuli_target_trianglesquares.svg	stimuli_distractor_diamondtriangles.svg	22	yes	57	0	374	0	0			0	0			1				0	
6.6.1	win	2023-06-02	05:27:23	05:56:13	1725846	6108d6efa698e3dbe3b313d3	4	1	main_z	7	main_z	91	stimuli_target_trianglerectangles.svg	stimuli_distractor_diamondtriangles.svg	21	yes	44	1	1040	0	0			0	0			1				0	
6.6.1	win	2023-06-02	05:27:23	05:56:13	1725846	6108d6efa698e3dbe3b313d3	4	1	main_z	7	advance_on_keypress_ZEE	92	stimuli_target_trianglerectangles.svg	stimuli_distractor_diamondtriangles.svg	21	yes	57	0	297	0	0			0	0			1				0	
6.6.1	win	2023-06-02	05:27:23	05:56:16	1728594	6108d6efa698e3dbe3b313d3	4	1	main_z	7	main_z	93	stimuli_distractor_diamondtriangles.svg	stimuli_distractor_diamondtriangles.svg	40	no	44	0	1807	0	0			0	0			1				0	
6.6.1	win	2023-06-02	05:27:23	05:56:16	1728594	6108d6efa698e3dbe3b313d3	4	1	main_z	7	advance_on_keypress_ZEE	94	stimuli_distractor_diamondtriangles.svg	stimuli_distractor_diamondtriangles.svg	40	no	57	0	371	0	0			0	0			1				0	
6.6.1	win	2023-06-02	05:27:23	05:56:18	1730615	6108d6efa698e3dbe3b313d3	4	1	main_z	7	main_z	95	stimuli_target_squaretriangles.svg	stimuli_distractor_trianglediamonds.svg	3	yes	44	1	1013	0	0			0	0			1				0	
6.6.1	win	2023-06-02	05:27:23	05:56:18	1730615	6108d6efa698e3dbe3b313d3	4	1	main_z	7	advance_on_keypress_ZEE	96	stimuli_target_squaretriangles.svg	stimuli_distractor_trianglediamonds.svg	3	yes	57	0	344	0	0			0	0			1				0	
6.6.1	win	2023-06-02	05:27:23	05:56:20	1732688	6108d6efa698e3dbe3b313d3	4	1	main_z	7	main_z	97	stimuli_target_diamondsquares.svg	stimuli_distractor_trianglediamonds.svg	20	yes	44	1	1087	0	0			0	0			1				0	
6.6.1	win	2023-06-02	05:27:23	05:56:20	1732688	6108d6efa698e3dbe3b313d3	4	1	main_z	7	advance_on_keypress_ZEE	98	stimuli_target_diamondsquares.svg	stimuli_distractor_trianglediamonds.svg	20	yes	57	0	246	0	0			0	0			1				0	
6.6.1	win	2023-06-02	05:27:23	05:56:21	1734565	6108d6efa698e3dbe3b313d3	4	1	main_z	7	main_z	99	stimuli_target_rectangletriangles.svg	stimuli_distractor_diamondtriangles.svg	5	yes	44	1	982	0	0			0	0			1				0	
6.6.1	win	2023-06-02	05:27:23	05:56:21	1734565	6108d6efa698e3dbe3b313d3	4	1	main_z	7	advance_on_keypress_ZEE	100	stimuli_target_rectangletriangles.svg	stimuli_distractor_diamondtriangles.svg	5	yes	57	0	309	0	0			0	0			1				0	
6.6.1	win	2023-06-02	05:27:23	05:56:23	1736541	6108d6efa698e3dbe3b313d3	4	1	main_z	7	main_z	101	stimuli_target_squaretriangles.svg	stimuli_distractor_diamondtriangles.svg	7	yes	44	1	1026	0	0			0	0			1				0	
6.6.1	win	2023-06-02	05:27:23	05:56:23	1736541	6108d6efa698e3dbe3b313d3	4	1	main_z	7	advance_on_keypress_ZEE	102	stimuli_target_squaretriangles.svg	stimuli_distractor_diamondtriangles.svg	7	yes	57	0	488	0	0			0	0			1				0	
6.6.1	win	2023-06-02	05:27:23	05:56:26	1738700	6108d6efa698e3dbe3b313d3	4	1	main_z	7	main_z	103	stimuli_distractor_diamondtriangles.svg	stimuli_target_rectanglediamonds.svg	14	yes	44	1	1037	0	0			0	0			1				0	
6.6.1	win	2023-06-02	05:27:23	05:56:26	1738700	6108d6efa698e3dbe3b313d3	4	1	main_z	7	advance_on_keypress_ZEE	104	stimuli_distractor_diamondtriangles.svg	stimuli_target_rectanglediamonds.svg	14	yes	57	0	316	0	0			0	0			1				0	
6.6.1	win	2023-06-02	05:27:23	05:56:28	1741564	6108d6efa698e3dbe3b313d3	4	1	main_z	7	main_z	105	stimuli_distractor_diamondtriangles.svg	stimuli_distractor_trianglediamonds.svg	37	no	44	0	1902	0	0			0	0			1				0	
6.6.1	win	2023-06-02	05:27:23	05:56:28	1741564	6108d6efa698e3dbe3b313d3	4	1	main_z	7	advance_on_keypress_ZEE	106	stimuli_distractor_diamondtriangles.svg	stimuli_distractor_trianglediamonds.svg	37	no	57	0	505	0	0			0	0			1				0	
6.6.1	win	2023-06-02	05:27:23	05:56:31	1743813	6108d6efa698e3dbe3b313d3	4	1	main_z	7	main_z	107	stimuli_distractor_trianglediamonds.svg	stimuli_target_squarediamonds.svg	12	yes	44	1	1102	0	0			0	0			1				0	
6.6.1	win	2023-06-02	05:27:23	05:56:31	1743813	6108d6efa698e3dbe3b313d3	4	1	main_z	7	advance_on_keypress_ZEE	108	stimuli_distractor_trianglediamonds.svg	stimuli_target_squarediamonds.svg	12	yes	57	0	414	0	0			0	0			1				0	
6.6.1	win	2023-06-02	05:27:23	05:56:33	1745998	6108d6efa698e3dbe3b313d3	4	1	main_z	7	main_z	109	stimuli_target_rectanglediamonds.svg	stimuli_distractor_trianglediamonds.svg	2	yes	44	1	1123	0	0			0	0			1				0	
6.6.1	win	2023-06-02	05:27:23	05:56:33	1745998	6108d6efa698e3dbe3b313d3	4	1	main_z	7	advance_on_keypress_ZEE	110	stimuli_target_rectanglediamonds.svg	stimuli_distractor_trianglediamonds.svg	2	yes	57	0	455	0	0			0	0			1				0	
6.6.1	win	2023-06-02	05:27:23	05:56:35	1748007	6108d6efa698e3dbe3b313d3	4	1	main_z	7	main_z	111	stimuli_distractor_trianglediamonds.svg	stimuli_distractor_diamondtriangles.svg	36	no	44	0	915	0	0			0	0			1				0	
6.6.1	win	2023-06-02	05:27:23	05:56:35	1748007	6108d6efa698e3dbe3b313d3	4	1	main_z	7	advance_on_keypress_ZEE	112	stimuli_distractor_trianglediamonds.svg	stimuli_distractor_diamondtriangles.svg	36	no	57	0	233	0	0			0	0			1				0	
6.6.1	win	2023-06-02	05:27:23	05:56:37	1749828	6108d6efa698e3dbe3b313d3	4	1	main_z	7	main_z	113	stimuli_target_squarediamonds.svg	stimuli_distractor_trianglediamonds.svg	4	yes	44	1	938	0	0			0	0			1				0	
6.6.1	win	2023-06-02	05:27:23	05:56:37	1749828	6108d6efa698e3dbe3b313d3	4	1	main_z	7	advance_on_keypress_ZEE	114	stimuli_target_squarediamonds.svg	stimuli_distractor_trianglediamonds.svg	4	yes	57	0	267	0	0			0	0			1				0	
6.6.1	win	2023-06-02	05:27:23	05:56:40	1752738	6108d6efa698e3dbe3b313d3	4	1	main_z	7	main_z	115	stimuli_distractor_diamondtriangles.svg	stimuli_target_diamondrectangles.svg	31	yes	0	0	2000	0	0			0	0			1				0	
6.6.1	win	2023-06-02	05:27:23	05:56:40	1752738	6108d6efa698e3dbe3b313d3	4	1	main_z	7	advance_on_keypress_ZEE	116	stimuli_distractor_diamondtriangles.svg	stimuli_target_diamondrectangles.svg	31	yes	57	0	906	0	0			0	0			1				0	
6.6.1	win	2023-06-02	05:27:23	05:56:42	1755438	6108d6efa698e3dbe3b313d3	4	1	main_z	7	main_z	117	stimuli_distractor_diamondtriangles.svg	stimuli_target_rectangletriangles.svg	13	yes	44	1	1151	0	0			0	0			1				0	
6.6.1	win	2023-06-02	05:27:23	05:56:42	1755438	6108d6efa698e3dbe3b313d3	4	1	main_z	7	advance_on_keypress_ZEE	118	stimuli_distractor_diamondtriangles.svg	stimuli_target_rectangletriangles.svg	13	yes	57	0	334	0	0			0	0			1				0	
6.6.1	win	2023-06-02	05:27:23	05:56:45	1757612	6108d6efa698e3dbe3b313d3	4	1	main_z	7	main_z	119	stimuli_distractor_trianglediamonds.svg	stimuli_target_diamondsquares.svg	28	yes	44	1	1193	0	0			0	0			1				0	
6.6.1	win	2023-06-02	05:27:23	05:56:45	1757612	6108d6efa698e3dbe3b313d3	4	1	main_z	7	advance_on_keypress_ZEE	120	stimuli_distractor_trianglediamonds.svg	stimuli_target_diamondsquares.svg	28	yes	57	0	347	0	0			0	0			1				0	
6.6.1	win	2023-06-02	05:27:23	05:56:47	1759917	6108d6efa698e3dbe3b313d3	4	1	main_z	7	main_z	121	stimuli_distractor_diamondtriangles.svg	stimuli_target_trianglesquares.svg	30	yes	44	1	1316	0	0			0	0			1				0	
6.6.1	win	2023-06-02	05:27:23	05:56:47	1759917	6108d6efa698e3dbe3b313d3	4	1	main_z	7	advance_on_keypress_ZEE	122	stimuli_distractor_diamondtriangles.svg	stimuli_target_trianglesquares.svg	30	yes	57	0	249	0	0			0	0			1				0	
6.6.1	win	2023-06-02	05:27:23	05:56:50	1762815	6108d6efa698e3dbe3b313d3	4	1	main_z	7	main_z	123	stimuli_distractor_trianglediamonds.svg	stimuli_distractor_trianglediamonds.svg	34	no	0	1	2000	0	0			0	0			1				0	
6.6.1	win	2023-06-02	05:27:23	05:56:50	1762815	6108d6efa698e3dbe3b313d3	4	1	main_z	7	advance_on_keypress_ZEE	124	stimuli_distractor_trianglediamonds.svg	stimuli_distractor_trianglediamonds.svg	34	no	57	0	1226	0	0			0	0			1				0	
6.6.1	win	2023-06-02	05:27:23	05:56:53	1765583	6108d6efa698e3dbe3b313d3	4	1	main_z	7	main_z	125	stimuli_target_diamondrectangles.svg	stimuli_distractor_trianglediamonds.svg	19	yes	44	1	904	0	0			0	0			1				0	
6.6.1	win	2023-06-02	05:27:23	05:56:53	1765583	6108d6efa698e3dbe3b313d3	4	1	main_z	7	advance_on_keypress_ZEE	126	stimuli_target_diamondrectangles.svg	stimuli_distractor_trianglediamonds.svg	19	yes	57	0	413	0	0			0	0			1				0	
6.6.1	win	2023-06-02	05:27:23	05:56:55	1767613	6108d6efa698e3dbe3b313d3	4	1	main_z	7	main_z	127	stimuli_target_rectangletriangles.svg	stimuli_distractor_trianglediamonds.svg	1	yes	44	1	968	0	0			0	0			1				0	
6.6.1	win	2023-06-02	05:27:23	05:56:55	1767613	6108d6efa698e3dbe3b313d3	4	1	main_z	7	advance_on_keypress_ZEE	128	stimuli_target_rectangletriangles.svg	stimuli_distractor_trianglediamonds.svg	1	yes	57	0	309	0	0			0	0			1				0	
6.6.1	win	2023-06-02	05:27:23	05:56:57	1770560	6108d6efa698e3dbe3b313d3	4	1	main_z	7	main_z	129	stimuli_target_trianglerectangles.svg	stimuli_distractor_trianglediamonds.svg	17	yes	0	0	2000	0	0			0	0			1				0	
6.6.1	win	2023-06-02	05:27:23	05:56:57	1770560	6108d6efa698e3dbe3b313d3	4	1	main_z	7	advance_on_keypress_ZEE	130	stimuli_target_trianglerectangles.svg	stimuli_distractor_trianglediamonds.svg	17	yes	57	0	273	0	0			0	0			1				0	
6.6.1	win	2023-06-02	05:27:23	05:57:00	1773475	6108d6efa698e3dbe3b313d3	4	1	main_z	7	main_z	131	stimuli_target_trianglesquares.svg	stimuli_distractor_trianglediamonds.svg	18	yes	0	0	2000	0	0			0	0			1				0	
6.6.1	win	2023-06-02	05:27:23	05:57:00	1773475	6108d6efa698e3dbe3b313d3	4	1	main_z	7	advance_on_keypress_ZEE	132	stimuli_target_trianglesquares.svg	stimuli_distractor_trianglediamonds.svg	18	yes	57	0	92	0	0			0	0			1				0	
6.6.1	win	2023-06-02	05:27:23	05:57:02	1775204	6108d6efa698e3dbe3b313d3	4	1	main_z	7	main_z	133	stimuli_distractor_trianglediamonds.svg	stimuli_target_rectanglediamonds.svg	10	yes	44	1	996	0	0			0	0			1				0	
6.6.1	win	2023-06-02	05:27:23	05:57:02	1775204	6108d6efa698e3dbe3b313d3	4	1	main_z	7	advance_on_keypress_ZEE	134	stimuli_distractor_trianglediamonds.svg	stimuli_target_rectanglediamonds.svg	10	yes	57	0	1113	0	0			0	0			1				0	
6.6.1	win	2023-06-02	05:27:23	05:57:05	1777892	6108d6efa698e3dbe3b313d3	4	1	main_z	7	main_z	135	stimuli_distractor_diamondtriangles.svg	stimuli_target_squarediamonds.svg	16	yes	44	1	920	0	0			0	0			1				0	
6.6.1	win	2023-06-02	05:27:23	05:57:05	1777892	6108d6efa698e3dbe3b313d3	4	1	main_z	7	advance_on_keypress_ZEE	136	stimuli_distractor_diamondtriangles.svg	stimuli_target_squarediamonds.svg	16	yes	57	0	238	0	0			0	0			1				0	
6.6.1	win	2023-06-02	05:27:23	05:57:07	1779639	6108d6efa698e3dbe3b313d3	4	1	main_z	7	main_z	137	stimuli_distractor_trianglediamonds.svg	stimuli_target_rectangletriangles.svg	9	yes	44	1	867	0	0			0	0			1				0	
6.6.1	win	2023-06-02	05:27:23	05:57:07	1779639	6108d6efa698e3dbe3b313d3	4	1	main_z	7	advance_on_keypress_ZEE	138	stimuli_distractor_trianglediamonds.svg	stimuli_target_rectangletriangles.svg	9	yes	57	0	419	0	0			0	0			1				0	
6.6.1	win	2023-06-02	05:27:23	05:57:08	1781529	6108d6efa698e3dbe3b313d3	4	1	main_z	7	main_z	139	stimuli_distractor_trianglediamonds.svg	stimuli_target_diamondrectangles.svg	27	yes	44	1	825	0	0			0	0			1				0	
6.6.1	win	2023-06-02	05:27:23	05:57:08	1781529	6108d6efa698e3dbe3b313d3	4	1	main_z	7	advance_on_keypress_ZEE	140	stimuli_distractor_trianglediamonds.svg	stimuli_target_diamondrectangles.svg	27	yes	57	0	442	0	0			0	0			1				0	
6.6.1	win	2023-06-02	05:27:23	05:57:11	1783914	6108d6efa698e3dbe3b313d3	4	1	main_z	7	main_z	141	stimuli_distractor_diamondtriangles.svg	stimuli_distractor_diamondtriangles.svg	39	no	44	0	1311	0	0			0	0			1				0	
6.6.1	win	2023-06-02	05:27:23	05:57:11	1783914	6108d6efa698e3dbe3b313d3	4	1	main_z	7	advance_on_keypress_ZEE	142	stimuli_distractor_diamondtriangles.svg	stimuli_distractor_diamondtriangles.svg	39	no	57	0	330	0	0			0	0			1				0	
6.6.1	win	2023-06-02	05:27:23	05:57:13	1785946	6108d6efa698e3dbe3b313d3	4	1	main_z	7	main_z	143	stimuli_target_rectanglediamonds.svg	stimuli_distractor_diamondtriangles.svg	6	yes	44	1	1045	0	0			0	0			1				0	
6.6.1	win	2023-06-02	05:27:23	05:57:13	1785946	6108d6efa698e3dbe3b313d3	4	1	main_z	7	advance_on_keypress_ZEE	144	stimuli_target_rectanglediamonds.svg	stimuli_distractor_diamondtriangles.svg	6	yes	57	0	331	0	0			0	0			1				0	
6.6.1	win	2023-06-02	05:27:23	05:57:15	1788007	6108d6efa698e3dbe3b313d3	4	1	main_z	7	main_z	145	stimuli_target_squarediamonds.svg	stimuli_distractor_diamondtriangles.svg	8	yes	44	1	1075	0	0			0	0			1				0	
6.6.1	win	2023-06-02	05:27:23	05:57:15	1788007	6108d6efa698e3dbe3b313d3	4	1	main_z	7	advance_on_keypress_ZEE	146	stimuli_target_squarediamonds.svg	stimuli_distractor_diamondtriangles.svg	8	yes	57	0	533	0	0			0	0			1				0	
6.6.1	win	2023-06-02	05:27:23	05:57:18	1791181	6108d6efa698e3dbe3b313d3	4	1	main_z	7	main_z	147	stimuli_distractor_trianglediamonds.svg	stimuli_target_trianglerectangles.svg	25	yes	0	0	2000	0	0			0	0			1				0	
6.6.1	win	2023-06-02	05:27:23	05:57:18	1791181	6108d6efa698e3dbe3b313d3	4	1	main_z	7	advance_on_keypress_ZEE	148	stimuli_distractor_trianglediamonds.svg	stimuli_target_trianglerectangles.svg	25	yes	57	0	1165	0	0			0	0			1				0	
6.6.1	win	2023-06-02	05:27:23	05:57:22	1794752	6108d6efa698e3dbe3b313d3	4	1	main_z	7	main_z	149	stimuli_distractor_trianglediamonds.svg	stimuli_target_trianglesquares.svg	26	yes	44	1	1757	0	0			0	0			1				0	
6.6.1	win	2023-06-02	05:27:23	05:57:22	1794752	6108d6efa698e3dbe3b313d3	4	1	main_z	7	advance_on_keypress_ZEE	150	stimuli_distractor_trianglediamonds.svg	stimuli_target_trianglesquares.svg	26	yes	57	0	801	0	0			0	0			1				0	
6.6.1	win	2023-06-02	05:27:23	05:57:25	1798193	6108d6efa698e3dbe3b313d3	4	1	main_z	7	main_z	151	stimuli_distractor_diamondtriangles.svg	stimuli_target_diamondsquares.svg	32	yes	0	0	2000	0	0			0	0			1				0	
6.6.1	win	2023-06-02	05:27:23	05:57:25	1798193	6108d6efa698e3dbe3b313d3	4	1	main_z	7	advance_on_keypress_ZEE	152	stimuli_distractor_diamondtriangles.svg	stimuli_target_diamondsquares.svg	32	yes	57	0	1442	0	0			0	0			1				0	
6.6.1	win	2023-06-02	05:27:23	05:57:29	1802092	6108d6efa698e3dbe3b313d3	4	1	main_z	7	main_z	153	stimuli_distractor_diamondtriangles.svg	stimuli_target_trianglerectangles.svg	29	yes	44	1	1817	0	0			0	0			1				0	
6.6.1	win	2023-06-02	05:27:23	05:57:29	1802092	6108d6efa698e3dbe3b313d3	4	1	main_z	7	advance_on_keypress_ZEE	154	stimuli_distractor_diamondtriangles.svg	stimuli_target_trianglerectangles.svg	29	yes	57	0	545	0	0			0	0			1				0	
6.6.1	win	2023-06-02	05:27:23	05:57:32	1805272	6108d6efa698e3dbe3b313d3	4	1	main_z	7	main_z	155	stimuli_distractor_diamondtriangles.svg	stimuli_distractor_trianglediamonds.svg	38	no	0	1	2000	0	0			0	0			1				0	
6.6.1	win	2023-06-02	05:27:23	05:57:32	1805272	6108d6efa698e3dbe3b313d3	4	1	main_z	7	advance_on_keypress_ZEE	156	stimuli_distractor_diamondtriangles.svg	stimuli_distractor_trianglediamonds.svg	38	no	57	0	606	0	0			0	0			1				0	
6.6.1	win	2023-06-02	05:27:23	05:57:35	1807835	6108d6efa698e3dbe3b313d3	4	1	main_z	7	main_z	157	stimuli_target_diamondsquares.svg	stimuli_distractor_diamondtriangles.svg	24	yes	44	1	1315	0	0			0	0			1				0	
6.6.1	win	2023-06-02	05:27:23	05:57:35	1807835	6108d6efa698e3dbe3b313d3	4	1	main_z	7	advance_on_keypress_ZEE	158	stimuli_target_diamondsquares.svg	stimuli_distractor_diamondtriangles.svg	24	yes	57	0	372	0	0			0	0			1				0	
6.6.1	win	2023-06-02	05:27:23	05:57:38	1810852	6108d6efa698e3dbe3b313d3	4	1	main_z	7	main_z	159	stimuli_distractor_diamondtriangles.svg	stimuli_target_squaretriangles.svg	15	yes	0	0	2000	0	0			0	0			1				0	
6.6.1	win	2023-06-02	05:27:23	05:57:38	1810852	6108d6efa698e3dbe3b313d3	4	1	main_z	7	advance_on_keypress_ZEE	160	stimuli_distractor_diamondtriangles.svg	stimuli_target_squaretriangles.svg	15	yes	57	0	1017	0	0			0	0			1				0	
6.6.1	win	2023-06-02	05:27:23	06:01:16	2028635	6108d6efa698e3dbe3b313d3	4	1	practice_slash	9	practice_slash	1	stimuli_target_squarediamonds.svg	stimuli_distractor_diamondtriangles.svg	2	yes	53	1	671	0	0			0	0			1				0	
6.6.1	win	2023-06-02	05:27:23	06:01:16	2028635	6108d6efa698e3dbe3b313d3	4	1	practice_slash	9	advance_on_keypress_SLASH	2	stimuli_target_squarediamonds.svg	stimuli_distractor_diamondtriangles.svg	2	yes	57	0	1150	0	0			0	0			1				0	
6.6.1	win	2023-06-02	05:27:23	06:01:19	2032086	6108d6efa698e3dbe3b313d3	4	1	practice_slash	9	practice_slash	3	stimuli_target_rectanglediamonds.svg	stimuli_distractor_trianglediamonds.svg	4	yes	53	1	656	0	0			0	0			1				0	
6.6.1	win	2023-06-02	05:27:23	06:01:19	2032086	6108d6efa698e3dbe3b313d3	4	1	practice_slash	9	advance_on_keypress_SLASH	4	stimuli_target_rectanglediamonds.svg	stimuli_distractor_trianglediamonds.svg	4	yes	57	0	363	0	0			0	0			1				0	
6.6.1	win	2023-06-02	05:27:23	06:01:22	2034829	6108d6efa698e3dbe3b313d3	4	1	practice_slash	9	practice_slash	5	stimuli_target_rectanglediamonds.svg	stimuli_distractor_diamondtriangles.svg	1	yes	53	1	735	0	0			0	0			1				0	
6.6.1	win	2023-06-02	05:27:23	06:01:22	2034829	6108d6efa698e3dbe3b313d3	4	1	practice_slash	9	advance_on_keypress_SLASH	6	stimuli_target_rectanglediamonds.svg	stimuli_distractor_diamondtriangles.svg	1	yes	57	0	371	0	0			0	0			1				0	
6.6.1	win	2023-06-02	05:27:23	06:01:26	2038842	6108d6efa698e3dbe3b313d3	4	1	practice_slash	9	practice_slash	7	stimuli_distractor_trianglediamonds.svg	stimuli_distractor_trianglediamonds.svg	15	no	0	1	2000	0	0			0	0			1				0	
6.6.1	win	2023-06-02	05:27:23	06:01:26	2038842	6108d6efa698e3dbe3b313d3	4	1	practice_slash	9	advance_on_keypress_SLASH	8	stimuli_distractor_trianglediamonds.svg	stimuli_distractor_trianglediamonds.svg	15	no	57	0	489	0	0			0	0			1				0	
6.6.1	win	2023-06-02	05:27:23	06:01:29	2041693	6108d6efa698e3dbe3b313d3	4	1	practice_slash	9	practice_slash	9	stimuli_target_squarediamonds.svg	stimuli_distractor_trianglediamonds.svg	5	yes	53	1	720	0	0			0	0			1				0	
6.6.1	win	2023-06-02	05:27:23	06:01:29	2041693	6108d6efa698e3dbe3b313d3	4	1	practice_slash	9	advance_on_keypress_SLASH	10	stimuli_target_squarediamonds.svg	stimuli_distractor_trianglediamonds.svg	5	yes	57	0	409	0	0			0	0			1				0	
6.6.1	win	2023-06-02	05:27:23	06:01:31	2044430	6108d6efa698e3dbe3b313d3	4	1	practice_slash	9	practice_slash	11	stimuli_distractor_trianglediamonds.svg	stimuli_target_rectanglediamonds.svg	10	yes	53	1	692	0	0			0	0			1				0	
6.6.1	win	2023-06-02	05:27:23	06:01:31	2044430	6108d6efa698e3dbe3b313d3	4	1	practice_slash	9	advance_on_keypress_SLASH	12	stimuli_distractor_trianglediamonds.svg	stimuli_target_rectanglediamonds.svg	10	yes	57	0	531	0	0			0	0			1				0	
6.6.1	win	2023-06-02	05:27:23	06:01:36	2048602	6108d6efa698e3dbe3b313d3	4	1	practice_slash	9	practice_slash	13	stimuli_distractor_diamondtriangles.svg	stimuli_target_trianglerectangles.svg	9	yes	0	0	2000	0	0			0	0			1				0	
6.6.1	win	2023-06-02	05:27:23	06:01:36	2048602	6108d6efa698e3dbe3b313d3	4	1	practice_slash	9	advance_on_keypress_SLASH	14	stimuli_distractor_diamondtriangles.svg	stimuli_target_trianglerectangles.svg	9	yes	57	0	518	0	0			0	0			1				0	
6.6.1	win	2023-06-02	05:27:23	06:01:40	2052766	6108d6efa698e3dbe3b313d3	4	1	practice_slash	9	practice_slash	15	stimuli_distractor_trianglediamonds.svg	stimuli_distractor_diamondtriangles.svg	16	no	0	1	2000	0	0			0	0			1				0	
6.6.1	win	2023-06-02	05:27:23	06:01:40	2052766	6108d6efa698e3dbe3b313d3	4	1	practice_slash	9	advance_on_keypress_SLASH	16	stimuli_distractor_trianglediamonds.svg	stimuli_distractor_diamondtriangles.svg	16	no	57	0	606	0	0			0	0			1				0	
6.6.1	win	2023-06-02	05:27:23	06:01:43	2056161	6108d6efa698e3dbe3b313d3	4	1	practice_slash	9	practice_slash	17	stimuli_target_diamondsquares.svg	stimuli_distractor_trianglediamonds.svg	6	yes	53	1	1147	0	0			0	0			1				0	
6.6.1	win	2023-06-02	05:27:23	06:01:43	2056161	6108d6efa698e3dbe3b313d3	4	1	practice_slash	9	advance_on_keypress_SLASH	18	stimuli_target_diamondsquares.svg	stimuli_distractor_trianglediamonds.svg	6	yes	57	0	310	0	0			0	0			1				0	
6.6.1	win	2023-06-02	05:27:23	06:01:46	2058956	6108d6efa698e3dbe3b313d3	4	1	practice_slash	9	practice_slash	19	stimuli_distractor_trianglediamonds.svg	stimuli_target_squarediamonds.svg	11	yes	53	1	828	0	0			0	0			1				0	
6.6.1	win	2023-06-02	05:27:23	06:01:46	2058956	6108d6efa698e3dbe3b313d3	4	1	practice_slash	9	advance_on_keypress_SLASH	20	stimuli_distractor_trianglediamonds.svg	stimuli_target_squarediamonds.svg	11	yes	57	0	735	0	0			0	0			1				0	
6.6.1	win	2023-06-02	05:27:23	06:01:49	2062570	6108d6efa698e3dbe3b313d3	4	1	practice_slash	9	practice_slash	21	stimuli_distractor_diamondtriangles.svg	stimuli_distractor_diamondtriangles.svg	13	no	53	0	1225	0	0			0	0			1				0	
6.6.1	win	2023-06-02	05:27:23	06:01:49	2062570	6108d6efa698e3dbe3b313d3	4	1	practice_slash	9	advance_on_keypress_SLASH	22	stimuli_distractor_diamondtriangles.svg	stimuli_distractor_diamondtriangles.svg	13	no	57	0	861	0	0			0	0			1				0	
6.6.1	win	2023-06-02	05:27:23	06:01:53	2065914	6108d6efa698e3dbe3b313d3	4	1	practice_slash	9	practice_slash	23	stimuli_distractor_diamondtriangles.svg	stimuli_target_diamondrectangles.svg	8	yes	53	1	824	0	0			0	0			1				0	
6.6.1	win	2023-06-02	05:27:23	06:01:53	2065914	6108d6efa698e3dbe3b313d3	4	1	practice_slash	9	advance_on_keypress_SLASH	24	stimuli_distractor_diamondtriangles.svg	stimuli_target_diamondrectangles.svg	8	yes	57	0	126	0	0			0	0			1				0	
6.6.1	win	2023-06-02	05:27:23	06:01:55	2068411	6108d6efa698e3dbe3b313d3	4	1	practice_slash	9	practice_slash	25	stimuli_distractor_diamondtriangles.svg	stimuli_distractor_trianglediamonds.svg	14	no	53	0	739	0	0			0	0			1				0	
6.6.1	win	2023-06-02	05:27:23	06:01:55	2068411	6108d6efa698e3dbe3b313d3	4	1	practice_slash	9	advance_on_keypress_SLASH	26	stimuli_distractor_diamondtriangles.svg	stimuli_distractor_trianglediamonds.svg	14	no	57	0	240	0	0			0	0			1				0	
6.6.1	win	2023-06-02	05:27:23	06:01:58	2071102	6108d6efa698e3dbe3b313d3	4	1	practice_slash	9	practice_slash	27	stimuli_target_diamondsquares.svg	stimuli_distractor_diamondtriangles.svg	3	yes	53	1	814	0	0			0	0			1				0	
6.6.1	win	2023-06-02	05:27:23	06:01:58	2071102	6108d6efa698e3dbe3b313d3	4	1	practice_slash	9	advance_on_keypress_SLASH	28	stimuli_target_diamondsquares.svg	stimuli_distractor_diamondtriangles.svg	3	yes	57	0	251	0	0			0	0			1				0	
6.6.1	win	2023-06-02	05:27:23	06:02:01	2073753	6108d6efa698e3dbe3b313d3	4	1	practice_slash	9	practice_slash	29	stimuli_distractor_diamondtriangles.svg	stimuli_target_rectangletriangles.svg	7	yes	53	1	750	0	0			0	0			1				0	
6.6.1	win	2023-06-02	05:27:23	06:02:01	2073753	6108d6efa698e3dbe3b313d3	4	1	practice_slash	9	advance_on_keypress_SLASH	30	stimuli_distractor_diamondtriangles.svg	stimuli_target_rectangletriangles.svg	7	yes	57	0	36	0	0			0	0			1				0	
6.6.1	win	2023-06-02	05:27:23	06:02:03	2076238	6108d6efa698e3dbe3b313d3	4	1	practice_slash	9	practice_slash	31	stimuli_distractor_trianglediamonds.svg	stimuli_target_diamondrectangles.svg	12	yes	53	1	803	0	0			0	0			1				0	
6.6.1	win	2023-06-02	05:27:23	06:02:03	2076238	6108d6efa698e3dbe3b313d3	4	1	practice_slash	9	advance_on_keypress_SLASH	32	stimuli_distractor_trianglediamonds.svg	stimuli_target_diamondrectangles.svg	12	yes	57	0	307	0	0			0	0			1				0	
6.6.1	win	2023-06-02	05:27:23	06:02:07	2080113	6108d6efa698e3dbe3b313d3	4	1	main_slash	11	main_slash	1	stimuli_distractor_trianglediamonds.svg	stimuli_target_diamondrectangles.svg	27	yes	53	1	799	0	0			0	0			1				0	
6.6.1	win	2023-06-02	05:27:23	06:02:07	2080113	6108d6efa698e3dbe3b313d3	4	1	main_slash	11	advance_on_keypress_SLASH	2	stimuli_distractor_trianglediamonds.svg	stimuli_target_diamondrectangles.svg	27	yes	57	0	695	0	0			0	0			1				0	
6.6.1	win	2023-06-02	05:27:23	06:02:09	2082156	6108d6efa698e3dbe3b313d3	4	1	main_slash	11	main_slash	3	stimuli_distractor_diamondtriangles.svg	stimuli_target_rectanglediamonds.svg	14	yes	53	1	693	0	0			0	0			1				0	
6.6.1	win	2023-06-02	05:27:23	06:02:09	2082156	6108d6efa698e3dbe3b313d3	4	1	main_slash	11	advance_on_keypress_SLASH	4	stimuli_distractor_diamondtriangles.svg	stimuli_target_rectanglediamonds.svg	14	yes	57	0	430	0	0			0	0			1				0	
6.6.1	win	2023-06-02	05:27:23	06:02:11	2084438	6108d6efa698e3dbe3b313d3	4	1	main_slash	11	main_slash	5	stimuli_distractor_diamondtriangles.svg	stimuli_target_trianglesquares.svg	30	yes	53	1	1193	0	0			0	0			1				0	
6.6.1	win	2023-06-02	05:27:23	06:02:11	2084438	6108d6efa698e3dbe3b313d3	4	1	main_slash	11	advance_on_keypress_SLASH	6	stimuli_distractor_diamondtriangles.svg	stimuli_target_trianglesquares.svg	30	yes	57	0	733	0	0			0	0			1				0	
6.6.1	win	2023-06-02	05:27:23	06:02:13	2086384	6108d6efa698e3dbe3b313d3	4	1	main_slash	11	main_slash	7	stimuli_target_rectangletriangles.svg	stimuli_distractor_trianglediamonds.svg	1	yes	53	1	574	0	0			0	0			1				0	
6.6.1	win	2023-06-02	05:27:23	06:02:13	2086384	6108d6efa698e3dbe3b313d3	4	1	main_slash	11	advance_on_keypress_SLASH	8	stimuli_target_rectangletriangles.svg	stimuli_distractor_trianglediamonds.svg	1	yes	57	0	587	0	0			0	0			1				0	
6.6.1	win	2023-06-02	05:27:23	06:02:15	2088206	6108d6efa698e3dbe3b313d3	4	1	main_slash	11	main_slash	9	stimuli_distractor_diamondtriangles.svg	stimuli_target_diamondsquares.svg	32	yes	53	1	598	0	0			0	0			1				0	
6.6.1	win	2023-06-02	05:27:23	06:02:15	2088206	6108d6efa698e3dbe3b313d3	4	1	main_slash	11	advance_on_keypress_SLASH	10	stimuli_distractor_diamondtriangles.svg	stimuli_target_diamondsquares.svg	32	yes	57	0	466	0	0			0	0			1				0	
6.6.1	win	2023-06-02	05:27:23	06:02:17	2090128	6108d6efa698e3dbe3b313d3	4	1	main_slash	11	main_slash	11	stimuli_distractor_diamondtriangles.svg	stimuli_distractor_trianglediamonds.svg	38	no	53	0	803	0	0			0	0			1				0	
6.6.1	win	2023-06-02	05:27:23	06:02:17	2090128	6108d6efa698e3dbe3b313d3	4	1	main_slash	11	advance_on_keypress_SLASH	12	stimuli_distractor_diamondtriangles.svg	stimuli_distractor_trianglediamonds.svg	38	no	57	0	495	0	0			0	0			1				0	
6.6.1	win	2023-06-02	05:27:23	06:02:19	2091930	6108d6efa698e3dbe3b313d3	4	1	main_slash	11	main_slash	13	stimuli_target_rectanglediamonds.svg	stimuli_distractor_trianglediamonds.svg	2	yes	53	1	674	0	0			0	0			1				0	
6.6.1	win	2023-06-02	05:27:23	06:02:19	2091930	6108d6efa698e3dbe3b313d3	4	1	main_slash	11	advance_on_keypress_SLASH	14	stimuli_target_rectanglediamonds.svg	stimuli_distractor_trianglediamonds.svg	2	yes	57	0	398	0	0			0	0			1				0	
6.6.1	win	2023-06-02	05:27:23	06:02:21	2093803	6108d6efa698e3dbe3b313d3	4	1	main_slash	11	main_slash	15	stimuli_target_diamondrectangles.svg	stimuli_distractor_trianglediamonds.svg	19	yes	53	1	831	0	0			0	0			1				0	
6.6.1	win	2023-06-02	05:27:23	06:02:21	2093803	6108d6efa698e3dbe3b313d3	4	1	main_slash	11	advance_on_keypress_SLASH	16	stimuli_target_diamondrectangles.svg	stimuli_distractor_trianglediamonds.svg	19	yes	57	0	446	0	0			0	0			1				0	
6.6.1	win	2023-06-02	05:27:23	06:02:24	2096903	6108d6efa698e3dbe3b313d3	4	1	main_slash	11	main_slash	17	stimuli_target_trianglerectangles.svg	stimuli_distractor_trianglediamonds.svg	17	yes	0	0	2000	0	0			0	0			1				0	
6.6.1	win	2023-06-02	05:27:23	06:02:24	2096903	6108d6efa698e3dbe3b313d3	4	1	main_slash	11	advance_on_keypress_SLASH	18	stimuli_target_trianglerectangles.svg	stimuli_distractor_trianglediamonds.svg	17	yes	57	0	310	0	0			0	0			1				0	
6.6.1	win	2023-06-02	05:27:23	06:02:27	2099851	6108d6efa698e3dbe3b313d3	4	1	main_slash	11	main_slash	19	stimuli_distractor_trianglediamonds.svg	stimuli_target_trianglerectangles.svg	25	yes	0	0	2000	0	0			0	0			1				0	
6.6.1	win	2023-06-02	05:27:23	06:02:27	2099851	6108d6efa698e3dbe3b313d3	4	1	main_slash	11	advance_on_keypress_SLASH	20	stimuli_distractor_trianglediamonds.svg	stimuli_target_trianglerectangles.svg	25	yes	57	0	65	0	0			0	0			1				0	
6.6.1	win	2023-06-02	05:27:23	06:02:28	2101203	6108d6efa698e3dbe3b313d3	4	1	main_slash	11	main_slash	21	stimuli_distractor_trianglediamonds.svg	stimuli_target_rectanglediamonds.svg	10	yes	53	1	637	0	0			0	0			1				0	
6.6.1	win	2023-06-02	05:27:23	06:02:28	2101203	6108d6efa698e3dbe3b313d3	4	1	main_slash	11	advance_on_keypress_SLASH	22	stimuli_distractor_trianglediamonds.svg	stimuli_target_rectanglediamonds.svg	10	yes	57	0	1303	0	0			0	0			1				0	
6.6.1	win	2023-06-02	05:27:23	06:02:32	2105148	6108d6efa698e3dbe3b313d3	4	1	main_slash	11	main_slash	23	stimuli_distractor_trianglediamonds.svg	stimuli_distractor_trianglediamonds.svg	34	no	0	1	2000	0	0			0	0			1				0	
6.6.1	win	2023-06-02	05:27:23	06:02:32	2105148	6108d6efa698e3dbe3b313d3	4	1	main_slash	11	advance_on_keypress_SLASH	24	stimuli_distractor_trianglediamonds.svg	stimuli_distractor_trianglediamonds.svg	34	no	57	0	692	0	0			0	0			1				0	
6.6.1	win	2023-06-02	05:27:23	06:02:35	2107662	6108d6efa698e3dbe3b313d3	4	1	main_slash	11	main_slash	25	stimuli_distractor_trianglediamonds.svg	stimuli_distractor_diamondtriangles.svg	35	no	53	0	1183	0	0			0	0			1				0	
6.6.1	win	2023-06-02	05:27:23	06:02:35	2107662	6108d6efa698e3dbe3b313d3	4	1	main_slash	11	advance_on_keypress_SLASH	26	stimuli_distractor_trianglediamonds.svg	stimuli_distractor_diamondtriangles.svg	35	no	57	0	666	0	0			0	0			1				0	
6.6.1	win	2023-06-02	05:27:23	06:02:37	2109834	6108d6efa698e3dbe3b313d3	4	1	main_slash	11	main_slash	27	stimuli_target_squaretriangles.svg	stimuli_distractor_trianglediamonds.svg	3	yes	53	1	856	0	0			0	0			1				0	
6.6.1	win	2023-06-02	05:27:23	06:02:37	2109834	6108d6efa698e3dbe3b313d3	4	1	main_slash	11	advance_on_keypress_SLASH	28	stimuli_target_squaretriangles.svg	stimuli_distractor_trianglediamonds.svg	3	yes	57	0	493	0	0			0	0			1				0	
6.6.1	win	2023-06-02	05:27:23	06:02:39	2111658	6108d6efa698e3dbe3b313d3	4	1	main_slash	11	main_slash	29	stimuli_distractor_diamondtriangles.svg	stimuli_distractor_trianglediamonds.svg	37	no	53	0	698	0	0			0	0			1				0	
6.6.1	win	2023-06-02	05:27:23	06:02:39	2111658	6108d6efa698e3dbe3b313d3	4	1	main_slash	11	advance_on_keypress_SLASH	30	stimuli_distractor_diamondtriangles.svg	stimuli_distractor_trianglediamonds.svg	37	no	57	0	546	0	0			0	0			1				0	
6.6.1	win	2023-06-02	05:27:23	06:02:40	2113562	6108d6efa698e3dbe3b313d3	4	1	main_slash	11	main_slash	31	stimuli_target_rectanglediamonds.svg	stimuli_distractor_diamondtriangles.svg	6	yes	53	1	704	0	0			0	0			1				0	
6.6.1	win	2023-06-02	05:27:23	06:02:40	2113562	6108d6efa698e3dbe3b313d3	4	1	main_slash	11	advance_on_keypress_SLASH	32	stimuli_target_rectanglediamonds.svg	stimuli_distractor_diamondtriangles.svg	6	yes	57	0	507	0	0			0	0			1				0	
6.6.1	win	2023-06-02	05:27:23	06:02:42	2115502	6108d6efa698e3dbe3b313d3	4	1	main_slash	11	main_slash	33	stimuli_distractor_diamondtriangles.svg	stimuli_target_diamondrectangles.svg	31	yes	53	1	795	0	0			0	0			1				0	
6.6.1	win	2023-06-02	05:27:23	06:02:42	2115502	6108d6efa698e3dbe3b313d3	4	1	main_slash	11	advance_on_keypress_SLASH	34	stimuli_distractor_diamondtriangles.svg	stimuli_target_diamondrectangles.svg	31	yes	57	0	555	0	0			0	0			1				0	
6.6.1	win	2023-06-02	05:27:23	06:02:45	2117744	6108d6efa698e3dbe3b313d3	4	1	main_slash	11	main_slash	35	stimuli_target_trianglesquares.svg	stimuli_distractor_diamondtriangles.svg	22	yes	53	1	1054	0	0			0	0			1				0	
6.6.1	win	2023-06-02	05:27:23	06:02:45	2117744	6108d6efa698e3dbe3b313d3	4	1	main_slash	11	advance_on_keypress_SLASH	36	stimuli_target_trianglesquares.svg	stimuli_distractor_diamondtriangles.svg	22	yes	57	0	869	0	0			0	0			1				0	
6.6.1	win	2023-06-02	05:27:23	06:02:47	2120068	6108d6efa698e3dbe3b313d3	4	1	main_slash	11	main_slash	37	stimuli_target_diamondsquares.svg	stimuli_distractor_trianglediamonds.svg	20	yes	53	1	814	0	0			0	0			1				0	
6.6.1	win	2023-06-02	05:27:23	06:02:47	2120068	6108d6efa698e3dbe3b313d3	4	1	main_slash	11	advance_on_keypress_SLASH	38	stimuli_target_diamondsquares.svg	stimuli_distractor_trianglediamonds.svg	20	yes	57	0	446	0	0			0	0			1				0	
6.6.1	win	2023-06-02	05:27:23	06:02:49	2121797	6108d6efa698e3dbe3b313d3	4	1	main_slash	11	main_slash	39	stimuli_distractor_diamondtriangles.svg	stimuli_target_trianglerectangles.svg	29	yes	53	1	626	0	0			0	0			1				0	
6.6.1	win	2023-06-02	05:27:23	06:02:49	2121797	6108d6efa698e3dbe3b313d3	4	1	main_slash	11	advance_on_keypress_SLASH	40	stimuli_distractor_diamondtriangles.svg	stimuli_target_trianglerectangles.svg	29	yes	57	0	489	0	0			0	0			1				0	
6.6.1	win	2023-06-02	05:27:23	06:02:52	2124919	6108d6efa698e3dbe3b313d3	4	1	main_slash	11	main_slash	41	stimuli_distractor_trianglediamonds.svg	stimuli_distractor_trianglediamonds.svg	33	no	0	1	2000	0	0			0	0			1				0	
6.6.1	win	2023-06-02	05:27:23	06:02:52	2124919	6108d6efa698e3dbe3b313d3	4	1	main_slash	11	advance_on_keypress_SLASH	42	stimuli_distractor_trianglediamonds.svg	stimuli_distractor_trianglediamonds.svg	33	no	57	0	700	0	0			0	0			1				0	
6.6.1	win	2023-06-02	05:27:23	06:02:55	2128267	6108d6efa698e3dbe3b313d3	4	1	main_slash	11	main_slash	43	stimuli_target_trianglesquares.svg	stimuli_distractor_trianglediamonds.svg	18	yes	0	0	2000	0	0			0	0			1				0	
6.6.1	win	2023-06-02	05:27:23	06:02:55	2128267	6108d6efa698e3dbe3b313d3	4	1	main_slash	11	advance_on_keypress_SLASH	44	stimuli_target_trianglesquares.svg	stimuli_distractor_trianglediamonds.svg	18	yes	57	0	5	0	0			0	0			1				0	
6.6.1	win	2023-06-02	05:27:23	06:02:57	2129614	6108d6efa698e3dbe3b313d3	4	1	main_slash	11	main_slash	45	stimuli_target_diamondrectangles.svg	stimuli_distractor_diamondtriangles.svg	23	yes	53	1	683	0	0			0	0			1				0	
6.6.1	win	2023-06-02	05:27:23	06:02:57	2129614	6108d6efa698e3dbe3b313d3	4	1	main_slash	11	advance_on_keypress_SLASH	46	stimuli_target_diamondrectangles.svg	stimuli_distractor_diamondtriangles.svg	23	yes	57	0	699	0	0			0	0			1				0	
6.6.1	win	2023-06-02	05:27:23	06:03:00	2132964	6108d6efa698e3dbe3b313d3	4	1	main_slash	11	main_slash	47	stimuli_distractor_trianglediamonds.svg	stimuli_target_trianglesquares.svg	26	yes	0	0	2000	0	0			0	0			1				0	
6.6.1	win	2023-06-02	05:27:23	06:03:00	2132964	6108d6efa698e3dbe3b313d3	4	1	main_slash	11	advance_on_keypress_SLASH	48	stimuli_distractor_trianglediamonds.svg	stimuli_target_trianglesquares.svg	26	yes	57	0	263	0	0			0	0			1				0	
6.6.1	win	2023-06-02	05:27:23	06:03:02	2134742	6108d6efa698e3dbe3b313d3	4	1	main_slash	11	main_slash	49	stimuli_distractor_trianglediamonds.svg	stimuli_target_squaretriangles.svg	11	yes	53	1	863	0	0			0	0			1				0	
6.6.1	win	2023-06-02	05:27:23	06:03:02	2134742	6108d6efa698e3dbe3b313d3	4	1	main_slash	11	advance_on_keypress_SLASH	50	stimuli_distractor_trianglediamonds.svg	stimuli_target_squaretriangles.svg	11	yes	57	0	812	0	0			0	0			1				0	
6.6.1	win	2023-06-02	05:27:23	06:03:04	2137135	6108d6efa698e3dbe3b313d3	4	1	main_slash	11	main_slash	51	stimuli_target_squarediamonds.svg	stimuli_distractor_trianglediamonds.svg	4	yes	53	1	925	0	0			0	0			1				0	
6.6.1	win	2023-06-02	05:27:23	06:03:04	2137135	6108d6efa698e3dbe3b313d3	4	1	main_slash	11	advance_on_keypress_SLASH	52	stimuli_target_squarediamonds.svg	stimuli_distractor_trianglediamonds.svg	4	yes	57	0	372	0	0			0	0			1				0	
6.6.1	win	2023-06-02	05:27:23	06:03:06	2139213	6108d6efa698e3dbe3b313d3	4	1	main_slash	11	main_slash	53	stimuli_distractor_trianglediamonds.svg	stimuli_target_squarediamonds.svg	12	yes	53	1	1071	0	0			0	0			1				0	
6.6.1	win	2023-06-02	05:27:23	06:03:06	2139213	6108d6efa698e3dbe3b313d3	4	1	main_slash	11	advance_on_keypress_SLASH	54	stimuli_distractor_trianglediamonds.svg	stimuli_target_squarediamonds.svg	12	yes	57	0	581	0	0			0	0			1				0	
6.6.1	win	2023-06-02	05:27:23	06:03:08	2141494	6108d6efa698e3dbe3b313d3	4	1	main_slash	11	main_slash	55	stimuli_target_diamondsquares.svg	stimuli_distractor_diamondtriangles.svg	24	yes	53	1	1053	0	0			0	0			1				0	
6.6.1	win	2023-06-02	05:27:23	06:03:08	2141494	6108d6efa698e3dbe3b313d3	4	1	main_slash	11	advance_on_keypress_SLASH	56	stimuli_target_diamondsquares.svg	stimuli_distractor_diamondtriangles.svg	24	yes	57	0	619	0	0			0	0			1				0	
6.6.1	win	2023-06-02	05:27:23	06:03:11	2143922	6108d6efa698e3dbe3b313d3	4	1	main_slash	11	main_slash	57	stimuli_target_trianglerectangles.svg	stimuli_distractor_diamondtriangles.svg	21	yes	53	1	1165	0	0			0	0			1				0	
6.6.1	win	2023-06-02	05:27:23	06:03:11	2143922	6108d6efa698e3dbe3b313d3	4	1	main_slash	11	advance_on_keypress_SLASH	58	stimuli_target_trianglerectangles.svg	stimuli_distractor_diamondtriangles.svg	21	yes	57	0	326	0	0			0	0			1				0	
6.6.1	win	2023-06-02	05:27:23	06:03:13	2145850	6108d6efa698e3dbe3b313d3	4	1	main_slash	11	main_slash	59	stimuli_distractor_trianglediamonds.svg	stimuli_distractor_diamondtriangles.svg	36	no	53	0	961	0	0			0	0			1				0	
6.6.1	win	2023-06-02	05:27:23	06:03:13	2145850	6108d6efa698e3dbe3b313d3	4	1	main_slash	11	advance_on_keypress_SLASH	60	stimuli_distractor_trianglediamonds.svg	stimuli_distractor_diamondtriangles.svg	36	no	57	0	510	0	0			0	0			1				0	
6.6.1	win	2023-06-02	05:27:23	06:03:15	2147891	6108d6efa698e3dbe3b313d3	4	1	main_slash	11	main_slash	61	stimuli_distractor_diamondtriangles.svg	stimuli_target_squarediamonds.svg	16	yes	53	1	886	0	0			0	0			1				0	
6.6.1	win	2023-06-02	05:27:23	06:03:15	2147891	6108d6efa698e3dbe3b313d3	4	1	main_slash	11	advance_on_keypress_SLASH	62	stimuli_distractor_diamondtriangles.svg	stimuli_target_squarediamonds.svg	16	yes	57	0	849	0	0			0	0			1				0	
6.6.1	win	2023-06-02	05:27:23	06:03:18	2150798	6108d6efa698e3dbe3b313d3	4	1	main_slash	11	main_slash	63	stimuli_distractor_diamondtriangles.svg	stimuli_target_rectangletriangles.svg	13	yes	53	1	1412	0	0			0	0			1				0	
6.6.1	win	2023-06-02	05:27:23	06:03:18	2150798	6108d6efa698e3dbe3b313d3	4	1	main_slash	11	advance_on_keypress_SLASH	64	stimuli_distractor_diamondtriangles.svg	stimuli_target_rectangletriangles.svg	13	yes	57	0	440	0	0			0	0			1				0	
6.6.1	win	2023-06-02	05:27:23	06:03:20	2152720	6108d6efa698e3dbe3b313d3	4	1	main_slash	11	main_slash	65	stimuli_target_squaretriangles.svg	stimuli_distractor_diamondtriangles.svg	7	yes	53	1	835	0	0			0	0			1				0	
6.6.1	win	2023-06-02	05:27:23	06:03:20	2152720	6108d6efa698e3dbe3b313d3	4	1	main_slash	11	advance_on_keypress_SLASH	66	stimuli_target_squaretriangles.svg	stimuli_distractor_diamondtriangles.svg	7	yes	57	0	893	0	0			0	0			1				0	
6.6.1	win	2023-06-02	05:27:23	06:03:22	2155340	6108d6efa698e3dbe3b313d3	4	1	main_slash	11	main_slash	67	stimuli_distractor_diamondtriangles.svg	stimuli_distractor_diamondtriangles.svg	39	no	53	0	1090	0	0			0	0			1				0	
6.6.1	win	2023-06-02	05:27:23	06:03:22	2155340	6108d6efa698e3dbe3b313d3	4	1	main_slash	11	advance_on_keypress_SLASH	68	stimuli_distractor_diamondtriangles.svg	stimuli_distractor_diamondtriangles.svg	39	no	57	0	738	0	0			0	0			1				0	
6.6.1	win	2023-06-02	05:27:23	06:03:25	2157655	6108d6efa698e3dbe3b313d3	4	1	main_slash	11	main_slash	69	stimuli_distractor_diamondtriangles.svg	stimuli_target_squaretriangles.svg	15	yes	53	1	940	0	0			0	0			1				0	
6.6.1	win	2023-06-02	05:27:23	06:03:25	2157655	6108d6efa698e3dbe3b313d3	4	1	main_slash	11	advance_on_keypress_SLASH	70	stimuli_distractor_diamondtriangles.svg	stimuli_target_squaretriangles.svg	15	yes	57	0	1364	0	0			0	0			1				0	
6.6.1	win	2023-06-02	05:27:23	06:03:27	2160259	6108d6efa698e3dbe3b313d3	4	1	main_slash	11	main_slash	71	stimuli_target_rectangletriangles.svg	stimuli_distractor_diamondtriangles.svg	5	yes	53	1	597	0	0			0	0			1				0	
6.6.1	win	2023-06-02	05:27:23	06:03:27	2160259	6108d6efa698e3dbe3b313d3	4	1	main_slash	11	advance_on_keypress_SLASH	72	stimuli_target_rectangletriangles.svg	stimuli_distractor_diamondtriangles.svg	5	yes	57	0	457	0	0			0	0			1				0	
6.6.1	win	2023-06-02	05:27:23	06:03:29	2162139	6108d6efa698e3dbe3b313d3	4	1	main_slash	11	main_slash	73	stimuli_target_squarediamonds.svg	stimuli_distractor_diamondtriangles.svg	8	yes	53	1	778	0	0			0	0			1				0	
6.6.1	win	2023-06-02	05:27:23	06:03:29	2162139	6108d6efa698e3dbe3b313d3	4	1	main_slash	11	advance_on_keypress_SLASH	74	stimuli_target_squarediamonds.svg	stimuli_distractor_diamondtriangles.svg	8	yes	57	0	398	0	0			0	0			1				0	
6.6.1	win	2023-06-02	05:27:23	06:03:31	2163871	6108d6efa698e3dbe3b313d3	4	1	main_slash	11	main_slash	75	stimuli_distractor_trianglediamonds.svg	stimuli_target_diamondsquares.svg	28	yes	53	1	695	0	0			0	0			1				0	
6.6.1	win	2023-06-02	05:27:23	06:03:31	2163871	6108d6efa698e3dbe3b313d3	4	1	main_slash	11	advance_on_keypress_SLASH	76	stimuli_distractor_trianglediamonds.svg	stimuli_target_diamondsquares.svg	28	yes	57	0	398	0	0			0	0			1				0	
6.6.1	win	2023-06-02	05:27:23	06:03:33	2165675	6108d6efa698e3dbe3b313d3	4	1	main_slash	11	main_slash	77	stimuli_distractor_diamondtriangles.svg	stimuli_distractor_diamondtriangles.svg	40	no	53	0	766	0	0			0	0			1				0	
6.6.1	win	2023-06-02	05:27:23	06:03:33	2165675	6108d6efa698e3dbe3b313d3	4	1	main_slash	11	advance_on_keypress_SLASH	78	stimuli_distractor_diamondtriangles.svg	stimuli_distractor_diamondtriangles.svg	40	no	57	0	423	0	0			0	0			1				0	
6.6.1	win	2023-06-02	05:27:23	06:03:34	2167407	6108d6efa698e3dbe3b313d3	4	1	main_slash	11	main_slash	79	stimuli_distractor_trianglediamonds.svg	stimuli_target_rectangletriangles.svg	9	yes	53	1	665	0	0			0	0			1				0	
6.6.1	win	2023-06-02	05:27:23	06:03:34	2167407	6108d6efa698e3dbe3b313d3	4	1	main_slash	11	advance_on_keypress_SLASH	80	stimuli_distractor_trianglediamonds.svg	stimuli_target_rectangletriangles.svg	9	yes	57	0	484	0	0			0	0			1				0	
6.6.1	win	2023-06-02	05:27:23	06:03:36	2169348	6108d6efa698e3dbe3b313d3	4	1	main_slash	11	main_slash	81	stimuli_distractor_diamondtriangles.svg	stimuli_target_diamondrectangles.svg	31	yes	53	1	807	0	0			0	0			1				0	
6.6.1	win	2023-06-02	05:27:23	06:03:36	2169348	6108d6efa698e3dbe3b313d3	4	1	main_slash	11	advance_on_keypress_SLASH	82	stimuli_distractor_diamondtriangles.svg	stimuli_target_diamondrectangles.svg	31	yes	57	0	373	0	0			0	0			1				0	
6.6.1	win	2023-06-02	05:27:23	06:03:38	2171096	6108d6efa698e3dbe3b313d3	4	1	main_slash	11	main_slash	83	stimuli_distractor_trianglediamonds.svg	stimuli_target_rectangletriangles.svg	9	yes	53	1	740	0	0			0	0			1				0	
6.6.1	win	2023-06-02	05:27:23	06:03:38	2171096	6108d6efa698e3dbe3b313d3	4	1	main_slash	11	advance_on_keypress_SLASH	84	stimuli_distractor_trianglediamonds.svg	stimuli_target_rectangletriangles.svg	9	yes	57	0	406	0	0			0	0			1				0	
6.6.1	win	2023-06-02	05:27:23	06:03:40	2172883	6108d6efa698e3dbe3b313d3	4	1	main_slash	11	main_slash	85	stimuli_distractor_trianglediamonds.svg	stimuli_target_diamondsquares.svg	28	yes	53	1	746	0	0			0	0			1				0	
6.6.1	win	2023-06-02	05:27:23	06:03:40	2172883	6108d6efa698e3dbe3b313d3	4	1	main_slash	11	advance_on_keypress_SLASH	86	stimuli_distractor_trianglediamonds.svg	stimuli_target_diamondsquares.svg	28	yes	57	0	380	0	0			0	0			1				0	
6.6.1	win	2023-06-02	05:27:23	06:03:43	2175920	6108d6efa698e3dbe3b313d3	4	1	main_slash	11	main_slash	87	stimuli_distractor_trianglediamonds.svg	stimuli_target_trianglerectangles.svg	25	yes	0	0	2000	0	0			0	0			1				0	
6.6.1	win	2023-06-02	05:27:23	06:03:43	2175920	6108d6efa698e3dbe3b313d3	4	1	main_slash	11	advance_on_keypress_SLASH	88	stimuli_distractor_trianglediamonds.svg	stimuli_target_trianglerectangles.svg	25	yes	57	0	491	0	0			0	0			1				0	
6.6.1	win	2023-06-02	05:27:23	06:03:45	2177710	6108d6efa698e3dbe3b313d3	4	1	main_slash	11	main_slash	89	stimuli_distractor_trianglediamonds.svg	stimuli_target_rectanglediamonds.svg	10	yes	53	1	658	0	0			0	0			1				0	
6.6.1	win	2023-06-02	05:27:23	06:03:45	2177710	6108d6efa698e3dbe3b313d3	4	1	main_slash	11	advance_on_keypress_SLASH	90	stimuli_distractor_trianglediamonds.svg	stimuli_target_rectanglediamonds.svg	10	yes	57	0	481	0	0			0	0			1				0	
6.6.1	win	2023-06-02	05:27:23	06:03:48	2180833	6108d6efa698e3dbe3b313d3	4	1	main_slash	11	main_slash	91	stimuli_target_trianglesquares.svg	stimuli_distractor_trianglediamonds.svg	18	yes	0	0	2000	0	0			0	0			1				0	
6.6.1	win	2023-06-02	05:27:23	06:03:48	2180833	6108d6efa698e3dbe3b313d3	4	1	main_slash	11	advance_on_keypress_SLASH	92	stimuli_target_trianglesquares.svg	stimuli_distractor_trianglediamonds.svg	18	yes	57	0	417	0	0			0	0			1				0	
6.6.1	win	2023-06-02	05:27:23	06:03:49	2182556	6108d6efa698e3dbe3b313d3	4	1	main_slash	11	main_slash	93	stimuli_target_trianglerectangles.svg	stimuli_distractor_diamondtriangles.svg	21	yes	53	1	658	0	0			0	0			1				0	
6.6.1	win	2023-06-02	05:27:23	06:03:49	2182556	6108d6efa698e3dbe3b313d3	4	1	main_slash	11	advance_on_keypress_SLASH	94	stimuli_target_trianglerectangles.svg	stimuli_distractor_diamondtriangles.svg	21	yes	57	0	429	0	0			0	0			1				0	
6.6.1	win	2023-06-02	05:27:23	06:03:52	2184803	6108d6efa698e3dbe3b313d3	4	1	main_slash	11	main_slash	95	stimuli_target_diamondsquares.svg	stimuli_distractor_diamondtriangles.svg	24	yes	53	1	1173	0	0			0	0			1				0	
6.6.1	win	2023-06-02	05:27:23	06:03:52	2184803	6108d6efa698e3dbe3b313d3	4	1	main_slash	11	advance_on_keypress_SLASH	96	stimuli_target_diamondsquares.svg	stimuli_distractor_diamondtriangles.svg	24	yes	57	0	444	0	0			0	0			1				0	
6.6.1	win	2023-06-02	05:27:23	06:03:53	2186555	6108d6efa698e3dbe3b313d3	4	1	main_slash	11	main_slash	97	stimuli_distractor_diamondtriangles.svg	stimuli_target_rectangletriangles.svg	13	yes	53	1	676	0	0			0	0			1				0	
6.6.1	win	2023-06-02	05:27:23	06:03:53	2186555	6108d6efa698e3dbe3b313d3	4	1	main_slash	11	advance_on_keypress_SLASH	98	stimuli_distractor_diamondtriangles.svg	stimuli_target_rectangletriangles.svg	13	yes	57	0	462	0	0			0	0			1				0	
6.6.1	win	2023-06-02	05:27:23	06:03:55	2188374	6108d6efa698e3dbe3b313d3	4	1	main_slash	11	main_slash	99	stimuli_distractor_trianglediamonds.svg	stimuli_target_squaretriangles.svg	11	yes	53	1	729	0	0			0	0			1				0	
6.6.1	win	2023-06-02	05:27:23	06:03:55	2188374	6108d6efa698e3dbe3b313d3	4	1	main_slash	11	advance_on_keypress_SLASH	100	stimuli_distractor_trianglediamonds.svg	stimuli_target_squaretriangles.svg	11	yes	57	0	361	0	0			0	0			1				0	
6.6.1	win	2023-06-02	05:27:23	06:03:57	2189940	6108d6efa698e3dbe3b313d3	4	1	main_slash	11	main_slash	101	stimuli_distractor_trianglediamonds.svg	stimuli_target_squarediamonds.svg	12	yes	53	1	563	0	0			0	0			1				0	
6.6.1	win	2023-06-02	05:27:23	06:03:57	2189940	6108d6efa698e3dbe3b313d3	4	1	main_slash	11	advance_on_keypress_SLASH	102	stimuli_distractor_trianglediamonds.svg	stimuli_target_squarediamonds.svg	12	yes	57	0	357	0	0			0	0			1				0	
6.6.1	win	2023-06-02	05:27:23	06:03:59	2191581	6108d6efa698e3dbe3b313d3	4	1	main_slash	11	main_slash	103	stimuli_target_squaretriangles.svg	stimuli_distractor_diamondtriangles.svg	7	yes	53	1	638	0	0			0	0			1				0	
6.6.1	win	2023-06-02	05:27:23	06:03:59	2191581	6108d6efa698e3dbe3b313d3	4	1	main_slash	11	advance_on_keypress_SLASH	104	stimuli_target_squaretriangles.svg	stimuli_distractor_diamondtriangles.svg	7	yes	57	0	436	0	0			0	0			1				0	
6.6.1	win	2023-06-02	05:27:23	06:04:00	2193281	6108d6efa698e3dbe3b313d3	4	1	main_slash	11	main_slash	105	stimuli_distractor_diamondtriangles.svg	stimuli_target_rectanglediamonds.svg	14	yes	53	1	623	0	0			0	0			1				0	
6.6.1	win	2023-06-02	05:27:23	06:04:00	2193281	6108d6efa698e3dbe3b313d3	4	1	main_slash	11	advance_on_keypress_SLASH	106	stimuli_distractor_diamondtriangles.svg	stimuli_target_rectanglediamonds.svg	14	yes	57	0	520	0	0			0	0			1				0	
6.6.1	win	2023-06-02	05:27:23	06:04:02	2195352	6108d6efa698e3dbe3b313d3	4	1	main_slash	11	main_slash	107	stimuli_distractor_diamondtriangles.svg	stimuli_distractor_diamondtriangles.svg	40	no	53	0	911	0	0			0	0			1				0	
6.6.1	win	2023-06-02	05:27:23	06:04:02	2195352	6108d6efa698e3dbe3b313d3	4	1	main_slash	11	advance_on_keypress_SLASH	108	stimuli_distractor_diamondtriangles.svg	stimuli_distractor_diamondtriangles.svg	40	no	57	0	394	0	0			0	0			1				0	
6.6.1	win	2023-06-02	05:27:23	06:04:04	2197149	6108d6efa698e3dbe3b313d3	4	1	main_slash	11	main_slash	109	stimuli_distractor_diamondtriangles.svg	stimuli_distractor_trianglediamonds.svg	37	no	53	0	759	0	0			0	0			1				0	
6.6.1	win	2023-06-02	05:27:23	06:04:04	2197149	6108d6efa698e3dbe3b313d3	4	1	main_slash	11	advance_on_keypress_SLASH	110	stimuli_distractor_diamondtriangles.svg	stimuli_distractor_trianglediamonds.svg	37	no	57	0	402	0	0			0	0			1				0	
6.6.1	win	2023-06-02	05:27:23	06:04:06	2198818	6108d6efa698e3dbe3b313d3	4	1	main_slash	11	main_slash	111	stimuli_distractor_trianglediamonds.svg	stimuli_target_diamondrectangles.svg	27	yes	53	1	629	0	0			0	0			1				0	
6.6.1	win	2023-06-02	05:27:23	06:04:06	2198818	6108d6efa698e3dbe3b313d3	4	1	main_slash	11	advance_on_keypress_SLASH	112	stimuli_distractor_trianglediamonds.svg	stimuli_target_diamondrectangles.svg	27	yes	57	0	406	0	0			0	0			1				0	
6.6.1	win	2023-06-02	05:27:23	06:04:07	2200520	6108d6efa698e3dbe3b313d3	4	1	main_slash	11	main_slash	113	stimuli_target_trianglesquares.svg	stimuli_distractor_diamondtriangles.svg	22	yes	53	1	649	0	0			0	0			1				0	
6.6.1	win	2023-06-02	05:27:23	06:04:07	2200520	6108d6efa698e3dbe3b313d3	4	1	main_slash	11	advance_on_keypress_SLASH	114	stimuli_target_trianglesquares.svg	stimuli_distractor_diamondtriangles.svg	22	yes	57	0	397	0	0			0	0			1				0	
6.6.1	win	2023-06-02	05:27:23	06:04:09	2202195	6108d6efa698e3dbe3b313d3	4	1	main_slash	11	main_slash	115	stimuli_target_rectanglediamonds.svg	stimuli_distractor_trianglediamonds.svg	2	yes	53	1	626	0	0			0	0			1				0	
6.6.1	win	2023-06-02	05:27:23	06:04:09	2202195	6108d6efa698e3dbe3b313d3	4	1	main_slash	11	advance_on_keypress_SLASH	116	stimuli_target_rectanglediamonds.svg	stimuli_distractor_trianglediamonds.svg	2	yes	57	0	404	0	0			0	0			1				0	
6.6.1	win	2023-06-02	05:27:23	06:04:11	2204091	6108d6efa698e3dbe3b313d3	4	1	main_slash	11	main_slash	117	stimuli_distractor_trianglediamonds.svg	stimuli_target_trianglesquares.svg	26	yes	53	1	855	0	0			0	0			1				0	
6.6.1	win	2023-06-02	05:27:23	06:04:11	2204091	6108d6efa698e3dbe3b313d3	4	1	main_slash	11	advance_on_keypress_SLASH	118	stimuli_distractor_trianglediamonds.svg	stimuli_target_trianglesquares.svg	26	yes	57	0	1659	0	0			0	0			1				0	
6.6.1	win	2023-06-02	05:27:23	06:04:14	2207093	6108d6efa698e3dbe3b313d3	4	1	main_slash	11	main_slash	119	stimuli_distractor_diamondtriangles.svg	stimuli_distractor_diamondtriangles.svg	39	no	53	0	710	0	0			0	0			1				0	
6.6.1	win	2023-06-02	05:27:23	06:04:14	2207093	6108d6efa698e3dbe3b313d3	4	1	main_slash	11	advance_on_keypress_SLASH	120	stimuli_distractor_diamondtriangles.svg	stimuli_distractor_diamondtriangles.svg	39	no	57	0	341	0	0			0	0			1				0	
6.6.1	win	2023-06-02	05:27:23	06:04:16	2208864	6108d6efa698e3dbe3b313d3	4	1	main_slash	11	main_slash	121	stimuli_target_squarediamonds.svg	stimuli_distractor_diamondtriangles.svg	8	yes	53	1	798	0	0			0	0			1				0	
6.6.1	win	2023-06-02	05:27:23	06:04:16	2208864	6108d6efa698e3dbe3b313d3	4	1	main_slash	11	advance_on_keypress_SLASH	122	stimuli_target_squarediamonds.svg	stimuli_distractor_diamondtriangles.svg	8	yes	57	0	317	0	0			0	0			1				0	
6.6.1	win	2023-06-02	05:27:23	06:04:18	2210593	6108d6efa698e3dbe3b313d3	4	1	main_slash	11	main_slash	123	stimuli_distractor_diamondtriangles.svg	stimuli_target_squaretriangles.svg	15	yes	53	1	763	0	0			0	0			1				0	
6.6.1	win	2023-06-02	05:27:23	06:04:18	2210593	6108d6efa698e3dbe3b313d3	4	1	main_slash	11	advance_on_keypress_SLASH	124	stimuli_distractor_diamondtriangles.svg	stimuli_target_squaretriangles.svg	15	yes	57	0	294	0	0			0	0			1				0	
6.6.1	win	2023-06-02	05:27:23	06:04:19	2212189	6108d6efa698e3dbe3b313d3	4	1	main_slash	11	main_slash	125	stimuli_target_rectangletriangles.svg	stimuli_distractor_diamondtriangles.svg	5	yes	53	1	660	0	0			0	0			1				0	
6.6.1	win	2023-06-02	05:27:23	06:04:19	2212189	6108d6efa698e3dbe3b313d3	4	1	main_slash	11	advance_on_keypress_SLASH	126	stimuli_target_rectangletriangles.svg	stimuli_distractor_diamondtriangles.svg	5	yes	57	0	331	0	0			0	0			1				0	
6.6.1	win	2023-06-02	05:27:23	06:04:21	2213874	6108d6efa698e3dbe3b313d3	4	1	main_slash	11	main_slash	127	stimuli_target_diamondsquares.svg	stimuli_distractor_trianglediamonds.svg	20	yes	53	1	712	0	0			0	0			1				0	
6.6.1	win	2023-06-02	05:27:23	06:04:21	2213874	6108d6efa698e3dbe3b313d3	4	1	main_slash	11	advance_on_keypress_SLASH	128	stimuli_target_diamondsquares.svg	stimuli_distractor_trianglediamonds.svg	20	yes	57	0	218	0	0			0	0			1				0	
6.6.1	win	2023-06-02	05:27:23	06:04:22	2215405	6108d6efa698e3dbe3b313d3	4	1	main_slash	11	main_slash	129	stimuli_target_rectanglediamonds.svg	stimuli_distractor_diamondtriangles.svg	6	yes	53	1	660	0	0			0	0			1				0	
6.6.1	win	2023-06-02	05:27:23	06:04:22	2215405	6108d6efa698e3dbe3b313d3	4	1	main_slash	11	advance_on_keypress_SLASH	130	stimuli_target_rectanglediamonds.svg	stimuli_distractor_diamondtriangles.svg	6	yes	57	0	269	0	0			0	0			1				0	
6.6.1	win	2023-06-02	05:27:23	06:04:24	2217083	6108d6efa698e3dbe3b313d3	4	1	main_slash	11	main_slash	131	stimuli_distractor_trianglediamonds.svg	stimuli_distractor_diamondtriangles.svg	36	no	53	0	773	0	0			0	0			1				0	
6.6.1	win	2023-06-02	05:27:23	06:04:24	2217083	6108d6efa698e3dbe3b313d3	4	1	main_slash	11	advance_on_keypress_SLASH	132	stimuli_distractor_trianglediamonds.svg	stimuli_distractor_diamondtriangles.svg	36	no	57	0	269	0	0			0	0			1				0	
6.6.1	win	2023-06-02	05:27:23	06:04:26	2218695	6108d6efa698e3dbe3b313d3	4	1	main_slash	11	main_slash	133	stimuli_distractor_diamondtriangles.svg	stimuli_distractor_trianglediamonds.svg	38	no	53	0	703	0	0			0	0			1				0	
6.6.1	win	2023-06-02	05:27:23	06:04:26	2218695	6108d6efa698e3dbe3b313d3	4	1	main_slash	11	advance_on_keypress_SLASH	134	stimuli_distractor_diamondtriangles.svg	stimuli_distractor_trianglediamonds.svg	38	no	57	0	278	0	0			0	0			1				0	
6.6.1	win	2023-06-02	05:27:23	06:04:29	2221608	6108d6efa698e3dbe3b313d3	4	1	main_slash	11	main_slash	135	stimuli_distractor_trianglediamonds.svg	stimuli_distractor_trianglediamonds.svg	34	no	0	1	2000	0	0			0	0			1				0	
6.6.1	win	2023-06-02	05:27:23	06:04:29	2221608	6108d6efa698e3dbe3b313d3	4	1	main_slash	11	advance_on_keypress_SLASH	136	stimuli_distractor_trianglediamonds.svg	stimuli_distractor_trianglediamonds.svg	34	no	57	0	290	0	0			0	0			1				0	
6.6.1	win	2023-06-02	05:27:23	06:04:30	2223173	6108d6efa698e3dbe3b313d3	4	1	main_slash	11	main_slash	137	stimuli_target_rectangletriangles.svg	stimuli_distractor_trianglediamonds.svg	1	yes	53	1	633	0	0			0	0			1				0	
6.6.1	win	2023-06-02	05:27:23	06:04:30	2223173	6108d6efa698e3dbe3b313d3	4	1	main_slash	11	advance_on_keypress_SLASH	138	stimuli_target_rectangletriangles.svg	stimuli_distractor_trianglediamonds.svg	1	yes	57	0	589	0	0			0	0			1				0	
6.6.1	win	2023-06-02	05:27:23	06:04:32	2225110	6108d6efa698e3dbe3b313d3	4	1	main_slash	11	main_slash	139	stimuli_distractor_diamondtriangles.svg	stimuli_target_diamondsquares.svg	32	yes	53	1	706	0	0			0	0			1				0	
6.6.1	win	2023-06-02	05:27:23	06:04:32	2225110	6108d6efa698e3dbe3b313d3	4	1	main_slash	11	advance_on_keypress_SLASH	140	stimuli_distractor_diamondtriangles.svg	stimuli_target_diamondsquares.svg	32	yes	57	0	341	0	0			0	0			1				0	
6.6.1	win	2023-06-02	05:27:23	06:04:34	2226725	6108d6efa698e3dbe3b313d3	4	1	main_slash	11	main_slash	141	stimuli_target_diamondrectangles.svg	stimuli_distractor_trianglediamonds.svg	19	yes	53	1	638	0	0			0	0			1				0	
6.6.1	win	2023-06-02	05:27:23	06:04:34	2226725	6108d6efa698e3dbe3b313d3	4	1	main_slash	11	advance_on_keypress_SLASH	142	stimuli_target_diamondrectangles.svg	stimuli_distractor_trianglediamonds.svg	19	yes	57	0	347	0	0			0	0			1				0	
6.6.1	win	2023-06-02	05:27:23	06:04:35	2228398	6108d6efa698e3dbe3b313d3	4	1	main_slash	11	main_slash	143	stimuli_distractor_diamondtriangles.svg	stimuli_target_trianglerectangles.svg	29	yes	53	1	678	0	0			0	0			1				0	
6.6.1	win	2023-06-02	05:27:23	06:04:35	2228398	6108d6efa698e3dbe3b313d3	4	1	main_slash	11	advance_on_keypress_SLASH	144	stimuli_distractor_diamondtriangles.svg	stimuli_target_trianglerectangles.svg	29	yes	57	0	324	0	0			0	0			1				0	
6.6.1	win	2023-06-02	05:27:23	06:04:37	2229985	6108d6efa698e3dbe3b313d3	4	1	main_slash	11	main_slash	145	stimuli_target_squaretriangles.svg	stimuli_distractor_trianglediamonds.svg	3	yes	53	1	617	0	0			0	0			1				0	
6.6.1	win	2023-06-02	05:27:23	06:04:37	2229985	6108d6efa698e3dbe3b313d3	4	1	main_slash	11	advance_on_keypress_SLASH	146	stimuli_target_squaretriangles.svg	stimuli_distractor_trianglediamonds.svg	3	yes	57	0	354	0	0			0	0			1				0	
6.6.1	win	2023-06-02	05:27:23	06:04:39	2231674	6108d6efa698e3dbe3b313d3	4	1	main_slash	11	main_slash	147	stimuli_target_squarediamonds.svg	stimuli_distractor_trianglediamonds.svg	4	yes	53	1	691	0	0			0	0			1				0	
6.6.1	win	2023-06-02	05:27:23	06:04:39	2231674	6108d6efa698e3dbe3b313d3	4	1	main_slash	11	advance_on_keypress_SLASH	148	stimuli_target_squarediamonds.svg	stimuli_distractor_trianglediamonds.svg	4	yes	57	0	302	0	0			0	0			1				0	
6.6.1	win	2023-06-02	05:27:23	06:04:40	2233426	6108d6efa698e3dbe3b313d3	4	1	main_slash	11	main_slash	149	stimuli_distractor_trianglediamonds.svg	stimuli_distractor_diamondtriangles.svg	35	no	53	0	809	0	0			0	0			1				0	
6.6.1	win	2023-06-02	05:27:23	06:04:40	2233426	6108d6efa698e3dbe3b313d3	4	1	main_slash	11	advance_on_keypress_SLASH	150	stimuli_distractor_trianglediamonds.svg	stimuli_distractor_diamondtriangles.svg	35	no	57	0	426	0	0			0	0			1				0	
6.6.1	win	2023-06-02	05:27:23	06:04:42	2235113	6108d6efa698e3dbe3b313d3	4	1	main_slash	11	main_slash	151	stimuli_distractor_diamondtriangles.svg	stimuli_target_trianglesquares.svg	30	yes	53	1	631	0	0			0	0			1				0	
6.6.1	win	2023-06-02	05:27:23	06:04:42	2235113	6108d6efa698e3dbe3b313d3	4	1	main_slash	11	advance_on_keypress_SLASH	152	stimuli_distractor_diamondtriangles.svg	stimuli_target_trianglesquares.svg	30	yes	57	0	252	0	0			0	0			1				0	
6.6.1	win	2023-06-02	05:27:23	06:04:45	2238013	6108d6efa698e3dbe3b313d3	4	1	main_slash	11	main_slash	153	stimuli_target_trianglerectangles.svg	stimuli_distractor_trianglediamonds.svg	17	yes	0	0	2000	0	0			0	0			1				0	
6.6.1	win	2023-06-02	05:27:23	06:04:45	2238013	6108d6efa698e3dbe3b313d3	4	1	main_slash	11	advance_on_keypress_SLASH	154	stimuli_target_trianglerectangles.svg	stimuli_distractor_trianglediamonds.svg	17	yes	57	0	176	0	0			0	0			1				0	
6.6.1	win	2023-06-02	05:27:23	06:04:47	2239830	6108d6efa698e3dbe3b313d3	4	1	main_slash	11	main_slash	155	stimuli_distractor_diamondtriangles.svg	stimuli_target_squarediamonds.svg	16	yes	53	1	1001	0	0			0	0			1				0	
6.6.1	win	2023-06-02	05:27:23	06:04:47	2239830	6108d6efa698e3dbe3b313d3	4	1	main_slash	11	advance_on_keypress_SLASH	156	stimuli_distractor_diamondtriangles.svg	stimuli_target_squarediamonds.svg	16	yes	57	0	584	0	0			0	0			1				0	
6.6.1	win	2023-06-02	05:27:23	06:04:50	2243060	6108d6efa698e3dbe3b313d3	4	1	main_slash	11	main_slash	157	stimuli_distractor_trianglediamonds.svg	stimuli_distractor_trianglediamonds.svg	33	no	0	1	2000	0	0			0	0			1				0	
6.6.1	win	2023-06-02	05:27:23	06:04:50	2243060	6108d6efa698e3dbe3b313d3	4	1	main_slash	11	advance_on_keypress_SLASH	158	stimuli_distractor_trianglediamonds.svg	stimuli_distractor_trianglediamonds.svg	33	no	57	0	280	0	0			0	0			1				0	
6.6.1	win	2023-06-02	05:27:23	06:04:52	2244835	6108d6efa698e3dbe3b313d3	4	1	main_slash	11	main_slash	159	stimuli_target_diamondrectangles.svg	stimuli_distractor_diamondtriangles.svg	23	yes	53	1	843	0	0			0	0			1				0	
6.6.1	win	2023-06-02	05:27:23	06:04:52	2244835	6108d6efa698e3dbe3b313d3	4	1	main_slash	11	advance_on_keypress_SLASH	160	stimuli_target_diamondrectangles.svg	stimuli_distractor_diamondtriangles.svg	23	yes	57	0	381	0	0			0	0			1				0	
6.6.1	win	2023-06-02	05:27:23	06:04:52	2244835	6108d6efa698e3dbe3b313d3	4	1	headphonecheck_calibration	14	headphonecheck_calibrationIntro	1	stimuli_target_diamondrectangles.svg	stimuli_distractor_diamondtriangles.svg	23	yes	calibrationButton	0	12225	0	0			0	0			1				0	
6.6.1	win	2023-06-02	05:27:23	06:04:52	2244835	6108d6efa698e3dbe3b313d3	4	1	headphonecheck_testphase	15	test_collectResponse	3	stimuli_target_diamondrectangles.svg	stimuli_distractor_diamondtriangles.svg	23	yes	third	1	13674	1	6	antiphase_hc_ois.wav	3	0	0			1				0	
6.6.1	win	2023-06-02	05:27:23	06:04:52	2244835	6108d6efa698e3dbe3b313d3	4	1	headphonecheck_testphase	15	test_collectResponse	6	stimuli_target_diamondrectangles.svg	stimuli_distractor_diamondtriangles.svg	23	yes	first	1	1240	2	4	antiphase_hc_sio.wav	1	0	0			1				0	
6.6.1	win	2023-06-02	05:27:23	06:04:52	2244835	6108d6efa698e3dbe3b313d3	4	1	headphonecheck_testphase	15	test_collectResponse	9	stimuli_target_diamondrectangles.svg	stimuli_distractor_diamondtriangles.svg	23	yes	second	1	23104	3	1	antiphase_hc_iso.wav	2	0	0			1				0	
6.6.1	win	2023-06-02	05:27:23	06:04:52	2244835	6108d6efa698e3dbe3b313d3	4	1	headphonecheck_testphase	15	test_collectResponse	12	stimuli_target_diamondrectangles.svg	stimuli_distractor_diamondtriangles.svg	23	yes	third	1	514	4	2	antiphase_hc_ios.wav	3	0	0			1				0	
6.6.1	win	2023-06-02	05:27:23	06:04:52	2244835	6108d6efa698e3dbe3b313d3	4	1	headphonecheck_testphase	15	test_collectResponse	15	stimuli_target_diamondrectangles.svg	stimuli_distractor_diamondtriangles.svg	23	yes	second	1	4852	5	5	antiphase_hc_osi.wav	2	0	0			1				0	
6.6.1	win	2023-06-02	05:27:23	06:04:52	2244835	6108d6efa698e3dbe3b313d3	4	1	headphonecheck_testphase	15	test_collectResponse	18	stimuli_target_diamondrectangles.svg	stimuli_distractor_diamondtriangles.svg	23	yes	third	0	4165	6	3	antiphase_hc_soi.wav	1	0	0			1				0	
6.6.1	win	2023-06-02	05:27:23	06:04:52	2244835	6108d6efa698e3dbe3b313d3	4	1	stereocheck_calibration	17	stereocheck_calibrationIntro	1	stimuli_target_diamondrectangles.svg	stimuli_distractor_diamondtriangles.svg	23	yes	stereocheck_calibrationButton	0	13827	6	3	antiphase_hc_soi.wav	1	0	0			1				0	
6.6.1	win	2023-06-02	05:27:23	06:04:52	2244835	6108d6efa698e3dbe3b313d3	4	1	stereocheck_testphase	18	stereocheck_test_collectResponse	3	stimuli_target_diamondrectangles.svg	stimuli_distractor_diamondtriangles.svg	23	yes	stereocheck_left	1	376	6	3	antiphase_hc_soi.wav	1	1	3	noise_calib_stim_LEFT.wav	1	1				0	
6.6.1	win	2023-06-02	05:27:23	06:04:52	2244835	6108d6efa698e3dbe3b313d3	4	1	stereocheck_testphase	18	stereocheck_test_collectResponse	6	stimuli_target_diamondrectangles.svg	stimuli_distractor_diamondtriangles.svg	23	yes	stereocheck_left	1	378	6	3	antiphase_hc_soi.wav	1	2	1	noise_calib_stim_LEFT.wav	1	1				0	
6.6.1	win	2023-06-02	05:27:23	06:04:52	2244835	6108d6efa698e3dbe3b313d3	4	1	stereocheck_testphase	18	stereocheck_test_collectResponse	9	stimuli_target_diamondrectangles.svg	stimuli_distractor_diamondtriangles.svg	23	yes	stereocheck_right	1	319	6	3	antiphase_hc_soi.wav	1	3	6	noise_calib_stim_RIGHT.wav	2	1				0	
6.6.1	win	2023-06-02	05:27:23	06:04:52	2244835	6108d6efa698e3dbe3b313d3	4	1	stereocheck_testphase	18	stereocheck_test_collectResponse	12	stimuli_target_diamondrectangles.svg	stimuli_distractor_diamondtriangles.svg	23	yes	stereocheck_right	1	334	6	3	antiphase_hc_soi.wav	1	4	5	noise_calib_stim_RIGHT.wav	2	1				0	
6.6.1	win	2023-06-02	05:27:23	06:04:52	2244835	6108d6efa698e3dbe3b313d3	4	1	stereocheck_testphase	18	stereocheck_test_collectResponse	15	stimuli_target_diamondrectangles.svg	stimuli_distractor_diamondtriangles.svg	23	yes	stereocheck_right	1	76	6	3	antiphase_hc_soi.wav	1	5	4	noise_calib_stim_RIGHT.wav	2	1				0	
6.6.1	win	2023-06-02	05:27:23	06:04:52	2244835	6108d6efa698e3dbe3b313d3	4	1	stereocheck_testphase	18	stereocheck_test_collectResponse	18	stimuli_target_diamondrectangles.svg	stimuli_distractor_diamondtriangles.svg	23	yes	stereocheck_left	1	404	6	3	antiphase_hc_soi.wav	1	6	2	noise_calib_stim_LEFT.wav	1	1				0	
6.6.1	win	2023-06-02	05:27:23	06:04:52	2244835	6108d6efa698e3dbe3b313d3	4	1	DL_practice	21	DL_practice	2	stimuli_target_diamondrectangles.svg	stimuli_distractor_diamondtriangles.svg	23	yes	da	1	1461	6	3	antiphase_hc_soi.wav	1	6	2	noise_calib_stim_LEFT.wav	1	8	blb_dichoticlistening_da-da.mp3	da	da	0	left
6.6.1	win	2023-06-02	05:27:23	06:04:52	2244835	6108d6efa698e3dbe3b313d3	4	1	DL_practice	21	DL_practice	3	stimuli_target_diamondrectangles.svg	stimuli_distractor_diamondtriangles.svg	23	yes	da	0	2711	6	3	antiphase_hc_soi.wav	1	6	2	noise_calib_stim_LEFT.wav	1	18	blb_dichoticlistening_ga-ta.mp3	ga	ta	1	other
6.6.1	win	2023-06-02	05:27:23	06:04:52	2244835	6108d6efa698e3dbe3b313d3	4	1	DL_practice	21	DL_practice	4	stimuli_target_diamondrectangles.svg	stimuli_distractor_diamondtriangles.svg	23	yes	ka	0	1994	6	3	antiphase_hc_soi.wav	1	6	2	noise_calib_stim_LEFT.wav	1	15	blb_dichoticlistening_ga-ga.mp3	ga	ga	0	other
6.6.1	win	2023-06-02	05:27:23	06:04:52	2244835	6108d6efa698e3dbe3b313d3	4	1	DL_practice	21	DL_practice	5	stimuli_target_diamondrectangles.svg	stimuli_distractor_diamondtriangles.svg	23	yes	pa	0	2534	6	3	antiphase_hc_soi.wav	1	6	2	noise_calib_stim_LEFT.wav	1	1	blb_dichoticlistening_ba-ba.mp3	ba	ba	0	other
6.6.1	win	2023-06-02	05:27:23	06:04:52	2244835	6108d6efa698e3dbe3b313d3	4	1	DL_practice	21	DL_practice	6	stimuli_target_diamondrectangles.svg	stimuli_distractor_diamondtriangles.svg	23	yes	ka	1	1206	6	3	antiphase_hc_soi.wav	1	6	2	noise_calib_stim_LEFT.wav	1	22	blb_dichoticlistening_ka-ka.mp3	ka	ka	0	left
6.6.1	win	2023-06-02	05:27:23	06:04:52	2244835	6108d6efa698e3dbe3b313d3	4	1	DL_practice	21	DL_practice	7	stimuli_target_diamondrectangles.svg	stimuli_distractor_diamondtriangles.svg	23	yes	ta	1	2212	6	3	antiphase_hc_soi.wav	1	6	2	noise_calib_stim_LEFT.wav	1	36	blb_dichoticlistening_ta-ta.mp3	ta	ta	0	left
6.6.1	win	2023-06-02	05:27:23	06:04:52	2244835	6108d6efa698e3dbe3b313d3	4	1	DL_practice	21	DL_practice	8	stimuli_target_diamondrectangles.svg	stimuli_distractor_diamondtriangles.svg	23	yes	ta	0	5601	6	3	antiphase_hc_soi.wav	1	6	2	noise_calib_stim_LEFT.wav	1	7	blb_dichoticlistening_da-ba.mp3	da	ba	1	other
6.6.1	win	2023-06-02	05:27:23	06:04:52	2244835	6108d6efa698e3dbe3b313d3	4	1	DL_practice	21	DL_practice	9	stimuli_target_diamondrectangles.svg	stimuli_distractor_diamondtriangles.svg	23	yes	ba	0	305	6	3	antiphase_hc_soi.wav	1	6	2	noise_calib_stim_LEFT.wav	1	23	blb_dichoticlistening_ka-pa.mp3	ka	pa	1	other
6.6.1	win	2023-06-02	05:27:23	06:04:52	2244835	6108d6efa698e3dbe3b313d3	4	1	DL_practice	21	DL_practice	10	stimuli_target_diamondrectangles.svg	stimuli_distractor_diamondtriangles.svg	23	yes	pa	1	1576	6	3	antiphase_hc_soi.wav	1	6	2	noise_calib_stim_LEFT.wav	1	29	blb_dichoticlistening_pa-pa.mp3	pa	pa	0	left
6.6.1	win	2023-06-02	05:27:23	06:04:52	2244835	6108d6efa698e3dbe3b313d3	4	1	DL_test	23	DL_test	1	stimuli_target_diamondrectangles.svg	stimuli_distractor_diamondtriangles.svg	23	yes	ka	1	1817	6	3	antiphase_hc_soi.wav	1	6	2	noise_calib_stim_LEFT.wav	1	24	blb_dichoticlistening_ka-ta.mp3	ka	ta	1	left
6.6.1	win	2023-06-02	05:27:23	06:04:52	2244835	6108d6efa698e3dbe3b313d3	4	1	DL_test	23	DL_test	2	stimuli_target_diamondrectangles.svg	stimuli_distractor_diamondtriangles.svg	23	yes	ka	1	1926	6	3	antiphase_hc_soi.wav	1	6	2	noise_calib_stim_LEFT.wav	1	34	blb_dichoticlistening_ta-ka.mp3	ta	ka	1	right
6.6.1	win	2023-06-02	05:27:23	06:04:52	2244835	6108d6efa698e3dbe3b313d3	4	1	DL_test	23	DL_test	3	stimuli_target_diamondrectangles.svg	stimuli_distractor_diamondtriangles.svg	23	yes	da	0	2592	6	3	antiphase_hc_soi.wav	1	6	2	noise_calib_stim_LEFT.wav	1	27	blb_dichoticlistening_pa-ga.mp3	pa	ga	1	other
6.6.1	win	2023-06-02	05:27:23	06:04:52	2244835	6108d6efa698e3dbe3b313d3	4	1	DL_test	23	DL_test	4	stimuli_target_diamondrectangles.svg	stimuli_distractor_diamondtriangles.svg	23	yes	ga	1	2044	6	3	antiphase_hc_soi.wav	1	6	2	noise_calib_stim_LEFT.wav	1	3	blb_dichoticlistening_ba-ga.mp3	ba	ga	1	right
6.6.1	win	2023-06-02	05:27:23	06:04:52	2244835	6108d6efa698e3dbe3b313d3	4	1	DL_test	23	DL_test	5	stimuli_target_diamondrectangles.svg	stimuli_distractor_diamondtriangles.svg	23	yes	pa	0	1827	6	3	antiphase_hc_soi.wav	1	6	2	noise_calib_stim_LEFT.wav	1	31	blb_dichoticlistening_ta-ba.mp3	ta	ba	1	other
6.6.1	win	2023-06-02	05:27:23	06:04:52	2244835	6108d6efa698e3dbe3b313d3	4	1	DL_test	23	DL_test	6	stimuli_target_diamondrectangles.svg	stimuli_distractor_diamondtriangles.svg	23	yes	da	0	3813	6	3	antiphase_hc_soi.wav	1	6	2	noise_calib_stim_LEFT.wav	1	18	blb_dichoticlistening_ga-ta.mp3	ga	ta	1	other
6.6.1	win	2023-06-02	05:27:23	06:04:52	2244835	6108d6efa698e3dbe3b313d3	4	1	DL_test	23	DL_test	7	stimuli_target_diamondrectangles.svg	stimuli_distractor_diamondtriangles.svg	23	yes	ga	1	1800	6	3	antiphase_hc_soi.wav	1	6	2	noise_calib_stim_LEFT.wav	1	15	blb_dichoticlistening_ga-ga.mp3	ga	ga	0	left
6.6.1	win	2023-06-02	05:27:23	06:04:52	2244835	6108d6efa698e3dbe3b313d3	4	1	DL_test	23	DL_test	8	stimuli_target_diamondrectangles.svg	stimuli_distractor_diamondtriangles.svg	23	yes	da	1	2243	6	3	antiphase_hc_soi.wav	1	6	2	noise_calib_stim_LEFT.wav	1	14	blb_dichoticlistening_ga-da.mp3	ga	da	1	right
6.6.1	win	2023-06-02	05:27:23	06:04:52	2244835	6108d6efa698e3dbe3b313d3	4	1	DL_test	23	DL_test	9	stimuli_target_diamondrectangles.svg	stimuli_distractor_diamondtriangles.svg	23	yes	pa	1	1480	6	3	antiphase_hc_soi.wav	1	6	2	noise_calib_stim_LEFT.wav	1	11	blb_dichoticlistening_da-pa.mp3	da	pa	1	right
6.6.1	win	2023-06-02	05:27:23	06:04:52	2244835	6108d6efa698e3dbe3b313d3	4	1	DL_test	23	DL_test	10	stimuli_target_diamondrectangles.svg	stimuli_distractor_diamondtriangles.svg	23	yes	da	1	2651	6	3	antiphase_hc_soi.wav	1	6	2	noise_calib_stim_LEFT.wav	1	26	blb_dichoticlistening_pa-da.mp3	pa	da	1	right
6.6.1	win	2023-06-02	05:27:23	06:04:52	2244835	6108d6efa698e3dbe3b313d3	4	1	DL_test	23	DL_test	11	stimuli_target_diamondrectangles.svg	stimuli_distractor_diamondtriangles.svg	23	yes	ka	0	1565	6	3	antiphase_hc_soi.wav	1	6	2	noise_calib_stim_LEFT.wav	1	6	blb_dichoticlistening_ba-ta.mp3	ba	ta	1	other
6.6.1	win	2023-06-02	05:27:23	06:04:52	2244835	6108d6efa698e3dbe3b313d3	4	1	DL_test	23	DL_test	12	stimuli_target_diamondrectangles.svg	stimuli_distractor_diamondtriangles.svg	23	yes	da	1	1478	6	3	antiphase_hc_soi.wav	1	6	2	noise_calib_stim_LEFT.wav	1	2	blb_dichoticlistening_ba-da.mp3	ba	da	1	right
6.6.1	win	2023-06-02	05:27:23	06:04:52	2244835	6108d6efa698e3dbe3b313d3	4	1	DL_test	23	DL_test	13	stimuli_target_diamondrectangles.svg	stimuli_distractor_diamondtriangles.svg	23	yes	ka	0	2554	6	3	antiphase_hc_soi.wav	1	6	2	noise_calib_stim_LEFT.wav	1	30	blb_dichoticlistening_pa-ta.mp3	pa	ta	1	other
6.6.1	win	2023-06-02	05:27:23	06:04:52	2244835	6108d6efa698e3dbe3b313d3	4	1	DL_test	23	DL_test	14	stimuli_target_diamondrectangles.svg	stimuli_distractor_diamondtriangles.svg	23	yes	pa	1	1433	6	3	antiphase_hc_soi.wav	1	6	2	noise_calib_stim_LEFT.wav	1	29	blb_dichoticlistening_pa-pa.mp3	pa	pa	0	left
6.6.1	win	2023-06-02	05:27:23	06:04:52	2244835	6108d6efa698e3dbe3b313d3	4	1	DL_test	23	DL_test	15	stimuli_target_diamondrectangles.svg	stimuli_distractor_diamondtriangles.svg	23	yes	pa	1	1168	6	3	antiphase_hc_soi.wav	1	6	2	noise_calib_stim_LEFT.wav	1	25	blb_dichoticlistening_pa-ba.mp3	pa	ba	1	left
6.6.1	win	2023-06-02	05:27:23	06:04:52	2244835	6108d6efa698e3dbe3b313d3	4	1	DL_test	23	DL_test	16	stimuli_target_diamondrectangles.svg	stimuli_distractor_diamondtriangles.svg	23	yes	pa	0	1161	6	3	antiphase_hc_soi.wav	1	6	2	noise_calib_stim_LEFT.wav	1	13	blb_dichoticlistening_ga-ba.mp3	ga	ba	1	other
6.6.1	win	2023-06-02	05:27:23	06:04:52	2244835	6108d6efa698e3dbe3b313d3	4	1	DL_test	23	DL_test	17	stimuli_target_diamondrectangles.svg	stimuli_distractor_diamondtriangles.svg	23	yes	ta	1	1636	6	3	antiphase_hc_soi.wav	1	6	2	noise_calib_stim_LEFT.wav	1	36	blb_dichoticlistening_ta-ta.mp3	ta	ta	0	left
6.6.1	win	2023-06-02	05:27:23	06:04:52	2244835	6108d6efa698e3dbe3b313d3	4	1	DL_test	23	DL_test	18	stimuli_target_diamondrectangles.svg	stimuli_distractor_diamondtriangles.svg	23	yes	da	1	1421	6	3	antiphase_hc_soi.wav	1	6	2	noise_calib_stim_LEFT.wav	1	9	blb_dichoticlistening_da-ga.mp3	da	ga	1	left
6.6.1	win	2023-06-02	05:27:23	06:04:52	2244835	6108d6efa698e3dbe3b313d3	4	1	DL_test	23	DL_test	19	stimuli_target_diamondrectangles.svg	stimuli_distractor_diamondtriangles.svg	23	yes	ka	1	1379	6	3	antiphase_hc_soi.wav	1	6	2	noise_calib_stim_LEFT.wav	1	28	blb_dichoticlistening_pa-ka.mp3	pa	ka	1	right
6.6.1	win	2023-06-02	05:27:23	06:04:52	2244835	6108d6efa698e3dbe3b313d3	4	1	DL_test	23	DL_test	20	stimuli_target_diamondrectangles.svg	stimuli_distractor_diamondtriangles.svg	23	yes	ka	1	1085	6	3	antiphase_hc_soi.wav	1	6	2	noise_calib_stim_LEFT.wav	1	4	blb_dichoticlistening_ba-ka.mp3	ba	ka	1	right
6.6.1	win	2023-06-02	05:27:23	06:04:52	2244835	6108d6efa698e3dbe3b313d3	4	1	DL_test	23	DL_test	21	stimuli_target_diamondrectangles.svg	stimuli_distractor_diamondtriangles.svg	23	yes	pa	1	1326	6	3	antiphase_hc_soi.wav	1	6	2	noise_calib_stim_LEFT.wav	1	5	blb_dichoticlistening_ba-pa.mp3	ba	pa	1	right
6.6.1	win	2023-06-02	05:27:23	06:04:52	2244835	6108d6efa698e3dbe3b313d3	4	1	DL_test	23	DL_test	22	stimuli_target_diamondrectangles.svg	stimuli_distractor_diamondtriangles.svg	23	yes	ga	1	1385	6	3	antiphase_hc_soi.wav	1	6	2	noise_calib_stim_LEFT.wav	1	21	blb_dichoticlistening_ka-ga.mp3	ka	ga	1	right
6.6.1	win	2023-06-02	05:27:23	06:04:52	2244835	6108d6efa698e3dbe3b313d3	4	1	DL_test	23	DL_test	23	stimuli_target_diamondrectangles.svg	stimuli_distractor_diamondtriangles.svg	23	yes	da	1	977	6	3	antiphase_hc_soi.wav	1	6	2	noise_calib_stim_LEFT.wav	1	8	blb_dichoticlistening_da-da.mp3	da	da	0	left
6.6.1	win	2023-06-02	05:27:23	06:04:52	2244835	6108d6efa698e3dbe3b313d3	4	1	DL_test	23	DL_test	24	stimuli_target_diamondrectangles.svg	stimuli_distractor_diamondtriangles.svg	23	yes	ka	1	1224	6	3	antiphase_hc_soi.wav	1	6	2	noise_calib_stim_LEFT.wav	1	16	blb_dichoticlistening_ga-ka.mp3	ga	ka	1	right
