build	computer.platform	date	time	timestamp	time_elapsed_ms	subject	group	session	blockcode	blocknum	trialcode	trialnum	stimulus_left	stimulus_right	stim_index	target_present	response	correct	latency	headphonecheck_countTestTrials	headphonecheck_index	headphonecheck_testSound	headphonecheck_correctResponse	stereocheck_countTestTrials	stereocheck_index	stereocheck_testSound	stereocheck_correctResponse	DL_index	DL_soundfile	DL_leftSound	DL_rightSound	DL_dualSound	DL_choice
6.6.1	win	2023-06-02	06:55:14	0	0	6272b9dfc470a51d5fa0e6ea	1	1	headphonecheck_calibration	4	headphonecheck_calibrationIntro	1			0		calibrationButton	0	2504	0	0			0	0			1				0	
6.6.1	win	2023-06-02	06:55:14	0	0	6272b9dfc470a51d5fa0e6ea	1	1	headphonecheck_testphase	5	test_collectResponse	3			0		second	0	448	1	2	antiphase_hc_ios.wav	3	0	0			1				0	
6.6.1	win	2023-06-02	06:55:14	0	0	6272b9dfc470a51d5fa0e6ea	1	1	headphonecheck_testphase	5	test_collectResponse	6			0		first	0	7340	2	5	antiphase_hc_osi.wav	2	0	0			1				0	
6.6.1	win	2023-06-02	06:55:14	0	0	6272b9dfc470a51d5fa0e6ea	1	1	headphonecheck_testphase	5	test_collectResponse	9			0		first	0	1750	3	6	antiphase_hc_ois.wav	3	0	0			1				0	
6.6.1	win	2023-06-02	06:55:14	0	0	6272b9dfc470a51d5fa0e6ea	1	1	headphonecheck_testphase	5	test_collectResponse	12			0		third	0	451	4	4	antiphase_hc_sio.wav	1	0	0			1				0	
6.6.1	win	2023-06-02	06:55:14	0	0	6272b9dfc470a51d5fa0e6ea	1	1	headphonecheck_testphase	5	test_collectResponse	15			0		third	0	501	5	1	antiphase_hc_iso.wav	2	0	0			1				0	
6.6.1	win	2023-06-02	06:55:14	0	0	6272b9dfc470a51d5fa0e6ea	1	1	headphonecheck_testphase	5	test_collectResponse	18			0		second	0	254	6	3	antiphase_hc_soi.wav	1	0	0			1				0	
6.6.1	win	2023-06-02	06:55:14	0	0	6272b9dfc470a51d5fa0e6ea	1	1	stereocheck_calibration	7	stereocheck_calibrationIntro	1			0		stereocheck_calibrationButton	0	4473	6	3	antiphase_hc_soi.wav	1	0	0			1				0	
6.6.1	win	2023-06-02	06:55:14	0	0	6272b9dfc470a51d5fa0e6ea	1	1	stereocheck_testphase	8	stereocheck_test_collectResponse	3			0		stereocheck_right	1	278	6	3	antiphase_hc_soi.wav	1	1	4	noise_calib_stim_RIGHT.wav	2	1				0	
6.6.1	win	2023-06-02	06:55:14	0	0	6272b9dfc470a51d5fa0e6ea	1	1	stereocheck_testphase	8	stereocheck_test_collectResponse	6			0		stereocheck_right	1	664	6	3	antiphase_hc_soi.wav	1	2	6	noise_calib_stim_RIGHT.wav	2	1				0	
6.6.1	win	2023-06-02	06:55:14	0	0	6272b9dfc470a51d5fa0e6ea	1	1	stereocheck_testphase	8	stereocheck_test_collectResponse	9			0		stereocheck_right	1	715	6	3	antiphase_hc_soi.wav	1	3	5	noise_calib_stim_RIGHT.wav	2	1				0	
6.6.1	win	2023-06-02	06:55:14	0	0	6272b9dfc470a51d5fa0e6ea	1	1	stereocheck_testphase	8	stereocheck_test_collectResponse	12			0		stereocheck_left	1	1477	6	3	antiphase_hc_soi.wav	1	4	2	noise_calib_stim_LEFT.wav	1	1				0	
6.6.1	win	2023-06-02	06:55:14	0	0	6272b9dfc470a51d5fa0e6ea	1	1	stereocheck_testphase	8	stereocheck_test_collectResponse	15			0		stereocheck_left	1	356	6	3	antiphase_hc_soi.wav	1	5	3	noise_calib_stim_LEFT.wav	1	1				0	
6.6.1	win	2023-06-02	06:55:14	0	0	6272b9dfc470a51d5fa0e6ea	1	1	stereocheck_testphase	8	stereocheck_test_collectResponse	18			0		stereocheck_left	1	1113	6	3	antiphase_hc_soi.wav	1	6	1	noise_calib_stim_LEFT.wav	1	1				0	
6.6.1	win	2023-06-02	06:55:14	0	0	6272b9dfc470a51d5fa0e6ea	1	1	DL_practice	11	DL_practice	2			0		ga	1	1414	6	3	antiphase_hc_soi.wav	1	6	1	noise_calib_stim_LEFT.wav	1	15	blb_dichoticlistening_ga-ga.mp3	ga	ga	0	left
6.6.1	win	2023-06-02	06:55:14	0	0	6272b9dfc470a51d5fa0e6ea	1	1	DL_practice	11	DL_practice	3			0		ka	1	1916	6	3	antiphase_hc_soi.wav	1	6	1	noise_calib_stim_LEFT.wav	1	23	blb_dichoticlistening_ka-pa.mp3	ka	pa	1	left
6.6.1	win	2023-06-02	06:55:14	0	0	6272b9dfc470a51d5fa0e6ea	1	1	DL_practice	11	DL_practice	4			0		ka	1	1277	6	3	antiphase_hc_soi.wav	1	6	1	noise_calib_stim_LEFT.wav	1	22	blb_dichoticlistening_ka-ka.mp3	ka	ka	0	left
6.6.1	win	2023-06-02	06:55:14	0	0	6272b9dfc470a51d5fa0e6ea	1	1	DL_practice	11	DL_practice	5			0		ba	1	1930	6	3	antiphase_hc_soi.wav	1	6	1	noise_calib_stim_LEFT.wav	1	7	blb_dichoticlistening_da-ba.mp3	da	ba	1	right
6.6.1	win	2023-06-02	06:55:14	0	0	6272b9dfc470a51d5fa0e6ea	1	1	DL_practice	11	DL_practice	6			0		pa	1	1491	6	3	antiphase_hc_soi.wav	1	6	1	noise_calib_stim_LEFT.wav	1	29	blb_dichoticlistening_pa-pa.mp3	pa	pa	0	left
6.6.1	win	2023-06-02	06:55:14	0	0	6272b9dfc470a51d5fa0e6ea	1	1	DL_practice	11	DL_practice	7			0		ba	1	1797	6	3	antiphase_hc_soi.wav	1	6	1	noise_calib_stim_LEFT.wav	1	1	blb_dichoticlistening_ba-ba.mp3	ba	ba	0	left
6.6.1	win	2023-06-02	06:55:14	0	0	6272b9dfc470a51d5fa0e6ea	1	1	DL_practice	11	DL_practice	8			0		ta	1	1602	6	3	antiphase_hc_soi.wav	1	6	1	noise_calib_stim_LEFT.wav	1	36	blb_dichoticlistening_ta-ta.mp3	ta	ta	0	left
6.6.1	win	2023-06-02	06:55:14	0	0	6272b9dfc470a51d5fa0e6ea	1	1	DL_practice	11	DL_practice	9			0		ga	1	1920	6	3	antiphase_hc_soi.wav	1	6	1	noise_calib_stim_LEFT.wav	1	18	blb_dichoticlistening_ga-ta.mp3	ga	ta	1	left
6.6.1	win	2023-06-02	06:55:14	0	0	6272b9dfc470a51d5fa0e6ea	1	1	DL_practice	11	DL_practice	10			0		da	1	1209	6	3	antiphase_hc_soi.wav	1	6	1	noise_calib_stim_LEFT.wav	1	8	blb_dichoticlistening_da-da.mp3	da	da	0	left
6.6.1	win	2023-06-02	06:55:14	0	0	6272b9dfc470a51d5fa0e6ea	1	1	DL_test	13	DL_test	1			0		ba	1	1320	6	3	antiphase_hc_soi.wav	1	6	1	noise_calib_stim_LEFT.wav	1	7	blb_dichoticlistening_da-ba.mp3	da	ba	1	right
6.6.1	win	2023-06-02	06:55:14	0	0	6272b9dfc470a51d5fa0e6ea	1	1	DL_test	13	DL_test	2			0		ba	1	1072	6	3	antiphase_hc_soi.wav	1	6	1	noise_calib_stim_LEFT.wav	1	19	blb_dichoticlistening_ka-ba.mp3	ka	ba	1	right
6.6.1	win	2023-06-02	06:55:14	0	0	6272b9dfc470a51d5fa0e6ea	1	1	DL_test	13	DL_test	3			0		da	1	836	6	3	antiphase_hc_soi.wav	1	6	1	noise_calib_stim_LEFT.wav	1	8	blb_dichoticlistening_da-da.mp3	da	da	0	left
6.6.1	win	2023-06-02	06:55:14	0	0	6272b9dfc470a51d5fa0e6ea	1	1	DL_test	13	DL_test	4			0		ga	1	1040	6	3	antiphase_hc_soi.wav	1	6	1	noise_calib_stim_LEFT.wav	1	21	blb_dichoticlistening_ka-ga.mp3	ka	ga	1	right
6.6.1	win	2023-06-02	06:55:14	0	0	6272b9dfc470a51d5fa0e6ea	1	1	DL_test	13	DL_test	5			0		ka	1	1372	6	3	antiphase_hc_soi.wav	1	6	1	noise_calib_stim_LEFT.wav	1	16	blb_dichoticlistening_ga-ka.mp3	ga	ka	1	right
6.6.1	win	2023-06-02	06:55:14	0	0	6272b9dfc470a51d5fa0e6ea	1	1	DL_test	13	DL_test	6			0		da	1	2546	6	3	antiphase_hc_soi.wav	1	6	1	noise_calib_stim_LEFT.wav	1	11	blb_dichoticlistening_da-pa.mp3	da	pa	1	left
6.6.1	win	2023-06-02	06:55:14	0	0	6272b9dfc470a51d5fa0e6ea	1	1	DL_test	13	DL_test	7			0		da	1	1914	6	3	antiphase_hc_soi.wav	1	6	1	noise_calib_stim_LEFT.wav	1	10	blb_dichoticlistening_da-ka.mp3	da	ka	1	left
6.6.1	win	2023-06-02	06:55:14	0	0	6272b9dfc470a51d5fa0e6ea	1	1	DL_test	13	DL_test	8			0		ka	1	1092	6	3	antiphase_hc_soi.wav	1	6	1	noise_calib_stim_LEFT.wav	1	22	blb_dichoticlistening_ka-ka.mp3	ka	ka	0	left
6.6.1	win	2023-06-02	06:55:14	0	0	6272b9dfc470a51d5fa0e6ea	1	1	DL_test	13	DL_test	9			0		pa	1	1383	6	3	antiphase_hc_soi.wav	1	6	1	noise_calib_stim_LEFT.wav	1	29	blb_dichoticlistening_pa-pa.mp3	pa	pa	0	left
6.6.1	win	2023-06-02	06:55:14	0	0	6272b9dfc470a51d5fa0e6ea	1	1	DL_test	13	DL_test	10			0		da	1	1061	6	3	antiphase_hc_soi.wav	1	6	1	noise_calib_stim_LEFT.wav	1	26	blb_dichoticlistening_pa-da.mp3	pa	da	1	right
6.6.1	win	2023-06-02	06:55:14	0	0	6272b9dfc470a51d5fa0e6ea	1	1	DL_test	13	DL_test	11			0		ga	1	1130	6	3	antiphase_hc_soi.wav	1	6	1	noise_calib_stim_LEFT.wav	1	27	blb_dichoticlistening_pa-ga.mp3	pa	ga	1	right
6.6.1	win	2023-06-02	06:55:14	0	0	6272b9dfc470a51d5fa0e6ea	1	1	DL_test	13	DL_test	12			0		ba	1	1450	6	3	antiphase_hc_soi.wav	1	6	1	noise_calib_stim_LEFT.wav	1	1	blb_dichoticlistening_ba-ba.mp3	ba	ba	0	left
6.6.1	win	2023-06-02	06:55:14	0	0	6272b9dfc470a51d5fa0e6ea	1	1	DL_test	13	DL_test	13			0		ga	1	1150	6	3	antiphase_hc_soi.wav	1	6	1	noise_calib_stim_LEFT.wav	1	33	blb_dichoticlistening_ta-ga.mp3	ta	ga	1	right
6.6.1	win	2023-06-02	06:55:14	0	0	6272b9dfc470a51d5fa0e6ea	1	1	DL_test	13	DL_test	14			0		ba	1	1728	6	3	antiphase_hc_soi.wav	1	6	1	noise_calib_stim_LEFT.wav	1	3	blb_dichoticlistening_ba-ga.mp3	ba	ga	1	left
6.6.1	win	2023-06-02	06:55:14	0	0	6272b9dfc470a51d5fa0e6ea	1	1	DL_test	13	DL_test	15			0		ka	1	1246	6	3	antiphase_hc_soi.wav	1	6	1	noise_calib_stim_LEFT.wav	1	34	blb_dichoticlistening_ta-ka.mp3	ta	ka	1	right
6.6.1	win	2023-06-02	06:55:14	0	0	6272b9dfc470a51d5fa0e6ea	1	1	DL_test	13	DL_test	16			0		ga	0	1619	6	3	antiphase_hc_soi.wav	1	6	1	noise_calib_stim_LEFT.wav	1	20	blb_dichoticlistening_ka-da.mp3	ka	da	1	other
6.6.1	win	2023-06-02	06:55:14	0	0	6272b9dfc470a51d5fa0e6ea	1	1	DL_test	13	DL_test	17			0		ba	1	3353	6	3	antiphase_hc_soi.wav	1	6	1	noise_calib_stim_LEFT.wav	1	5	blb_dichoticlistening_ba-pa.mp3	ba	pa	1	left
6.6.1	win	2023-06-02	06:55:14	0	0	6272b9dfc470a51d5fa0e6ea	1	1	DL_test	13	DL_test	18			0		ba	1	928	6	3	antiphase_hc_soi.wav	1	6	1	noise_calib_stim_LEFT.wav	1	25	blb_dichoticlistening_pa-ba.mp3	pa	ba	1	right
6.6.1	win	2023-06-02	06:55:14	0	0	6272b9dfc470a51d5fa0e6ea	1	1	DL_test	13	DL_test	19			0		ba	1	831	6	3	antiphase_hc_soi.wav	1	6	1	noise_calib_stim_LEFT.wav	1	13	blb_dichoticlistening_ga-ba.mp3	ga	ba	1	right
6.6.1	win	2023-06-02	06:55:14	0	0	6272b9dfc470a51d5fa0e6ea	1	1	DL_test	13	DL_test	20			0		ta	1	1652	6	3	antiphase_hc_soi.wav	1	6	1	noise_calib_stim_LEFT.wav	1	30	blb_dichoticlistening_pa-ta.mp3	pa	ta	1	right
6.6.1	win	2023-06-02	06:55:14	0	0	6272b9dfc470a51d5fa0e6ea	1	1	DL_test	13	DL_test	21			0		ka	1	1256	6	3	antiphase_hc_soi.wav	1	6	1	noise_calib_stim_LEFT.wav	1	28	blb_dichoticlistening_pa-ka.mp3	pa	ka	1	right
6.6.1	win	2023-06-02	06:55:14	0	0	6272b9dfc470a51d5fa0e6ea	1	1	DL_test	13	DL_test	22			0		ka	1	1196	6	3	antiphase_hc_soi.wav	1	6	1	noise_calib_stim_LEFT.wav	1	24	blb_dichoticlistening_ka-ta.mp3	ka	ta	1	left
6.6.1	win	2023-06-02	06:55:14	0	0	6272b9dfc470a51d5fa0e6ea	1	1	DL_test	13	DL_test	23			0		ta	0	2194	6	3	antiphase_hc_soi.wav	1	6	1	noise_calib_stim_LEFT.wav	1	23	blb_dichoticlistening_ka-pa.mp3	ka	pa	1	other
6.6.1	win	2023-06-02	06:55:14	0	0	6272b9dfc470a51d5fa0e6ea	1	1	DL_test	13	DL_test	24			0		ta	1	953	6	3	antiphase_hc_soi.wav	1	6	1	noise_calib_stim_LEFT.wav	1	36	blb_dichoticlistening_ta-ta.mp3	ta	ta	0	left
6.6.1	win	2023-06-02	06:55:14	0	0	6272b9dfc470a51d5fa0e6ea	1	1	DL_test	13	DL_test	25			0		ga	1	1440	6	3	antiphase_hc_soi.wav	1	6	1	noise_calib_stim_LEFT.wav	1	17	blb_dichoticlistening_ga-pa.mp3	ga	pa	1	left
6.6.1	win	2023-06-02	06:55:14	0	0	6272b9dfc470a51d5fa0e6ea	1	1	DL_test	13	DL_test	26			0		ga	0	1198	6	3	antiphase_hc_soi.wav	1	6	1	noise_calib_stim_LEFT.wav	1	12	blb_dichoticlistening_da-ta.mp3	da	ta	1	other
6.6.1	win	2023-06-02	06:55:14	0	0	6272b9dfc470a51d5fa0e6ea	1	1	DL_test	13	DL_test	27			0		ga	1	1066	6	3	antiphase_hc_soi.wav	1	6	1	noise_calib_stim_LEFT.wav	1	18	blb_dichoticlistening_ga-ta.mp3	ga	ta	1	left
6.6.1	win	2023-06-02	06:55:14	0	0	6272b9dfc470a51d5fa0e6ea	1	1	DL_test	13	DL_test	28			0		ga	0	2334	6	3	antiphase_hc_soi.wav	1	6	1	noise_calib_stim_LEFT.wav	1	4	blb_dichoticlistening_ba-ka.mp3	ba	ka	1	other
6.6.1	win	2023-06-02	06:55:14	0	0	6272b9dfc470a51d5fa0e6ea	1	1	DL_test	13	DL_test	29			0		da	1	1776	6	3	antiphase_hc_soi.wav	1	6	1	noise_calib_stim_LEFT.wav	1	9	blb_dichoticlistening_da-ga.mp3	da	ga	1	left
6.6.1	win	2023-06-02	06:55:14	0	0	6272b9dfc470a51d5fa0e6ea	1	1	DL_test	13	DL_test	30			0		da	0	1811	6	3	antiphase_hc_soi.wav	1	6	1	noise_calib_stim_LEFT.wav	1	6	blb_dichoticlistening_ba-ta.mp3	ba	ta	1	other
6.6.1	win	2023-06-02	06:55:14	0	0	6272b9dfc470a51d5fa0e6ea	1	1	DL_test	13	DL_test	31			0		da	1	969	6	3	antiphase_hc_soi.wav	1	6	1	noise_calib_stim_LEFT.wav	1	32	blb_dichoticlistening_ta-da.mp3	ta	da	1	right
6.6.1	win	2023-06-02	06:55:14	0	0	6272b9dfc470a51d5fa0e6ea	1	1	DL_test	13	DL_test	32			0		ta	1	1713	6	3	antiphase_hc_soi.wav	1	6	1	noise_calib_stim_LEFT.wav	1	35	blb_dichoticlistening_ta-pa.mp3	ta	pa	1	left
6.6.1	win	2023-06-02	06:55:14	0	0	6272b9dfc470a51d5fa0e6ea	1	1	DL_test	13	DL_test	33			0		ba	1	1115	6	3	antiphase_hc_soi.wav	1	6	1	noise_calib_stim_LEFT.wav	1	31	blb_dichoticlistening_ta-ba.mp3	ta	ba	1	right
6.6.1	win	2023-06-02	06:55:14	0	0	6272b9dfc470a51d5fa0e6ea	1	1	DL_test	13	DL_test	34			0		ga	1	1236	6	3	antiphase_hc_soi.wav	1	6	1	noise_calib_stim_LEFT.wav	1	15	blb_dichoticlistening_ga-ga.mp3	ga	ga	0	left
6.6.1	win	2023-06-02	06:55:14	0	0	6272b9dfc470a51d5fa0e6ea	1	1	DL_test	13	DL_test	35			0		ba	1	1176	6	3	antiphase_hc_soi.wav	1	6	1	noise_calib_stim_LEFT.wav	1	2	blb_dichoticlistening_ba-da.mp3	ba	da	1	left
6.6.1	win	2023-06-02	06:55:14	0	0	6272b9dfc470a51d5fa0e6ea	1	1	DL_test	13	DL_test	36			0		ga	1	1303	6	3	antiphase_hc_soi.wav	1	6	1	noise_calib_stim_LEFT.wav	1	14	blb_dichoticlistening_ga-da.mp3	ga	da	1	left
6.6.1	win	2023-06-02	06:55:14	0	0	6272b9dfc470a51d5fa0e6ea	1	1	DL_test	14	DL_test	1			0		ba	1	1455	6	3	antiphase_hc_soi.wav	1	6	1	noise_calib_stim_LEFT.wav	1	13	blb_dichoticlistening_ga-ba.mp3	ga	ba	1	right
6.6.1	win	2023-06-02	06:55:14	0	0	6272b9dfc470a51d5fa0e6ea	1	1	DL_test	14	DL_test	2			0		ga	1	1019	6	3	antiphase_hc_soi.wav	1	6	1	noise_calib_stim_LEFT.wav	1	33	blb_dichoticlistening_ta-ga.mp3	ta	ga	1	right
6.6.1	win	2023-06-02	06:55:14	0	0	6272b9dfc470a51d5fa0e6ea	1	1	DL_test	14	DL_test	3			0		da	0	1207	6	3	antiphase_hc_soi.wav	1	6	1	noise_calib_stim_LEFT.wav	1	6	blb_dichoticlistening_ba-ta.mp3	ba	ta	1	other
6.6.1	win	2023-06-02	06:55:14	0	0	6272b9dfc470a51d5fa0e6ea	1	1	DL_test	14	DL_test	4			0		ba	1	909	6	3	antiphase_hc_soi.wav	1	6	1	noise_calib_stim_LEFT.wav	1	2	blb_dichoticlistening_ba-da.mp3	ba	da	1	left
6.6.1	win	2023-06-02	06:55:14	0	0	6272b9dfc470a51d5fa0e6ea	1	1	DL_test	14	DL_test	5			0		ba	1	918	6	3	antiphase_hc_soi.wav	1	6	1	noise_calib_stim_LEFT.wav	1	1	blb_dichoticlistening_ba-ba.mp3	ba	ba	0	left
6.6.1	win	2023-06-02	06:55:14	0	0	6272b9dfc470a51d5fa0e6ea	1	1	DL_test	14	DL_test	6			0		ta	1	1271	6	3	antiphase_hc_soi.wav	1	6	1	noise_calib_stim_LEFT.wav	1	36	blb_dichoticlistening_ta-ta.mp3	ta	ta	0	left
6.6.1	win	2023-06-02	06:55:14	0	0	6272b9dfc470a51d5fa0e6ea	1	1	DL_test	14	DL_test	7			0		pa	1	1881	6	3	antiphase_hc_soi.wav	1	6	1	noise_calib_stim_LEFT.wav	1	25	blb_dichoticlistening_pa-ba.mp3	pa	ba	1	left
6.6.1	win	2023-06-02	06:55:14	0	0	6272b9dfc470a51d5fa0e6ea	1	1	DL_test	14	DL_test	8			0		ba	1	1014	6	3	antiphase_hc_soi.wav	1	6	1	noise_calib_stim_LEFT.wav	1	3	blb_dichoticlistening_ba-ga.mp3	ba	ga	1	left
6.6.1	win	2023-06-02	06:55:14	0	0	6272b9dfc470a51d5fa0e6ea	1	1	DL_test	14	DL_test	9			0		ka	1	2281	6	3	antiphase_hc_soi.wav	1	6	1	noise_calib_stim_LEFT.wav	1	28	blb_dichoticlistening_pa-ka.mp3	pa	ka	1	right
6.6.1	win	2023-06-02	06:55:14	0	0	6272b9dfc470a51d5fa0e6ea	1	1	DL_test	14	DL_test	10			0		ka	1	978	6	3	antiphase_hc_soi.wav	1	6	1	noise_calib_stim_LEFT.wav	1	23	blb_dichoticlistening_ka-pa.mp3	ka	pa	1	left
6.6.1	win	2023-06-02	06:55:14	0	0	6272b9dfc470a51d5fa0e6ea	1	1	DL_test	14	DL_test	11			0		ga	1	1107	6	3	antiphase_hc_soi.wav	1	6	1	noise_calib_stim_LEFT.wav	1	14	blb_dichoticlistening_ga-da.mp3	ga	da	1	left
6.6.1	win	2023-06-02	06:55:14	0	0	6272b9dfc470a51d5fa0e6ea	1	1	DL_test	14	DL_test	12			0		da	1	1315	6	3	antiphase_hc_soi.wav	1	6	1	noise_calib_stim_LEFT.wav	1	26	blb_dichoticlistening_pa-da.mp3	pa	da	1	right
6.6.1	win	2023-06-02	06:55:14	0	0	6272b9dfc470a51d5fa0e6ea	1	1	DL_test	14	DL_test	13			0		ba	1	910	6	3	antiphase_hc_soi.wav	1	6	1	noise_calib_stim_LEFT.wav	1	7	blb_dichoticlistening_da-ba.mp3	da	ba	1	right
6.6.1	win	2023-06-02	06:55:14	0	0	6272b9dfc470a51d5fa0e6ea	1	1	DL_test	14	DL_test	14			0		ka	1	1215	6	3	antiphase_hc_soi.wav	1	6	1	noise_calib_stim_LEFT.wav	1	34	blb_dichoticlistening_ta-ka.mp3	ta	ka	1	right
6.6.1	win	2023-06-02	06:55:14	0	0	6272b9dfc470a51d5fa0e6ea	1	1	DL_test	14	DL_test	15			0		ka	0	1494	6	3	antiphase_hc_soi.wav	1	6	1	noise_calib_stim_LEFT.wav	1	17	blb_dichoticlistening_ga-pa.mp3	ga	pa	1	other
6.6.1	win	2023-06-02	06:55:14	0	0	6272b9dfc470a51d5fa0e6ea	1	1	DL_test	14	DL_test	16			0		da	1	1143	6	3	antiphase_hc_soi.wav	1	6	1	noise_calib_stim_LEFT.wav	1	9	blb_dichoticlistening_da-ga.mp3	da	ga	1	left
6.6.1	win	2023-06-02	06:55:14	0	0	6272b9dfc470a51d5fa0e6ea	1	1	DL_test	14	DL_test	17			0		ka	1	1080	6	3	antiphase_hc_soi.wav	1	6	1	noise_calib_stim_LEFT.wav	1	24	blb_dichoticlistening_ka-ta.mp3	ka	ta	1	left
6.6.1	win	2023-06-02	06:55:14	0	0	6272b9dfc470a51d5fa0e6ea	1	1	DL_test	14	DL_test	18			0		pa	1	1508	6	3	antiphase_hc_soi.wav	1	6	1	noise_calib_stim_LEFT.wav	1	5	blb_dichoticlistening_ba-pa.mp3	ba	pa	1	right
6.6.1	win	2023-06-02	06:55:14	0	0	6272b9dfc470a51d5fa0e6ea	1	1	DL_test	14	DL_test	19			0		ga	1	1109	6	3	antiphase_hc_soi.wav	1	6	1	noise_calib_stim_LEFT.wav	1	18	blb_dichoticlistening_ga-ta.mp3	ga	ta	1	left
6.6.1	win	2023-06-02	06:55:14	0	0	6272b9dfc470a51d5fa0e6ea	1	1	DL_test	14	DL_test	20			0		ba	1	1695	6	3	antiphase_hc_soi.wav	1	6	1	noise_calib_stim_LEFT.wav	1	4	blb_dichoticlistening_ba-ka.mp3	ba	ka	1	left
6.6.1	win	2023-06-02	06:55:14	0	0	6272b9dfc470a51d5fa0e6ea	1	1	DL_test	14	DL_test	21			0		da	1	1152	6	3	antiphase_hc_soi.wav	1	6	1	noise_calib_stim_LEFT.wav	1	8	blb_dichoticlistening_da-da.mp3	da	da	0	left
6.6.1	win	2023-06-02	06:55:14	0	0	6272b9dfc470a51d5fa0e6ea	1	1	DL_test	14	DL_test	22			0		da	1	1080	6	3	antiphase_hc_soi.wav	1	6	1	noise_calib_stim_LEFT.wav	1	32	blb_dichoticlistening_ta-da.mp3	ta	da	1	right
6.6.1	win	2023-06-02	06:55:14	0	0	6272b9dfc470a51d5fa0e6ea	1	1	DL_test	14	DL_test	23			0		ga	1	1041	6	3	antiphase_hc_soi.wav	1	6	1	noise_calib_stim_LEFT.wav	1	21	blb_dichoticlistening_ka-ga.mp3	ka	ga	1	right
6.6.1	win	2023-06-02	06:55:14	0	0	6272b9dfc470a51d5fa0e6ea	1	1	DL_test	14	DL_test	24			0		ta	1	1230	6	3	antiphase_hc_soi.wav	1	6	1	noise_calib_stim_LEFT.wav	1	30	blb_dichoticlistening_pa-ta.mp3	pa	ta	1	right
6.6.1	win	2023-06-02	06:55:14	0	0	6272b9dfc470a51d5fa0e6ea	1	1	DL_test	14	DL_test	25			0		ba	1	1258	6	3	antiphase_hc_soi.wav	1	6	1	noise_calib_stim_LEFT.wav	1	31	blb_dichoticlistening_ta-ba.mp3	ta	ba	1	right
6.6.1	win	2023-06-02	06:55:14	0	0	6272b9dfc470a51d5fa0e6ea	1	1	DL_test	14	DL_test	26			0		ta	1	1590	6	3	antiphase_hc_soi.wav	1	6	1	noise_calib_stim_LEFT.wav	1	35	blb_dichoticlistening_ta-pa.mp3	ta	pa	1	left
6.6.1	win	2023-06-02	06:55:14	0	0	6272b9dfc470a51d5fa0e6ea	1	1	DL_test	14	DL_test	27			0		ka	1	1156	6	3	antiphase_hc_soi.wav	1	6	1	noise_calib_stim_LEFT.wav	1	22	blb_dichoticlistening_ka-ka.mp3	ka	ka	0	left
6.6.1	win	2023-06-02	06:55:14	0	0	6272b9dfc470a51d5fa0e6ea	1	1	DL_test	14	DL_test	28			0		ta	1	1966	6	3	antiphase_hc_soi.wav	1	6	1	noise_calib_stim_LEFT.wav	1	12	blb_dichoticlistening_da-ta.mp3	da	ta	1	right
6.6.1	win	2023-06-02	06:55:14	0	0	6272b9dfc470a51d5fa0e6ea	1	1	DL_test	14	DL_test	29			0		ta	0	1533	6	3	antiphase_hc_soi.wav	1	6	1	noise_calib_stim_LEFT.wav	1	11	blb_dichoticlistening_da-pa.mp3	da	pa	1	other
6.6.1	win	2023-06-02	06:55:14	0	0	6272b9dfc470a51d5fa0e6ea	1	1	DL_test	14	DL_test	30			0		ga	1	1029	6	3	antiphase_hc_soi.wav	1	6	1	noise_calib_stim_LEFT.wav	1	15	blb_dichoticlistening_ga-ga.mp3	ga	ga	0	left
6.6.1	win	2023-06-02	06:55:14	0	0	6272b9dfc470a51d5fa0e6ea	1	1	DL_test	14	DL_test	31			0		ga	0	1307	6	3	antiphase_hc_soi.wav	1	6	1	noise_calib_stim_LEFT.wav	1	20	blb_dichoticlistening_ka-da.mp3	ka	da	1	other
6.6.1	win	2023-06-02	06:55:14	0	0	6272b9dfc470a51d5fa0e6ea	1	1	DL_test	14	DL_test	32			0		ka	1	1372	6	3	antiphase_hc_soi.wav	1	6	1	noise_calib_stim_LEFT.wav	1	16	blb_dichoticlistening_ga-ka.mp3	ga	ka	1	right
6.6.1	win	2023-06-02	06:55:14	0	0	6272b9dfc470a51d5fa0e6ea	1	1	DL_test	14	DL_test	33			0		pa	1	1189	6	3	antiphase_hc_soi.wav	1	6	1	noise_calib_stim_LEFT.wav	1	29	blb_dichoticlistening_pa-pa.mp3	pa	pa	0	left
6.6.1	win	2023-06-02	06:55:14	0	0	6272b9dfc470a51d5fa0e6ea	1	1	DL_test	14	DL_test	34			0		ba	1	1540	6	3	antiphase_hc_soi.wav	1	6	1	noise_calib_stim_LEFT.wav	1	19	blb_dichoticlistening_ka-ba.mp3	ka	ba	1	right
6.6.1	win	2023-06-02	06:55:14	0	0	6272b9dfc470a51d5fa0e6ea	1	1	DL_test	14	DL_test	35			0		ga	1	1131	6	3	antiphase_hc_soi.wav	1	6	1	noise_calib_stim_LEFT.wav	1	27	blb_dichoticlistening_pa-ga.mp3	pa	ga	1	right
6.6.1	win	2023-06-02	06:55:14	0	0	6272b9dfc470a51d5fa0e6ea	1	1	DL_test	14	DL_test	36			0		ta	0	1908	6	3	antiphase_hc_soi.wav	1	6	1	noise_calib_stim_LEFT.wav	1	10	blb_dichoticlistening_da-ka.mp3	da	ka	1	other
6.6.1	win	2023-06-02	06:55:14	0	0	6272b9dfc470a51d5fa0e6ea	1	1	DL_test	15	DL_test	1			0		ka	1	1177	6	3	antiphase_hc_soi.wav	1	6	1	noise_calib_stim_LEFT.wav	1	16	blb_dichoticlistening_ga-ka.mp3	ga	ka	1	right
6.6.1	win	2023-06-02	06:55:14	0	0	6272b9dfc470a51d5fa0e6ea	1	1	DL_test	15	DL_test	2			0		da	1	2184	6	3	antiphase_hc_soi.wav	1	6	1	noise_calib_stim_LEFT.wav	1	10	blb_dichoticlistening_da-ka.mp3	da	ka	1	left
6.6.1	win	2023-06-02	06:55:14	0	0	6272b9dfc470a51d5fa0e6ea	1	1	DL_test	15	DL_test	3			0		ga	1	896	6	3	antiphase_hc_soi.wav	1	6	1	noise_calib_stim_LEFT.wav	1	33	blb_dichoticlistening_ta-ga.mp3	ta	ga	1	right
6.6.1	win	2023-06-02	06:55:14	0	0	6272b9dfc470a51d5fa0e6ea	1	1	DL_test	15	DL_test	4			0		ba	1	1241	6	3	antiphase_hc_soi.wav	1	6	1	noise_calib_stim_LEFT.wav	1	1	blb_dichoticlistening_ba-ba.mp3	ba	ba	0	left
6.6.1	win	2023-06-02	06:55:14	0	0	6272b9dfc470a51d5fa0e6ea	1	1	DL_test	15	DL_test	5			0		ta	0	2055	6	3	antiphase_hc_soi.wav	1	6	1	noise_calib_stim_LEFT.wav	1	11	blb_dichoticlistening_da-pa.mp3	da	pa	1	other
6.6.1	win	2023-06-02	06:55:14	0	0	6272b9dfc470a51d5fa0e6ea	1	1	DL_test	15	DL_test	6			0		ga	1	1259	6	3	antiphase_hc_soi.wav	1	6	1	noise_calib_stim_LEFT.wav	1	27	blb_dichoticlistening_pa-ga.mp3	pa	ga	1	right
6.6.1	win	2023-06-02	06:55:14	0	0	6272b9dfc470a51d5fa0e6ea	1	1	DL_test	15	DL_test	7			0		ba	1	1151	6	3	antiphase_hc_soi.wav	1	6	1	noise_calib_stim_LEFT.wav	1	13	blb_dichoticlistening_ga-ba.mp3	ga	ba	1	right
6.6.1	win	2023-06-02	06:55:14	0	0	6272b9dfc470a51d5fa0e6ea	1	1	DL_test	15	DL_test	8			0		ba	1	2303	6	3	antiphase_hc_soi.wav	1	6	1	noise_calib_stim_LEFT.wav	1	5	blb_dichoticlistening_ba-pa.mp3	ba	pa	1	left
6.6.1	win	2023-06-02	06:55:14	0	0	6272b9dfc470a51d5fa0e6ea	1	1	DL_test	15	DL_test	9			0		da	1	1240	6	3	antiphase_hc_soi.wav	1	6	1	noise_calib_stim_LEFT.wav	1	14	blb_dichoticlistening_ga-da.mp3	ga	da	1	right
6.6.1	win	2023-06-02	06:55:14	0	0	6272b9dfc470a51d5fa0e6ea	1	1	DL_test	15	DL_test	10			0		ka	1	1037	6	3	antiphase_hc_soi.wav	1	6	1	noise_calib_stim_LEFT.wav	1	28	blb_dichoticlistening_pa-ka.mp3	pa	ka	1	right
6.6.1	win	2023-06-02	06:55:14	0	0	6272b9dfc470a51d5fa0e6ea	1	1	DL_test	15	DL_test	11			0		ba	1	1474	6	3	antiphase_hc_soi.wav	1	6	1	noise_calib_stim_LEFT.wav	1	31	blb_dichoticlistening_ta-ba.mp3	ta	ba	1	right
6.6.1	win	2023-06-02	06:55:14	0	0	6272b9dfc470a51d5fa0e6ea	1	1	DL_test	15	DL_test	12			0		ka	1	1230	6	3	antiphase_hc_soi.wav	1	6	1	noise_calib_stim_LEFT.wav	1	23	blb_dichoticlistening_ka-pa.mp3	ka	pa	1	left
6.6.1	win	2023-06-02	06:55:14	0	0	6272b9dfc470a51d5fa0e6ea	1	1	DL_test	15	DL_test	13			0		da	1	1026	6	3	antiphase_hc_soi.wav	1	6	1	noise_calib_stim_LEFT.wav	1	32	blb_dichoticlistening_ta-da.mp3	ta	da	1	right
6.6.1	win	2023-06-02	06:55:14	0	0	6272b9dfc470a51d5fa0e6ea	1	1	DL_test	15	DL_test	14			0		ba	1	991	6	3	antiphase_hc_soi.wav	1	6	1	noise_calib_stim_LEFT.wav	1	7	blb_dichoticlistening_da-ba.mp3	da	ba	1	right
6.6.1	win	2023-06-02	06:55:14	0	0	6272b9dfc470a51d5fa0e6ea	1	1	DL_test	15	DL_test	15			0		ba	1	1262	6	3	antiphase_hc_soi.wav	1	6	1	noise_calib_stim_LEFT.wav	1	3	blb_dichoticlistening_ba-ga.mp3	ba	ga	1	left
6.6.1	win	2023-06-02	06:55:14	0	0	6272b9dfc470a51d5fa0e6ea	1	1	DL_test	15	DL_test	16			0		ka	1	1152	6	3	antiphase_hc_soi.wav	1	6	1	noise_calib_stim_LEFT.wav	1	34	blb_dichoticlistening_ta-ka.mp3	ta	ka	1	right
6.6.1	win	2023-06-02	06:55:14	0	0	6272b9dfc470a51d5fa0e6ea	1	1	DL_test	15	DL_test	17			0		pa	1	1232	6	3	antiphase_hc_soi.wav	1	6	1	noise_calib_stim_LEFT.wav	1	29	blb_dichoticlistening_pa-pa.mp3	pa	pa	0	left
6.6.1	win	2023-06-02	06:55:14	0	0	6272b9dfc470a51d5fa0e6ea	1	1	DL_test	15	DL_test	18			0		ba	1	1549	6	3	antiphase_hc_soi.wav	1	6	1	noise_calib_stim_LEFT.wav	1	6	blb_dichoticlistening_ba-ta.mp3	ba	ta	1	left
6.6.1	win	2023-06-02	06:55:14	0	0	6272b9dfc470a51d5fa0e6ea	1	1	DL_test	15	DL_test	19			0		da	1	876	6	3	antiphase_hc_soi.wav	1	6	1	noise_calib_stim_LEFT.wav	1	8	blb_dichoticlistening_da-da.mp3	da	da	0	left
6.6.1	win	2023-06-02	06:55:14	0	0	6272b9dfc470a51d5fa0e6ea	1	1	DL_test	15	DL_test	20			0		ba	1	1089	6	3	antiphase_hc_soi.wav	1	6	1	noise_calib_stim_LEFT.wav	1	2	blb_dichoticlistening_ba-da.mp3	ba	da	1	left
6.6.1	win	2023-06-02	06:55:14	0	0	6272b9dfc470a51d5fa0e6ea	1	1	DL_test	15	DL_test	21			0		ka	1	1042	6	3	antiphase_hc_soi.wav	1	6	1	noise_calib_stim_LEFT.wav	1	24	blb_dichoticlistening_ka-ta.mp3	ka	ta	1	left
6.6.1	win	2023-06-02	06:55:14	0	0	6272b9dfc470a51d5fa0e6ea	1	1	DL_test	15	DL_test	22			0		da	1	1191	6	3	antiphase_hc_soi.wav	1	6	1	noise_calib_stim_LEFT.wav	1	9	blb_dichoticlistening_da-ga.mp3	da	ga	1	left
6.6.1	win	2023-06-02	06:55:14	0	0	6272b9dfc470a51d5fa0e6ea	1	1	DL_test	15	DL_test	23			0		ga	1	997	6	3	antiphase_hc_soi.wav	1	6	1	noise_calib_stim_LEFT.wav	1	15	blb_dichoticlistening_ga-ga.mp3	ga	ga	0	left
6.6.1	win	2023-06-02	06:55:14	0	0	6272b9dfc470a51d5fa0e6ea	1	1	DL_test	15	DL_test	24			0		ta	1	1387	6	3	antiphase_hc_soi.wav	1	6	1	noise_calib_stim_LEFT.wav	1	35	blb_dichoticlistening_ta-pa.mp3	ta	pa	1	left
6.6.1	win	2023-06-02	06:55:14	0	0	6272b9dfc470a51d5fa0e6ea	1	1	DL_test	15	DL_test	25			0		ta	1	785	6	3	antiphase_hc_soi.wav	1	6	1	noise_calib_stim_LEFT.wav	1	36	blb_dichoticlistening_ta-ta.mp3	ta	ta	0	left
6.6.1	win	2023-06-02	06:55:14	0	0	6272b9dfc470a51d5fa0e6ea	1	1	DL_test	15	DL_test	26			0		ta	1	1063	6	3	antiphase_hc_soi.wav	1	6	1	noise_calib_stim_LEFT.wav	1	30	blb_dichoticlistening_pa-ta.mp3	pa	ta	1	right
6.6.1	win	2023-06-02	06:55:14	0	0	6272b9dfc470a51d5fa0e6ea	1	1	DL_test	15	DL_test	27			0		ga	1	1715	6	3	antiphase_hc_soi.wav	1	6	1	noise_calib_stim_LEFT.wav	1	17	blb_dichoticlistening_ga-pa.mp3	ga	pa	1	left
6.6.1	win	2023-06-02	06:55:14	0	0	6272b9dfc470a51d5fa0e6ea	1	1	DL_test	15	DL_test	28			0		ba	1	1011	6	3	antiphase_hc_soi.wav	1	6	1	noise_calib_stim_LEFT.wav	1	19	blb_dichoticlistening_ka-ba.mp3	ka	ba	1	right
6.6.1	win	2023-06-02	06:55:14	0	0	6272b9dfc470a51d5fa0e6ea	1	1	DL_test	15	DL_test	29			0		ba	1	1480	6	3	antiphase_hc_soi.wav	1	6	1	noise_calib_stim_LEFT.wav	1	25	blb_dichoticlistening_pa-ba.mp3	pa	ba	1	right
6.6.1	win	2023-06-02	06:55:14	0	0	6272b9dfc470a51d5fa0e6ea	1	1	DL_test	15	DL_test	30			0		ka	1	1132	6	3	antiphase_hc_soi.wav	1	6	1	noise_calib_stim_LEFT.wav	1	4	blb_dichoticlistening_ba-ka.mp3	ba	ka	1	right
6.6.1	win	2023-06-02	06:55:14	0	0	6272b9dfc470a51d5fa0e6ea	1	1	DL_test	15	DL_test	31			0		da	1	1469	6	3	antiphase_hc_soi.wav	1	6	1	noise_calib_stim_LEFT.wav	1	26	blb_dichoticlistening_pa-da.mp3	pa	da	1	right
6.6.1	win	2023-06-02	06:55:14	0	0	6272b9dfc470a51d5fa0e6ea	1	1	DL_test	15	DL_test	32			0		da	1	2592	6	3	antiphase_hc_soi.wav	1	6	1	noise_calib_stim_LEFT.wav	1	12	blb_dichoticlistening_da-ta.mp3	da	ta	1	left
6.6.1	win	2023-06-02	06:55:14	0	0	6272b9dfc470a51d5fa0e6ea	1	1	DL_test	15	DL_test	33			0		da	1	965	6	3	antiphase_hc_soi.wav	1	6	1	noise_calib_stim_LEFT.wav	1	20	blb_dichoticlistening_ka-da.mp3	ka	da	1	right
6.6.1	win	2023-06-02	06:55:14	0	0	6272b9dfc470a51d5fa0e6ea	1	1	DL_test	15	DL_test	34			0		ka	1	1141	6	3	antiphase_hc_soi.wav	1	6	1	noise_calib_stim_LEFT.wav	1	22	blb_dichoticlistening_ka-ka.mp3	ka	ka	0	left
6.6.1	win	2023-06-02	06:55:14	0	0	6272b9dfc470a51d5fa0e6ea	1	1	DL_test	15	DL_test	35			0		ga	1	957	6	3	antiphase_hc_soi.wav	1	6	1	noise_calib_stim_LEFT.wav	1	18	blb_dichoticlistening_ga-ta.mp3	ga	ta	1	left
6.6.1	win	2023-06-02	06:55:14	0	0	6272b9dfc470a51d5fa0e6ea	1	1	DL_test	15	DL_test	36			0		ga	1	1014	6	3	antiphase_hc_soi.wav	1	6	1	noise_calib_stim_LEFT.wav	1	21	blb_dichoticlistening_ka-ga.mp3	ka	ga	1	right
6.6.1	win	2023-06-02	06:55:14	0	0	6272b9dfc470a51d5fa0e6ea	1	1	DL_test	16	DL_test	1			0		ta	1	1612	6	3	antiphase_hc_soi.wav	1	6	1	noise_calib_stim_LEFT.wav	1	24	blb_dichoticlistening_ka-ta.mp3	ka	ta	1	right
6.6.1	win	2023-06-02	06:55:14	0	0	6272b9dfc470a51d5fa0e6ea	1	1	DL_test	16	DL_test	2			0		ga	1	1218	6	3	antiphase_hc_soi.wav	1	6	1	noise_calib_stim_LEFT.wav	1	21	blb_dichoticlistening_ka-ga.mp3	ka	ga	1	right
6.6.1	win	2023-06-02	06:55:14	0	0	6272b9dfc470a51d5fa0e6ea	1	1	DL_test	16	DL_test	3			0		ba	1	958	6	3	antiphase_hc_soi.wav	1	6	1	noise_calib_stim_LEFT.wav	1	3	blb_dichoticlistening_ba-ga.mp3	ba	ga	1	left
6.6.1	win	2023-06-02	06:55:14	0	0	6272b9dfc470a51d5fa0e6ea	1	1	DL_test	16	DL_test	4			0		ba	1	751	6	3	antiphase_hc_soi.wav	1	6	1	noise_calib_stim_LEFT.wav	1	1	blb_dichoticlistening_ba-ba.mp3	ba	ba	0	left
6.6.1	win	2023-06-02	06:55:14	0	0	6272b9dfc470a51d5fa0e6ea	1	1	DL_test	16	DL_test	5			0		pa	1	1479	6	3	antiphase_hc_soi.wav	1	6	1	noise_calib_stim_LEFT.wav	1	25	blb_dichoticlistening_pa-ba.mp3	pa	ba	1	left
6.6.1	win	2023-06-02	06:55:14	0	0	6272b9dfc470a51d5fa0e6ea	1	1	DL_test	16	DL_test	6			0		ba	1	2009	6	3	antiphase_hc_soi.wav	1	6	1	noise_calib_stim_LEFT.wav	1	31	blb_dichoticlistening_ta-ba.mp3	ta	ba	1	right
6.6.1	win	2023-06-02	06:55:14	0	0	6272b9dfc470a51d5fa0e6ea	1	1	DL_test	16	DL_test	7			0		ta	1	1548	6	3	antiphase_hc_soi.wav	1	6	1	noise_calib_stim_LEFT.wav	1	35	blb_dichoticlistening_ta-pa.mp3	ta	pa	1	left
6.6.1	win	2023-06-02	06:55:14	0	0	6272b9dfc470a51d5fa0e6ea	1	1	DL_test	16	DL_test	8			0		ba	1	1292	6	3	antiphase_hc_soi.wav	1	6	1	noise_calib_stim_LEFT.wav	1	7	blb_dichoticlistening_da-ba.mp3	da	ba	1	right
6.6.1	win	2023-06-02	06:55:14	0	0	6272b9dfc470a51d5fa0e6ea	1	1	DL_test	16	DL_test	9			0		ta	0	1448	6	3	antiphase_hc_soi.wav	1	6	1	noise_calib_stim_LEFT.wav	1	11	blb_dichoticlistening_da-pa.mp3	da	pa	1	other
6.6.1	win	2023-06-02	06:55:14	0	0	6272b9dfc470a51d5fa0e6ea	1	1	DL_test	16	DL_test	10			0		ga	0	1683	6	3	antiphase_hc_soi.wav	1	6	1	noise_calib_stim_LEFT.wav	1	20	blb_dichoticlistening_ka-da.mp3	ka	da	1	other
6.6.1	win	2023-06-02	06:55:14	0	0	6272b9dfc470a51d5fa0e6ea	1	1	DL_test	16	DL_test	11			0		da	1	951	6	3	antiphase_hc_soi.wav	1	6	1	noise_calib_stim_LEFT.wav	1	26	blb_dichoticlistening_pa-da.mp3	pa	da	1	right
6.6.1	win	2023-06-02	06:55:14	0	0	6272b9dfc470a51d5fa0e6ea	1	1	DL_test	16	DL_test	12			0		da	1	774	6	3	antiphase_hc_soi.wav	1	6	1	noise_calib_stim_LEFT.wav	1	8	blb_dichoticlistening_da-da.mp3	da	da	0	left
6.6.1	win	2023-06-02	06:55:14	0	0	6272b9dfc470a51d5fa0e6ea	1	1	DL_test	16	DL_test	13			0		ka	1	1501	6	3	antiphase_hc_soi.wav	1	6	1	noise_calib_stim_LEFT.wav	1	4	blb_dichoticlistening_ba-ka.mp3	ba	ka	1	right
6.6.1	win	2023-06-02	06:55:14	0	0	6272b9dfc470a51d5fa0e6ea	1	1	DL_test	16	DL_test	14			0		ga	1	1175	6	3	antiphase_hc_soi.wav	1	6	1	noise_calib_stim_LEFT.wav	1	18	blb_dichoticlistening_ga-ta.mp3	ga	ta	1	left
6.6.1	win	2023-06-02	06:55:14	0	0	6272b9dfc470a51d5fa0e6ea	1	1	DL_test	16	DL_test	15			0		ba	1	1302	6	3	antiphase_hc_soi.wav	1	6	1	noise_calib_stim_LEFT.wav	1	13	blb_dichoticlistening_ga-ba.mp3	ga	ba	1	right
6.6.1	win	2023-06-02	06:55:14	0	0	6272b9dfc470a51d5fa0e6ea	1	1	DL_test	16	DL_test	16			0		da	1	953	6	3	antiphase_hc_soi.wav	1	6	1	noise_calib_stim_LEFT.wav	1	14	blb_dichoticlistening_ga-da.mp3	ga	da	1	right
6.6.1	win	2023-06-02	06:55:14	0	0	6272b9dfc470a51d5fa0e6ea	1	1	DL_test	16	DL_test	17			0		da	1	832	6	3	antiphase_hc_soi.wav	1	6	1	noise_calib_stim_LEFT.wav	1	32	blb_dichoticlistening_ta-da.mp3	ta	da	1	right
6.6.1	win	2023-06-02	06:55:14	0	0	6272b9dfc470a51d5fa0e6ea	1	1	DL_test	16	DL_test	18			0		ta	0	1556	6	3	antiphase_hc_soi.wav	1	6	1	noise_calib_stim_LEFT.wav	1	17	blb_dichoticlistening_ga-pa.mp3	ga	pa	1	other
6.6.1	win	2023-06-02	06:55:14	0	0	6272b9dfc470a51d5fa0e6ea	1	1	DL_test	16	DL_test	19			0		ta	1	773	6	3	antiphase_hc_soi.wav	1	6	1	noise_calib_stim_LEFT.wav	1	30	blb_dichoticlistening_pa-ta.mp3	pa	ta	1	right
6.6.1	win	2023-06-02	06:55:14	0	0	6272b9dfc470a51d5fa0e6ea	1	1	DL_test	16	DL_test	20			0		da	0	1516	6	3	antiphase_hc_soi.wav	1	6	1	noise_calib_stim_LEFT.wav	1	33	blb_dichoticlistening_ta-ga.mp3	ta	ga	1	other
6.6.1	win	2023-06-02	06:55:14	0	0	6272b9dfc470a51d5fa0e6ea	1	1	DL_test	16	DL_test	21			0		da	0	1093	6	3	antiphase_hc_soi.wav	1	6	1	noise_calib_stim_LEFT.wav	1	15	blb_dichoticlistening_ga-ga.mp3	ga	ga	0	other
6.6.1	win	2023-06-02	06:55:14	0	0	6272b9dfc470a51d5fa0e6ea	1	1	DL_test	16	DL_test	22			0		pa	1	1201	6	3	antiphase_hc_soi.wav	1	6	1	noise_calib_stim_LEFT.wav	1	29	blb_dichoticlistening_pa-pa.mp3	pa	pa	0	left
6.6.1	win	2023-06-02	06:55:14	0	0	6272b9dfc470a51d5fa0e6ea	1	1	DL_test	16	DL_test	23			0		pa	1	1430	6	3	antiphase_hc_soi.wav	1	6	1	noise_calib_stim_LEFT.wav	1	5	blb_dichoticlistening_ba-pa.mp3	ba	pa	1	right
6.6.1	win	2023-06-02	06:55:14	0	0	6272b9dfc470a51d5fa0e6ea	1	1	DL_test	16	DL_test	24			0		ta	0	2507	6	3	antiphase_hc_soi.wav	1	6	1	noise_calib_stim_LEFT.wav	1	10	blb_dichoticlistening_da-ka.mp3	da	ka	1	other
6.6.1	win	2023-06-02	06:55:14	0	0	6272b9dfc470a51d5fa0e6ea	1	1	DL_test	16	DL_test	25			0		da	0	1149	6	3	antiphase_hc_soi.wav	1	6	1	noise_calib_stim_LEFT.wav	1	27	blb_dichoticlistening_pa-ga.mp3	pa	ga	1	other
6.6.1	win	2023-06-02	06:55:14	0	0	6272b9dfc470a51d5fa0e6ea	1	1	DL_test	16	DL_test	26			0		pa	0	2542	6	3	antiphase_hc_soi.wav	1	6	1	noise_calib_stim_LEFT.wav	1	19	blb_dichoticlistening_ka-ba.mp3	ka	ba	1	other
6.6.1	win	2023-06-02	06:55:14	0	0	6272b9dfc470a51d5fa0e6ea	1	1	DL_test	16	DL_test	27			0		ka	1	1199	6	3	antiphase_hc_soi.wav	1	6	1	noise_calib_stim_LEFT.wav	1	34	blb_dichoticlistening_ta-ka.mp3	ta	ka	1	right
6.6.1	win	2023-06-02	06:55:14	0	0	6272b9dfc470a51d5fa0e6ea	1	1	DL_test	16	DL_test	28			0		ta	1	1372	6	3	antiphase_hc_soi.wav	1	6	1	noise_calib_stim_LEFT.wav	1	6	blb_dichoticlistening_ba-ta.mp3	ba	ta	1	right
6.6.1	win	2023-06-02	06:55:14	0	0	6272b9dfc470a51d5fa0e6ea	1	1	DL_test	16	DL_test	29			0		da	1	2155	6	3	antiphase_hc_soi.wav	1	6	1	noise_calib_stim_LEFT.wav	1	12	blb_dichoticlistening_da-ta.mp3	da	ta	1	left
6.6.1	win	2023-06-02	06:55:14	0	0	6272b9dfc470a51d5fa0e6ea	1	1	DL_test	16	DL_test	30			0		ka	1	1211	6	3	antiphase_hc_soi.wav	1	6	1	noise_calib_stim_LEFT.wav	1	28	blb_dichoticlistening_pa-ka.mp3	pa	ka	1	right
6.6.1	win	2023-06-02	06:55:14	0	0	6272b9dfc470a51d5fa0e6ea	1	1	DL_test	16	DL_test	31			0		ba	1	1625	6	3	antiphase_hc_soi.wav	1	6	1	noise_calib_stim_LEFT.wav	1	2	blb_dichoticlistening_ba-da.mp3	ba	da	1	left
6.6.1	win	2023-06-02	06:55:14	0	0	6272b9dfc470a51d5fa0e6ea	1	1	DL_test	16	DL_test	32			0		da	1	820	6	3	antiphase_hc_soi.wav	1	6	1	noise_calib_stim_LEFT.wav	1	9	blb_dichoticlistening_da-ga.mp3	da	ga	1	left
6.6.1	win	2023-06-02	06:55:14	0	0	6272b9dfc470a51d5fa0e6ea	1	1	DL_test	16	DL_test	33			0		ga	1	1138	6	3	antiphase_hc_soi.wav	1	6	1	noise_calib_stim_LEFT.wav	1	16	blb_dichoticlistening_ga-ka.mp3	ga	ka	1	left
6.6.1	win	2023-06-02	06:55:14	0	0	6272b9dfc470a51d5fa0e6ea	1	1	DL_test	16	DL_test	34			0		ka	1	945	6	3	antiphase_hc_soi.wav	1	6	1	noise_calib_stim_LEFT.wav	1	22	blb_dichoticlistening_ka-ka.mp3	ka	ka	0	left
6.6.1	win	2023-06-02	06:55:14	0	0	6272b9dfc470a51d5fa0e6ea	1	1	DL_test	16	DL_test	35			0		ka	1	1018	6	3	antiphase_hc_soi.wav	1	6	1	noise_calib_stim_LEFT.wav	1	23	blb_dichoticlistening_ka-pa.mp3	ka	pa	1	left
6.6.1	win	2023-06-02	06:55:14	0	0	6272b9dfc470a51d5fa0e6ea	1	1	DL_test	16	DL_test	36			0		ta	1	1222	6	3	antiphase_hc_soi.wav	1	6	1	noise_calib_stim_LEFT.wav	1	36	blb_dichoticlistening_ta-ta.mp3	ta	ta	0	left
6.6.1	win	2023-06-02	06:55:14	07:08:49	806078	6272b9dfc470a51d5fa0e6ea	1	1	practice_slash	22	practice_slash	1	stimuli_target_rectanglediamonds.svg	stimuli_distractor_diamondtriangles.svg	1	yes	53	1	779	6	3	antiphase_hc_soi.wav	1	6	1	noise_calib_stim_LEFT.wav	1	36	blb_dichoticlistening_ta-ta.mp3	ta	ta	0	left
6.6.1	win	2023-06-02	06:55:14	07:08:49	806078	6272b9dfc470a51d5fa0e6ea	1	1	practice_slash	22	advance_on_keypress_SLASH	2	stimuli_target_rectanglediamonds.svg	stimuli_distractor_diamondtriangles.svg	1	yes	57	0	1588	6	3	antiphase_hc_soi.wav	1	6	1	noise_calib_stim_LEFT.wav	1	36	blb_dichoticlistening_ta-ta.mp3	ta	ta	0	left
6.6.1	win	2023-06-02	06:55:14	07:08:54	810392	6272b9dfc470a51d5fa0e6ea	1	1	practice_slash	22	practice_slash	3	stimuli_distractor_trianglediamonds.svg	stimuli_target_diamondrectangles.svg	12	yes	53	1	1061	6	3	antiphase_hc_soi.wav	1	6	1	noise_calib_stim_LEFT.wav	1	36	blb_dichoticlistening_ta-ta.mp3	ta	ta	0	left
6.6.1	win	2023-06-02	06:55:14	07:08:54	810392	6272b9dfc470a51d5fa0e6ea	1	1	practice_slash	22	advance_on_keypress_SLASH	4	stimuli_distractor_trianglediamonds.svg	stimuli_target_diamondrectangles.svg	12	yes	57	0	918	6	3	antiphase_hc_soi.wav	1	6	1	noise_calib_stim_LEFT.wav	1	36	blb_dichoticlistening_ta-ta.mp3	ta	ta	0	left
6.6.1	win	2023-06-02	06:55:14	07:08:57	813978	6272b9dfc470a51d5fa0e6ea	1	1	practice_slash	22	practice_slash	5	stimuli_distractor_diamondtriangles.svg	stimuli_target_trianglerectangles.svg	9	yes	53	1	1016	6	3	antiphase_hc_soi.wav	1	6	1	noise_calib_stim_LEFT.wav	1	36	blb_dichoticlistening_ta-ta.mp3	ta	ta	0	left
6.6.1	win	2023-06-02	06:55:14	07:08:57	813978	6272b9dfc470a51d5fa0e6ea	1	1	practice_slash	22	advance_on_keypress_SLASH	6	stimuli_distractor_diamondtriangles.svg	stimuli_target_trianglerectangles.svg	9	yes	57	0	1518	6	3	antiphase_hc_soi.wav	1	6	1	noise_calib_stim_LEFT.wav	1	36	blb_dichoticlistening_ta-ta.mp3	ta	ta	0	left
6.6.1	win	2023-06-02	06:55:14	07:09:02	818249	6272b9dfc470a51d5fa0e6ea	1	1	practice_slash	22	practice_slash	7	stimuli_distractor_diamondtriangles.svg	stimuli_target_rectangletriangles.svg	7	yes	53	1	1103	6	3	antiphase_hc_soi.wav	1	6	1	noise_calib_stim_LEFT.wav	1	36	blb_dichoticlistening_ta-ta.mp3	ta	ta	0	left
6.6.1	win	2023-06-02	06:55:14	07:09:02	818249	6272b9dfc470a51d5fa0e6ea	1	1	practice_slash	22	advance_on_keypress_SLASH	8	stimuli_distractor_diamondtriangles.svg	stimuli_target_rectangletriangles.svg	7	yes	57	0	723	6	3	antiphase_hc_soi.wav	1	6	1	noise_calib_stim_LEFT.wav	1	36	blb_dichoticlistening_ta-ta.mp3	ta	ta	0	left
6.6.1	win	2023-06-02	06:55:14	07:09:05	821666	6272b9dfc470a51d5fa0e6ea	1	1	practice_slash	22	practice_slash	9	stimuli_distractor_diamondtriangles.svg	stimuli_target_diamondrectangles.svg	8	yes	53	1	1055	6	3	antiphase_hc_soi.wav	1	6	1	noise_calib_stim_LEFT.wav	1	36	blb_dichoticlistening_ta-ta.mp3	ta	ta	0	left
6.6.1	win	2023-06-02	06:55:14	07:09:05	821666	6272b9dfc470a51d5fa0e6ea	1	1	practice_slash	22	advance_on_keypress_SLASH	10	stimuli_distractor_diamondtriangles.svg	stimuli_target_diamondrectangles.svg	8	yes	57	0	581	6	3	antiphase_hc_soi.wav	1	6	1	noise_calib_stim_LEFT.wav	1	36	blb_dichoticlistening_ta-ta.mp3	ta	ta	0	left
6.6.1	win	2023-06-02	06:55:14	07:09:08	824989	6272b9dfc470a51d5fa0e6ea	1	1	practice_slash	22	practice_slash	11	stimuli_distractor_trianglediamonds.svg	stimuli_target_rectanglediamonds.svg	10	yes	53	1	1095	6	3	antiphase_hc_soi.wav	1	6	1	noise_calib_stim_LEFT.wav	1	36	blb_dichoticlistening_ta-ta.mp3	ta	ta	0	left
6.6.1	win	2023-06-02	06:55:14	07:09:08	824989	6272b9dfc470a51d5fa0e6ea	1	1	practice_slash	22	advance_on_keypress_SLASH	12	stimuli_distractor_trianglediamonds.svg	stimuli_target_rectanglediamonds.svg	10	yes	57	0	1694	6	3	antiphase_hc_soi.wav	1	6	1	noise_calib_stim_LEFT.wav	1	36	blb_dichoticlistening_ta-ta.mp3	ta	ta	0	left
6.6.1	win	2023-06-02	06:55:14	07:09:13	829372	6272b9dfc470a51d5fa0e6ea	1	1	practice_slash	22	practice_slash	13	stimuli_target_rectanglediamonds.svg	stimuli_distractor_trianglediamonds.svg	4	yes	53	1	1030	6	3	antiphase_hc_soi.wav	1	6	1	noise_calib_stim_LEFT.wav	1	36	blb_dichoticlistening_ta-ta.mp3	ta	ta	0	left
6.6.1	win	2023-06-02	06:55:14	07:09:13	829372	6272b9dfc470a51d5fa0e6ea	1	1	practice_slash	22	advance_on_keypress_SLASH	14	stimuli_target_rectanglediamonds.svg	stimuli_distractor_trianglediamonds.svg	4	yes	57	0	653	6	3	antiphase_hc_soi.wav	1	6	1	noise_calib_stim_LEFT.wav	1	36	blb_dichoticlistening_ta-ta.mp3	ta	ta	0	left
6.6.1	win	2023-06-02	06:55:14	07:09:17	833675	6272b9dfc470a51d5fa0e6ea	1	1	practice_slash	22	practice_slash	15	stimuli_distractor_diamondtriangles.svg	stimuli_distractor_diamondtriangles.svg	13	no	0	1	2000	6	3	antiphase_hc_soi.wav	1	6	1	noise_calib_stim_LEFT.wav	1	36	blb_dichoticlistening_ta-ta.mp3	ta	ta	0	left
6.6.1	win	2023-06-02	06:55:14	07:09:17	833675	6272b9dfc470a51d5fa0e6ea	1	1	practice_slash	22	advance_on_keypress_SLASH	16	stimuli_distractor_diamondtriangles.svg	stimuli_distractor_diamondtriangles.svg	13	no	57	0	619	6	3	antiphase_hc_soi.wav	1	6	1	noise_calib_stim_LEFT.wav	1	36	blb_dichoticlistening_ta-ta.mp3	ta	ta	0	left
6.6.1	win	2023-06-02	06:55:14	07:09:20	837096	6272b9dfc470a51d5fa0e6ea	1	1	practice_slash	22	practice_slash	17	stimuli_target_squarediamonds.svg	stimuli_distractor_trianglediamonds.svg	5	yes	53	1	1155	6	3	antiphase_hc_soi.wav	1	6	1	noise_calib_stim_LEFT.wav	1	36	blb_dichoticlistening_ta-ta.mp3	ta	ta	0	left
6.6.1	win	2023-06-02	06:55:14	07:09:20	837096	6272b9dfc470a51d5fa0e6ea	1	1	practice_slash	22	advance_on_keypress_SLASH	18	stimuli_target_squarediamonds.svg	stimuli_distractor_trianglediamonds.svg	5	yes	57	0	713	6	3	antiphase_hc_soi.wav	1	6	1	noise_calib_stim_LEFT.wav	1	36	blb_dichoticlistening_ta-ta.mp3	ta	ta	0	left
6.6.1	win	2023-06-02	06:55:14	07:09:25	841457	6272b9dfc470a51d5fa0e6ea	1	1	practice_slash	22	practice_slash	19	stimuli_distractor_trianglediamonds.svg	stimuli_distractor_diamondtriangles.svg	16	no	0	1	2000	6	3	antiphase_hc_soi.wav	1	6	1	noise_calib_stim_LEFT.wav	1	36	blb_dichoticlistening_ta-ta.mp3	ta	ta	0	left
6.6.1	win	2023-06-02	06:55:14	07:09:25	841457	6272b9dfc470a51d5fa0e6ea	1	1	practice_slash	22	advance_on_keypress_SLASH	20	stimuli_distractor_trianglediamonds.svg	stimuli_distractor_diamondtriangles.svg	16	no	57	0	1205	6	3	antiphase_hc_soi.wav	1	6	1	noise_calib_stim_LEFT.wav	1	36	blb_dichoticlistening_ta-ta.mp3	ta	ta	0	left
6.6.1	win	2023-06-02	06:55:14	07:09:30	846306	6272b9dfc470a51d5fa0e6ea	1	1	practice_slash	22	practice_slash	21	stimuli_distractor_diamondtriangles.svg	stimuli_distractor_trianglediamonds.svg	14	no	0	1	2000	6	3	antiphase_hc_soi.wav	1	6	1	noise_calib_stim_LEFT.wav	1	36	blb_dichoticlistening_ta-ta.mp3	ta	ta	0	left
6.6.1	win	2023-06-02	06:55:14	07:09:30	846306	6272b9dfc470a51d5fa0e6ea	1	1	practice_slash	22	advance_on_keypress_SLASH	22	stimuli_distractor_diamondtriangles.svg	stimuli_distractor_trianglediamonds.svg	14	no	57	0	512	6	3	antiphase_hc_soi.wav	1	6	1	noise_calib_stim_LEFT.wav	1	36	blb_dichoticlistening_ta-ta.mp3	ta	ta	0	left
6.6.1	win	2023-06-02	06:55:14	07:09:33	849593	6272b9dfc470a51d5fa0e6ea	1	1	practice_slash	22	practice_slash	23	stimuli_target_diamondsquares.svg	stimuli_distractor_trianglediamonds.svg	6	yes	53	1	1123	6	3	antiphase_hc_soi.wav	1	6	1	noise_calib_stim_LEFT.wav	1	36	blb_dichoticlistening_ta-ta.mp3	ta	ta	0	left
6.6.1	win	2023-06-02	06:55:14	07:09:33	849593	6272b9dfc470a51d5fa0e6ea	1	1	practice_slash	22	advance_on_keypress_SLASH	24	stimuli_target_diamondsquares.svg	stimuli_distractor_trianglediamonds.svg	6	yes	57	0	774	6	3	antiphase_hc_soi.wav	1	6	1	noise_calib_stim_LEFT.wav	1	36	blb_dichoticlistening_ta-ta.mp3	ta	ta	0	left
6.6.1	win	2023-06-02	06:55:14	07:09:36	853093	6272b9dfc470a51d5fa0e6ea	1	1	practice_slash	22	practice_slash	25	stimuli_target_squarediamonds.svg	stimuli_distractor_diamondtriangles.svg	2	yes	53	1	1090	6	3	antiphase_hc_soi.wav	1	6	1	noise_calib_stim_LEFT.wav	1	36	blb_dichoticlistening_ta-ta.mp3	ta	ta	0	left
6.6.1	win	2023-06-02	06:55:14	07:09:36	853093	6272b9dfc470a51d5fa0e6ea	1	1	practice_slash	22	advance_on_keypress_SLASH	26	stimuli_target_squarediamonds.svg	stimuli_distractor_diamondtriangles.svg	2	yes	57	0	885	6	3	antiphase_hc_soi.wav	1	6	1	noise_calib_stim_LEFT.wav	1	36	blb_dichoticlistening_ta-ta.mp3	ta	ta	0	left
6.6.1	win	2023-06-02	06:55:14	07:09:40	856573	6272b9dfc470a51d5fa0e6ea	1	1	practice_slash	22	practice_slash	27	stimuli_target_diamondsquares.svg	stimuli_distractor_diamondtriangles.svg	3	yes	53	1	955	6	3	antiphase_hc_soi.wav	1	6	1	noise_calib_stim_LEFT.wav	1	36	blb_dichoticlistening_ta-ta.mp3	ta	ta	0	left
6.6.1	win	2023-06-02	06:55:14	07:09:40	856573	6272b9dfc470a51d5fa0e6ea	1	1	practice_slash	22	advance_on_keypress_SLASH	28	stimuli_target_diamondsquares.svg	stimuli_distractor_diamondtriangles.svg	3	yes	57	0	614	6	3	antiphase_hc_soi.wav	1	6	1	noise_calib_stim_LEFT.wav	1	36	blb_dichoticlistening_ta-ta.mp3	ta	ta	0	left
6.6.1	win	2023-06-02	06:55:14	07:09:43	859789	6272b9dfc470a51d5fa0e6ea	1	1	practice_slash	22	practice_slash	29	stimuli_distractor_trianglediamonds.svg	stimuli_target_squarediamonds.svg	11	yes	53	1	954	6	3	antiphase_hc_soi.wav	1	6	1	noise_calib_stim_LEFT.wav	1	36	blb_dichoticlistening_ta-ta.mp3	ta	ta	0	left
6.6.1	win	2023-06-02	06:55:14	07:09:43	859789	6272b9dfc470a51d5fa0e6ea	1	1	practice_slash	22	advance_on_keypress_SLASH	30	stimuli_distractor_trianglediamonds.svg	stimuli_target_squarediamonds.svg	11	yes	57	0	498	6	3	antiphase_hc_soi.wav	1	6	1	noise_calib_stim_LEFT.wav	1	36	blb_dichoticlistening_ta-ta.mp3	ta	ta	0	left
6.6.1	win	2023-06-02	06:55:14	07:09:47	863934	6272b9dfc470a51d5fa0e6ea	1	1	practice_slash	22	practice_slash	31	stimuli_distractor_trianglediamonds.svg	stimuli_distractor_trianglediamonds.svg	15	no	0	1	2000	6	3	antiphase_hc_soi.wav	1	6	1	noise_calib_stim_LEFT.wav	1	36	blb_dichoticlistening_ta-ta.mp3	ta	ta	0	left
6.6.1	win	2023-06-02	06:55:14	07:09:47	863934	6272b9dfc470a51d5fa0e6ea	1	1	practice_slash	22	advance_on_keypress_SLASH	32	stimuli_distractor_trianglediamonds.svg	stimuli_distractor_trianglediamonds.svg	15	no	57	0	551	6	3	antiphase_hc_soi.wav	1	6	1	noise_calib_stim_LEFT.wav	1	36	blb_dichoticlistening_ta-ta.mp3	ta	ta	0	left
6.6.1	win	2023-06-02	06:55:14	07:10:11	887369	6272b9dfc470a51d5fa0e6ea	1	1	main_slash	24	main_slash	1	stimuli_distractor_diamondtriangles.svg	stimuli_target_diamondsquares.svg	32	yes	53	1	877	6	3	antiphase_hc_soi.wav	1	6	1	noise_calib_stim_LEFT.wav	1	36	blb_dichoticlistening_ta-ta.mp3	ta	ta	0	left
6.6.1	win	2023-06-02	06:55:14	07:10:11	887369	6272b9dfc470a51d5fa0e6ea	1	1	main_slash	24	advance_on_keypress_SLASH	2	stimuli_distractor_diamondtriangles.svg	stimuli_target_diamondsquares.svg	32	yes	57	0	1242	6	3	antiphase_hc_soi.wav	1	6	1	noise_calib_stim_LEFT.wav	1	36	blb_dichoticlistening_ta-ta.mp3	ta	ta	0	left
6.6.1	win	2023-06-02	06:55:14	07:10:14	890248	6272b9dfc470a51d5fa0e6ea	1	1	main_slash	24	main_slash	3	stimuli_target_diamondsquares.svg	stimuli_distractor_trianglediamonds.svg	20	yes	53	1	991	6	3	antiphase_hc_soi.wav	1	6	1	noise_calib_stim_LEFT.wav	1	36	blb_dichoticlistening_ta-ta.mp3	ta	ta	0	left
6.6.1	win	2023-06-02	06:55:14	07:10:14	890248	6272b9dfc470a51d5fa0e6ea	1	1	main_slash	24	advance_on_keypress_SLASH	4	stimuli_target_diamondsquares.svg	stimuli_distractor_trianglediamonds.svg	20	yes	57	0	1174	6	3	antiphase_hc_soi.wav	1	6	1	noise_calib_stim_LEFT.wav	1	36	blb_dichoticlistening_ta-ta.mp3	ta	ta	0	left
6.6.1	win	2023-06-02	06:55:14	07:10:16	892934	6272b9dfc470a51d5fa0e6ea	1	1	main_slash	24	main_slash	5	stimuli_distractor_trianglediamonds.svg	stimuli_target_rectanglediamonds.svg	10	yes	53	1	876	6	3	antiphase_hc_soi.wav	1	6	1	noise_calib_stim_LEFT.wav	1	36	blb_dichoticlistening_ta-ta.mp3	ta	ta	0	left
6.6.1	win	2023-06-02	06:55:14	07:10:16	892934	6272b9dfc470a51d5fa0e6ea	1	1	main_slash	24	advance_on_keypress_SLASH	6	stimuli_distractor_trianglediamonds.svg	stimuli_target_rectanglediamonds.svg	10	yes	57	0	743	6	3	antiphase_hc_soi.wav	1	6	1	noise_calib_stim_LEFT.wav	1	36	blb_dichoticlistening_ta-ta.mp3	ta	ta	0	left
6.6.1	win	2023-06-02	06:55:14	07:10:18	895109	6272b9dfc470a51d5fa0e6ea	1	1	main_slash	24	main_slash	7	stimuli_target_diamondrectangles.svg	stimuli_distractor_diamondtriangles.svg	23	yes	53	1	803	6	3	antiphase_hc_soi.wav	1	6	1	noise_calib_stim_LEFT.wav	1	36	blb_dichoticlistening_ta-ta.mp3	ta	ta	0	left
6.6.1	win	2023-06-02	06:55:14	07:10:18	895109	6272b9dfc470a51d5fa0e6ea	1	1	main_slash	24	advance_on_keypress_SLASH	8	stimuli_target_diamondrectangles.svg	stimuli_distractor_diamondtriangles.svg	23	yes	57	0	600	6	3	antiphase_hc_soi.wav	1	6	1	noise_calib_stim_LEFT.wav	1	36	blb_dichoticlistening_ta-ta.mp3	ta	ta	0	left
6.6.1	win	2023-06-02	06:55:14	07:10:21	897204	6272b9dfc470a51d5fa0e6ea	1	1	main_slash	24	main_slash	9	stimuli_distractor_trianglediamonds.svg	stimuli_target_trianglesquares.svg	26	yes	53	1	847	6	3	antiphase_hc_soi.wav	1	6	1	noise_calib_stim_LEFT.wav	1	36	blb_dichoticlistening_ta-ta.mp3	ta	ta	0	left
6.6.1	win	2023-06-02	06:55:14	07:10:21	897204	6272b9dfc470a51d5fa0e6ea	1	1	main_slash	24	advance_on_keypress_SLASH	10	stimuli_distractor_trianglediamonds.svg	stimuli_target_trianglesquares.svg	26	yes	57	0	615	6	3	antiphase_hc_soi.wav	1	6	1	noise_calib_stim_LEFT.wav	1	36	blb_dichoticlistening_ta-ta.mp3	ta	ta	0	left
6.6.1	win	2023-06-02	06:55:14	07:10:23	899726	6272b9dfc470a51d5fa0e6ea	1	1	main_slash	24	main_slash	11	stimuli_distractor_diamondtriangles.svg	stimuli_target_trianglesquares.svg	30	yes	53	1	1253	6	3	antiphase_hc_soi.wav	1	6	1	noise_calib_stim_LEFT.wav	1	36	blb_dichoticlistening_ta-ta.mp3	ta	ta	0	left
6.6.1	win	2023-06-02	06:55:14	07:10:23	899726	6272b9dfc470a51d5fa0e6ea	1	1	main_slash	24	advance_on_keypress_SLASH	12	stimuli_distractor_diamondtriangles.svg	stimuli_target_trianglesquares.svg	30	yes	57	0	580	6	3	antiphase_hc_soi.wav	1	6	1	noise_calib_stim_LEFT.wav	1	36	blb_dichoticlistening_ta-ta.mp3	ta	ta	0	left
6.6.1	win	2023-06-02	06:55:14	07:10:26	902955	6272b9dfc470a51d5fa0e6ea	1	1	main_slash	24	main_slash	13	stimuli_target_squaretriangles.svg	stimuli_distractor_diamondtriangles.svg	7	yes	0	0	2000	6	3	antiphase_hc_soi.wav	1	6	1	noise_calib_stim_LEFT.wav	1	36	blb_dichoticlistening_ta-ta.mp3	ta	ta	0	left
6.6.1	win	2023-06-02	06:55:14	07:10:26	902955	6272b9dfc470a51d5fa0e6ea	1	1	main_slash	24	advance_on_keypress_SLASH	14	stimuli_target_squaretriangles.svg	stimuli_distractor_diamondtriangles.svg	7	yes	57	0	848	6	3	antiphase_hc_soi.wav	1	6	1	noise_calib_stim_LEFT.wav	1	36	blb_dichoticlistening_ta-ta.mp3	ta	ta	0	left
6.6.1	win	2023-06-02	06:55:14	07:10:30	906454	6272b9dfc470a51d5fa0e6ea	1	1	main_slash	24	main_slash	15	stimuli_target_rectangletriangles.svg	stimuli_distractor_diamondtriangles.svg	5	yes	0	0	2000	6	3	antiphase_hc_soi.wav	1	6	1	noise_calib_stim_LEFT.wav	1	36	blb_dichoticlistening_ta-ta.mp3	ta	ta	0	left
6.6.1	win	2023-06-02	06:55:14	07:10:30	906454	6272b9dfc470a51d5fa0e6ea	1	1	main_slash	24	advance_on_keypress_SLASH	16	stimuli_target_rectangletriangles.svg	stimuli_distractor_diamondtriangles.svg	5	yes	57	0	609	6	3	antiphase_hc_soi.wav	1	6	1	noise_calib_stim_LEFT.wav	1	36	blb_dichoticlistening_ta-ta.mp3	ta	ta	0	left
6.6.1	win	2023-06-02	06:55:14	07:10:33	909703	6272b9dfc470a51d5fa0e6ea	1	1	main_slash	24	main_slash	17	stimuli_target_squaretriangles.svg	stimuli_distractor_trianglediamonds.svg	3	yes	0	0	2000	6	3	antiphase_hc_soi.wav	1	6	1	noise_calib_stim_LEFT.wav	1	36	blb_dichoticlistening_ta-ta.mp3	ta	ta	0	left
6.6.1	win	2023-06-02	06:55:14	07:10:33	909703	6272b9dfc470a51d5fa0e6ea	1	1	main_slash	24	advance_on_keypress_SLASH	18	stimuli_target_squaretriangles.svg	stimuli_distractor_trianglediamonds.svg	3	yes	57	0	723	6	3	antiphase_hc_soi.wav	1	6	1	noise_calib_stim_LEFT.wav	1	36	blb_dichoticlistening_ta-ta.mp3	ta	ta	0	left
6.6.1	win	2023-06-02	06:55:14	07:10:35	912062	6272b9dfc470a51d5fa0e6ea	1	1	main_slash	24	main_slash	19	stimuli_distractor_diamondtriangles.svg	stimuli_target_squarediamonds.svg	16	yes	53	1	993	6	3	antiphase_hc_soi.wav	1	6	1	noise_calib_stim_LEFT.wav	1	36	blb_dichoticlistening_ta-ta.mp3	ta	ta	0	left
6.6.1	win	2023-06-02	06:55:14	07:10:35	912062	6272b9dfc470a51d5fa0e6ea	1	1	main_slash	24	advance_on_keypress_SLASH	20	stimuli_distractor_diamondtriangles.svg	stimuli_target_squarediamonds.svg	16	yes	57	0	678	6	3	antiphase_hc_soi.wav	1	6	1	noise_calib_stim_LEFT.wav	1	36	blb_dichoticlistening_ta-ta.mp3	ta	ta	0	left
6.6.1	win	2023-06-02	06:55:14	07:10:38	914321	6272b9dfc470a51d5fa0e6ea	1	1	main_slash	24	main_slash	21	stimuli_distractor_diamondtriangles.svg	stimuli_target_rectangletriangles.svg	13	yes	53	1	953	6	3	antiphase_hc_soi.wav	1	6	1	noise_calib_stim_LEFT.wav	1	36	blb_dichoticlistening_ta-ta.mp3	ta	ta	0	left
6.6.1	win	2023-06-02	06:55:14	07:10:38	914321	6272b9dfc470a51d5fa0e6ea	1	1	main_slash	24	advance_on_keypress_SLASH	22	stimuli_distractor_diamondtriangles.svg	stimuli_target_rectangletriangles.svg	13	yes	57	0	481	6	3	antiphase_hc_soi.wav	1	6	1	noise_calib_stim_LEFT.wav	1	36	blb_dichoticlistening_ta-ta.mp3	ta	ta	0	left
6.6.1	win	2023-06-02	06:55:14	07:10:41	917451	6272b9dfc470a51d5fa0e6ea	1	1	main_slash	24	main_slash	23	stimuli_distractor_trianglediamonds.svg	stimuli_distractor_diamondtriangles.svg	36	no	0	1	2000	6	3	antiphase_hc_soi.wav	1	6	1	noise_calib_stim_LEFT.wav	1	36	blb_dichoticlistening_ta-ta.mp3	ta	ta	0	left
6.6.1	win	2023-06-02	06:55:14	07:10:41	917451	6272b9dfc470a51d5fa0e6ea	1	1	main_slash	24	advance_on_keypress_SLASH	24	stimuli_distractor_trianglediamonds.svg	stimuli_distractor_diamondtriangles.svg	36	no	57	0	542	6	3	antiphase_hc_soi.wav	1	6	1	noise_calib_stim_LEFT.wav	1	36	blb_dichoticlistening_ta-ta.mp3	ta	ta	0	left
6.6.1	win	2023-06-02	06:55:14	07:10:43	919554	6272b9dfc470a51d5fa0e6ea	1	1	main_slash	24	main_slash	25	stimuli_target_rectanglediamonds.svg	stimuli_distractor_trianglediamonds.svg	2	yes	53	1	920	6	3	antiphase_hc_soi.wav	1	6	1	noise_calib_stim_LEFT.wav	1	36	blb_dichoticlistening_ta-ta.mp3	ta	ta	0	left
6.6.1	win	2023-06-02	06:55:14	07:10:43	919554	6272b9dfc470a51d5fa0e6ea	1	1	main_slash	24	advance_on_keypress_SLASH	26	stimuli_target_rectanglediamonds.svg	stimuli_distractor_trianglediamonds.svg	2	yes	57	0	933	6	3	antiphase_hc_soi.wav	1	6	1	noise_calib_stim_LEFT.wav	1	36	blb_dichoticlistening_ta-ta.mp3	ta	ta	0	left
6.6.1	win	2023-06-02	06:55:14	07:10:45	922061	6272b9dfc470a51d5fa0e6ea	1	1	main_slash	24	main_slash	27	stimuli_distractor_trianglediamonds.svg	stimuli_target_squaretriangles.svg	11	yes	53	1	928	6	3	antiphase_hc_soi.wav	1	6	1	noise_calib_stim_LEFT.wav	1	36	blb_dichoticlistening_ta-ta.mp3	ta	ta	0	left
6.6.1	win	2023-06-02	06:55:14	07:10:45	922061	6272b9dfc470a51d5fa0e6ea	1	1	main_slash	24	advance_on_keypress_SLASH	28	stimuli_distractor_trianglediamonds.svg	stimuli_target_squaretriangles.svg	11	yes	57	0	597	6	3	antiphase_hc_soi.wav	1	6	1	noise_calib_stim_LEFT.wav	1	36	blb_dichoticlistening_ta-ta.mp3	ta	ta	0	left
6.6.1	win	2023-06-02	06:55:14	07:10:48	924368	6272b9dfc470a51d5fa0e6ea	1	1	main_slash	24	main_slash	29	stimuli_distractor_trianglediamonds.svg	stimuli_target_trianglerectangles.svg	25	yes	53	1	1053	6	3	antiphase_hc_soi.wav	1	6	1	noise_calib_stim_LEFT.wav	1	36	blb_dichoticlistening_ta-ta.mp3	ta	ta	0	left
6.6.1	win	2023-06-02	06:55:14	07:10:48	924368	6272b9dfc470a51d5fa0e6ea	1	1	main_slash	24	advance_on_keypress_SLASH	30	stimuli_distractor_trianglediamonds.svg	stimuli_target_trianglerectangles.svg	25	yes	57	0	942	6	3	antiphase_hc_soi.wav	1	6	1	noise_calib_stim_LEFT.wav	1	36	blb_dichoticlistening_ta-ta.mp3	ta	ta	0	left
6.6.1	win	2023-06-02	06:55:14	07:10:50	926961	6272b9dfc470a51d5fa0e6ea	1	1	main_slash	24	main_slash	31	stimuli_target_trianglesquares.svg	stimuli_distractor_trianglediamonds.svg	18	yes	53	1	1012	6	3	antiphase_hc_soi.wav	1	6	1	noise_calib_stim_LEFT.wav	1	36	blb_dichoticlistening_ta-ta.mp3	ta	ta	0	left
6.6.1	win	2023-06-02	06:55:14	07:10:50	926961	6272b9dfc470a51d5fa0e6ea	1	1	main_slash	24	advance_on_keypress_SLASH	32	stimuli_target_trianglesquares.svg	stimuli_distractor_trianglediamonds.svg	18	yes	57	0	719	6	3	antiphase_hc_soi.wav	1	6	1	noise_calib_stim_LEFT.wav	1	36	blb_dichoticlistening_ta-ta.mp3	ta	ta	0	left
6.6.1	win	2023-06-02	06:55:14	07:10:53	929266	6272b9dfc470a51d5fa0e6ea	1	1	main_slash	24	main_slash	33	stimuli_distractor_diamondtriangles.svg	stimuli_target_trianglerectangles.svg	29	yes	53	1	935	6	3	antiphase_hc_soi.wav	1	6	1	noise_calib_stim_LEFT.wav	1	36	blb_dichoticlistening_ta-ta.mp3	ta	ta	0	left
6.6.1	win	2023-06-02	06:55:14	07:10:53	929266	6272b9dfc470a51d5fa0e6ea	1	1	main_slash	24	advance_on_keypress_SLASH	34	stimuli_distractor_diamondtriangles.svg	stimuli_target_trianglerectangles.svg	29	yes	57	0	5115	6	3	antiphase_hc_soi.wav	1	6	1	noise_calib_stim_LEFT.wav	1	36	blb_dichoticlistening_ta-ta.mp3	ta	ta	0	left
6.6.1	win	2023-06-02	06:55:14	07:10:59	935786	6272b9dfc470a51d5fa0e6ea	1	1	main_slash	24	main_slash	35	stimuli_target_squarediamonds.svg	stimuli_distractor_diamondtriangles.svg	8	yes	53	1	756	6	3	antiphase_hc_soi.wav	1	6	1	noise_calib_stim_LEFT.wav	1	36	blb_dichoticlistening_ta-ta.mp3	ta	ta	0	left
6.6.1	win	2023-06-02	06:55:14	07:10:59	935786	6272b9dfc470a51d5fa0e6ea	1	1	main_slash	24	advance_on_keypress_SLASH	36	stimuli_target_squarediamonds.svg	stimuli_distractor_diamondtriangles.svg	8	yes	57	0	534	6	3	antiphase_hc_soi.wav	1	6	1	noise_calib_stim_LEFT.wav	1	36	blb_dichoticlistening_ta-ta.mp3	ta	ta	0	left
6.6.1	win	2023-06-02	06:55:14	07:11:01	937861	6272b9dfc470a51d5fa0e6ea	1	1	main_slash	24	main_slash	37	stimuli_target_trianglerectangles.svg	stimuli_distractor_diamondtriangles.svg	21	yes	53	1	898	6	3	antiphase_hc_soi.wav	1	6	1	noise_calib_stim_LEFT.wav	1	36	blb_dichoticlistening_ta-ta.mp3	ta	ta	0	left
6.6.1	win	2023-06-02	06:55:14	07:11:01	937861	6272b9dfc470a51d5fa0e6ea	1	1	main_slash	24	advance_on_keypress_SLASH	38	stimuli_target_trianglerectangles.svg	stimuli_distractor_diamondtriangles.svg	21	yes	57	0	430	6	3	antiphase_hc_soi.wav	1	6	1	noise_calib_stim_LEFT.wav	1	36	blb_dichoticlistening_ta-ta.mp3	ta	ta	0	left
6.6.1	win	2023-06-02	06:55:14	07:11:03	939879	6272b9dfc470a51d5fa0e6ea	1	1	main_slash	24	main_slash	39	stimuli_distractor_trianglediamonds.svg	stimuli_target_rectangletriangles.svg	9	yes	53	1	933	6	3	antiphase_hc_soi.wav	1	6	1	noise_calib_stim_LEFT.wav	1	36	blb_dichoticlistening_ta-ta.mp3	ta	ta	0	left
6.6.1	win	2023-06-02	06:55:14	07:11:03	939879	6272b9dfc470a51d5fa0e6ea	1	1	main_slash	24	advance_on_keypress_SLASH	40	stimuli_distractor_trianglediamonds.svg	stimuli_target_rectangletriangles.svg	9	yes	57	0	444	6	3	antiphase_hc_soi.wav	1	6	1	noise_calib_stim_LEFT.wav	1	36	blb_dichoticlistening_ta-ta.mp3	ta	ta	0	left
6.6.1	win	2023-06-02	06:55:14	07:11:06	942961	6272b9dfc470a51d5fa0e6ea	1	1	main_slash	24	main_slash	41	stimuli_distractor_diamondtriangles.svg	stimuli_distractor_trianglediamonds.svg	38	no	0	1	2000	6	3	antiphase_hc_soi.wav	1	6	1	noise_calib_stim_LEFT.wav	1	36	blb_dichoticlistening_ta-ta.mp3	ta	ta	0	left
6.6.1	win	2023-06-02	06:55:14	07:11:06	942961	6272b9dfc470a51d5fa0e6ea	1	1	main_slash	24	advance_on_keypress_SLASH	42	stimuli_distractor_diamondtriangles.svg	stimuli_distractor_trianglediamonds.svg	38	no	57	0	373	6	3	antiphase_hc_soi.wav	1	6	1	noise_calib_stim_LEFT.wav	1	36	blb_dichoticlistening_ta-ta.mp3	ta	ta	0	left
6.6.1	win	2023-06-02	06:55:14	07:11:08	944913	6272b9dfc470a51d5fa0e6ea	1	1	main_slash	24	main_slash	43	stimuli_distractor_diamondtriangles.svg	stimuli_target_diamondrectangles.svg	31	yes	53	1	936	6	3	antiphase_hc_soi.wav	1	6	1	noise_calib_stim_LEFT.wav	1	36	blb_dichoticlistening_ta-ta.mp3	ta	ta	0	left
6.6.1	win	2023-06-02	06:55:14	07:11:08	944913	6272b9dfc470a51d5fa0e6ea	1	1	main_slash	24	advance_on_keypress_SLASH	44	stimuli_distractor_diamondtriangles.svg	stimuli_target_diamondrectangles.svg	31	yes	57	0	526	6	3	antiphase_hc_soi.wav	1	6	1	noise_calib_stim_LEFT.wav	1	36	blb_dichoticlistening_ta-ta.mp3	ta	ta	0	left
6.6.1	win	2023-06-02	06:55:14	07:11:10	947028	6272b9dfc470a51d5fa0e6ea	1	1	main_slash	24	main_slash	45	stimuli_target_trianglesquares.svg	stimuli_distractor_diamondtriangles.svg	22	yes	53	1	952	6	3	antiphase_hc_soi.wav	1	6	1	noise_calib_stim_LEFT.wav	1	36	blb_dichoticlistening_ta-ta.mp3	ta	ta	0	left
6.6.1	win	2023-06-02	06:55:14	07:11:10	947028	6272b9dfc470a51d5fa0e6ea	1	1	main_slash	24	advance_on_keypress_SLASH	46	stimuli_target_trianglesquares.svg	stimuli_distractor_diamondtriangles.svg	22	yes	57	0	602	6	3	antiphase_hc_soi.wav	1	6	1	noise_calib_stim_LEFT.wav	1	36	blb_dichoticlistening_ta-ta.mp3	ta	ta	0	left
6.6.1	win	2023-06-02	06:55:14	07:11:13	949222	6272b9dfc470a51d5fa0e6ea	1	1	main_slash	24	main_slash	47	stimuli_distractor_trianglediamonds.svg	stimuli_target_diamondrectangles.svg	27	yes	53	1	945	6	3	antiphase_hc_soi.wav	1	6	1	noise_calib_stim_LEFT.wav	1	36	blb_dichoticlistening_ta-ta.mp3	ta	ta	0	left
6.6.1	win	2023-06-02	06:55:14	07:11:13	949222	6272b9dfc470a51d5fa0e6ea	1	1	main_slash	24	advance_on_keypress_SLASH	48	stimuli_distractor_trianglediamonds.svg	stimuli_target_diamondrectangles.svg	27	yes	57	0	520	6	3	antiphase_hc_soi.wav	1	6	1	noise_calib_stim_LEFT.wav	1	36	blb_dichoticlistening_ta-ta.mp3	ta	ta	0	left
6.6.1	win	2023-06-02	06:55:14	07:11:16	952392	6272b9dfc470a51d5fa0e6ea	1	1	main_slash	24	main_slash	49	stimuli_distractor_diamondtriangles.svg	stimuli_distractor_diamondtriangles.svg	40	no	0	1	2000	6	3	antiphase_hc_soi.wav	1	6	1	noise_calib_stim_LEFT.wav	1	36	blb_dichoticlistening_ta-ta.mp3	ta	ta	0	left
6.6.1	win	2023-06-02	06:55:14	07:11:16	952392	6272b9dfc470a51d5fa0e6ea	1	1	main_slash	24	advance_on_keypress_SLASH	50	stimuli_distractor_diamondtriangles.svg	stimuli_distractor_diamondtriangles.svg	40	no	57	0	469	6	3	antiphase_hc_soi.wav	1	6	1	noise_calib_stim_LEFT.wav	1	36	blb_dichoticlistening_ta-ta.mp3	ta	ta	0	left
6.6.1	win	2023-06-02	06:55:14	07:11:18	954370	6272b9dfc470a51d5fa0e6ea	1	1	main_slash	24	main_slash	51	stimuli_distractor_trianglediamonds.svg	stimuli_target_squarediamonds.svg	12	yes	53	1	862	6	3	antiphase_hc_soi.wav	1	6	1	noise_calib_stim_LEFT.wav	1	36	blb_dichoticlistening_ta-ta.mp3	ta	ta	0	left
6.6.1	win	2023-06-02	06:55:14	07:11:18	954370	6272b9dfc470a51d5fa0e6ea	1	1	main_slash	24	advance_on_keypress_SLASH	52	stimuli_distractor_trianglediamonds.svg	stimuli_target_squarediamonds.svg	12	yes	57	0	503	6	3	antiphase_hc_soi.wav	1	6	1	noise_calib_stim_LEFT.wav	1	36	blb_dichoticlistening_ta-ta.mp3	ta	ta	0	left
6.6.1	win	2023-06-02	06:55:14	07:11:20	956350	6272b9dfc470a51d5fa0e6ea	1	1	main_slash	24	main_slash	53	stimuli_target_diamondsquares.svg	stimuli_distractor_diamondtriangles.svg	24	yes	53	1	826	6	3	antiphase_hc_soi.wav	1	6	1	noise_calib_stim_LEFT.wav	1	36	blb_dichoticlistening_ta-ta.mp3	ta	ta	0	left
6.6.1	win	2023-06-02	06:55:14	07:11:20	956350	6272b9dfc470a51d5fa0e6ea	1	1	main_slash	24	advance_on_keypress_SLASH	54	stimuli_target_diamondsquares.svg	stimuli_distractor_diamondtriangles.svg	24	yes	57	0	640	6	3	antiphase_hc_soi.wav	1	6	1	noise_calib_stim_LEFT.wav	1	36	blb_dichoticlistening_ta-ta.mp3	ta	ta	0	left
6.6.1	win	2023-06-02	06:55:14	07:11:22	958502	6272b9dfc470a51d5fa0e6ea	1	1	main_slash	24	main_slash	55	stimuli_target_rectangletriangles.svg	stimuli_distractor_trianglediamonds.svg	1	yes	53	1	878	6	3	antiphase_hc_soi.wav	1	6	1	noise_calib_stim_LEFT.wav	1	36	blb_dichoticlistening_ta-ta.mp3	ta	ta	0	left
6.6.1	win	2023-06-02	06:55:14	07:11:22	958502	6272b9dfc470a51d5fa0e6ea	1	1	main_slash	24	advance_on_keypress_SLASH	56	stimuli_target_rectangletriangles.svg	stimuli_distractor_trianglediamonds.svg	1	yes	57	0	613	6	3	antiphase_hc_soi.wav	1	6	1	noise_calib_stim_LEFT.wav	1	36	blb_dichoticlistening_ta-ta.mp3	ta	ta	0	left
6.6.1	win	2023-06-02	06:55:14	07:11:25	961773	6272b9dfc470a51d5fa0e6ea	1	1	main_slash	24	main_slash	57	stimuli_distractor_trianglediamonds.svg	stimuli_distractor_trianglediamonds.svg	33	no	0	1	2000	6	3	antiphase_hc_soi.wav	1	6	1	noise_calib_stim_LEFT.wav	1	36	blb_dichoticlistening_ta-ta.mp3	ta	ta	0	left
6.6.1	win	2023-06-02	06:55:14	07:11:25	961773	6272b9dfc470a51d5fa0e6ea	1	1	main_slash	24	advance_on_keypress_SLASH	58	stimuli_distractor_trianglediamonds.svg	stimuli_distractor_trianglediamonds.svg	33	no	57	0	782	6	3	antiphase_hc_soi.wav	1	6	1	noise_calib_stim_LEFT.wav	1	36	blb_dichoticlistening_ta-ta.mp3	ta	ta	0	left
6.6.1	win	2023-06-02	06:55:14	07:11:27	964155	6272b9dfc470a51d5fa0e6ea	1	1	main_slash	24	main_slash	59	stimuli_distractor_diamondtriangles.svg	stimuli_target_squaretriangles.svg	15	yes	53	1	950	6	3	antiphase_hc_soi.wav	1	6	1	noise_calib_stim_LEFT.wav	1	36	blb_dichoticlistening_ta-ta.mp3	ta	ta	0	left
6.6.1	win	2023-06-02	06:55:14	07:11:27	964155	6272b9dfc470a51d5fa0e6ea	1	1	main_slash	24	advance_on_keypress_SLASH	60	stimuli_distractor_diamondtriangles.svg	stimuli_target_squaretriangles.svg	15	yes	57	0	758	6	3	antiphase_hc_soi.wav	1	6	1	noise_calib_stim_LEFT.wav	1	36	blb_dichoticlistening_ta-ta.mp3	ta	ta	0	left
6.6.1	win	2023-06-02	06:55:14	07:11:30	966463	6272b9dfc470a51d5fa0e6ea	1	1	main_slash	24	main_slash	61	stimuli_distractor_trianglediamonds.svg	stimuli_target_diamondsquares.svg	28	yes	53	1	909	6	3	antiphase_hc_soi.wav	1	6	1	noise_calib_stim_LEFT.wav	1	36	blb_dichoticlistening_ta-ta.mp3	ta	ta	0	left
6.6.1	win	2023-06-02	06:55:14	07:11:30	966463	6272b9dfc470a51d5fa0e6ea	1	1	main_slash	24	advance_on_keypress_SLASH	62	stimuli_distractor_trianglediamonds.svg	stimuli_target_diamondsquares.svg	28	yes	57	0	649	6	3	antiphase_hc_soi.wav	1	6	1	noise_calib_stim_LEFT.wav	1	36	blb_dichoticlistening_ta-ta.mp3	ta	ta	0	left
6.6.1	win	2023-06-02	06:55:14	07:11:33	969754	6272b9dfc470a51d5fa0e6ea	1	1	main_slash	24	main_slash	63	stimuli_distractor_trianglediamonds.svg	stimuli_distractor_trianglediamonds.svg	34	no	0	1	2000	6	3	antiphase_hc_soi.wav	1	6	1	noise_calib_stim_LEFT.wav	1	36	blb_dichoticlistening_ta-ta.mp3	ta	ta	0	left
6.6.1	win	2023-06-02	06:55:14	07:11:33	969754	6272b9dfc470a51d5fa0e6ea	1	1	main_slash	24	advance_on_keypress_SLASH	64	stimuli_distractor_trianglediamonds.svg	stimuli_distractor_trianglediamonds.svg	34	no	57	0	781	6	3	antiphase_hc_soi.wav	1	6	1	noise_calib_stim_LEFT.wav	1	36	blb_dichoticlistening_ta-ta.mp3	ta	ta	0	left
6.6.1	win	2023-06-02	06:55:14	07:11:35	972154	6272b9dfc470a51d5fa0e6ea	1	1	main_slash	24	main_slash	65	stimuli_target_diamondrectangles.svg	stimuli_distractor_trianglediamonds.svg	19	yes	53	1	968	6	3	antiphase_hc_soi.wav	1	6	1	noise_calib_stim_LEFT.wav	1	36	blb_dichoticlistening_ta-ta.mp3	ta	ta	0	left
6.6.1	win	2023-06-02	06:55:14	07:11:35	972154	6272b9dfc470a51d5fa0e6ea	1	1	main_slash	24	advance_on_keypress_SLASH	66	stimuli_target_diamondrectangles.svg	stimuli_distractor_trianglediamonds.svg	19	yes	57	0	842	6	3	antiphase_hc_soi.wav	1	6	1	noise_calib_stim_LEFT.wav	1	36	blb_dichoticlistening_ta-ta.mp3	ta	ta	0	left
6.6.1	win	2023-06-02	06:55:14	07:11:39	975636	6272b9dfc470a51d5fa0e6ea	1	1	main_slash	24	main_slash	67	stimuli_distractor_diamondtriangles.svg	stimuli_distractor_trianglediamonds.svg	37	no	0	1	2000	6	3	antiphase_hc_soi.wav	1	6	1	noise_calib_stim_LEFT.wav	1	36	blb_dichoticlistening_ta-ta.mp3	ta	ta	0	left
6.6.1	win	2023-06-02	06:55:14	07:11:39	975636	6272b9dfc470a51d5fa0e6ea	1	1	main_slash	24	advance_on_keypress_SLASH	68	stimuli_distractor_diamondtriangles.svg	stimuli_distractor_trianglediamonds.svg	37	no	57	0	497	6	3	antiphase_hc_soi.wav	1	6	1	noise_calib_stim_LEFT.wav	1	36	blb_dichoticlistening_ta-ta.mp3	ta	ta	0	left
6.6.1	win	2023-06-02	06:55:14	07:11:41	977685	6272b9dfc470a51d5fa0e6ea	1	1	main_slash	24	main_slash	69	stimuli_distractor_diamondtriangles.svg	stimuli_target_rectanglediamonds.svg	14	yes	53	1	899	6	3	antiphase_hc_soi.wav	1	6	1	noise_calib_stim_LEFT.wav	1	36	blb_dichoticlistening_ta-ta.mp3	ta	ta	0	left
6.6.1	win	2023-06-02	06:55:14	07:11:41	977685	6272b9dfc470a51d5fa0e6ea	1	1	main_slash	24	advance_on_keypress_SLASH	70	stimuli_distractor_diamondtriangles.svg	stimuli_target_rectanglediamonds.svg	14	yes	57	0	553	6	3	antiphase_hc_soi.wav	1	6	1	noise_calib_stim_LEFT.wav	1	36	blb_dichoticlistening_ta-ta.mp3	ta	ta	0	left
6.6.1	win	2023-06-02	06:55:14	07:11:44	980885	6272b9dfc470a51d5fa0e6ea	1	1	main_slash	24	main_slash	71	stimuli_distractor_diamondtriangles.svg	stimuli_distractor_diamondtriangles.svg	39	no	0	1	2000	6	3	antiphase_hc_soi.wav	1	6	1	noise_calib_stim_LEFT.wav	1	36	blb_dichoticlistening_ta-ta.mp3	ta	ta	0	left
6.6.1	win	2023-06-02	06:55:14	07:11:44	980885	6272b9dfc470a51d5fa0e6ea	1	1	main_slash	24	advance_on_keypress_SLASH	72	stimuli_distractor_diamondtriangles.svg	stimuli_distractor_diamondtriangles.svg	39	no	57	0	457	6	3	antiphase_hc_soi.wav	1	6	1	noise_calib_stim_LEFT.wav	1	36	blb_dichoticlistening_ta-ta.mp3	ta	ta	0	left
6.6.1	win	2023-06-02	06:55:14	07:11:46	982915	6272b9dfc470a51d5fa0e6ea	1	1	main_slash	24	main_slash	73	stimuli_target_squarediamonds.svg	stimuli_distractor_trianglediamonds.svg	4	yes	53	1	932	6	3	antiphase_hc_soi.wav	1	6	1	noise_calib_stim_LEFT.wav	1	36	blb_dichoticlistening_ta-ta.mp3	ta	ta	0	left
6.6.1	win	2023-06-02	06:55:14	07:11:46	982915	6272b9dfc470a51d5fa0e6ea	1	1	main_slash	24	advance_on_keypress_SLASH	74	stimuli_target_squarediamonds.svg	stimuli_distractor_trianglediamonds.svg	4	yes	57	0	709	6	3	antiphase_hc_soi.wav	1	6	1	noise_calib_stim_LEFT.wav	1	36	blb_dichoticlistening_ta-ta.mp3	ta	ta	0	left
6.6.1	win	2023-06-02	06:55:14	07:11:48	985193	6272b9dfc470a51d5fa0e6ea	1	1	main_slash	24	main_slash	75	stimuli_target_rectanglediamonds.svg	stimuli_distractor_diamondtriangles.svg	6	yes	53	1	927	6	3	antiphase_hc_soi.wav	1	6	1	noise_calib_stim_LEFT.wav	1	36	blb_dichoticlistening_ta-ta.mp3	ta	ta	0	left
6.6.1	win	2023-06-02	06:55:14	07:11:48	985193	6272b9dfc470a51d5fa0e6ea	1	1	main_slash	24	advance_on_keypress_SLASH	76	stimuli_target_rectanglediamonds.svg	stimuli_distractor_diamondtriangles.svg	6	yes	57	0	556	6	3	antiphase_hc_soi.wav	1	6	1	noise_calib_stim_LEFT.wav	1	36	blb_dichoticlistening_ta-ta.mp3	ta	ta	0	left
6.6.1	win	2023-06-02	06:55:14	07:11:51	987329	6272b9dfc470a51d5fa0e6ea	1	1	main_slash	24	main_slash	77	stimuli_target_trianglerectangles.svg	stimuli_distractor_trianglediamonds.svg	17	yes	53	1	947	6	3	antiphase_hc_soi.wav	1	6	1	noise_calib_stim_LEFT.wav	1	36	blb_dichoticlistening_ta-ta.mp3	ta	ta	0	left
6.6.1	win	2023-06-02	06:55:14	07:11:51	987329	6272b9dfc470a51d5fa0e6ea	1	1	main_slash	24	advance_on_keypress_SLASH	78	stimuli_target_trianglerectangles.svg	stimuli_distractor_trianglediamonds.svg	17	yes	57	0	813	6	3	antiphase_hc_soi.wav	1	6	1	noise_calib_stim_LEFT.wav	1	36	blb_dichoticlistening_ta-ta.mp3	ta	ta	0	left
6.6.1	win	2023-06-02	06:55:14	07:11:54	990311	6272b9dfc470a51d5fa0e6ea	1	1	main_slash	24	main_slash	79	stimuli_distractor_trianglediamonds.svg	stimuli_distractor_diamondtriangles.svg	35	no	53	0	1513	6	3	antiphase_hc_soi.wav	1	6	1	noise_calib_stim_LEFT.wav	1	36	blb_dichoticlistening_ta-ta.mp3	ta	ta	0	left
6.6.1	win	2023-06-02	06:55:14	07:11:54	990311	6272b9dfc470a51d5fa0e6ea	1	1	main_slash	24	advance_on_keypress_SLASH	80	stimuli_distractor_trianglediamonds.svg	stimuli_distractor_diamondtriangles.svg	35	no	57	0	508	6	3	antiphase_hc_soi.wav	1	6	1	noise_calib_stim_LEFT.wav	1	36	blb_dichoticlistening_ta-ta.mp3	ta	ta	0	left
6.6.1	win	2023-06-02	06:55:14	07:11:56	992382	6272b9dfc470a51d5fa0e6ea	1	1	main_slash	24	main_slash	81	stimuli_target_rectanglediamonds.svg	stimuli_distractor_diamondtriangles.svg	6	yes	53	1	917	6	3	antiphase_hc_soi.wav	1	6	1	noise_calib_stim_LEFT.wav	1	36	blb_dichoticlistening_ta-ta.mp3	ta	ta	0	left
6.6.1	win	2023-06-02	06:55:14	07:11:56	992382	6272b9dfc470a51d5fa0e6ea	1	1	main_slash	24	advance_on_keypress_SLASH	82	stimuli_target_rectanglediamonds.svg	stimuli_distractor_diamondtriangles.svg	6	yes	57	0	443	6	3	antiphase_hc_soi.wav	1	6	1	noise_calib_stim_LEFT.wav	1	36	blb_dichoticlistening_ta-ta.mp3	ta	ta	0	left
6.6.1	win	2023-06-02	06:55:14	07:11:58	994392	6272b9dfc470a51d5fa0e6ea	1	1	main_slash	24	main_slash	83	stimuli_distractor_diamondtriangles.svg	stimuli_target_squaretriangles.svg	15	yes	53	1	927	6	3	antiphase_hc_soi.wav	1	6	1	noise_calib_stim_LEFT.wav	1	36	blb_dichoticlistening_ta-ta.mp3	ta	ta	0	left
6.6.1	win	2023-06-02	06:55:14	07:11:58	994392	6272b9dfc470a51d5fa0e6ea	1	1	main_slash	24	advance_on_keypress_SLASH	84	stimuli_distractor_diamondtriangles.svg	stimuli_target_squaretriangles.svg	15	yes	57	0	454	6	3	antiphase_hc_soi.wav	1	6	1	noise_calib_stim_LEFT.wav	1	36	blb_dichoticlistening_ta-ta.mp3	ta	ta	0	left
6.6.1	win	2023-06-02	06:55:14	07:12:01	997480	6272b9dfc470a51d5fa0e6ea	1	1	main_slash	24	main_slash	85	stimuli_distractor_diamondtriangles.svg	stimuli_distractor_trianglediamonds.svg	37	no	0	1	2000	6	3	antiphase_hc_soi.wav	1	6	1	noise_calib_stim_LEFT.wav	1	36	blb_dichoticlistening_ta-ta.mp3	ta	ta	0	left
6.6.1	win	2023-06-02	06:55:14	07:12:01	997480	6272b9dfc470a51d5fa0e6ea	1	1	main_slash	24	advance_on_keypress_SLASH	86	stimuli_distractor_diamondtriangles.svg	stimuli_distractor_trianglediamonds.svg	37	no	57	0	560	6	3	antiphase_hc_soi.wav	1	6	1	noise_calib_stim_LEFT.wav	1	36	blb_dichoticlistening_ta-ta.mp3	ta	ta	0	left
6.6.1	win	2023-06-02	06:55:14	07:12:03	999568	6272b9dfc470a51d5fa0e6ea	1	1	main_slash	24	main_slash	87	stimuli_target_rectangletriangles.svg	stimuli_distractor_diamondtriangles.svg	5	yes	53	1	888	6	3	antiphase_hc_soi.wav	1	6	1	noise_calib_stim_LEFT.wav	1	36	blb_dichoticlistening_ta-ta.mp3	ta	ta	0	left
6.6.1	win	2023-06-02	06:55:14	07:12:03	999568	6272b9dfc470a51d5fa0e6ea	1	1	main_slash	24	advance_on_keypress_SLASH	88	stimuli_target_rectangletriangles.svg	stimuli_distractor_diamondtriangles.svg	5	yes	57	0	464	6	3	antiphase_hc_soi.wav	1	6	1	noise_calib_stim_LEFT.wav	1	36	blb_dichoticlistening_ta-ta.mp3	ta	ta	0	left
6.6.1	win	2023-06-02	06:55:14	07:12:06	1002679	6272b9dfc470a51d5fa0e6ea	1	1	main_slash	24	main_slash	89	stimuli_distractor_diamondtriangles.svg	stimuli_distractor_trianglediamonds.svg	38	no	0	1	2000	6	3	antiphase_hc_soi.wav	1	6	1	noise_calib_stim_LEFT.wav	1	36	blb_dichoticlistening_ta-ta.mp3	ta	ta	0	left
6.6.1	win	2023-06-02	06:55:14	07:12:06	1002679	6272b9dfc470a51d5fa0e6ea	1	1	main_slash	24	advance_on_keypress_SLASH	90	stimuli_distractor_diamondtriangles.svg	stimuli_distractor_trianglediamonds.svg	38	no	57	0	496	6	3	antiphase_hc_soi.wav	1	6	1	noise_calib_stim_LEFT.wav	1	36	blb_dichoticlistening_ta-ta.mp3	ta	ta	0	left
6.6.1	win	2023-06-02	06:55:14	07:12:08	1004666	6272b9dfc470a51d5fa0e6ea	1	1	main_slash	24	main_slash	91	stimuli_distractor_trianglediamonds.svg	stimuli_target_squaretriangles.svg	11	yes	53	1	837	6	3	antiphase_hc_soi.wav	1	6	1	noise_calib_stim_LEFT.wav	1	36	blb_dichoticlistening_ta-ta.mp3	ta	ta	0	left
6.6.1	win	2023-06-02	06:55:14	07:12:08	1004666	6272b9dfc470a51d5fa0e6ea	1	1	main_slash	24	advance_on_keypress_SLASH	92	stimuli_distractor_trianglediamonds.svg	stimuli_target_squaretriangles.svg	11	yes	57	0	620	6	3	antiphase_hc_soi.wav	1	6	1	noise_calib_stim_LEFT.wav	1	36	blb_dichoticlistening_ta-ta.mp3	ta	ta	0	left
6.6.1	win	2023-06-02	06:55:14	07:12:11	1007928	6272b9dfc470a51d5fa0e6ea	1	1	main_slash	24	main_slash	93	stimuli_distractor_trianglediamonds.svg	stimuli_distractor_diamondtriangles.svg	35	no	0	1	2000	6	3	antiphase_hc_soi.wav	1	6	1	noise_calib_stim_LEFT.wav	1	36	blb_dichoticlistening_ta-ta.mp3	ta	ta	0	left
6.6.1	win	2023-06-02	06:55:14	07:12:11	1007928	6272b9dfc470a51d5fa0e6ea	1	1	main_slash	24	advance_on_keypress_SLASH	94	stimuli_distractor_trianglediamonds.svg	stimuli_distractor_diamondtriangles.svg	35	no	57	0	622	6	3	antiphase_hc_soi.wav	1	6	1	noise_calib_stim_LEFT.wav	1	36	blb_dichoticlistening_ta-ta.mp3	ta	ta	0	left
6.6.1	win	2023-06-02	06:55:14	07:12:13	1010057	6272b9dfc470a51d5fa0e6ea	1	1	main_slash	24	main_slash	95	stimuli_target_squarediamonds.svg	stimuli_distractor_trianglediamonds.svg	4	yes	53	1	863	6	3	antiphase_hc_soi.wav	1	6	1	noise_calib_stim_LEFT.wav	1	36	blb_dichoticlistening_ta-ta.mp3	ta	ta	0	left
6.6.1	win	2023-06-02	06:55:14	07:12:13	1010057	6272b9dfc470a51d5fa0e6ea	1	1	main_slash	24	advance_on_keypress_SLASH	96	stimuli_target_squarediamonds.svg	stimuli_distractor_trianglediamonds.svg	4	yes	57	0	529	6	3	antiphase_hc_soi.wav	1	6	1	noise_calib_stim_LEFT.wav	1	36	blb_dichoticlistening_ta-ta.mp3	ta	ta	0	left
6.6.1	win	2023-06-02	06:55:14	07:12:16	1012219	6272b9dfc470a51d5fa0e6ea	1	1	main_slash	24	main_slash	97	stimuli_distractor_diamondtriangles.svg	stimuli_target_trianglesquares.svg	30	yes	53	1	976	6	3	antiphase_hc_soi.wav	1	6	1	noise_calib_stim_LEFT.wav	1	36	blb_dichoticlistening_ta-ta.mp3	ta	ta	0	left
6.6.1	win	2023-06-02	06:55:14	07:12:16	1012219	6272b9dfc470a51d5fa0e6ea	1	1	main_slash	24	advance_on_keypress_SLASH	98	stimuli_distractor_diamondtriangles.svg	stimuli_target_trianglesquares.svg	30	yes	57	0	578	6	3	antiphase_hc_soi.wav	1	6	1	noise_calib_stim_LEFT.wav	1	36	blb_dichoticlistening_ta-ta.mp3	ta	ta	0	left
6.6.1	win	2023-06-02	06:55:14	07:12:18	1014402	6272b9dfc470a51d5fa0e6ea	1	1	main_slash	24	main_slash	99	stimuli_distractor_diamondtriangles.svg	stimuli_target_diamondsquares.svg	32	yes	53	1	976	6	3	antiphase_hc_soi.wav	1	6	1	noise_calib_stim_LEFT.wav	1	36	blb_dichoticlistening_ta-ta.mp3	ta	ta	0	left
6.6.1	win	2023-06-02	06:55:14	07:12:18	1014402	6272b9dfc470a51d5fa0e6ea	1	1	main_slash	24	advance_on_keypress_SLASH	100	stimuli_distractor_diamondtriangles.svg	stimuli_target_diamondsquares.svg	32	yes	57	0	442	6	3	antiphase_hc_soi.wav	1	6	1	noise_calib_stim_LEFT.wav	1	36	blb_dichoticlistening_ta-ta.mp3	ta	ta	0	left
6.6.1	win	2023-06-02	06:55:14	07:12:20	1016388	6272b9dfc470a51d5fa0e6ea	1	1	main_slash	24	main_slash	101	stimuli_target_diamondsquares.svg	stimuli_distractor_diamondtriangles.svg	24	yes	53	1	912	6	3	antiphase_hc_soi.wav	1	6	1	noise_calib_stim_LEFT.wav	1	36	blb_dichoticlistening_ta-ta.mp3	ta	ta	0	left
6.6.1	win	2023-06-02	06:55:14	07:12:20	1016388	6272b9dfc470a51d5fa0e6ea	1	1	main_slash	24	advance_on_keypress_SLASH	102	stimuli_target_diamondsquares.svg	stimuli_distractor_diamondtriangles.svg	24	yes	57	0	656	6	3	antiphase_hc_soi.wav	1	6	1	noise_calib_stim_LEFT.wav	1	36	blb_dichoticlistening_ta-ta.mp3	ta	ta	0	left
6.6.1	win	2023-06-02	06:55:14	07:12:22	1018569	6272b9dfc470a51d5fa0e6ea	1	1	main_slash	24	main_slash	103	stimuli_target_diamondrectangles.svg	stimuli_distractor_diamondtriangles.svg	23	yes	53	1	878	6	3	antiphase_hc_soi.wav	1	6	1	noise_calib_stim_LEFT.wav	1	36	blb_dichoticlistening_ta-ta.mp3	ta	ta	0	left
6.6.1	win	2023-06-02	06:55:14	07:12:22	1018569	6272b9dfc470a51d5fa0e6ea	1	1	main_slash	24	advance_on_keypress_SLASH	104	stimuli_target_diamondrectangles.svg	stimuli_distractor_diamondtriangles.svg	23	yes	57	0	939	6	3	antiphase_hc_soi.wav	1	6	1	noise_calib_stim_LEFT.wav	1	36	blb_dichoticlistening_ta-ta.mp3	ta	ta	0	left
6.6.1	win	2023-06-02	06:55:14	07:12:24	1021090	6272b9dfc470a51d5fa0e6ea	1	1	main_slash	24	main_slash	105	stimuli_distractor_trianglediamonds.svg	stimuli_target_rectangletriangles.svg	9	yes	53	1	933	6	3	antiphase_hc_soi.wav	1	6	1	noise_calib_stim_LEFT.wav	1	36	blb_dichoticlistening_ta-ta.mp3	ta	ta	0	left
6.6.1	win	2023-06-02	06:55:14	07:12:24	1021090	6272b9dfc470a51d5fa0e6ea	1	1	main_slash	24	advance_on_keypress_SLASH	106	stimuli_distractor_trianglediamonds.svg	stimuli_target_rectangletriangles.svg	9	yes	57	0	446	6	3	antiphase_hc_soi.wav	1	6	1	noise_calib_stim_LEFT.wav	1	36	blb_dichoticlistening_ta-ta.mp3	ta	ta	0	left
6.6.1	win	2023-06-02	06:55:14	07:12:27	1024190	6272b9dfc470a51d5fa0e6ea	1	1	main_slash	24	main_slash	107	stimuli_distractor_diamondtriangles.svg	stimuli_distractor_diamondtriangles.svg	40	no	0	1	2000	6	3	antiphase_hc_soi.wav	1	6	1	noise_calib_stim_LEFT.wav	1	36	blb_dichoticlistening_ta-ta.mp3	ta	ta	0	left
6.6.1	win	2023-06-02	06:55:14	07:12:27	1024190	6272b9dfc470a51d5fa0e6ea	1	1	main_slash	24	advance_on_keypress_SLASH	108	stimuli_distractor_diamondtriangles.svg	stimuli_distractor_diamondtriangles.svg	40	no	57	0	649	6	3	antiphase_hc_soi.wav	1	6	1	noise_calib_stim_LEFT.wav	1	36	blb_dichoticlistening_ta-ta.mp3	ta	ta	0	left
6.6.1	win	2023-06-02	06:55:14	07:12:30	1026421	6272b9dfc470a51d5fa0e6ea	1	1	main_slash	24	main_slash	109	stimuli_target_trianglerectangles.svg	stimuli_distractor_diamondtriangles.svg	21	yes	53	1	932	6	3	antiphase_hc_soi.wav	1	6	1	noise_calib_stim_LEFT.wav	1	36	blb_dichoticlistening_ta-ta.mp3	ta	ta	0	left
6.6.1	win	2023-06-02	06:55:14	07:12:30	1026421	6272b9dfc470a51d5fa0e6ea	1	1	main_slash	24	advance_on_keypress_SLASH	110	stimuli_target_trianglerectangles.svg	stimuli_distractor_diamondtriangles.svg	21	yes	57	0	558	6	3	antiphase_hc_soi.wav	1	6	1	noise_calib_stim_LEFT.wav	1	36	blb_dichoticlistening_ta-ta.mp3	ta	ta	0	left
6.6.1	win	2023-06-02	06:55:14	07:12:32	1028931	6272b9dfc470a51d5fa0e6ea	1	1	main_slash	24	main_slash	111	stimuli_distractor_trianglediamonds.svg	stimuli_distractor_diamondtriangles.svg	36	no	53	0	1309	6	3	antiphase_hc_soi.wav	1	6	1	noise_calib_stim_LEFT.wav	1	36	blb_dichoticlistening_ta-ta.mp3	ta	ta	0	left
6.6.1	win	2023-06-02	06:55:14	07:12:32	1028931	6272b9dfc470a51d5fa0e6ea	1	1	main_slash	24	advance_on_keypress_SLASH	112	stimuli_distractor_trianglediamonds.svg	stimuli_distractor_diamondtriangles.svg	36	no	57	0	585	6	3	antiphase_hc_soi.wav	1	6	1	noise_calib_stim_LEFT.wav	1	36	blb_dichoticlistening_ta-ta.mp3	ta	ta	0	left
6.6.1	win	2023-06-02	06:55:14	07:12:34	1031026	6272b9dfc470a51d5fa0e6ea	1	1	main_slash	24	main_slash	113	stimuli_target_rectangletriangles.svg	stimuli_distractor_trianglediamonds.svg	1	yes	53	1	872	6	3	antiphase_hc_soi.wav	1	6	1	noise_calib_stim_LEFT.wav	1	36	blb_dichoticlistening_ta-ta.mp3	ta	ta	0	left
6.6.1	win	2023-06-02	06:55:14	07:12:34	1031026	6272b9dfc470a51d5fa0e6ea	1	1	main_slash	24	advance_on_keypress_SLASH	114	stimuli_target_rectangletriangles.svg	stimuli_distractor_trianglediamonds.svg	1	yes	57	0	712	6	3	antiphase_hc_soi.wav	1	6	1	noise_calib_stim_LEFT.wav	1	36	blb_dichoticlistening_ta-ta.mp3	ta	ta	0	left
6.6.1	win	2023-06-02	06:55:14	07:12:37	1033234	6272b9dfc470a51d5fa0e6ea	1	1	main_slash	24	main_slash	115	stimuli_distractor_trianglediamonds.svg	stimuli_target_diamondsquares.svg	28	yes	53	1	846	6	3	antiphase_hc_soi.wav	1	6	1	noise_calib_stim_LEFT.wav	1	36	blb_dichoticlistening_ta-ta.mp3	ta	ta	0	left
6.6.1	win	2023-06-02	06:55:14	07:12:37	1033234	6272b9dfc470a51d5fa0e6ea	1	1	main_slash	24	advance_on_keypress_SLASH	116	stimuli_distractor_trianglediamonds.svg	stimuli_target_diamondsquares.svg	28	yes	57	0	460	6	3	antiphase_hc_soi.wav	1	6	1	noise_calib_stim_LEFT.wav	1	36	blb_dichoticlistening_ta-ta.mp3	ta	ta	0	left
6.6.1	win	2023-06-02	06:55:14	07:12:39	1035201	6272b9dfc470a51d5fa0e6ea	1	1	main_slash	24	main_slash	117	stimuli_distractor_diamondtriangles.svg	stimuli_target_trianglerectangles.svg	29	yes	53	1	865	6	3	antiphase_hc_soi.wav	1	6	1	noise_calib_stim_LEFT.wav	1	36	blb_dichoticlistening_ta-ta.mp3	ta	ta	0	left
6.6.1	win	2023-06-02	06:55:14	07:12:39	1035201	6272b9dfc470a51d5fa0e6ea	1	1	main_slash	24	advance_on_keypress_SLASH	118	stimuli_distractor_diamondtriangles.svg	stimuli_target_trianglerectangles.svg	29	yes	57	0	455	6	3	antiphase_hc_soi.wav	1	6	1	noise_calib_stim_LEFT.wav	1	36	blb_dichoticlistening_ta-ta.mp3	ta	ta	0	left
6.6.1	win	2023-06-02	06:55:14	07:12:40	1037189	6272b9dfc470a51d5fa0e6ea	1	1	main_slash	24	main_slash	119	stimuli_distractor_diamondtriangles.svg	stimuli_target_squarediamonds.svg	16	yes	53	1	886	6	3	antiphase_hc_soi.wav	1	6	1	noise_calib_stim_LEFT.wav	1	36	blb_dichoticlistening_ta-ta.mp3	ta	ta	0	left
6.6.1	win	2023-06-02	06:55:14	07:12:40	1037189	6272b9dfc470a51d5fa0e6ea	1	1	main_slash	24	advance_on_keypress_SLASH	120	stimuli_distractor_diamondtriangles.svg	stimuli_target_squarediamonds.svg	16	yes	57	0	427	6	3	antiphase_hc_soi.wav	1	6	1	noise_calib_stim_LEFT.wav	1	36	blb_dichoticlistening_ta-ta.mp3	ta	ta	0	left
6.6.1	win	2023-06-02	06:55:14	07:12:43	1039239	6272b9dfc470a51d5fa0e6ea	1	1	main_slash	24	main_slash	121	stimuli_distractor_trianglediamonds.svg	stimuli_target_trianglesquares.svg	26	yes	53	1	987	6	3	antiphase_hc_soi.wav	1	6	1	noise_calib_stim_LEFT.wav	1	36	blb_dichoticlistening_ta-ta.mp3	ta	ta	0	left
6.6.1	win	2023-06-02	06:55:14	07:12:43	1039239	6272b9dfc470a51d5fa0e6ea	1	1	main_slash	24	advance_on_keypress_SLASH	122	stimuli_distractor_trianglediamonds.svg	stimuli_target_trianglesquares.svg	26	yes	57	0	433	6	3	antiphase_hc_soi.wav	1	6	1	noise_calib_stim_LEFT.wav	1	36	blb_dichoticlistening_ta-ta.mp3	ta	ta	0	left
6.6.1	win	2023-06-02	06:55:14	07:12:44	1041195	6272b9dfc470a51d5fa0e6ea	1	1	main_slash	24	main_slash	123	stimuli_target_squarediamonds.svg	stimuli_distractor_diamondtriangles.svg	8	yes	53	1	877	6	3	antiphase_hc_soi.wav	1	6	1	noise_calib_stim_LEFT.wav	1	36	blb_dichoticlistening_ta-ta.mp3	ta	ta	0	left
6.6.1	win	2023-06-02	06:55:14	07:12:44	1041195	6272b9dfc470a51d5fa0e6ea	1	1	main_slash	24	advance_on_keypress_SLASH	124	stimuli_target_squarediamonds.svg	stimuli_distractor_diamondtriangles.svg	8	yes	57	0	443	6	3	antiphase_hc_soi.wav	1	6	1	noise_calib_stim_LEFT.wav	1	36	blb_dichoticlistening_ta-ta.mp3	ta	ta	0	left
6.6.1	win	2023-06-02	06:55:14	07:12:46	1043159	6272b9dfc470a51d5fa0e6ea	1	1	main_slash	24	main_slash	125	stimuli_distractor_trianglediamonds.svg	stimuli_target_diamondrectangles.svg	27	yes	53	1	891	6	3	antiphase_hc_soi.wav	1	6	1	noise_calib_stim_LEFT.wav	1	36	blb_dichoticlistening_ta-ta.mp3	ta	ta	0	left
6.6.1	win	2023-06-02	06:55:14	07:12:46	1043159	6272b9dfc470a51d5fa0e6ea	1	1	main_slash	24	advance_on_keypress_SLASH	126	stimuli_distractor_trianglediamonds.svg	stimuli_target_diamondrectangles.svg	27	yes	57	0	426	6	3	antiphase_hc_soi.wav	1	6	1	noise_calib_stim_LEFT.wav	1	36	blb_dichoticlistening_ta-ta.mp3	ta	ta	0	left
6.6.1	win	2023-06-02	06:55:14	07:12:49	1045261	6272b9dfc470a51d5fa0e6ea	1	1	main_slash	24	main_slash	127	stimuli_target_squaretriangles.svg	stimuli_distractor_diamondtriangles.svg	7	yes	53	1	1043	6	3	antiphase_hc_soi.wav	1	6	1	noise_calib_stim_LEFT.wav	1	36	blb_dichoticlistening_ta-ta.mp3	ta	ta	0	left
6.6.1	win	2023-06-02	06:55:14	07:12:49	1045261	6272b9dfc470a51d5fa0e6ea	1	1	main_slash	24	advance_on_keypress_SLASH	128	stimuli_target_squaretriangles.svg	stimuli_distractor_diamondtriangles.svg	7	yes	57	0	549	6	3	antiphase_hc_soi.wav	1	6	1	noise_calib_stim_LEFT.wav	1	36	blb_dichoticlistening_ta-ta.mp3	ta	ta	0	left
6.6.1	win	2023-06-02	06:55:14	07:12:51	1047325	6272b9dfc470a51d5fa0e6ea	1	1	main_slash	24	main_slash	129	stimuli_distractor_diamondtriangles.svg	stimuli_target_diamondrectangles.svg	31	yes	53	1	875	6	3	antiphase_hc_soi.wav	1	6	1	noise_calib_stim_LEFT.wav	1	36	blb_dichoticlistening_ta-ta.mp3	ta	ta	0	left
6.6.1	win	2023-06-02	06:55:14	07:12:51	1047325	6272b9dfc470a51d5fa0e6ea	1	1	main_slash	24	advance_on_keypress_SLASH	130	stimuli_distractor_diamondtriangles.svg	stimuli_target_diamondrectangles.svg	31	yes	57	0	423	6	3	antiphase_hc_soi.wav	1	6	1	noise_calib_stim_LEFT.wav	1	36	blb_dichoticlistening_ta-ta.mp3	ta	ta	0	left
6.6.1	win	2023-06-02	06:55:14	07:12:53	1049309	6272b9dfc470a51d5fa0e6ea	1	1	main_slash	24	main_slash	131	stimuli_distractor_diamondtriangles.svg	stimuli_target_rectanglediamonds.svg	14	yes	53	1	926	6	3	antiphase_hc_soi.wav	1	6	1	noise_calib_stim_LEFT.wav	1	36	blb_dichoticlistening_ta-ta.mp3	ta	ta	0	left
6.6.1	win	2023-06-02	06:55:14	07:12:53	1049309	6272b9dfc470a51d5fa0e6ea	1	1	main_slash	24	advance_on_keypress_SLASH	132	stimuli_distractor_diamondtriangles.svg	stimuli_target_rectanglediamonds.svg	14	yes	57	0	536	6	3	antiphase_hc_soi.wav	1	6	1	noise_calib_stim_LEFT.wav	1	36	blb_dichoticlistening_ta-ta.mp3	ta	ta	0	left
6.6.1	win	2023-06-02	06:55:14	07:12:55	1051509	6272b9dfc470a51d5fa0e6ea	1	1	main_slash	24	main_slash	133	stimuli_target_trianglesquares.svg	stimuli_distractor_diamondtriangles.svg	22	yes	53	1	1026	6	3	antiphase_hc_soi.wav	1	6	1	noise_calib_stim_LEFT.wav	1	36	blb_dichoticlistening_ta-ta.mp3	ta	ta	0	left
6.6.1	win	2023-06-02	06:55:14	07:12:55	1051509	6272b9dfc470a51d5fa0e6ea	1	1	main_slash	24	advance_on_keypress_SLASH	134	stimuli_target_trianglesquares.svg	stimuli_distractor_diamondtriangles.svg	22	yes	57	0	964	6	3	antiphase_hc_soi.wav	1	6	1	noise_calib_stim_LEFT.wav	1	36	blb_dichoticlistening_ta-ta.mp3	ta	ta	0	left
6.6.1	win	2023-06-02	06:55:14	07:12:57	1054042	6272b9dfc470a51d5fa0e6ea	1	1	main_slash	24	main_slash	135	stimuli_target_trianglesquares.svg	stimuli_distractor_trianglediamonds.svg	18	yes	53	1	926	6	3	antiphase_hc_soi.wav	1	6	1	noise_calib_stim_LEFT.wav	1	36	blb_dichoticlistening_ta-ta.mp3	ta	ta	0	left
6.6.1	win	2023-06-02	06:55:14	07:12:57	1054042	6272b9dfc470a51d5fa0e6ea	1	1	main_slash	24	advance_on_keypress_SLASH	136	stimuli_target_trianglesquares.svg	stimuli_distractor_trianglediamonds.svg	18	yes	57	0	463	6	3	antiphase_hc_soi.wav	1	6	1	noise_calib_stim_LEFT.wav	1	36	blb_dichoticlistening_ta-ta.mp3	ta	ta	0	left
6.6.1	win	2023-06-02	06:55:14	07:13:00	1056195	6272b9dfc470a51d5fa0e6ea	1	1	main_slash	24	main_slash	137	stimuli_target_trianglerectangles.svg	stimuli_distractor_trianglediamonds.svg	17	yes	53	1	1047	6	3	antiphase_hc_soi.wav	1	6	1	noise_calib_stim_LEFT.wav	1	36	blb_dichoticlistening_ta-ta.mp3	ta	ta	0	left
6.6.1	win	2023-06-02	06:55:14	07:13:00	1056195	6272b9dfc470a51d5fa0e6ea	1	1	main_slash	24	advance_on_keypress_SLASH	138	stimuli_target_trianglerectangles.svg	stimuli_distractor_trianglediamonds.svg	17	yes	57	0	663	6	3	antiphase_hc_soi.wav	1	6	1	noise_calib_stim_LEFT.wav	1	36	blb_dichoticlistening_ta-ta.mp3	ta	ta	0	left
6.6.1	win	2023-06-02	06:55:14	07:13:02	1058467	6272b9dfc470a51d5fa0e6ea	1	1	main_slash	24	main_slash	139	stimuli_distractor_trianglediamonds.svg	stimuli_target_rectanglediamonds.svg	10	yes	53	1	952	6	3	antiphase_hc_soi.wav	1	6	1	noise_calib_stim_LEFT.wav	1	36	blb_dichoticlistening_ta-ta.mp3	ta	ta	0	left
6.6.1	win	2023-06-02	06:55:14	07:13:02	1058467	6272b9dfc470a51d5fa0e6ea	1	1	main_slash	24	advance_on_keypress_SLASH	140	stimuli_distractor_trianglediamonds.svg	stimuli_target_rectanglediamonds.svg	10	yes	57	0	547	6	3	antiphase_hc_soi.wav	1	6	1	noise_calib_stim_LEFT.wav	1	36	blb_dichoticlistening_ta-ta.mp3	ta	ta	0	left
6.6.1	win	2023-06-02	06:55:14	07:13:04	1060651	6272b9dfc470a51d5fa0e6ea	1	1	main_slash	24	main_slash	141	stimuli_distractor_trianglediamonds.svg	stimuli_target_squarediamonds.svg	12	yes	53	1	988	6	3	antiphase_hc_soi.wav	1	6	1	noise_calib_stim_LEFT.wav	1	36	blb_dichoticlistening_ta-ta.mp3	ta	ta	0	left
6.6.1	win	2023-06-02	06:55:14	07:13:04	1060651	6272b9dfc470a51d5fa0e6ea	1	1	main_slash	24	advance_on_keypress_SLASH	142	stimuli_distractor_trianglediamonds.svg	stimuli_target_squarediamonds.svg	12	yes	57	0	457	6	3	antiphase_hc_soi.wav	1	6	1	noise_calib_stim_LEFT.wav	1	36	blb_dichoticlistening_ta-ta.mp3	ta	ta	0	left
6.6.1	win	2023-06-02	06:55:14	07:13:06	1062745	6272b9dfc470a51d5fa0e6ea	1	1	main_slash	24	main_slash	143	stimuli_target_rectanglediamonds.svg	stimuli_distractor_trianglediamonds.svg	2	yes	53	1	998	6	3	antiphase_hc_soi.wav	1	6	1	noise_calib_stim_LEFT.wav	1	36	blb_dichoticlistening_ta-ta.mp3	ta	ta	0	left
6.6.1	win	2023-06-02	06:55:14	07:13:06	1062745	6272b9dfc470a51d5fa0e6ea	1	1	main_slash	24	advance_on_keypress_SLASH	144	stimuli_target_rectanglediamonds.svg	stimuli_distractor_trianglediamonds.svg	2	yes	57	0	493	6	3	antiphase_hc_soi.wav	1	6	1	noise_calib_stim_LEFT.wav	1	36	blb_dichoticlistening_ta-ta.mp3	ta	ta	0	left
6.6.1	win	2023-06-02	06:55:14	07:13:08	1065007	6272b9dfc470a51d5fa0e6ea	1	1	main_slash	24	main_slash	145	stimuli_distractor_trianglediamonds.svg	stimuli_target_trianglerectangles.svg	25	yes	53	1	1128	6	3	antiphase_hc_soi.wav	1	6	1	noise_calib_stim_LEFT.wav	1	36	blb_dichoticlistening_ta-ta.mp3	ta	ta	0	left
6.6.1	win	2023-06-02	06:55:14	07:13:08	1065007	6272b9dfc470a51d5fa0e6ea	1	1	main_slash	24	advance_on_keypress_SLASH	146	stimuli_distractor_trianglediamonds.svg	stimuli_target_trianglerectangles.svg	25	yes	57	0	428	6	3	antiphase_hc_soi.wav	1	6	1	noise_calib_stim_LEFT.wav	1	36	blb_dichoticlistening_ta-ta.mp3	ta	ta	0	left
6.6.1	win	2023-06-02	06:55:14	07:13:11	1068062	6272b9dfc470a51d5fa0e6ea	1	1	main_slash	24	main_slash	147	stimuli_distractor_trianglediamonds.svg	stimuli_distractor_trianglediamonds.svg	33	no	0	1	2000	6	3	antiphase_hc_soi.wav	1	6	1	noise_calib_stim_LEFT.wav	1	36	blb_dichoticlistening_ta-ta.mp3	ta	ta	0	left
6.6.1	win	2023-06-02	06:55:14	07:13:11	1068062	6272b9dfc470a51d5fa0e6ea	1	1	main_slash	24	advance_on_keypress_SLASH	148	stimuli_distractor_trianglediamonds.svg	stimuli_distractor_trianglediamonds.svg	33	no	57	0	810	6	3	antiphase_hc_soi.wav	1	6	1	noise_calib_stim_LEFT.wav	1	36	blb_dichoticlistening_ta-ta.mp3	ta	ta	0	left
6.6.1	win	2023-06-02	06:55:14	07:13:14	1070474	6272b9dfc470a51d5fa0e6ea	1	1	main_slash	24	main_slash	149	stimuli_target_diamondsquares.svg	stimuli_distractor_trianglediamonds.svg	20	yes	53	1	962	6	3	antiphase_hc_soi.wav	1	6	1	noise_calib_stim_LEFT.wav	1	36	blb_dichoticlistening_ta-ta.mp3	ta	ta	0	left
6.6.1	win	2023-06-02	06:55:14	07:13:14	1070474	6272b9dfc470a51d5fa0e6ea	1	1	main_slash	24	advance_on_keypress_SLASH	150	stimuli_target_diamondsquares.svg	stimuli_distractor_trianglediamonds.svg	20	yes	57	0	587	6	3	antiphase_hc_soi.wav	1	6	1	noise_calib_stim_LEFT.wav	1	36	blb_dichoticlistening_ta-ta.mp3	ta	ta	0	left
6.6.1	win	2023-06-02	06:55:14	07:13:17	1073711	6272b9dfc470a51d5fa0e6ea	1	1	main_slash	24	main_slash	151	stimuli_distractor_trianglediamonds.svg	stimuli_distractor_trianglediamonds.svg	34	no	0	1	2000	6	3	antiphase_hc_soi.wav	1	6	1	noise_calib_stim_LEFT.wav	1	36	blb_dichoticlistening_ta-ta.mp3	ta	ta	0	left
6.6.1	win	2023-06-02	06:55:14	07:13:17	1073711	6272b9dfc470a51d5fa0e6ea	1	1	main_slash	24	advance_on_keypress_SLASH	152	stimuli_distractor_trianglediamonds.svg	stimuli_distractor_trianglediamonds.svg	34	no	57	0	550	6	3	antiphase_hc_soi.wav	1	6	1	noise_calib_stim_LEFT.wav	1	36	blb_dichoticlistening_ta-ta.mp3	ta	ta	0	left
6.6.1	win	2023-06-02	06:55:14	07:13:19	1075769	6272b9dfc470a51d5fa0e6ea	1	1	main_slash	24	main_slash	153	stimuli_target_diamondrectangles.svg	stimuli_distractor_trianglediamonds.svg	19	yes	53	1	859	6	3	antiphase_hc_soi.wav	1	6	1	noise_calib_stim_LEFT.wav	1	36	blb_dichoticlistening_ta-ta.mp3	ta	ta	0	left
6.6.1	win	2023-06-02	06:55:14	07:13:19	1075769	6272b9dfc470a51d5fa0e6ea	1	1	main_slash	24	advance_on_keypress_SLASH	154	stimuli_target_diamondrectangles.svg	stimuli_distractor_trianglediamonds.svg	19	yes	57	0	567	6	3	antiphase_hc_soi.wav	1	6	1	noise_calib_stim_LEFT.wav	1	36	blb_dichoticlistening_ta-ta.mp3	ta	ta	0	left
6.6.1	win	2023-06-02	06:55:14	07:13:21	1077901	6272b9dfc470a51d5fa0e6ea	1	1	main_slash	24	main_slash	155	stimuli_target_squaretriangles.svg	stimuli_distractor_trianglediamonds.svg	3	yes	53	1	925	6	3	antiphase_hc_soi.wav	1	6	1	noise_calib_stim_LEFT.wav	1	36	blb_dichoticlistening_ta-ta.mp3	ta	ta	0	left
6.6.1	win	2023-06-02	06:55:14	07:13:21	1077901	6272b9dfc470a51d5fa0e6ea	1	1	main_slash	24	advance_on_keypress_SLASH	156	stimuli_target_squaretriangles.svg	stimuli_distractor_trianglediamonds.svg	3	yes	57	0	474	6	3	antiphase_hc_soi.wav	1	6	1	noise_calib_stim_LEFT.wav	1	36	blb_dichoticlistening_ta-ta.mp3	ta	ta	0	left
6.6.1	win	2023-06-02	06:55:14	07:13:24	1081009	6272b9dfc470a51d5fa0e6ea	1	1	main_slash	24	main_slash	157	stimuli_distractor_diamondtriangles.svg	stimuli_distractor_diamondtriangles.svg	39	no	0	1	2000	6	3	antiphase_hc_soi.wav	1	6	1	noise_calib_stim_LEFT.wav	1	36	blb_dichoticlistening_ta-ta.mp3	ta	ta	0	left
6.6.1	win	2023-06-02	06:55:14	07:13:24	1081009	6272b9dfc470a51d5fa0e6ea	1	1	main_slash	24	advance_on_keypress_SLASH	158	stimuli_distractor_diamondtriangles.svg	stimuli_distractor_diamondtriangles.svg	39	no	57	0	690	6	3	antiphase_hc_soi.wav	1	6	1	noise_calib_stim_LEFT.wav	1	36	blb_dichoticlistening_ta-ta.mp3	ta	ta	0	left
6.6.1	win	2023-06-02	06:55:14	07:13:27	1083279	6272b9dfc470a51d5fa0e6ea	1	1	main_slash	24	main_slash	159	stimuli_distractor_diamondtriangles.svg	stimuli_target_rectangletriangles.svg	13	yes	53	1	938	6	3	antiphase_hc_soi.wav	1	6	1	noise_calib_stim_LEFT.wav	1	36	blb_dichoticlistening_ta-ta.mp3	ta	ta	0	left
6.6.1	win	2023-06-02	06:55:14	07:13:27	1083279	6272b9dfc470a51d5fa0e6ea	1	1	main_slash	24	advance_on_keypress_SLASH	160	stimuli_distractor_diamondtriangles.svg	stimuli_target_rectangletriangles.svg	13	yes	57	0	520	6	3	antiphase_hc_soi.wav	1	6	1	noise_calib_stim_LEFT.wav	1	36	blb_dichoticlistening_ta-ta.mp3	ta	ta	0	left
6.6.1	win	2023-06-02	06:55:14	07:13:55	1112010	6272b9dfc470a51d5fa0e6ea	1	1	practice_z	26	practice_z	1	stimuli_distractor_trianglediamonds.svg	stimuli_target_diamondrectangles.svg	12	yes	44	1	640	6	3	antiphase_hc_soi.wav	1	6	1	noise_calib_stim_LEFT.wav	1	36	blb_dichoticlistening_ta-ta.mp3	ta	ta	0	left
6.6.1	win	2023-06-02	06:55:14	07:13:55	1112010	6272b9dfc470a51d5fa0e6ea	1	1	practice_z	26	advance_on_keypress_ZEE	2	stimuli_distractor_trianglediamonds.svg	stimuli_target_diamondrectangles.svg	12	yes	57	0	657	6	3	antiphase_hc_soi.wav	1	6	1	noise_calib_stim_LEFT.wav	1	36	blb_dichoticlistening_ta-ta.mp3	ta	ta	0	left
6.6.1	win	2023-06-02	06:55:14	07:13:59	1115209	6272b9dfc470a51d5fa0e6ea	1	1	practice_z	26	practice_z	3	stimuli_target_diamondsquares.svg	stimuli_distractor_diamondtriangles.svg	3	yes	44	1	891	6	3	antiphase_hc_soi.wav	1	6	1	noise_calib_stim_LEFT.wav	1	36	blb_dichoticlistening_ta-ta.mp3	ta	ta	0	left
6.6.1	win	2023-06-02	06:55:14	07:13:59	1115209	6272b9dfc470a51d5fa0e6ea	1	1	practice_z	26	advance_on_keypress_ZEE	4	stimuli_target_diamondsquares.svg	stimuli_distractor_diamondtriangles.svg	3	yes	57	0	475	6	3	antiphase_hc_soi.wav	1	6	1	noise_calib_stim_LEFT.wav	1	36	blb_dichoticlistening_ta-ta.mp3	ta	ta	0	left
6.6.1	win	2023-06-02	06:55:14	07:14:02	1118256	6272b9dfc470a51d5fa0e6ea	1	1	practice_z	26	practice_z	5	stimuli_target_diamondsquares.svg	stimuli_distractor_trianglediamonds.svg	6	yes	44	1	939	6	3	antiphase_hc_soi.wav	1	6	1	noise_calib_stim_LEFT.wav	1	36	blb_dichoticlistening_ta-ta.mp3	ta	ta	0	left
6.6.1	win	2023-06-02	06:55:14	07:14:02	1118256	6272b9dfc470a51d5fa0e6ea	1	1	practice_z	26	advance_on_keypress_ZEE	6	stimuli_target_diamondsquares.svg	stimuli_distractor_trianglediamonds.svg	6	yes	57	0	1105	6	3	antiphase_hc_soi.wav	1	6	1	noise_calib_stim_LEFT.wav	1	36	blb_dichoticlistening_ta-ta.mp3	ta	ta	0	left
6.6.1	win	2023-06-02	06:55:14	07:14:06	1123000	6272b9dfc470a51d5fa0e6ea	1	1	practice_z	26	practice_z	7	stimuli_distractor_trianglediamonds.svg	stimuli_distractor_trianglediamonds.svg	15	no	0	1	2000	6	3	antiphase_hc_soi.wav	1	6	1	noise_calib_stim_LEFT.wav	1	36	blb_dichoticlistening_ta-ta.mp3	ta	ta	0	left
6.6.1	win	2023-06-02	06:55:14	07:14:06	1123000	6272b9dfc470a51d5fa0e6ea	1	1	practice_z	26	advance_on_keypress_ZEE	8	stimuli_distractor_trianglediamonds.svg	stimuli_distractor_trianglediamonds.svg	15	no	57	0	543	6	3	antiphase_hc_soi.wav	1	6	1	noise_calib_stim_LEFT.wav	1	36	blb_dichoticlistening_ta-ta.mp3	ta	ta	0	left
6.6.1	win	2023-06-02	06:55:14	07:14:09	1126067	6272b9dfc470a51d5fa0e6ea	1	1	practice_z	26	practice_z	9	stimuli_distractor_diamondtriangles.svg	stimuli_target_rectangletriangles.svg	7	yes	44	1	884	6	3	antiphase_hc_soi.wav	1	6	1	noise_calib_stim_LEFT.wav	1	36	blb_dichoticlistening_ta-ta.mp3	ta	ta	0	left
6.6.1	win	2023-06-02	06:55:14	07:14:09	1126067	6272b9dfc470a51d5fa0e6ea	1	1	practice_z	26	advance_on_keypress_ZEE	10	stimuli_distractor_diamondtriangles.svg	stimuli_target_rectangletriangles.svg	7	yes	57	0	650	6	3	antiphase_hc_soi.wav	1	6	1	noise_calib_stim_LEFT.wav	1	36	blb_dichoticlistening_ta-ta.mp3	ta	ta	0	left
6.6.1	win	2023-06-02	06:55:14	07:14:13	1129409	6272b9dfc470a51d5fa0e6ea	1	1	practice_z	26	practice_z	11	stimuli_target_rectanglediamonds.svg	stimuli_distractor_trianglediamonds.svg	4	yes	44	1	1045	6	3	antiphase_hc_soi.wav	1	6	1	noise_calib_stim_LEFT.wav	1	36	blb_dichoticlistening_ta-ta.mp3	ta	ta	0	left
6.6.1	win	2023-06-02	06:55:14	07:14:13	1129409	6272b9dfc470a51d5fa0e6ea	1	1	practice_z	26	advance_on_keypress_ZEE	12	stimuli_target_rectanglediamonds.svg	stimuli_distractor_trianglediamonds.svg	4	yes	57	0	781	6	3	antiphase_hc_soi.wav	1	6	1	noise_calib_stim_LEFT.wav	1	36	blb_dichoticlistening_ta-ta.mp3	ta	ta	0	left
6.6.1	win	2023-06-02	06:55:14	07:14:16	1132865	6272b9dfc470a51d5fa0e6ea	1	1	practice_z	26	practice_z	13	stimuli_target_squarediamonds.svg	stimuli_distractor_trianglediamonds.svg	5	yes	44	1	1017	6	3	antiphase_hc_soi.wav	1	6	1	noise_calib_stim_LEFT.wav	1	36	blb_dichoticlistening_ta-ta.mp3	ta	ta	0	left
6.6.1	win	2023-06-02	06:55:14	07:14:16	1132865	6272b9dfc470a51d5fa0e6ea	1	1	practice_z	26	advance_on_keypress_ZEE	14	stimuli_target_squarediamonds.svg	stimuli_distractor_trianglediamonds.svg	5	yes	57	0	618	6	3	antiphase_hc_soi.wav	1	6	1	noise_calib_stim_LEFT.wav	1	36	blb_dichoticlistening_ta-ta.mp3	ta	ta	0	left
6.6.1	win	2023-06-02	06:55:14	07:14:19	1136029	6272b9dfc470a51d5fa0e6ea	1	1	practice_z	26	practice_z	15	stimuli_target_squarediamonds.svg	stimuli_distractor_diamondtriangles.svg	2	yes	44	1	900	6	3	antiphase_hc_soi.wav	1	6	1	noise_calib_stim_LEFT.wav	1	36	blb_dichoticlistening_ta-ta.mp3	ta	ta	0	left
