build	computer.platform	date	time	timestamp	time_elapsed_ms	subject	group	session	blockcode	blocknum	trialcode	trialnum	stimulus_left	stimulus_right	stim_index	target_present	response	correct	latency	headphonecheck_countTestTrials	headphonecheck_index	headphonecheck_testSound	headphonecheck_correctResponse	stereocheck_countTestTrials	stereocheck_index	stereocheck_testSound	stereocheck_correctResponse	DL_index	DL_soundfile	DL_leftSound	DL_rightSound	DL_dualSound	DL_choice
6.6.1	win	2023-06-19	08:13:21	0	0	6361769fee0c219b0f1cc480	2	1	headphonecheck_calibration	4	headphonecheck_calibrationIntro	1			0		calibrationButton	0	3230	0	0			0	0			1				0	
6.6.1	win	2023-06-19	08:13:21	0	0	6361769fee0c219b0f1cc480	2	1	headphonecheck_testphase	5	test_collectResponse	3			0		first	1	1011	1	4	antiphase_hc_sio.wav	1	0	0			1				0	
6.6.1	win	2023-06-19	08:13:21	0	0	6361769fee0c219b0f1cc480	2	1	headphonecheck_testphase	5	test_collectResponse	6			0		third	1	481	2	2	antiphase_hc_ios.wav	3	0	0			1				0	
6.6.1	win	2023-06-19	08:13:21	0	0	6361769fee0c219b0f1cc480	2	1	headphonecheck_testphase	5	test_collectResponse	9			0		second	1	428	3	1	antiphase_hc_iso.wav	2	0	0			1				0	
6.6.1	win	2023-06-19	08:13:21	0	0	6361769fee0c219b0f1cc480	2	1	headphonecheck_testphase	5	test_collectResponse	12			0		second	1	726	4	5	antiphase_hc_osi.wav	2	0	0			1				0	
6.6.1	win	2023-06-19	08:13:21	0	0	6361769fee0c219b0f1cc480	2	1	headphonecheck_testphase	5	test_collectResponse	15			0		first	1	268	5	3	antiphase_hc_soi.wav	1	0	0			1				0	
6.6.1	win	2023-06-19	08:13:21	0	0	6361769fee0c219b0f1cc480	2	1	headphonecheck_testphase	5	test_collectResponse	18			0		third	1	264	6	6	antiphase_hc_ois.wav	3	0	0			1				0	
6.6.1	win	2023-06-19	08:13:21	0	0	6361769fee0c219b0f1cc480	2	1	stereocheck_calibration	7	stereocheck_calibrationIntro	1			0		stereocheck_calibrationButton	0	7423	6	6	antiphase_hc_ois.wav	3	0	0			1				0	
6.6.1	win	2023-06-19	08:13:21	0	0	6361769fee0c219b0f1cc480	2	1	stereocheck_testphase	8	stereocheck_test_collectResponse	3			0		stereocheck_right	1	215	6	6	antiphase_hc_ois.wav	3	1	6	noise_calib_stim_RIGHT.wav	2	1				0	
6.6.1	win	2023-06-19	08:13:21	0	0	6361769fee0c219b0f1cc480	2	1	stereocheck_testphase	8	stereocheck_test_collectResponse	6			0		stereocheck_right	1	209	6	6	antiphase_hc_ois.wav	3	2	5	noise_calib_stim_RIGHT.wav	2	1				0	
6.6.1	win	2023-06-19	08:13:21	0	0	6361769fee0c219b0f1cc480	2	1	stereocheck_testphase	8	stereocheck_test_collectResponse	9			0		stereocheck_left	1	207	6	6	antiphase_hc_ois.wav	3	3	1	noise_calib_stim_LEFT.wav	1	1				0	
6.6.1	win	2023-06-19	08:13:21	0	0	6361769fee0c219b0f1cc480	2	1	stereocheck_testphase	8	stereocheck_test_collectResponse	12			0		stereocheck_right	1	2478	6	6	antiphase_hc_ois.wav	3	4	4	noise_calib_stim_RIGHT.wav	2	1				0	
6.6.1	win	2023-06-19	08:13:21	0	0	6361769fee0c219b0f1cc480	2	1	stereocheck_testphase	8	stereocheck_test_collectResponse	15			0		stereocheck_left	1	506	6	6	antiphase_hc_ois.wav	3	5	3	noise_calib_stim_LEFT.wav	1	1				0	
6.6.1	win	2023-06-19	08:13:21	0	0	6361769fee0c219b0f1cc480	2	1	stereocheck_testphase	8	stereocheck_test_collectResponse	18			0		stereocheck_left	1	1026	6	6	antiphase_hc_ois.wav	3	6	2	noise_calib_stim_LEFT.wav	1	1				0	
6.6.1	win	2023-06-19	08:13:21	0	0	6361769fee0c219b0f1cc480	2	1	DL_practice	11	DL_practice	2			0		ka	1	1254	6	6	antiphase_hc_ois.wav	3	6	2	noise_calib_stim_LEFT.wav	1	22	blb_dichoticlistening_ka-ka.mp3	ka	ka	0	left
6.6.1	win	2023-06-19	08:13:21	0	0	6361769fee0c219b0f1cc480	2	1	DL_practice	11	DL_practice	3			0		ba	1	1319	6	6	antiphase_hc_ois.wav	3	6	2	noise_calib_stim_LEFT.wav	1	1	blb_dichoticlistening_ba-ba.mp3	ba	ba	0	left
6.6.1	win	2023-06-19	08:13:21	0	0	6361769fee0c219b0f1cc480	2	1	DL_practice	11	DL_practice	4			0		da	1	950	6	6	antiphase_hc_ois.wav	3	6	2	noise_calib_stim_LEFT.wav	1	8	blb_dichoticlistening_da-da.mp3	da	da	0	left
6.6.1	win	2023-06-19	08:13:21	0	0	6361769fee0c219b0f1cc480	2	1	DL_practice	11	DL_practice	5			0		ka	1	2508	6	6	antiphase_hc_ois.wav	3	6	2	noise_calib_stim_LEFT.wav	1	23	blb_dichoticlistening_ka-pa.mp3	ka	pa	1	left
6.6.1	win	2023-06-19	08:13:21	0	0	6361769fee0c219b0f1cc480	2	1	DL_practice	11	DL_practice	6			0		pa	1	992	6	6	antiphase_hc_ois.wav	3	6	2	noise_calib_stim_LEFT.wav	1	29	blb_dichoticlistening_pa-pa.mp3	pa	pa	0	left
6.6.1	win	2023-06-19	08:13:21	0	0	6361769fee0c219b0f1cc480	2	1	DL_practice	11	DL_practice	7			0		ka	0	1425	6	6	antiphase_hc_ois.wav	3	6	2	noise_calib_stim_LEFT.wav	1	18	blb_dichoticlistening_ga-ta.mp3	ga	ta	1	other
6.6.1	win	2023-06-19	08:13:21	0	0	6361769fee0c219b0f1cc480	2	1	DL_practice	11	DL_practice	8			0		da	1	1026	6	6	antiphase_hc_ois.wav	3	6	2	noise_calib_stim_LEFT.wav	1	7	blb_dichoticlistening_da-ba.mp3	da	ba	1	left
6.6.1	win	2023-06-19	08:13:21	0	0	6361769fee0c219b0f1cc480	2	1	DL_practice	11	DL_practice	9			0		ta	1	1107	6	6	antiphase_hc_ois.wav	3	6	2	noise_calib_stim_LEFT.wav	1	36	blb_dichoticlistening_ta-ta.mp3	ta	ta	0	left
6.6.1	win	2023-06-19	08:13:21	0	0	6361769fee0c219b0f1cc480	2	1	DL_practice	11	DL_practice	10			0		ga	1	1033	6	6	antiphase_hc_ois.wav	3	6	2	noise_calib_stim_LEFT.wav	1	15	blb_dichoticlistening_ga-ga.mp3	ga	ga	0	left
6.6.1	win	2023-06-19	08:13:21	0	0	6361769fee0c219b0f1cc480	2	1	DL_test	13	DL_test	1			0		da	1	1241	6	6	antiphase_hc_ois.wav	3	6	2	noise_calib_stim_LEFT.wav	1	8	blb_dichoticlistening_da-da.mp3	da	da	0	left
6.6.1	win	2023-06-19	08:13:21	0	0	6361769fee0c219b0f1cc480	2	1	DL_test	13	DL_test	2			0		ga	1	1197	6	6	antiphase_hc_ois.wav	3	6	2	noise_calib_stim_LEFT.wav	1	3	blb_dichoticlistening_ba-ga.mp3	ba	ga	1	right
6.6.1	win	2023-06-19	08:13:21	0	0	6361769fee0c219b0f1cc480	2	1	DL_test	13	DL_test	3			0		pa	1	1671	6	6	antiphase_hc_ois.wav	3	6	2	noise_calib_stim_LEFT.wav	1	11	blb_dichoticlistening_da-pa.mp3	da	pa	1	right
6.6.1	win	2023-06-19	08:13:21	0	0	6361769fee0c219b0f1cc480	2	1	DL_test	13	DL_test	4			0		ka	1	998	6	6	antiphase_hc_ois.wav	3	6	2	noise_calib_stim_LEFT.wav	1	34	blb_dichoticlistening_ta-ka.mp3	ta	ka	1	right
6.6.1	win	2023-06-19	08:13:21	0	0	6361769fee0c219b0f1cc480	2	1	DL_test	13	DL_test	5			0		ka	1	1345	6	6	antiphase_hc_ois.wav	3	6	2	noise_calib_stim_LEFT.wav	1	21	blb_dichoticlistening_ka-ga.mp3	ka	ga	1	left
6.6.1	win	2023-06-19	08:13:21	0	0	6361769fee0c219b0f1cc480	2	1	DL_test	13	DL_test	6			0		pa	1	829	6	6	antiphase_hc_ois.wav	3	6	2	noise_calib_stim_LEFT.wav	1	25	blb_dichoticlistening_pa-ba.mp3	pa	ba	1	left
6.6.1	win	2023-06-19	08:13:21	0	0	6361769fee0c219b0f1cc480	2	1	DL_test	13	DL_test	7			0		ka	1	785	6	6	antiphase_hc_ois.wav	3	6	2	noise_calib_stim_LEFT.wav	1	22	blb_dichoticlistening_ka-ka.mp3	ka	ka	0	left
6.6.1	win	2023-06-19	08:13:21	0	0	6361769fee0c219b0f1cc480	2	1	DL_test	13	DL_test	8			0		pa	1	940	6	6	antiphase_hc_ois.wav	3	6	2	noise_calib_stim_LEFT.wav	1	35	blb_dichoticlistening_ta-pa.mp3	ta	pa	1	right
6.6.1	win	2023-06-19	08:13:21	0	0	6361769fee0c219b0f1cc480	2	1	DL_test	13	DL_test	9			0		ta	1	1031	6	6	antiphase_hc_ois.wav	3	6	2	noise_calib_stim_LEFT.wav	1	12	blb_dichoticlistening_da-ta.mp3	da	ta	1	right
6.6.1	win	2023-06-19	08:13:21	0	0	6361769fee0c219b0f1cc480	2	1	DL_test	13	DL_test	10			0		pa	1	2346	6	6	antiphase_hc_ois.wav	3	6	2	noise_calib_stim_LEFT.wav	1	27	blb_dichoticlistening_pa-ga.mp3	pa	ga	1	left
6.6.1	win	2023-06-19	08:13:21	0	0	6361769fee0c219b0f1cc480	2	1	DL_test	13	DL_test	11			0		pa	1	853	6	6	antiphase_hc_ois.wav	3	6	2	noise_calib_stim_LEFT.wav	1	29	blb_dichoticlistening_pa-pa.mp3	pa	pa	0	left
6.6.1	win	2023-06-19	08:13:21	0	0	6361769fee0c219b0f1cc480	2	1	DL_test	13	DL_test	12			0		da	0	2620	6	6	antiphase_hc_ois.wav	3	6	2	noise_calib_stim_LEFT.wav	1	31	blb_dichoticlistening_ta-ba.mp3	ta	ba	1	other
6.6.1	win	2023-06-19	08:13:21	0	0	6361769fee0c219b0f1cc480	2	1	DL_test	13	DL_test	13			0		da	1	1169	6	6	antiphase_hc_ois.wav	3	6	2	noise_calib_stim_LEFT.wav	1	2	blb_dichoticlistening_ba-da.mp3	ba	da	1	right
6.6.1	win	2023-06-19	08:13:21	0	0	6361769fee0c219b0f1cc480	2	1	DL_test	13	DL_test	14			0		da	1	2075	6	6	antiphase_hc_ois.wav	3	6	2	noise_calib_stim_LEFT.wav	1	20	blb_dichoticlistening_ka-da.mp3	ka	da	1	right
6.6.1	win	2023-06-19	08:13:21	0	0	6361769fee0c219b0f1cc480	2	1	DL_test	13	DL_test	15			0		ba	1	1106	6	6	antiphase_hc_ois.wav	3	6	2	noise_calib_stim_LEFT.wav	1	13	blb_dichoticlistening_ga-ba.mp3	ga	ba	1	right
6.6.1	win	2023-06-19	08:13:21	0	0	6361769fee0c219b0f1cc480	2	1	DL_test	13	DL_test	16			0		ta	1	2844	6	6	antiphase_hc_ois.wav	3	6	2	noise_calib_stim_LEFT.wav	1	32	blb_dichoticlistening_ta-da.mp3	ta	da	1	left
6.6.1	win	2023-06-19	08:13:21	0	0	6361769fee0c219b0f1cc480	2	1	DL_test	13	DL_test	17			0		pa	0	1405	6	6	antiphase_hc_ois.wav	3	6	2	noise_calib_stim_LEFT.wav	1	10	blb_dichoticlistening_da-ka.mp3	da	ka	1	other
6.6.1	win	2023-06-19	08:13:21	0	0	6361769fee0c219b0f1cc480	2	1	DL_test	13	DL_test	18			0		ka	1	1004	6	6	antiphase_hc_ois.wav	3	6	2	noise_calib_stim_LEFT.wav	1	19	blb_dichoticlistening_ka-ba.mp3	ka	ba	1	left
6.6.1	win	2023-06-19	08:13:21	0	0	6361769fee0c219b0f1cc480	2	1	DL_test	13	DL_test	19			0		ka	1	882	6	6	antiphase_hc_ois.wav	3	6	2	noise_calib_stim_LEFT.wav	1	4	blb_dichoticlistening_ba-ka.mp3	ba	ka	1	right
6.6.1	win	2023-06-19	08:13:21	0	0	6361769fee0c219b0f1cc480	2	1	DL_test	13	DL_test	20			0		ga	1	822	6	6	antiphase_hc_ois.wav	3	6	2	noise_calib_stim_LEFT.wav	1	15	blb_dichoticlistening_ga-ga.mp3	ga	ga	0	left
6.6.1	win	2023-06-19	08:13:21	0	0	6361769fee0c219b0f1cc480	2	1	DL_test	13	DL_test	21			0		pa	1	1127	6	6	antiphase_hc_ois.wav	3	6	2	noise_calib_stim_LEFT.wav	1	5	blb_dichoticlistening_ba-pa.mp3	ba	pa	1	right
6.6.1	win	2023-06-19	08:13:21	0	0	6361769fee0c219b0f1cc480	2	1	DL_test	13	DL_test	22			0		pa	1	953	6	6	antiphase_hc_ois.wav	3	6	2	noise_calib_stim_LEFT.wav	1	17	blb_dichoticlistening_ga-pa.mp3	ga	pa	1	right
6.6.1	win	2023-06-19	08:13:21	0	0	6361769fee0c219b0f1cc480	2	1	DL_test	13	DL_test	23			0		ka	1	2181	6	6	antiphase_hc_ois.wav	3	6	2	noise_calib_stim_LEFT.wav	1	23	blb_dichoticlistening_ka-pa.mp3	ka	pa	1	left
6.6.1	win	2023-06-19	08:13:21	0	0	6361769fee0c219b0f1cc480	2	1	DL_test	13	DL_test	24			0		ka	0	1136	6	6	antiphase_hc_ois.wav	3	6	2	noise_calib_stim_LEFT.wav	1	18	blb_dichoticlistening_ga-ta.mp3	ga	ta	1	other
6.6.1	win	2023-06-19	08:13:21	0	0	6361769fee0c219b0f1cc480	2	1	DL_test	13	DL_test	25			0		ta	1	1538	6	6	antiphase_hc_ois.wav	3	6	2	noise_calib_stim_LEFT.wav	1	36	blb_dichoticlistening_ta-ta.mp3	ta	ta	0	left
6.6.1	win	2023-06-19	08:13:21	0	0	6361769fee0c219b0f1cc480	2	1	DL_test	13	DL_test	26			0		da	1	1038	6	6	antiphase_hc_ois.wav	3	6	2	noise_calib_stim_LEFT.wav	1	14	blb_dichoticlistening_ga-da.mp3	ga	da	1	right
6.6.1	win	2023-06-19	08:13:21	0	0	6361769fee0c219b0f1cc480	2	1	DL_test	13	DL_test	27			0		ta	1	1252	6	6	antiphase_hc_ois.wav	3	6	2	noise_calib_stim_LEFT.wav	1	30	blb_dichoticlistening_pa-ta.mp3	pa	ta	1	right
6.6.1	win	2023-06-19	08:13:21	0	0	6361769fee0c219b0f1cc480	2	1	DL_test	13	DL_test	28			0		da	1	1291	6	6	antiphase_hc_ois.wav	3	6	2	noise_calib_stim_LEFT.wav	1	7	blb_dichoticlistening_da-ba.mp3	da	ba	1	left
6.6.1	win	2023-06-19	08:13:21	0	0	6361769fee0c219b0f1cc480	2	1	DL_test	13	DL_test	29			0		da	1	3941	6	6	antiphase_hc_ois.wav	3	6	2	noise_calib_stim_LEFT.wav	1	26	blb_dichoticlistening_pa-da.mp3	pa	da	1	right
6.6.1	win	2023-06-19	08:13:21	0	0	6361769fee0c219b0f1cc480	2	1	DL_test	13	DL_test	30			0		ka	1	1038	6	6	antiphase_hc_ois.wav	3	6	2	noise_calib_stim_LEFT.wav	1	28	blb_dichoticlistening_pa-ka.mp3	pa	ka	1	right
6.6.1	win	2023-06-19	08:13:21	0	0	6361769fee0c219b0f1cc480	2	1	DL_test	13	DL_test	31			0		ka	1	1045	6	6	antiphase_hc_ois.wav	3	6	2	noise_calib_stim_LEFT.wav	1	16	blb_dichoticlistening_ga-ka.mp3	ga	ka	1	right
6.6.1	win	2023-06-19	08:13:21	0	0	6361769fee0c219b0f1cc480	2	1	DL_test	13	DL_test	32			0		ka	1	986	6	6	antiphase_hc_ois.wav	3	6	2	noise_calib_stim_LEFT.wav	1	24	blb_dichoticlistening_ka-ta.mp3	ka	ta	1	left
6.6.1	win	2023-06-19	08:13:21	0	0	6361769fee0c219b0f1cc480	2	1	DL_test	13	DL_test	33			0		da	1	1000	6	6	antiphase_hc_ois.wav	3	6	2	noise_calib_stim_LEFT.wav	1	9	blb_dichoticlistening_da-ga.mp3	da	ga	1	left
6.6.1	win	2023-06-19	08:13:21	0	0	6361769fee0c219b0f1cc480	2	1	DL_test	13	DL_test	34			0		da	0	2935	6	6	antiphase_hc_ois.wav	3	6	2	noise_calib_stim_LEFT.wav	1	33	blb_dichoticlistening_ta-ga.mp3	ta	ga	1	other
6.6.1	win	2023-06-19	08:13:21	0	0	6361769fee0c219b0f1cc480	2	1	DL_test	13	DL_test	35			0		ka	0	1111	6	6	antiphase_hc_ois.wav	3	6	2	noise_calib_stim_LEFT.wav	1	6	blb_dichoticlistening_ba-ta.mp3	ba	ta	1	other
6.6.1	win	2023-06-19	08:13:21	0	0	6361769fee0c219b0f1cc480	2	1	DL_test	13	DL_test	36			0		ba	1	819	6	6	antiphase_hc_ois.wav	3	6	2	noise_calib_stim_LEFT.wav	1	1	blb_dichoticlistening_ba-ba.mp3	ba	ba	0	left
6.6.1	win	2023-06-19	08:13:21	0	0	6361769fee0c219b0f1cc480	2	1	DL_test	14	DL_test	1			0		da	0	4775	6	6	antiphase_hc_ois.wav	3	6	2	noise_calib_stim_LEFT.wav	1	33	blb_dichoticlistening_ta-ga.mp3	ta	ga	1	other
6.6.1	win	2023-06-19	08:13:21	0	0	6361769fee0c219b0f1cc480	2	1	DL_test	14	DL_test	2			0		ka	0	1134	6	6	antiphase_hc_ois.wav	3	6	2	noise_calib_stim_LEFT.wav	1	18	blb_dichoticlistening_ga-ta.mp3	ga	ta	1	other
6.6.1	win	2023-06-19	08:13:21	0	0	6361769fee0c219b0f1cc480	2	1	DL_test	14	DL_test	3			0		ta	1	2258	6	6	antiphase_hc_ois.wav	3	6	2	noise_calib_stim_LEFT.wav	1	12	blb_dichoticlistening_da-ta.mp3	da	ta	1	right
6.6.1	win	2023-06-19	08:13:21	0	0	6361769fee0c219b0f1cc480	2	1	DL_test	14	DL_test	4			0		da	1	1034	6	6	antiphase_hc_ois.wav	3	6	2	noise_calib_stim_LEFT.wav	1	14	blb_dichoticlistening_ga-da.mp3	ga	da	1	right
6.6.1	win	2023-06-19	08:13:21	0	0	6361769fee0c219b0f1cc480	2	1	DL_test	14	DL_test	5			0		pa	1	880	6	6	antiphase_hc_ois.wav	3	6	2	noise_calib_stim_LEFT.wav	1	25	blb_dichoticlistening_pa-ba.mp3	pa	ba	1	left
6.6.1	win	2023-06-19	08:13:21	0	0	6361769fee0c219b0f1cc480	2	1	DL_test	14	DL_test	6			0		ka	0	989	6	6	antiphase_hc_ois.wav	3	6	2	noise_calib_stim_LEFT.wav	1	6	blb_dichoticlistening_ba-ta.mp3	ba	ta	1	other
6.6.1	win	2023-06-19	08:13:21	0	0	6361769fee0c219b0f1cc480	2	1	DL_test	14	DL_test	7			0		da	1	852	6	6	antiphase_hc_ois.wav	3	6	2	noise_calib_stim_LEFT.wav	1	2	blb_dichoticlistening_ba-da.mp3	ba	da	1	right
6.6.1	win	2023-06-19	08:13:21	0	0	6361769fee0c219b0f1cc480	2	1	DL_test	14	DL_test	8			0		pa	1	835	6	6	antiphase_hc_ois.wav	3	6	2	noise_calib_stim_LEFT.wav	1	35	blb_dichoticlistening_ta-pa.mp3	ta	pa	1	right
6.6.1	win	2023-06-19	08:13:21	0	0	6361769fee0c219b0f1cc480	2	1	DL_test	14	DL_test	9			0		ka	1	946	6	6	antiphase_hc_ois.wav	3	6	2	noise_calib_stim_LEFT.wav	1	23	blb_dichoticlistening_ka-pa.mp3	ka	pa	1	left
6.6.1	win	2023-06-19	08:13:21	0	0	6361769fee0c219b0f1cc480	2	1	DL_test	14	DL_test	10			0		ka	1	760	6	6	antiphase_hc_ois.wav	3	6	2	noise_calib_stim_LEFT.wav	1	34	blb_dichoticlistening_ta-ka.mp3	ta	ka	1	right
6.6.1	win	2023-06-19	08:13:21	0	0	6361769fee0c219b0f1cc480	2	1	DL_test	14	DL_test	11			0		ta	1	1028	6	6	antiphase_hc_ois.wav	3	6	2	noise_calib_stim_LEFT.wav	1	30	blb_dichoticlistening_pa-ta.mp3	pa	ta	1	right
6.6.1	win	2023-06-19	08:13:21	0	0	6361769fee0c219b0f1cc480	2	1	DL_test	14	DL_test	12			0		pa	0	670	6	6	antiphase_hc_ois.wav	3	6	2	noise_calib_stim_LEFT.wav	1	31	blb_dichoticlistening_ta-ba.mp3	ta	ba	1	other
6.6.1	win	2023-06-19	08:13:21	0	0	6361769fee0c219b0f1cc480	2	1	DL_test	14	DL_test	13			0		da	0	839	6	6	antiphase_hc_ois.wav	3	6	2	noise_calib_stim_LEFT.wav	1	27	blb_dichoticlistening_pa-ga.mp3	pa	ga	1	other
6.6.1	win	2023-06-19	08:13:21	0	0	6361769fee0c219b0f1cc480	2	1	DL_test	14	DL_test	14			0		pa	0	1162	6	6	antiphase_hc_ois.wav	3	6	2	noise_calib_stim_LEFT.wav	1	19	blb_dichoticlistening_ka-ba.mp3	ka	ba	1	other
6.6.1	win	2023-06-19	08:13:21	0	0	6361769fee0c219b0f1cc480	2	1	DL_test	14	DL_test	15			0		ka	1	966	6	6	antiphase_hc_ois.wav	3	6	2	noise_calib_stim_LEFT.wav	1	28	blb_dichoticlistening_pa-ka.mp3	pa	ka	1	right
6.6.1	win	2023-06-19	08:13:21	0	0	6361769fee0c219b0f1cc480	2	1	DL_test	14	DL_test	16			0		da	1	914	6	6	antiphase_hc_ois.wav	3	6	2	noise_calib_stim_LEFT.wav	1	7	blb_dichoticlistening_da-ba.mp3	da	ba	1	left
6.6.1	win	2023-06-19	08:13:21	0	0	6361769fee0c219b0f1cc480	2	1	DL_test	14	DL_test	17			0		pa	1	897	6	6	antiphase_hc_ois.wav	3	6	2	noise_calib_stim_LEFT.wav	1	17	blb_dichoticlistening_ga-pa.mp3	ga	pa	1	right
6.6.1	win	2023-06-19	08:13:21	0	0	6361769fee0c219b0f1cc480	2	1	DL_test	14	DL_test	18			0		ga	1	797	6	6	antiphase_hc_ois.wav	3	6	2	noise_calib_stim_LEFT.wav	1	15	blb_dichoticlistening_ga-ga.mp3	ga	ga	0	left
6.6.1	win	2023-06-19	08:13:21	0	0	6361769fee0c219b0f1cc480	2	1	DL_test	14	DL_test	19			0		pa	0	876	6	6	antiphase_hc_ois.wav	3	6	2	noise_calib_stim_LEFT.wav	1	10	blb_dichoticlistening_da-ka.mp3	da	ka	1	other
6.6.1	win	2023-06-19	08:13:21	0	0	6361769fee0c219b0f1cc480	2	1	DL_test	14	DL_test	20			0		da	1	849	6	6	antiphase_hc_ois.wav	3	6	2	noise_calib_stim_LEFT.wav	1	8	blb_dichoticlistening_da-da.mp3	da	da	0	left
6.6.1	win	2023-06-19	08:13:21	0	0	6361769fee0c219b0f1cc480	2	1	DL_test	14	DL_test	21			0		ba	1	3467	6	6	antiphase_hc_ois.wav	3	6	2	noise_calib_stim_LEFT.wav	1	13	blb_dichoticlistening_ga-ba.mp3	ga	ba	1	right
6.6.1	win	2023-06-19	08:13:21	0	0	6361769fee0c219b0f1cc480	2	1	DL_test	14	DL_test	22			0		ka	1	997	6	6	antiphase_hc_ois.wav	3	6	2	noise_calib_stim_LEFT.wav	1	21	blb_dichoticlistening_ka-ga.mp3	ka	ga	1	left
6.6.1	win	2023-06-19	08:13:21	0	0	6361769fee0c219b0f1cc480	2	1	DL_test	14	DL_test	23			0		ka	1	876	6	6	antiphase_hc_ois.wav	3	6	2	noise_calib_stim_LEFT.wav	1	4	blb_dichoticlistening_ba-ka.mp3	ba	ka	1	right
6.6.1	win	2023-06-19	08:13:21	0	0	6361769fee0c219b0f1cc480	2	1	DL_test	14	DL_test	24			0		ka	1	948	6	6	antiphase_hc_ois.wav	3	6	2	noise_calib_stim_LEFT.wav	1	22	blb_dichoticlistening_ka-ka.mp3	ka	ka	0	left
6.6.1	win	2023-06-19	08:13:21	0	0	6361769fee0c219b0f1cc480	2	1	DL_test	14	DL_test	25			0		pa	1	850	6	6	antiphase_hc_ois.wav	3	6	2	noise_calib_stim_LEFT.wav	1	11	blb_dichoticlistening_da-pa.mp3	da	pa	1	right
6.6.1	win	2023-06-19	08:13:21	0	0	6361769fee0c219b0f1cc480	2	1	DL_test	14	DL_test	26			0		ka	1	1237	6	6	antiphase_hc_ois.wav	3	6	2	noise_calib_stim_LEFT.wav	1	16	blb_dichoticlistening_ga-ka.mp3	ga	ka	1	right
6.6.1	win	2023-06-19	08:13:21	0	0	6361769fee0c219b0f1cc480	2	1	DL_test	14	DL_test	27			0		ba	1	1005	6	6	antiphase_hc_ois.wav	3	6	2	noise_calib_stim_LEFT.wav	1	1	blb_dichoticlistening_ba-ba.mp3	ba	ba	0	left
6.6.1	win	2023-06-19	08:13:21	0	0	6361769fee0c219b0f1cc480	2	1	DL_test	14	DL_test	28			0		ta	0	1611	6	6	antiphase_hc_ois.wav	3	6	2	noise_calib_stim_LEFT.wav	1	20	blb_dichoticlistening_ka-da.mp3	ka	da	1	other
6.6.1	win	2023-06-19	08:13:21	0	0	6361769fee0c219b0f1cc480	2	1	DL_test	14	DL_test	29			0		ka	1	1022	6	6	antiphase_hc_ois.wav	3	6	2	noise_calib_stim_LEFT.wav	1	24	blb_dichoticlistening_ka-ta.mp3	ka	ta	1	left
6.6.1	win	2023-06-19	08:13:21	0	0	6361769fee0c219b0f1cc480	2	1	DL_test	14	DL_test	30			0		pa	1	961	6	6	antiphase_hc_ois.wav	3	6	2	noise_calib_stim_LEFT.wav	1	29	blb_dichoticlistening_pa-pa.mp3	pa	pa	0	left
6.6.1	win	2023-06-19	08:13:21	0	0	6361769fee0c219b0f1cc480	2	1	DL_test	14	DL_test	31			0		da	1	2106	6	6	antiphase_hc_ois.wav	3	6	2	noise_calib_stim_LEFT.wav	1	26	blb_dichoticlistening_pa-da.mp3	pa	da	1	right
6.6.1	win	2023-06-19	08:13:21	0	0	6361769fee0c219b0f1cc480	2	1	DL_test	14	DL_test	32			0		ka	0	985	6	6	antiphase_hc_ois.wav	3	6	2	noise_calib_stim_LEFT.wav	1	36	blb_dichoticlistening_ta-ta.mp3	ta	ta	0	other
6.6.1	win	2023-06-19	08:13:21	0	0	6361769fee0c219b0f1cc480	2	1	DL_test	14	DL_test	33			0		ba	1	1253	6	6	antiphase_hc_ois.wav	3	6	2	noise_calib_stim_LEFT.wav	1	3	blb_dichoticlistening_ba-ga.mp3	ba	ga	1	left
6.6.1	win	2023-06-19	08:13:21	0	0	6361769fee0c219b0f1cc480	2	1	DL_test	14	DL_test	34			0		da	1	1164	6	6	antiphase_hc_ois.wav	3	6	2	noise_calib_stim_LEFT.wav	1	32	blb_dichoticlistening_ta-da.mp3	ta	da	1	right
6.6.1	win	2023-06-19	08:13:21	0	0	6361769fee0c219b0f1cc480	2	1	DL_test	14	DL_test	35			0		pa	1	822	6	6	antiphase_hc_ois.wav	3	6	2	noise_calib_stim_LEFT.wav	1	5	blb_dichoticlistening_ba-pa.mp3	ba	pa	1	right
6.6.1	win	2023-06-19	08:13:21	0	0	6361769fee0c219b0f1cc480	2	1	DL_test	14	DL_test	36			0		ga	1	974	6	6	antiphase_hc_ois.wav	3	6	2	noise_calib_stim_LEFT.wav	1	9	blb_dichoticlistening_da-ga.mp3	da	ga	1	right
6.6.1	win	2023-06-19	08:13:21	0	0	6361769fee0c219b0f1cc480	2	1	DL_test	15	DL_test	1			0		ka	1	1088	6	6	antiphase_hc_ois.wav	3	6	2	noise_calib_stim_LEFT.wav	1	16	blb_dichoticlistening_ga-ka.mp3	ga	ka	1	right
6.6.1	win	2023-06-19	08:13:21	0	0	6361769fee0c219b0f1cc480	2	1	DL_test	15	DL_test	2			0		ta	1	891	6	6	antiphase_hc_ois.wav	3	6	2	noise_calib_stim_LEFT.wav	1	30	blb_dichoticlistening_pa-ta.mp3	pa	ta	1	right
6.6.1	win	2023-06-19	08:13:21	0	0	6361769fee0c219b0f1cc480	2	1	DL_test	15	DL_test	3			0		pa	1	867	6	6	antiphase_hc_ois.wav	3	6	2	noise_calib_stim_LEFT.wav	1	23	blb_dichoticlistening_ka-pa.mp3	ka	pa	1	right
6.6.1	win	2023-06-19	08:13:21	0	0	6361769fee0c219b0f1cc480	2	1	DL_test	15	DL_test	4			0		pa	1	914	6	6	antiphase_hc_ois.wav	3	6	2	noise_calib_stim_LEFT.wav	1	5	blb_dichoticlistening_ba-pa.mp3	ba	pa	1	right
6.6.1	win	2023-06-19	08:13:21	0	0	6361769fee0c219b0f1cc480	2	1	DL_test	15	DL_test	5			0		da	1	1208	6	6	antiphase_hc_ois.wav	3	6	2	noise_calib_stim_LEFT.wav	1	32	blb_dichoticlistening_ta-da.mp3	ta	da	1	right
6.6.1	win	2023-06-19	08:13:21	0	0	6361769fee0c219b0f1cc480	2	1	DL_test	15	DL_test	6			0		pa	0	1042	6	6	antiphase_hc_ois.wav	3	6	2	noise_calib_stim_LEFT.wav	1	19	blb_dichoticlistening_ka-ba.mp3	ka	ba	1	other
6.6.1	win	2023-06-19	08:13:21	0	0	6361769fee0c219b0f1cc480	2	1	DL_test	15	DL_test	7			0		ba	1	1040	6	6	antiphase_hc_ois.wav	3	6	2	noise_calib_stim_LEFT.wav	1	13	blb_dichoticlistening_ga-ba.mp3	ga	ba	1	right
6.6.1	win	2023-06-19	08:13:21	0	0	6361769fee0c219b0f1cc480	2	1	DL_test	15	DL_test	8			0		ka	1	679	6	6	antiphase_hc_ois.wav	3	6	2	noise_calib_stim_LEFT.wav	1	24	blb_dichoticlistening_ka-ta.mp3	ka	ta	1	left
6.6.1	win	2023-06-19	08:13:21	0	0	6361769fee0c219b0f1cc480	2	1	DL_test	15	DL_test	9			0		pa	1	724	6	6	antiphase_hc_ois.wav	3	6	2	noise_calib_stim_LEFT.wav	1	25	blb_dichoticlistening_pa-ba.mp3	pa	ba	1	left
6.6.1	win	2023-06-19	08:13:21	0	0	6361769fee0c219b0f1cc480	2	1	DL_test	15	DL_test	10			0		ga	1	863	6	6	antiphase_hc_ois.wav	3	6	2	noise_calib_stim_LEFT.wav	1	27	blb_dichoticlistening_pa-ga.mp3	pa	ga	1	right
6.6.1	win	2023-06-19	08:13:21	0	0	6361769fee0c219b0f1cc480	2	1	DL_test	15	DL_test	11			0		ta	1	887	6	6	antiphase_hc_ois.wav	3	6	2	noise_calib_stim_LEFT.wav	1	6	blb_dichoticlistening_ba-ta.mp3	ba	ta	1	right
6.6.1	win	2023-06-19	08:13:21	0	0	6361769fee0c219b0f1cc480	2	1	DL_test	15	DL_test	12			0		ba	1	1063	6	6	antiphase_hc_ois.wav	3	6	2	noise_calib_stim_LEFT.wav	1	1	blb_dichoticlistening_ba-ba.mp3	ba	ba	0	left
6.6.1	win	2023-06-19	08:13:21	0	0	6361769fee0c219b0f1cc480	2	1	DL_test	15	DL_test	13			0		ta	1	825	6	6	antiphase_hc_ois.wav	3	6	2	noise_calib_stim_LEFT.wav	1	36	blb_dichoticlistening_ta-ta.mp3	ta	ta	0	left
6.6.1	win	2023-06-19	08:13:21	0	0	6361769fee0c219b0f1cc480	2	1	DL_test	15	DL_test	14			0		ga	1	1338	6	6	antiphase_hc_ois.wav	3	6	2	noise_calib_stim_LEFT.wav	1	21	blb_dichoticlistening_ka-ga.mp3	ka	ga	1	right
6.6.1	win	2023-06-19	08:13:21	0	0	6361769fee0c219b0f1cc480	2	1	DL_test	15	DL_test	15			0		ta	1	1325	6	6	antiphase_hc_ois.wav	3	6	2	noise_calib_stim_LEFT.wav	1	12	blb_dichoticlistening_da-ta.mp3	da	ta	1	right
6.6.1	win	2023-06-19	08:13:21	0	0	6361769fee0c219b0f1cc480	2	1	DL_test	15	DL_test	16			0		da	1	2277	6	6	antiphase_hc_ois.wav	3	6	2	noise_calib_stim_LEFT.wav	1	26	blb_dichoticlistening_pa-da.mp3	pa	da	1	right
6.6.1	win	2023-06-19	08:13:21	0	0	6361769fee0c219b0f1cc480	2	1	DL_test	15	DL_test	17			0		ga	1	920	6	6	antiphase_hc_ois.wav	3	6	2	noise_calib_stim_LEFT.wav	1	3	blb_dichoticlistening_ba-ga.mp3	ba	ga	1	right
6.6.1	win	2023-06-19	08:13:21	0	0	6361769fee0c219b0f1cc480	2	1	DL_test	15	DL_test	18			0		ka	1	700	6	6	antiphase_hc_ois.wav	3	6	2	noise_calib_stim_LEFT.wav	1	4	blb_dichoticlistening_ba-ka.mp3	ba	ka	1	right
6.6.1	win	2023-06-19	08:13:21	0	0	6361769fee0c219b0f1cc480	2	1	DL_test	15	DL_test	19			0		da	1	872	6	6	antiphase_hc_ois.wav	3	6	2	noise_calib_stim_LEFT.wav	1	9	blb_dichoticlistening_da-ga.mp3	da	ga	1	left
6.6.1	win	2023-06-19	08:13:21	0	0	6361769fee0c219b0f1cc480	2	1	DL_test	15	DL_test	20			0		da	1	904	6	6	antiphase_hc_ois.wav	3	6	2	noise_calib_stim_LEFT.wav	1	8	blb_dichoticlistening_da-da.mp3	da	da	0	left
6.6.1	win	2023-06-19	08:13:21	0	0	6361769fee0c219b0f1cc480	2	1	DL_test	15	DL_test	21			0		pa	1	821	6	6	antiphase_hc_ois.wav	3	6	2	noise_calib_stim_LEFT.wav	1	35	blb_dichoticlistening_ta-pa.mp3	ta	pa	1	right
6.6.1	win	2023-06-19	08:13:21	0	0	6361769fee0c219b0f1cc480	2	1	DL_test	15	DL_test	22			0		ka	1	579	6	6	antiphase_hc_ois.wav	3	6	2	noise_calib_stim_LEFT.wav	1	34	blb_dichoticlistening_ta-ka.mp3	ta	ka	1	right
6.6.1	win	2023-06-19	08:13:21	0	0	6361769fee0c219b0f1cc480	2	1	DL_test	15	DL_test	23			0		pa	1	840	6	6	antiphase_hc_ois.wav	3	6	2	noise_calib_stim_LEFT.wav	1	29	blb_dichoticlistening_pa-pa.mp3	pa	pa	0	left
6.6.1	win	2023-06-19	08:13:21	0	0	6361769fee0c219b0f1cc480	2	1	DL_test	15	DL_test	24			0		da	1	718	6	6	antiphase_hc_ois.wav	3	6	2	noise_calib_stim_LEFT.wav	1	14	blb_dichoticlistening_ga-da.mp3	ga	da	1	right
6.6.1	win	2023-06-19	08:13:21	0	0	6361769fee0c219b0f1cc480	2	1	DL_test	15	DL_test	25			0		pa	1	893	6	6	antiphase_hc_ois.wav	3	6	2	noise_calib_stim_LEFT.wav	1	11	blb_dichoticlistening_da-pa.mp3	da	pa	1	right
6.6.1	win	2023-06-19	08:13:21	0	0	6361769fee0c219b0f1cc480	2	1	DL_test	15	DL_test	26			0		da	1	970	6	6	antiphase_hc_ois.wav	3	6	2	noise_calib_stim_LEFT.wav	1	2	blb_dichoticlistening_ba-da.mp3	ba	da	1	right
6.6.1	win	2023-06-19	08:13:21	0	0	6361769fee0c219b0f1cc480	2	1	DL_test	15	DL_test	27			0		pa	0	1287	6	6	antiphase_hc_ois.wav	3	6	2	noise_calib_stim_LEFT.wav	1	10	blb_dichoticlistening_da-ka.mp3	da	ka	1	other
6.6.1	win	2023-06-19	08:13:21	0	0	6361769fee0c219b0f1cc480	2	1	DL_test	15	DL_test	28			0		ka	1	685	6	6	antiphase_hc_ois.wav	3	6	2	noise_calib_stim_LEFT.wav	1	22	blb_dichoticlistening_ka-ka.mp3	ka	ka	0	left
6.6.1	win	2023-06-19	08:13:21	0	0	6361769fee0c219b0f1cc480	2	1	DL_test	15	DL_test	29			0		ba	1	1758	6	6	antiphase_hc_ois.wav	3	6	2	noise_calib_stim_LEFT.wav	1	7	blb_dichoticlistening_da-ba.mp3	da	ba	1	right
6.6.1	win	2023-06-19	08:13:21	0	0	6361769fee0c219b0f1cc480	2	1	DL_test	15	DL_test	30			0		ga	1	907	6	6	antiphase_hc_ois.wav	3	6	2	noise_calib_stim_LEFT.wav	1	15	blb_dichoticlistening_ga-ga.mp3	ga	ga	0	left
6.6.1	win	2023-06-19	08:13:21	0	0	6361769fee0c219b0f1cc480	2	1	DL_test	15	DL_test	31			0		ka	1	1010	6	6	antiphase_hc_ois.wav	3	6	2	noise_calib_stim_LEFT.wav	1	28	blb_dichoticlistening_pa-ka.mp3	pa	ka	1	right
6.6.1	win	2023-06-19	08:13:21	0	0	6361769fee0c219b0f1cc480	2	1	DL_test	15	DL_test	32			0		ka	0	1129	6	6	antiphase_hc_ois.wav	3	6	2	noise_calib_stim_LEFT.wav	1	18	blb_dichoticlistening_ga-ta.mp3	ga	ta	1	other
6.6.1	win	2023-06-19	08:13:21	0	0	6361769fee0c219b0f1cc480	2	1	DL_test	15	DL_test	33			0		da	1	1022	6	6	antiphase_hc_ois.wav	3	6	2	noise_calib_stim_LEFT.wav	1	20	blb_dichoticlistening_ka-da.mp3	ka	da	1	right
6.6.1	win	2023-06-19	08:13:21	0	0	6361769fee0c219b0f1cc480	2	1	DL_test	15	DL_test	34			0		pa	0	1141	6	6	antiphase_hc_ois.wav	3	6	2	noise_calib_stim_LEFT.wav	1	31	blb_dichoticlistening_ta-ba.mp3	ta	ba	1	other
6.6.1	win	2023-06-19	08:13:21	0	0	6361769fee0c219b0f1cc480	2	1	DL_test	15	DL_test	35			0		pa	1	1201	6	6	antiphase_hc_ois.wav	3	6	2	noise_calib_stim_LEFT.wav	1	17	blb_dichoticlistening_ga-pa.mp3	ga	pa	1	right
6.6.1	win	2023-06-19	08:13:21	0	0	6361769fee0c219b0f1cc480	2	1	DL_test	15	DL_test	36			0		ga	1	1157	6	6	antiphase_hc_ois.wav	3	6	2	noise_calib_stim_LEFT.wav	1	33	blb_dichoticlistening_ta-ga.mp3	ta	ga	1	right
6.6.1	win	2023-06-19	08:13:21	0	0	6361769fee0c219b0f1cc480	2	1	DL_test	16	DL_test	1			0		pa	0	2142	6	6	antiphase_hc_ois.wav	3	6	2	noise_calib_stim_LEFT.wav	1	19	blb_dichoticlistening_ka-ba.mp3	ka	ba	1	other
6.6.1	win	2023-06-19	08:13:21	0	0	6361769fee0c219b0f1cc480	2	1	DL_test	16	DL_test	2			0		ka	1	784	6	6	antiphase_hc_ois.wav	3	6	2	noise_calib_stim_LEFT.wav	1	34	blb_dichoticlistening_ta-ka.mp3	ta	ka	1	right
6.6.1	win	2023-06-19	08:13:21	0	0	6361769fee0c219b0f1cc480	2	1	DL_test	16	DL_test	3			0		pa	0	1425	6	6	antiphase_hc_ois.wav	3	6	2	noise_calib_stim_LEFT.wav	1	13	blb_dichoticlistening_ga-ba.mp3	ga	ba	1	other
6.6.1	win	2023-06-19	08:13:21	0	0	6361769fee0c219b0f1cc480	2	1	DL_test	16	DL_test	4			0		ga	1	922	6	6	antiphase_hc_ois.wav	3	6	2	noise_calib_stim_LEFT.wav	1	33	blb_dichoticlistening_ta-ga.mp3	ta	ga	1	right
6.6.1	win	2023-06-19	08:13:21	0	0	6361769fee0c219b0f1cc480	2	1	DL_test	16	DL_test	5			0		da	1	822	6	6	antiphase_hc_ois.wav	3	6	2	noise_calib_stim_LEFT.wav	1	8	blb_dichoticlistening_da-da.mp3	da	da	0	left
6.6.1	win	2023-06-19	08:13:21	0	0	6361769fee0c219b0f1cc480	2	1	DL_test	16	DL_test	6			0		ga	1	1163	6	6	antiphase_hc_ois.wav	3	6	2	noise_calib_stim_LEFT.wav	1	3	blb_dichoticlistening_ba-ga.mp3	ba	ga	1	right
6.6.1	win	2023-06-19	08:13:21	0	0	6361769fee0c219b0f1cc480	2	1	DL_test	16	DL_test	7			0		da	1	867	6	6	antiphase_hc_ois.wav	3	6	2	noise_calib_stim_LEFT.wav	1	26	blb_dichoticlistening_pa-da.mp3	pa	da	1	right
6.6.1	win	2023-06-19	08:13:21	0	0	6361769fee0c219b0f1cc480	2	1	DL_test	16	DL_test	8			0		pa	1	828	6	6	antiphase_hc_ois.wav	3	6	2	noise_calib_stim_LEFT.wav	1	11	blb_dichoticlistening_da-pa.mp3	da	pa	1	right
6.6.1	win	2023-06-19	08:13:21	0	0	6361769fee0c219b0f1cc480	2	1	DL_test	16	DL_test	9			0		da	1	843	6	6	antiphase_hc_ois.wav	3	6	2	noise_calib_stim_LEFT.wav	1	32	blb_dichoticlistening_ta-da.mp3	ta	da	1	right
6.6.1	win	2023-06-19	08:13:21	0	0	6361769fee0c219b0f1cc480	2	1	DL_test	16	DL_test	10			0		ka	1	781	6	6	antiphase_hc_ois.wav	3	6	2	noise_calib_stim_LEFT.wav	1	28	blb_dichoticlistening_pa-ka.mp3	pa	ka	1	right
6.6.1	win	2023-06-19	08:13:21	0	0	6361769fee0c219b0f1cc480	2	1	DL_test	16	DL_test	11			0		pa	1	714	6	6	antiphase_hc_ois.wav	3	6	2	noise_calib_stim_LEFT.wav	1	29	blb_dichoticlistening_pa-pa.mp3	pa	pa	0	left
6.6.1	win	2023-06-19	08:13:21	0	0	6361769fee0c219b0f1cc480	2	1	DL_test	16	DL_test	12			0		da	1	757	6	6	antiphase_hc_ois.wav	3	6	2	noise_calib_stim_LEFT.wav	1	2	blb_dichoticlistening_ba-da.mp3	ba	da	1	right
6.6.1	win	2023-06-19	08:13:21	0	0	6361769fee0c219b0f1cc480	2	1	DL_test	16	DL_test	13			0		pa	1	835	6	6	antiphase_hc_ois.wav	3	6	2	noise_calib_stim_LEFT.wav	1	5	blb_dichoticlistening_ba-pa.mp3	ba	pa	1	right
6.6.1	win	2023-06-19	08:13:21	0	0	6361769fee0c219b0f1cc480	2	1	DL_test	16	DL_test	14			0		da	1	790	6	6	antiphase_hc_ois.wav	3	6	2	noise_calib_stim_LEFT.wav	1	14	blb_dichoticlistening_ga-da.mp3	ga	da	1	right
6.6.1	win	2023-06-19	08:13:21	0	0	6361769fee0c219b0f1cc480	2	1	DL_test	16	DL_test	15			0		ga	1	677	6	6	antiphase_hc_ois.wav	3	6	2	noise_calib_stim_LEFT.wav	1	15	blb_dichoticlistening_ga-ga.mp3	ga	ga	0	left
6.6.1	win	2023-06-19	08:13:21	0	0	6361769fee0c219b0f1cc480	2	1	DL_test	16	DL_test	16			0		pa	1	737	6	6	antiphase_hc_ois.wav	3	6	2	noise_calib_stim_LEFT.wav	1	35	blb_dichoticlistening_ta-pa.mp3	ta	pa	1	right
6.6.1	win	2023-06-19	08:13:21	0	0	6361769fee0c219b0f1cc480	2	1	DL_test	16	DL_test	17			0		ta	1	1629	6	6	antiphase_hc_ois.wav	3	6	2	noise_calib_stim_LEFT.wav	1	30	blb_dichoticlistening_pa-ta.mp3	pa	ta	1	right
6.6.1	win	2023-06-19	08:13:21	0	0	6361769fee0c219b0f1cc480	2	1	DL_test	16	DL_test	18			0		ga	1	693	6	6	antiphase_hc_ois.wav	3	6	2	noise_calib_stim_LEFT.wav	1	21	blb_dichoticlistening_ka-ga.mp3	ka	ga	1	right
6.6.1	win	2023-06-19	08:13:21	0	0	6361769fee0c219b0f1cc480	2	1	DL_test	16	DL_test	19			0		ka	1	785	6	6	antiphase_hc_ois.wav	3	6	2	noise_calib_stim_LEFT.wav	1	24	blb_dichoticlistening_ka-ta.mp3	ka	ta	1	left
6.6.1	win	2023-06-19	08:13:21	0	0	6361769fee0c219b0f1cc480	2	1	DL_test	16	DL_test	20			0		ga	1	938	6	6	antiphase_hc_ois.wav	3	6	2	noise_calib_stim_LEFT.wav	1	9	blb_dichoticlistening_da-ga.mp3	da	ga	1	right
6.6.1	win	2023-06-19	08:13:21	0	0	6361769fee0c219b0f1cc480	2	1	DL_test	16	DL_test	21			0		ka	0	926	6	6	antiphase_hc_ois.wav	3	6	2	noise_calib_stim_LEFT.wav	1	6	blb_dichoticlistening_ba-ta.mp3	ba	ta	1	other
6.6.1	win	2023-06-19	08:13:21	0	0	6361769fee0c219b0f1cc480	2	1	DL_test	16	DL_test	22			0		da	1	854	6	6	antiphase_hc_ois.wav	3	6	2	noise_calib_stim_LEFT.wav	1	20	blb_dichoticlistening_ka-da.mp3	ka	da	1	right
6.6.1	win	2023-06-19	08:13:21	0	0	6361769fee0c219b0f1cc480	2	1	DL_test	16	DL_test	23			0		ba	1	1252	6	6	antiphase_hc_ois.wav	3	6	2	noise_calib_stim_LEFT.wav	1	1	blb_dichoticlistening_ba-ba.mp3	ba	ba	0	left
6.6.1	win	2023-06-19	08:13:21	0	0	6361769fee0c219b0f1cc480	2	1	DL_test	16	DL_test	24			0		ka	1	628	6	6	antiphase_hc_ois.wav	3	6	2	noise_calib_stim_LEFT.wav	1	4	blb_dichoticlistening_ba-ka.mp3	ba	ka	1	right
6.6.1	win	2023-06-19	08:13:21	0	0	6361769fee0c219b0f1cc480	2	1	DL_test	16	DL_test	25			0		pa	0	599	6	6	antiphase_hc_ois.wav	3	6	2	noise_calib_stim_LEFT.wav	1	10	blb_dichoticlistening_da-ka.mp3	da	ka	1	other
6.6.1	win	2023-06-19	08:13:21	0	0	6361769fee0c219b0f1cc480	2	1	DL_test	16	DL_test	26			0		ba	1	1057	6	6	antiphase_hc_ois.wav	3	6	2	noise_calib_stim_LEFT.wav	1	31	blb_dichoticlistening_ta-ba.mp3	ta	ba	1	right
6.6.1	win	2023-06-19	08:13:21	0	0	6361769fee0c219b0f1cc480	2	1	DL_test	16	DL_test	27			0		ba	1	743	6	6	antiphase_hc_ois.wav	3	6	2	noise_calib_stim_LEFT.wav	1	25	blb_dichoticlistening_pa-ba.mp3	pa	ba	1	right
6.6.1	win	2023-06-19	08:13:21	0	0	6361769fee0c219b0f1cc480	2	1	DL_test	16	DL_test	28			0		ka	1	859	6	6	antiphase_hc_ois.wav	3	6	2	noise_calib_stim_LEFT.wav	1	22	blb_dichoticlistening_ka-ka.mp3	ka	ka	0	left
6.6.1	win	2023-06-19	08:13:21	0	0	6361769fee0c219b0f1cc480	2	1	DL_test	16	DL_test	29			0		ga	1	865	6	6	antiphase_hc_ois.wav	3	6	2	noise_calib_stim_LEFT.wav	1	27	blb_dichoticlistening_pa-ga.mp3	pa	ga	1	right
6.6.1	win	2023-06-19	08:13:21	0	0	6361769fee0c219b0f1cc480	2	1	DL_test	16	DL_test	30			0		ka	1	838	6	6	antiphase_hc_ois.wav	3	6	2	noise_calib_stim_LEFT.wav	1	16	blb_dichoticlistening_ga-ka.mp3	ga	ka	1	right
6.6.1	win	2023-06-19	08:13:21	0	0	6361769fee0c219b0f1cc480	2	1	DL_test	16	DL_test	31			0		ba	1	822	6	6	antiphase_hc_ois.wav	3	6	2	noise_calib_stim_LEFT.wav	1	7	blb_dichoticlistening_da-ba.mp3	da	ba	1	right
6.6.1	win	2023-06-19	08:13:21	0	0	6361769fee0c219b0f1cc480	2	1	DL_test	16	DL_test	32			0		ka	0	690	6	6	antiphase_hc_ois.wav	3	6	2	noise_calib_stim_LEFT.wav	1	36	blb_dichoticlistening_ta-ta.mp3	ta	ta	0	other
6.6.1	win	2023-06-19	08:13:21	0	0	6361769fee0c219b0f1cc480	2	1	DL_test	16	DL_test	33			0		ka	0	765	6	6	antiphase_hc_ois.wav	3	6	2	noise_calib_stim_LEFT.wav	1	18	blb_dichoticlistening_ga-ta.mp3	ga	ta	1	other
6.6.1	win	2023-06-19	08:13:21	0	0	6361769fee0c219b0f1cc480	2	1	DL_test	16	DL_test	34			0		pa	1	786	6	6	antiphase_hc_ois.wav	3	6	2	noise_calib_stim_LEFT.wav	1	17	blb_dichoticlistening_ga-pa.mp3	ga	pa	1	right
6.6.1	win	2023-06-19	08:13:21	0	0	6361769fee0c219b0f1cc480	2	1	DL_test	16	DL_test	35			0		ta	1	921	6	6	antiphase_hc_ois.wav	3	6	2	noise_calib_stim_LEFT.wav	1	12	blb_dichoticlistening_da-ta.mp3	da	ta	1	right
6.6.1	win	2023-06-19	08:13:21	0	0	6361769fee0c219b0f1cc480	2	1	DL_test	16	DL_test	36			0		pa	1	991	6	6	antiphase_hc_ois.wav	3	6	2	noise_calib_stim_LEFT.wav	1	23	blb_dichoticlistening_ka-pa.mp3	ka	pa	1	right
6.6.1	win	2023-06-19	08:13:21	08:25:17	708572	6361769fee0c219b0f1cc480	2	1	practice_z	22	practice_z	1	stimuli_distractor_trianglediamonds.svg	stimuli_target_squarediamonds.svg	11	yes	44	1	617	6	6	antiphase_hc_ois.wav	3	6	2	noise_calib_stim_LEFT.wav	1	23	blb_dichoticlistening_ka-pa.mp3	ka	pa	1	right
6.6.1	win	2023-06-19	08:13:21	08:25:17	708572	6361769fee0c219b0f1cc480	2	1	practice_z	22	advance_on_keypress_ZEE	2	stimuli_distractor_trianglediamonds.svg	stimuli_target_squarediamonds.svg	11	yes	57	0	2352	6	6	antiphase_hc_ois.wav	3	6	2	noise_calib_stim_LEFT.wav	1	23	blb_dichoticlistening_ka-pa.mp3	ka	pa	1	right
6.6.1	win	2023-06-19	08:13:21	08:25:22	713554	6361769fee0c219b0f1cc480	2	1	practice_z	22	practice_z	3	stimuli_distractor_diamondtriangles.svg	stimuli_target_rectangletriangles.svg	7	yes	44	1	982	6	6	antiphase_hc_ois.wav	3	6	2	noise_calib_stim_LEFT.wav	1	23	blb_dichoticlistening_ka-pa.mp3	ka	pa	1	right
6.6.1	win	2023-06-19	08:13:21	08:25:22	713554	6361769fee0c219b0f1cc480	2	1	practice_z	22	advance_on_keypress_ZEE	4	stimuli_distractor_diamondtriangles.svg	stimuli_target_rectangletriangles.svg	7	yes	57	0	1713	6	6	antiphase_hc_ois.wav	3	6	2	noise_calib_stim_LEFT.wav	1	23	blb_dichoticlistening_ka-pa.mp3	ka	pa	1	right
6.6.1	win	2023-06-19	08:13:21	08:25:27	718137	6361769fee0c219b0f1cc480	2	1	practice_z	22	practice_z	5	stimuli_target_diamondsquares.svg	stimuli_distractor_diamondtriangles.svg	3	yes	44	1	1216	6	6	antiphase_hc_ois.wav	3	6	2	noise_calib_stim_LEFT.wav	1	23	blb_dichoticlistening_ka-pa.mp3	ka	pa	1	right
6.6.1	win	2023-06-19	08:13:21	08:25:27	718137	6361769fee0c219b0f1cc480	2	1	practice_z	22	advance_on_keypress_ZEE	6	stimuli_target_diamondsquares.svg	stimuli_distractor_diamondtriangles.svg	3	yes	57	0	1387	6	6	antiphase_hc_ois.wav	3	6	2	noise_calib_stim_LEFT.wav	1	23	blb_dichoticlistening_ka-pa.mp3	ka	pa	1	right
6.6.1	win	2023-06-19	08:13:21	08:25:32	723171	6361769fee0c219b0f1cc480	2	1	practice_z	22	practice_z	7	stimuli_distractor_diamondtriangles.svg	stimuli_distractor_diamondtriangles.svg	13	no	0	1	2000	6	6	antiphase_hc_ois.wav	3	6	2	noise_calib_stim_LEFT.wav	1	23	blb_dichoticlistening_ka-pa.mp3	ka	pa	1	right
6.6.1	win	2023-06-19	08:13:21	08:25:32	723171	6361769fee0c219b0f1cc480	2	1	practice_z	22	advance_on_keypress_ZEE	8	stimuli_distractor_diamondtriangles.svg	stimuli_distractor_diamondtriangles.svg	13	no	57	0	797	6	6	antiphase_hc_ois.wav	3	6	2	noise_calib_stim_LEFT.wav	1	23	blb_dichoticlistening_ka-pa.mp3	ka	pa	1	right
6.6.1	win	2023-06-19	08:13:21	08:25:35	726324	6361769fee0c219b0f1cc480	2	1	practice_z	22	practice_z	9	stimuli_target_rectanglediamonds.svg	stimuli_distractor_trianglediamonds.svg	4	yes	44	1	704	6	6	antiphase_hc_ois.wav	3	6	2	noise_calib_stim_LEFT.wav	1	23	blb_dichoticlistening_ka-pa.mp3	ka	pa	1	right
6.6.1	win	2023-06-19	08:13:21	08:25:35	726324	6361769fee0c219b0f1cc480	2	1	practice_z	22	advance_on_keypress_ZEE	10	stimuli_target_rectanglediamonds.svg	stimuli_distractor_trianglediamonds.svg	4	yes	57	0	1190	6	6	antiphase_hc_ois.wav	3	6	2	noise_calib_stim_LEFT.wav	1	23	blb_dichoticlistening_ka-pa.mp3	ka	pa	1	right
6.6.1	win	2023-06-19	08:13:21	08:25:40	731154	6361769fee0c219b0f1cc480	2	1	practice_z	22	practice_z	11	stimuli_distractor_trianglediamonds.svg	stimuli_distractor_trianglediamonds.svg	15	no	0	1	2000	6	6	antiphase_hc_ois.wav	3	6	2	noise_calib_stim_LEFT.wav	1	23	blb_dichoticlistening_ka-pa.mp3	ka	pa	1	right
6.6.1	win	2023-06-19	08:13:21	08:25:40	731154	6361769fee0c219b0f1cc480	2	1	practice_z	22	advance_on_keypress_ZEE	12	stimuli_distractor_trianglediamonds.svg	stimuli_distractor_trianglediamonds.svg	15	no	57	0	1442	6	6	antiphase_hc_ois.wav	3	6	2	noise_calib_stim_LEFT.wav	1	23	blb_dichoticlistening_ka-pa.mp3	ka	pa	1	right
6.6.1	win	2023-06-19	08:13:21	08:25:45	736237	6361769fee0c219b0f1cc480	2	1	practice_z	22	practice_z	13	stimuli_distractor_trianglediamonds.svg	stimuli_distractor_diamondtriangles.svg	16	no	0	1	2000	6	6	antiphase_hc_ois.wav	3	6	2	noise_calib_stim_LEFT.wav	1	23	blb_dichoticlistening_ka-pa.mp3	ka	pa	1	right
6.6.1	win	2023-06-19	08:13:21	08:25:45	736237	6361769fee0c219b0f1cc480	2	1	practice_z	22	advance_on_keypress_ZEE	14	stimuli_distractor_trianglediamonds.svg	stimuli_distractor_diamondtriangles.svg	16	no	57	0	691	6	6	antiphase_hc_ois.wav	3	6	2	noise_calib_stim_LEFT.wav	1	23	blb_dichoticlistening_ka-pa.mp3	ka	pa	1	right
6.6.1	win	2023-06-19	08:13:21	08:25:48	739343	6361769fee0c219b0f1cc480	2	1	practice_z	22	practice_z	15	stimuli_distractor_trianglediamonds.svg	stimuli_target_rectanglediamonds.svg	10	yes	44	1	772	6	6	antiphase_hc_ois.wav	3	6	2	noise_calib_stim_LEFT.wav	1	23	blb_dichoticlistening_ka-pa.mp3	ka	pa	1	right
6.6.1	win	2023-06-19	08:13:21	08:25:48	739343	6361769fee0c219b0f1cc480	2	1	practice_z	22	advance_on_keypress_ZEE	16	stimuli_distractor_trianglediamonds.svg	stimuli_target_rectanglediamonds.svg	10	yes	57	0	881	6	6	antiphase_hc_ois.wav	3	6	2	noise_calib_stim_LEFT.wav	1	23	blb_dichoticlistening_ka-pa.mp3	ka	pa	1	right
6.6.1	win	2023-06-19	08:13:21	08:25:51	742761	6361769fee0c219b0f1cc480	2	1	practice_z	22	practice_z	17	stimuli_distractor_trianglediamonds.svg	stimuli_target_diamondrectangles.svg	12	yes	44	1	890	6	6	antiphase_hc_ois.wav	3	6	2	noise_calib_stim_LEFT.wav	1	23	blb_dichoticlistening_ka-pa.mp3	ka	pa	1	right
6.6.1	win	2023-06-19	08:13:21	08:25:51	742761	6361769fee0c219b0f1cc480	2	1	practice_z	22	advance_on_keypress_ZEE	18	stimuli_distractor_trianglediamonds.svg	stimuli_target_diamondrectangles.svg	12	yes	57	0	1172	6	6	antiphase_hc_ois.wav	3	6	2	noise_calib_stim_LEFT.wav	1	23	blb_dichoticlistening_ka-pa.mp3	ka	pa	1	right
6.6.1	win	2023-06-19	08:13:21	08:25:55	746319	6361769fee0c219b0f1cc480	2	1	practice_z	22	practice_z	19	stimuli_distractor_diamondtriangles.svg	stimuli_target_diamondrectangles.svg	8	yes	44	1	749	6	6	antiphase_hc_ois.wav	3	6	2	noise_calib_stim_LEFT.wav	1	23	blb_dichoticlistening_ka-pa.mp3	ka	pa	1	right
6.6.1	win	2023-06-19	08:13:21	08:25:55	746319	6361769fee0c219b0f1cc480	2	1	practice_z	22	advance_on_keypress_ZEE	20	stimuli_distractor_diamondtriangles.svg	stimuli_target_diamondrectangles.svg	8	yes	57	0	2171	6	6	antiphase_hc_ois.wav	3	6	2	noise_calib_stim_LEFT.wav	1	23	blb_dichoticlistening_ka-pa.mp3	ka	pa	1	right
6.6.1	win	2023-06-19	08:13:21	08:25:59	750860	6361769fee0c219b0f1cc480	2	1	practice_z	22	practice_z	21	stimuli_target_squarediamonds.svg	stimuli_distractor_diamondtriangles.svg	2	yes	44	1	723	6	6	antiphase_hc_ois.wav	3	6	2	noise_calib_stim_LEFT.wav	1	23	blb_dichoticlistening_ka-pa.mp3	ka	pa	1	right
6.6.1	win	2023-06-19	08:13:21	08:25:59	750860	6361769fee0c219b0f1cc480	2	1	practice_z	22	advance_on_keypress_ZEE	22	stimuli_target_squarediamonds.svg	stimuli_distractor_diamondtriangles.svg	2	yes	57	0	1837	6	6	antiphase_hc_ois.wav	3	6	2	noise_calib_stim_LEFT.wav	1	23	blb_dichoticlistening_ka-pa.mp3	ka	pa	1	right
6.6.1	win	2023-06-19	08:13:21	08:26:05	756337	6361769fee0c219b0f1cc480	2	1	practice_z	22	practice_z	23	stimuli_distractor_diamondtriangles.svg	stimuli_distractor_trianglediamonds.svg	14	no	0	1	2000	6	6	antiphase_hc_ois.wav	3	6	2	noise_calib_stim_LEFT.wav	1	23	blb_dichoticlistening_ka-pa.mp3	ka	pa	1	right
6.6.1	win	2023-06-19	08:13:21	08:26:05	756337	6361769fee0c219b0f1cc480	2	1	practice_z	22	advance_on_keypress_ZEE	24	stimuli_distractor_diamondtriangles.svg	stimuli_distractor_trianglediamonds.svg	14	no	57	0	485	6	6	antiphase_hc_ois.wav	3	6	2	noise_calib_stim_LEFT.wav	1	23	blb_dichoticlistening_ka-pa.mp3	ka	pa	1	right
6.6.1	win	2023-06-19	08:13:21	08:26:08	759107	6361769fee0c219b0f1cc480	2	1	practice_z	22	practice_z	25	stimuli_target_squarediamonds.svg	stimuli_distractor_trianglediamonds.svg	5	yes	44	1	638	6	6	antiphase_hc_ois.wav	3	6	2	noise_calib_stim_LEFT.wav	1	23	blb_dichoticlistening_ka-pa.mp3	ka	pa	1	right
6.6.1	win	2023-06-19	08:13:21	08:26:08	759107	6361769fee0c219b0f1cc480	2	1	practice_z	22	advance_on_keypress_ZEE	26	stimuli_target_squarediamonds.svg	stimuli_distractor_trianglediamonds.svg	5	yes	57	0	983	6	6	antiphase_hc_ois.wav	3	6	2	noise_calib_stim_LEFT.wav	1	23	blb_dichoticlistening_ka-pa.mp3	ka	pa	1	right
6.6.1	win	2023-06-19	08:13:21	08:26:11	762529	6361769fee0c219b0f1cc480	2	1	practice_z	22	practice_z	27	stimuli_distractor_diamondtriangles.svg	stimuli_target_trianglerectangles.svg	9	yes	44	1	793	6	6	antiphase_hc_ois.wav	3	6	2	noise_calib_stim_LEFT.wav	1	23	blb_dichoticlistening_ka-pa.mp3	ka	pa	1	right
6.6.1	win	2023-06-19	08:13:21	08:26:11	762529	6361769fee0c219b0f1cc480	2	1	practice_z	22	advance_on_keypress_ZEE	28	stimuli_distractor_diamondtriangles.svg	stimuli_target_trianglerectangles.svg	9	yes	57	0	855	6	6	antiphase_hc_ois.wav	3	6	2	noise_calib_stim_LEFT.wav	1	23	blb_dichoticlistening_ka-pa.mp3	ka	pa	1	right
6.6.1	win	2023-06-19	08:13:21	08:26:14	765956	6361769fee0c219b0f1cc480	2	1	practice_z	22	practice_z	29	stimuli_target_rectanglediamonds.svg	stimuli_distractor_diamondtriangles.svg	1	yes	44	1	937	6	6	antiphase_hc_ois.wav	3	6	2	noise_calib_stim_LEFT.wav	1	23	blb_dichoticlistening_ka-pa.mp3	ka	pa	1	right
6.6.1	win	2023-06-19	08:13:21	08:26:14	765956	6361769fee0c219b0f1cc480	2	1	practice_z	22	advance_on_keypress_ZEE	30	stimuli_target_rectanglediamonds.svg	stimuli_distractor_diamondtriangles.svg	1	yes	57	0	682	6	6	antiphase_hc_ois.wav	3	6	2	noise_calib_stim_LEFT.wav	1	23	blb_dichoticlistening_ka-pa.mp3	ka	pa	1	right
6.6.1	win	2023-06-19	08:13:21	08:26:18	769501	6361769fee0c219b0f1cc480	2	1	practice_z	22	practice_z	31	stimuli_target_diamondsquares.svg	stimuli_distractor_trianglediamonds.svg	6	yes	44	1	1214	6	6	antiphase_hc_ois.wav	3	6	2	noise_calib_stim_LEFT.wav	1	23	blb_dichoticlistening_ka-pa.mp3	ka	pa	1	right
6.6.1	win	2023-06-19	08:13:21	08:26:18	769501	6361769fee0c219b0f1cc480	2	1	practice_z	22	advance_on_keypress_ZEE	32	stimuli_target_diamondsquares.svg	stimuli_distractor_trianglediamonds.svg	6	yes	57	0	2707	6	6	antiphase_hc_ois.wav	3	6	2	noise_calib_stim_LEFT.wav	1	23	blb_dichoticlistening_ka-pa.mp3	ka	pa	1	right
6.6.1	win	2023-06-19	08:13:21	08:26:36	787513	6361769fee0c219b0f1cc480	2	1	main_z	24	main_z	1	stimuli_target_trianglesquares.svg	stimuli_distractor_trianglediamonds.svg	18	yes	44	1	894	6	6	antiphase_hc_ois.wav	3	6	2	noise_calib_stim_LEFT.wav	1	23	blb_dichoticlistening_ka-pa.mp3	ka	pa	1	right
6.6.1	win	2023-06-19	08:13:21	08:26:36	787513	6361769fee0c219b0f1cc480	2	1	main_z	24	advance_on_keypress_ZEE	2	stimuli_target_trianglesquares.svg	stimuli_distractor_trianglediamonds.svg	18	yes	57	0	1215	6	6	antiphase_hc_ois.wav	3	6	2	noise_calib_stim_LEFT.wav	1	23	blb_dichoticlistening_ka-pa.mp3	ka	pa	1	right
6.6.1	win	2023-06-19	08:13:21	08:26:39	790302	6361769fee0c219b0f1cc480	2	1	main_z	24	main_z	3	stimuli_distractor_diamondtriangles.svg	stimuli_target_rectanglediamonds.svg	14	yes	44	1	917	6	6	antiphase_hc_ois.wav	3	6	2	noise_calib_stim_LEFT.wav	1	23	blb_dichoticlistening_ka-pa.mp3	ka	pa	1	right
6.6.1	win	2023-06-19	08:13:21	08:26:39	790302	6361769fee0c219b0f1cc480	2	1	main_z	24	advance_on_keypress_ZEE	4	stimuli_distractor_diamondtriangles.svg	stimuli_target_rectanglediamonds.svg	14	yes	57	0	841	6	6	antiphase_hc_ois.wav	3	6	2	noise_calib_stim_LEFT.wav	1	23	blb_dichoticlistening_ka-pa.mp3	ka	pa	1	right
6.6.1	win	2023-06-19	08:13:21	08:26:41	792630	6361769fee0c219b0f1cc480	2	1	main_z	24	main_z	5	stimuli_distractor_trianglediamonds.svg	stimuli_target_diamondsquares.svg	28	yes	44	1	845	6	6	antiphase_hc_ois.wav	3	6	2	noise_calib_stim_LEFT.wav	1	23	blb_dichoticlistening_ka-pa.mp3	ka	pa	1	right
6.6.1	win	2023-06-19	08:13:21	08:26:41	792630	6361769fee0c219b0f1cc480	2	1	main_z	24	advance_on_keypress_ZEE	6	stimuli_distractor_trianglediamonds.svg	stimuli_target_diamondsquares.svg	28	yes	57	0	829	6	6	antiphase_hc_ois.wav	3	6	2	noise_calib_stim_LEFT.wav	1	23	blb_dichoticlistening_ka-pa.mp3	ka	pa	1	right
6.6.1	win	2023-06-19	08:13:21	08:26:43	794896	6361769fee0c219b0f1cc480	2	1	main_z	24	main_z	7	stimuli_distractor_trianglediamonds.svg	stimuli_target_trianglesquares.svg	26	yes	44	1	811	6	6	antiphase_hc_ois.wav	3	6	2	noise_calib_stim_LEFT.wav	1	23	blb_dichoticlistening_ka-pa.mp3	ka	pa	1	right
6.6.1	win	2023-06-19	08:13:21	08:26:43	794896	6361769fee0c219b0f1cc480	2	1	main_z	24	advance_on_keypress_ZEE	8	stimuli_distractor_trianglediamonds.svg	stimuli_target_trianglesquares.svg	26	yes	57	0	688	6	6	antiphase_hc_ois.wav	3	6	2	noise_calib_stim_LEFT.wav	1	23	blb_dichoticlistening_ka-pa.mp3	ka	pa	1	right
6.6.1	win	2023-06-19	08:13:21	08:26:46	797087	6361769fee0c219b0f1cc480	2	1	main_z	24	main_z	9	stimuli_target_trianglesquares.svg	stimuli_distractor_diamondtriangles.svg	22	yes	44	1	869	6	6	antiphase_hc_ois.wav	3	6	2	noise_calib_stim_LEFT.wav	1	23	blb_dichoticlistening_ka-pa.mp3	ka	pa	1	right
6.6.1	win	2023-06-19	08:13:21	08:26:46	797087	6361769fee0c219b0f1cc480	2	1	main_z	24	advance_on_keypress_ZEE	10	stimuli_target_trianglesquares.svg	stimuli_distractor_diamondtriangles.svg	22	yes	57	0	646	6	6	antiphase_hc_ois.wav	3	6	2	noise_calib_stim_LEFT.wav	1	23	blb_dichoticlistening_ka-pa.mp3	ka	pa	1	right
6.6.1	win	2023-06-19	08:13:21	08:26:48	799589	6361769fee0c219b0f1cc480	2	1	main_z	24	main_z	11	stimuli_target_diamondrectangles.svg	stimuli_distractor_trianglediamonds.svg	19	yes	44	1	1221	6	6	antiphase_hc_ois.wav	3	6	2	noise_calib_stim_LEFT.wav	1	23	blb_dichoticlistening_ka-pa.mp3	ka	pa	1	right
6.6.1	win	2023-06-19	08:13:21	08:26:48	799589	6361769fee0c219b0f1cc480	2	1	main_z	24	advance_on_keypress_ZEE	12	stimuli_target_diamondrectangles.svg	stimuli_distractor_trianglediamonds.svg	19	yes	57	0	524	6	6	antiphase_hc_ois.wav	3	6	2	noise_calib_stim_LEFT.wav	1	23	blb_dichoticlistening_ka-pa.mp3	ka	pa	1	right
6.6.1	win	2023-06-19	08:13:21	08:26:50	801579	6361769fee0c219b0f1cc480	2	1	main_z	24	main_z	13	stimuli_distractor_diamondtriangles.svg	stimuli_target_diamondrectangles.svg	31	yes	44	1	828	6	6	antiphase_hc_ois.wav	3	6	2	noise_calib_stim_LEFT.wav	1	23	blb_dichoticlistening_ka-pa.mp3	ka	pa	1	right
6.6.1	win	2023-06-19	08:13:21	08:26:50	801579	6361769fee0c219b0f1cc480	2	1	main_z	24	advance_on_keypress_ZEE	14	stimuli_distractor_diamondtriangles.svg	stimuli_target_diamondrectangles.svg	31	yes	57	0	465	6	6	antiphase_hc_ois.wav	3	6	2	noise_calib_stim_LEFT.wav	1	23	blb_dichoticlistening_ka-pa.mp3	ka	pa	1	right
6.6.1	win	2023-06-19	08:13:21	08:26:53	804684	6361769fee0c219b0f1cc480	2	1	main_z	24	main_z	15	stimuli_distractor_diamondtriangles.svg	stimuli_distractor_trianglediamonds.svg	38	no	0	1	2000	6	6	antiphase_hc_ois.wav	3	6	2	noise_calib_stim_LEFT.wav	1	23	blb_dichoticlistening_ka-pa.mp3	ka	pa	1	right
6.6.1	win	2023-06-19	08:13:21	08:26:53	804684	6361769fee0c219b0f1cc480	2	1	main_z	24	advance_on_keypress_ZEE	16	stimuli_distractor_diamondtriangles.svg	stimuli_distractor_trianglediamonds.svg	38	no	57	0	651	6	6	antiphase_hc_ois.wav	3	6	2	noise_calib_stim_LEFT.wav	1	23	blb_dichoticlistening_ka-pa.mp3	ka	pa	1	right
6.6.1	win	2023-06-19	08:13:21	08:26:56	807984	6361769fee0c219b0f1cc480	2	1	main_z	24	main_z	17	stimuli_distractor_diamondtriangles.svg	stimuli_distractor_diamondtriangles.svg	40	no	0	1	2000	6	6	antiphase_hc_ois.wav	3	6	2	noise_calib_stim_LEFT.wav	1	23	blb_dichoticlistening_ka-pa.mp3	ka	pa	1	right
6.6.1	win	2023-06-19	08:13:21	08:26:56	807984	6361769fee0c219b0f1cc480	2	1	main_z	24	advance_on_keypress_ZEE	18	stimuli_distractor_diamondtriangles.svg	stimuli_distractor_diamondtriangles.svg	40	no	57	0	479	6	6	antiphase_hc_ois.wav	3	6	2	noise_calib_stim_LEFT.wav	1	23	blb_dichoticlistening_ka-pa.mp3	ka	pa	1	right
6.6.1	win	2023-06-19	08:13:21	08:26:58	809711	6361769fee0c219b0f1cc480	2	1	main_z	24	main_z	19	stimuli_target_squaretriangles.svg	stimuli_distractor_diamondtriangles.svg	7	yes	44	1	593	6	6	antiphase_hc_ois.wav	3	6	2	noise_calib_stim_LEFT.wav	1	23	blb_dichoticlistening_ka-pa.mp3	ka	pa	1	right
6.6.1	win	2023-06-19	08:13:21	08:26:58	809711	6361769fee0c219b0f1cc480	2	1	main_z	24	advance_on_keypress_ZEE	20	stimuli_target_squaretriangles.svg	stimuli_distractor_diamondtriangles.svg	7	yes	57	0	696	6	6	antiphase_hc_ois.wav	3	6	2	noise_calib_stim_LEFT.wav	1	23	blb_dichoticlistening_ka-pa.mp3	ka	pa	1	right
6.6.1	win	2023-06-19	08:13:21	08:27:00	811733	6361769fee0c219b0f1cc480	2	1	main_z	24	main_z	21	stimuli_target_rectangletriangles.svg	stimuli_distractor_trianglediamonds.svg	1	yes	44	1	682	6	6	antiphase_hc_ois.wav	3	6	2	noise_calib_stim_LEFT.wav	1	23	blb_dichoticlistening_ka-pa.mp3	ka	pa	1	right
6.6.1	win	2023-06-19	08:13:21	08:27:00	811733	6361769fee0c219b0f1cc480	2	1	main_z	24	advance_on_keypress_ZEE	22	stimuli_target_rectangletriangles.svg	stimuli_distractor_trianglediamonds.svg	1	yes	57	0	431	6	6	antiphase_hc_ois.wav	3	6	2	noise_calib_stim_LEFT.wav	1	23	blb_dichoticlistening_ka-pa.mp3	ka	pa	1	right
6.6.1	win	2023-06-19	08:13:21	08:27:03	814818	6361769fee0c219b0f1cc480	2	1	main_z	24	main_z	23	stimuli_distractor_diamondtriangles.svg	stimuli_distractor_trianglediamonds.svg	37	no	0	1	2000	6	6	antiphase_hc_ois.wav	3	6	2	noise_calib_stim_LEFT.wav	1	23	blb_dichoticlistening_ka-pa.mp3	ka	pa	1	right
6.6.1	win	2023-06-19	08:13:21	08:27:03	814818	6361769fee0c219b0f1cc480	2	1	main_z	24	advance_on_keypress_ZEE	24	stimuli_distractor_diamondtriangles.svg	stimuli_distractor_trianglediamonds.svg	37	no	57	0	595	6	6	antiphase_hc_ois.wav	3	6	2	noise_calib_stim_LEFT.wav	1	23	blb_dichoticlistening_ka-pa.mp3	ka	pa	1	right
6.6.1	win	2023-06-19	08:13:21	08:27:05	816606	6361769fee0c219b0f1cc480	2	1	main_z	24	main_z	25	stimuli_distractor_diamondtriangles.svg	stimuli_target_trianglesquares.svg	30	yes	44	1	556	6	6	antiphase_hc_ois.wav	3	6	2	noise_calib_stim_LEFT.wav	1	23	blb_dichoticlistening_ka-pa.mp3	ka	pa	1	right
6.6.1	win	2023-06-19	08:13:21	08:27:05	816606	6361769fee0c219b0f1cc480	2	1	main_z	24	advance_on_keypress_ZEE	26	stimuli_distractor_diamondtriangles.svg	stimuli_target_trianglesquares.svg	30	yes	57	0	472	6	6	antiphase_hc_ois.wav	3	6	2	noise_calib_stim_LEFT.wav	1	23	blb_dichoticlistening_ka-pa.mp3	ka	pa	1	right
6.6.1	win	2023-06-19	08:13:21	08:27:07	818354	6361769fee0c219b0f1cc480	2	1	main_z	24	main_z	27	stimuli_target_squarediamonds.svg	stimuli_distractor_diamondtriangles.svg	8	yes	44	1	637	6	6	antiphase_hc_ois.wav	3	6	2	noise_calib_stim_LEFT.wav	1	23	blb_dichoticlistening_ka-pa.mp3	ka	pa	1	right
6.6.1	win	2023-06-19	08:13:21	08:27:07	818354	6361769fee0c219b0f1cc480	2	1	main_z	24	advance_on_keypress_ZEE	28	stimuli_target_squarediamonds.svg	stimuli_distractor_diamondtriangles.svg	8	yes	57	0	293	6	6	antiphase_hc_ois.wav	3	6	2	noise_calib_stim_LEFT.wav	1	23	blb_dichoticlistening_ka-pa.mp3	ka	pa	1	right
6.6.1	win	2023-06-19	08:13:21	08:27:08	819960	6361769fee0c219b0f1cc480	2	1	main_z	24	main_z	29	stimuli_target_diamondsquares.svg	stimuli_distractor_diamondtriangles.svg	24	yes	44	1	677	6	6	antiphase_hc_ois.wav	3	6	2	noise_calib_stim_LEFT.wav	1	23	blb_dichoticlistening_ka-pa.mp3	ka	pa	1	right
6.6.1	win	2023-06-19	08:13:21	08:27:08	819960	6361769fee0c219b0f1cc480	2	1	main_z	24	advance_on_keypress_ZEE	30	stimuli_target_diamondsquares.svg	stimuli_distractor_diamondtriangles.svg	24	yes	57	0	313	6	6	antiphase_hc_ois.wav	3	6	2	noise_calib_stim_LEFT.wav	1	23	blb_dichoticlistening_ka-pa.mp3	ka	pa	1	right
6.6.1	win	2023-06-19	08:13:21	08:27:10	821680	6361769fee0c219b0f1cc480	2	1	main_z	24	main_z	31	stimuli_target_rectangletriangles.svg	stimuli_distractor_diamondtriangles.svg	5	yes	44	1	779	6	6	antiphase_hc_ois.wav	3	6	2	noise_calib_stim_LEFT.wav	1	23	blb_dichoticlistening_ka-pa.mp3	ka	pa	1	right
6.6.1	win	2023-06-19	08:13:21	08:27:10	821680	6361769fee0c219b0f1cc480	2	1	main_z	24	advance_on_keypress_ZEE	32	stimuli_target_rectangletriangles.svg	stimuli_distractor_diamondtriangles.svg	5	yes	57	0	745	6	6	antiphase_hc_ois.wav	3	6	2	noise_calib_stim_LEFT.wav	1	23	blb_dichoticlistening_ka-pa.mp3	ka	pa	1	right
6.6.1	win	2023-06-19	08:13:21	08:27:12	823700	6361769fee0c219b0f1cc480	2	1	main_z	24	main_z	33	stimuli_distractor_trianglediamonds.svg	stimuli_target_squaretriangles.svg	11	yes	44	1	633	6	6	antiphase_hc_ois.wav	3	6	2	noise_calib_stim_LEFT.wav	1	23	blb_dichoticlistening_ka-pa.mp3	ka	pa	1	right
6.6.1	win	2023-06-19	08:13:21	08:27:12	823700	6361769fee0c219b0f1cc480	2	1	main_z	24	advance_on_keypress_ZEE	34	stimuli_distractor_trianglediamonds.svg	stimuli_target_squaretriangles.svg	11	yes	57	0	286	6	6	antiphase_hc_ois.wav	3	6	2	noise_calib_stim_LEFT.wav	1	23	blb_dichoticlistening_ka-pa.mp3	ka	pa	1	right
6.6.1	win	2023-06-19	08:13:21	08:27:14	825677	6361769fee0c219b0f1cc480	2	1	main_z	24	main_z	35	stimuli_target_trianglerectangles.svg	stimuli_distractor_trianglediamonds.svg	17	yes	44	1	1044	6	6	antiphase_hc_ois.wav	3	6	2	noise_calib_stim_LEFT.wav	1	23	blb_dichoticlistening_ka-pa.mp3	ka	pa	1	right
6.6.1	win	2023-06-19	08:13:21	08:27:14	825677	6361769fee0c219b0f1cc480	2	1	main_z	24	advance_on_keypress_ZEE	36	stimuli_target_trianglerectangles.svg	stimuli_distractor_trianglediamonds.svg	17	yes	57	0	315	6	6	antiphase_hc_ois.wav	3	6	2	noise_calib_stim_LEFT.wav	1	23	blb_dichoticlistening_ka-pa.mp3	ka	pa	1	right
6.6.1	win	2023-06-19	08:13:21	08:27:16	827415	6361769fee0c219b0f1cc480	2	1	main_z	24	main_z	37	stimuli_distractor_trianglediamonds.svg	stimuli_target_trianglerectangles.svg	25	yes	44	1	782	6	6	antiphase_hc_ois.wav	3	6	2	noise_calib_stim_LEFT.wav	1	23	blb_dichoticlistening_ka-pa.mp3	ka	pa	1	right
6.6.1	win	2023-06-19	08:13:21	08:27:16	827415	6361769fee0c219b0f1cc480	2	1	main_z	24	advance_on_keypress_ZEE	38	stimuli_distractor_trianglediamonds.svg	stimuli_target_trianglerectangles.svg	25	yes	57	0	260	6	6	antiphase_hc_ois.wav	3	6	2	noise_calib_stim_LEFT.wav	1	23	blb_dichoticlistening_ka-pa.mp3	ka	pa	1	right
6.6.1	win	2023-06-19	08:13:21	08:27:18	829104	6361769fee0c219b0f1cc480	2	1	main_z	24	main_z	39	stimuli_target_diamondsquares.svg	stimuli_distractor_trianglediamonds.svg	20	yes	44	1	787	6	6	antiphase_hc_ois.wav	3	6	2	noise_calib_stim_LEFT.wav	1	23	blb_dichoticlistening_ka-pa.mp3	ka	pa	1	right
6.6.1	win	2023-06-19	08:13:21	08:27:18	829104	6361769fee0c219b0f1cc480	2	1	main_z	24	advance_on_keypress_ZEE	40	stimuli_target_diamondsquares.svg	stimuli_distractor_trianglediamonds.svg	20	yes	57	0	267	6	6	antiphase_hc_ois.wav	3	6	2	noise_calib_stim_LEFT.wav	1	23	blb_dichoticlistening_ka-pa.mp3	ka	pa	1	right
6.6.1	win	2023-06-19	08:13:21	08:27:19	830704	6361769fee0c219b0f1cc480	2	1	main_z	24	main_z	41	stimuli_target_diamondrectangles.svg	stimuli_distractor_diamondtriangles.svg	23	yes	44	1	687	6	6	antiphase_hc_ois.wav	3	6	2	noise_calib_stim_LEFT.wav	1	23	blb_dichoticlistening_ka-pa.mp3	ka	pa	1	right
6.6.1	win	2023-06-19	08:13:21	08:27:19	830704	6361769fee0c219b0f1cc480	2	1	main_z	24	advance_on_keypress_ZEE	42	stimuli_target_diamondrectangles.svg	stimuli_distractor_diamondtriangles.svg	23	yes	57	0	291	6	6	antiphase_hc_ois.wav	3	6	2	noise_calib_stim_LEFT.wav	1	23	blb_dichoticlistening_ka-pa.mp3	ka	pa	1	right
6.6.1	win	2023-06-19	08:13:21	08:27:22	833634	6361769fee0c219b0f1cc480	2	1	main_z	24	main_z	43	stimuli_distractor_diamondtriangles.svg	stimuli_distractor_diamondtriangles.svg	39	no	0	1	2000	6	6	antiphase_hc_ois.wav	3	6	2	noise_calib_stim_LEFT.wav	1	23	blb_dichoticlistening_ka-pa.mp3	ka	pa	1	right
6.6.1	win	2023-06-19	08:13:21	08:27:22	833634	6361769fee0c219b0f1cc480	2	1	main_z	24	advance_on_keypress_ZEE	44	stimuli_distractor_diamondtriangles.svg	stimuli_distractor_diamondtriangles.svg	39	no	57	0	368	6	6	antiphase_hc_ois.wav	3	6	2	noise_calib_stim_LEFT.wav	1	23	blb_dichoticlistening_ka-pa.mp3	ka	pa	1	right
6.6.1	win	2023-06-19	08:13:21	08:27:24	835520	6361769fee0c219b0f1cc480	2	1	main_z	24	main_z	45	stimuli_distractor_trianglediamonds.svg	stimuli_target_rectangletriangles.svg	9	yes	44	1	871	6	6	antiphase_hc_ois.wav	3	6	2	noise_calib_stim_LEFT.wav	1	23	blb_dichoticlistening_ka-pa.mp3	ka	pa	1	right
6.6.1	win	2023-06-19	08:13:21	08:27:24	835520	6361769fee0c219b0f1cc480	2	1	main_z	24	advance_on_keypress_ZEE	46	stimuli_distractor_trianglediamonds.svg	stimuli_target_rectangletriangles.svg	9	yes	57	0	346	6	6	antiphase_hc_ois.wav	3	6	2	noise_calib_stim_LEFT.wav	1	23	blb_dichoticlistening_ka-pa.mp3	ka	pa	1	right
6.6.1	win	2023-06-19	08:13:21	08:27:26	837171	6361769fee0c219b0f1cc480	2	1	main_z	24	main_z	47	stimuli_distractor_trianglediamonds.svg	stimuli_target_squarediamonds.svg	12	yes	44	1	671	6	6	antiphase_hc_ois.wav	3	6	2	noise_calib_stim_LEFT.wav	1	23	blb_dichoticlistening_ka-pa.mp3	ka	pa	1	right
6.6.1	win	2023-06-19	08:13:21	08:27:26	837171	6361769fee0c219b0f1cc480	2	1	main_z	24	advance_on_keypress_ZEE	48	stimuli_distractor_trianglediamonds.svg	stimuli_target_squarediamonds.svg	12	yes	57	0	511	6	6	antiphase_hc_ois.wav	3	6	2	noise_calib_stim_LEFT.wav	1	23	blb_dichoticlistening_ka-pa.mp3	ka	pa	1	right
6.6.1	win	2023-06-19	08:13:21	08:27:29	840317	6361769fee0c219b0f1cc480	2	1	main_z	24	main_z	49	stimuli_distractor_trianglediamonds.svg	stimuli_distractor_diamondtriangles.svg	35	no	0	1	2000	6	6	antiphase_hc_ois.wav	3	6	2	noise_calib_stim_LEFT.wav	1	23	blb_dichoticlistening_ka-pa.mp3	ka	pa	1	right
6.6.1	win	2023-06-19	08:13:21	08:27:29	840317	6361769fee0c219b0f1cc480	2	1	main_z	24	advance_on_keypress_ZEE	50	stimuli_distractor_trianglediamonds.svg	stimuli_distractor_diamondtriangles.svg	35	no	57	0	1396	6	6	antiphase_hc_ois.wav	3	6	2	noise_calib_stim_LEFT.wav	1	23	blb_dichoticlistening_ka-pa.mp3	ka	pa	1	right
6.6.1	win	2023-06-19	08:13:21	08:27:31	842951	6361769fee0c219b0f1cc480	2	1	main_z	24	main_z	51	stimuli_target_squaretriangles.svg	stimuli_distractor_trianglediamonds.svg	3	yes	44	1	585	6	6	antiphase_hc_ois.wav	3	6	2	noise_calib_stim_LEFT.wav	1	23	blb_dichoticlistening_ka-pa.mp3	ka	pa	1	right
6.6.1	win	2023-06-19	08:13:21	08:27:31	842951	6361769fee0c219b0f1cc480	2	1	main_z	24	advance_on_keypress_ZEE	52	stimuli_target_squaretriangles.svg	stimuli_distractor_trianglediamonds.svg	3	yes	57	0	697	6	6	antiphase_hc_ois.wav	3	6	2	noise_calib_stim_LEFT.wav	1	23	blb_dichoticlistening_ka-pa.mp3	ka	pa	1	right
6.6.1	win	2023-06-19	08:13:21	08:27:35	846300	6361769fee0c219b0f1cc480	2	1	main_z	24	main_z	53	stimuli_distractor_trianglediamonds.svg	stimuli_distractor_trianglediamonds.svg	33	no	0	1	2000	6	6	antiphase_hc_ois.wav	3	6	2	noise_calib_stim_LEFT.wav	1	23	blb_dichoticlistening_ka-pa.mp3	ka	pa	1	right
6.6.1	win	2023-06-19	08:13:21	08:27:35	846300	6361769fee0c219b0f1cc480	2	1	main_z	24	advance_on_keypress_ZEE	54	stimuli_distractor_trianglediamonds.svg	stimuli_distractor_trianglediamonds.svg	33	no	57	0	534	6	6	antiphase_hc_ois.wav	3	6	2	noise_calib_stim_LEFT.wav	1	23	blb_dichoticlistening_ka-pa.mp3	ka	pa	1	right
6.6.1	win	2023-06-19	08:13:21	08:27:37	848070	6361769fee0c219b0f1cc480	2	1	main_z	24	main_z	55	stimuli_distractor_diamondtriangles.svg	stimuli_target_diamondsquares.svg	32	yes	44	1	587	6	6	antiphase_hc_ois.wav	3	6	2	noise_calib_stim_LEFT.wav	1	23	blb_dichoticlistening_ka-pa.mp3	ka	pa	1	right
6.6.1	win	2023-06-19	08:13:21	08:27:37	848070	6361769fee0c219b0f1cc480	2	1	main_z	24	advance_on_keypress_ZEE	56	stimuli_distractor_diamondtriangles.svg	stimuli_target_diamondsquares.svg	32	yes	57	0	353	6	6	antiphase_hc_ois.wav	3	6	2	noise_calib_stim_LEFT.wav	1	23	blb_dichoticlistening_ka-pa.mp3	ka	pa	1	right
6.6.1	win	2023-06-19	08:13:21	08:27:38	849725	6361769fee0c219b0f1cc480	2	1	main_z	24	main_z	57	stimuli_distractor_diamondtriangles.svg	stimuli_target_squarediamonds.svg	16	yes	44	1	658	6	6	antiphase_hc_ois.wav	3	6	2	noise_calib_stim_LEFT.wav	1	23	blb_dichoticlistening_ka-pa.mp3	ka	pa	1	right
6.6.1	win	2023-06-19	08:13:21	08:27:38	849725	6361769fee0c219b0f1cc480	2	1	main_z	24	advance_on_keypress_ZEE	58	stimuli_distractor_diamondtriangles.svg	stimuli_target_squarediamonds.svg	16	yes	57	0	342	6	6	antiphase_hc_ois.wav	3	6	2	noise_calib_stim_LEFT.wav	1	23	blb_dichoticlistening_ka-pa.mp3	ka	pa	1	right
6.6.1	win	2023-06-19	08:13:21	08:27:40	851764	6361769fee0c219b0f1cc480	2	1	main_z	24	main_z	59	stimuli_target_rectanglediamonds.svg	stimuli_distractor_diamondtriangles.svg	6	yes	44	1	1065	6	6	antiphase_hc_ois.wav	3	6	2	noise_calib_stim_LEFT.wav	1	23	blb_dichoticlistening_ka-pa.mp3	ka	pa	1	right
6.6.1	win	2023-06-19	08:13:21	08:27:40	851764	6361769fee0c219b0f1cc480	2	1	main_z	24	advance_on_keypress_ZEE	60	stimuli_target_rectanglediamonds.svg	stimuli_distractor_diamondtriangles.svg	6	yes	57	0	270	6	6	antiphase_hc_ois.wav	3	6	2	noise_calib_stim_LEFT.wav	1	23	blb_dichoticlistening_ka-pa.mp3	ka	pa	1	right
6.6.1	win	2023-06-19	08:13:21	08:27:42	853762	6361769fee0c219b0f1cc480	2	1	main_z	24	main_z	61	stimuli_target_trianglerectangles.svg	stimuli_distractor_diamondtriangles.svg	21	yes	44	1	1080	6	6	antiphase_hc_ois.wav	3	6	2	noise_calib_stim_LEFT.wav	1	23	blb_dichoticlistening_ka-pa.mp3	ka	pa	1	right
6.6.1	win	2023-06-19	08:13:21	08:27:42	853762	6361769fee0c219b0f1cc480	2	1	main_z	24	advance_on_keypress_ZEE	62	stimuli_target_trianglerectangles.svg	stimuli_distractor_diamondtriangles.svg	21	yes	57	0	332	6	6	antiphase_hc_ois.wav	3	6	2	noise_calib_stim_LEFT.wav	1	23	blb_dichoticlistening_ka-pa.mp3	ka	pa	1	right
6.6.1	win	2023-06-19	08:13:21	08:27:44	855473	6361769fee0c219b0f1cc480	2	1	main_z	24	main_z	63	stimuli_distractor_diamondtriangles.svg	stimuli_target_trianglerectangles.svg	29	yes	44	1	741	6	6	antiphase_hc_ois.wav	3	6	2	noise_calib_stim_LEFT.wav	1	23	blb_dichoticlistening_ka-pa.mp3	ka	pa	1	right
6.6.1	win	2023-06-19	08:13:21	08:27:44	855473	6361769fee0c219b0f1cc480	2	1	main_z	24	advance_on_keypress_ZEE	64	stimuli_distractor_diamondtriangles.svg	stimuli_target_trianglerectangles.svg	29	yes	57	0	436	6	6	antiphase_hc_ois.wav	3	6	2	noise_calib_stim_LEFT.wav	1	23	blb_dichoticlistening_ka-pa.mp3	ka	pa	1	right
6.6.1	win	2023-06-19	08:13:21	08:27:46	857321	6361769fee0c219b0f1cc480	2	1	main_z	24	main_z	65	stimuli_target_squarediamonds.svg	stimuli_distractor_trianglediamonds.svg	4	yes	44	1	772	6	6	antiphase_hc_ois.wav	3	6	2	noise_calib_stim_LEFT.wav	1	23	blb_dichoticlistening_ka-pa.mp3	ka	pa	1	right
6.6.1	win	2023-06-19	08:13:21	08:27:46	857321	6361769fee0c219b0f1cc480	2	1	main_z	24	advance_on_keypress_ZEE	66	stimuli_target_squarediamonds.svg	stimuli_distractor_trianglediamonds.svg	4	yes	57	0	292	6	6	antiphase_hc_ois.wav	3	6	2	noise_calib_stim_LEFT.wav	1	23	blb_dichoticlistening_ka-pa.mp3	ka	pa	1	right
6.6.1	win	2023-06-19	08:13:21	08:27:48	859173	6361769fee0c219b0f1cc480	2	1	main_z	24	main_z	67	stimuli_distractor_trianglediamonds.svg	stimuli_target_rectanglediamonds.svg	10	yes	44	1	924	6	6	antiphase_hc_ois.wav	3	6	2	noise_calib_stim_LEFT.wav	1	23	blb_dichoticlistening_ka-pa.mp3	ka	pa	1	right
6.6.1	win	2023-06-19	08:13:21	08:27:48	859173	6361769fee0c219b0f1cc480	2	1	main_z	24	advance_on_keypress_ZEE	68	stimuli_distractor_trianglediamonds.svg	stimuli_target_rectanglediamonds.svg	10	yes	57	0	259	6	6	antiphase_hc_ois.wav	3	6	2	noise_calib_stim_LEFT.wav	1	23	blb_dichoticlistening_ka-pa.mp3	ka	pa	1	right
6.6.1	win	2023-06-19	08:13:21	08:27:51	862066	6361769fee0c219b0f1cc480	2	1	main_z	24	main_z	69	stimuli_distractor_trianglediamonds.svg	stimuli_distractor_diamondtriangles.svg	36	no	0	1	2000	6	6	antiphase_hc_ois.wav	3	6	2	noise_calib_stim_LEFT.wav	1	23	blb_dichoticlistening_ka-pa.mp3	ka	pa	1	right
6.6.1	win	2023-06-19	08:13:21	08:27:51	862066	6361769fee0c219b0f1cc480	2	1	main_z	24	advance_on_keypress_ZEE	70	stimuli_distractor_trianglediamonds.svg	stimuli_distractor_diamondtriangles.svg	36	no	57	0	458	6	6	antiphase_hc_ois.wav	3	6	2	noise_calib_stim_LEFT.wav	1	23	blb_dichoticlistening_ka-pa.mp3	ka	pa	1	right
6.6.1	win	2023-06-19	08:13:21	08:27:52	863849	6361769fee0c219b0f1cc480	2	1	main_z	24	main_z	71	stimuli_distractor_diamondtriangles.svg	stimuli_target_squaretriangles.svg	15	yes	44	1	683	6	6	antiphase_hc_ois.wav	3	6	2	noise_calib_stim_LEFT.wav	1	23	blb_dichoticlistening_ka-pa.mp3	ka	pa	1	right
6.6.1	win	2023-06-19	08:13:21	08:27:52	863849	6361769fee0c219b0f1cc480	2	1	main_z	24	advance_on_keypress_ZEE	72	stimuli_distractor_diamondtriangles.svg	stimuli_target_squaretriangles.svg	15	yes	57	0	303	6	6	antiphase_hc_ois.wav	3	6	2	noise_calib_stim_LEFT.wav	1	23	blb_dichoticlistening_ka-pa.mp3	ka	pa	1	right
6.6.1	win	2023-06-19	08:13:21	08:27:54	865512	6361769fee0c219b0f1cc480	2	1	main_z	24	main_z	73	stimuli_distractor_trianglediamonds.svg	stimuli_target_diamondrectangles.svg	27	yes	44	1	712	6	6	antiphase_hc_ois.wav	3	6	2	noise_calib_stim_LEFT.wav	1	23	blb_dichoticlistening_ka-pa.mp3	ka	pa	1	right
6.6.1	win	2023-06-19	08:13:21	08:27:54	865512	6361769fee0c219b0f1cc480	2	1	main_z	24	advance_on_keypress_ZEE	74	stimuli_distractor_trianglediamonds.svg	stimuli_target_diamondrectangles.svg	27	yes	57	0	297	6	6	antiphase_hc_ois.wav	3	6	2	noise_calib_stim_LEFT.wav	1	23	blb_dichoticlistening_ka-pa.mp3	ka	pa	1	right
6.6.1	win	2023-06-19	08:13:21	08:27:56	867141	6361769fee0c219b0f1cc480	2	1	main_z	24	main_z	75	stimuli_target_rectanglediamonds.svg	stimuli_distractor_trianglediamonds.svg	2	yes	44	1	691	6	6	antiphase_hc_ois.wav	3	6	2	noise_calib_stim_LEFT.wav	1	23	blb_dichoticlistening_ka-pa.mp3	ka	pa	1	right
6.6.1	win	2023-06-19	08:13:21	08:27:56	867141	6361769fee0c219b0f1cc480	2	1	main_z	24	advance_on_keypress_ZEE	76	stimuli_target_rectanglediamonds.svg	stimuli_distractor_trianglediamonds.svg	2	yes	57	0	261	6	6	antiphase_hc_ois.wav	3	6	2	noise_calib_stim_LEFT.wav	1	23	blb_dichoticlistening_ka-pa.mp3	ka	pa	1	right
6.6.1	win	2023-06-19	08:13:21	08:27:57	868759	6361769fee0c219b0f1cc480	2	1	main_z	24	main_z	77	stimuli_distractor_diamondtriangles.svg	stimuli_target_rectangletriangles.svg	13	yes	44	1	726	6	6	antiphase_hc_ois.wav	3	6	2	noise_calib_stim_LEFT.wav	1	23	blb_dichoticlistening_ka-pa.mp3	ka	pa	1	right
6.6.1	win	2023-06-19	08:13:21	08:27:57	868759	6361769fee0c219b0f1cc480	2	1	main_z	24	advance_on_keypress_ZEE	78	stimuli_distractor_diamondtriangles.svg	stimuli_target_rectangletriangles.svg	13	yes	57	0	257	6	6	antiphase_hc_ois.wav	3	6	2	noise_calib_stim_LEFT.wav	1	23	blb_dichoticlistening_ka-pa.mp3	ka	pa	1	right
6.6.1	win	2023-06-19	08:13:21	08:28:00	871649	6361769fee0c219b0f1cc480	2	1	main_z	24	main_z	79	stimuli_distractor_trianglediamonds.svg	stimuli_distractor_trianglediamonds.svg	34	no	0	1	2000	6	6	antiphase_hc_ois.wav	3	6	2	noise_calib_stim_LEFT.wav	1	23	blb_dichoticlistening_ka-pa.mp3	ka	pa	1	right
6.6.1	win	2023-06-19	08:13:21	08:28:00	871649	6361769fee0c219b0f1cc480	2	1	main_z	24	advance_on_keypress_ZEE	80	stimuli_distractor_trianglediamonds.svg	stimuli_distractor_trianglediamonds.svg	34	no	57	0	532	6	6	antiphase_hc_ois.wav	3	6	2	noise_calib_stim_LEFT.wav	1	23	blb_dichoticlistening_ka-pa.mp3	ka	pa	1	right
6.6.1	win	2023-06-19	08:13:21	08:28:03	874833	6361769fee0c219b0f1cc480	2	1	main_z	24	main_z	81	stimuli_distractor_diamondtriangles.svg	stimuli_distractor_diamondtriangles.svg	40	no	0	1	2000	6	6	antiphase_hc_ois.wav	3	6	2	noise_calib_stim_LEFT.wav	1	23	blb_dichoticlistening_ka-pa.mp3	ka	pa	1	right
6.6.1	win	2023-06-19	08:13:21	08:28:03	874833	6361769fee0c219b0f1cc480	2	1	main_z	24	advance_on_keypress_ZEE	82	stimuli_distractor_diamondtriangles.svg	stimuli_distractor_diamondtriangles.svg	40	no	57	0	1067	6	6	antiphase_hc_ois.wav	3	6	2	noise_calib_stim_LEFT.wav	1	23	blb_dichoticlistening_ka-pa.mp3	ka	pa	1	right
6.6.1	win	2023-06-19	08:13:21	08:28:07	878549	6361769fee0c219b0f1cc480	2	1	main_z	24	main_z	83	stimuli_distractor_trianglediamonds.svg	stimuli_distractor_trianglediamonds.svg	33	no	0	1	2000	6	6	antiphase_hc_ois.wav	3	6	2	noise_calib_stim_LEFT.wav	1	23	blb_dichoticlistening_ka-pa.mp3	ka	pa	1	right
6.6.1	win	2023-06-19	08:13:21	08:28:07	878549	6361769fee0c219b0f1cc480	2	1	main_z	24	advance_on_keypress_ZEE	84	stimuli_distractor_trianglediamonds.svg	stimuli_distractor_trianglediamonds.svg	33	no	57	0	347	6	6	antiphase_hc_ois.wav	3	6	2	noise_calib_stim_LEFT.wav	1	23	blb_dichoticlistening_ka-pa.mp3	ka	pa	1	right
6.6.1	win	2023-06-19	08:13:21	08:28:09	880099	6361769fee0c219b0f1cc480	2	1	main_z	24	main_z	85	stimuli_target_rectanglediamonds.svg	stimuli_distractor_diamondtriangles.svg	6	yes	44	1	550	6	6	antiphase_hc_ois.wav	3	6	2	noise_calib_stim_LEFT.wav	1	23	blb_dichoticlistening_ka-pa.mp3	ka	pa	1	right
6.6.1	win	2023-06-19	08:13:21	08:28:09	880099	6361769fee0c219b0f1cc480	2	1	main_z	24	advance_on_keypress_ZEE	86	stimuli_target_rectanglediamonds.svg	stimuli_distractor_diamondtriangles.svg	6	yes	57	0	204	6	6	antiphase_hc_ois.wav	3	6	2	noise_calib_stim_LEFT.wav	1	23	blb_dichoticlistening_ka-pa.mp3	ka	pa	1	right
6.6.1	win	2023-06-19	08:13:21	08:28:10	881586	6361769fee0c219b0f1cc480	2	1	main_z	24	main_z	87	stimuli_target_diamondsquares.svg	stimuli_distractor_diamondtriangles.svg	24	yes	44	1	638	6	6	antiphase_hc_ois.wav	3	6	2	noise_calib_stim_LEFT.wav	1	23	blb_dichoticlistening_ka-pa.mp3	ka	pa	1	right
6.6.1	win	2023-06-19	08:13:21	08:28:10	881586	6361769fee0c219b0f1cc480	2	1	main_z	24	advance_on_keypress_ZEE	88	stimuli_target_diamondsquares.svg	stimuli_distractor_diamondtriangles.svg	24	yes	57	0	220	6	6	antiphase_hc_ois.wav	3	6	2	noise_calib_stim_LEFT.wav	1	23	blb_dichoticlistening_ka-pa.mp3	ka	pa	1	right
6.6.1	win	2023-06-19	08:13:21	08:28:13	884449	6361769fee0c219b0f1cc480	2	1	main_z	24	main_z	89	stimuli_distractor_trianglediamonds.svg	stimuli_distractor_trianglediamonds.svg	34	no	0	1	2000	6	6	antiphase_hc_ois.wav	3	6	2	noise_calib_stim_LEFT.wav	1	23	blb_dichoticlistening_ka-pa.mp3	ka	pa	1	right
6.6.1	win	2023-06-19	08:13:21	08:28:13	884449	6361769fee0c219b0f1cc480	2	1	main_z	24	advance_on_keypress_ZEE	90	stimuli_distractor_trianglediamonds.svg	stimuli_distractor_trianglediamonds.svg	34	no	57	0	365	6	6	antiphase_hc_ois.wav	3	6	2	noise_calib_stim_LEFT.wav	1	23	blb_dichoticlistening_ka-pa.mp3	ka	pa	1	right
6.6.1	win	2023-06-19	08:13:21	08:28:15	886057	6361769fee0c219b0f1cc480	2	1	main_z	24	main_z	91	stimuli_distractor_diamondtriangles.svg	stimuli_target_rectanglediamonds.svg	14	yes	44	1	591	6	6	antiphase_hc_ois.wav	3	6	2	noise_calib_stim_LEFT.wav	1	23	blb_dichoticlistening_ka-pa.mp3	ka	pa	1	right
6.6.1	win	2023-06-19	08:13:21	08:28:15	886057	6361769fee0c219b0f1cc480	2	1	main_z	24	advance_on_keypress_ZEE	92	stimuli_distractor_diamondtriangles.svg	stimuli_target_rectanglediamonds.svg	14	yes	57	0	257	6	6	antiphase_hc_ois.wav	3	6	2	noise_calib_stim_LEFT.wav	1	23	blb_dichoticlistening_ka-pa.mp3	ka	pa	1	right
6.6.1	win	2023-06-19	08:13:21	08:28:16	887572	6361769fee0c219b0f1cc480	2	1	main_z	24	main_z	93	stimuli_target_rectanglediamonds.svg	stimuli_distractor_trianglediamonds.svg	2	yes	44	1	623	6	6	antiphase_hc_ois.wav	3	6	2	noise_calib_stim_LEFT.wav	1	23	blb_dichoticlistening_ka-pa.mp3	ka	pa	1	right
6.6.1	win	2023-06-19	08:13:21	08:28:16	887572	6361769fee0c219b0f1cc480	2	1	main_z	24	advance_on_keypress_ZEE	94	stimuli_target_rectanglediamonds.svg	stimuli_distractor_trianglediamonds.svg	2	yes	57	0	256	6	6	antiphase_hc_ois.wav	3	6	2	noise_calib_stim_LEFT.wav	1	23	blb_dichoticlistening_ka-pa.mp3	ka	pa	1	right
6.6.1	win	2023-06-19	08:13:21	08:28:18	889127	6361769fee0c219b0f1cc480	2	1	main_z	24	main_z	95	stimuli_distractor_trianglediamonds.svg	stimuli_target_squarediamonds.svg	12	yes	44	1	661	6	6	antiphase_hc_ois.wav	3	6	2	noise_calib_stim_LEFT.wav	1	23	blb_dichoticlistening_ka-pa.mp3	ka	pa	1	right
6.6.1	win	2023-06-19	08:13:21	08:28:18	889127	6361769fee0c219b0f1cc480	2	1	main_z	24	advance_on_keypress_ZEE	96	stimuli_distractor_trianglediamonds.svg	stimuli_target_squarediamonds.svg	12	yes	57	0	250	6	6	antiphase_hc_ois.wav	3	6	2	noise_calib_stim_LEFT.wav	1	23	blb_dichoticlistening_ka-pa.mp3	ka	pa	1	right
6.6.1	win	2023-06-19	08:13:21	08:28:19	890641	6361769fee0c219b0f1cc480	2	1	main_z	24	main_z	97	stimuli_target_diamondrectangles.svg	stimuli_distractor_diamondtriangles.svg	23	yes	44	1	626	6	6	antiphase_hc_ois.wav	3	6	2	noise_calib_stim_LEFT.wav	1	23	blb_dichoticlistening_ka-pa.mp3	ka	pa	1	right
6.6.1	win	2023-06-19	08:13:21	08:28:19	890641	6361769fee0c219b0f1cc480	2	1	main_z	24	advance_on_keypress_ZEE	98	stimuli_target_diamondrectangles.svg	stimuli_distractor_diamondtriangles.svg	23	yes	57	0	222	6	6	antiphase_hc_ois.wav	3	6	2	noise_calib_stim_LEFT.wav	1	23	blb_dichoticlistening_ka-pa.mp3	ka	pa	1	right
6.6.1	win	2023-06-19	08:13:21	08:28:21	892253	6361769fee0c219b0f1cc480	2	1	main_z	24	main_z	99	stimuli_target_squarediamonds.svg	stimuli_distractor_diamondtriangles.svg	8	yes	44	1	754	6	6	antiphase_hc_ois.wav	3	6	2	noise_calib_stim_LEFT.wav	1	23	blb_dichoticlistening_ka-pa.mp3	ka	pa	1	right
6.6.1	win	2023-06-19	08:13:21	08:28:21	892253	6361769fee0c219b0f1cc480	2	1	main_z	24	advance_on_keypress_ZEE	100	stimuli_target_squarediamonds.svg	stimuli_distractor_diamondtriangles.svg	8	yes	57	0	209	6	6	antiphase_hc_ois.wav	3	6	2	noise_calib_stim_LEFT.wav	1	23	blb_dichoticlistening_ka-pa.mp3	ka	pa	1	right
6.6.1	win	2023-06-19	08:13:21	08:28:22	893774	6361769fee0c219b0f1cc480	2	1	main_z	24	main_z	101	stimuli_target_trianglesquares.svg	stimuli_distractor_diamondtriangles.svg	22	yes	44	1	675	6	6	antiphase_hc_ois.wav	3	6	2	noise_calib_stim_LEFT.wav	1	23	blb_dichoticlistening_ka-pa.mp3	ka	pa	1	right
6.6.1	win	2023-06-19	08:13:21	08:28:22	893774	6361769fee0c219b0f1cc480	2	1	main_z	24	advance_on_keypress_ZEE	102	stimuli_target_trianglesquares.svg	stimuli_distractor_diamondtriangles.svg	22	yes	57	0	212	6	6	antiphase_hc_ois.wav	3	6	2	noise_calib_stim_LEFT.wav	1	23	blb_dichoticlistening_ka-pa.mp3	ka	pa	1	right
6.6.1	win	2023-06-19	08:13:21	08:28:24	895380	6361769fee0c219b0f1cc480	2	1	main_z	24	main_z	103	stimuli_target_squarediamonds.svg	stimuli_distractor_trianglediamonds.svg	4	yes	44	1	765	6	6	antiphase_hc_ois.wav	3	6	2	noise_calib_stim_LEFT.wav	1	23	blb_dichoticlistening_ka-pa.mp3	ka	pa	1	right
6.6.1	win	2023-06-19	08:13:21	08:28:24	895380	6361769fee0c219b0f1cc480	2	1	main_z	24	advance_on_keypress_ZEE	104	stimuli_target_squarediamonds.svg	stimuli_distractor_trianglediamonds.svg	4	yes	57	0	221	6	6	antiphase_hc_ois.wav	3	6	2	noise_calib_stim_LEFT.wav	1	23	blb_dichoticlistening_ka-pa.mp3	ka	pa	1	right
6.6.1	win	2023-06-19	08:13:21	08:28:27	898248	6361769fee0c219b0f1cc480	2	1	main_z	24	main_z	105	stimuli_distractor_trianglediamonds.svg	stimuli_distractor_diamondtriangles.svg	36	no	0	1	2000	6	6	antiphase_hc_ois.wav	3	6	2	noise_calib_stim_LEFT.wav	1	23	blb_dichoticlistening_ka-pa.mp3	ka	pa	1	right
6.6.1	win	2023-06-19	08:13:21	08:28:27	898248	6361769fee0c219b0f1cc480	2	1	main_z	24	advance_on_keypress_ZEE	106	stimuli_distractor_trianglediamonds.svg	stimuli_distractor_diamondtriangles.svg	36	no	57	0	374	6	6	antiphase_hc_ois.wav	3	6	2	noise_calib_stim_LEFT.wav	1	23	blb_dichoticlistening_ka-pa.mp3	ka	pa	1	right
6.6.1	win	2023-06-19	08:13:21	08:28:28	899991	6361769fee0c219b0f1cc480	2	1	main_z	24	main_z	107	stimuli_distractor_diamondtriangles.svg	stimuli_target_trianglesquares.svg	30	yes	44	1	727	6	6	antiphase_hc_ois.wav	3	6	2	noise_calib_stim_LEFT.wav	1	23	blb_dichoticlistening_ka-pa.mp3	ka	pa	1	right
6.6.1	win	2023-06-19	08:13:21	08:28:28	899991	6361769fee0c219b0f1cc480	2	1	main_z	24	advance_on_keypress_ZEE	108	stimuli_distractor_diamondtriangles.svg	stimuli_target_trianglesquares.svg	30	yes	57	0	288	6	6	antiphase_hc_ois.wav	3	6	2	noise_calib_stim_LEFT.wav	1	23	blb_dichoticlistening_ka-pa.mp3	ka	pa	1	right
6.6.1	win	2023-06-19	08:13:21	08:28:30	901674	6361769fee0c219b0f1cc480	2	1	main_z	24	main_z	109	stimuli_distractor_diamondtriangles.svg	stimuli_target_rectangletriangles.svg	13	yes	44	1	760	6	6	antiphase_hc_ois.wav	3	6	2	noise_calib_stim_LEFT.wav	1	23	blb_dichoticlistening_ka-pa.mp3	ka	pa	1	right
6.6.1	win	2023-06-19	08:13:21	08:28:30	901674	6361769fee0c219b0f1cc480	2	1	main_z	24	advance_on_keypress_ZEE	110	stimuli_distractor_diamondtriangles.svg	stimuli_target_rectangletriangles.svg	13	yes	57	0	245	6	6	antiphase_hc_ois.wav	3	6	2	noise_calib_stim_LEFT.wav	1	23	blb_dichoticlistening_ka-pa.mp3	ka	pa	1	right
6.6.1	win	2023-06-19	08:13:21	08:28:32	903208	6361769fee0c219b0f1cc480	2	1	main_z	24	main_z	111	stimuli_target_trianglerectangles.svg	stimuli_distractor_diamondtriangles.svg	21	yes	44	1	661	6	6	antiphase_hc_ois.wav	3	6	2	noise_calib_stim_LEFT.wav	1	23	blb_dichoticlistening_ka-pa.mp3	ka	pa	1	right
6.6.1	win	2023-06-19	08:13:21	08:28:32	903208	6361769fee0c219b0f1cc480	2	1	main_z	24	advance_on_keypress_ZEE	112	stimuli_target_trianglerectangles.svg	stimuli_distractor_diamondtriangles.svg	21	yes	57	0	257	6	6	antiphase_hc_ois.wav	3	6	2	noise_calib_stim_LEFT.wav	1	23	blb_dichoticlistening_ka-pa.mp3	ka	pa	1	right
6.6.1	win	2023-06-19	08:13:21	08:28:35	906098	6361769fee0c219b0f1cc480	2	1	main_z	24	main_z	113	stimuli_distractor_diamondtriangles.svg	stimuli_distractor_trianglediamonds.svg	38	no	0	1	2000	6	6	antiphase_hc_ois.wav	3	6	2	noise_calib_stim_LEFT.wav	1	23	blb_dichoticlistening_ka-pa.mp3	ka	pa	1	right
6.6.1	win	2023-06-19	08:13:21	08:28:35	906098	6361769fee0c219b0f1cc480	2	1	main_z	24	advance_on_keypress_ZEE	114	stimuli_distractor_diamondtriangles.svg	stimuli_distractor_trianglediamonds.svg	38	no	57	0	758	6	6	antiphase_hc_ois.wav	3	6	2	noise_calib_stim_LEFT.wav	1	23	blb_dichoticlistening_ka-pa.mp3	ka	pa	1	right
6.6.1	win	2023-06-19	08:13:21	08:28:37	908415	6361769fee0c219b0f1cc480	2	1	main_z	24	main_z	115	stimuli_distractor_diamondtriangles.svg	stimuli_target_squaretriangles.svg	15	yes	44	1	917	6	6	antiphase_hc_ois.wav	3	6	2	noise_calib_stim_LEFT.wav	1	23	blb_dichoticlistening_ka-pa.mp3	ka	pa	1	right
6.6.1	win	2023-06-19	08:13:21	08:28:37	908415	6361769fee0c219b0f1cc480	2	1	main_z	24	advance_on_keypress_ZEE	116	stimuli_distractor_diamondtriangles.svg	stimuli_target_squaretriangles.svg	15	yes	57	0	207	6	6	antiphase_hc_ois.wav	3	6	2	noise_calib_stim_LEFT.wav	1	23	blb_dichoticlistening_ka-pa.mp3	ka	pa	1	right
6.6.1	win	2023-06-19	08:13:21	08:28:38	909934	6361769fee0c219b0f1cc480	2	1	main_z	24	main_z	117	stimuli_distractor_trianglediamonds.svg	stimuli_target_diamondrectangles.svg	27	yes	44	1	669	6	6	antiphase_hc_ois.wav	3	6	2	noise_calib_stim_LEFT.wav	1	23	blb_dichoticlistening_ka-pa.mp3	ka	pa	1	right
6.6.1	win	2023-06-19	08:13:21	08:28:38	909934	6361769fee0c219b0f1cc480	2	1	main_z	24	advance_on_keypress_ZEE	118	stimuli_distractor_trianglediamonds.svg	stimuli_target_diamondrectangles.svg	27	yes	57	0	215	6	6	antiphase_hc_ois.wav	3	6	2	noise_calib_stim_LEFT.wav	1	23	blb_dichoticlistening_ka-pa.mp3	ka	pa	1	right
6.6.1	win	2023-06-19	08:13:21	08:28:41	912798	6361769fee0c219b0f1cc480	2	1	main_z	24	main_z	119	stimuli_distractor_trianglediamonds.svg	stimuli_target_rectangletriangles.svg	9	yes	0	0	2000	6	6	antiphase_hc_ois.wav	3	6	2	noise_calib_stim_LEFT.wav	1	23	blb_dichoticlistening_ka-pa.mp3	ka	pa	1	right
6.6.1	win	2023-06-19	08:13:21	08:28:41	912798	6361769fee0c219b0f1cc480	2	1	main_z	24	advance_on_keypress_ZEE	120	stimuli_distractor_trianglediamonds.svg	stimuli_target_rectangletriangles.svg	9	yes	57	0	409	6	6	antiphase_hc_ois.wav	3	6	2	noise_calib_stim_LEFT.wav	1	23	blb_dichoticlistening_ka-pa.mp3	ka	pa	1	right
6.6.1	win	2023-06-19	08:13:21	08:28:43	914450	6361769fee0c219b0f1cc480	2	1	main_z	24	main_z	121	stimuli_target_squaretriangles.svg	stimuli_distractor_trianglediamonds.svg	3	yes	44	1	602	6	6	antiphase_hc_ois.wav	3	6	2	noise_calib_stim_LEFT.wav	1	23	blb_dichoticlistening_ka-pa.mp3	ka	pa	1	right
6.6.1	win	2023-06-19	08:13:21	08:28:43	914450	6361769fee0c219b0f1cc480	2	1	main_z	24	advance_on_keypress_ZEE	122	stimuli_target_squaretriangles.svg	stimuli_distractor_trianglediamonds.svg	3	yes	57	0	254	6	6	antiphase_hc_ois.wav	3	6	2	noise_calib_stim_LEFT.wav	1	23	blb_dichoticlistening_ka-pa.mp3	ka	pa	1	right
6.6.1	win	2023-06-19	08:13:21	08:28:45	916074	6361769fee0c219b0f1cc480	2	1	main_z	24	main_z	123	stimuli_target_diamondsquares.svg	stimuli_distractor_trianglediamonds.svg	20	yes	44	1	726	6	6	antiphase_hc_ois.wav	3	6	2	noise_calib_stim_LEFT.wav	1	23	blb_dichoticlistening_ka-pa.mp3	ka	pa	1	right
6.6.1	win	2023-06-19	08:13:21	08:28:45	916074	6361769fee0c219b0f1cc480	2	1	main_z	24	advance_on_keypress_ZEE	124	stimuli_target_diamondsquares.svg	stimuli_distractor_trianglediamonds.svg	20	yes	57	0	296	6	6	antiphase_hc_ois.wav	3	6	2	noise_calib_stim_LEFT.wav	1	23	blb_dichoticlistening_ka-pa.mp3	ka	pa	1	right
6.6.1	win	2023-06-19	08:13:21	08:28:46	917637	6361769fee0c219b0f1cc480	2	1	main_z	24	main_z	125	stimuli_target_rectangletriangles.svg	stimuli_distractor_trianglediamonds.svg	1	yes	44	1	639	6	6	antiphase_hc_ois.wav	3	6	2	noise_calib_stim_LEFT.wav	1	23	blb_dichoticlistening_ka-pa.mp3	ka	pa	1	right
6.6.1	win	2023-06-19	08:13:21	08:28:46	917637	6361769fee0c219b0f1cc480	2	1	main_z	24	advance_on_keypress_ZEE	126	stimuli_target_rectangletriangles.svg	stimuli_distractor_trianglediamonds.svg	1	yes	57	0	273	6	6	antiphase_hc_ois.wav	3	6	2	noise_calib_stim_LEFT.wav	1	23	blb_dichoticlistening_ka-pa.mp3	ka	pa	1	right
6.6.1	win	2023-06-19	08:13:21	08:28:48	919233	6361769fee0c219b0f1cc480	2	1	main_z	24	main_z	127	stimuli_target_rectangletriangles.svg	stimuli_distractor_diamondtriangles.svg	5	yes	44	1	685	6	6	antiphase_hc_ois.wav	3	6	2	noise_calib_stim_LEFT.wav	1	23	blb_dichoticlistening_ka-pa.mp3	ka	pa	1	right
6.6.1	win	2023-06-19	08:13:21	08:28:48	919233	6361769fee0c219b0f1cc480	2	1	main_z	24	advance_on_keypress_ZEE	128	stimuli_target_rectangletriangles.svg	stimuli_distractor_diamondtriangles.svg	5	yes	57	0	244	6	6	antiphase_hc_ois.wav	3	6	2	noise_calib_stim_LEFT.wav	1	23	blb_dichoticlistening_ka-pa.mp3	ka	pa	1	right
6.6.1	win	2023-06-19	08:13:21	08:28:49	920836	6361769fee0c219b0f1cc480	2	1	main_z	24	main_z	129	stimuli_target_trianglesquares.svg	stimuli_distractor_trianglediamonds.svg	18	yes	44	1	721	6	6	antiphase_hc_ois.wav	3	6	2	noise_calib_stim_LEFT.wav	1	23	blb_dichoticlistening_ka-pa.mp3	ka	pa	1	right
6.6.1	win	2023-06-19	08:13:21	08:28:49	920836	6361769fee0c219b0f1cc480	2	1	main_z	24	advance_on_keypress_ZEE	130	stimuli_target_trianglesquares.svg	stimuli_distractor_trianglediamonds.svg	18	yes	57	0	220	6	6	antiphase_hc_ois.wav	3	6	2	noise_calib_stim_LEFT.wav	1	23	blb_dichoticlistening_ka-pa.mp3	ka	pa	1	right
6.6.1	win	2023-06-19	08:13:21	08:28:51	922547	6361769fee0c219b0f1cc480	2	1	main_z	24	main_z	131	stimuli_distractor_trianglediamonds.svg	stimuli_target_trianglerectangles.svg	25	yes	44	1	849	6	6	antiphase_hc_ois.wav	3	6	2	noise_calib_stim_LEFT.wav	1	23	blb_dichoticlistening_ka-pa.mp3	ka	pa	1	right
6.6.1	win	2023-06-19	08:13:21	08:28:51	922547	6361769fee0c219b0f1cc480	2	1	main_z	24	advance_on_keypress_ZEE	132	stimuli_distractor_trianglediamonds.svg	stimuli_target_trianglerectangles.svg	25	yes	57	0	211	6	6	antiphase_hc_ois.wav	3	6	2	noise_calib_stim_LEFT.wav	1	23	blb_dichoticlistening_ka-pa.mp3	ka	pa	1	right
6.6.1	win	2023-06-19	08:13:21	08:28:53	924081	6361769fee0c219b0f1cc480	2	1	main_z	24	main_z	133	stimuli_distractor_trianglediamonds.svg	stimuli_target_diamondsquares.svg	28	yes	44	1	684	6	6	antiphase_hc_ois.wav	3	6	2	noise_calib_stim_LEFT.wav	1	23	blb_dichoticlistening_ka-pa.mp3	ka	pa	1	right
6.6.1	win	2023-06-19	08:13:21	08:28:53	924081	6361769fee0c219b0f1cc480	2	1	main_z	24	advance_on_keypress_ZEE	134	stimuli_distractor_trianglediamonds.svg	stimuli_target_diamondsquares.svg	28	yes	57	0	478	6	6	antiphase_hc_ois.wav	3	6	2	noise_calib_stim_LEFT.wav	1	23	blb_dichoticlistening_ka-pa.mp3	ka	pa	1	right
6.6.1	win	2023-06-19	08:13:21	08:28:54	925986	6361769fee0c219b0f1cc480	2	1	main_z	24	main_z	135	stimuli_distractor_trianglediamonds.svg	stimuli_target_trianglesquares.svg	26	yes	44	1	788	6	6	antiphase_hc_ois.wav	3	6	2	noise_calib_stim_LEFT.wav	1	23	blb_dichoticlistening_ka-pa.mp3	ka	pa	1	right
6.6.1	win	2023-06-19	08:13:21	08:28:54	925986	6361769fee0c219b0f1cc480	2	1	main_z	24	advance_on_keypress_ZEE	136	stimuli_distractor_trianglediamonds.svg	stimuli_target_trianglesquares.svg	26	yes	57	0	308	6	6	antiphase_hc_ois.wav	3	6	2	noise_calib_stim_LEFT.wav	1	23	blb_dichoticlistening_ka-pa.mp3	ka	pa	1	right
6.6.1	win	2023-06-19	08:13:21	08:28:56	927717	6361769fee0c219b0f1cc480	2	1	main_z	24	main_z	137	stimuli_target_diamondrectangles.svg	stimuli_distractor_trianglediamonds.svg	19	yes	44	1	786	6	6	antiphase_hc_ois.wav	3	6	2	noise_calib_stim_LEFT.wav	1	23	blb_dichoticlistening_ka-pa.mp3	ka	pa	1	right
6.6.1	win	2023-06-19	08:13:21	08:28:56	927717	6361769fee0c219b0f1cc480	2	1	main_z	24	advance_on_keypress_ZEE	138	stimuli_target_diamondrectangles.svg	stimuli_distractor_trianglediamonds.svg	19	yes	57	0	266	6	6	antiphase_hc_ois.wav	3	6	2	noise_calib_stim_LEFT.wav	1	23	blb_dichoticlistening_ka-pa.mp3	ka	pa	1	right
6.6.1	win	2023-06-19	08:13:21	08:28:58	929279	6361769fee0c219b0f1cc480	2	1	main_z	24	main_z	139	stimuli_distractor_diamondtriangles.svg	stimuli_target_diamondsquares.svg	32	yes	44	1	648	6	6	antiphase_hc_ois.wav	3	6	2	noise_calib_stim_LEFT.wav	1	23	blb_dichoticlistening_ka-pa.mp3	ka	pa	1	right
6.6.1	win	2023-06-19	08:13:21	08:28:58	929279	6361769fee0c219b0f1cc480	2	1	main_z	24	advance_on_keypress_ZEE	140	stimuli_distractor_diamondtriangles.svg	stimuli_target_diamondsquares.svg	32	yes	57	0	273	6	6	antiphase_hc_ois.wav	3	6	2	noise_calib_stim_LEFT.wav	1	23	blb_dichoticlistening_ka-pa.mp3	ka	pa	1	right
6.6.1	win	2023-06-19	08:13:21	08:28:59	930908	6361769fee0c219b0f1cc480	2	1	main_z	24	main_z	141	stimuli_distractor_diamondtriangles.svg	stimuli_target_trianglerectangles.svg	29	yes	44	1	710	6	6	antiphase_hc_ois.wav	3	6	2	noise_calib_stim_LEFT.wav	1	23	blb_dichoticlistening_ka-pa.mp3	ka	pa	1	right
6.6.1	win	2023-06-19	08:13:21	08:28:59	930908	6361769fee0c219b0f1cc480	2	1	main_z	24	advance_on_keypress_ZEE	142	stimuli_distractor_diamondtriangles.svg	stimuli_target_trianglerectangles.svg	29	yes	57	0	294	6	6	antiphase_hc_ois.wav	3	6	2	noise_calib_stim_LEFT.wav	1	23	blb_dichoticlistening_ka-pa.mp3	ka	pa	1	right
6.6.1	win	2023-06-19	08:13:21	08:29:02	933831	6361769fee0c219b0f1cc480	2	1	main_z	24	main_z	143	stimuli_distractor_diamondtriangles.svg	stimuli_distractor_trianglediamonds.svg	37	no	0	1	2000	6	6	antiphase_hc_ois.wav	3	6	2	noise_calib_stim_LEFT.wav	1	23	blb_dichoticlistening_ka-pa.mp3	ka	pa	1	right
6.6.1	win	2023-06-19	08:13:21	08:29:02	933831	6361769fee0c219b0f1cc480	2	1	main_z	24	advance_on_keypress_ZEE	144	stimuli_distractor_diamondtriangles.svg	stimuli_distractor_trianglediamonds.svg	37	no	57	0	730	6	6	antiphase_hc_ois.wav	3	6	2	noise_calib_stim_LEFT.wav	1	23	blb_dichoticlistening_ka-pa.mp3	ka	pa	1	right
6.6.1	win	2023-06-19	08:13:21	08:29:04	935799	6361769fee0c219b0f1cc480	2	1	main_z	24	main_z	145	stimuli_distractor_trianglediamonds.svg	stimuli_target_squaretriangles.svg	11	yes	44	1	586	6	6	antiphase_hc_ois.wav	3	6	2	noise_calib_stim_LEFT.wav	1	23	blb_dichoticlistening_ka-pa.mp3	ka	pa	1	right
6.6.1	win	2023-06-19	08:13:21	08:29:04	935799	6361769fee0c219b0f1cc480	2	1	main_z	24	advance_on_keypress_ZEE	146	stimuli_distractor_trianglediamonds.svg	stimuli_target_squaretriangles.svg	11	yes	57	0	280	6	6	antiphase_hc_ois.wav	3	6	2	noise_calib_stim_LEFT.wav	1	23	blb_dichoticlistening_ka-pa.mp3	ka	pa	1	right
6.6.1	win	2023-06-19	08:13:21	08:29:06	937364	6361769fee0c219b0f1cc480	2	1	main_z	24	main_z	147	stimuli_distractor_trianglediamonds.svg	stimuli_target_rectanglediamonds.svg	10	yes	44	1	634	6	6	antiphase_hc_ois.wav	3	6	2	noise_calib_stim_LEFT.wav	1	23	blb_dichoticlistening_ka-pa.mp3	ka	pa	1	right
6.6.1	win	2023-06-19	08:13:21	08:29:06	937364	6361769fee0c219b0f1cc480	2	1	main_z	24	advance_on_keypress_ZEE	148	stimuli_distractor_trianglediamonds.svg	stimuli_target_rectanglediamonds.svg	10	yes	57	0	318	6	6	antiphase_hc_ois.wav	3	6	2	noise_calib_stim_LEFT.wav	1	23	blb_dichoticlistening_ka-pa.mp3	ka	pa	1	right
6.6.1	win	2023-06-19	08:13:21	08:29:07	939018	6361769fee0c219b0f1cc480	2	1	main_z	24	main_z	149	stimuli_target_trianglerectangles.svg	stimuli_distractor_trianglediamonds.svg	17	yes	44	1	687	6	6	antiphase_hc_ois.wav	3	6	2	noise_calib_stim_LEFT.wav	1	23	blb_dichoticlistening_ka-pa.mp3	ka	pa	1	right
6.6.1	win	2023-06-19	08:13:21	08:29:07	939018	6361769fee0c219b0f1cc480	2	1	main_z	24	advance_on_keypress_ZEE	150	stimuli_target_trianglerectangles.svg	stimuli_distractor_trianglediamonds.svg	17	yes	57	0	294	6	6	antiphase_hc_ois.wav	3	6	2	noise_calib_stim_LEFT.wav	1	23	blb_dichoticlistening_ka-pa.mp3	ka	pa	1	right
6.6.1	win	2023-06-19	08:13:21	08:29:10	941947	6361769fee0c219b0f1cc480	2	1	main_z	24	main_z	151	stimuli_distractor_trianglediamonds.svg	stimuli_distractor_diamondtriangles.svg	35	no	0	1	2000	6	6	antiphase_hc_ois.wav	3	6	2	noise_calib_stim_LEFT.wav	1	23	blb_dichoticlistening_ka-pa.mp3	ka	pa	1	right
6.6.1	win	2023-06-19	08:13:21	08:29:10	941947	6361769fee0c219b0f1cc480	2	1	main_z	24	advance_on_keypress_ZEE	152	stimuli_distractor_trianglediamonds.svg	stimuli_distractor_diamondtriangles.svg	35	no	57	0	534	6	6	antiphase_hc_ois.wav	3	6	2	noise_calib_stim_LEFT.wav	1	23	blb_dichoticlistening_ka-pa.mp3	ka	pa	1	right
6.6.1	win	2023-06-19	08:13:21	08:29:12	943745	6361769fee0c219b0f1cc480	2	1	main_z	24	main_z	153	stimuli_distractor_diamondtriangles.svg	stimuli_target_diamondrectangles.svg	31	yes	44	1	614	6	6	antiphase_hc_ois.wav	3	6	2	noise_calib_stim_LEFT.wav	1	23	blb_dichoticlistening_ka-pa.mp3	ka	pa	1	right
6.6.1	win	2023-06-19	08:13:21	08:29:12	943745	6361769fee0c219b0f1cc480	2	1	main_z	24	advance_on_keypress_ZEE	154	stimuli_distractor_diamondtriangles.svg	stimuli_target_diamondrectangles.svg	31	yes	57	0	297	6	6	antiphase_hc_ois.wav	3	6	2	noise_calib_stim_LEFT.wav	1	23	blb_dichoticlistening_ka-pa.mp3	ka	pa	1	right
6.6.1	win	2023-06-19	08:13:21	08:29:14	945373	6361769fee0c219b0f1cc480	2	1	main_z	24	main_z	155	stimuli_distractor_diamondtriangles.svg	stimuli_target_squarediamonds.svg	16	yes	44	1	676	6	6	antiphase_hc_ois.wav	3	6	2	noise_calib_stim_LEFT.wav	1	23	blb_dichoticlistening_ka-pa.mp3	ka	pa	1	right
6.6.1	win	2023-06-19	08:13:21	08:29:14	945373	6361769fee0c219b0f1cc480	2	1	main_z	24	advance_on_keypress_ZEE	156	stimuli_distractor_diamondtriangles.svg	stimuli_target_squarediamonds.svg	16	yes	57	0	276	6	6	antiphase_hc_ois.wav	3	6	2	noise_calib_stim_LEFT.wav	1	23	blb_dichoticlistening_ka-pa.mp3	ka	pa	1	right
6.6.1	win	2023-06-19	08:13:21	08:29:15	946973	6361769fee0c219b0f1cc480	2	1	main_z	24	main_z	157	stimuli_target_squaretriangles.svg	stimuli_distractor_diamondtriangles.svg	7	yes	44	1	692	6	6	antiphase_hc_ois.wav	3	6	2	noise_calib_stim_LEFT.wav	1	23	blb_dichoticlistening_ka-pa.mp3	ka	pa	1	right
6.6.1	win	2023-06-19	08:13:21	08:29:15	946973	6361769fee0c219b0f1cc480	2	1	main_z	24	advance_on_keypress_ZEE	158	stimuli_target_squaretriangles.svg	stimuli_distractor_diamondtriangles.svg	7	yes	57	0	237	6	6	antiphase_hc_ois.wav	3	6	2	noise_calib_stim_LEFT.wav	1	23	blb_dichoticlistening_ka-pa.mp3	ka	pa	1	right
6.6.1	win	2023-06-19	08:13:21	08:29:18	949847	6361769fee0c219b0f1cc480	2	1	main_z	24	main_z	159	stimuli_distractor_diamondtriangles.svg	stimuli_distractor_diamondtriangles.svg	39	no	0	1	2000	6	6	antiphase_hc_ois.wav	3	6	2	noise_calib_stim_LEFT.wav	1	23	blb_dichoticlistening_ka-pa.mp3	ka	pa	1	right
6.6.1	win	2023-06-19	08:13:21	08:29:18	949847	6361769fee0c219b0f1cc480	2	1	main_z	24	advance_on_keypress_ZEE	160	stimuli_distractor_diamondtriangles.svg	stimuli_distractor_diamondtriangles.svg	39	no	57	0	530	6	6	antiphase_hc_ois.wav	3	6	2	noise_calib_stim_LEFT.wav	1	23	blb_dichoticlistening_ka-pa.mp3	ka	pa	1	right
6.6.1	win	2023-06-19	08:13:21	08:29:46	977231	6361769fee0c219b0f1cc480	2	1	practice_slash	26	practice_slash	1	stimuli_distractor_diamondtriangles.svg	stimuli_distractor_diamondtriangles.svg	13	no	0	1	2000	6	6	antiphase_hc_ois.wav	3	6	2	noise_calib_stim_LEFT.wav	1	23	blb_dichoticlistening_ka-pa.mp3	ka	pa	1	right
6.6.1	win	2023-06-19	08:13:21	08:29:46	977231	6361769fee0c219b0f1cc480	2	1	practice_slash	26	advance_on_keypress_SLASH	2	stimuli_distractor_diamondtriangles.svg	stimuli_distractor_diamondtriangles.svg	13	no	57	0	519	6	6	antiphase_hc_ois.wav	3	6	2	noise_calib_stim_LEFT.wav	1	23	blb_dichoticlistening_ka-pa.mp3	ka	pa	1	right
6.6.1	win	2023-06-19	08:13:21	08:29:48	979936	6361769fee0c219b0f1cc480	2	1	practice_slash	26	practice_slash	3	stimuli_distractor_diamondtriangles.svg	stimuli_target_diamondrectangles.svg	8	yes	53	1	538	6	6	antiphase_hc_ois.wav	3	6	2	noise_calib_stim_LEFT.wav	1	23	blb_dichoticlistening_ka-pa.mp3	ka	pa	1	right
6.6.1	win	2023-06-19	08:13:21	08:29:48	979936	6361769fee0c219b0f1cc480	2	1	practice_slash	26	advance_on_keypress_SLASH	4	stimuli_distractor_diamondtriangles.svg	stimuli_target_diamondrectangles.svg	8	yes	57	0	382	6	6	antiphase_hc_ois.wav	3	6	2	noise_calib_stim_LEFT.wav	1	23	blb_dichoticlistening_ka-pa.mp3	ka	pa	1	right
6.6.1	win	2023-06-19	08:13:21	08:29:52	983964	6361769fee0c219b0f1cc480	2	1	practice_slash	26	practice_slash	5	stimuli_distractor_trianglediamonds.svg	stimuli_distractor_diamondtriangles.svg	16	no	0	1	2000	6	6	antiphase_hc_ois.wav	3	6	2	noise_calib_stim_LEFT.wav	1	23	blb_dichoticlistening_ka-pa.mp3	ka	pa	1	right
6.6.1	win	2023-06-19	08:13:21	08:29:52	983964	6361769fee0c219b0f1cc480	2	1	practice_slash	26	advance_on_keypress_SLASH	6	stimuli_distractor_trianglediamonds.svg	stimuli_distractor_diamondtriangles.svg	16	no	57	0	441	6	6	antiphase_hc_ois.wav	3	6	2	noise_calib_stim_LEFT.wav	1	23	blb_dichoticlistening_ka-pa.mp3	ka	pa	1	right
6.6.1	win	2023-06-19	08:13:21	08:29:55	986690	6361769fee0c219b0f1cc480	2	1	practice_slash	26	practice_slash	7	stimuli_target_rectanglediamonds.svg	stimuli_distractor_trianglediamonds.svg	4	yes	53	1	644	6	6	antiphase_hc_ois.wav	3	6	2	noise_calib_stim_LEFT.wav	1	23	blb_dichoticlistening_ka-pa.mp3	ka	pa	1	right
6.6.1	win	2023-06-19	08:13:21	08:29:55	986690	6361769fee0c219b0f1cc480	2	1	practice_slash	26	advance_on_keypress_SLASH	8	stimuli_target_rectanglediamonds.svg	stimuli_distractor_trianglediamonds.svg	4	yes	57	0	417	6	6	antiphase_hc_ois.wav	3	6	2	noise_calib_stim_LEFT.wav	1	23	blb_dichoticlistening_ka-pa.mp3	ka	pa	1	right
6.6.1	win	2023-06-19	08:13:21	08:29:58	989586	6361769fee0c219b0f1cc480	2	1	practice_slash	26	practice_slash	9	stimuli_target_rectanglediamonds.svg	stimuli_distractor_diamondtriangles.svg	1	yes	53	1	840	6	6	antiphase_hc_ois.wav	3	6	2	noise_calib_stim_LEFT.wav	1	23	blb_dichoticlistening_ka-pa.mp3	ka	pa	1	right
6.6.1	win	2023-06-19	08:13:21	08:29:58	989586	6361769fee0c219b0f1cc480	2	1	practice_slash	26	advance_on_keypress_SLASH	10	stimuli_target_rectanglediamonds.svg	stimuli_distractor_diamondtriangles.svg	1	yes	57	0	479	6	6	antiphase_hc_ois.wav	3	6	2	noise_calib_stim_LEFT.wav	1	23	blb_dichoticlistening_ka-pa.mp3	ka	pa	1	right
6.6.1	win	2023-06-19	08:13:21	08:30:01	992636	6361769fee0c219b0f1cc480	2	1	practice_slash	26	practice_slash	11	stimuli_distractor_trianglediamonds.svg	stimuli_target_rectanglediamonds.svg	10	yes	53	1	939	6	6	antiphase_hc_ois.wav	3	6	2	noise_calib_stim_LEFT.wav	1	23	blb_dichoticlistening_ka-pa.mp3	ka	pa	1	right
6.6.1	win	2023-06-19	08:13:21	08:30:01	992636	6361769fee0c219b0f1cc480	2	1	practice_slash	26	advance_on_keypress_SLASH	12	stimuli_distractor_trianglediamonds.svg	stimuli_target_rectanglediamonds.svg	10	yes	57	0	698	6	6	antiphase_hc_ois.wav	3	6	2	noise_calib_stim_LEFT.wav	1	23	blb_dichoticlistening_ka-pa.mp3	ka	pa	1	right
6.6.1	win	2023-06-19	08:13:21	08:30:04	995912	6361769fee0c219b0f1cc480	2	1	practice_slash	26	practice_slash	13	stimuli_distractor_trianglediamonds.svg	stimuli_target_squarediamonds.svg	11	yes	53	1	933	6	6	antiphase_hc_ois.wav	3	6	2	noise_calib_stim_LEFT.wav	1	23	blb_dichoticlistening_ka-pa.mp3	ka	pa	1	right
6.6.1	win	2023-06-19	08:13:21	08:30:04	995912	6361769fee0c219b0f1cc480	2	1	practice_slash	26	advance_on_keypress_SLASH	14	stimuli_distractor_trianglediamonds.svg	stimuli_target_squarediamonds.svg	11	yes	57	0	431	6	6	antiphase_hc_ois.wav	3	6	2	noise_calib_stim_LEFT.wav	1	23	blb_dichoticlistening_ka-pa.mp3	ka	pa	1	right
6.6.1	win	2023-06-19	08:13:21	08:30:08	999997	6361769fee0c219b0f1cc480	2	1	practice_slash	26	practice_slash	15	stimuli_distractor_diamondtriangles.svg	stimuli_distractor_trianglediamonds.svg	14	no	0	1	2000	6	6	antiphase_hc_ois.wav	3	6	2	noise_calib_stim_LEFT.wav	1	23	blb_dichoticlistening_ka-pa.mp3	ka	pa	1	right
6.6.1	win	2023-06-19	08:13:21	08:30:08	999997	6361769fee0c219b0f1cc480	2	1	practice_slash	26	advance_on_keypress_SLASH	16	stimuli_distractor_diamondtriangles.svg	stimuli_distractor_trianglediamonds.svg	14	no	57	0	362	6	6	antiphase_hc_ois.wav	3	6	2	noise_calib_stim_LEFT.wav	1	23	blb_dichoticlistening_ka-pa.mp3	ka	pa	1	right
6.6.1	win	2023-06-19	08:13:21	08:30:12	1004013	6361769fee0c219b0f1cc480	2	1	practice_slash	26	practice_slash	17	stimuli_distractor_trianglediamonds.svg	stimuli_distractor_trianglediamonds.svg	15	no	0	1	2000	6	6	antiphase_hc_ois.wav	3	6	2	noise_calib_stim_LEFT.wav	1	23	blb_dichoticlistening_ka-pa.mp3	ka	pa	1	right
6.6.1	win	2023-06-19	08:13:21	08:30:12	1004013	6361769fee0c219b0f1cc480	2	1	practice_slash	26	advance_on_keypress_SLASH	18	stimuli_distractor_trianglediamonds.svg	stimuli_distractor_trianglediamonds.svg	15	no	57	0	471	6	6	antiphase_hc_ois.wav	3	6	2	noise_calib_stim_LEFT.wav	1	23	blb_dichoticlistening_ka-pa.mp3	ka	pa	1	right
6.6.1	win	2023-06-19	08:13:21	08:30:15	1006765	6361769fee0c219b0f1cc480	2	1	practice_slash	26	practice_slash	19	stimuli_distractor_trianglediamonds.svg	stimuli_target_diamondrectangles.svg	12	yes	53	1	636	6	6	antiphase_hc_ois.wav	3	6	2	noise_calib_stim_LEFT.wav	1	23	blb_dichoticlistening_ka-pa.mp3	ka	pa	1	right
