build	computer.platform	date	time	timestamp	time_elapsed_ms	subject	group	session	blockcode	blocknum	trialcode	trialnum	stimulus_left	stimulus_right	stim_index	target_present	response	correct	latency	headphonecheck_countTestTrials	headphonecheck_index	headphonecheck_testSound	headphonecheck_correctResponse	stereocheck_countTestTrials	stereocheck_index	stereocheck_testSound	stereocheck_correctResponse	DL_index	DL_soundfile	DL_leftSound	DL_rightSound	DL_dualSound	DL_choice
6.6.1	win	2023-06-02	01:10:31	01:13:58	199707	5f6e36c7f042f033d0f97bc1	3	1	practice_slash	5	practice_slash	1	stimuli_distractor_diamondtriangles.svg	stimuli_distractor_trianglediamonds.svg	14	no	0	1	2000	0	0			0	0			1				0	
6.6.1	win	2023-06-02	01:10:31	01:13:58	199707	5f6e36c7f042f033d0f97bc1	3	1	practice_slash	5	advance_on_keypress_SLASH	2	stimuli_distractor_diamondtriangles.svg	stimuli_distractor_trianglediamonds.svg	14	no	57	0	1297	0	0			0	0			1				0	
6.6.1	win	2023-06-02	01:10:31	01:14:02	203711	5f6e36c7f042f033d0f97bc1	3	1	practice_slash	5	practice_slash	3	stimuli_target_diamondsquares.svg	stimuli_distractor_trianglediamonds.svg	6	yes	53	1	1052	0	0			0	0			1				0	
6.6.1	win	2023-06-02	01:10:31	01:14:02	203711	5f6e36c7f042f033d0f97bc1	3	1	practice_slash	5	advance_on_keypress_SLASH	4	stimuli_target_diamondsquares.svg	stimuli_distractor_trianglediamonds.svg	6	yes	57	0	512	0	0			0	0			1				0	
6.6.1	win	2023-06-02	01:10:31	01:14:05	207150	5f6e36c7f042f033d0f97bc1	3	1	practice_slash	5	practice_slash	5	stimuli_target_rectanglediamonds.svg	stimuli_distractor_diamondtriangles.svg	1	yes	53	1	1290	0	0			0	0			1				0	
6.6.1	win	2023-06-02	01:10:31	01:14:05	207150	5f6e36c7f042f033d0f97bc1	3	1	practice_slash	5	advance_on_keypress_SLASH	6	stimuli_target_rectanglediamonds.svg	stimuli_distractor_diamondtriangles.svg	1	yes	57	0	445	0	0			0	0			1				0	
6.6.1	win	2023-06-02	01:10:31	01:14:08	210142	5f6e36c7f042f033d0f97bc1	3	1	practice_slash	5	practice_slash	7	stimuli_distractor_diamondtriangles.svg	stimuli_target_rectangletriangles.svg	7	yes	53	1	898	0	0			0	0			1				0	
6.6.1	win	2023-06-02	01:10:31	01:14:08	210142	5f6e36c7f042f033d0f97bc1	3	1	practice_slash	5	advance_on_keypress_SLASH	8	stimuli_distractor_diamondtriangles.svg	stimuli_target_rectangletriangles.svg	7	yes	57	0	725	0	0			0	0			1				0	
6.6.1	win	2023-06-02	01:10:31	01:14:12	213352	5f6e36c7f042f033d0f97bc1	3	1	practice_slash	5	practice_slash	9	stimuli_target_diamondsquares.svg	stimuli_distractor_diamondtriangles.svg	3	yes	53	1	854	0	0			0	0			1				0	
6.6.1	win	2023-06-02	01:10:31	01:14:12	213352	5f6e36c7f042f033d0f97bc1	3	1	practice_slash	5	advance_on_keypress_SLASH	10	stimuli_target_diamondsquares.svg	stimuli_distractor_diamondtriangles.svg	3	yes	57	0	539	0	0			0	0			1				0	
6.6.1	win	2023-06-02	01:10:31	01:14:14	216190	5f6e36c7f042f033d0f97bc1	3	1	practice_slash	5	practice_slash	11	stimuli_target_squarediamonds.svg	stimuli_distractor_diamondtriangles.svg	2	yes	53	1	660	0	0			0	0			1				0	
6.6.1	win	2023-06-02	01:10:31	01:14:14	216190	5f6e36c7f042f033d0f97bc1	3	1	practice_slash	5	advance_on_keypress_SLASH	12	stimuli_target_squarediamonds.svg	stimuli_distractor_diamondtriangles.svg	2	yes	57	0	496	0	0			0	0			1				0	
6.6.1	win	2023-06-02	01:10:31	01:14:17	219039	5f6e36c7f042f033d0f97bc1	3	1	practice_slash	5	practice_slash	13	stimuli_target_rectanglediamonds.svg	stimuli_distractor_trianglediamonds.svg	4	yes	53	1	724	0	0			0	0			1				0	
6.6.1	win	2023-06-02	01:10:31	01:14:17	219039	5f6e36c7f042f033d0f97bc1	3	1	practice_slash	5	advance_on_keypress_SLASH	14	stimuli_target_rectanglediamonds.svg	stimuli_distractor_trianglediamonds.svg	4	yes	57	0	453	0	0			0	0			1				0	
6.6.1	win	2023-06-02	01:10:31	01:14:21	223132	5f6e36c7f042f033d0f97bc1	3	1	practice_slash	5	practice_slash	15	stimuli_distractor_trianglediamonds.svg	stimuli_distractor_trianglediamonds.svg	15	no	0	1	2000	0	0			0	0			1				0	
6.6.1	win	2023-06-02	01:10:31	01:14:21	223132	5f6e36c7f042f033d0f97bc1	3	1	practice_slash	5	advance_on_keypress_SLASH	16	stimuli_distractor_trianglediamonds.svg	stimuli_distractor_trianglediamonds.svg	15	no	57	0	472	0	0			0	0			1				0	
6.6.1	win	2023-06-02	01:10:31	01:14:25	227251	5f6e36c7f042f033d0f97bc1	3	1	practice_slash	5	practice_slash	17	stimuli_distractor_trianglediamonds.svg	stimuli_distractor_diamondtriangles.svg	16	no	0	1	2000	0	0			0	0			1				0	
6.6.1	win	2023-06-02	01:10:31	01:14:25	227251	5f6e36c7f042f033d0f97bc1	3	1	practice_slash	5	advance_on_keypress_SLASH	18	stimuli_distractor_trianglediamonds.svg	stimuli_distractor_diamondtriangles.svg	16	no	57	0	466	0	0			0	0			1				0	
6.6.1	win	2023-06-02	01:10:31	01:14:28	230071	5f6e36c7f042f033d0f97bc1	3	1	practice_slash	5	practice_slash	19	stimuli_distractor_trianglediamonds.svg	stimuli_target_diamondrectangles.svg	12	yes	53	1	701	0	0			0	0			1				0	
6.6.1	win	2023-06-02	01:10:31	01:14:28	230071	5f6e36c7f042f033d0f97bc1	3	1	practice_slash	5	advance_on_keypress_SLASH	20	stimuli_distractor_trianglediamonds.svg	stimuli_target_diamondrectangles.svg	12	yes	57	0	1152	0	0			0	0			1				0	
6.6.1	win	2023-06-02	01:10:31	01:14:32	233750	5f6e36c7f042f033d0f97bc1	3	1	practice_slash	5	practice_slash	21	stimuli_distractor_diamondtriangles.svg	stimuli_target_trianglerectangles.svg	9	yes	53	1	880	0	0			0	0			1				0	
6.6.1	win	2023-06-02	01:10:31	01:14:32	233750	5f6e36c7f042f033d0f97bc1	3	1	practice_slash	5	advance_on_keypress_SLASH	22	stimuli_distractor_diamondtriangles.svg	stimuli_target_trianglerectangles.svg	9	yes	57	0	420	0	0			0	0			1				0	
6.6.1	win	2023-06-02	01:10:31	01:14:35	236583	5f6e36c7f042f033d0f97bc1	3	1	practice_slash	5	practice_slash	23	stimuli_distractor_trianglediamonds.svg	stimuli_target_squarediamonds.svg	11	yes	53	1	778	0	0			0	0			1				0	
6.6.1	win	2023-06-02	01:10:31	01:14:35	236583	5f6e36c7f042f033d0f97bc1	3	1	practice_slash	5	advance_on_keypress_SLASH	24	stimuli_distractor_trianglediamonds.svg	stimuli_target_squarediamonds.svg	11	yes	57	0	449	0	0			0	0			1				0	
6.6.1	win	2023-06-02	01:10:31	01:14:39	240672	5f6e36c7f042f033d0f97bc1	3	1	practice_slash	5	practice_slash	25	stimuli_distractor_diamondtriangles.svg	stimuli_distractor_diamondtriangles.svg	13	no	0	1	2000	0	0			0	0			1				0	
6.6.1	win	2023-06-02	01:10:31	01:14:39	240672	5f6e36c7f042f033d0f97bc1	3	1	practice_slash	5	advance_on_keypress_SLASH	26	stimuli_distractor_diamondtriangles.svg	stimuli_distractor_diamondtriangles.svg	13	no	57	0	348	0	0			0	0			1				0	
6.6.1	win	2023-06-02	01:10:31	01:14:42	243438	5f6e36c7f042f033d0f97bc1	3	1	practice_slash	5	practice_slash	27	stimuli_distractor_trianglediamonds.svg	stimuli_target_rectanglediamonds.svg	10	yes	53	1	781	0	0			0	0			1				0	
6.6.1	win	2023-06-02	01:10:31	01:14:42	243438	5f6e36c7f042f033d0f97bc1	3	1	practice_slash	5	advance_on_keypress_SLASH	28	stimuli_distractor_trianglediamonds.svg	stimuli_target_rectanglediamonds.svg	10	yes	57	0	509	0	0			0	0			1				0	
6.6.1	win	2023-06-02	01:10:31	01:14:45	246318	5f6e36c7f042f033d0f97bc1	3	1	practice_slash	5	practice_slash	29	stimuli_target_squarediamonds.svg	stimuli_distractor_trianglediamonds.svg	5	yes	53	1	743	0	0			0	0			1				0	
6.6.1	win	2023-06-02	01:10:31	01:14:45	246318	5f6e36c7f042f033d0f97bc1	3	1	practice_slash	5	advance_on_keypress_SLASH	30	stimuli_target_squarediamonds.svg	stimuli_distractor_trianglediamonds.svg	5	yes	57	0	496	0	0			0	0			1				0	
6.6.1	win	2023-06-02	01:10:31	01:14:47	249102	5f6e36c7f042f033d0f97bc1	3	1	practice_slash	5	practice_slash	31	stimuli_distractor_diamondtriangles.svg	stimuli_target_diamondrectangles.svg	8	yes	53	1	659	0	0			0	0			1				0	
6.6.1	win	2023-06-02	01:10:31	01:14:47	249102	5f6e36c7f042f033d0f97bc1	3	1	practice_slash	5	advance_on_keypress_SLASH	32	stimuli_distractor_diamondtriangles.svg	stimuli_target_diamondrectangles.svg	8	yes	57	0	384	0	0			0	0			1				0	
6.6.1	win	2023-06-02	01:10:31	01:14:56	257526	5f6e36c7f042f033d0f97bc1	3	1	main_slash	7	main_slash	1	stimuli_distractor_diamondtriangles.svg	stimuli_target_trianglesquares.svg	30	yes	53	1	613	0	0			0	0			1				0	
6.6.1	win	2023-06-02	01:10:31	01:14:56	257526	5f6e36c7f042f033d0f97bc1	3	1	main_slash	7	advance_on_keypress_SLASH	2	stimuli_distractor_diamondtriangles.svg	stimuli_target_trianglesquares.svg	30	yes	57	0	995	0	0			0	0			1				0	
6.6.1	win	2023-06-02	01:10:31	01:14:58	259774	5f6e36c7f042f033d0f97bc1	3	1	main_slash	7	main_slash	3	stimuli_distractor_trianglediamonds.svg	stimuli_target_diamondrectangles.svg	27	yes	53	1	610	0	0			0	0			1				0	
6.6.1	win	2023-06-02	01:10:31	01:14:58	259774	5f6e36c7f042f033d0f97bc1	3	1	main_slash	7	advance_on_keypress_SLASH	4	stimuli_distractor_trianglediamonds.svg	stimuli_target_diamondrectangles.svg	27	yes	57	0	545	0	0			0	0			1				0	
6.6.1	win	2023-06-02	01:10:31	01:15:01	262948	5f6e36c7f042f033d0f97bc1	3	1	main_slash	7	main_slash	5	stimuli_distractor_diamondtriangles.svg	stimuli_distractor_diamondtriangles.svg	39	no	0	1	2000	0	0			0	0			1				0	
6.6.1	win	2023-06-02	01:10:31	01:15:01	262948	5f6e36c7f042f033d0f97bc1	3	1	main_slash	7	advance_on_keypress_SLASH	6	stimuli_distractor_diamondtriangles.svg	stimuli_distractor_diamondtriangles.svg	39	no	57	0	569	0	0			0	0			1				0	
6.6.1	win	2023-06-02	01:10:31	01:15:03	264894	5f6e36c7f042f033d0f97bc1	3	1	main_slash	7	main_slash	7	stimuli_target_squarediamonds.svg	stimuli_distractor_trianglediamonds.svg	4	yes	53	1	728	0	0			0	0			1				0	
6.6.1	win	2023-06-02	01:10:31	01:15:03	264894	5f6e36c7f042f033d0f97bc1	3	1	main_slash	7	advance_on_keypress_SLASH	8	stimuli_target_squarediamonds.svg	stimuli_distractor_trianglediamonds.svg	4	yes	57	0	699	0	0			0	0			1				0	
6.6.1	win	2023-06-02	01:10:31	01:15:06	268233	5f6e36c7f042f033d0f97bc1	3	1	main_slash	7	main_slash	9	stimuli_distractor_trianglediamonds.svg	stimuli_distractor_diamondtriangles.svg	35	no	0	1	2000	0	0			0	0			1				0	
6.6.1	win	2023-06-02	01:10:31	01:15:06	268233	5f6e36c7f042f033d0f97bc1	3	1	main_slash	7	advance_on_keypress_SLASH	10	stimuli_distractor_trianglediamonds.svg	stimuli_distractor_diamondtriangles.svg	35	no	57	0	563	0	0			0	0			1				0	
6.6.1	win	2023-06-02	01:10:31	01:15:08	270158	5f6e36c7f042f033d0f97bc1	3	1	main_slash	7	main_slash	11	stimuli_distractor_diamondtriangles.svg	stimuli_target_diamondsquares.svg	32	yes	53	1	724	0	0			0	0			1				0	
6.6.1	win	2023-06-02	01:10:31	01:15:08	270158	5f6e36c7f042f033d0f97bc1	3	1	main_slash	7	advance_on_keypress_SLASH	12	stimuli_distractor_diamondtriangles.svg	stimuli_target_diamondsquares.svg	32	yes	57	0	654	0	0			0	0			1				0	
6.6.1	win	2023-06-02	01:10:31	01:15:12	273452	5f6e36c7f042f033d0f97bc1	3	1	main_slash	7	main_slash	13	stimuli_distractor_diamondtriangles.svg	stimuli_distractor_trianglediamonds.svg	38	no	0	1	2000	0	0			0	0			1				0	
6.6.1	win	2023-06-02	01:10:31	01:15:12	273452	5f6e36c7f042f033d0f97bc1	3	1	main_slash	7	advance_on_keypress_SLASH	14	stimuli_distractor_diamondtriangles.svg	stimuli_distractor_trianglediamonds.svg	38	no	57	0	561	0	0			0	0			1				0	
6.6.1	win	2023-06-02	01:10:31	01:15:14	275430	5f6e36c7f042f033d0f97bc1	3	1	main_slash	7	main_slash	15	stimuli_distractor_trianglediamonds.svg	stimuli_target_diamondsquares.svg	28	yes	53	1	777	0	0			0	0			1				0	
6.6.1	win	2023-06-02	01:10:31	01:15:14	275430	5f6e36c7f042f033d0f97bc1	3	1	main_slash	7	advance_on_keypress_SLASH	16	stimuli_distractor_trianglediamonds.svg	stimuli_target_diamondsquares.svg	28	yes	57	0	489	0	0			0	0			1				0	
6.6.1	win	2023-06-02	01:10:31	01:15:15	277238	5f6e36c7f042f033d0f97bc1	3	1	main_slash	7	main_slash	17	stimuli_distractor_diamondtriangles.svg	stimuli_target_trianglerectangles.svg	29	yes	53	1	684	0	0			0	0			1				0	
6.6.1	win	2023-06-02	01:10:31	01:15:15	277238	5f6e36c7f042f033d0f97bc1	3	1	main_slash	7	advance_on_keypress_SLASH	18	stimuli_distractor_diamondtriangles.svg	stimuli_target_trianglerectangles.svg	29	yes	57	0	416	0	0			0	0			1				0	
6.6.1	win	2023-06-02	01:10:31	01:15:17	279014	5f6e36c7f042f033d0f97bc1	3	1	main_slash	7	main_slash	19	stimuli_distractor_diamondtriangles.svg	stimuli_target_squarediamonds.svg	16	yes	53	1	710	0	0			0	0			1				0	
6.6.1	win	2023-06-02	01:10:31	01:15:17	279014	5f6e36c7f042f033d0f97bc1	3	1	main_slash	7	advance_on_keypress_SLASH	20	stimuli_distractor_diamondtriangles.svg	stimuli_target_squarediamonds.svg	16	yes	57	0	409	0	0			0	0			1				0	
6.6.1	win	2023-06-02	01:10:31	01:15:19	280886	5f6e36c7f042f033d0f97bc1	3	1	main_slash	7	main_slash	21	stimuli_target_trianglesquares.svg	stimuli_distractor_diamondtriangles.svg	22	yes	53	1	831	0	0			0	0			1				0	
6.6.1	win	2023-06-02	01:10:31	01:15:19	280886	5f6e36c7f042f033d0f97bc1	3	1	main_slash	7	advance_on_keypress_SLASH	22	stimuli_target_trianglesquares.svg	stimuli_distractor_diamondtriangles.svg	22	yes	57	0	397	0	0			0	0			1				0	
6.6.1	win	2023-06-02	01:10:31	01:15:21	282758	5f6e36c7f042f033d0f97bc1	3	1	main_slash	7	main_slash	23	stimuli_target_trianglerectangles.svg	stimuli_distractor_diamondtriangles.svg	21	yes	53	1	852	0	0			0	0			1				0	
6.6.1	win	2023-06-02	01:10:31	01:15:21	282758	5f6e36c7f042f033d0f97bc1	3	1	main_slash	7	advance_on_keypress_SLASH	24	stimuli_target_trianglerectangles.svg	stimuli_distractor_diamondtriangles.svg	21	yes	57	0	513	0	0			0	0			1				0	
6.6.1	win	2023-06-02	01:10:31	01:15:23	284710	5f6e36c7f042f033d0f97bc1	3	1	main_slash	7	main_slash	25	stimuli_target_trianglesquares.svg	stimuli_distractor_trianglediamonds.svg	18	yes	53	1	804	0	0			0	0			1				0	
6.6.1	win	2023-06-02	01:10:31	01:15:23	284710	5f6e36c7f042f033d0f97bc1	3	1	main_slash	7	advance_on_keypress_SLASH	26	stimuli_target_trianglesquares.svg	stimuli_distractor_trianglediamonds.svg	18	yes	57	0	450	0	0			0	0			1				0	
6.6.1	win	2023-06-02	01:10:31	01:15:25	287238	5f6e36c7f042f033d0f97bc1	3	1	main_slash	7	main_slash	27	stimuli_distractor_trianglediamonds.svg	stimuli_target_squarediamonds.svg	12	yes	53	1	1431	0	0			0	0			1				0	
6.6.1	win	2023-06-02	01:10:31	01:15:25	287238	5f6e36c7f042f033d0f97bc1	3	1	main_slash	7	advance_on_keypress_SLASH	28	stimuli_distractor_trianglediamonds.svg	stimuli_target_squarediamonds.svg	12	yes	57	0	589	0	0			0	0			1				0	
6.6.1	win	2023-06-02	01:10:31	01:15:28	289694	5f6e36c7f042f033d0f97bc1	3	1	main_slash	7	main_slash	29	stimuli_target_diamondsquares.svg	stimuli_distractor_diamondtriangles.svg	24	yes	53	1	1236	0	0			0	0			1				0	
6.6.1	win	2023-06-02	01:10:31	01:15:28	289694	5f6e36c7f042f033d0f97bc1	3	1	main_slash	7	advance_on_keypress_SLASH	30	stimuli_target_diamondsquares.svg	stimuli_distractor_diamondtriangles.svg	24	yes	57	0	561	0	0			0	0			1				0	
6.6.1	win	2023-06-02	01:10:31	01:15:31	292374	5f6e36c7f042f033d0f97bc1	3	1	main_slash	7	main_slash	31	stimuli_target_squarediamonds.svg	stimuli_distractor_diamondtriangles.svg	8	yes	53	1	1482	0	0			0	0			1				0	
6.6.1	win	2023-06-02	01:10:31	01:15:31	292374	5f6e36c7f042f033d0f97bc1	3	1	main_slash	7	advance_on_keypress_SLASH	32	stimuli_target_squarediamonds.svg	stimuli_distractor_diamondtriangles.svg	8	yes	57	0	638	0	0			0	0			1				0	
6.6.1	win	2023-06-02	01:10:31	01:15:33	294518	5f6e36c7f042f033d0f97bc1	3	1	main_slash	7	main_slash	33	stimuli_target_rectangletriangles.svg	stimuli_distractor_diamondtriangles.svg	5	yes	53	1	875	0	0			0	0			1				0	
6.6.1	win	2023-06-02	01:10:31	01:15:33	294518	5f6e36c7f042f033d0f97bc1	3	1	main_slash	7	advance_on_keypress_SLASH	34	stimuli_target_rectangletriangles.svg	stimuli_distractor_diamondtriangles.svg	5	yes	57	0	559	0	0			0	0			1				0	
6.6.1	win	2023-06-02	01:10:31	01:15:35	296550	5f6e36c7f042f033d0f97bc1	3	1	main_slash	7	main_slash	35	stimuli_distractor_diamondtriangles.svg	stimuli_target_rectangletriangles.svg	13	yes	53	1	839	0	0			0	0			1				0	
6.6.1	win	2023-06-02	01:10:31	01:15:35	296550	5f6e36c7f042f033d0f97bc1	3	1	main_slash	7	advance_on_keypress_SLASH	36	stimuli_distractor_diamondtriangles.svg	stimuli_target_rectangletriangles.svg	13	yes	57	0	373	0	0			0	0			1				0	
6.6.1	win	2023-06-02	01:10:31	01:15:38	299562	5f6e36c7f042f033d0f97bc1	3	1	main_slash	7	main_slash	37	stimuli_distractor_trianglediamonds.svg	stimuli_distractor_diamondtriangles.svg	36	no	0	1	2000	0	0			0	0			1				0	
6.6.1	win	2023-06-02	01:10:31	01:15:38	299562	5f6e36c7f042f033d0f97bc1	3	1	main_slash	7	advance_on_keypress_SLASH	38	stimuli_distractor_trianglediamonds.svg	stimuli_distractor_diamondtriangles.svg	36	no	57	0	523	0	0			0	0			1				0	
6.6.1	win	2023-06-02	01:10:31	01:15:40	301630	5f6e36c7f042f033d0f97bc1	3	1	main_slash	7	main_slash	39	stimuli_distractor_trianglediamonds.svg	stimuli_target_rectanglediamonds.svg	10	yes	53	1	901	0	0			0	0			1				0	
6.6.1	win	2023-06-02	01:10:31	01:15:40	301630	5f6e36c7f042f033d0f97bc1	3	1	main_slash	7	advance_on_keypress_SLASH	40	stimuli_distractor_trianglediamonds.svg	stimuli_target_rectanglediamonds.svg	10	yes	57	0	439	0	0			0	0			1				0	
6.6.1	win	2023-06-02	01:10:31	01:15:42	303982	5f6e36c7f042f033d0f97bc1	3	1	main_slash	7	main_slash	41	stimuli_distractor_trianglediamonds.svg	stimuli_target_trianglesquares.svg	26	yes	53	1	1269	0	0			0	0			1				0	
6.6.1	win	2023-06-02	01:10:31	01:15:42	303982	5f6e36c7f042f033d0f97bc1	3	1	main_slash	7	advance_on_keypress_SLASH	42	stimuli_distractor_trianglediamonds.svg	stimuli_target_trianglesquares.svg	26	yes	57	0	520	0	0			0	0			1				0	
6.6.1	win	2023-06-02	01:10:31	01:15:44	305958	5f6e36c7f042f033d0f97bc1	3	1	main_slash	7	main_slash	43	stimuli_distractor_diamondtriangles.svg	stimuli_target_rectanglediamonds.svg	14	yes	53	1	810	0	0			0	0			1				0	
6.6.1	win	2023-06-02	01:10:31	01:15:44	305958	5f6e36c7f042f033d0f97bc1	3	1	main_slash	7	advance_on_keypress_SLASH	44	stimuli_distractor_diamondtriangles.svg	stimuli_target_rectanglediamonds.svg	14	yes	57	0	401	0	0			0	0			1				0	
6.6.1	win	2023-06-02	01:10:31	01:15:46	307758	5f6e36c7f042f033d0f97bc1	3	1	main_slash	7	main_slash	45	stimuli_target_squaretriangles.svg	stimuli_distractor_diamondtriangles.svg	7	yes	53	1	760	0	0			0	0			1				0	
6.6.1	win	2023-06-02	01:10:31	01:15:46	307758	5f6e36c7f042f033d0f97bc1	3	1	main_slash	7	advance_on_keypress_SLASH	46	stimuli_target_squaretriangles.svg	stimuli_distractor_diamondtriangles.svg	7	yes	57	0	304	0	0			0	0			1				0	
6.6.1	win	2023-06-02	01:10:31	01:15:48	309502	5f6e36c7f042f033d0f97bc1	3	1	main_slash	7	main_slash	47	stimuli_target_rectanglediamonds.svg	stimuli_distractor_diamondtriangles.svg	6	yes	53	1	803	0	0			0	0			1				0	
6.6.1	win	2023-06-02	01:10:31	01:15:48	309502	5f6e36c7f042f033d0f97bc1	3	1	main_slash	7	advance_on_keypress_SLASH	48	stimuli_target_rectanglediamonds.svg	stimuli_distractor_diamondtriangles.svg	6	yes	57	0	394	0	0			0	0			1				0	
6.6.1	win	2023-06-02	01:10:31	01:15:50	311398	5f6e36c7f042f033d0f97bc1	3	1	main_slash	7	main_slash	49	stimuli_distractor_trianglediamonds.svg	stimuli_target_squaretriangles.svg	11	yes	53	1	865	0	0			0	0			1				0	
6.6.1	win	2023-06-02	01:10:31	01:15:50	311398	5f6e36c7f042f033d0f97bc1	3	1	main_slash	7	advance_on_keypress_SLASH	50	stimuli_distractor_trianglediamonds.svg	stimuli_target_squaretriangles.svg	11	yes	57	0	342	0	0			0	0			1				0	
6.6.1	win	2023-06-02	01:10:31	01:15:51	313086	5f6e36c7f042f033d0f97bc1	3	1	main_slash	7	main_slash	51	stimuli_distractor_trianglediamonds.svg	stimuli_target_rectangletriangles.svg	9	yes	53	1	719	0	0			0	0			1				0	
6.6.1	win	2023-06-02	01:10:31	01:15:51	313086	5f6e36c7f042f033d0f97bc1	3	1	main_slash	7	advance_on_keypress_SLASH	52	stimuli_distractor_trianglediamonds.svg	stimuli_target_rectangletriangles.svg	9	yes	57	0	385	0	0			0	0			1				0	
6.6.1	win	2023-06-02	01:10:31	01:15:53	315030	5f6e36c7f042f033d0f97bc1	3	1	main_slash	7	main_slash	53	stimuli_target_diamondsquares.svg	stimuli_distractor_trianglediamonds.svg	20	yes	53	1	912	0	0			0	0			1				0	
6.6.1	win	2023-06-02	01:10:31	01:15:53	315030	5f6e36c7f042f033d0f97bc1	3	1	main_slash	7	advance_on_keypress_SLASH	54	stimuli_target_diamondsquares.svg	stimuli_distractor_trianglediamonds.svg	20	yes	57	0	587	0	0			0	0			1				0	
6.6.1	win	2023-06-02	01:10:31	01:15:56	318252	5f6e36c7f042f033d0f97bc1	3	1	main_slash	7	main_slash	55	stimuli_distractor_diamondtriangles.svg	stimuli_distractor_diamondtriangles.svg	40	no	0	1	2000	0	0			0	0			1				0	
6.6.1	win	2023-06-02	01:10:31	01:15:56	318252	5f6e36c7f042f033d0f97bc1	3	1	main_slash	7	advance_on_keypress_SLASH	56	stimuli_distractor_diamondtriangles.svg	stimuli_distractor_diamondtriangles.svg	40	no	57	0	496	0	0			0	0			1				0	
6.6.1	win	2023-06-02	01:10:31	01:15:58	320006	5f6e36c7f042f033d0f97bc1	3	1	main_slash	7	main_slash	57	stimuli_target_rectangletriangles.svg	stimuli_distractor_trianglediamonds.svg	1	yes	53	1	620	0	0			0	0			1				0	
6.6.1	win	2023-06-02	01:10:31	01:15:58	320006	5f6e36c7f042f033d0f97bc1	3	1	main_slash	7	advance_on_keypress_SLASH	58	stimuli_target_rectangletriangles.svg	stimuli_distractor_trianglediamonds.svg	1	yes	57	0	298	0	0			0	0			1				0	
6.6.1	win	2023-06-02	01:10:31	01:16:01	322937	5f6e36c7f042f033d0f97bc1	3	1	main_slash	7	main_slash	59	stimuli_distractor_trianglediamonds.svg	stimuli_distractor_trianglediamonds.svg	34	no	0	1	2000	0	0			0	0			1				0	
6.6.1	win	2023-06-02	01:10:31	01:16:01	322937	5f6e36c7f042f033d0f97bc1	3	1	main_slash	7	advance_on_keypress_SLASH	60	stimuli_distractor_trianglediamonds.svg	stimuli_distractor_trianglediamonds.svg	34	no	57	0	411	0	0			0	0			1				0	
6.6.1	win	2023-06-02	01:10:31	01:16:03	325007	5f6e36c7f042f033d0f97bc1	3	1	main_slash	7	main_slash	61	stimuli_target_diamondrectangles.svg	stimuli_distractor_trianglediamonds.svg	19	yes	53	1	1018	0	0			0	0			1				0	
6.6.1	win	2023-06-02	01:10:31	01:16:03	325007	5f6e36c7f042f033d0f97bc1	3	1	main_slash	7	advance_on_keypress_SLASH	62	stimuli_target_diamondrectangles.svg	stimuli_distractor_trianglediamonds.svg	19	yes	57	0	392	0	0			0	0			1				0	
6.6.1	win	2023-06-02	01:10:31	01:16:05	326854	5f6e36c7f042f033d0f97bc1	3	1	main_slash	7	main_slash	63	stimuli_distractor_diamondtriangles.svg	stimuli_target_diamondrectangles.svg	31	yes	53	1	815	0	0			0	0			1				0	
6.6.1	win	2023-06-02	01:10:31	01:16:05	326854	5f6e36c7f042f033d0f97bc1	3	1	main_slash	7	advance_on_keypress_SLASH	64	stimuli_distractor_diamondtriangles.svg	stimuli_target_diamondrectangles.svg	31	yes	57	0	390	0	0			0	0			1				0	
6.6.1	win	2023-06-02	01:10:31	01:16:07	328750	5f6e36c7f042f033d0f97bc1	3	1	main_slash	7	main_slash	65	stimuli_target_trianglerectangles.svg	stimuli_distractor_trianglediamonds.svg	17	yes	53	1	877	0	0			0	0			1				0	
6.6.1	win	2023-06-02	01:10:31	01:16:07	328750	5f6e36c7f042f033d0f97bc1	3	1	main_slash	7	advance_on_keypress_SLASH	66	stimuli_target_trianglerectangles.svg	stimuli_distractor_trianglediamonds.svg	17	yes	57	0	441	0	0			0	0			1				0	
6.6.1	win	2023-06-02	01:10:31	01:16:09	330638	5f6e36c7f042f033d0f97bc1	3	1	main_slash	7	main_slash	67	stimuli_target_squaretriangles.svg	stimuli_distractor_trianglediamonds.svg	3	yes	53	1	814	0	0			0	0			1				0	
6.6.1	win	2023-06-02	01:10:31	01:16:09	330638	5f6e36c7f042f033d0f97bc1	3	1	main_slash	7	advance_on_keypress_SLASH	68	stimuli_target_squaretriangles.svg	stimuli_distractor_trianglediamonds.svg	3	yes	57	0	397	0	0			0	0			1				0	
6.6.1	win	2023-06-02	01:10:31	01:16:11	332518	5f6e36c7f042f033d0f97bc1	3	1	main_slash	7	main_slash	69	stimuli_distractor_diamondtriangles.svg	stimuli_target_squaretriangles.svg	15	yes	53	1	860	0	0			0	0			1				0	
6.6.1	win	2023-06-02	01:10:31	01:16:11	332518	5f6e36c7f042f033d0f97bc1	3	1	main_slash	7	advance_on_keypress_SLASH	70	stimuli_distractor_diamondtriangles.svg	stimuli_target_squaretriangles.svg	15	yes	57	0	321	0	0			0	0			1				0	
6.6.1	win	2023-06-02	01:10:31	01:16:14	335475	5f6e36c7f042f033d0f97bc1	3	1	main_slash	7	main_slash	71	stimuli_distractor_trianglediamonds.svg	stimuli_distractor_trianglediamonds.svg	33	no	0	1	2000	0	0			0	0			1				0	
6.6.1	win	2023-06-02	01:10:31	01:16:14	335475	5f6e36c7f042f033d0f97bc1	3	1	main_slash	7	advance_on_keypress_SLASH	72	stimuli_distractor_trianglediamonds.svg	stimuli_distractor_trianglediamonds.svg	33	no	57	0	473	0	0			0	0			1				0	
6.6.1	win	2023-06-02	01:10:31	01:16:17	338593	5f6e36c7f042f033d0f97bc1	3	1	main_slash	7	main_slash	73	stimuli_distractor_diamondtriangles.svg	stimuli_distractor_trianglediamonds.svg	37	no	0	1	2000	0	0			0	0			1				0	
6.6.1	win	2023-06-02	01:10:31	01:16:17	338593	5f6e36c7f042f033d0f97bc1	3	1	main_slash	7	advance_on_keypress_SLASH	74	stimuli_distractor_diamondtriangles.svg	stimuli_distractor_trianglediamonds.svg	37	no	57	0	507	0	0			0	0			1				0	
6.6.1	win	2023-06-02	01:10:31	01:16:19	340662	5f6e36c7f042f033d0f97bc1	3	1	main_slash	7	main_slash	75	stimuli_distractor_trianglediamonds.svg	stimuli_target_trianglerectangles.svg	25	yes	53	1	918	0	0			0	0			1				0	
6.6.1	win	2023-06-02	01:10:31	01:16:19	340662	5f6e36c7f042f033d0f97bc1	3	1	main_slash	7	advance_on_keypress_SLASH	76	stimuli_distractor_trianglediamonds.svg	stimuli_target_trianglerectangles.svg	25	yes	57	0	408	0	0			0	0			1				0	
6.6.1	win	2023-06-02	01:10:31	01:16:21	342534	5f6e36c7f042f033d0f97bc1	3	1	main_slash	7	main_slash	77	stimuli_target_diamondrectangles.svg	stimuli_distractor_diamondtriangles.svg	23	yes	53	1	822	0	0			0	0			1				0	
6.6.1	win	2023-06-02	01:10:31	01:16:21	342534	5f6e36c7f042f033d0f97bc1	3	1	main_slash	7	advance_on_keypress_SLASH	78	stimuli_target_diamondrectangles.svg	stimuli_distractor_diamondtriangles.svg	23	yes	57	0	381	0	0			0	0			1				0	
6.6.1	win	2023-06-02	01:10:31	01:16:23	344366	5f6e36c7f042f033d0f97bc1	3	1	main_slash	7	main_slash	79	stimuli_target_rectanglediamonds.svg	stimuli_distractor_trianglediamonds.svg	2	yes	53	1	820	0	0			0	0			1				0	
6.6.1	win	2023-06-02	01:10:31	01:16:23	344366	5f6e36c7f042f033d0f97bc1	3	1	main_slash	7	advance_on_keypress_SLASH	80	stimuli_target_rectanglediamonds.svg	stimuli_distractor_trianglediamonds.svg	2	yes	57	0	458	0	0			0	0			1				0	
6.6.1	win	2023-06-02	01:10:31	01:16:25	346334	5f6e36c7f042f033d0f97bc1	3	1	main_slash	7	main_slash	81	stimuli_target_squaretriangles.svg	stimuli_distractor_trianglediamonds.svg	3	yes	53	1	871	0	0			0	0			1				0	
6.6.1	win	2023-06-02	01:10:31	01:16:25	346334	5f6e36c7f042f033d0f97bc1	3	1	main_slash	7	advance_on_keypress_SLASH	82	stimuli_target_squaretriangles.svg	stimuli_distractor_trianglediamonds.svg	3	yes	57	0	459	0	0			0	0			1				0	
6.6.1	win	2023-06-02	01:10:31	01:16:27	348302	5f6e36c7f042f033d0f97bc1	3	1	main_slash	7	main_slash	83	stimuli_distractor_trianglediamonds.svg	stimuli_target_rectangletriangles.svg	9	yes	53	1	872	0	0			0	0			1				0	
6.6.1	win	2023-06-02	01:10:31	01:16:27	348302	5f6e36c7f042f033d0f97bc1	3	1	main_slash	7	advance_on_keypress_SLASH	84	stimuli_distractor_trianglediamonds.svg	stimuli_target_rectangletriangles.svg	9	yes	57	0	460	0	0			0	0			1				0	
6.6.1	win	2023-06-02	01:10:31	01:16:28	350254	5f6e36c7f042f033d0f97bc1	3	1	main_slash	7	main_slash	85	stimuli_target_diamondsquares.svg	stimuli_distractor_diamondtriangles.svg	24	yes	53	1	856	0	0			0	0			1				0	
6.6.1	win	2023-06-02	01:10:31	01:16:28	350254	5f6e36c7f042f033d0f97bc1	3	1	main_slash	7	advance_on_keypress_SLASH	86	stimuli_target_diamondsquares.svg	stimuli_distractor_diamondtriangles.svg	24	yes	57	0	621	0	0			0	0			1				0	
6.6.1	win	2023-06-02	01:10:31	01:16:31	352294	5f6e36c7f042f033d0f97bc1	3	1	main_slash	7	main_slash	87	stimuli_distractor_trianglediamonds.svg	stimuli_target_rectanglediamonds.svg	10	yes	53	1	779	0	0			0	0			1				0	
6.6.1	win	2023-06-02	01:10:31	01:16:31	352294	5f6e36c7f042f033d0f97bc1	3	1	main_slash	7	advance_on_keypress_SLASH	88	stimuli_distractor_trianglediamonds.svg	stimuli_target_rectanglediamonds.svg	10	yes	57	0	483	0	0			0	0			1				0	
6.6.1	win	2023-06-02	01:10:31	01:16:32	354206	5f6e36c7f042f033d0f97bc1	3	1	main_slash	7	main_slash	89	stimuli_distractor_diamondtriangles.svg	stimuli_target_rectanglediamonds.svg	14	yes	53	1	790	0	0			0	0			1				0	
6.6.1	win	2023-06-02	01:10:31	01:16:32	354206	5f6e36c7f042f033d0f97bc1	3	1	main_slash	7	advance_on_keypress_SLASH	90	stimuli_distractor_diamondtriangles.svg	stimuli_target_rectanglediamonds.svg	14	yes	57	0	493	0	0			0	0			1				0	
6.6.1	win	2023-06-02	01:10:31	01:16:34	356086	5f6e36c7f042f033d0f97bc1	3	1	main_slash	7	main_slash	91	stimuli_target_rectanglediamonds.svg	stimuli_distractor_diamondtriangles.svg	6	yes	53	1	753	0	0			0	0			1				0	
6.6.1	win	2023-06-02	01:10:31	01:16:34	356086	5f6e36c7f042f033d0f97bc1	3	1	main_slash	7	advance_on_keypress_SLASH	92	stimuli_target_rectanglediamonds.svg	stimuli_distractor_diamondtriangles.svg	6	yes	57	0	417	0	0			0	0			1				0	
6.6.1	win	2023-06-02	01:10:31	01:16:37	359151	5f6e36c7f042f033d0f97bc1	3	1	main_slash	7	main_slash	93	stimuli_distractor_diamondtriangles.svg	stimuli_distractor_trianglediamonds.svg	38	no	0	1	2000	0	0			0	0			1				0	
6.6.1	win	2023-06-02	01:10:31	01:16:37	359151	5f6e36c7f042f033d0f97bc1	3	1	main_slash	7	advance_on_keypress_SLASH	94	stimuli_distractor_diamondtriangles.svg	stimuli_distractor_trianglediamonds.svg	38	no	57	0	1150	0	0			0	0			1				0	
6.6.1	win	2023-06-02	01:10:31	01:16:40	361838	5f6e36c7f042f033d0f97bc1	3	1	main_slash	7	main_slash	95	stimuli_distractor_diamondtriangles.svg	stimuli_target_squarediamonds.svg	16	yes	53	1	886	0	0			0	0			1				0	
6.6.1	win	2023-06-02	01:10:31	01:16:40	361838	5f6e36c7f042f033d0f97bc1	3	1	main_slash	7	advance_on_keypress_SLASH	96	stimuli_distractor_diamondtriangles.svg	stimuli_target_squarediamonds.svg	16	yes	57	0	417	0	0			0	0			1				0	
6.6.1	win	2023-06-02	01:10:31	01:16:42	363734	5f6e36c7f042f033d0f97bc1	3	1	main_slash	7	main_slash	97	stimuli_target_trianglesquares.svg	stimuli_distractor_trianglediamonds.svg	18	yes	53	1	831	0	0			0	0			1				0	
6.6.1	win	2023-06-02	01:10:31	01:16:42	363734	5f6e36c7f042f033d0f97bc1	3	1	main_slash	7	advance_on_keypress_SLASH	98	stimuli_target_trianglesquares.svg	stimuli_distractor_trianglediamonds.svg	18	yes	57	0	405	0	0			0	0			1				0	
6.6.1	win	2023-06-02	01:10:31	01:16:45	366770	5f6e36c7f042f033d0f97bc1	3	1	main_slash	7	main_slash	99	stimuli_distractor_diamondtriangles.svg	stimuli_distractor_trianglediamonds.svg	37	no	0	1	2000	0	0			0	0			1				0	
6.6.1	win	2023-06-02	01:10:31	01:16:45	366770	5f6e36c7f042f033d0f97bc1	3	1	main_slash	7	advance_on_keypress_SLASH	100	stimuli_distractor_diamondtriangles.svg	stimuli_distractor_trianglediamonds.svg	37	no	57	0	410	0	0			0	0			1				0	
6.6.1	win	2023-06-02	01:10:31	01:16:47	368606	5f6e36c7f042f033d0f97bc1	3	1	main_slash	7	main_slash	101	stimuli_distractor_diamondtriangles.svg	stimuli_target_squaretriangles.svg	15	yes	53	1	784	0	0			0	0			1				0	
6.6.1	win	2023-06-02	01:10:31	01:16:47	368606	5f6e36c7f042f033d0f97bc1	3	1	main_slash	7	advance_on_keypress_SLASH	102	stimuli_distractor_diamondtriangles.svg	stimuli_target_squaretriangles.svg	15	yes	57	0	304	0	0			0	0			1				0	
6.6.1	win	2023-06-02	01:10:31	01:16:49	370286	5f6e36c7f042f033d0f97bc1	3	1	main_slash	7	main_slash	103	stimuli_distractor_diamondtriangles.svg	stimuli_target_rectangletriangles.svg	13	yes	53	1	730	0	0			0	0			1				0	
6.6.1	win	2023-06-02	01:10:31	01:16:49	370286	5f6e36c7f042f033d0f97bc1	3	1	main_slash	7	advance_on_keypress_SLASH	104	stimuli_distractor_diamondtriangles.svg	stimuli_target_rectangletriangles.svg	13	yes	57	0	333	0	0			0	0			1				0	
6.6.1	win	2023-06-02	01:10:31	01:16:50	371982	5f6e36c7f042f033d0f97bc1	3	1	main_slash	7	main_slash	105	stimuli_target_squaretriangles.svg	stimuli_distractor_diamondtriangles.svg	7	yes	53	1	726	0	0			0	0			1				0	
6.6.1	win	2023-06-02	01:10:31	01:16:50	371982	5f6e36c7f042f033d0f97bc1	3	1	main_slash	7	advance_on_keypress_SLASH	106	stimuli_target_squaretriangles.svg	stimuli_distractor_diamondtriangles.svg	7	yes	57	0	336	0	0			0	0			1				0	
6.6.1	win	2023-06-02	01:10:31	01:16:52	373734	5f6e36c7f042f033d0f97bc1	3	1	main_slash	7	main_slash	107	stimuli_target_rectanglediamonds.svg	stimuli_distractor_trianglediamonds.svg	2	yes	53	1	777	0	0			0	0			1				0	
6.6.1	win	2023-06-02	01:10:31	01:16:52	373734	5f6e36c7f042f033d0f97bc1	3	1	main_slash	7	advance_on_keypress_SLASH	108	stimuli_target_rectanglediamonds.svg	stimuli_distractor_trianglediamonds.svg	2	yes	57	0	433	0	0			0	0			1				0	
6.6.1	win	2023-06-02	01:10:31	01:16:55	376807	5f6e36c7f042f033d0f97bc1	3	1	main_slash	7	main_slash	109	stimuli_distractor_trianglediamonds.svg	stimuli_distractor_diamondtriangles.svg	36	no	0	1	2000	0	0			0	0			1				0	
6.6.1	win	2023-06-02	01:10:31	01:16:55	376807	5f6e36c7f042f033d0f97bc1	3	1	main_slash	7	advance_on_keypress_SLASH	110	stimuli_distractor_trianglediamonds.svg	stimuli_distractor_diamondtriangles.svg	36	no	57	0	509	0	0			0	0			1				0	
6.6.1	win	2023-06-02	01:10:31	01:16:57	378822	5f6e36c7f042f033d0f97bc1	3	1	main_slash	7	main_slash	111	stimuli_distractor_diamondtriangles.svg	stimuli_target_trianglerectangles.svg	29	yes	53	1	863	0	0			0	0			1				0	
6.6.1	win	2023-06-02	01:10:31	01:16:57	378822	5f6e36c7f042f033d0f97bc1	3	1	main_slash	7	advance_on_keypress_SLASH	112	stimuli_distractor_diamondtriangles.svg	stimuli_target_trianglerectangles.svg	29	yes	57	0	356	0	0			0	0			1				0	
6.6.1	win	2023-06-02	01:10:31	01:16:59	380622	5f6e36c7f042f033d0f97bc1	3	1	main_slash	7	main_slash	113	stimuli_target_rectangletriangles.svg	stimuli_distractor_diamondtriangles.svg	5	yes	53	1	813	0	0			0	0			1				0	
6.6.1	win	2023-06-02	01:10:31	01:16:59	380622	5f6e36c7f042f033d0f97bc1	3	1	main_slash	7	advance_on_keypress_SLASH	114	stimuli_target_rectangletriangles.svg	stimuli_distractor_diamondtriangles.svg	5	yes	57	0	331	0	0			0	0			1				0	
6.6.1	win	2023-06-02	01:10:31	01:17:01	382431	5f6e36c7f042f033d0f97bc1	3	1	main_slash	7	main_slash	115	stimuli_distractor_trianglediamonds.svg	stimuli_target_squarediamonds.svg	12	yes	53	1	853	0	0			0	0			1				0	
6.6.1	win	2023-06-02	01:10:31	01:17:01	382431	5f6e36c7f042f033d0f97bc1	3	1	main_slash	7	advance_on_keypress_SLASH	116	stimuli_distractor_trianglediamonds.svg	stimuli_target_squarediamonds.svg	12	yes	57	0	426	0	0			0	0			1				0	
6.6.1	win	2023-06-02	01:10:31	01:17:03	384342	5f6e36c7f042f033d0f97bc1	3	1	main_slash	7	main_slash	117	stimuli_target_squarediamonds.svg	stimuli_distractor_trianglediamonds.svg	4	yes	53	1	848	0	0			0	0			1				0	
6.6.1	win	2023-06-02	01:10:31	01:17:03	384342	5f6e36c7f042f033d0f97bc1	3	1	main_slash	7	advance_on_keypress_SLASH	118	stimuli_target_squarediamonds.svg	stimuli_distractor_trianglediamonds.svg	4	yes	57	0	357	0	0			0	0			1				0	
6.6.1	win	2023-06-02	01:10:31	01:17:06	387328	5f6e36c7f042f033d0f97bc1	3	1	main_slash	7	main_slash	119	stimuli_target_diamondsquares.svg	stimuli_distractor_trianglediamonds.svg	20	yes	0	0	2000	0	0			0	0			1				0	
6.6.1	win	2023-06-02	01:10:31	01:17:06	387328	5f6e36c7f042f033d0f97bc1	3	1	main_slash	7	advance_on_keypress_SLASH	120	stimuli_target_diamondsquares.svg	stimuli_distractor_trianglediamonds.svg	20	yes	57	0	948	0	0			0	0			1				0	
6.6.1	win	2023-06-02	01:10:31	01:17:09	390913	5f6e36c7f042f033d0f97bc1	3	1	main_slash	7	main_slash	121	stimuli_target_rectangletriangles.svg	stimuli_distractor_trianglediamonds.svg	1	yes	0	0	2000	0	0			0	0			1				0	
6.6.1	win	2023-06-02	01:10:31	01:17:09	390913	5f6e36c7f042f033d0f97bc1	3	1	main_slash	7	advance_on_keypress_SLASH	122	stimuli_target_rectangletriangles.svg	stimuli_distractor_trianglediamonds.svg	1	yes	57	0	1003	0	0			0	0			1				0	
6.6.1	win	2023-06-02	01:10:31	01:17:11	393238	5f6e36c7f042f033d0f97bc1	3	1	main_slash	7	main_slash	123	stimuli_distractor_trianglediamonds.svg	stimuli_target_squaretriangles.svg	11	yes	53	1	674	0	0			0	0			1				0	
6.6.1	win	2023-06-02	01:10:31	01:17:11	393238	5f6e36c7f042f033d0f97bc1	3	1	main_slash	7	advance_on_keypress_SLASH	124	stimuli_distractor_trianglediamonds.svg	stimuli_target_squaretriangles.svg	11	yes	57	0	406	0	0			0	0			1				0	
6.6.1	win	2023-06-02	01:10:31	01:17:15	396282	5f6e36c7f042f033d0f97bc1	3	1	main_slash	7	main_slash	125	stimuli_distractor_trianglediamonds.svg	stimuli_target_diamondsquares.svg	28	yes	0	0	2000	0	0			0	0			1				0	
6.6.1	win	2023-06-02	01:10:31	01:17:15	396282	5f6e36c7f042f033d0f97bc1	3	1	main_slash	7	advance_on_keypress_SLASH	126	stimuli_distractor_trianglediamonds.svg	stimuli_target_diamondsquares.svg	28	yes	57	0	363	0	0			0	0			1				0	
6.6.1	win	2023-06-02	01:10:31	01:17:18	399283	5f6e36c7f042f033d0f97bc1	3	1	main_slash	7	main_slash	127	stimuli_distractor_trianglediamonds.svg	stimuli_distractor_trianglediamonds.svg	33	no	0	1	2000	0	0			0	0			1				0	
6.6.1	win	2023-06-02	01:10:31	01:17:18	399283	5f6e36c7f042f033d0f97bc1	3	1	main_slash	7	advance_on_keypress_SLASH	128	stimuli_distractor_trianglediamonds.svg	stimuli_distractor_trianglediamonds.svg	33	no	57	0	346	0	0			0	0			1				0	
6.6.1	win	2023-06-02	01:10:31	01:17:19	401110	5f6e36c7f042f033d0f97bc1	3	1	main_slash	7	main_slash	129	stimuli_target_diamondrectangles.svg	stimuli_distractor_diamondtriangles.svg	23	yes	53	1	843	0	0			0	0			1				0	
6.6.1	win	2023-06-02	01:10:31	01:17:19	401110	5f6e36c7f042f033d0f97bc1	3	1	main_slash	7	advance_on_keypress_SLASH	130	stimuli_target_diamondrectangles.svg	stimuli_distractor_diamondtriangles.svg	23	yes	57	0	472	0	0			0	0			1				0	
6.6.1	win	2023-06-02	01:10:31	01:17:21	403030	5f6e36c7f042f033d0f97bc1	3	1	main_slash	7	main_slash	131	stimuli_target_squarediamonds.svg	stimuli_distractor_diamondtriangles.svg	8	yes	53	1	812	0	0			0	0			1				0	
6.6.1	win	2023-06-02	01:10:31	01:17:21	403030	5f6e36c7f042f033d0f97bc1	3	1	main_slash	7	advance_on_keypress_SLASH	132	stimuli_target_squarediamonds.svg	stimuli_distractor_diamondtriangles.svg	8	yes	57	0	403	0	0			0	0			1				0	
6.6.1	win	2023-06-02	01:10:31	01:17:24	406069	5f6e36c7f042f033d0f97bc1	3	1	main_slash	7	main_slash	133	stimuli_distractor_diamondtriangles.svg	stimuli_distractor_diamondtriangles.svg	39	no	0	1	2000	0	0			0	0			1				0	
6.6.1	win	2023-06-02	01:10:31	01:17:24	406069	5f6e36c7f042f033d0f97bc1	3	1	main_slash	7	advance_on_keypress_SLASH	134	stimuli_distractor_diamondtriangles.svg	stimuli_distractor_diamondtriangles.svg	39	no	57	0	456	0	0			0	0			1				0	
6.6.1	win	2023-06-02	01:10:31	01:17:26	408086	5f6e36c7f042f033d0f97bc1	3	1	main_slash	7	main_slash	135	stimuli_distractor_trianglediamonds.svg	stimuli_target_diamondrectangles.svg	27	yes	53	1	916	0	0			0	0			1				0	
6.6.1	win	2023-06-02	01:10:31	01:17:26	408086	5f6e36c7f042f033d0f97bc1	3	1	main_slash	7	advance_on_keypress_SLASH	136	stimuli_distractor_trianglediamonds.svg	stimuli_target_diamondrectangles.svg	27	yes	57	0	558	0	0			0	0			1				0	
6.6.1	win	2023-06-02	01:10:31	01:17:30	411287	5f6e36c7f042f033d0f97bc1	3	1	main_slash	7	main_slash	137	stimuli_distractor_trianglediamonds.svg	stimuli_distractor_trianglediamonds.svg	34	no	0	1	2000	0	0			0	0			1				0	
6.6.1	win	2023-06-02	01:10:31	01:17:30	411287	5f6e36c7f042f033d0f97bc1	3	1	main_slash	7	advance_on_keypress_SLASH	138	stimuli_distractor_trianglediamonds.svg	stimuli_distractor_trianglediamonds.svg	34	no	57	0	349	0	0			0	0			1				0	
6.6.1	win	2023-06-02	01:10:31	01:17:31	413078	5f6e36c7f042f033d0f97bc1	3	1	main_slash	7	main_slash	139	stimuli_distractor_diamondtriangles.svg	stimuli_target_diamondrectangles.svg	31	yes	53	1	790	0	0			0	0			1				0	
6.6.1	win	2023-06-02	01:10:31	01:17:31	413078	5f6e36c7f042f033d0f97bc1	3	1	main_slash	7	advance_on_keypress_SLASH	140	stimuli_distractor_diamondtriangles.svg	stimuli_target_diamondrectangles.svg	31	yes	57	0	461	0	0			0	0			1				0	
6.6.1	win	2023-06-02	01:10:31	01:17:33	414966	5f6e36c7f042f033d0f97bc1	3	1	main_slash	7	main_slash	141	stimuli_distractor_diamondtriangles.svg	stimuli_target_diamondsquares.svg	32	yes	53	1	794	0	0			0	0			1				0	
6.6.1	win	2023-06-02	01:10:31	01:17:33	414966	5f6e36c7f042f033d0f97bc1	3	1	main_slash	7	advance_on_keypress_SLASH	142	stimuli_distractor_diamondtriangles.svg	stimuli_target_diamondsquares.svg	32	yes	57	0	489	0	0			0	0			1				0	
6.6.1	win	2023-06-02	01:10:31	01:17:36	418090	5f6e36c7f042f033d0f97bc1	3	1	main_slash	7	main_slash	143	stimuli_distractor_trianglediamonds.svg	stimuli_distractor_diamondtriangles.svg	35	no	0	1	2000	0	0			0	0			1				0	
6.6.1	win	2023-06-02	01:10:31	01:17:36	418090	5f6e36c7f042f033d0f97bc1	3	1	main_slash	7	advance_on_keypress_SLASH	144	stimuli_distractor_trianglediamonds.svg	stimuli_distractor_diamondtriangles.svg	35	no	57	0	363	0	0			0	0			1				0	
6.6.1	win	2023-06-02	01:10:31	01:17:38	419943	5f6e36c7f042f033d0f97bc1	3	1	main_slash	7	main_slash	145	stimuli_distractor_diamondtriangles.svg	stimuli_target_trianglesquares.svg	30	yes	53	1	851	0	0			0	0			1				0	
6.6.1	win	2023-06-02	01:10:31	01:17:38	419943	5f6e36c7f042f033d0f97bc1	3	1	main_slash	7	advance_on_keypress_SLASH	146	stimuli_distractor_diamondtriangles.svg	stimuli_target_trianglesquares.svg	30	yes	57	0	456	0	0			0	0			1				0	
6.6.1	win	2023-06-02	01:10:31	01:17:40	421830	5f6e36c7f042f033d0f97bc1	3	1	main_slash	7	main_slash	147	stimuli_distractor_trianglediamonds.svg	stimuli_target_trianglesquares.svg	26	yes	53	1	788	0	0			0	0			1				0	
6.6.1	win	2023-06-02	01:10:31	01:17:40	421830	5f6e36c7f042f033d0f97bc1	3	1	main_slash	7	advance_on_keypress_SLASH	148	stimuli_distractor_trianglediamonds.svg	stimuli_target_trianglesquares.svg	26	yes	57	0	356	0	0			0	0			1				0	
6.6.1	win	2023-06-02	01:10:31	01:17:42	424014	5f6e36c7f042f033d0f97bc1	3	1	main_slash	7	main_slash	149	stimuli_target_diamondrectangles.svg	stimuli_distractor_trianglediamonds.svg	19	yes	53	1	1188	0	0			0	0			1				0	
6.6.1	win	2023-06-02	01:10:31	01:17:42	424014	5f6e36c7f042f033d0f97bc1	3	1	main_slash	7	advance_on_keypress_SLASH	150	stimuli_target_diamondrectangles.svg	stimuli_distractor_trianglediamonds.svg	19	yes	57	0	596	0	0			0	0			1				0	
6.6.1	win	2023-06-02	01:10:31	01:17:44	426014	5f6e36c7f042f033d0f97bc1	3	1	main_slash	7	main_slash	151	stimuli_distractor_trianglediamonds.svg	stimuli_target_trianglerectangles.svg	25	yes	53	1	771	0	0			0	0			1				0	
6.6.1	win	2023-06-02	01:10:31	01:17:44	426014	5f6e36c7f042f033d0f97bc1	3	1	main_slash	7	advance_on_keypress_SLASH	152	stimuli_distractor_trianglediamonds.svg	stimuli_target_trianglerectangles.svg	25	yes	57	0	435	0	0			0	0			1				0	
6.6.1	win	2023-06-02	01:10:31	01:17:47	429094	5f6e36c7f042f033d0f97bc1	3	1	main_slash	7	main_slash	153	stimuli_distractor_diamondtriangles.svg	stimuli_distractor_diamondtriangles.svg	40	no	0	1	2000	0	0			0	0			1				0	
6.6.1	win	2023-06-02	01:10:31	01:17:47	429094	5f6e36c7f042f033d0f97bc1	3	1	main_slash	7	advance_on_keypress_SLASH	154	stimuli_distractor_diamondtriangles.svg	stimuli_distractor_diamondtriangles.svg	40	no	57	0	326	0	0			0	0			1				0	
6.6.1	win	2023-06-02	01:10:31	01:17:49	430806	5f6e36c7f042f033d0f97bc1	3	1	main_slash	7	main_slash	155	stimuli_target_trianglerectangles.svg	stimuli_distractor_diamondtriangles.svg	21	yes	53	1	744	0	0			0	0			1				0	
6.6.1	win	2023-06-02	01:10:31	01:17:49	430806	5f6e36c7f042f033d0f97bc1	3	1	main_slash	7	advance_on_keypress_SLASH	156	stimuli_target_trianglerectangles.svg	stimuli_distractor_diamondtriangles.svg	21	yes	57	0	402	0	0			0	0			1				0	
6.6.1	win	2023-06-02	01:10:31	01:17:51	432774	5f6e36c7f042f033d0f97bc1	3	1	main_slash	7	main_slash	157	stimuli_target_trianglerectangles.svg	stimuli_distractor_trianglediamonds.svg	17	yes	53	1	928	0	0			0	0			1				0	
6.6.1	win	2023-06-02	01:10:31	01:17:51	432774	5f6e36c7f042f033d0f97bc1	3	1	main_slash	7	advance_on_keypress_SLASH	158	stimuli_target_trianglerectangles.svg	stimuli_distractor_trianglediamonds.svg	17	yes	57	0	450	0	0			0	0			1				0	
6.6.1	win	2023-06-02	01:10:31	01:17:53	434750	5f6e36c7f042f033d0f97bc1	3	1	main_slash	7	main_slash	159	stimuli_target_trianglesquares.svg	stimuli_distractor_diamondtriangles.svg	22	yes	53	1	887	0	0			0	0			1				0	
6.6.1	win	2023-06-02	01:10:31	01:17:53	434750	5f6e36c7f042f033d0f97bc1	3	1	main_slash	7	advance_on_keypress_SLASH	160	stimuli_target_trianglesquares.svg	stimuli_distractor_diamondtriangles.svg	22	yes	57	0	450	0	0			0	0			1				0	
6.6.1	win	2023-06-02	01:10:31	01:18:21	462440	5f6e36c7f042f033d0f97bc1	3	1	practice_z	9	practice_z	1	stimuli_distractor_trianglediamonds.svg	stimuli_distractor_trianglediamonds.svg	15	no	0	1	2000	0	0			0	0			1				0	
6.6.1	win	2023-06-02	01:10:31	01:18:21	462440	5f6e36c7f042f033d0f97bc1	3	1	practice_z	9	advance_on_keypress_ZEE	2	stimuli_distractor_trianglediamonds.svg	stimuli_distractor_trianglediamonds.svg	15	no	57	0	444	0	0			0	0			1				0	
6.6.1	win	2023-06-02	01:10:31	01:18:23	465150	5f6e36c7f042f033d0f97bc1	3	1	practice_z	9	practice_z	3	stimuli_target_diamondsquares.svg	stimuli_distractor_trianglediamonds.svg	6	yes	44	1	626	0	0			0	0			1				0	
6.6.1	win	2023-06-02	01:10:31	01:18:23	465150	5f6e36c7f042f033d0f97bc1	3	1	practice_z	9	advance_on_keypress_ZEE	4	stimuli_target_diamondsquares.svg	stimuli_distractor_trianglediamonds.svg	6	yes	57	0	439	0	0			0	0			1				0	
6.6.1	win	2023-06-02	01:10:31	01:18:26	467879	5f6e36c7f042f033d0f97bc1	3	1	practice_z	9	practice_z	5	stimuli_distractor_trianglediamonds.svg	stimuli_target_diamondrectangles.svg	12	yes	44	1	652	0	0			0	0			1				0	
6.6.1	win	2023-06-02	01:10:31	01:18:26	467879	5f6e36c7f042f033d0f97bc1	3	1	practice_z	9	advance_on_keypress_ZEE	6	stimuli_distractor_trianglediamonds.svg	stimuli_target_diamondrectangles.svg	12	yes	57	0	449	0	0			0	0			1				0	
6.6.1	win	2023-06-02	01:10:31	01:18:30	471977	5f6e36c7f042f033d0f97bc1	3	1	practice_z	9	practice_z	7	stimuli_distractor_diamondtriangles.svg	stimuli_distractor_diamondtriangles.svg	13	no	0	1	2000	0	0			0	0			1				0	
6.6.1	win	2023-06-02	01:10:31	01:18:30	471977	5f6e36c7f042f033d0f97bc1	3	1	practice_z	9	advance_on_keypress_ZEE	8	stimuli_distractor_diamondtriangles.svg	stimuli_distractor_diamondtriangles.svg	13	no	57	0	267	0	0			0	0			1				0	
6.6.1	win	2023-06-02	01:10:31	01:18:34	475895	5f6e36c7f042f033d0f97bc1	3	1	practice_z	9	practice_z	9	stimuli_distractor_trianglediamonds.svg	stimuli_distractor_diamondtriangles.svg	16	no	0	1	2000	0	0			0	0			1				0	
6.6.1	win	2023-06-02	01:10:31	01:18:34	475895	5f6e36c7f042f033d0f97bc1	3	1	practice_z	9	advance_on_keypress_ZEE	10	stimuli_distractor_trianglediamonds.svg	stimuli_distractor_diamondtriangles.svg	16	no	57	0	317	0	0			0	0			1				0	
6.6.1	win	2023-06-02	01:10:31	01:18:38	479863	5f6e36c7f042f033d0f97bc1	3	1	practice_z	9	practice_z	11	stimuli_distractor_diamondtriangles.svg	stimuli_distractor_trianglediamonds.svg	14	no	0	1	2000	0	0			0	0			1				0	
6.6.1	win	2023-06-02	01:10:31	01:18:38	479863	5f6e36c7f042f033d0f97bc1	3	1	practice_z	9	advance_on_keypress_ZEE	12	stimuli_distractor_diamondtriangles.svg	stimuli_distractor_trianglediamonds.svg	14	no	57	0	389	0	0			0	0			1				0	
6.6.1	win	2023-06-02	01:10:31	01:18:41	482670	5f6e36c7f042f033d0f97bc1	3	1	practice_z	9	practice_z	13	stimuli_target_rectanglediamonds.svg	stimuli_distractor_trianglediamonds.svg	4	yes	44	1	772	0	0			0	0			1				0	
6.6.1	win	2023-06-02	01:10:31	01:18:41	482670	5f6e36c7f042f033d0f97bc1	3	1	practice_z	9	advance_on_keypress_ZEE	14	stimuli_target_rectanglediamonds.svg	stimuli_distractor_trianglediamonds.svg	4	yes	57	0	396	0	0			0	0			1				0	
6.6.1	win	2023-06-02	01:10:31	01:18:44	485742	5f6e36c7f042f033d0f97bc1	3	1	practice_z	9	practice_z	15	stimuli_distractor_diamondtriangles.svg	stimuli_target_rectangletriangles.svg	7	yes	44	1	1043	0	0			0	0			1				0	
6.6.1	win	2023-06-02	01:10:31	01:18:44	485742	5f6e36c7f042f033d0f97bc1	3	1	practice_z	9	advance_on_keypress_ZEE	16	stimuli_distractor_diamondtriangles.svg	stimuli_target_rectangletriangles.svg	7	yes	57	0	384	0	0			0	0			1				0	
6.6.1	win	2023-06-02	01:10:31	01:18:47	488535	5f6e36c7f042f033d0f97bc1	3	1	practice_z	9	practice_z	17	stimuli_distractor_trianglediamonds.svg	stimuli_target_rectanglediamonds.svg	10	yes	44	1	767	0	0			0	0			1				0	
6.6.1	win	2023-06-02	01:10:31	01:18:47	488535	5f6e36c7f042f033d0f97bc1	3	1	practice_z	9	advance_on_keypress_ZEE	18	stimuli_distractor_trianglediamonds.svg	stimuli_target_rectanglediamonds.svg	10	yes	57	0	375	0	0			0	0			1				0	
6.6.1	win	2023-06-02	01:10:31	01:18:50	491366	5f6e36c7f042f033d0f97bc1	3	1	practice_z	9	practice_z	19	stimuli_target_diamondsquares.svg	stimuli_distractor_diamondtriangles.svg	3	yes	44	1	815	0	0			0	0			1				0	
6.6.1	win	2023-06-02	01:10:31	01:18:50	491366	5f6e36c7f042f033d0f97bc1	3	1	practice_z	9	advance_on_keypress_ZEE	20	stimuli_target_diamondsquares.svg	stimuli_distractor_diamondtriangles.svg	3	yes	57	0	397	0	0			0	0			1				0	
6.6.1	win	2023-06-02	01:10:31	01:18:52	494031	5f6e36c7f042f033d0f97bc1	3	1	practice_z	9	practice_z	21	stimuli_target_squarediamonds.svg	stimuli_distractor_diamondtriangles.svg	2	yes	44	1	645	0	0			0	0			1				0	
6.6.1	win	2023-06-02	01:10:31	01:18:52	494031	5f6e36c7f042f033d0f97bc1	3	1	practice_z	9	advance_on_keypress_ZEE	22	stimuli_target_squarediamonds.svg	stimuli_distractor_diamondtriangles.svg	2	yes	57	0	442	0	0			0	0			1				0	
6.6.1	win	2023-06-02	01:10:31	01:18:55	496734	5f6e36c7f042f033d0f97bc1	3	1	practice_z	9	practice_z	23	stimuli_target_rectanglediamonds.svg	stimuli_distractor_diamondtriangles.svg	1	yes	44	1	631	0	0			0	0			1				0	
6.6.1	win	2023-06-02	01:10:31	01:18:55	496734	5f6e36c7f042f033d0f97bc1	3	1	practice_z	9	advance_on_keypress_ZEE	24	stimuli_target_rectanglediamonds.svg	stimuli_distractor_diamondtriangles.svg	1	yes	57	0	437	0	0			0	0			1				0	
6.6.1	win	2023-06-02	01:10:31	01:18:58	499598	5f6e36c7f042f033d0f97bc1	3	1	practice_z	9	practice_z	25	stimuli_distractor_diamondtriangles.svg	stimuli_target_trianglerectangles.svg	9	yes	44	1	794	0	0			0	0			1				0	
6.6.1	win	2023-06-02	01:10:31	01:18:58	499598	5f6e36c7f042f033d0f97bc1	3	1	practice_z	9	advance_on_keypress_ZEE	26	stimuli_distractor_diamondtriangles.svg	stimuli_target_trianglerectangles.svg	9	yes	57	0	401	0	0			0	0			1				0	
6.6.1	win	2023-06-02	01:10:31	01:19:01	502398	5f6e36c7f042f033d0f97bc1	3	1	practice_z	9	practice_z	27	stimuli_distractor_trianglediamonds.svg	stimuli_target_squarediamonds.svg	11	yes	44	1	759	0	0			0	0			1				0	
6.6.1	win	2023-06-02	01:10:31	01:19:01	502398	5f6e36c7f042f033d0f97bc1	3	1	practice_z	9	advance_on_keypress_ZEE	28	stimuli_distractor_trianglediamonds.svg	stimuli_target_squarediamonds.svg	11	yes	57	0	432	0	0			0	0			1				0	
6.6.1	win	2023-06-02	01:10:31	01:19:03	505230	5f6e36c7f042f033d0f97bc1	3	1	practice_z	9	practice_z	29	stimuli_distractor_diamondtriangles.svg	stimuli_target_diamondrectangles.svg	8	yes	44	1	757	0	0			0	0			1				0	
6.6.1	win	2023-06-02	01:10:31	01:19:03	505230	5f6e36c7f042f033d0f97bc1	3	1	practice_z	9	advance_on_keypress_ZEE	30	stimuli_distractor_diamondtriangles.svg	stimuli_target_diamondrectangles.svg	8	yes	57	0	477	0	0			0	0			1				0	
6.6.1	win	2023-06-02	01:10:31	01:19:06	508118	5f6e36c7f042f033d0f97bc1	3	1	practice_z	9	practice_z	31	stimuli_target_squarediamonds.svg	stimuli_distractor_trianglediamonds.svg	5	yes	44	1	777	0	0			0	0			1				0	
6.6.1	win	2023-06-02	01:10:31	01:19:06	508118	5f6e36c7f042f033d0f97bc1	3	1	practice_z	9	advance_on_keypress_ZEE	32	stimuli_target_squarediamonds.svg	stimuli_distractor_trianglediamonds.svg	5	yes	57	0	905	0	0			0	0			1				0	
6.6.1	win	2023-06-02	01:10:31	01:19:11	512630	5f6e36c7f042f033d0f97bc1	3	1	main_z	11	main_z	1	stimuli_target_rectangletriangles.svg	stimuli_distractor_diamondtriangles.svg	5	yes	44	1	687	0	0			0	0			1				0	
6.6.1	win	2023-06-02	01:10:31	01:19:11	512630	5f6e36c7f042f033d0f97bc1	3	1	main_z	11	advance_on_keypress_ZEE	2	stimuli_target_rectangletriangles.svg	stimuli_distractor_diamondtriangles.svg	5	yes	57	0	731	0	0			0	0			1				0	
6.6.1	win	2023-06-02	01:10:31	01:19:13	514638	5f6e36c7f042f033d0f97bc1	3	1	main_z	11	main_z	3	stimuli_target_rectangletriangles.svg	stimuli_distractor_trianglediamonds.svg	1	yes	44	1	644	0	0			0	0			1				0	
6.6.1	win	2023-06-02	01:10:31	01:19:13	514638	5f6e36c7f042f033d0f97bc1	3	1	main_z	11	advance_on_keypress_ZEE	4	stimuli_target_rectangletriangles.svg	stimuli_distractor_trianglediamonds.svg	1	yes	57	0	626	0	0			0	0			1				0	
6.6.1	win	2023-06-02	01:10:31	01:19:15	516686	5f6e36c7f042f033d0f97bc1	3	1	main_z	11	main_z	5	stimuli_distractor_diamondtriangles.svg	stimuli_target_trianglerectangles.svg	29	yes	44	1	792	0	0			0	0			1				0	
6.6.1	win	2023-06-02	01:10:31	01:19:15	516686	5f6e36c7f042f033d0f97bc1	3	1	main_z	11	advance_on_keypress_ZEE	6	stimuli_distractor_diamondtriangles.svg	stimuli_target_trianglerectangles.svg	29	yes	57	0	767	0	0			0	0			1				0	
6.6.1	win	2023-06-02	01:10:31	01:19:17	519078	5f6e36c7f042f033d0f97bc1	3	1	main_z	11	main_z	7	stimuli_target_squarediamonds.svg	stimuli_distractor_diamondtriangles.svg	8	yes	44	1	983	0	0			0	0			1				0	
6.6.1	win	2023-06-02	01:10:31	01:19:17	519078	5f6e36c7f042f033d0f97bc1	3	1	main_z	11	advance_on_keypress_ZEE	8	stimuli_target_squarediamonds.svg	stimuli_distractor_diamondtriangles.svg	8	yes	57	0	614	0	0			0	0			1				0	
6.6.1	win	2023-06-02	01:10:31	01:19:19	521190	5f6e36c7f042f033d0f97bc1	3	1	main_z	11	main_z	9	stimuli_distractor_trianglediamonds.svg	stimuli_target_diamondsquares.svg	28	yes	44	1	861	0	0			0	0			1				0	
6.6.1	win	2023-06-02	01:10:31	01:19:19	521190	5f6e36c7f042f033d0f97bc1	3	1	main_z	11	advance_on_keypress_ZEE	10	stimuli_distractor_trianglediamonds.svg	stimuli_target_diamondsquares.svg	28	yes	57	0	665	0	0			0	0			1				0	
6.6.1	win	2023-06-02	01:10:31	01:19:23	524497	5f6e36c7f042f033d0f97bc1	3	1	main_z	11	main_z	11	stimuli_distractor_diamondtriangles.svg	stimuli_distractor_trianglediamonds.svg	37	no	0	1	2000	0	0			0	0			1				0	
6.6.1	win	2023-06-02	01:10:31	01:19:23	524497	5f6e36c7f042f033d0f97bc1	3	1	main_z	11	advance_on_keypress_ZEE	12	stimuli_distractor_diamondtriangles.svg	stimuli_distractor_trianglediamonds.svg	37	no	57	0	595	0	0			0	0			1				0	
6.6.1	win	2023-06-02	01:10:31	01:19:25	526334	5f6e36c7f042f033d0f97bc1	3	1	main_z	11	main_z	13	stimuli_distractor_diamondtriangles.svg	stimuli_target_trianglesquares.svg	30	yes	44	1	603	0	0			0	0			1				0	
6.6.1	win	2023-06-02	01:10:31	01:19:25	526334	5f6e36c7f042f033d0f97bc1	3	1	main_z	11	advance_on_keypress_ZEE	14	stimuli_distractor_diamondtriangles.svg	stimuli_target_trianglesquares.svg	30	yes	57	0	457	0	0			0	0			1				0	
6.6.1	win	2023-06-02	01:10:31	01:19:28	529432	5f6e36c7f042f033d0f97bc1	3	1	main_z	11	main_z	15	stimuli_distractor_diamondtriangles.svg	stimuli_distractor_trianglediamonds.svg	38	no	0	1	2000	0	0			0	0			1				0	
6.6.1	win	2023-06-02	01:10:31	01:19:28	529432	5f6e36c7f042f033d0f97bc1	3	1	main_z	11	advance_on_keypress_ZEE	16	stimuli_distractor_diamondtriangles.svg	stimuli_distractor_trianglediamonds.svg	38	no	57	0	420	0	0			0	0			1				0	
6.6.1	win	2023-06-02	01:10:31	01:19:29	531142	5f6e36c7f042f033d0f97bc1	3	1	main_z	11	main_z	17	stimuli_target_trianglesquares.svg	stimuli_distractor_trianglediamonds.svg	18	yes	44	1	642	0	0			0	0			1				0	
6.6.1	win	2023-06-02	01:10:31	01:19:29	531142	5f6e36c7f042f033d0f97bc1	3	1	main_z	11	advance_on_keypress_ZEE	18	stimuli_target_trianglesquares.svg	stimuli_distractor_trianglediamonds.svg	18	yes	57	0	448	0	0			0	0			1				0	
6.6.1	win	2023-06-02	01:10:31	01:19:31	533038	5f6e36c7f042f033d0f97bc1	3	1	main_z	11	main_z	19	stimuli_distractor_trianglediamonds.svg	stimuli_target_squarediamonds.svg	12	yes	44	1	821	0	0			0	0			1				0	
6.6.1	win	2023-06-02	01:10:31	01:19:31	533038	5f6e36c7f042f033d0f97bc1	3	1	main_z	11	advance_on_keypress_ZEE	20	stimuli_distractor_trianglediamonds.svg	stimuli_target_squarediamonds.svg	12	yes	57	0	683	0	0			0	0			1				0	
6.6.1	win	2023-06-02	01:10:31	01:19:34	535534	5f6e36c7f042f033d0f97bc1	3	1	main_z	11	main_z	21	stimuli_distractor_diamondtriangles.svg	stimuli_target_rectanglediamonds.svg	14	yes	44	1	1166	0	0			0	0			1				0	
6.6.1	win	2023-06-02	01:10:31	01:19:34	535534	5f6e36c7f042f033d0f97bc1	3	1	main_z	11	advance_on_keypress_ZEE	22	stimuli_distractor_diamondtriangles.svg	stimuli_target_rectanglediamonds.svg	14	yes	57	0	686	0	0			0	0			1				0	
6.6.1	win	2023-06-02	01:10:31	01:19:37	538869	5f6e36c7f042f033d0f97bc1	3	1	main_z	11	main_z	23	stimuli_distractor_trianglediamonds.svg	stimuli_distractor_trianglediamonds.svg	33	no	0	1	2000	0	0			0	0			1				0	
6.6.1	win	2023-06-02	01:10:31	01:19:37	538869	5f6e36c7f042f033d0f97bc1	3	1	main_z	11	advance_on_keypress_ZEE	24	stimuli_distractor_trianglediamonds.svg	stimuli_distractor_trianglediamonds.svg	33	no	57	0	351	0	0			0	0			1				0	
6.6.1	win	2023-06-02	01:10:31	01:19:39	540814	5f6e36c7f042f033d0f97bc1	3	1	main_z	11	main_z	25	stimuli_target_trianglesquares.svg	stimuli_distractor_diamondtriangles.svg	22	yes	44	1	944	0	0			0	0			1				0	
6.6.1	win	2023-06-02	01:10:31	01:19:39	540814	5f6e36c7f042f033d0f97bc1	3	1	main_z	11	advance_on_keypress_ZEE	26	stimuli_target_trianglesquares.svg	stimuli_distractor_diamondtriangles.svg	22	yes	57	0	401	0	0			0	0			1				0	
6.6.1	win	2023-06-02	01:10:31	01:19:41	542526	5f6e36c7f042f033d0f97bc1	3	1	main_z	11	main_z	27	stimuli_target_squaretriangles.svg	stimuli_distractor_trianglediamonds.svg	3	yes	44	1	672	0	0			0	0			1				0	
6.6.1	win	2023-06-02	01:10:31	01:19:41	542526	5f6e36c7f042f033d0f97bc1	3	1	main_z	11	advance_on_keypress_ZEE	28	stimuli_target_squaretriangles.svg	stimuli_distractor_trianglediamonds.svg	3	yes	57	0	468	0	0			0	0			1				0	
6.6.1	win	2023-06-02	01:10:31	01:19:43	544407	5f6e36c7f042f033d0f97bc1	3	1	main_z	11	main_z	29	stimuli_distractor_diamondtriangles.svg	stimuli_target_diamondsquares.svg	32	yes	44	1	768	0	0			0	0			1				0	
6.6.1	win	2023-06-02	01:10:31	01:19:43	544407	5f6e36c7f042f033d0f97bc1	3	1	main_z	11	advance_on_keypress_ZEE	30	stimuli_distractor_diamondtriangles.svg	stimuli_target_diamondsquares.svg	32	yes	57	0	496	0	0			0	0			1				0	
6.6.1	win	2023-06-02	01:10:31	01:19:45	546422	5f6e36c7f042f033d0f97bc1	3	1	main_z	11	main_z	31	stimuli_distractor_diamondtriangles.svg	stimuli_target_diamondrectangles.svg	31	yes	44	1	883	0	0			0	0			1				0	
6.6.1	win	2023-06-02	01:10:31	01:19:45	546422	5f6e36c7f042f033d0f97bc1	3	1	main_z	11	advance_on_keypress_ZEE	32	stimuli_distractor_diamondtriangles.svg	stimuli_target_diamondrectangles.svg	31	yes	57	0	382	0	0			0	0			1				0	
6.6.1	win	2023-06-02	01:10:31	01:19:46	548246	5f6e36c7f042f033d0f97bc1	3	1	main_z	11	main_z	33	stimuli_target_trianglerectangles.svg	stimuli_distractor_diamondtriangles.svg	21	yes	44	1	790	0	0			0	0			1				0	
6.6.1	win	2023-06-02	01:10:31	01:19:46	548246	5f6e36c7f042f033d0f97bc1	3	1	main_z	11	advance_on_keypress_ZEE	34	stimuli_target_trianglerectangles.svg	stimuli_distractor_diamondtriangles.svg	21	yes	57	0	437	0	0			0	0			1				0	
6.6.1	win	2023-06-02	01:10:31	01:19:48	550190	5f6e36c7f042f033d0f97bc1	3	1	main_z	11	main_z	35	stimuli_distractor_diamondtriangles.svg	stimuli_target_squaretriangles.svg	15	yes	44	1	866	0	0			0	0			1				0	
6.6.1	win	2023-06-02	01:10:31	01:19:48	550190	5f6e36c7f042f033d0f97bc1	3	1	main_z	11	advance_on_keypress_ZEE	36	stimuli_distractor_diamondtriangles.svg	stimuli_target_squaretriangles.svg	15	yes	57	0	526	0	0			0	0			1				0	
6.6.1	win	2023-06-02	01:10:31	01:19:51	552274	5f6e36c7f042f033d0f97bc1	3	1	main_z	11	main_z	37	stimuli_distractor_trianglediamonds.svg	stimuli_target_diamondrectangles.svg	27	yes	44	1	912	0	0			0	0			1				0	
6.6.1	win	2023-06-02	01:10:31	01:19:51	552274	5f6e36c7f042f033d0f97bc1	3	1	main_z	11	advance_on_keypress_ZEE	38	stimuli_distractor_trianglediamonds.svg	stimuli_target_diamondrectangles.svg	27	yes	57	0	554	0	0			0	0			1				0	
6.6.1	win	2023-06-02	01:10:31	01:19:52	554262	5f6e36c7f042f033d0f97bc1	3	1	main_z	11	main_z	39	stimuli_target_rectanglediamonds.svg	stimuli_distractor_diamondtriangles.svg	6	yes	44	1	787	0	0			0	0			1				0	
6.6.1	win	2023-06-02	01:10:31	01:19:52	554262	5f6e36c7f042f033d0f97bc1	3	1	main_z	11	advance_on_keypress_ZEE	40	stimuli_target_rectanglediamonds.svg	stimuli_distractor_diamondtriangles.svg	6	yes	57	0	562	0	0			0	0			1				0	
6.6.1	win	2023-06-02	01:10:31	01:19:55	556270	5f6e36c7f042f033d0f97bc1	3	1	main_z	11	main_z	41	stimuli_target_trianglerectangles.svg	stimuli_distractor_trianglediamonds.svg	17	yes	44	1	811	0	0			0	0			1				0	
6.6.1	win	2023-06-02	01:10:31	01:19:55	556270	5f6e36c7f042f033d0f97bc1	3	1	main_z	11	advance_on_keypress_ZEE	42	stimuli_target_trianglerectangles.svg	stimuli_distractor_trianglediamonds.svg	17	yes	57	0	585	0	0			0	0			1				0	
6.6.1	win	2023-06-02	01:10:31	01:19:58	559493	5f6e36c7f042f033d0f97bc1	3	1	main_z	11	main_z	43	stimuli_distractor_diamondtriangles.svg	stimuli_distractor_diamondtriangles.svg	40	no	0	1	2000	0	0			0	0			1				0	
6.6.1	win	2023-06-02	01:10:31	01:19:58	559493	5f6e36c7f042f033d0f97bc1	3	1	main_z	11	advance_on_keypress_ZEE	44	stimuli_distractor_diamondtriangles.svg	stimuli_distractor_diamondtriangles.svg	40	no	57	0	943	0	0			0	0			1				0	
6.6.1	win	2023-06-02	01:10:31	01:20:00	561918	5f6e36c7f042f033d0f97bc1	3	1	main_z	11	main_z	45	stimuli_distractor_diamondtriangles.svg	stimuli_target_squarediamonds.svg	16	yes	44	1	840	0	0			0	0			1				0	
6.6.1	win	2023-06-02	01:10:31	01:20:00	561918	5f6e36c7f042f033d0f97bc1	3	1	main_z	11	advance_on_keypress_ZEE	46	stimuli_distractor_diamondtriangles.svg	stimuli_target_squarediamonds.svg	16	yes	57	0	565	0	0			0	0			1				0	
6.6.1	win	2023-06-02	01:10:31	01:20:02	563926	5f6e36c7f042f033d0f97bc1	3	1	main_z	11	main_z	47	stimuli_distractor_trianglediamonds.svg	stimuli_target_trianglesquares.svg	26	yes	44	1	814	0	0			0	0			1				0	
6.6.1	win	2023-06-02	01:10:31	01:20:02	563926	5f6e36c7f042f033d0f97bc1	3	1	main_z	11	advance_on_keypress_ZEE	48	stimuli_distractor_trianglediamonds.svg	stimuli_target_trianglesquares.svg	26	yes	57	0	541	0	0			0	0			1				0	
6.6.1	win	2023-06-02	01:10:31	01:20:04	565910	5f6e36c7f042f033d0f97bc1	3	1	main_z	11	main_z	49	stimuli_target_rectanglediamonds.svg	stimuli_distractor_trianglediamonds.svg	2	yes	44	1	814	0	0			0	0			1				0	
6.6.1	win	2023-06-02	01:10:31	01:20:04	565910	5f6e36c7f042f033d0f97bc1	3	1	main_z	11	advance_on_keypress_ZEE	50	stimuli_target_rectanglediamonds.svg	stimuli_distractor_trianglediamonds.svg	2	yes	57	0	636	0	0			0	0			1				0	
6.6.1	win	2023-06-02	01:10:31	01:20:06	567950	5f6e36c7f042f033d0f97bc1	3	1	main_z	11	main_z	51	stimuli_target_diamondsquares.svg	stimuli_distractor_diamondtriangles.svg	24	yes	44	1	769	0	0			0	0			1				0	
6.6.1	win	2023-06-02	01:10:31	01:20:06	567950	5f6e36c7f042f033d0f97bc1	3	1	main_z	11	advance_on_keypress_ZEE	52	stimuli_target_diamondsquares.svg	stimuli_distractor_diamondtriangles.svg	24	yes	57	0	650	0	0			0	0			1				0	
6.6.1	win	2023-06-02	01:10:31	01:20:08	570054	5f6e36c7f042f033d0f97bc1	3	1	main_z	11	main_z	53	stimuli_target_squarediamonds.svg	stimuli_distractor_trianglediamonds.svg	4	yes	44	1	806	0	0			0	0			1				0	
6.6.1	win	2023-06-02	01:10:31	01:20:08	570054	5f6e36c7f042f033d0f97bc1	3	1	main_z	11	advance_on_keypress_ZEE	54	stimuli_target_squarediamonds.svg	stimuli_distractor_trianglediamonds.svg	4	yes	57	0	725	0	0			0	0			1				0	
6.6.1	win	2023-06-02	01:10:31	01:20:12	573415	5f6e36c7f042f033d0f97bc1	3	1	main_z	11	main_z	55	stimuli_distractor_trianglediamonds.svg	stimuli_distractor_trianglediamonds.svg	34	no	0	1	2000	0	0			0	0			1				0	
6.6.1	win	2023-06-02	01:10:31	01:20:12	573415	5f6e36c7f042f033d0f97bc1	3	1	main_z	11	advance_on_keypress_ZEE	56	stimuli_distractor_trianglediamonds.svg	stimuli_distractor_trianglediamonds.svg	34	no	57	0	381	0	0			0	0			1				0	
6.6.1	win	2023-06-02	01:10:31	01:20:13	575214	5f6e36c7f042f033d0f97bc1	3	1	main_z	11	main_z	57	stimuli_distractor_trianglediamonds.svg	stimuli_target_rectangletriangles.svg	9	yes	44	1	781	0	0			0	0			1				0	
6.6.1	win	2023-06-02	01:10:31	01:20:13	575214	5f6e36c7f042f033d0f97bc1	3	1	main_z	11	advance_on_keypress_ZEE	58	stimuli_distractor_trianglediamonds.svg	stimuli_target_rectangletriangles.svg	9	yes	57	0	573	0	0			0	0			1				0	
6.6.1	win	2023-06-02	01:10:31	01:20:15	577166	5f6e36c7f042f033d0f97bc1	3	1	main_z	11	main_z	59	stimuli_target_diamondrectangles.svg	stimuli_distractor_trianglediamonds.svg	19	yes	44	1	749	0	0			0	0			1				0	
6.6.1	win	2023-06-02	01:10:31	01:20:15	577166	5f6e36c7f042f033d0f97bc1	3	1	main_z	11	advance_on_keypress_ZEE	60	stimuli_target_diamondrectangles.svg	stimuli_distractor_trianglediamonds.svg	19	yes	57	0	534	0	0			0	0			1				0	
6.6.1	win	2023-06-02	01:10:31	01:20:19	580335	5f6e36c7f042f033d0f97bc1	3	1	main_z	11	main_z	61	stimuli_distractor_trianglediamonds.svg	stimuli_distractor_diamondtriangles.svg	36	no	0	1	2000	0	0			0	0			1				0	
6.6.1	win	2023-06-02	01:10:31	01:20:19	580335	5f6e36c7f042f033d0f97bc1	3	1	main_z	11	advance_on_keypress_ZEE	62	stimuli_distractor_trianglediamonds.svg	stimuli_distractor_diamondtriangles.svg	36	no	57	0	398	0	0			0	0			1				0	
6.6.1	win	2023-06-02	01:10:31	01:20:22	583369	5f6e36c7f042f033d0f97bc1	3	1	main_z	11	main_z	63	stimuli_distractor_diamondtriangles.svg	stimuli_distractor_diamondtriangles.svg	39	no	0	1	2000	0	0			0	0			1				0	
6.6.1	win	2023-06-02	01:10:31	01:20:22	583369	5f6e36c7f042f033d0f97bc1	3	1	main_z	11	advance_on_keypress_ZEE	64	stimuli_distractor_diamondtriangles.svg	stimuli_distractor_diamondtriangles.svg	39	no	57	0	419	0	0			0	0			1				0	
6.6.1	win	2023-06-02	01:10:31	01:20:24	585342	5f6e36c7f042f033d0f97bc1	3	1	main_z	11	main_z	65	stimuli_target_diamondsquares.svg	stimuli_distractor_trianglediamonds.svg	20	yes	44	1	905	0	0			0	0			1				0	
6.6.1	win	2023-06-02	01:10:31	01:20:24	585342	5f6e36c7f042f033d0f97bc1	3	1	main_z	11	advance_on_keypress_ZEE	66	stimuli_target_diamondsquares.svg	stimuli_distractor_trianglediamonds.svg	20	yes	57	0	540	0	0			0	0			1				0	
6.6.1	win	2023-06-02	01:10:31	01:20:26	587286	5f6e36c7f042f033d0f97bc1	3	1	main_z	11	main_z	67	stimuli_distractor_trianglediamonds.svg	stimuli_target_squaretriangles.svg	11	yes	44	1	765	0	0			0	0			1				0	
6.6.1	win	2023-06-02	01:10:31	01:20:26	587286	5f6e36c7f042f033d0f97bc1	3	1	main_z	11	advance_on_keypress_ZEE	68	stimuli_distractor_trianglediamonds.svg	stimuli_target_squaretriangles.svg	11	yes	57	0	486	0	0			0	0			1				0	
6.6.1	win	2023-06-02	01:10:31	01:20:27	589190	5f6e36c7f042f033d0f97bc1	3	1	main_z	11	main_z	69	stimuli_target_diamondrectangles.svg	stimuli_distractor_diamondtriangles.svg	23	yes	44	1	785	0	0			0	0			1				0	
6.6.1	win	2023-06-02	01:10:31	01:20:27	589190	5f6e36c7f042f033d0f97bc1	3	1	main_z	11	advance_on_keypress_ZEE	70	stimuli_target_diamondrectangles.svg	stimuli_distractor_diamondtriangles.svg	23	yes	57	0	544	0	0			0	0			1				0	
6.6.1	win	2023-06-02	01:10:31	01:20:29	591118	5f6e36c7f042f033d0f97bc1	3	1	main_z	11	main_z	71	stimuli_distractor_diamondtriangles.svg	stimuli_target_rectangletriangles.svg	13	yes	44	1	745	0	0			0	0			1				0	
6.6.1	win	2023-06-02	01:10:31	01:20:29	591118	5f6e36c7f042f033d0f97bc1	3	1	main_z	11	advance_on_keypress_ZEE	72	stimuli_distractor_diamondtriangles.svg	stimuli_target_rectangletriangles.svg	13	yes	57	0	459	0	0			0	0			1				0	
6.6.1	win	2023-06-02	01:10:31	01:20:31	592990	5f6e36c7f042f033d0f97bc1	3	1	main_z	11	main_z	73	stimuli_distractor_trianglediamonds.svg	stimuli_target_rectanglediamonds.svg	10	yes	44	1	783	0	0			0	0			1				0	
6.6.1	win	2023-06-02	01:10:31	01:20:31	592990	5f6e36c7f042f033d0f97bc1	3	1	main_z	11	advance_on_keypress_ZEE	74	stimuli_distractor_trianglediamonds.svg	stimuli_target_rectanglediamonds.svg	10	yes	57	0	455	0	0			0	0			1				0	
6.6.1	win	2023-06-02	01:10:31	01:20:34	596091	5f6e36c7f042f033d0f97bc1	3	1	main_z	11	main_z	75	stimuli_distractor_trianglediamonds.svg	stimuli_distractor_diamondtriangles.svg	35	no	0	1	2000	0	0			0	0			1				0	
6.6.1	win	2023-06-02	01:10:31	01:20:34	596091	5f6e36c7f042f033d0f97bc1	3	1	main_z	11	advance_on_keypress_ZEE	76	stimuli_distractor_trianglediamonds.svg	stimuli_distractor_diamondtriangles.svg	35	no	57	0	378	0	0			0	0			1				0	
6.6.1	win	2023-06-02	01:10:31	01:20:36	597854	5f6e36c7f042f033d0f97bc1	3	1	main_z	11	main_z	77	stimuli_distractor_trianglediamonds.svg	stimuli_target_trianglerectangles.svg	25	yes	44	1	745	0	0			0	0			1				0	
6.6.1	win	2023-06-02	01:10:31	01:20:36	597854	5f6e36c7f042f033d0f97bc1	3	1	main_z	11	advance_on_keypress_ZEE	78	stimuli_distractor_trianglediamonds.svg	stimuli_target_trianglerectangles.svg	25	yes	57	0	403	0	0			0	0			1				0	
6.6.1	win	2023-06-02	01:10:31	01:20:38	599630	5f6e36c7f042f033d0f97bc1	3	1	main_z	11	main_z	79	stimuli_target_squaretriangles.svg	stimuli_distractor_diamondtriangles.svg	7	yes	44	1	737	0	0			0	0			1				0	
6.6.1	win	2023-06-02	01:10:31	01:20:38	599630	5f6e36c7f042f033d0f97bc1	3	1	main_z	11	advance_on_keypress_ZEE	80	stimuli_target_squaretriangles.svg	stimuli_distractor_diamondtriangles.svg	7	yes	57	0	443	0	0			0	0			1				0	
6.6.1	win	2023-06-02	01:10:31	01:20:40	602046	5f6e36c7f042f033d0f97bc1	3	1	main_z	11	main_z	81	stimuli_target_trianglesquares.svg	stimuli_distractor_trianglediamonds.svg	18	yes	44	1	1336	0	0			0	0			1				0	
6.6.1	win	2023-06-02	01:10:31	01:20:40	602046	5f6e36c7f042f033d0f97bc1	3	1	main_z	11	advance_on_keypress_ZEE	82	stimuli_target_trianglesquares.svg	stimuli_distractor_trianglediamonds.svg	18	yes	57	0	713	0	0			0	0			1				0	
6.6.1	win	2023-06-02	01:10:31	01:20:42	604190	5f6e36c7f042f033d0f97bc1	3	1	main_z	11	main_z	83	stimuli_distractor_diamondtriangles.svg	stimuli_target_rectangletriangles.svg	13	yes	44	1	796	0	0			0	0			1				0	
6.6.1	win	2023-06-02	01:10:31	01:20:42	604190	5f6e36c7f042f033d0f97bc1	3	1	main_z	11	advance_on_keypress_ZEE	84	stimuli_distractor_diamondtriangles.svg	stimuli_target_rectangletriangles.svg	13	yes	57	0	419	0	0			0	0			1				0	
6.6.1	win	2023-06-02	01:10:31	01:20:45	606558	5f6e36c7f042f033d0f97bc1	3	1	main_z	11	main_z	85	stimuli_target_trianglerectangles.svg	stimuli_distractor_diamondtriangles.svg	21	yes	44	1	1313	0	0			0	0			1				0	
6.6.1	win	2023-06-02	01:10:31	01:20:45	606558	5f6e36c7f042f033d0f97bc1	3	1	main_z	11	advance_on_keypress_ZEE	86	stimuli_target_trianglerectangles.svg	stimuli_distractor_diamondtriangles.svg	21	yes	57	0	612	0	0			0	0			1				0	
6.6.1	win	2023-06-02	01:10:31	01:20:47	608878	5f6e36c7f042f033d0f97bc1	3	1	main_z	11	main_z	87	stimuli_target_squarediamonds.svg	stimuli_distractor_diamondtriangles.svg	8	yes	44	1	1082	0	0			0	0			1				0	
6.6.1	win	2023-06-02	01:10:31	01:20:47	608878	5f6e36c7f042f033d0f97bc1	3	1	main_z	11	advance_on_keypress_ZEE	88	stimuli_target_squarediamonds.svg	stimuli_distractor_diamondtriangles.svg	8	yes	57	0	454	0	0			0	0			1				0	
6.6.1	win	2023-06-02	01:10:31	01:20:49	610838	5f6e36c7f042f033d0f97bc1	3	1	main_z	11	main_z	89	stimuli_target_rectangletriangles.svg	stimuli_distractor_trianglediamonds.svg	1	yes	44	1	875	0	0			0	0			1				0	
6.6.1	win	2023-06-02	01:10:31	01:20:49	610838	5f6e36c7f042f033d0f97bc1	3	1	main_z	11	advance_on_keypress_ZEE	90	stimuli_target_rectangletriangles.svg	stimuli_distractor_trianglediamonds.svg	1	yes	57	0	423	0	0			0	0			1				0	
6.6.1	win	2023-06-02	01:10:31	01:20:52	613897	5f6e36c7f042f033d0f97bc1	3	1	main_z	11	main_z	91	stimuli_distractor_diamondtriangles.svg	stimuli_distractor_trianglediamonds.svg	38	no	0	1	2000	0	0			0	0			1				0	
6.6.1	win	2023-06-02	01:10:31	01:20:52	613897	5f6e36c7f042f033d0f97bc1	3	1	main_z	11	advance_on_keypress_ZEE	92	stimuli_distractor_diamondtriangles.svg	stimuli_distractor_trianglediamonds.svg	38	no	57	0	339	0	0			0	0			1				0	
6.6.1	win	2023-06-02	01:10:31	01:20:54	615782	5f6e36c7f042f033d0f97bc1	3	1	main_z	11	main_z	93	stimuli_distractor_diamondtriangles.svg	stimuli_target_diamondrectangles.svg	31	yes	44	1	900	0	0			0	0			1				0	
6.6.1	win	2023-06-02	01:10:31	01:20:54	615782	5f6e36c7f042f033d0f97bc1	3	1	main_z	11	advance_on_keypress_ZEE	94	stimuli_distractor_diamondtriangles.svg	stimuli_target_diamondrectangles.svg	31	yes	57	0	463	0	0			0	0			1				0	
6.6.1	win	2023-06-02	01:10:31	01:20:56	617638	5f6e36c7f042f033d0f97bc1	3	1	main_z	11	main_z	95	stimuli_target_diamondrectangles.svg	stimuli_distractor_trianglediamonds.svg	19	yes	44	1	755	0	0			0	0			1				0	
6.6.1	win	2023-06-02	01:10:31	01:20:56	617638	5f6e36c7f042f033d0f97bc1	3	1	main_z	11	advance_on_keypress_ZEE	96	stimuli_target_diamondrectangles.svg	stimuli_distractor_trianglediamonds.svg	19	yes	57	0	508	0	0			0	0			1				0	
6.6.1	win	2023-06-02	01:10:31	01:20:59	620783	5f6e36c7f042f033d0f97bc1	3	1	main_z	11	main_z	97	stimuli_distractor_diamondtriangles.svg	stimuli_distractor_diamondtriangles.svg	40	no	0	1	2000	0	0			0	0			1				0	
6.6.1	win	2023-06-02	01:10:31	01:20:59	620783	5f6e36c7f042f033d0f97bc1	3	1	main_z	11	advance_on_keypress_ZEE	98	stimuli_distractor_diamondtriangles.svg	stimuli_distractor_diamondtriangles.svg	40	no	57	0	389	0	0			0	0			1				0	
6.6.1	win	2023-06-02	01:10:31	01:21:02	623818	5f6e36c7f042f033d0f97bc1	3	1	main_z	11	main_z	99	stimuli_distractor_trianglediamonds.svg	stimuli_distractor_diamondtriangles.svg	36	no	0	1	2000	0	0			0	0			1				0	
6.6.1	win	2023-06-02	01:10:31	01:21:02	623818	5f6e36c7f042f033d0f97bc1	3	1	main_z	11	advance_on_keypress_ZEE	100	stimuli_distractor_trianglediamonds.svg	stimuli_distractor_diamondtriangles.svg	36	no	57	0	450	0	0			0	0			1				0	
6.6.1	win	2023-06-02	01:10:31	01:21:04	625694	5f6e36c7f042f033d0f97bc1	3	1	main_z	11	main_z	101	stimuli_target_squaretriangles.svg	stimuli_distractor_diamondtriangles.svg	7	yes	44	1	775	0	0			0	0			1				0	
6.6.1	win	2023-06-02	01:10:31	01:21:04	625694	5f6e36c7f042f033d0f97bc1	3	1	main_z	11	advance_on_keypress_ZEE	102	stimuli_target_squaretriangles.svg	stimuli_distractor_diamondtriangles.svg	7	yes	57	0	351	0	0			0	0			1				0	
6.6.1	win	2023-06-02	01:10:31	01:21:06	627462	5f6e36c7f042f033d0f97bc1	3	1	main_z	11	main_z	103	stimuli_distractor_trianglediamonds.svg	stimuli_target_diamondsquares.svg	28	yes	44	1	776	0	0			0	0			1				0	
6.6.1	win	2023-06-02	01:10:31	01:21:06	627462	5f6e36c7f042f033d0f97bc1	3	1	main_z	11	advance_on_keypress_ZEE	104	stimuli_distractor_trianglediamonds.svg	stimuli_target_diamondsquares.svg	28	yes	57	0	584	0	0			0	0			1				0	
6.6.1	win	2023-06-02	01:10:31	01:21:08	629398	5f6e36c7f042f033d0f97bc1	3	1	main_z	11	main_z	105	stimuli_distractor_trianglediamonds.svg	stimuli_target_squaretriangles.svg	11	yes	44	1	711	0	0			0	0			1				0	
6.6.1	win	2023-06-02	01:10:31	01:21:08	629398	5f6e36c7f042f033d0f97bc1	3	1	main_z	11	advance_on_keypress_ZEE	106	stimuli_distractor_trianglediamonds.svg	stimuli_target_squaretriangles.svg	11	yes	57	0	498	0	0			0	0			1				0	
6.6.1	win	2023-06-02	01:10:31	01:21:11	632521	5f6e36c7f042f033d0f97bc1	3	1	main_z	11	main_z	107	stimuli_distractor_trianglediamonds.svg	stimuli_distractor_diamondtriangles.svg	35	no	0	1	2000	0	0			0	0			1				0	
6.6.1	win	2023-06-02	01:10:31	01:21:11	632521	5f6e36c7f042f033d0f97bc1	3	1	main_z	11	advance_on_keypress_ZEE	108	stimuli_distractor_trianglediamonds.svg	stimuli_distractor_diamondtriangles.svg	35	no	57	0	379	0	0			0	0			1				0	
6.6.1	win	2023-06-02	01:10:31	01:21:12	634254	5f6e36c7f042f033d0f97bc1	3	1	main_z	11	main_z	109	stimuli_target_squarediamonds.svg	stimuli_distractor_trianglediamonds.svg	4	yes	44	1	715	0	0			0	0			1				0	
6.6.1	win	2023-06-02	01:10:31	01:21:12	634254	5f6e36c7f042f033d0f97bc1	3	1	main_z	11	advance_on_keypress_ZEE	110	stimuli_target_squarediamonds.svg	stimuli_distractor_trianglediamonds.svg	4	yes	57	0	446	0	0			0	0			1				0	
6.6.1	win	2023-06-02	01:10:31	01:21:14	636038	5f6e36c7f042f033d0f97bc1	3	1	main_z	11	main_z	111	stimuli_distractor_diamondtriangles.svg	stimuli_target_diamondsquares.svg	32	yes	44	1	715	0	0			0	0			1				0	
6.6.1	win	2023-06-02	01:10:31	01:21:14	636038	5f6e36c7f042f033d0f97bc1	3	1	main_z	11	advance_on_keypress_ZEE	112	stimuli_distractor_diamondtriangles.svg	stimuli_target_diamondsquares.svg	32	yes	57	0	550	0	0			0	0			1				0	
6.6.1	win	2023-06-02	01:10:31	01:21:16	637838	5f6e36c7f042f033d0f97bc1	3	1	main_z	11	main_z	113	stimuli_distractor_trianglediamonds.svg	stimuli_target_squarediamonds.svg	12	yes	44	1	614	0	0			0	0			1				0	
6.6.1	win	2023-06-02	01:10:31	01:21:16	637838	5f6e36c7f042f033d0f97bc1	3	1	main_z	11	advance_on_keypress_ZEE	114	stimuli_distractor_trianglediamonds.svg	stimuli_target_squarediamonds.svg	12	yes	57	0	541	0	0			0	0			1				0	
6.6.1	win	2023-06-02	01:10:31	01:21:19	641008	5f6e36c7f042f033d0f97bc1	3	1	main_z	11	main_z	115	stimuli_distractor_trianglediamonds.svg	stimuli_distractor_trianglediamonds.svg	33	no	0	1	2000	0	0			0	0			1				0	
6.6.1	win	2023-06-02	01:10:31	01:21:19	641008	5f6e36c7f042f033d0f97bc1	3	1	main_z	11	advance_on_keypress_ZEE	116	stimuli_distractor_trianglediamonds.svg	stimuli_distractor_trianglediamonds.svg	33	no	57	0	333	0	0			0	0			1				0	
6.6.1	win	2023-06-02	01:10:31	01:21:21	642662	5f6e36c7f042f033d0f97bc1	3	1	main_z	11	main_z	117	stimuli_distractor_trianglediamonds.svg	stimuli_target_rectangletriangles.svg	9	yes	44	1	670	0	0			0	0			1				0	
6.6.1	win	2023-06-02	01:10:31	01:21:21	642662	5f6e36c7f042f033d0f97bc1	3	1	main_z	11	advance_on_keypress_ZEE	118	stimuli_distractor_trianglediamonds.svg	stimuli_target_rectangletriangles.svg	9	yes	57	0	554	0	0			0	0			1				0	
6.6.1	win	2023-06-02	01:10:31	01:21:23	644566	5f6e36c7f042f033d0f97bc1	3	1	main_z	11	main_z	119	stimuli_target_rectanglediamonds.svg	stimuli_distractor_diamondtriangles.svg	6	yes	44	1	706	0	0			0	0			1				0	
6.6.1	win	2023-06-02	01:10:31	01:21:23	644566	5f6e36c7f042f033d0f97bc1	3	1	main_z	11	advance_on_keypress_ZEE	120	stimuli_target_rectanglediamonds.svg	stimuli_distractor_diamondtriangles.svg	6	yes	57	0	573	0	0			0	0			1				0	
6.6.1	win	2023-06-02	01:10:31	01:21:25	646574	5f6e36c7f042f033d0f97bc1	3	1	main_z	11	main_z	121	stimuli_target_diamondsquares.svg	stimuli_distractor_diamondtriangles.svg	24	yes	44	1	797	0	0			0	0			1				0	
6.6.1	win	2023-06-02	01:10:31	01:21:25	646574	5f6e36c7f042f033d0f97bc1	3	1	main_z	11	advance_on_keypress_ZEE	122	stimuli_target_diamondsquares.svg	stimuli_distractor_diamondtriangles.svg	24	yes	57	0	605	0	0			0	0			1				0	
6.6.1	win	2023-06-02	01:10:31	01:21:27	648606	5f6e36c7f042f033d0f97bc1	3	1	main_z	11	main_z	123	stimuli_target_rectangletriangles.svg	stimuli_distractor_diamondtriangles.svg	5	yes	44	1	795	0	0			0	0			1				0	
6.6.1	win	2023-06-02	01:10:31	01:21:27	648606	5f6e36c7f042f033d0f97bc1	3	1	main_z	11	advance_on_keypress_ZEE	124	stimuli_target_rectangletriangles.svg	stimuli_distractor_diamondtriangles.svg	5	yes	57	0	570	0	0			0	0			1				0	
6.6.1	win	2023-06-02	01:10:31	01:21:29	650662	5f6e36c7f042f033d0f97bc1	3	1	main_z	11	main_z	125	stimuli_target_diamondsquares.svg	stimuli_distractor_trianglediamonds.svg	20	yes	44	1	850	0	0			0	0			1				0	
6.6.1	win	2023-06-02	01:10:31	01:21:29	650662	5f6e36c7f042f033d0f97bc1	3	1	main_z	11	advance_on_keypress_ZEE	126	stimuli_target_diamondsquares.svg	stimuli_distractor_trianglediamonds.svg	20	yes	57	0	639	0	0			0	0			1				0	
6.6.1	win	2023-06-02	01:10:31	01:21:32	653946	5f6e36c7f042f033d0f97bc1	3	1	main_z	11	main_z	127	stimuli_target_trianglesquares.svg	stimuli_distractor_diamondtriangles.svg	22	yes	0	0	2000	0	0			0	0			1				0	
6.6.1	win	2023-06-02	01:10:31	01:21:32	653946	5f6e36c7f042f033d0f97bc1	3	1	main_z	11	advance_on_keypress_ZEE	128	stimuli_target_trianglesquares.svg	stimuli_distractor_diamondtriangles.svg	22	yes	57	0	450	0	0			0	0			1				0	
6.6.1	win	2023-06-02	01:10:31	01:21:35	657047	5f6e36c7f042f033d0f97bc1	3	1	main_z	11	main_z	129	stimuli_distractor_diamondtriangles.svg	stimuli_target_squarediamonds.svg	16	yes	0	0	2000	0	0			0	0			1				0	
6.6.1	win	2023-06-02	01:10:31	01:21:35	657047	5f6e36c7f042f033d0f97bc1	3	1	main_z	11	advance_on_keypress_ZEE	130	stimuli_distractor_diamondtriangles.svg	stimuli_target_squarediamonds.svg	16	yes	57	0	469	0	0			0	0			1				0	
6.6.1	win	2023-06-02	01:10:31	01:21:37	658894	5f6e36c7f042f033d0f97bc1	3	1	main_z	11	main_z	131	stimuli_target_squaretriangles.svg	stimuli_distractor_trianglediamonds.svg	3	yes	44	1	729	0	0			0	0			1				0	
6.6.1	win	2023-06-02	01:10:31	01:21:37	658894	5f6e36c7f042f033d0f97bc1	3	1	main_z	11	advance_on_keypress_ZEE	132	stimuli_target_squaretriangles.svg	stimuli_distractor_trianglediamonds.svg	3	yes	57	0	419	0	0			0	0			1				0	
6.6.1	win	2023-06-02	01:10:31	01:21:39	660702	5f6e36c7f042f033d0f97bc1	3	1	main_z	11	main_z	133	stimuli_distractor_diamondtriangles.svg	stimuli_target_rectanglediamonds.svg	14	yes	44	1	753	0	0			0	0			1				0	
6.6.1	win	2023-06-02	01:10:31	01:21:39	660702	5f6e36c7f042f033d0f97bc1	3	1	main_z	11	advance_on_keypress_ZEE	134	stimuli_distractor_diamondtriangles.svg	stimuli_target_rectanglediamonds.svg	14	yes	57	0	506	0	0			0	0			1				0	
6.6.1	win	2023-06-02	01:10:31	01:21:41	662494	5f6e36c7f042f033d0f97bc1	3	1	main_z	11	main_z	135	stimuli_target_rectanglediamonds.svg	stimuli_distractor_trianglediamonds.svg	2	yes	44	1	644	0	0			0	0			1				0	
6.6.1	win	2023-06-02	01:10:31	01:21:41	662494	5f6e36c7f042f033d0f97bc1	3	1	main_z	11	advance_on_keypress_ZEE	136	stimuli_target_rectanglediamonds.svg	stimuli_distractor_trianglediamonds.svg	2	yes	57	0	458	0	0			0	0			1				0	
6.6.1	win	2023-06-02	01:10:31	01:21:44	665584	5f6e36c7f042f033d0f97bc1	3	1	main_z	11	main_z	137	stimuli_distractor_trianglediamonds.svg	stimuli_distractor_trianglediamonds.svg	34	no	0	1	2000	0	0			0	0			1				0	
6.6.1	win	2023-06-02	01:10:31	01:21:44	665584	5f6e36c7f042f033d0f97bc1	3	1	main_z	11	advance_on_keypress_ZEE	138	stimuli_distractor_trianglediamonds.svg	stimuli_distractor_trianglediamonds.svg	34	no	57	0	381	0	0			0	0			1				0	
6.6.1	win	2023-06-02	01:10:31	01:21:46	667310	5f6e36c7f042f033d0f97bc1	3	1	main_z	11	main_z	139	stimuli_distractor_trianglediamonds.svg	stimuli_target_trianglesquares.svg	26	yes	44	1	708	0	0			0	0			1				0	
6.6.1	win	2023-06-02	01:10:31	01:21:46	667310	5f6e36c7f042f033d0f97bc1	3	1	main_z	11	advance_on_keypress_ZEE	140	stimuli_distractor_trianglediamonds.svg	stimuli_target_trianglesquares.svg	26	yes	57	0	431	0	0			0	0			1				0	
6.6.1	win	2023-06-02	01:10:31	01:21:47	669126	5f6e36c7f042f033d0f97bc1	3	1	main_z	11	main_z	141	stimuli_distractor_trianglediamonds.svg	stimuli_target_rectanglediamonds.svg	10	yes	44	1	757	0	0			0	0			1				0	
6.6.1	win	2023-06-02	01:10:31	01:21:47	669126	5f6e36c7f042f033d0f97bc1	3	1	main_z	11	advance_on_keypress_ZEE	142	stimuli_distractor_trianglediamonds.svg	stimuli_target_rectanglediamonds.svg	10	yes	57	0	510	0	0			0	0			1				0	
6.6.1	win	2023-06-02	01:10:31	01:21:49	671078	5f6e36c7f042f033d0f97bc1	3	1	main_z	11	main_z	143	stimuli_target_trianglerectangles.svg	stimuli_distractor_trianglediamonds.svg	17	yes	44	1	808	0	0			0	0			1				0	
6.6.1	win	2023-06-02	01:10:31	01:21:49	671078	5f6e36c7f042f033d0f97bc1	3	1	main_z	11	advance_on_keypress_ZEE	144	stimuli_target_trianglerectangles.svg	stimuli_distractor_trianglediamonds.svg	17	yes	57	0	583	0	0			0	0			1				0	
6.6.1	win	2023-06-02	01:10:31	01:21:51	673062	5f6e36c7f042f033d0f97bc1	3	1	main_z	11	main_z	145	stimuli_distractor_trianglediamonds.svg	stimuli_target_diamondrectangles.svg	27	yes	44	1	758	0	0			0	0			1				0	
6.6.1	win	2023-06-02	01:10:31	01:21:51	673062	5f6e36c7f042f033d0f97bc1	3	1	main_z	11	advance_on_keypress_ZEE	146	stimuli_distractor_trianglediamonds.svg	stimuli_target_diamondrectangles.svg	27	yes	57	0	375	0	0			0	0			1				0	
6.6.1	win	2023-06-02	01:10:31	01:21:53	674798	5f6e36c7f042f033d0f97bc1	3	1	main_z	11	main_z	147	stimuli_distractor_diamondtriangles.svg	stimuli_target_trianglesquares.svg	30	yes	44	1	727	0	0			0	0			1				0	
6.6.1	win	2023-06-02	01:10:31	01:21:53	674798	5f6e36c7f042f033d0f97bc1	3	1	main_z	11	advance_on_keypress_ZEE	148	stimuli_distractor_diamondtriangles.svg	stimuli_target_trianglesquares.svg	30	yes	57	0	401	0	0			0	0			1				0	
6.6.1	win	2023-06-02	01:10:31	01:21:56	677838	5f6e36c7f042f033d0f97bc1	3	1	main_z	11	main_z	149	stimuli_distractor_diamondtriangles.svg	stimuli_distractor_diamondtriangles.svg	39	no	0	1	2000	0	0			0	0			1				0	
6.6.1	win	2023-06-02	01:10:31	01:21:56	677838	5f6e36c7f042f033d0f97bc1	3	1	main_z	11	advance_on_keypress_ZEE	150	stimuli_distractor_diamondtriangles.svg	stimuli_distractor_diamondtriangles.svg	39	no	57	0	398	0	0			0	0			1				0	
6.6.1	win	2023-06-02	01:10:31	01:21:58	679614	5f6e36c7f042f033d0f97bc1	3	1	main_z	11	main_z	151	stimuli_target_diamondrectangles.svg	stimuli_distractor_diamondtriangles.svg	23	yes	44	1	741	0	0			0	0			1				0	
6.6.1	win	2023-06-02	01:10:31	01:21:58	679614	5f6e36c7f042f033d0f97bc1	3	1	main_z	11	advance_on_keypress_ZEE	152	stimuli_target_diamondrectangles.svg	stimuli_distractor_diamondtriangles.svg	23	yes	57	0	495	0	0			0	0			1				0	
6.6.1	win	2023-06-02	01:10:31	01:22:00	681494	5f6e36c7f042f033d0f97bc1	3	1	main_z	11	main_z	153	stimuli_distractor_diamondtriangles.svg	stimuli_target_trianglerectangles.svg	29	yes	44	1	754	0	0			0	0			1				0	
6.6.1	win	2023-06-02	01:10:31	01:22:00	681494	5f6e36c7f042f033d0f97bc1	3	1	main_z	11	advance_on_keypress_ZEE	154	stimuli_distractor_diamondtriangles.svg	stimuli_target_trianglerectangles.svg	29	yes	57	0	427	0	0			0	0			1				0	
6.6.1	win	2023-06-02	01:10:31	01:22:02	683286	5f6e36c7f042f033d0f97bc1	3	1	main_z	11	main_z	155	stimuli_distractor_trianglediamonds.svg	stimuli_target_trianglerectangles.svg	25	yes	44	1	728	0	0			0	0			1				0	
6.6.1	win	2023-06-02	01:10:31	01:22:02	683286	5f6e36c7f042f033d0f97bc1	3	1	main_z	11	advance_on_keypress_ZEE	156	stimuli_distractor_trianglediamonds.svg	stimuli_target_trianglerectangles.svg	25	yes	57	0	307	0	0			0	0			1				0	
6.6.1	win	2023-06-02	01:10:31	01:22:04	686225	5f6e36c7f042f033d0f97bc1	3	1	main_z	11	main_z	157	stimuli_distractor_diamondtriangles.svg	stimuli_distractor_trianglediamonds.svg	37	no	0	1	2000	0	0			0	0			1				0	
6.6.1	win	2023-06-02	01:10:31	01:22:04	686225	5f6e36c7f042f033d0f97bc1	3	1	main_z	11	advance_on_keypress_ZEE	158	stimuli_distractor_diamondtriangles.svg	stimuli_distractor_trianglediamonds.svg	37	no	57	0	363	0	0			0	0			1				0	
6.6.1	win	2023-06-02	01:10:31	01:22:06	688030	5f6e36c7f042f033d0f97bc1	3	1	main_z	11	main_z	159	stimuli_distractor_diamondtriangles.svg	stimuli_target_squaretriangles.svg	15	yes	44	1	804	0	0			0	0			1				0	
6.6.1	win	2023-06-02	01:10:31	01:22:06	688030	5f6e36c7f042f033d0f97bc1	3	1	main_z	11	advance_on_keypress_ZEE	160	stimuli_distractor_diamondtriangles.svg	stimuli_target_squaretriangles.svg	15	yes	57	0	411	0	0			0	0			1				0	
6.6.1	win	2023-06-02	01:10:31	01:22:06	688030	5f6e36c7f042f033d0f97bc1	3	1	headphonecheck_calibration	14	headphonecheck_calibrationIntro	1	stimuli_distractor_diamondtriangles.svg	stimuli_target_squaretriangles.svg	15	yes	calibrationButton	0	2433	0	0			0	0			1				0	
6.6.1	win	2023-06-02	01:10:31	01:22:06	688030	5f6e36c7f042f033d0f97bc1	3	1	headphonecheck_testphase	15	test_collectResponse	3	stimuli_distractor_diamondtriangles.svg	stimuli_target_squaretriangles.svg	15	yes	third	1	8383	1	2	antiphase_hc_ios.wav	3	0	0			1				0	
6.6.1	win	2023-06-02	01:10:31	01:22:06	688030	5f6e36c7f042f033d0f97bc1	3	1	headphonecheck_testphase	15	test_collectResponse	6	stimuli_distractor_diamondtriangles.svg	stimuli_target_squaretriangles.svg	15	yes	third	1	732	2	6	antiphase_hc_ois.wav	3	0	0			1				0	
6.6.1	win	2023-06-02	01:10:31	01:22:06	688030	5f6e36c7f042f033d0f97bc1	3	1	headphonecheck_testphase	15	test_collectResponse	9	stimuli_distractor_diamondtriangles.svg	stimuli_target_squaretriangles.svg	15	yes	first	1	365	3	3	antiphase_hc_soi.wav	1	0	0			1				0	
6.6.1	win	2023-06-02	01:10:31	01:22:06	688030	5f6e36c7f042f033d0f97bc1	3	1	headphonecheck_testphase	15	test_collectResponse	12	stimuli_distractor_diamondtriangles.svg	stimuli_target_squaretriangles.svg	15	yes	second	1	262	4	1	antiphase_hc_iso.wav	2	0	0			1				0	
6.6.1	win	2023-06-02	01:10:31	01:22:06	688030	5f6e36c7f042f033d0f97bc1	3	1	headphonecheck_testphase	15	test_collectResponse	15	stimuli_distractor_diamondtriangles.svg	stimuli_target_squaretriangles.svg	15	yes	second	1	246	5	5	antiphase_hc_osi.wav	2	0	0			1				0	
6.6.1	win	2023-06-02	01:10:31	01:22:06	688030	5f6e36c7f042f033d0f97bc1	3	1	headphonecheck_testphase	15	test_collectResponse	18	stimuli_distractor_diamondtriangles.svg	stimuli_target_squaretriangles.svg	15	yes	first	1	400	6	4	antiphase_hc_sio.wav	1	0	0			1				0	
6.6.1	win	2023-06-02	01:10:31	01:22:06	688030	5f6e36c7f042f033d0f97bc1	3	1	stereocheck_calibration	17	stereocheck_calibrationIntro	1	stimuli_distractor_diamondtriangles.svg	stimuli_target_squaretriangles.svg	15	yes	stereocheck_calibrationButton	0	6423	6	4	antiphase_hc_sio.wav	1	0	0			1				0	
6.6.1	win	2023-06-02	01:10:31	01:22:06	688030	5f6e36c7f042f033d0f97bc1	3	1	stereocheck_testphase	18	stereocheck_test_collectResponse	3	stimuli_distractor_diamondtriangles.svg	stimuli_target_squaretriangles.svg	15	yes	stereocheck_right	1	316	6	4	antiphase_hc_sio.wav	1	1	6	noise_calib_stim_RIGHT.wav	2	1				0	
6.6.1	win	2023-06-02	01:10:31	01:22:06	688030	5f6e36c7f042f033d0f97bc1	3	1	stereocheck_testphase	18	stereocheck_test_collectResponse	6	stimuli_distractor_diamondtriangles.svg	stimuli_target_squaretriangles.svg	15	yes	stereocheck_right	1	252	6	4	antiphase_hc_sio.wav	1	2	5	noise_calib_stim_RIGHT.wav	2	1				0	
6.6.1	win	2023-06-02	01:10:31	01:22:06	688030	5f6e36c7f042f033d0f97bc1	3	1	stereocheck_testphase	18	stereocheck_test_collectResponse	9	stimuli_distractor_diamondtriangles.svg	stimuli_target_squaretriangles.svg	15	yes	stereocheck_left	1	202	6	4	antiphase_hc_sio.wav	1	3	1	noise_calib_stim_LEFT.wav	1	1				0	
6.6.1	win	2023-06-02	01:10:31	01:22:06	688030	5f6e36c7f042f033d0f97bc1	3	1	stereocheck_testphase	18	stereocheck_test_collectResponse	12	stimuli_distractor_diamondtriangles.svg	stimuli_target_squaretriangles.svg	15	yes	stereocheck_right	1	199	6	4	antiphase_hc_sio.wav	1	4	4	noise_calib_stim_RIGHT.wav	2	1				0	
6.6.1	win	2023-06-02	01:10:31	01:22:06	688030	5f6e36c7f042f033d0f97bc1	3	1	stereocheck_testphase	18	stereocheck_test_collectResponse	15	stimuli_distractor_diamondtriangles.svg	stimuli_target_squaretriangles.svg	15	yes	stereocheck_left	1	272	6	4	antiphase_hc_sio.wav	1	5	3	noise_calib_stim_LEFT.wav	1	1				0	
6.6.1	win	2023-06-02	01:10:31	01:22:06	688030	5f6e36c7f042f033d0f97bc1	3	1	stereocheck_testphase	18	stereocheck_test_collectResponse	18	stimuli_distractor_diamondtriangles.svg	stimuli_target_squaretriangles.svg	15	yes	stereocheck_left	1	322	6	4	antiphase_hc_sio.wav	1	6	2	noise_calib_stim_LEFT.wav	1	1				0	
6.6.1	win	2023-06-02	01:10:31	01:22:06	688030	5f6e36c7f042f033d0f97bc1	3	1	DL_practice	21	DL_practice	2	stimuli_distractor_diamondtriangles.svg	stimuli_target_squaretriangles.svg	15	yes	ta	1	1829	6	4	antiphase_hc_sio.wav	1	6	2	noise_calib_stim_LEFT.wav	1	36	blb_dichoticlistening_ta-ta.mp3	ta	ta	0	left
6.6.1	win	2023-06-02	01:10:31	01:22:06	688030	5f6e36c7f042f033d0f97bc1	3	1	DL_practice	21	DL_practice	3	stimuli_distractor_diamondtriangles.svg	stimuli_target_squaretriangles.svg	15	yes	ga	1	1531	6	4	antiphase_hc_sio.wav	1	6	2	noise_calib_stim_LEFT.wav	1	15	blb_dichoticlistening_ga-ga.mp3	ga	ga	0	left
6.6.1	win	2023-06-02	01:10:31	01:22:06	688030	5f6e36c7f042f033d0f97bc1	3	1	DL_practice	21	DL_practice	4	stimuli_distractor_diamondtriangles.svg	stimuli_target_squaretriangles.svg	15	yes	ka	1	1898	6	4	antiphase_hc_sio.wav	1	6	2	noise_calib_stim_LEFT.wav	1	23	blb_dichoticlistening_ka-pa.mp3	ka	pa	1	left
6.6.1	win	2023-06-02	01:10:31	01:22:06	688030	5f6e36c7f042f033d0f97bc1	3	1	DL_practice	21	DL_practice	5	stimuli_distractor_diamondtriangles.svg	stimuli_target_squaretriangles.svg	15	yes	ka	1	993	6	4	antiphase_hc_sio.wav	1	6	2	noise_calib_stim_LEFT.wav	1	22	blb_dichoticlistening_ka-ka.mp3	ka	ka	0	left
6.6.1	win	2023-06-02	01:10:31	01:22:06	688030	5f6e36c7f042f033d0f97bc1	3	1	DL_practice	21	DL_practice	6	stimuli_distractor_diamondtriangles.svg	stimuli_target_squaretriangles.svg	15	yes	ba	1	1371	6	4	antiphase_hc_sio.wav	1	6	2	noise_calib_stim_LEFT.wav	1	1	blb_dichoticlistening_ba-ba.mp3	ba	ba	0	left
6.6.1	win	2023-06-02	01:10:31	01:22:06	688030	5f6e36c7f042f033d0f97bc1	3	1	DL_practice	21	DL_practice	7	stimuli_distractor_diamondtriangles.svg	stimuli_target_squaretriangles.svg	15	yes	da	1	1550	6	4	antiphase_hc_sio.wav	1	6	2	noise_calib_stim_LEFT.wav	1	7	blb_dichoticlistening_da-ba.mp3	da	ba	1	left
6.6.1	win	2023-06-02	01:10:31	01:22:06	688030	5f6e36c7f042f033d0f97bc1	3	1	DL_practice	21	DL_practice	8	stimuli_distractor_diamondtriangles.svg	stimuli_target_squaretriangles.svg	15	yes	ka	0	1149	6	4	antiphase_hc_sio.wav	1	6	2	noise_calib_stim_LEFT.wav	1	18	blb_dichoticlistening_ga-ta.mp3	ga	ta	1	other
6.6.1	win	2023-06-02	01:10:31	01:22:06	688030	5f6e36c7f042f033d0f97bc1	3	1	DL_practice	21	DL_practice	9	stimuli_distractor_diamondtriangles.svg	stimuli_target_squaretriangles.svg	15	yes	da	1	971	6	4	antiphase_hc_sio.wav	1	6	2	noise_calib_stim_LEFT.wav	1	8	blb_dichoticlistening_da-da.mp3	da	da	0	left
6.6.1	win	2023-06-02	01:10:31	01:22:06	688030	5f6e36c7f042f033d0f97bc1	3	1	DL_practice	21	DL_practice	10	stimuli_distractor_diamondtriangles.svg	stimuli_target_squaretriangles.svg	15	yes	pa	1	1421	6	4	antiphase_hc_sio.wav	1	6	2	noise_calib_stim_LEFT.wav	1	29	blb_dichoticlistening_pa-pa.mp3	pa	pa	0	left
6.6.1	win	2023-06-02	01:10:31	01:22:06	688030	5f6e36c7f042f033d0f97bc1	3	1	DL_test	23	DL_test	1	stimuli_distractor_diamondtriangles.svg	stimuli_target_squaretriangles.svg	15	yes	ka	1	885	6	4	antiphase_hc_sio.wav	1	6	2	noise_calib_stim_LEFT.wav	1	22	blb_dichoticlistening_ka-ka.mp3	ka	ka	0	left
6.6.1	win	2023-06-02	01:10:31	01:22:06	688030	5f6e36c7f042f033d0f97bc1	3	1	DL_test	23	DL_test	2	stimuli_distractor_diamondtriangles.svg	stimuli_target_squaretriangles.svg	15	yes	ga	0	2335	6	4	antiphase_hc_sio.wav	1	6	2	noise_calib_stim_LEFT.wav	1	32	blb_dichoticlistening_ta-da.mp3	ta	da	1	other
6.6.1	win	2023-06-02	01:10:31	01:22:06	688030	5f6e36c7f042f033d0f97bc1	3	1	DL_test	23	DL_test	3	stimuli_distractor_diamondtriangles.svg	stimuli_target_squaretriangles.svg	15	yes	ba	1	2567	6	4	antiphase_hc_sio.wav	1	6	2	noise_calib_stim_LEFT.wav	1	13	blb_dichoticlistening_ga-ba.mp3	ga	ba	1	right
6.6.1	win	2023-06-02	01:10:31	01:22:06	688030	5f6e36c7f042f033d0f97bc1	3	1	DL_test	23	DL_test	4	stimuli_distractor_diamondtriangles.svg	stimuli_target_squaretriangles.svg	15	yes	ka	1	1019	6	4	antiphase_hc_sio.wav	1	6	2	noise_calib_stim_LEFT.wav	1	34	blb_dichoticlistening_ta-ka.mp3	ta	ka	1	right
6.6.1	win	2023-06-02	01:10:31	01:22:06	688030	5f6e36c7f042f033d0f97bc1	3	1	DL_test	23	DL_test	5	stimuli_distractor_diamondtriangles.svg	stimuli_target_squaretriangles.svg	15	yes	ga	1	916	6	4	antiphase_hc_sio.wav	1	6	2	noise_calib_stim_LEFT.wav	1	14	blb_dichoticlistening_ga-da.mp3	ga	da	1	left
6.6.1	win	2023-06-02	01:10:31	01:22:06	688030	5f6e36c7f042f033d0f97bc1	3	1	DL_test	23	DL_test	6	stimuli_distractor_diamondtriangles.svg	stimuli_target_squaretriangles.svg	15	yes	ba	1	1281	6	4	antiphase_hc_sio.wav	1	6	2	noise_calib_stim_LEFT.wav	1	1	blb_dichoticlistening_ba-ba.mp3	ba	ba	0	left
6.6.1	win	2023-06-02	01:10:31	01:22:06	688030	5f6e36c7f042f033d0f97bc1	3	1	DL_test	23	DL_test	7	stimuli_distractor_diamondtriangles.svg	stimuli_target_squaretriangles.svg	15	yes	pa	1	1306	6	4	antiphase_hc_sio.wav	1	6	2	noise_calib_stim_LEFT.wav	1	5	blb_dichoticlistening_ba-pa.mp3	ba	pa	1	right
6.6.1	win	2023-06-02	01:10:31	01:22:06	688030	5f6e36c7f042f033d0f97bc1	3	1	DL_test	23	DL_test	8	stimuli_distractor_diamondtriangles.svg	stimuli_target_squaretriangles.svg	15	yes	pa	1	921	6	4	antiphase_hc_sio.wav	1	6	2	noise_calib_stim_LEFT.wav	1	27	blb_dichoticlistening_pa-ga.mp3	pa	ga	1	left
6.6.1	win	2023-06-02	01:10:31	01:22:06	688030	5f6e36c7f042f033d0f97bc1	3	1	DL_test	23	DL_test	9	stimuli_distractor_diamondtriangles.svg	stimuli_target_squaretriangles.svg	15	yes	ga	1	838	6	4	antiphase_hc_sio.wav	1	6	2	noise_calib_stim_LEFT.wav	1	15	blb_dichoticlistening_ga-ga.mp3	ga	ga	0	left
6.6.1	win	2023-06-02	01:10:31	01:22:06	688030	5f6e36c7f042f033d0f97bc1	3	1	DL_test	23	DL_test	10	stimuli_distractor_diamondtriangles.svg	stimuli_target_squaretriangles.svg	15	yes	da	1	873	6	4	antiphase_hc_sio.wav	1	6	2	noise_calib_stim_LEFT.wav	1	8	blb_dichoticlistening_da-da.mp3	da	da	0	left
6.6.1	win	2023-06-02	01:10:31	01:22:06	688030	5f6e36c7f042f033d0f97bc1	3	1	DL_test	23	DL_test	11	stimuli_distractor_diamondtriangles.svg	stimuli_target_squaretriangles.svg	15	yes	da	1	1140	6	4	antiphase_hc_sio.wav	1	6	2	noise_calib_stim_LEFT.wav	1	7	blb_dichoticlistening_da-ba.mp3	da	ba	1	left
6.6.1	win	2023-06-02	01:10:31	01:22:06	688030	5f6e36c7f042f033d0f97bc1	3	1	DL_test	23	DL_test	12	stimuli_distractor_diamondtriangles.svg	stimuli_target_squaretriangles.svg	15	yes	pa	1	1328	6	4	antiphase_hc_sio.wav	1	6	2	noise_calib_stim_LEFT.wav	1	11	blb_dichoticlistening_da-pa.mp3	da	pa	1	right
6.6.1	win	2023-06-02	01:10:31	01:22:06	688030	5f6e36c7f042f033d0f97bc1	3	1	DL_test	23	DL_test	13	stimuli_distractor_diamondtriangles.svg	stimuli_target_squaretriangles.svg	15	yes	ta	1	1105	6	4	antiphase_hc_sio.wav	1	6	2	noise_calib_stim_LEFT.wav	1	36	blb_dichoticlistening_ta-ta.mp3	ta	ta	0	left
6.6.1	win	2023-06-02	01:10:31	01:22:06	688030	5f6e36c7f042f033d0f97bc1	3	1	DL_test	23	DL_test	14	stimuli_distractor_diamondtriangles.svg	stimuli_target_squaretriangles.svg	15	yes	ka	0	1082	6	4	antiphase_hc_sio.wav	1	6	2	noise_calib_stim_LEFT.wav	1	33	blb_dichoticlistening_ta-ga.mp3	ta	ga	1	other
6.6.1	win	2023-06-02	01:10:31	01:22:06	688030	5f6e36c7f042f033d0f97bc1	3	1	DL_test	23	DL_test	15	stimuli_distractor_diamondtriangles.svg	stimuli_target_squaretriangles.svg	15	yes	pa	1	1475	6	4	antiphase_hc_sio.wav	1	6	2	noise_calib_stim_LEFT.wav	1	29	blb_dichoticlistening_pa-pa.mp3	pa	pa	0	left
6.6.1	win	2023-06-02	01:10:31	01:22:06	688030	5f6e36c7f042f033d0f97bc1	3	1	DL_test	23	DL_test	16	stimuli_distractor_diamondtriangles.svg	stimuli_target_squaretriangles.svg	15	yes	ka	0	1019	6	4	antiphase_hc_sio.wav	1	6	2	noise_calib_stim_LEFT.wav	1	18	blb_dichoticlistening_ga-ta.mp3	ga	ta	1	other
6.6.1	win	2023-06-02	01:10:31	01:22:06	688030	5f6e36c7f042f033d0f97bc1	3	1	DL_test	23	DL_test	17	stimuli_distractor_diamondtriangles.svg	stimuli_target_squaretriangles.svg	15	yes	ka	1	850	6	4	antiphase_hc_sio.wav	1	6	2	noise_calib_stim_LEFT.wav	1	28	blb_dichoticlistening_pa-ka.mp3	pa	ka	1	right
6.6.1	win	2023-06-02	01:10:31	01:22:06	688030	5f6e36c7f042f033d0f97bc1	3	1	DL_test	23	DL_test	18	stimuli_distractor_diamondtriangles.svg	stimuli_target_squaretriangles.svg	15	yes	ka	1	932	6	4	antiphase_hc_sio.wav	1	6	2	noise_calib_stim_LEFT.wav	1	23	blb_dichoticlistening_ka-pa.mp3	ka	pa	1	left
6.6.1	win	2023-06-02	01:10:31	01:22:06	688030	5f6e36c7f042f033d0f97bc1	3	1	DL_test	23	DL_test	19	stimuli_distractor_diamondtriangles.svg	stimuli_target_squaretriangles.svg	15	yes	pa	1	1005	6	4	antiphase_hc_sio.wav	1	6	2	noise_calib_stim_LEFT.wav	1	30	blb_dichoticlistening_pa-ta.mp3	pa	ta	1	left
6.6.1	win	2023-06-02	01:10:31	01:22:06	688030	5f6e36c7f042f033d0f97bc1	3	1	DL_test	23	DL_test	20	stimuli_distractor_diamondtriangles.svg	stimuli_target_squaretriangles.svg	15	yes	pa	0	3179	6	4	antiphase_hc_sio.wav	1	6	2	noise_calib_stim_LEFT.wav	1	6	blb_dichoticlistening_ba-ta.mp3	ba	ta	1	other
6.6.1	win	2023-06-02	01:10:31	01:22:06	688030	5f6e36c7f042f033d0f97bc1	3	1	DL_test	23	DL_test	21	stimuli_distractor_diamondtriangles.svg	stimuli_target_squaretriangles.svg	15	yes	pa	1	1006	6	4	antiphase_hc_sio.wav	1	6	2	noise_calib_stim_LEFT.wav	1	17	blb_dichoticlistening_ga-pa.mp3	ga	pa	1	right
6.6.1	win	2023-06-02	01:10:31	01:22:06	688030	5f6e36c7f042f033d0f97bc1	3	1	DL_test	23	DL_test	22	stimuli_distractor_diamondtriangles.svg	stimuli_target_squaretriangles.svg	15	yes	da	1	1632	6	4	antiphase_hc_sio.wav	1	6	2	noise_calib_stim_LEFT.wav	1	2	blb_dichoticlistening_ba-da.mp3	ba	da	1	right
6.6.1	win	2023-06-02	01:10:31	01:22:06	688030	5f6e36c7f042f033d0f97bc1	3	1	DL_test	23	DL_test	23	stimuli_distractor_diamondtriangles.svg	stimuli_target_squaretriangles.svg	15	yes	ta	1	1514	6	4	antiphase_hc_sio.wav	1	6	2	noise_calib_stim_LEFT.wav	1	31	blb_dichoticlistening_ta-ba.mp3	ta	ba	1	left
6.6.1	win	2023-06-02	01:10:31	01:22:06	688030	5f6e36c7f042f033d0f97bc1	3	1	DL_test	23	DL_test	24	stimuli_distractor_diamondtriangles.svg	stimuli_target_squaretriangles.svg	15	yes	ta	1	953	6	4	antiphase_hc_sio.wav	1	6	2	noise_calib_stim_LEFT.wav	1	12	blb_dichoticlistening_da-ta.mp3	da	ta	1	right
6.6.1	win	2023-06-02	01:10:31	01:22:06	688030	5f6e36c7f042f033d0f97bc1	3	1	DL_test	23	DL_test	25	stimuli_distractor_diamondtriangles.svg	stimuli_target_squaretriangles.svg	15	yes	da	1	1055	6	4	antiphase_hc_sio.wav	1	6	2	noise_calib_stim_LEFT.wav	1	9	blb_dichoticlistening_da-ga.mp3	da	ga	1	left
6.6.1	win	2023-06-02	01:10:31	01:22:06	688030	5f6e36c7f042f033d0f97bc1	3	1	DL_test	23	DL_test	26	stimuli_distractor_diamondtriangles.svg	stimuli_target_squaretriangles.svg	15	yes	pa	0	1068	6	4	antiphase_hc_sio.wav	1	6	2	noise_calib_stim_LEFT.wav	1	10	blb_dichoticlistening_da-ka.mp3	da	ka	1	other
