build	computer.platform	date	time	timestamp	time_elapsed_ms	subject	group	session	blockcode	blocknum	trialcode	trialnum	stimulus_left	stimulus_right	stim_index	target_present	response	correct	latency
6.6.1	win	2022-12-14	18:48:31	18:51:57	202546	62bb23c919ebfd3b0448e942	156301734	1	practice_z	5	practice_z	1	stimuli_distractor_diamondtriangles.svg	stimuli_target_trianglecircles.svg	9	yes	44	1	798
6.6.1	win	2022-12-14	18:48:31	18:51:57	202546	62bb23c919ebfd3b0448e942	156301734	1	practice_z	5	advance_on_keypress_ZEE	2	stimuli_distractor_diamondtriangles.svg	stimuli_target_trianglecircles.svg	9	yes	57	0	2626
6.6.1	win	2022-12-14	18:48:31	18:52:01	207248	62bb23c919ebfd3b0448e942	156301734	1	practice_z	5	practice_z	3	stimuli_distractor_trianglediamonds.svg	stimuli_target_diamondcircles.svg	12	yes	44	1	418
6.6.1	win	2022-12-14	18:48:31	18:52:01	207248	62bb23c919ebfd3b0448e942	156301734	1	practice_z	5	advance_on_keypress_ZEE	4	stimuli_distractor_trianglediamonds.svg	stimuli_target_diamondcircles.svg	12	yes	57	0	2247
6.6.1	win	2022-12-14	18:48:31	18:52:06	211681	62bb23c919ebfd3b0448e942	156301734	1	practice_z	5	practice_z	5	stimuli_distractor_diamondtriangles.svg	stimuli_target_diamondcircles.svg	8	yes	44	1	533
6.6.1	win	2022-12-14	18:48:31	18:52:06	211681	62bb23c919ebfd3b0448e942	156301734	1	practice_z	5	advance_on_keypress_ZEE	6	stimuli_distractor_diamondtriangles.svg	stimuli_target_diamondcircles.svg	8	yes	57	0	1526
6.6.1	win	2022-12-14	18:48:31	18:52:11	216848	62bb23c919ebfd3b0448e942	156301734	1	practice_z	5	practice_z	7	stimuli_distractor_diamondtriangles.svg	stimuli_distractor_diamondtriangles.svg	13	no	0	1	2000
6.6.1	win	2022-12-14	18:48:31	18:52:11	216848	62bb23c919ebfd3b0448e942	156301734	1	practice_z	5	advance_on_keypress_ZEE	8	stimuli_distractor_diamondtriangles.svg	stimuli_distractor_diamondtriangles.svg	13	no	57	0	882
6.6.1	win	2022-12-14	18:48:31	18:52:14	219827	62bb23c919ebfd3b0448e942	156301734	1	practice_z	5	practice_z	9	stimuli_distractor_trianglediamonds.svg	stimuli_target_squarediamonds.svg	11	yes	44	1	445
6.6.1	win	2022-12-14	18:48:31	18:52:14	219827	62bb23c919ebfd3b0448e942	156301734	1	practice_z	5	advance_on_keypress_ZEE	10	stimuli_distractor_trianglediamonds.svg	stimuli_target_squarediamonds.svg	11	yes	57	0	683
6.6.1	win	2022-12-14	18:48:31	18:52:18	223853	62bb23c919ebfd3b0448e942	156301734	1	practice_z	5	practice_z	11	stimuli_target_circlediamonds.svg	stimuli_distractor_trianglediamonds.svg	4	yes	44	1	1706
6.6.1	win	2022-12-14	18:48:31	18:52:18	223853	62bb23c919ebfd3b0448e942	156301734	1	practice_z	5	advance_on_keypress_ZEE	12	stimuli_target_circlediamonds.svg	stimuli_distractor_trianglediamonds.svg	4	yes	57	0	903
6.6.1	win	2022-12-14	18:48:31	18:52:22	228398	62bb23c919ebfd3b0448e942	156301734	1	practice_z	5	practice_z	13	stimuli_distractor_trianglediamonds.svg	stimuli_distractor_diamondtriangles.svg	16	no	0	1	2000
6.6.1	win	2022-12-14	18:48:31	18:52:22	228398	62bb23c919ebfd3b0448e942	156301734	1	practice_z	5	advance_on_keypress_ZEE	14	stimuli_distractor_trianglediamonds.svg	stimuli_distractor_diamondtriangles.svg	16	no	57	0	1054
6.6.1	win	2022-12-14	18:48:31	18:52:26	231864	62bb23c919ebfd3b0448e942	156301734	1	practice_z	5	practice_z	15	stimuli_distractor_trianglediamonds.svg	stimuli_target_circlediamonds.svg	10	yes	44	1	766
6.6.1	win	2022-12-14	18:48:31	18:52:26	231864	62bb23c919ebfd3b0448e942	156301734	1	practice_z	5	advance_on_keypress_ZEE	16	stimuli_distractor_trianglediamonds.svg	stimuli_target_circlediamonds.svg	10	yes	57	0	425
6.6.1	win	2022-12-14	18:48:31	18:52:29	234677	62bb23c919ebfd3b0448e942	156301734	1	practice_z	5	practice_z	17	stimuli_target_squarediamonds.svg	stimuli_distractor_trianglediamonds.svg	5	yes	44	1	745
6.6.1	win	2022-12-14	18:48:31	18:52:29	234677	62bb23c919ebfd3b0448e942	156301734	1	practice_z	5	advance_on_keypress_ZEE	18	stimuli_target_squarediamonds.svg	stimuli_distractor_trianglediamonds.svg	5	yes	57	0	796
6.6.1	win	2022-12-14	18:48:31	18:52:33	239115	62bb23c919ebfd3b0448e942	156301734	1	practice_z	5	practice_z	19	stimuli_target_diamondsquares.svg	stimuli_distractor_trianglediamonds.svg	6	yes	0	0	2000
6.6.1	win	2022-12-14	18:48:31	18:52:33	239115	62bb23c919ebfd3b0448e942	156301734	1	practice_z	5	advance_on_keypress_ZEE	20	stimuli_target_diamondsquares.svg	stimuli_distractor_trianglediamonds.svg	6	yes	57	0	1116
6.6.1	win	2022-12-14	18:48:31	18:52:37	242686	62bb23c919ebfd3b0448e942	156301734	1	practice_z	5	practice_z	21	stimuli_target_circlediamonds.svg	stimuli_distractor_diamondtriangles.svg	1	yes	44	1	806
6.6.1	win	2022-12-14	18:48:31	18:52:37	242686	62bb23c919ebfd3b0448e942	156301734	1	practice_z	5	advance_on_keypress_ZEE	22	stimuli_target_circlediamonds.svg	stimuli_distractor_diamondtriangles.svg	1	yes	57	0	1869
6.6.1	win	2022-12-14	18:48:31	18:52:41	246872	62bb23c919ebfd3b0448e942	156301734	1	practice_z	5	practice_z	23	stimuli_distractor_diamondtriangles.svg	stimuli_target_circletriangles.svg	7	yes	44	1	675
6.6.1	win	2022-12-14	18:48:31	18:52:41	246872	62bb23c919ebfd3b0448e942	156301734	1	practice_z	5	advance_on_keypress_ZEE	24	stimuli_distractor_diamondtriangles.svg	stimuli_target_circletriangles.svg	7	yes	57	0	455
6.6.1	win	2022-12-14	18:48:31	18:52:44	249775	62bb23c919ebfd3b0448e942	156301734	1	practice_z	5	practice_z	25	stimuli_target_diamondsquares.svg	stimuli_distractor_diamondtriangles.svg	3	yes	44	1	810
6.6.1	win	2022-12-14	18:48:31	18:52:44	249775	62bb23c919ebfd3b0448e942	156301734	1	practice_z	5	advance_on_keypress_ZEE	26	stimuli_target_diamondsquares.svg	stimuli_distractor_diamondtriangles.svg	3	yes	57	0	501
6.6.1	win	2022-12-14	18:48:31	18:52:48	253915	62bb23c919ebfd3b0448e942	156301734	1	practice_z	5	practice_z	27	stimuli_distractor_trianglediamonds.svg	stimuli_distractor_trianglediamonds.svg	15	no	0	1	2000
6.6.1	win	2022-12-14	18:48:31	18:52:48	253915	62bb23c919ebfd3b0448e942	156301734	1	practice_z	5	advance_on_keypress_ZEE	28	stimuli_distractor_trianglediamonds.svg	stimuli_distractor_trianglediamonds.svg	15	no	57	0	490
6.6.1	win	2022-12-14	18:48:31	18:52:52	258057	62bb23c919ebfd3b0448e942	156301734	1	practice_z	5	practice_z	29	stimuli_distractor_diamondtriangles.svg	stimuli_distractor_trianglediamonds.svg	14	no	0	1	2000
6.6.1	win	2022-12-14	18:48:31	18:52:52	258057	62bb23c919ebfd3b0448e942	156301734	1	practice_z	5	advance_on_keypress_ZEE	30	stimuli_distractor_diamondtriangles.svg	stimuli_distractor_trianglediamonds.svg	14	no	57	0	1802
6.6.1	win	2022-12-14	18:48:31	18:52:56	262397	62bb23c919ebfd3b0448e942	156301734	1	practice_z	5	practice_z	31	stimuli_target_squarediamonds.svg	stimuli_distractor_diamondtriangles.svg	2	yes	44	1	899
6.6.1	win	2022-12-14	18:48:31	18:52:56	262397	62bb23c919ebfd3b0448e942	156301734	1	practice_z	5	advance_on_keypress_ZEE	32	stimuli_target_squarediamonds.svg	stimuli_distractor_diamondtriangles.svg	2	yes	57	0	760
6.6.1	win	2022-12-14	18:48:31	18:53:11	277326	62bb23c919ebfd3b0448e942	156301734	1	main_z	7	main_z	1	stimuli_target_diamondcircles.svg	stimuli_distractor_trianglediamonds.svg	19	yes	44	1	812
6.6.1	win	2022-12-14	18:48:31	18:53:11	277326	62bb23c919ebfd3b0448e942	156301734	1	main_z	7	advance_on_keypress_ZEE	2	stimuli_target_diamondcircles.svg	stimuli_distractor_trianglediamonds.svg	19	yes	57	0	1127
6.6.1	win	2022-12-14	18:48:31	18:53:14	280386	62bb23c919ebfd3b0448e942	156301734	1	main_z	7	main_z	3	stimuli_distractor_diamondtriangles.svg	stimuli_target_trianglesquares.svg	30	yes	44	1	1289
6.6.1	win	2022-12-14	18:48:31	18:53:14	280386	62bb23c919ebfd3b0448e942	156301734	1	main_z	7	advance_on_keypress_ZEE	4	stimuli_distractor_diamondtriangles.svg	stimuli_target_trianglesquares.svg	30	yes	57	0	1092
6.6.1	win	2022-12-14	18:48:31	18:53:18	284114	62bb23c919ebfd3b0448e942	156301734	1	main_z	7	main_z	5	stimuli_distractor_diamondtriangles.svg	stimuli_distractor_trianglediamonds.svg	37	no	0	1	2000
6.6.1	win	2022-12-14	18:48:31	18:53:18	284114	62bb23c919ebfd3b0448e942	156301734	1	main_z	7	advance_on_keypress_ZEE	6	stimuli_distractor_diamondtriangles.svg	stimuli_distractor_trianglediamonds.svg	37	no	57	0	511
6.6.1	win	2022-12-14	18:48:31	18:53:20	285809	62bb23c919ebfd3b0448e942	156301734	1	main_z	7	main_z	7	stimuli_distractor_trianglediamonds.svg	stimuli_target_circlediamonds.svg	10	yes	44	1	545
6.6.1	win	2022-12-14	18:48:31	18:53:20	285809	62bb23c919ebfd3b0448e942	156301734	1	main_z	7	advance_on_keypress_ZEE	8	stimuli_distractor_trianglediamonds.svg	stimuli_target_circlediamonds.svg	10	yes	57	0	1166
6.6.1	win	2022-12-14	18:48:31	18:53:24	289613	62bb23c919ebfd3b0448e942	156301734	1	main_z	7	main_z	9	stimuli_distractor_trianglediamonds.svg	stimuli_distractor_trianglediamonds.svg	33	no	0	1	2000
6.6.1	win	2022-12-14	18:48:31	18:53:24	289613	62bb23c919ebfd3b0448e942	156301734	1	main_z	7	advance_on_keypress_ZEE	10	stimuli_distractor_trianglediamonds.svg	stimuli_distractor_trianglediamonds.svg	33	no	57	0	769
6.6.1	win	2022-12-14	18:48:31	18:53:26	291817	62bb23c919ebfd3b0448e942	156301734	1	main_z	7	main_z	11	stimuli_target_diamondcircles.svg	stimuli_distractor_diamondtriangles.svg	23	yes	44	1	787
6.6.1	win	2022-12-14	18:48:31	18:53:26	291817	62bb23c919ebfd3b0448e942	156301734	1	main_z	7	advance_on_keypress_ZEE	12	stimuli_target_diamondcircles.svg	stimuli_distractor_diamondtriangles.svg	23	yes	57	0	1314
6.6.1	win	2022-12-14	18:48:31	18:53:29	294584	62bb23c919ebfd3b0448e942	156301734	1	main_z	7	main_z	13	stimuli_distractor_trianglediamonds.svg	stimuli_target_circletriangles.svg	9	yes	44	1	804
6.6.1	win	2022-12-14	18:48:31	18:53:29	294584	62bb23c919ebfd3b0448e942	156301734	1	main_z	7	advance_on_keypress_ZEE	14	stimuli_distractor_trianglediamonds.svg	stimuli_target_circletriangles.svg	9	yes	57	0	1540
6.6.1	win	2022-12-14	18:48:31	18:53:33	298764	62bb23c919ebfd3b0448e942	156301734	1	main_z	7	main_z	15	stimuli_distractor_trianglediamonds.svg	stimuli_target_diamondcircles.svg	27	yes	0	0	2000
6.6.1	win	2022-12-14	18:48:31	18:53:33	298764	62bb23c919ebfd3b0448e942	156301734	1	main_z	7	advance_on_keypress_ZEE	16	stimuli_distractor_trianglediamonds.svg	stimuli_target_diamondcircles.svg	27	yes	57	0	845
6.6.1	win	2022-12-14	18:48:31	18:53:35	300930	62bb23c919ebfd3b0448e942	156301734	1	main_z	7	main_z	17	stimuli_target_trianglesquares.svg	stimuli_distractor_trianglediamonds.svg	18	yes	44	1	683
6.6.1	win	2022-12-14	18:48:31	18:53:35	300930	62bb23c919ebfd3b0448e942	156301734	1	main_z	7	advance_on_keypress_ZEE	18	stimuli_target_trianglesquares.svg	stimuli_distractor_trianglediamonds.svg	18	yes	57	0	2277
6.6.1	win	2022-12-14	18:48:31	18:53:39	304822	62bb23c919ebfd3b0448e942	156301734	1	main_z	7	main_z	19	stimuli_distractor_trianglediamonds.svg	stimuli_target_diamondsquares.svg	28	yes	44	1	975
6.6.1	win	2022-12-14	18:48:31	18:53:39	304822	62bb23c919ebfd3b0448e942	156301734	1	main_z	7	advance_on_keypress_ZEE	20	stimuli_distractor_trianglediamonds.svg	stimuli_target_diamondsquares.svg	28	yes	57	0	802
6.6.1	win	2022-12-14	18:48:31	18:53:42	308264	62bb23c919ebfd3b0448e942	156301734	1	main_z	7	main_z	21	stimuli_distractor_diamondtriangles.svg	stimuli_distractor_trianglediamonds.svg	38	no	0	1	2000
6.6.1	win	2022-12-14	18:48:31	18:53:42	308264	62bb23c919ebfd3b0448e942	156301734	1	main_z	7	advance_on_keypress_ZEE	22	stimuli_distractor_diamondtriangles.svg	stimuli_distractor_trianglediamonds.svg	38	no	57	0	682
6.6.1	win	2022-12-14	18:48:31	18:53:44	310199	62bb23c919ebfd3b0448e942	156301734	1	main_z	7	main_z	23	stimuli_distractor_trianglediamonds.svg	stimuli_target_trianglecircles.svg	25	yes	44	1	603
6.6.1	win	2022-12-14	18:48:31	18:53:44	310199	62bb23c919ebfd3b0448e942	156301734	1	main_z	7	advance_on_keypress_ZEE	24	stimuli_distractor_trianglediamonds.svg	stimuli_target_trianglecircles.svg	25	yes	57	0	1718
6.6.1	win	2022-12-14	18:48:31	18:53:47	313282	62bb23c919ebfd3b0448e942	156301734	1	main_z	7	main_z	25	stimuli_distractor_diamondtriangles.svg	stimuli_target_diamondcircles.svg	31	yes	44	1	718
6.6.1	win	2022-12-14	18:48:31	18:53:47	313282	62bb23c919ebfd3b0448e942	156301734	1	main_z	7	advance_on_keypress_ZEE	26	stimuli_distractor_diamondtriangles.svg	stimuli_target_diamondcircles.svg	31	yes	57	0	975
6.6.1	win	2022-12-14	18:48:31	18:53:50	315533	62bb23c919ebfd3b0448e942	156301734	1	main_z	7	main_z	27	stimuli_distractor_trianglediamonds.svg	stimuli_target_squarediamonds.svg	12	yes	44	1	636
6.6.1	win	2022-12-14	18:48:31	18:53:50	315533	62bb23c919ebfd3b0448e942	156301734	1	main_z	7	advance_on_keypress_ZEE	28	stimuli_distractor_trianglediamonds.svg	stimuli_target_squarediamonds.svg	12	yes	57	0	840
6.6.1	win	2022-12-14	18:48:31	18:53:53	319013	62bb23c919ebfd3b0448e942	156301734	1	main_z	7	main_z	29	stimuli_distractor_diamondtriangles.svg	stimuli_distractor_diamondtriangles.svg	40	no	0	1	2000
6.6.1	win	2022-12-14	18:48:31	18:53:53	319013	62bb23c919ebfd3b0448e942	156301734	1	main_z	7	advance_on_keypress_ZEE	30	stimuli_distractor_diamondtriangles.svg	stimuli_distractor_diamondtriangles.svg	40	no	57	0	484
6.6.1	win	2022-12-14	18:48:31	18:53:55	321000	62bb23c919ebfd3b0448e942	156301734	1	main_z	7	main_z	31	stimuli_distractor_diamondtriangles.svg	stimuli_target_squaretriangles.svg	15	yes	44	1	853
6.6.1	win	2022-12-14	18:48:31	18:53:55	321000	62bb23c919ebfd3b0448e942	156301734	1	main_z	7	advance_on_keypress_ZEE	32	stimuli_distractor_diamondtriangles.svg	stimuli_target_squaretriangles.svg	15	yes	57	0	818
6.6.1	win	2022-12-14	18:48:31	18:53:57	323092	62bb23c919ebfd3b0448e942	156301734	1	main_z	7	main_z	33	stimuli_target_circletriangles.svg	stimuli_distractor_trianglediamonds.svg	1	yes	44	1	628
6.6.1	win	2022-12-14	18:48:31	18:53:57	323092	62bb23c919ebfd3b0448e942	156301734	1	main_z	7	advance_on_keypress_ZEE	34	stimuli_target_circletriangles.svg	stimuli_distractor_trianglediamonds.svg	1	yes	57	0	648
6.6.1	win	2022-12-14	18:48:31	18:53:59	325095	62bb23c919ebfd3b0448e942	156301734	1	main_z	7	main_z	35	stimuli_target_squaretriangles.svg	stimuli_distractor_diamondtriangles.svg	7	yes	44	1	715
6.6.1	win	2022-12-14	18:48:31	18:53:59	325095	62bb23c919ebfd3b0448e942	156301734	1	main_z	7	advance_on_keypress_ZEE	36	stimuli_target_squaretriangles.svg	stimuli_distractor_diamondtriangles.svg	7	yes	57	0	791
6.6.1	win	2022-12-14	18:48:31	18:54:02	327502	62bb23c919ebfd3b0448e942	156301734	1	main_z	7	main_z	37	stimuli_target_diamondsquares.svg	stimuli_distractor_trianglediamonds.svg	20	yes	44	1	972
6.6.1	win	2022-12-14	18:48:31	18:54:02	327502	62bb23c919ebfd3b0448e942	156301734	1	main_z	7	advance_on_keypress_ZEE	38	stimuli_target_diamondsquares.svg	stimuli_distractor_trianglediamonds.svg	20	yes	57	0	1001
6.6.1	win	2022-12-14	18:48:31	18:54:04	329730	62bb23c919ebfd3b0448e942	156301734	1	main_z	7	main_z	39	stimuli_distractor_trianglediamonds.svg	stimuli_target_squaretriangles.svg	11	yes	44	1	583
6.6.1	win	2022-12-14	18:48:31	18:54:04	329730	62bb23c919ebfd3b0448e942	156301734	1	main_z	7	advance_on_keypress_ZEE	40	stimuli_distractor_trianglediamonds.svg	stimuli_target_squaretriangles.svg	11	yes	57	0	523
6.6.1	win	2022-12-14	18:48:31	18:54:06	331485	62bb23c919ebfd3b0448e942	156301734	1	main_z	7	main_z	41	stimuli_distractor_diamondtriangles.svg	stimuli_target_squarediamonds.svg	16	yes	44	1	588
6.6.1	win	2022-12-14	18:48:31	18:54:06	331485	62bb23c919ebfd3b0448e942	156301734	1	main_z	7	advance_on_keypress_ZEE	42	stimuli_distractor_diamondtriangles.svg	stimuli_target_squarediamonds.svg	16	yes	57	0	551
6.6.1	win	2022-12-14	18:48:31	18:54:07	333172	62bb23c919ebfd3b0448e942	156301734	1	main_z	7	main_z	43	stimuli_target_squarediamonds.svg	stimuli_distractor_diamondtriangles.svg	8	yes	44	1	492
6.6.1	win	2022-12-14	18:48:31	18:54:07	333172	62bb23c919ebfd3b0448e942	156301734	1	main_z	7	advance_on_keypress_ZEE	44	stimuli_target_squarediamonds.svg	stimuli_distractor_diamondtriangles.svg	8	yes	57	0	555
6.6.1	win	2022-12-14	18:48:31	18:54:09	334815	62bb23c919ebfd3b0448e942	156301734	1	main_z	7	main_z	45	stimuli_target_squarediamonds.svg	stimuli_distractor_trianglediamonds.svg	4	yes	44	1	451
6.6.1	win	2022-12-14	18:48:31	18:54:09	334815	62bb23c919ebfd3b0448e942	156301734	1	main_z	7	advance_on_keypress_ZEE	46	stimuli_target_squarediamonds.svg	stimuli_distractor_trianglediamonds.svg	4	yes	57	0	502
6.6.1	win	2022-12-14	18:48:31	18:54:10	336374	62bb23c919ebfd3b0448e942	156301734	1	main_z	7	main_z	47	stimuli_target_trianglecircles.svg	stimuli_distractor_diamondtriangles.svg	21	yes	44	1	403
6.6.1	win	2022-12-14	18:48:31	18:54:10	336374	62bb23c919ebfd3b0448e942	156301734	1	main_z	7	advance_on_keypress_ZEE	48	stimuli_target_trianglecircles.svg	stimuli_distractor_diamondtriangles.svg	21	yes	57	0	573
6.6.1	win	2022-12-14	18:48:31	18:54:14	339580	62bb23c919ebfd3b0448e942	156301734	1	main_z	7	main_z	49	stimuli_distractor_trianglediamonds.svg	stimuli_distractor_diamondtriangles.svg	36	no	0	1	2000
6.6.1	win	2022-12-14	18:48:31	18:54:14	339580	62bb23c919ebfd3b0448e942	156301734	1	main_z	7	advance_on_keypress_ZEE	50	stimuli_distractor_trianglediamonds.svg	stimuli_distractor_diamondtriangles.svg	36	no	57	0	753
6.6.1	win	2022-12-14	18:48:31	18:54:17	342981	62bb23c919ebfd3b0448e942	156301734	1	main_z	7	main_z	51	stimuli_distractor_diamondtriangles.svg	stimuli_distractor_diamondtriangles.svg	39	no	0	1	2000
6.6.1	win	2022-12-14	18:48:31	18:54:17	342981	62bb23c919ebfd3b0448e942	156301734	1	main_z	7	advance_on_keypress_ZEE	52	stimuli_distractor_diamondtriangles.svg	stimuli_distractor_diamondtriangles.svg	39	no	57	0	571
6.6.1	win	2022-12-14	18:48:31	18:54:19	344625	62bb23c919ebfd3b0448e942	156301734	1	main_z	7	main_z	53	stimuli_target_diamondsquares.svg	stimuli_distractor_diamondtriangles.svg	24	yes	44	1	428
6.6.1	win	2022-12-14	18:48:31	18:54:19	344625	62bb23c919ebfd3b0448e942	156301734	1	main_z	7	advance_on_keypress_ZEE	54	stimuli_target_diamondsquares.svg	stimuli_distractor_diamondtriangles.svg	24	yes	57	0	984
6.6.1	win	2022-12-14	18:48:31	18:54:21	346740	62bb23c919ebfd3b0448e942	156301734	1	main_z	7	main_z	55	stimuli_target_circlediamonds.svg	stimuli_distractor_trianglediamonds.svg	2	yes	44	1	493
6.6.1	win	2022-12-14	18:48:31	18:54:21	346740	62bb23c919ebfd3b0448e942	156301734	1	main_z	7	advance_on_keypress_ZEE	56	stimuli_target_circlediamonds.svg	stimuli_distractor_trianglediamonds.svg	2	yes	57	0	893
6.6.1	win	2022-12-14	18:48:31	18:54:24	350263	62bb23c919ebfd3b0448e942	156301734	1	main_z	7	main_z	57	stimuli_distractor_trianglediamonds.svg	stimuli_distractor_diamondtriangles.svg	35	no	0	1	2000
6.6.1	win	2022-12-14	18:48:31	18:54:24	350263	62bb23c919ebfd3b0448e942	156301734	1	main_z	7	advance_on_keypress_ZEE	58	stimuli_distractor_trianglediamonds.svg	stimuli_distractor_diamondtriangles.svg	35	no	57	0	1590
6.6.1	win	2022-12-14	18:48:31	18:54:27	352973	62bb23c919ebfd3b0448e942	156301734	1	main_z	7	main_z	59	stimuli_target_trianglecircles.svg	stimuli_distractor_trianglediamonds.svg	17	yes	44	1	476
6.6.1	win	2022-12-14	18:48:31	18:54:27	352973	62bb23c919ebfd3b0448e942	156301734	1	main_z	7	advance_on_keypress_ZEE	60	stimuli_target_trianglecircles.svg	stimuli_distractor_trianglediamonds.svg	17	yes	57	0	780
6.6.1	win	2022-12-14	18:48:31	18:54:29	354863	62bb23c919ebfd3b0448e942	156301734	1	main_z	7	main_z	61	stimuli_distractor_diamondtriangles.svg	stimuli_target_circletriangles.svg	13	yes	44	1	483
6.6.1	win	2022-12-14	18:48:31	18:54:29	354863	62bb23c919ebfd3b0448e942	156301734	1	main_z	7	advance_on_keypress_ZEE	62	stimuli_distractor_diamondtriangles.svg	stimuli_target_circletriangles.svg	13	yes	57	0	905
6.6.1	win	2022-12-14	18:48:31	18:54:32	358414	62bb23c919ebfd3b0448e942	156301734	1	main_z	7	main_z	63	stimuli_distractor_trianglediamonds.svg	stimuli_distractor_trianglediamonds.svg	34	no	0	1	2000
6.6.1	win	2022-12-14	18:48:31	18:54:32	358414	62bb23c919ebfd3b0448e942	156301734	1	main_z	7	advance_on_keypress_ZEE	64	stimuli_distractor_trianglediamonds.svg	stimuli_distractor_trianglediamonds.svg	34	no	57	0	371
6.6.1	win	2022-12-14	18:48:31	18:54:34	360195	62bb23c919ebfd3b0448e942	156301734	1	main_z	7	main_z	65	stimuli_distractor_trianglediamonds.svg	stimuli_target_trianglesquares.svg	26	yes	44	1	764
6.6.1	win	2022-12-14	18:48:31	18:54:34	360195	62bb23c919ebfd3b0448e942	156301734	1	main_z	7	advance_on_keypress_ZEE	66	stimuli_distractor_trianglediamonds.svg	stimuli_target_trianglesquares.svg	26	yes	57	0	702
6.6.1	win	2022-12-14	18:48:31	18:54:36	361997	62bb23c919ebfd3b0448e942	156301734	1	main_z	7	main_z	67	stimuli_distractor_diamondtriangles.svg	stimuli_target_trianglecircles.svg	29	yes	44	1	450
6.6.1	win	2022-12-14	18:48:31	18:54:36	361997	62bb23c919ebfd3b0448e942	156301734	1	main_z	7	advance_on_keypress_ZEE	68	stimuli_distractor_diamondtriangles.svg	stimuli_target_trianglecircles.svg	29	yes	57	0	1017
6.6.1	win	2022-12-14	18:48:31	18:54:38	364110	62bb23c919ebfd3b0448e942	156301734	1	main_z	7	main_z	69	stimuli_target_circlediamonds.svg	stimuli_distractor_diamondtriangles.svg	6	yes	44	1	446
6.6.1	win	2022-12-14	18:48:31	18:54:38	364110	62bb23c919ebfd3b0448e942	156301734	1	main_z	7	advance_on_keypress_ZEE	70	stimuli_target_circlediamonds.svg	stimuli_distractor_diamondtriangles.svg	6	yes	57	0	806
6.6.1	win	2022-12-14	18:48:31	18:54:40	366248	62bb23c919ebfd3b0448e942	156301734	1	main_z	7	main_z	71	stimuli_target_circletriangles.svg	stimuli_distractor_diamondtriangles.svg	5	yes	44	1	701
6.6.1	win	2022-12-14	18:48:31	18:54:40	366248	62bb23c919ebfd3b0448e942	156301734	1	main_z	7	advance_on_keypress_ZEE	72	stimuli_target_circletriangles.svg	stimuli_distractor_diamondtriangles.svg	5	yes	57	0	996
6.6.1	win	2022-12-14	18:48:31	18:54:42	368340	62bb23c919ebfd3b0448e942	156301734	1	main_z	7	main_z	73	stimuli_distractor_diamondtriangles.svg	stimuli_target_circlediamonds.svg	14	yes	44	1	443
6.6.1	win	2022-12-14	18:48:31	18:54:42	368340	62bb23c919ebfd3b0448e942	156301734	1	main_z	7	advance_on_keypress_ZEE	74	stimuli_distractor_diamondtriangles.svg	stimuli_target_circlediamonds.svg	14	yes	57	0	1142
6.6.1	win	2022-12-14	18:48:31	18:54:45	370748	62bb23c919ebfd3b0448e942	156301734	1	main_z	7	main_z	75	stimuli_distractor_diamondtriangles.svg	stimuli_target_diamondsquares.svg	32	yes	44	1	634
6.6.1	win	2022-12-14	18:48:31	18:54:45	370748	62bb23c919ebfd3b0448e942	156301734	1	main_z	7	advance_on_keypress_ZEE	76	stimuli_distractor_diamondtriangles.svg	stimuli_target_diamondsquares.svg	32	yes	57	0	547
6.6.1	win	2022-12-14	18:48:31	18:54:47	372480	62bb23c919ebfd3b0448e942	156301734	1	main_z	7	main_z	77	stimuli_target_trianglesquares.svg	stimuli_distractor_diamondtriangles.svg	22	yes	44	1	534
6.6.1	win	2022-12-14	18:48:31	18:54:47	372480	62bb23c919ebfd3b0448e942	156301734	1	main_z	7	advance_on_keypress_ZEE	78	stimuli_target_trianglesquares.svg	stimuli_distractor_diamondtriangles.svg	22	yes	57	0	906
6.6.1	win	2022-12-14	18:48:31	18:54:48	374415	62bb23c919ebfd3b0448e942	156301734	1	main_z	7	main_z	79	stimuli_target_squaretriangles.svg	stimuli_distractor_trianglediamonds.svg	3	yes	44	1	386
6.6.1	win	2022-12-14	18:48:31	18:54:48	374415	62bb23c919ebfd3b0448e942	156301734	1	main_z	7	advance_on_keypress_ZEE	80	stimuli_target_squaretriangles.svg	stimuli_distractor_trianglediamonds.svg	3	yes	57	0	659
6.6.1	win	2022-12-14	18:48:31	18:54:52	377713	62bb23c919ebfd3b0448e942	156301734	1	main_z	7	main_z	81	stimuli_distractor_diamondtriangles.svg	stimuli_distractor_diamondtriangles.svg	40	no	0	1	2000
6.6.1	win	2022-12-14	18:48:31	18:54:52	377713	62bb23c919ebfd3b0448e942	156301734	1	main_z	7	advance_on_keypress_ZEE	82	stimuli_distractor_diamondtriangles.svg	stimuli_distractor_diamondtriangles.svg	40	no	57	0	465
6.6.1	win	2022-12-14	18:48:31	18:54:53	379163	62bb23c919ebfd3b0448e942	156301734	1	main_z	7	main_z	83	stimuli_distractor_trianglediamonds.svg	stimuli_target_trianglecircles.svg	25	yes	44	1	333
6.6.1	win	2022-12-14	18:48:31	18:54:53	379163	62bb23c919ebfd3b0448e942	156301734	1	main_z	7	advance_on_keypress_ZEE	84	stimuli_distractor_trianglediamonds.svg	stimuli_target_trianglecircles.svg	25	yes	57	0	681
6.6.1	win	2022-12-14	18:48:31	18:54:55	381013	62bb23c919ebfd3b0448e942	156301734	1	main_z	7	main_z	85	stimuli_distractor_trianglediamonds.svg	stimuli_target_diamondsquares.svg	28	yes	44	1	511
6.6.1	win	2022-12-14	18:48:31	18:54:55	381013	62bb23c919ebfd3b0448e942	156301734	1	main_z	7	advance_on_keypress_ZEE	86	stimuli_distractor_trianglediamonds.svg	stimuli_target_diamondsquares.svg	28	yes	57	0	1059
6.6.1	win	2022-12-14	18:48:31	18:54:57	383146	62bb23c919ebfd3b0448e942	156301734	1	main_z	7	main_z	87	stimuli_target_circletriangles.svg	stimuli_distractor_trianglediamonds.svg	1	yes	44	1	432
6.6.1	win	2022-12-14	18:48:31	18:54:57	383146	62bb23c919ebfd3b0448e942	156301734	1	main_z	7	advance_on_keypress_ZEE	88	stimuli_target_circletriangles.svg	stimuli_distractor_trianglediamonds.svg	1	yes	57	0	882
6.6.1	win	2022-12-14	18:48:31	18:54:59	385103	62bb23c919ebfd3b0448e942	156301734	1	main_z	7	main_z	89	stimuli_distractor_trianglediamonds.svg	stimuli_target_circletriangles.svg	9	yes	44	1	423
6.6.1	win	2022-12-14	18:48:31	18:54:59	385103	62bb23c919ebfd3b0448e942	156301734	1	main_z	7	advance_on_keypress_ZEE	90	stimuli_distractor_trianglediamonds.svg	stimuli_target_circletriangles.svg	9	yes	57	0	732
6.6.1	win	2022-12-14	18:48:31	18:55:01	387197	62bb23c919ebfd3b0448e942	156301734	1	main_z	7	main_z	91	stimuli_distractor_diamondtriangles.svg	stimuli_target_diamondsquares.svg	32	yes	44	1	716
6.6.1	win	2022-12-14	18:48:31	18:55:01	387197	62bb23c919ebfd3b0448e942	156301734	1	main_z	7	advance_on_keypress_ZEE	92	stimuli_distractor_diamondtriangles.svg	stimuli_target_diamondsquares.svg	32	yes	57	0	1241
6.6.1	win	2022-12-14	18:48:31	18:55:03	389446	62bb23c919ebfd3b0448e942	156301734	1	main_z	7	main_z	93	stimuli_target_trianglecircles.svg	stimuli_distractor_diamondtriangles.svg	21	yes	44	1	366
6.6.1	win	2022-12-14	18:48:31	18:55:03	389446	62bb23c919ebfd3b0448e942	156301734	1	main_z	7	advance_on_keypress_ZEE	94	stimuli_target_trianglecircles.svg	stimuli_distractor_diamondtriangles.svg	21	yes	57	0	724
6.6.1	win	2022-12-14	18:48:31	18:55:05	391330	62bb23c919ebfd3b0448e942	156301734	1	main_z	7	main_z	95	stimuli_distractor_trianglediamonds.svg	stimuli_distractor_diamondtriangles.svg	35	no	44	0	500
6.6.1	win	2022-12-14	18:48:31	18:55:05	391330	62bb23c919ebfd3b0448e942	156301734	1	main_z	7	advance_on_keypress_ZEE	96	stimuli_distractor_trianglediamonds.svg	stimuli_distractor_diamondtriangles.svg	35	no	57	0	1181
6.6.1	win	2022-12-14	18:48:31	18:55:08	393653	62bb23c919ebfd3b0448e942	156301734	1	main_z	7	main_z	97	stimuli_target_squarediamonds.svg	stimuli_distractor_trianglediamonds.svg	4	yes	44	1	489
6.6.1	win	2022-12-14	18:48:31	18:55:08	393653	62bb23c919ebfd3b0448e942	156301734	1	main_z	7	advance_on_keypress_ZEE	98	stimuli_target_squarediamonds.svg	stimuli_distractor_trianglediamonds.svg	4	yes	57	0	642
6.6.1	win	2022-12-14	18:48:31	18:55:09	395296	62bb23c919ebfd3b0448e942	156301734	1	main_z	7	main_z	99	stimuli_target_diamondcircles.svg	stimuli_distractor_trianglediamonds.svg	19	yes	44	1	366
6.6.1	win	2022-12-14	18:48:31	18:55:09	395296	62bb23c919ebfd3b0448e942	156301734	1	main_z	7	advance_on_keypress_ZEE	100	stimuli_target_diamondcircles.svg	stimuli_distractor_trianglediamonds.svg	19	yes	57	0	1017
6.6.1	win	2022-12-14	18:48:31	18:55:13	398964	62bb23c919ebfd3b0448e942	156301734	1	main_z	7	main_z	101	stimuli_distractor_diamondtriangles.svg	stimuli_distractor_trianglediamonds.svg	37	no	0	1	2000
6.6.1	win	2022-12-14	18:48:31	18:55:13	398964	62bb23c919ebfd3b0448e942	156301734	1	main_z	7	advance_on_keypress_ZEE	102	stimuli_distractor_diamondtriangles.svg	stimuli_distractor_trianglediamonds.svg	37	no	57	0	636
6.6.1	win	2022-12-14	18:48:31	18:55:15	400583	62bb23c919ebfd3b0448e942	156301734	1	main_z	7	main_z	103	stimuli_distractor_trianglediamonds.svg	stimuli_distractor_trianglediamonds.svg	34	no	44	0	336
6.6.1	win	2022-12-14	18:48:31	18:55:15	400583	62bb23c919ebfd3b0448e942	156301734	1	main_z	7	advance_on_keypress_ZEE	104	stimuli_distractor_trianglediamonds.svg	stimuli_distractor_trianglediamonds.svg	34	no	57	0	819
6.6.1	win	2022-12-14	18:48:31	18:55:18	404047	62bb23c919ebfd3b0448e942	156301734	1	main_z	7	main_z	105	stimuli_distractor_diamondtriangles.svg	stimuli_distractor_diamondtriangles.svg	39	no	0	1	2000
6.6.1	win	2022-12-14	18:48:31	18:55:18	404047	62bb23c919ebfd3b0448e942	156301734	1	main_z	7	advance_on_keypress_ZEE	106	stimuli_distractor_diamondtriangles.svg	stimuli_distractor_diamondtriangles.svg	39	no	57	0	344
6.6.1	win	2022-12-14	18:48:31	18:55:19	405443	62bb23c919ebfd3b0448e942	156301734	1	main_z	7	main_z	107	stimuli_distractor_trianglediamonds.svg	stimuli_target_squarediamonds.svg	12	yes	44	1	396
6.6.1	win	2022-12-14	18:48:31	18:55:19	405443	62bb23c919ebfd3b0448e942	156301734	1	main_z	7	advance_on_keypress_ZEE	108	stimuli_distractor_trianglediamonds.svg	stimuli_target_squarediamonds.svg	12	yes	57	0	694
6.6.1	win	2022-12-14	18:48:31	18:55:22	407941	62bb23c919ebfd3b0448e942	156301734	1	main_z	7	main_z	109	stimuli_distractor_diamondtriangles.svg	stimuli_target_trianglesquares.svg	30	yes	44	1	1177
6.6.1	win	2022-12-14	18:48:31	18:55:22	407941	62bb23c919ebfd3b0448e942	156301734	1	main_z	7	advance_on_keypress_ZEE	110	stimuli_distractor_diamondtriangles.svg	stimuli_target_trianglesquares.svg	30	yes	57	0	871
6.6.1	win	2022-12-14	18:48:31	18:55:24	409854	62bb23c919ebfd3b0448e942	156301734	1	main_z	7	main_z	111	stimuli_target_circlediamonds.svg	stimuli_distractor_trianglediamonds.svg	2	yes	44	1	407
6.6.1	win	2022-12-14	18:48:31	18:55:24	409854	62bb23c919ebfd3b0448e942	156301734	1	main_z	7	advance_on_keypress_ZEE	112	stimuli_target_circlediamonds.svg	stimuli_distractor_trianglediamonds.svg	2	yes	57	0	1182
6.6.1	win	2022-12-14	18:48:31	18:55:27	412531	62bb23c919ebfd3b0448e942	156301734	1	main_z	7	main_z	113	stimuli_target_diamondsquares.svg	stimuli_distractor_trianglediamonds.svg	20	yes	44	1	851
6.6.1	win	2022-12-14	18:48:31	18:55:27	412531	62bb23c919ebfd3b0448e942	156301734	1	main_z	7	advance_on_keypress_ZEE	114	stimuli_target_diamondsquares.svg	stimuli_distractor_trianglediamonds.svg	20	yes	57	0	1266
6.6.1	win	2022-12-14	18:48:31	18:55:29	414781	62bb23c919ebfd3b0448e942	156301734	1	main_z	7	main_z	115	stimuli_target_trianglecircles.svg	stimuli_distractor_trianglediamonds.svg	17	yes	44	1	334
6.6.1	win	2022-12-14	18:48:31	18:55:29	414781	62bb23c919ebfd3b0448e942	156301734	1	main_z	7	advance_on_keypress_ZEE	116	stimuli_target_trianglecircles.svg	stimuli_distractor_trianglediamonds.svg	17	yes	57	0	1109
6.6.1	win	2022-12-14	18:48:31	18:55:31	416965	62bb23c919ebfd3b0448e942	156301734	1	main_z	7	main_z	117	stimuli_distractor_diamondtriangles.svg	stimuli_target_circlediamonds.svg	14	yes	44	1	435
6.6.1	win	2022-12-14	18:48:31	18:55:31	416965	62bb23c919ebfd3b0448e942	156301734	1	main_z	7	advance_on_keypress_ZEE	118	stimuli_distractor_diamondtriangles.svg	stimuli_target_circlediamonds.svg	14	yes	57	0	1041
6.6.1	win	2022-12-14	18:48:31	18:55:33	418988	62bb23c919ebfd3b0448e942	156301734	1	main_z	7	main_z	119	stimuli_target_diamondsquares.svg	stimuli_distractor_diamondtriangles.svg	24	yes	44	1	342
6.6.1	win	2022-12-14	18:48:31	18:55:33	418988	62bb23c919ebfd3b0448e942	156301734	1	main_z	7	advance_on_keypress_ZEE	120	stimuli_target_diamondsquares.svg	stimuli_distractor_diamondtriangles.svg	24	yes	57	0	3997
6.6.1	win	2022-12-14	18:48:31	18:55:38	424146	62bb23c919ebfd3b0448e942	156301734	1	main_z	7	main_z	121	stimuli_distractor_diamondtriangles.svg	stimuli_target_squaretriangles.svg	15	yes	44	1	511
6.6.1	win	2022-12-14	18:48:31	18:55:38	424146	62bb23c919ebfd3b0448e942	156301734	1	main_z	7	advance_on_keypress_ZEE	122	stimuli_distractor_diamondtriangles.svg	stimuli_target_squaretriangles.svg	15	yes	57	0	1913
6.6.1	win	2022-12-14	18:48:31	18:55:41	427178	62bb23c919ebfd3b0448e942	156301734	1	main_z	7	main_z	123	stimuli_target_diamondcircles.svg	stimuli_distractor_diamondtriangles.svg	23	yes	44	1	465
6.6.1	win	2022-12-14	18:48:31	18:55:41	427178	62bb23c919ebfd3b0448e942	156301734	1	main_z	7	advance_on_keypress_ZEE	124	stimuli_target_diamondcircles.svg	stimuli_distractor_diamondtriangles.svg	23	yes	57	0	769
6.6.1	win	2022-12-14	18:48:31	18:55:43	428979	62bb23c919ebfd3b0448e942	156301734	1	main_z	7	main_z	125	stimuli_target_circletriangles.svg	stimuli_distractor_diamondtriangles.svg	5	yes	44	1	382
6.6.1	win	2022-12-14	18:48:31	18:55:43	428979	62bb23c919ebfd3b0448e942	156301734	1	main_z	7	advance_on_keypress_ZEE	126	stimuli_target_circletriangles.svg	stimuli_distractor_diamondtriangles.svg	5	yes	57	0	724
6.6.1	win	2022-12-14	18:48:31	18:55:45	430801	62bb23c919ebfd3b0448e942	156301734	1	main_z	7	main_z	127	stimuli_target_trianglesquares.svg	stimuli_distractor_trianglediamonds.svg	18	yes	44	1	454
6.6.1	win	2022-12-14	18:48:31	18:55:45	430801	62bb23c919ebfd3b0448e942	156301734	1	main_z	7	advance_on_keypress_ZEE	128	stimuli_target_trianglesquares.svg	stimuli_distractor_trianglediamonds.svg	18	yes	57	0	932
6.6.1	win	2022-12-14	18:48:31	18:55:48	434380	62bb23c919ebfd3b0448e942	156301734	1	main_z	7	main_z	129	stimuli_distractor_diamondtriangles.svg	stimuli_distractor_trianglediamonds.svg	38	no	0	1	2000
6.6.1	win	2022-12-14	18:48:31	18:55:48	434380	62bb23c919ebfd3b0448e942	156301734	1	main_z	7	advance_on_keypress_ZEE	130	stimuli_distractor_diamondtriangles.svg	stimuli_distractor_trianglediamonds.svg	38	no	57	0	589
6.6.1	win	2022-12-14	18:48:31	18:55:51	436516	62bb23c919ebfd3b0448e942	156301734	1	main_z	7	main_z	131	stimuli_target_trianglesquares.svg	stimuli_distractor_diamondtriangles.svg	22	yes	44	1	902
6.6.1	win	2022-12-14	18:48:31	18:55:51	436516	62bb23c919ebfd3b0448e942	156301734	1	main_z	7	advance_on_keypress_ZEE	132	stimuli_target_trianglesquares.svg	stimuli_distractor_diamondtriangles.svg	22	yes	57	0	886
6.6.1	win	2022-12-14	18:48:31	18:55:52	438451	62bb23c919ebfd3b0448e942	156301734	1	main_z	7	main_z	133	stimuli_distractor_trianglediamonds.svg	stimuli_target_circlediamonds.svg	10	yes	44	1	405
6.6.1	win	2022-12-14	18:48:31	18:55:52	438451	62bb23c919ebfd3b0448e942	156301734	1	main_z	7	advance_on_keypress_ZEE	134	stimuli_distractor_trianglediamonds.svg	stimuli_target_circlediamonds.svg	10	yes	57	0	731
6.6.1	win	2022-12-14	18:48:31	18:55:54	440364	62bb23c919ebfd3b0448e942	156301734	1	main_z	7	main_z	135	stimuli_distractor_diamondtriangles.svg	stimuli_target_trianglecircles.svg	29	yes	44	1	534
6.6.1	win	2022-12-14	18:48:31	18:55:54	440364	62bb23c919ebfd3b0448e942	156301734	1	main_z	7	advance_on_keypress_ZEE	136	stimuli_distractor_diamondtriangles.svg	stimuli_target_trianglecircles.svg	29	yes	57	0	997
6.6.1	win	2022-12-14	18:48:31	18:55:56	442321	62bb23c919ebfd3b0448e942	156301734	1	main_z	7	main_z	137	stimuli_distractor_diamondtriangles.svg	stimuli_target_circletriangles.svg	13	yes	44	1	324
6.6.1	win	2022-12-14	18:48:31	18:55:56	442321	62bb23c919ebfd3b0448e942	156301734	1	main_z	7	advance_on_keypress_ZEE	138	stimuli_distractor_diamondtriangles.svg	stimuli_target_circletriangles.svg	13	yes	57	0	1342
6.6.1	win	2022-12-14	18:48:31	18:55:59	444752	62bb23c919ebfd3b0448e942	156301734	1	main_z	7	main_z	139	stimuli_distractor_trianglediamonds.svg	stimuli_target_squaretriangles.svg	11	yes	44	1	455
6.6.1	win	2022-12-14	18:48:31	18:55:59	444752	62bb23c919ebfd3b0448e942	156301734	1	main_z	7	advance_on_keypress_ZEE	140	stimuli_distractor_trianglediamonds.svg	stimuli_target_squaretriangles.svg	11	yes	57	0	888
6.6.1	win	2022-12-14	18:48:31	18:56:01	446710	62bb23c919ebfd3b0448e942	156301734	1	main_z	7	main_z	141	stimuli_distractor_diamondtriangles.svg	stimuli_target_squarediamonds.svg	16	yes	44	1	429
6.6.1	win	2022-12-14	18:48:31	18:56:01	446710	62bb23c919ebfd3b0448e942	156301734	1	main_z	7	advance_on_keypress_ZEE	142	stimuli_distractor_diamondtriangles.svg	stimuli_target_squarediamonds.svg	16	yes	57	0	789
6.6.1	win	2022-12-14	18:48:31	18:56:03	448712	62bb23c919ebfd3b0448e942	156301734	1	main_z	7	main_z	143	stimuli_distractor_trianglediamonds.svg	stimuli_target_trianglesquares.svg	26	yes	44	1	565
6.6.1	win	2022-12-14	18:48:31	18:56:03	448712	62bb23c919ebfd3b0448e942	156301734	1	main_z	7	advance_on_keypress_ZEE	144	stimuli_distractor_trianglediamonds.svg	stimuli_target_trianglesquares.svg	26	yes	57	0	1265
6.6.1	win	2022-12-14	18:48:31	18:56:07	452630	62bb23c919ebfd3b0448e942	156301734	1	main_z	7	main_z	145	stimuli_distractor_trianglediamonds.svg	stimuli_distractor_diamondtriangles.svg	36	no	0	1	2000
6.6.1	win	2022-12-14	18:48:31	18:56:07	452630	62bb23c919ebfd3b0448e942	156301734	1	main_z	7	advance_on_keypress_ZEE	146	stimuli_distractor_trianglediamonds.svg	stimuli_distractor_diamondtriangles.svg	36	no	57	0	655
6.6.1	win	2022-12-14	18:48:31	18:56:08	454336	62bb23c919ebfd3b0448e942	156301734	1	main_z	7	main_z	147	stimuli_distractor_diamondtriangles.svg	stimuli_target_diamondcircles.svg	31	yes	44	1	407
6.6.1	win	2022-12-14	18:48:31	18:56:08	454336	62bb23c919ebfd3b0448e942	156301734	1	main_z	7	advance_on_keypress_ZEE	148	stimuli_distractor_diamondtriangles.svg	stimuli_target_diamondcircles.svg	31	yes	57	0	1003
6.6.1	win	2022-12-14	18:48:31	18:56:11	456474	62bb23c919ebfd3b0448e942	156301734	1	main_z	7	main_z	149	stimuli_target_squarediamonds.svg	stimuli_distractor_diamondtriangles.svg	8	yes	44	1	494
6.6.1	win	2022-12-14	18:48:31	18:56:11	456474	62bb23c919ebfd3b0448e942	156301734	1	main_z	7	advance_on_keypress_ZEE	150	stimuli_target_squarediamonds.svg	stimuli_distractor_diamondtriangles.svg	8	yes	57	0	1367
6.6.1	win	2022-12-14	18:48:31	18:56:13	458972	62bb23c919ebfd3b0448e942	156301734	1	main_z	7	main_z	151	stimuli_target_squaretriangles.svg	stimuli_distractor_trianglediamonds.svg	3	yes	44	1	491
6.6.1	win	2022-12-14	18:48:31	18:56:13	458972	62bb23c919ebfd3b0448e942	156301734	1	main_z	7	advance_on_keypress_ZEE	152	stimuli_target_squaretriangles.svg	stimuli_distractor_trianglediamonds.svg	3	yes	57	0	802
6.6.1	win	2022-12-14	18:48:31	18:56:15	460749	62bb23c919ebfd3b0448e942	156301734	1	main_z	7	main_z	153	stimuli_target_circlediamonds.svg	stimuli_distractor_diamondtriangles.svg	6	yes	44	1	336
6.6.1	win	2022-12-14	18:48:31	18:56:15	460749	62bb23c919ebfd3b0448e942	156301734	1	main_z	7	advance_on_keypress_ZEE	154	stimuli_target_circlediamonds.svg	stimuli_distractor_diamondtriangles.svg	6	yes	57	0	706
6.6.1	win	2022-12-14	18:48:31	18:56:17	462527	62bb23c919ebfd3b0448e942	156301734	1	main_z	7	main_z	155	stimuli_distractor_trianglediamonds.svg	stimuli_target_diamondcircles.svg	27	yes	44	1	430
6.6.1	win	2022-12-14	18:48:31	18:56:17	462527	62bb23c919ebfd3b0448e942	156301734	1	main_z	7	advance_on_keypress_ZEE	156	stimuli_distractor_trianglediamonds.svg	stimuli_target_diamondcircles.svg	27	yes	57	0	829
6.6.1	win	2022-12-14	18:48:31	18:56:19	464497	62bb23c919ebfd3b0448e942	156301734	1	main_z	7	main_z	157	stimuli_target_squaretriangles.svg	stimuli_distractor_diamondtriangles.svg	7	yes	44	1	504
6.6.1	win	2022-12-14	18:48:31	18:56:19	464497	62bb23c919ebfd3b0448e942	156301734	1	main_z	7	advance_on_keypress_ZEE	158	stimuli_target_squaretriangles.svg	stimuli_distractor_diamondtriangles.svg	7	yes	57	0	600
6.6.1	win	2022-12-14	18:48:31	18:56:22	467746	62bb23c919ebfd3b0448e942	156301734	1	main_z	7	main_z	159	stimuli_distractor_trianglediamonds.svg	stimuli_distractor_trianglediamonds.svg	33	no	0	1	2000
6.6.1	win	2022-12-14	18:48:31	18:56:22	467746	62bb23c919ebfd3b0448e942	156301734	1	main_z	7	advance_on_keypress_ZEE	160	stimuli_distractor_trianglediamonds.svg	stimuli_distractor_trianglediamonds.svg	33	no	57	0	343
6.6.1	win	2022-12-14	18:48:31	18:56:51	497392	62bb23c919ebfd3b0448e942	156301734	1	practice_slash	9	practice_slash	1	stimuli_distractor_trianglediamonds.svg	stimuli_distractor_trianglediamonds.svg	15	no	53	0	478
6.6.1	win	2022-12-14	18:48:31	18:56:51	497392	62bb23c919ebfd3b0448e942	156301734	1	practice_slash	9	advance_on_keypress_SLASH	2	stimuli_distractor_trianglediamonds.svg	stimuli_distractor_trianglediamonds.svg	15	no	57	0	551
6.6.1	win	2022-12-14	18:48:31	18:56:54	500024	62bb23c919ebfd3b0448e942	156301734	1	practice_slash	9	practice_slash	3	stimuli_distractor_trianglediamonds.svg	stimuli_target_circlediamonds.svg	10	yes	53	1	426
6.6.1	win	2022-12-14	18:48:31	18:56:54	500024	62bb23c919ebfd3b0448e942	156301734	1	practice_slash	9	advance_on_keypress_SLASH	4	stimuli_distractor_trianglediamonds.svg	stimuli_target_circlediamonds.svg	10	yes	57	0	297
6.6.1	win	2022-12-14	18:48:31	18:56:57	502498	62bb23c919ebfd3b0448e942	156301734	1	practice_slash	9	practice_slash	5	stimuli_distractor_diamondtriangles.svg	stimuli_target_circletriangles.svg	7	yes	53	1	535
6.6.1	win	2022-12-14	18:48:31	18:56:57	502498	62bb23c919ebfd3b0448e942	156301734	1	practice_slash	9	advance_on_keypress_SLASH	6	stimuli_distractor_diamondtriangles.svg	stimuli_target_circletriangles.svg	7	yes	57	0	357
6.6.1	win	2022-12-14	18:48:31	18:56:59	504929	62bb23c919ebfd3b0448e942	156301734	1	practice_slash	9	practice_slash	7	stimuli_distractor_trianglediamonds.svg	stimuli_target_squarediamonds.svg	11	yes	53	1	431
6.6.1	win	2022-12-14	18:48:31	18:56:59	504929	62bb23c919ebfd3b0448e942	156301734	1	practice_slash	9	advance_on_keypress_SLASH	8	stimuli_distractor_trianglediamonds.svg	stimuli_target_squarediamonds.svg	11	yes	57	0	150
6.6.1	win	2022-12-14	18:48:31	18:57:03	508731	62bb23c919ebfd3b0448e942	156301734	1	practice_slash	9	practice_slash	9	stimuli_distractor_diamondtriangles.svg	stimuli_distractor_trianglediamonds.svg	14	no	0	1	2000
6.6.1	win	2022-12-14	18:48:31	18:57:03	508731	62bb23c919ebfd3b0448e942	156301734	1	practice_slash	9	advance_on_keypress_SLASH	10	stimuli_distractor_diamondtriangles.svg	stimuli_distractor_trianglediamonds.svg	14	no	57	0	134
6.6.1	win	2022-12-14	18:48:31	18:57:05	510958	62bb23c919ebfd3b0448e942	156301734	1	practice_slash	9	practice_slash	11	stimuli_distractor_diamondtriangles.svg	stimuli_target_trianglecircles.svg	9	yes	53	1	445
6.6.1	win	2022-12-14	18:48:31	18:57:05	510958	62bb23c919ebfd3b0448e942	156301734	1	practice_slash	9	advance_on_keypress_SLASH	12	stimuli_distractor_diamondtriangles.svg	stimuli_target_trianglecircles.svg	9	yes	57	0	344
6.6.1	win	2022-12-14	18:48:31	18:57:08	513838	62bb23c919ebfd3b0448e942	156301734	1	practice_slash	9	practice_slash	13	stimuli_distractor_trianglediamonds.svg	stimuli_target_diamondcircles.svg	12	yes	53	1	907
6.6.1	win	2022-12-14	18:48:31	18:57:08	513838	62bb23c919ebfd3b0448e942	156301734	1	practice_slash	9	advance_on_keypress_SLASH	14	stimuli_distractor_trianglediamonds.svg	stimuli_target_diamondcircles.svg	12	yes	57	0	319
6.6.1	win	2022-12-14	18:48:31	18:57:12	517798	62bb23c919ebfd3b0448e942	156301734	1	practice_slash	9	practice_slash	15	stimuli_distractor_diamondtriangles.svg	stimuli_distractor_diamondtriangles.svg	13	no	0	1	2000
6.6.1	win	2022-12-14	18:48:31	18:57:12	517798	62bb23c919ebfd3b0448e942	156301734	1	practice_slash	9	advance_on_keypress_SLASH	16	stimuli_distractor_diamondtriangles.svg	stimuli_distractor_diamondtriangles.svg	13	no	57	0	1755
6.6.1	win	2022-12-14	18:48:31	18:57:16	521782	62bb23c919ebfd3b0448e942	156301734	1	practice_slash	9	practice_slash	17	stimuli_target_squarediamonds.svg	stimuli_distractor_trianglediamonds.svg	5	yes	53	1	584
6.6.1	win	2022-12-14	18:48:31	18:57:16	521782	62bb23c919ebfd3b0448e942	156301734	1	practice_slash	9	advance_on_keypress_SLASH	18	stimuli_target_squarediamonds.svg	stimuli_distractor_trianglediamonds.svg	5	yes	57	0	266
6.6.1	win	2022-12-14	18:48:31	18:57:18	524368	62bb23c919ebfd3b0448e942	156301734	1	practice_slash	9	practice_slash	19	stimuli_target_diamondsquares.svg	stimuli_distractor_trianglediamonds.svg	6	yes	53	1	671
6.6.1	win	2022-12-14	18:48:31	18:57:18	524368	62bb23c919ebfd3b0448e942	156301734	1	practice_slash	9	advance_on_keypress_SLASH	20	stimuli_target_diamondsquares.svg	stimuli_distractor_trianglediamonds.svg	6	yes	57	0	316
6.6.1	win	2022-12-14	18:48:31	18:57:21	526776	62bb23c919ebfd3b0448e942	156301734	1	practice_slash	9	practice_slash	21	stimuli_target_circlediamonds.svg	stimuli_distractor_diamondtriangles.svg	1	yes	53	1	445
6.6.1	win	2022-12-14	18:48:31	18:57:21	526776	62bb23c919ebfd3b0448e942	156301734	1	practice_slash	9	advance_on_keypress_SLASH	22	stimuli_target_circlediamonds.svg	stimuli_distractor_diamondtriangles.svg	1	yes	57	0	458
6.6.1	win	2022-12-14	18:48:31	18:57:25	530864	62bb23c919ebfd3b0448e942	156301734	1	practice_slash	9	practice_slash	23	stimuli_distractor_trianglediamonds.svg	stimuli_distractor_diamondtriangles.svg	16	no	0	1	2000
6.6.1	win	2022-12-14	18:48:31	18:57:25	530864	62bb23c919ebfd3b0448e942	156301734	1	practice_slash	9	advance_on_keypress_SLASH	24	stimuli_distractor_trianglediamonds.svg	stimuli_distractor_diamondtriangles.svg	16	no	57	0	521
6.6.1	win	2022-12-14	18:48:31	18:57:28	533886	62bb23c919ebfd3b0448e942	156301734	1	practice_slash	9	practice_slash	25	stimuli_target_diamondsquares.svg	stimuli_distractor_diamondtriangles.svg	3	yes	53	1	855
6.6.1	win	2022-12-14	18:48:31	18:57:28	533886	62bb23c919ebfd3b0448e942	156301734	1	practice_slash	9	advance_on_keypress_SLASH	26	stimuli_target_diamondsquares.svg	stimuli_distractor_diamondtriangles.svg	3	yes	57	0	293
6.6.1	win	2022-12-14	18:48:31	18:57:30	536330	62bb23c919ebfd3b0448e942	156301734	1	practice_slash	9	practice_slash	27	stimuli_target_circlediamonds.svg	stimuli_distractor_trianglediamonds.svg	4	yes	53	1	503
6.6.1	win	2022-12-14	18:48:31	18:57:30	536330	62bb23c919ebfd3b0448e942	156301734	1	practice_slash	9	advance_on_keypress_SLASH	28	stimuli_target_circlediamonds.svg	stimuli_distractor_trianglediamonds.svg	4	yes	57	0	341
6.6.1	win	2022-12-14	18:48:31	18:57:33	538905	62bb23c919ebfd3b0448e942	156301734	1	practice_slash	9	practice_slash	29	stimuli_distractor_diamondtriangles.svg	stimuli_target_diamondcircles.svg	8	yes	53	1	590
6.6.1	win	2022-12-14	18:48:31	18:57:33	538905	62bb23c919ebfd3b0448e942	156301734	1	practice_slash	9	advance_on_keypress_SLASH	30	stimuli_distractor_diamondtriangles.svg	stimuli_target_diamondcircles.svg	8	yes	57	0	318
6.6.1	win	2022-12-14	18:48:31	18:57:35	541356	62bb23c919ebfd3b0448e942	156301734	1	practice_slash	9	practice_slash	31	stimuli_target_squarediamonds.svg	stimuli_distractor_diamondtriangles.svg	2	yes	53	1	493
6.6.1	win	2022-12-14	18:48:31	18:57:35	541356	62bb23c919ebfd3b0448e942	156301734	1	practice_slash	9	advance_on_keypress_SLASH	32	stimuli_target_squarediamonds.svg	stimuli_distractor_diamondtriangles.svg	2	yes	57	0	343
6.6.1	win	2022-12-14	18:48:31	18:59:54	680330	62bb23c919ebfd3b0448e942	156301734	1	main_slash	11	main_slash	1	stimuli_target_squaretriangles.svg	stimuli_distractor_diamondtriangles.svg	7	yes	0	0	2000
6.6.1	win	2022-12-14	18:48:31	18:59:54	680330	62bb23c919ebfd3b0448e942	156301734	1	main_slash	11	advance_on_keypress_SLASH	2	stimuli_target_squaretriangles.svg	stimuli_distractor_diamondtriangles.svg	7	yes	57	0	806
6.6.1	win	2022-12-14	18:48:31	18:59:56	682108	62bb23c919ebfd3b0448e942	156301734	1	main_slash	11	main_slash	3	stimuli_distractor_diamondtriangles.svg	stimuli_target_squarediamonds.svg	16	yes	53	1	328
6.6.1	win	2022-12-14	18:48:31	18:59:56	682108	62bb23c919ebfd3b0448e942	156301734	1	main_slash	11	advance_on_keypress_SLASH	4	stimuli_distractor_diamondtriangles.svg	stimuli_target_squarediamonds.svg	16	yes	57	0	602
6.6.1	win	2022-12-14	18:48:31	18:59:59	685347	62bb23c919ebfd3b0448e942	156301734	1	main_slash	11	main_slash	5	stimuli_distractor_diamondtriangles.svg	stimuli_distractor_diamondtriangles.svg	40	no	0	1	2000
6.6.1	win	2022-12-14	18:48:31	18:59:59	685347	62bb23c919ebfd3b0448e942	156301734	1	main_slash	11	advance_on_keypress_SLASH	6	stimuli_distractor_diamondtriangles.svg	stimuli_distractor_diamondtriangles.svg	40	no	57	0	435
6.6.1	win	2022-12-14	18:48:31	19:00:01	686813	62bb23c919ebfd3b0448e942	156301734	1	main_slash	11	main_slash	7	stimuli_distractor_diamondtriangles.svg	stimuli_target_circlediamonds.svg	14	yes	53	1	380
6.6.1	win	2022-12-14	18:48:31	19:00:01	686813	62bb23c919ebfd3b0448e942	156301734	1	main_slash	11	advance_on_keypress_SLASH	8	stimuli_distractor_diamondtriangles.svg	stimuli_target_circlediamonds.svg	14	yes	57	0	588
6.6.1	win	2022-12-14	18:48:31	19:00:03	688498	62bb23c919ebfd3b0448e942	156301734	1	main_slash	11	main_slash	9	stimuli_distractor_trianglediamonds.svg	stimuli_target_trianglesquares.svg	26	yes	53	1	451
6.6.1	win	2022-12-14	18:48:31	19:00:03	688498	62bb23c919ebfd3b0448e942	156301734	1	main_slash	11	advance_on_keypress_SLASH	10	stimuli_distractor_trianglediamonds.svg	stimuli_target_trianglesquares.svg	26	yes	57	0	772
6.6.1	win	2022-12-14	18:48:31	19:00:04	690342	62bb23c919ebfd3b0448e942	156301734	1	main_slash	11	main_slash	11	stimuli_target_circletriangles.svg	stimuli_distractor_trianglediamonds.svg	1	yes	53	1	429
6.6.1	win	2022-12-14	18:48:31	19:00:04	690342	62bb23c919ebfd3b0448e942	156301734	1	main_slash	11	advance_on_keypress_SLASH	12	stimuli_target_circletriangles.svg	stimuli_distractor_trianglediamonds.svg	1	yes	57	0	423
6.6.1	win	2022-12-14	18:48:31	19:00:06	691851	62bb23c919ebfd3b0448e942	156301734	1	main_slash	11	main_slash	13	stimuli_target_trianglesquares.svg	stimuli_distractor_diamondtriangles.svg	22	yes	53	1	454
6.6.1	win	2022-12-14	18:48:31	19:00:06	691851	62bb23c919ebfd3b0448e942	156301734	1	main_slash	11	advance_on_keypress_SLASH	14	stimuli_target_trianglesquares.svg	stimuli_distractor_diamondtriangles.svg	22	yes	57	0	639
6.6.1	win	2022-12-14	18:48:31	19:00:08	693854	62bb23c919ebfd3b0448e942	156301734	1	main_slash	11	main_slash	15	stimuli_distractor_trianglediamonds.svg	stimuli_target_diamondsquares.svg	28	yes	53	1	724
6.6.1	win	2022-12-14	18:48:31	19:00:08	693854	62bb23c919ebfd3b0448e942	156301734	1	main_slash	11	advance_on_keypress_SLASH	16	stimuli_distractor_trianglediamonds.svg	stimuli_target_diamondsquares.svg	28	yes	57	0	462
6.6.1	win	2022-12-14	18:48:31	19:00:10	695463	62bb23c919ebfd3b0448e942	156301734	1	main_slash	11	main_slash	17	stimuli_distractor_diamondtriangles.svg	stimuli_target_circletriangles.svg	13	yes	53	1	503
6.6.1	win	2022-12-14	18:48:31	19:00:10	695463	62bb23c919ebfd3b0448e942	156301734	1	main_slash	11	advance_on_keypress_SLASH	18	stimuli_distractor_diamondtriangles.svg	stimuli_target_circletriangles.svg	13	yes	57	0	466
6.6.1	win	2022-12-14	18:48:31	19:00:11	697048	62bb23c919ebfd3b0448e942	156301734	1	main_slash	11	main_slash	19	stimuli_target_trianglecircles.svg	stimuli_distractor_trianglediamonds.svg	17	yes	53	1	469
6.6.1	win	2022-12-14	18:48:31	19:00:11	697048	62bb23c919ebfd3b0448e942	156301734	1	main_slash	11	advance_on_keypress_SLASH	20	stimuli_target_trianglecircles.svg	stimuli_distractor_trianglediamonds.svg	17	yes	57	0	457
6.6.1	win	2022-12-14	18:48:31	19:00:13	698668	62bb23c919ebfd3b0448e942	156301734	1	main_slash	11	main_slash	21	stimuli_distractor_trianglediamonds.svg	stimuli_target_squarediamonds.svg	12	yes	53	1	521
6.6.1	win	2022-12-14	18:48:31	19:00:13	698668	62bb23c919ebfd3b0448e942	156301734	1	main_slash	11	advance_on_keypress_SLASH	22	stimuli_distractor_trianglediamonds.svg	stimuli_target_squarediamonds.svg	12	yes	57	0	394
6.6.1	win	2022-12-14	18:48:31	19:00:14	700130	62bb23c919ebfd3b0448e942	156301734	1	main_slash	11	main_slash	23	stimuli_target_circlediamonds.svg	stimuli_distractor_trianglediamonds.svg	2	yes	53	1	434
6.6.1	win	2022-12-14	18:48:31	19:00:14	700130	62bb23c919ebfd3b0448e942	156301734	1	main_slash	11	advance_on_keypress_SLASH	24	stimuli_target_circlediamonds.svg	stimuli_distractor_trianglediamonds.svg	2	yes	57	0	411
6.6.1	win	2022-12-14	18:48:31	19:00:16	701728	62bb23c919ebfd3b0448e942	156301734	1	main_slash	11	main_slash	25	stimuli_target_diamondsquares.svg	stimuli_distractor_trianglediamonds.svg	20	yes	53	1	548
6.6.1	win	2022-12-14	18:48:31	19:00:16	701728	62bb23c919ebfd3b0448e942	156301734	1	main_slash	11	advance_on_keypress_SLASH	26	stimuli_target_diamondsquares.svg	stimuli_distractor_trianglediamonds.svg	20	yes	57	0	454
6.6.1	win	2022-12-14	18:48:31	19:00:17	703280	62bb23c919ebfd3b0448e942	156301734	1	main_slash	11	main_slash	27	stimuli_target_circlediamonds.svg	stimuli_distractor_diamondtriangles.svg	6	yes	53	1	451
6.6.1	win	2022-12-14	18:48:31	19:00:17	703280	62bb23c919ebfd3b0448e942	156301734	1	main_slash	11	advance_on_keypress_SLASH	28	stimuli_target_circlediamonds.svg	stimuli_distractor_diamondtriangles.svg	6	yes	57	0	366
6.6.1	win	2022-12-14	18:48:31	19:00:19	705261	62bb23c919ebfd3b0448e942	156301734	1	main_slash	11	main_slash	29	stimuli_target_diamondcircles.svg	stimuli_distractor_diamondtriangles.svg	23	yes	53	1	965
6.6.1	win	2022-12-14	18:48:31	19:00:19	705261	62bb23c919ebfd3b0448e942	156301734	1	main_slash	11	advance_on_keypress_SLASH	30	stimuli_target_diamondcircles.svg	stimuli_distractor_diamondtriangles.svg	23	yes	57	0	476
6.6.1	win	2022-12-14	18:48:31	19:00:21	706746	62bb23c919ebfd3b0448e942	156301734	1	main_slash	11	main_slash	31	stimuli_target_squaretriangles.svg	stimuli_distractor_trianglediamonds.svg	3	yes	53	1	366
6.6.1	win	2022-12-14	18:48:31	19:00:21	706746	62bb23c919ebfd3b0448e942	156301734	1	main_slash	11	advance_on_keypress_SLASH	32	stimuli_target_squaretriangles.svg	stimuli_distractor_trianglediamonds.svg	3	yes	57	0	433
6.6.1	win	2022-12-14	18:48:31	19:00:22	708433	62bb23c919ebfd3b0448e942	156301734	1	main_slash	11	main_slash	33	stimuli_distractor_diamondtriangles.svg	stimuli_distractor_trianglediamonds.svg	37	no	53	0	603
6.6.1	win	2022-12-14	18:48:31	19:00:22	708433	62bb23c919ebfd3b0448e942	156301734	1	main_slash	11	advance_on_keypress_SLASH	34	stimuli_distractor_diamondtriangles.svg	stimuli_distractor_trianglediamonds.svg	37	no	57	0	436
6.6.1	win	2022-12-14	18:48:31	19:00:24	709739	62bb23c919ebfd3b0448e942	156301734	1	main_slash	11	main_slash	35	stimuli_target_squarediamonds.svg	stimuli_distractor_trianglediamonds.svg	4	yes	53	1	225
6.6.1	win	2022-12-14	18:48:31	19:00:24	709739	62bb23c919ebfd3b0448e942	156301734	1	main_slash	11	advance_on_keypress_SLASH	36	stimuli_target_squarediamonds.svg	stimuli_distractor_trianglediamonds.svg	4	yes	57	0	374
6.6.1	win	2022-12-14	18:48:31	19:00:25	711043	62bb23c919ebfd3b0448e942	156301734	1	main_slash	11	main_slash	37	stimuli_target_diamondsquares.svg	stimuli_distractor_diamondtriangles.svg	24	yes	53	1	296
6.6.1	win	2022-12-14	18:48:31	19:00:25	711043	62bb23c919ebfd3b0448e942	156301734	1	main_slash	11	advance_on_keypress_SLASH	38	stimuli_target_diamondsquares.svg	stimuli_distractor_diamondtriangles.svg	24	yes	57	0	514
6.6.1	win	2022-12-14	18:48:31	19:00:27	712483	62bb23c919ebfd3b0448e942	156301734	1	main_slash	11	main_slash	39	stimuli_distractor_trianglediamonds.svg	stimuli_target_diamondcircles.svg	27	yes	53	1	287
6.6.1	win	2022-12-14	18:48:31	19:00:27	712483	62bb23c919ebfd3b0448e942	156301734	1	main_slash	11	advance_on_keypress_SLASH	40	stimuli_distractor_trianglediamonds.svg	stimuli_target_diamondcircles.svg	27	yes	57	0	415
6.6.1	win	2022-12-14	18:48:31	19:00:28	713834	62bb23c919ebfd3b0448e942	156301734	1	main_slash	11	main_slash	41	stimuli_distractor_diamondtriangles.svg	stimuli_distractor_trianglediamonds.svg	38	no	53	0	286
6.6.1	win	2022-12-14	18:48:31	19:00:28	713834	62bb23c919ebfd3b0448e942	156301734	1	main_slash	11	advance_on_keypress_SLASH	42	stimuli_distractor_diamondtriangles.svg	stimuli_distractor_trianglediamonds.svg	38	no	57	0	482
6.6.1	win	2022-12-14	18:48:31	19:00:30	715453	62bb23c919ebfd3b0448e942	156301734	1	main_slash	11	main_slash	43	stimuli_distractor_diamondtriangles.svg	stimuli_target_trianglesquares.svg	30	yes	53	1	489
6.6.1	win	2022-12-14	18:48:31	19:00:30	715453	62bb23c919ebfd3b0448e942	156301734	1	main_slash	11	advance_on_keypress_SLASH	44	stimuli_distractor_diamondtriangles.svg	stimuli_target_trianglesquares.svg	30	yes	57	0	643
6.6.1	win	2022-12-14	18:48:31	19:00:31	717028	62bb23c919ebfd3b0448e942	156301734	1	main_slash	11	main_slash	45	stimuli_distractor_diamondtriangles.svg	stimuli_target_diamondsquares.svg	32	yes	53	1	298
6.6.1	win	2022-12-14	18:48:31	19:00:31	717028	62bb23c919ebfd3b0448e942	156301734	1	main_slash	11	advance_on_keypress_SLASH	46	stimuli_distractor_diamondtriangles.svg	stimuli_target_diamondsquares.svg	32	yes	57	0	545
6.6.1	win	2022-12-14	18:48:31	19:00:33	718537	62bb23c919ebfd3b0448e942	156301734	1	main_slash	11	main_slash	47	stimuli_distractor_diamondtriangles.svg	stimuli_distractor_diamondtriangles.svg	39	no	53	0	324
6.6.1	win	2022-12-14	18:48:31	19:00:33	718537	62bb23c919ebfd3b0448e942	156301734	1	main_slash	11	advance_on_keypress_SLASH	48	stimuli_distractor_diamondtriangles.svg	stimuli_distractor_diamondtriangles.svg	39	no	57	0	574
6.6.1	win	2022-12-14	18:48:31	19:00:34	720178	62bb23c919ebfd3b0448e942	156301734	1	main_slash	11	main_slash	49	stimuli_distractor_diamondtriangles.svg	stimuli_target_trianglecircles.svg	29	yes	53	1	431
6.6.1	win	2022-12-14	18:48:31	19:00:34	720178	62bb23c919ebfd3b0448e942	156301734	1	main_slash	11	advance_on_keypress_SLASH	50	stimuli_distractor_diamondtriangles.svg	stimuli_target_trianglecircles.svg	29	yes	57	0	544
6.6.1	win	2022-12-14	18:48:31	19:00:36	721663	62bb23c919ebfd3b0448e942	156301734	1	main_slash	11	main_slash	51	stimuli_target_diamondcircles.svg	stimuli_distractor_trianglediamonds.svg	19	yes	53	1	300
6.6.1	win	2022-12-14	18:48:31	19:00:36	721663	62bb23c919ebfd3b0448e942	156301734	1	main_slash	11	advance_on_keypress_SLASH	52	stimuli_target_diamondcircles.svg	stimuli_distractor_trianglediamonds.svg	19	yes	57	0	681
6.6.1	win	2022-12-14	18:48:31	19:00:37	723306	62bb23c919ebfd3b0448e942	156301734	1	main_slash	11	main_slash	53	stimuli_distractor_trianglediamonds.svg	stimuli_target_trianglecircles.svg	25	yes	53	1	309
6.6.1	win	2022-12-14	18:48:31	19:00:37	723306	62bb23c919ebfd3b0448e942	156301734	1	main_slash	11	advance_on_keypress_SLASH	54	stimuli_distractor_trianglediamonds.svg	stimuli_target_trianglecircles.svg	25	yes	57	0	533
6.6.1	win	2022-12-14	18:48:31	19:00:39	724769	62bb23c919ebfd3b0448e942	156301734	1	main_slash	11	main_slash	55	stimuli_distractor_trianglediamonds.svg	stimuli_distractor_trianglediamonds.svg	33	no	53	0	289
6.6.1	win	2022-12-14	18:48:31	19:00:39	724769	62bb23c919ebfd3b0448e942	156301734	1	main_slash	11	advance_on_keypress_SLASH	56	stimuli_distractor_trianglediamonds.svg	stimuli_distractor_trianglediamonds.svg	33	no	57	0	596
6.6.1	win	2022-12-14	18:48:31	19:00:40	726298	62bb23c919ebfd3b0448e942	156301734	1	main_slash	11	main_slash	57	stimuli_target_circletriangles.svg	stimuli_distractor_diamondtriangles.svg	5	yes	53	1	301
6.6.1	win	2022-12-14	18:48:31	19:00:40	726298	62bb23c919ebfd3b0448e942	156301734	1	main_slash	11	advance_on_keypress_SLASH	58	stimuli_target_circletriangles.svg	stimuli_distractor_diamondtriangles.svg	5	yes	57	0	525
6.6.1	win	2022-12-14	18:48:31	19:00:42	727760	62bb23c919ebfd3b0448e942	156301734	1	main_slash	11	main_slash	59	stimuli_distractor_trianglediamonds.svg	stimuli_distractor_diamondtriangles.svg	36	no	53	0	297
6.6.1	win	2022-12-14	18:48:31	19:00:42	727760	62bb23c919ebfd3b0448e942	156301734	1	main_slash	11	advance_on_keypress_SLASH	60	stimuli_distractor_trianglediamonds.svg	stimuli_distractor_diamondtriangles.svg	36	no	57	0	476
6.6.1	win	2022-12-14	18:48:31	19:00:43	729314	62bb23c919ebfd3b0448e942	156301734	1	main_slash	11	main_slash	61	stimuli_distractor_diamondtriangles.svg	stimuli_target_diamondcircles.svg	31	yes	53	1	434
6.6.1	win	2022-12-14	18:48:31	19:00:43	729314	62bb23c919ebfd3b0448e942	156301734	1	main_slash	11	advance_on_keypress_SLASH	62	stimuli_distractor_diamondtriangles.svg	stimuli_target_diamondcircles.svg	31	yes	57	0	479
6.6.1	win	2022-12-14	18:48:31	19:00:45	730619	62bb23c919ebfd3b0448e942	156301734	1	main_slash	11	main_slash	63	stimuli_distractor_trianglediamonds.svg	stimuli_distractor_diamondtriangles.svg	35	no	53	0	189
6.6.1	win	2022-12-14	18:48:31	19:00:45	730619	62bb23c919ebfd3b0448e942	156301734	1	main_slash	11	advance_on_keypress_SLASH	64	stimuli_distractor_trianglediamonds.svg	stimuli_distractor_diamondtriangles.svg	35	no	57	0	596
6.6.1	win	2022-12-14	18:48:31	19:00:46	732103	62bb23c919ebfd3b0448e942	156301734	1	main_slash	11	main_slash	65	stimuli_distractor_trianglediamonds.svg	stimuli_target_squaretriangles.svg	11	yes	53	1	257
6.6.1	win	2022-12-14	18:48:31	19:00:46	732103	62bb23c919ebfd3b0448e942	156301734	1	main_slash	11	advance_on_keypress_SLASH	66	stimuli_distractor_trianglediamonds.svg	stimuli_target_squaretriangles.svg	11	yes	57	0	508
6.6.1	win	2022-12-14	18:48:31	19:00:48	733567	62bb23c919ebfd3b0448e942	156301734	1	main_slash	11	main_slash	67	stimuli_distractor_trianglediamonds.svg	stimuli_target_circletriangles.svg	9	yes	53	1	319
6.6.1	win	2022-12-14	18:48:31	19:00:48	733567	62bb23c919ebfd3b0448e942	156301734	1	main_slash	11	advance_on_keypress_SLASH	68	stimuli_distractor_trianglediamonds.svg	stimuli_target_circletriangles.svg	9	yes	57	0	571
6.6.1	win	2022-12-14	18:48:31	19:00:49	735164	62bb23c919ebfd3b0448e942	156301734	1	main_slash	11	main_slash	69	stimuli_target_squarediamonds.svg	stimuli_distractor_diamondtriangles.svg	8	yes	53	1	384
6.6.1	win	2022-12-14	18:48:31	19:00:49	735164	62bb23c919ebfd3b0448e942	156301734	1	main_slash	11	advance_on_keypress_SLASH	70	stimuli_target_squarediamonds.svg	stimuli_distractor_diamondtriangles.svg	8	yes	57	0	1221
6.6.1	win	2022-12-14	18:48:31	19:00:51	737323	62bb23c919ebfd3b0448e942	156301734	1	main_slash	11	main_slash	71	stimuli_distractor_trianglediamonds.svg	stimuli_distractor_trianglediamonds.svg	34	no	53	0	294
6.6.1	win	2022-12-14	18:48:31	19:00:51	737323	62bb23c919ebfd3b0448e942	156301734	1	main_slash	11	advance_on_keypress_SLASH	72	stimuli_distractor_trianglediamonds.svg	stimuli_distractor_trianglediamonds.svg	34	no	57	0	511
6.6.1	win	2022-12-14	18:48:31	19:00:53	738899	62bb23c919ebfd3b0448e942	156301734	1	main_slash	11	main_slash	73	stimuli_distractor_diamondtriangles.svg	stimuli_target_squaretriangles.svg	15	yes	53	1	436
6.6.1	win	2022-12-14	18:48:31	19:00:53	738899	62bb23c919ebfd3b0448e942	156301734	1	main_slash	11	advance_on_keypress_SLASH	74	stimuli_distractor_diamondtriangles.svg	stimuli_target_squaretriangles.svg	15	yes	57	0	503
6.6.1	win	2022-12-14	18:48:31	19:00:54	740339	62bb23c919ebfd3b0448e942	156301734	1	main_slash	11	main_slash	75	stimuli_target_trianglecircles.svg	stimuli_distractor_diamondtriangles.svg	21	yes	53	1	293
6.6.1	win	2022-12-14	18:48:31	19:00:54	740339	62bb23c919ebfd3b0448e942	156301734	1	main_slash	11	advance_on_keypress_SLASH	76	stimuli_target_trianglecircles.svg	stimuli_distractor_diamondtriangles.svg	21	yes	57	0	487
6.6.1	win	2022-12-14	18:48:31	19:00:56	741712	62bb23c919ebfd3b0448e942	156301734	1	main_slash	11	main_slash	77	stimuli_target_trianglesquares.svg	stimuli_distractor_trianglediamonds.svg	18	yes	53	1	249
6.6.1	win	2022-12-14	18:48:31	19:00:56	741712	62bb23c919ebfd3b0448e942	156301734	1	main_slash	11	advance_on_keypress_SLASH	78	stimuli_target_trianglesquares.svg	stimuli_distractor_trianglediamonds.svg	18	yes	57	0	612
6.6.1	win	2022-12-14	18:48:31	19:00:57	743174	62bb23c919ebfd3b0448e942	156301734	1	main_slash	11	main_slash	79	stimuli_distractor_trianglediamonds.svg	stimuli_target_circlediamonds.svg	10	yes	53	1	211
6.6.1	win	2022-12-14	18:48:31	19:00:57	743174	62bb23c919ebfd3b0448e942	156301734	1	main_slash	11	advance_on_keypress_SLASH	80	stimuli_distractor_trianglediamonds.svg	stimuli_target_circlediamonds.svg	10	yes	57	0	896
6.6.1	win	2022-12-14	18:48:31	19:00:59	744907	62bb23c919ebfd3b0448e942	156301734	1	main_slash	11	main_slash	81	stimuli_distractor_diamondtriangles.svg	stimuli_distractor_diamondtriangles.svg	39	no	53	0	210
6.6.1	win	2022-12-14	18:48:31	19:00:59	744907	62bb23c919ebfd3b0448e942	156301734	1	main_slash	11	advance_on_keypress_SLASH	82	stimuli_distractor_diamondtriangles.svg	stimuli_distractor_diamondtriangles.svg	39	no	57	0	511
6.6.1	win	2022-12-14	18:48:31	19:01:01	746459	62bb23c919ebfd3b0448e942	156301734	1	main_slash	11	main_slash	83	stimuli_target_circlediamonds.svg	stimuli_distractor_diamondtriangles.svg	6	yes	53	1	413
6.6.1	win	2022-12-14	18:48:31	19:01:01	746459	62bb23c919ebfd3b0448e942	156301734	1	main_slash	11	advance_on_keypress_SLASH	84	stimuli_target_circlediamonds.svg	stimuli_distractor_diamondtriangles.svg	6	yes	57	0	851
6.6.1	win	2022-12-14	18:48:31	19:01:03	748731	62bb23c919ebfd3b0448e942	156301734	1	main_slash	11	main_slash	85	stimuli_target_diamondcircles.svg	stimuli_distractor_trianglediamonds.svg	19	yes	53	1	786
6.6.1	win	2022-12-14	18:48:31	19:01:03	748731	62bb23c919ebfd3b0448e942	156301734	1	main_slash	11	advance_on_keypress_SLASH	86	stimuli_target_diamondcircles.svg	stimuli_distractor_trianglediamonds.svg	19	yes	57	0	682
6.6.1	win	2022-12-14	18:48:31	19:01:04	750352	62bb23c919ebfd3b0448e942	156301734	1	main_slash	11	main_slash	87	stimuli_distractor_diamondtriangles.svg	stimuli_target_circletriangles.svg	13	yes	53	1	289
6.6.1	win	2022-12-14	18:48:31	19:01:04	750352	62bb23c919ebfd3b0448e942	156301734	1	main_slash	11	advance_on_keypress_SLASH	88	stimuli_distractor_diamondtriangles.svg	stimuli_target_circletriangles.svg	13	yes	57	0	416
6.6.1	win	2022-12-14	18:48:31	19:01:06	751679	62bb23c919ebfd3b0448e942	156301734	1	main_slash	11	main_slash	89	stimuli_target_diamondsquares.svg	stimuli_distractor_diamondtriangles.svg	24	yes	53	1	265
6.6.1	win	2022-12-14	18:48:31	19:01:06	751679	62bb23c919ebfd3b0448e942	156301734	1	main_slash	11	advance_on_keypress_SLASH	90	stimuli_target_diamondsquares.svg	stimuli_distractor_diamondtriangles.svg	24	yes	57	0	477
6.6.1	win	2022-12-14	18:48:31	19:01:07	753029	62bb23c919ebfd3b0448e942	156301734	1	main_slash	11	main_slash	91	stimuli_distractor_diamondtriangles.svg	stimuli_distractor_trianglediamonds.svg	37	no	53	0	233
6.6.1	win	2022-12-14	18:48:31	19:01:07	753029	62bb23c919ebfd3b0448e942	156301734	1	main_slash	11	advance_on_keypress_SLASH	92	stimuli_distractor_diamondtriangles.svg	stimuli_distractor_trianglediamonds.svg	37	no	57	0	590
6.6.1	win	2022-12-14	18:48:31	19:01:09	754514	62bb23c919ebfd3b0448e942	156301734	1	main_slash	11	main_slash	93	stimuli_distractor_diamondtriangles.svg	stimuli_distractor_diamondtriangles.svg	40	no	53	0	251
6.6.1	win	2022-12-14	18:48:31	19:01:09	754514	62bb23c919ebfd3b0448e942	156301734	1	main_slash	11	advance_on_keypress_SLASH	94	stimuli_distractor_diamondtriangles.svg	stimuli_distractor_diamondtriangles.svg	40	no	57	0	479
6.6.1	win	2022-12-14	18:48:31	19:01:10	755841	62bb23c919ebfd3b0448e942	156301734	1	main_slash	11	main_slash	95	stimuli_distractor_diamondtriangles.svg	stimuli_target_squaretriangles.svg	15	yes	53	1	211
6.6.1	win	2022-12-14	18:48:31	19:01:10	755841	62bb23c919ebfd3b0448e942	156301734	1	main_slash	11	advance_on_keypress_SLASH	96	stimuli_distractor_diamondtriangles.svg	stimuli_target_squaretriangles.svg	15	yes	57	0	512
6.6.1	win	2022-12-14	18:48:31	19:01:13	758980	62bb23c919ebfd3b0448e942	156301734	1	main_slash	11	main_slash	97	stimuli_distractor_trianglediamonds.svg	stimuli_distractor_diamondtriangles.svg	35	no	0	1	2000
6.6.1	win	2022-12-14	18:48:31	19:01:13	758980	62bb23c919ebfd3b0448e942	156301734	1	main_slash	11	advance_on_keypress_SLASH	98	stimuli_distractor_trianglediamonds.svg	stimuli_distractor_diamondtriangles.svg	35	no	57	0	602
6.6.1	win	2022-12-14	18:48:31	19:01:15	760499	62bb23c919ebfd3b0448e942	156301734	1	main_slash	11	main_slash	99	stimuli_target_trianglecircles.svg	stimuli_distractor_diamondtriangles.svg	21	yes	53	1	269
6.6.1	win	2022-12-14	18:48:31	19:01:15	760499	62bb23c919ebfd3b0448e942	156301734	1	main_slash	11	advance_on_keypress_SLASH	100	stimuli_target_trianglecircles.svg	stimuli_distractor_diamondtriangles.svg	21	yes	57	0	617
6.6.1	win	2022-12-14	18:48:31	19:01:16	762006	62bb23c919ebfd3b0448e942	156301734	1	main_slash	11	main_slash	101	stimuli_distractor_diamondtriangles.svg	stimuli_target_diamondsquares.svg	32	yes	53	1	243
6.6.1	win	2022-12-14	18:48:31	19:01:16	762006	62bb23c919ebfd3b0448e942	156301734	1	main_slash	11	advance_on_keypress_SLASH	102	stimuli_distractor_diamondtriangles.svg	stimuli_target_diamondsquares.svg	32	yes	57	0	602
6.6.1	win	2022-12-14	18:48:31	19:01:18	763559	62bb23c919ebfd3b0448e942	156301734	1	main_slash	11	main_slash	103	stimuli_distractor_trianglediamonds.svg	stimuli_distractor_trianglediamonds.svg	33	no	53	0	312
6.6.1	win	2022-12-14	18:48:31	19:01:18	763559	62bb23c919ebfd3b0448e942	156301734	1	main_slash	11	advance_on_keypress_SLASH	104	stimuli_distractor_trianglediamonds.svg	stimuli_distractor_trianglediamonds.svg	33	no	57	0	739
6.6.1	win	2022-12-14	18:48:31	19:01:19	765224	62bb23c919ebfd3b0448e942	156301734	1	main_slash	11	main_slash	105	stimuli_distractor_trianglediamonds.svg	stimuli_target_squarediamonds.svg	12	yes	53	1	294
6.6.1	win	2022-12-14	18:48:31	19:01:19	765224	62bb23c919ebfd3b0448e942	156301734	1	main_slash	11	advance_on_keypress_SLASH	106	stimuli_distractor_trianglediamonds.svg	stimuli_target_squarediamonds.svg	12	yes	57	0	579
6.6.1	win	2022-12-14	18:48:31	19:01:21	766946	62bb23c919ebfd3b0448e942	156301734	1	main_slash	11	main_slash	107	stimuli_target_trianglesquares.svg	stimuli_distractor_diamondtriangles.svg	22	yes	53	1	508
6.6.1	win	2022-12-14	18:48:31	19:01:21	766946	62bb23c919ebfd3b0448e942	156301734	1	main_slash	11	advance_on_keypress_SLASH	108	stimuli_target_trianglesquares.svg	stimuli_distractor_diamondtriangles.svg	22	yes	57	0	601
6.6.1	win	2022-12-14	18:48:31	19:01:22	768352	62bb23c919ebfd3b0448e942	156301734	1	main_slash	11	main_slash	109	stimuli_distractor_trianglediamonds.svg	stimuli_distractor_diamondtriangles.svg	36	no	53	0	155
6.6.1	win	2022-12-14	18:48:31	19:01:22	768352	62bb23c919ebfd3b0448e942	156301734	1	main_slash	11	advance_on_keypress_SLASH	110	stimuli_distractor_trianglediamonds.svg	stimuli_distractor_diamondtriangles.svg	36	no	57	0	641
6.6.1	win	2022-12-14	18:48:31	19:01:24	769837	62bb23c919ebfd3b0448e942	156301734	1	main_slash	11	main_slash	111	stimuli_distractor_trianglediamonds.svg	stimuli_target_squaretriangles.svg	11	yes	53	1	207
6.6.1	win	2022-12-14	18:48:31	19:01:24	769837	62bb23c919ebfd3b0448e942	156301734	1	main_slash	11	advance_on_keypress_SLASH	112	stimuli_distractor_trianglediamonds.svg	stimuli_target_squaretriangles.svg	11	yes	57	0	507
6.6.1	win	2022-12-14	18:48:31	19:01:25	771276	62bb23c919ebfd3b0448e942	156301734	1	main_slash	11	main_slash	113	stimuli_target_diamondsquares.svg	stimuli_distractor_trianglediamonds.svg	20	yes	53	1	297
6.6.1	win	2022-12-14	18:48:31	19:01:25	771276	62bb23c919ebfd3b0448e942	156301734	1	main_slash	11	advance_on_keypress_SLASH	114	stimuli_target_diamondsquares.svg	stimuli_distractor_trianglediamonds.svg	20	yes	57	0	559
6.6.1	win	2022-12-14	18:48:31	19:01:27	772761	62bb23c919ebfd3b0448e942	156301734	1	main_slash	11	main_slash	115	stimuli_distractor_diamondtriangles.svg	stimuli_target_trianglesquares.svg	30	yes	53	1	298
6.6.1	win	2022-12-14	18:48:31	19:01:27	772761	62bb23c919ebfd3b0448e942	156301734	1	main_slash	11	advance_on_keypress_SLASH	116	stimuli_distractor_diamondtriangles.svg	stimuli_target_trianglesquares.svg	30	yes	57	0	567
6.6.1	win	2022-12-14	18:48:31	19:01:29	774516	62bb23c919ebfd3b0448e942	156301734	1	main_slash	11	main_slash	117	stimuli_target_squaretriangles.svg	stimuli_distractor_trianglediamonds.svg	3	yes	53	1	537
6.6.1	win	2022-12-14	18:48:31	19:01:29	774516	62bb23c919ebfd3b0448e942	156301734	1	main_slash	11	advance_on_keypress_SLASH	118	stimuli_target_squaretriangles.svg	stimuli_distractor_trianglediamonds.svg	3	yes	57	0	617
6.6.1	win	2022-12-14	18:48:31	19:01:30	776002	62bb23c919ebfd3b0448e942	156301734	1	main_slash	11	main_slash	119	stimuli_target_squarediamonds.svg	stimuli_distractor_diamondtriangles.svg	8	yes	53	1	222
6.6.1	win	2022-12-14	18:48:31	19:01:30	776002	62bb23c919ebfd3b0448e942	156301734	1	main_slash	11	advance_on_keypress_SLASH	120	stimuli_target_squarediamonds.svg	stimuli_distractor_diamondtriangles.svg	8	yes	57	0	800
6.6.1	win	2022-12-14	18:48:31	19:01:32	777937	62bb23c919ebfd3b0448e942	156301734	1	main_slash	11	main_slash	121	stimuli_target_trianglesquares.svg	stimuli_distractor_trianglediamonds.svg	18	yes	53	1	490
6.6.1	win	2022-12-14	18:48:31	19:01:32	777937	62bb23c919ebfd3b0448e942	156301734	1	main_slash	11	advance_on_keypress_SLASH	122	stimuli_target_trianglesquares.svg	stimuli_distractor_trianglediamonds.svg	18	yes	57	0	575
6.6.1	win	2022-12-14	18:48:31	19:01:33	779421	62bb23c919ebfd3b0448e942	156301734	1	main_slash	11	main_slash	123	stimuli_target_circletriangles.svg	stimuli_distractor_diamondtriangles.svg	5	yes	53	1	275
6.6.1	win	2022-12-14	18:48:31	19:01:33	779421	62bb23c919ebfd3b0448e942	156301734	1	main_slash	11	advance_on_keypress_SLASH	124	stimuli_target_circletriangles.svg	stimuli_distractor_diamondtriangles.svg	5	yes	57	0	847
6.6.1	win	2022-12-14	18:48:31	19:01:35	781267	62bb23c919ebfd3b0448e942	156301734	1	main_slash	11	main_slash	125	stimuli_distractor_diamondtriangles.svg	stimuli_target_circlediamonds.svg	14	yes	53	1	353
6.6.1	win	2022-12-14	18:48:31	19:01:35	781267	62bb23c919ebfd3b0448e942	156301734	1	main_slash	11	advance_on_keypress_SLASH	126	stimuli_distractor_diamondtriangles.svg	stimuli_target_circlediamonds.svg	14	yes	57	0	1157
6.6.1	win	2022-12-14	18:48:31	19:01:37	783359	62bb23c919ebfd3b0448e942	156301734	1	main_slash	11	main_slash	127	stimuli_distractor_diamondtriangles.svg	stimuli_target_diamondcircles.svg	31	yes	53	1	297
6.6.1	win	2022-12-14	18:48:31	19:01:37	783359	62bb23c919ebfd3b0448e942	156301734	1	main_slash	11	advance_on_keypress_SLASH	128	stimuli_distractor_diamondtriangles.svg	stimuli_target_diamondcircles.svg	31	yes	57	0	1279
6.6.1	win	2022-12-14	18:48:31	19:01:40	785520	62bb23c919ebfd3b0448e942	156301734	1	main_slash	11	main_slash	129	stimuli_distractor_trianglediamonds.svg	stimuli_target_circlediamonds.svg	10	yes	53	1	257
6.6.1	win	2022-12-14	18:48:31	19:01:40	785520	62bb23c919ebfd3b0448e942	156301734	1	main_slash	11	advance_on_keypress_SLASH	130	stimuli_distractor_trianglediamonds.svg	stimuli_target_circlediamonds.svg	10	yes	57	0	867
6.6.1	win	2022-12-14	18:48:31	19:01:41	787364	62bb23c919ebfd3b0448e942	156301734	1	main_slash	11	main_slash	131	stimuli_target_squaretriangles.svg	stimuli_distractor_diamondtriangles.svg	7	yes	53	1	335
6.6.1	win	2022-12-14	18:48:31	19:01:41	787364	62bb23c919ebfd3b0448e942	156301734	1	main_slash	11	advance_on_keypress_SLASH	132	stimuli_target_squaretriangles.svg	stimuli_distractor_diamondtriangles.svg	7	yes	57	0	637
6.6.1	win	2022-12-14	18:48:31	19:01:43	788986	62bb23c919ebfd3b0448e942	156301734	1	main_slash	11	main_slash	133	stimuli_target_circletriangles.svg	stimuli_distractor_trianglediamonds.svg	1	yes	53	1	339
6.6.1	win	2022-12-14	18:48:31	19:01:43	788986	62bb23c919ebfd3b0448e942	156301734	1	main_slash	11	advance_on_keypress_SLASH	134	stimuli_target_circletriangles.svg	stimuli_distractor_trianglediamonds.svg	1	yes	57	0	663
6.6.1	win	2022-12-14	18:48:31	19:01:45	790663	62bb23c919ebfd3b0448e942	156301734	1	main_slash	11	main_slash	135	stimuli_distractor_diamondtriangles.svg	stimuli_target_squarediamonds.svg	16	yes	53	1	370
6.6.1	win	2022-12-14	18:48:31	19:01:45	790663	62bb23c919ebfd3b0448e942	156301734	1	main_slash	11	advance_on_keypress_SLASH	136	stimuli_distractor_diamondtriangles.svg	stimuli_target_squarediamonds.svg	16	yes	57	0	802
6.6.1	win	2022-12-14	18:48:31	19:01:47	792540	62bb23c919ebfd3b0448e942	156301734	1	main_slash	11	main_slash	137	stimuli_target_circlediamonds.svg	stimuli_distractor_trianglediamonds.svg	2	yes	53	1	427
6.6.1	win	2022-12-14	18:48:31	19:01:47	792540	62bb23c919ebfd3b0448e942	156301734	1	main_slash	11	advance_on_keypress_SLASH	138	stimuli_target_circlediamonds.svg	stimuli_distractor_trianglediamonds.svg	2	yes	57	0	735
6.6.1	win	2022-12-14	18:48:31	19:01:48	794092	62bb23c919ebfd3b0448e942	156301734	1	main_slash	11	main_slash	139	stimuli_distractor_diamondtriangles.svg	stimuli_target_trianglecircles.svg	29	yes	53	1	179
6.6.1	win	2022-12-14	18:48:31	19:01:48	794092	62bb23c919ebfd3b0448e942	156301734	1	main_slash	11	advance_on_keypress_SLASH	140	stimuli_distractor_diamondtriangles.svg	stimuli_target_trianglecircles.svg	29	yes	57	0	602
6.6.1	win	2022-12-14	18:48:31	19:01:50	795600	62bb23c919ebfd3b0448e942	156301734	1	main_slash	11	main_slash	141	stimuli_distractor_trianglediamonds.svg	stimuli_target_diamondsquares.svg	28	yes	53	1	270
6.6.1	win	2022-12-14	18:48:31	19:01:50	795600	62bb23c919ebfd3b0448e942	156301734	1	main_slash	11	advance_on_keypress_SLASH	142	stimuli_distractor_trianglediamonds.svg	stimuli_target_diamondsquares.svg	28	yes	57	0	842
6.6.1	win	2022-12-14	18:48:31	19:01:51	797333	62bb23c919ebfd3b0448e942	156301734	1	main_slash	11	main_slash	143	stimuli_distractor_trianglediamonds.svg	stimuli_target_trianglecircles.svg	25	yes	53	1	252
6.6.1	win	2022-12-14	18:48:31	19:01:51	797333	62bb23c919ebfd3b0448e942	156301734	1	main_slash	11	advance_on_keypress_SLASH	144	stimuli_distractor_trianglediamonds.svg	stimuli_target_trianglecircles.svg	25	yes	57	0	459
6.6.1	win	2022-12-14	18:48:31	19:01:53	798728	62bb23c919ebfd3b0448e942	156301734	1	main_slash	11	main_slash	145	stimuli_distractor_trianglediamonds.svg	stimuli_distractor_trianglediamonds.svg	34	no	53	0	298
6.6.1	win	2022-12-14	18:48:31	19:01:53	798728	62bb23c919ebfd3b0448e942	156301734	1	main_slash	11	advance_on_keypress_SLASH	146	stimuli_distractor_trianglediamonds.svg	stimuli_distractor_trianglediamonds.svg	34	no	57	0	655
6.6.1	win	2022-12-14	18:48:31	19:01:54	800324	62bb23c919ebfd3b0448e942	156301734	1	main_slash	11	main_slash	147	stimuli_distractor_trianglediamonds.svg	stimuli_target_trianglesquares.svg	26	yes	53	1	295
6.6.1	win	2022-12-14	18:48:31	19:01:54	800324	62bb23c919ebfd3b0448e942	156301734	1	main_slash	11	advance_on_keypress_SLASH	148	stimuli_distractor_trianglediamonds.svg	stimuli_target_trianglesquares.svg	26	yes	57	0	557
6.6.1	win	2022-12-14	18:48:31	19:01:56	801697	62bb23c919ebfd3b0448e942	156301734	1	main_slash	11	main_slash	149	stimuli_distractor_diamondtriangles.svg	stimuli_distractor_trianglediamonds.svg	38	no	53	0	184
6.6.1	win	2022-12-14	18:48:31	19:01:56	801697	62bb23c919ebfd3b0448e942	156301734	1	main_slash	11	advance_on_keypress_SLASH	150	stimuli_distractor_diamondtriangles.svg	stimuli_distractor_trianglediamonds.svg	38	no	57	0	636
6.6.1	win	2022-12-14	18:48:31	19:01:57	803227	62bb23c919ebfd3b0448e942	156301734	1	main_slash	11	main_slash	151	stimuli_distractor_trianglediamonds.svg	stimuli_target_diamondcircles.svg	27	yes	53	1	247
6.6.1	win	2022-12-14	18:48:31	19:01:57	803227	62bb23c919ebfd3b0448e942	156301734	1	main_slash	11	advance_on_keypress_SLASH	152	stimuli_distractor_trianglediamonds.svg	stimuli_target_diamondcircles.svg	27	yes	57	0	880
6.6.1	win	2022-12-14	18:48:31	19:01:59	805117	62bb23c919ebfd3b0448e942	156301734	1	main_slash	11	main_slash	153	stimuli_target_trianglecircles.svg	stimuli_distractor_trianglediamonds.svg	17	yes	53	1	355
6.6.1	win	2022-12-14	18:48:31	19:01:59	805117	62bb23c919ebfd3b0448e942	156301734	1	main_slash	11	advance_on_keypress_SLASH	154	stimuli_target_trianglecircles.svg	stimuli_distractor_trianglediamonds.svg	17	yes	57	0	527
6.6.1	win	2022-12-14	18:48:31	19:02:01	806512	62bb23c919ebfd3b0448e942	156301734	1	main_slash	11	main_slash	155	stimuli_target_squarediamonds.svg	stimuli_distractor_trianglediamonds.svg	4	yes	53	1	232
6.6.1	win	2022-12-14	18:48:31	19:02:01	806512	62bb23c919ebfd3b0448e942	156301734	1	main_slash	11	advance_on_keypress_SLASH	156	stimuli_target_squarediamonds.svg	stimuli_distractor_trianglediamonds.svg	4	yes	57	0	568
6.6.1	win	2022-12-14	18:48:31	19:02:02	807976	62bb23c919ebfd3b0448e942	156301734	1	main_slash	11	main_slash	157	stimuli_target_diamondcircles.svg	stimuli_distractor_diamondtriangles.svg	23	yes	53	1	245
6.6.1	win	2022-12-14	18:48:31	19:02:02	807976	62bb23c919ebfd3b0448e942	156301734	1	main_slash	11	advance_on_keypress_SLASH	158	stimuli_target_diamondcircles.svg	stimuli_distractor_diamondtriangles.svg	23	yes	57	0	715
6.6.1	win	2022-12-14	18:48:31	19:02:04	809640	62bb23c919ebfd3b0448e942	156301734	1	main_slash	11	main_slash	159	stimuli_distractor_trianglediamonds.svg	stimuli_target_circletriangles.svg	9	yes	53	1	310
6.6.1	win	2022-12-14	18:48:31	19:02:04	809640	62bb23c919ebfd3b0448e942	156301734	1	main_slash	11	advance_on_keypress_SLASH	160	stimuli_distractor_trianglediamonds.svg	stimuli_target_circletriangles.svg	9	yes	57	0	894