build	computer.platform	date	time	timestamp	time_elapsed_ms	subject	group	session	blockcode	blocknum	trialcode	trialnum	stimulus_left	stimulus_right	stim_index	target_present	response	correct	latency
6.6.1	win	2022-12-14	13:57:32	14:02:54	315231	5ef37831c37ebb0bbd2d3e03	785355724	1	practice_z	5	practice_z	1	stimuli_distractor_trianglediamonds.svg	stimuli_target_squarediamonds.svg	11	yes	44	1	653
6.6.1	win	2022-12-14	13:57:32	14:02:54	315231	5ef37831c37ebb0bbd2d3e03	785355724	1	practice_z	5	advance_on_keypress_ZEE	2	stimuli_distractor_trianglediamonds.svg	stimuli_target_squarediamonds.svg	11	yes	57	0	981
6.6.1	win	2022-12-14	13:57:32	14:02:58	319861	5ef37831c37ebb0bbd2d3e03	785355724	1	practice_z	5	practice_z	3	stimuli_distractor_diamondtriangles.svg	stimuli_distractor_diamondtriangles.svg	13	no	0	1	2000
6.6.1	win	2022-12-14	13:57:32	14:02:58	319861	5ef37831c37ebb0bbd2d3e03	785355724	1	practice_z	5	advance_on_keypress_ZEE	4	stimuli_distractor_diamondtriangles.svg	stimuli_distractor_diamondtriangles.svg	13	no	57	0	950
6.6.1	win	2022-12-14	13:57:32	14:03:01	322956	5ef37831c37ebb0bbd2d3e03	785355724	1	practice_z	5	practice_z	5	stimuli_target_circlediamonds.svg	stimuli_distractor_trianglediamonds.svg	4	yes	44	1	495
6.6.1	win	2022-12-14	13:57:32	14:03:01	322956	5ef37831c37ebb0bbd2d3e03	785355724	1	practice_z	5	advance_on_keypress_ZEE	6	stimuli_target_circlediamonds.svg	stimuli_distractor_trianglediamonds.svg	4	yes	57	0	625
6.6.1	win	2022-12-14	13:57:32	14:03:06	327067	5ef37831c37ebb0bbd2d3e03	785355724	1	practice_z	5	practice_z	7	stimuli_distractor_diamondtriangles.svg	stimuli_target_trianglecircles.svg	9	yes	44	1	1856
6.6.1	win	2022-12-14	13:57:32	14:03:06	327067	5ef37831c37ebb0bbd2d3e03	785355724	1	practice_z	5	advance_on_keypress_ZEE	8	stimuli_distractor_diamondtriangles.svg	stimuli_target_trianglecircles.svg	9	yes	57	0	744
6.6.1	win	2022-12-14	13:57:32	14:03:09	330195	5ef37831c37ebb0bbd2d3e03	785355724	1	practice_z	5	practice_z	9	stimuli_distractor_trianglediamonds.svg	stimuli_target_circlediamonds.svg	10	yes	44	1	734
6.6.1	win	2022-12-14	13:57:32	14:03:09	330195	5ef37831c37ebb0bbd2d3e03	785355724	1	practice_z	5	advance_on_keypress_ZEE	10	stimuli_distractor_trianglediamonds.svg	stimuli_target_circlediamonds.svg	10	yes	57	0	483
6.6.1	win	2022-12-14	13:57:32	14:03:12	333102	5ef37831c37ebb0bbd2d3e03	785355724	1	practice_z	5	practice_z	11	stimuli_target_squarediamonds.svg	stimuli_distractor_diamondtriangles.svg	2	yes	44	1	775
6.6.1	win	2022-12-14	13:57:32	14:03:12	333102	5ef37831c37ebb0bbd2d3e03	785355724	1	practice_z	5	advance_on_keypress_ZEE	12	stimuli_target_squarediamonds.svg	stimuli_distractor_diamondtriangles.svg	2	yes	57	0	446
6.6.1	win	2022-12-14	13:57:32	14:03:16	337194	5ef37831c37ebb0bbd2d3e03	785355724	1	practice_z	5	practice_z	13	stimuli_target_diamondsquares.svg	stimuli_distractor_trianglediamonds.svg	6	yes	0	0	2000
6.6.1	win	2022-12-14	13:57:32	14:03:16	337194	5ef37831c37ebb0bbd2d3e03	785355724	1	practice_z	5	advance_on_keypress_ZEE	14	stimuli_target_diamondsquares.svg	stimuli_distractor_trianglediamonds.svg	6	yes	57	0	702
6.6.1	win	2022-12-14	13:57:32	14:03:20	341544	5ef37831c37ebb0bbd2d3e03	785355724	1	practice_z	5	practice_z	15	stimuli_distractor_trianglediamonds.svg	stimuli_distractor_diamondtriangles.svg	16	no	0	1	2000
6.6.1	win	2022-12-14	13:57:32	14:03:20	341544	5ef37831c37ebb0bbd2d3e03	785355724	1	practice_z	5	advance_on_keypress_ZEE	16	stimuli_distractor_trianglediamonds.svg	stimuli_distractor_diamondtriangles.svg	16	no	57	0	428
6.6.1	win	2022-12-14	13:57:32	14:03:23	344588	5ef37831c37ebb0bbd2d3e03	785355724	1	practice_z	5	practice_z	17	stimuli_distractor_trianglediamonds.svg	stimuli_target_diamondcircles.svg	12	yes	44	1	961
6.6.1	win	2022-12-14	13:57:32	14:03:23	344588	5ef37831c37ebb0bbd2d3e03	785355724	1	practice_z	5	advance_on_keypress_ZEE	18	stimuli_distractor_trianglediamonds.svg	stimuli_target_diamondcircles.svg	12	yes	57	0	1014
6.6.1	win	2022-12-14	13:57:32	14:03:26	347822	5ef37831c37ebb0bbd2d3e03	785355724	1	practice_z	5	practice_z	19	stimuli_target_diamondsquares.svg	stimuli_distractor_diamondtriangles.svg	3	yes	44	1	578
6.6.1	win	2022-12-14	13:57:32	14:03:26	347822	5ef37831c37ebb0bbd2d3e03	785355724	1	practice_z	5	advance_on_keypress_ZEE	20	stimuli_target_diamondsquares.svg	stimuli_distractor_diamondtriangles.svg	3	yes	57	0	298
6.6.1	win	2022-12-14	13:57:32	14:03:29	350549	5ef37831c37ebb0bbd2d3e03	785355724	1	practice_z	5	practice_z	21	stimuli_target_circlediamonds.svg	stimuli_distractor_diamondtriangles.svg	1	yes	44	1	788
6.6.1	win	2022-12-14	13:57:32	14:03:29	350549	5ef37831c37ebb0bbd2d3e03	785355724	1	practice_z	5	advance_on_keypress_ZEE	22	stimuli_target_circlediamonds.svg	stimuli_distractor_diamondtriangles.svg	1	yes	57	0	266
6.6.1	win	2022-12-14	13:57:32	14:03:31	352929	5ef37831c37ebb0bbd2d3e03	785355724	1	practice_z	5	practice_z	23	stimuli_distractor_diamondtriangles.svg	stimuli_target_circletriangles.svg	7	yes	44	1	469
6.6.1	win	2022-12-14	13:57:32	14:03:31	352929	5ef37831c37ebb0bbd2d3e03	785355724	1	practice_z	5	advance_on_keypress_ZEE	24	stimuli_distractor_diamondtriangles.svg	stimuli_target_circletriangles.svg	7	yes	57	0	234
6.6.1	win	2022-12-14	13:57:32	14:03:35	356810	5ef37831c37ebb0bbd2d3e03	785355724	1	practice_z	5	practice_z	25	stimuli_distractor_diamondtriangles.svg	stimuli_distractor_trianglediamonds.svg	14	no	0	1	2000
6.6.1	win	2022-12-14	13:57:32	14:03:35	356810	5ef37831c37ebb0bbd2d3e03	785355724	1	practice_z	5	advance_on_keypress_ZEE	26	stimuli_distractor_diamondtriangles.svg	stimuli_distractor_trianglediamonds.svg	14	no	57	0	246
6.6.1	win	2022-12-14	13:57:32	14:03:38	359507	5ef37831c37ebb0bbd2d3e03	785355724	1	practice_z	5	practice_z	27	stimuli_distractor_diamondtriangles.svg	stimuli_target_diamondcircles.svg	8	yes	44	1	813
6.6.1	win	2022-12-14	13:57:32	14:03:38	359507	5ef37831c37ebb0bbd2d3e03	785355724	1	practice_z	5	advance_on_keypress_ZEE	28	stimuli_distractor_diamondtriangles.svg	stimuli_target_diamondcircles.svg	8	yes	57	0	173
6.6.1	win	2022-12-14	13:57:32	14:03:40	361894	5ef37831c37ebb0bbd2d3e03	785355724	1	practice_z	5	practice_z	29	stimuli_target_squarediamonds.svg	stimuli_distractor_trianglediamonds.svg	5	yes	44	1	567
6.6.1	win	2022-12-14	13:57:32	14:03:40	361894	5ef37831c37ebb0bbd2d3e03	785355724	1	practice_z	5	advance_on_keypress_ZEE	30	stimuli_target_squarediamonds.svg	stimuli_distractor_trianglediamonds.svg	5	yes	57	0	177
6.6.1	win	2022-12-14	13:57:32	14:03:44	365710	5ef37831c37ebb0bbd2d3e03	785355724	1	practice_z	5	practice_z	31	stimuli_distractor_trianglediamonds.svg	stimuli_distractor_trianglediamonds.svg	15	no	0	1	2000
6.6.1	win	2022-12-14	13:57:32	14:03:44	365710	5ef37831c37ebb0bbd2d3e03	785355724	1	practice_z	5	advance_on_keypress_ZEE	32	stimuli_distractor_trianglediamonds.svg	stimuli_distractor_trianglediamonds.svg	15	no	57	0	59
6.6.1	win	2022-12-14	13:57:32	14:03:50	371279	5ef37831c37ebb0bbd2d3e03	785355724	1	main_z	7	main_z	1	stimuli_distractor_diamondtriangles.svg	stimuli_target_diamondcircles.svg	31	yes	44	1	571
6.6.1	win	2022-12-14	13:57:32	14:03:50	371279	5ef37831c37ebb0bbd2d3e03	785355724	1	main_z	7	advance_on_keypress_ZEE	2	stimuli_distractor_diamondtriangles.svg	stimuli_target_diamondcircles.svg	31	yes	57	0	1281
6.6.1	win	2022-12-14	13:57:32	14:03:52	373735	5ef37831c37ebb0bbd2d3e03	785355724	1	main_z	7	main_z	3	stimuli_distractor_diamondtriangles.svg	stimuli_target_circletriangles.svg	13	yes	44	1	527
6.6.1	win	2022-12-14	13:57:32	14:03:52	373735	5ef37831c37ebb0bbd2d3e03	785355724	1	main_z	7	advance_on_keypress_ZEE	4	stimuli_distractor_diamondtriangles.svg	stimuli_target_circletriangles.svg	13	yes	57	0	706
6.6.1	win	2022-12-14	13:57:32	14:03:56	377075	5ef37831c37ebb0bbd2d3e03	785355724	1	main_z	7	main_z	5	stimuli_distractor_diamondtriangles.svg	stimuli_distractor_trianglediamonds.svg	37	no	0	1	2000
6.6.1	win	2022-12-14	13:57:32	14:03:56	377075	5ef37831c37ebb0bbd2d3e03	785355724	1	main_z	7	advance_on_keypress_ZEE	6	stimuli_distractor_diamondtriangles.svg	stimuli_distractor_trianglediamonds.svg	37	no	57	0	299
6.6.1	win	2022-12-14	13:57:32	14:03:58	380025	5ef37831c37ebb0bbd2d3e03	785355724	1	main_z	7	main_z	7	stimuli_distractor_diamondtriangles.svg	stimuli_distractor_diamondtriangles.svg	39	no	0	1	2000
6.6.1	win	2022-12-14	13:57:32	14:03:58	380025	5ef37831c37ebb0bbd2d3e03	785355724	1	main_z	7	advance_on_keypress_ZEE	8	stimuli_distractor_diamondtriangles.svg	stimuli_distractor_diamondtriangles.svg	39	no	57	0	417
6.6.1	win	2022-12-14	13:57:32	14:04:00	381656	5ef37831c37ebb0bbd2d3e03	785355724	1	main_z	7	main_z	9	stimuli_target_diamondsquares.svg	stimuli_distractor_trianglediamonds.svg	20	yes	44	1	565
6.6.1	win	2022-12-14	13:57:32	14:04:00	381656	5ef37831c37ebb0bbd2d3e03	785355724	1	main_z	7	advance_on_keypress_ZEE	10	stimuli_target_diamondsquares.svg	stimuli_distractor_trianglediamonds.svg	20	yes	57	0	959
6.6.1	win	2022-12-14	13:57:32	14:04:04	385259	5ef37831c37ebb0bbd2d3e03	785355724	1	main_z	7	main_z	11	stimuli_distractor_diamondtriangles.svg	stimuli_distractor_trianglediamonds.svg	38	no	0	1	2000
6.6.1	win	2022-12-14	13:57:32	14:04:04	385259	5ef37831c37ebb0bbd2d3e03	785355724	1	main_z	7	advance_on_keypress_ZEE	12	stimuli_distractor_diamondtriangles.svg	stimuli_distractor_trianglediamonds.svg	38	no	57	0	287
6.6.1	win	2022-12-14	13:57:32	14:04:05	386625	5ef37831c37ebb0bbd2d3e03	785355724	1	main_z	7	main_z	13	stimuli_target_trianglecircles.svg	stimuli_distractor_diamondtriangles.svg	21	yes	44	1	432
6.6.1	win	2022-12-14	13:57:32	14:04:05	386625	5ef37831c37ebb0bbd2d3e03	785355724	1	main_z	7	advance_on_keypress_ZEE	14	stimuli_target_trianglecircles.svg	stimuli_distractor_diamondtriangles.svg	21	yes	57	0	695
6.6.1	win	2022-12-14	13:57:32	14:04:07	388644	5ef37831c37ebb0bbd2d3e03	785355724	1	main_z	7	main_z	15	stimuli_target_squaretriangles.svg	stimuli_distractor_trianglediamonds.svg	3	yes	44	1	669
6.6.1	win	2022-12-14	13:57:32	14:04:07	388644	5ef37831c37ebb0bbd2d3e03	785355724	1	main_z	7	advance_on_keypress_ZEE	16	stimuli_target_squaretriangles.svg	stimuli_distractor_trianglediamonds.svg	3	yes	57	0	382
6.6.1	win	2022-12-14	13:57:32	14:04:09	390370	5ef37831c37ebb0bbd2d3e03	785355724	1	main_z	7	main_z	17	stimuli_distractor_trianglediamonds.svg	stimuli_target_diamondcircles.svg	27	yes	44	1	695
6.6.1	win	2022-12-14	13:57:32	14:04:09	390370	5ef37831c37ebb0bbd2d3e03	785355724	1	main_z	7	advance_on_keypress_ZEE	18	stimuli_distractor_trianglediamonds.svg	stimuli_target_diamondcircles.svg	27	yes	57	0	326
6.6.1	win	2022-12-14	13:57:32	14:04:10	391841	5ef37831c37ebb0bbd2d3e03	785355724	1	main_z	7	main_z	19	stimuli_distractor_trianglediamonds.svg	stimuli_target_circlediamonds.svg	10	yes	44	1	514
6.6.1	win	2022-12-14	13:57:32	14:04:10	391841	5ef37831c37ebb0bbd2d3e03	785355724	1	main_z	7	advance_on_keypress_ZEE	20	stimuli_distractor_trianglediamonds.svg	stimuli_target_circlediamonds.svg	10	yes	57	0	195
6.6.1	win	2022-12-14	13:57:32	14:04:12	393397	5ef37831c37ebb0bbd2d3e03	785355724	1	main_z	7	main_z	21	stimuli_distractor_diamondtriangles.svg	stimuli_target_diamondsquares.svg	32	yes	44	1	723
6.6.1	win	2022-12-14	13:57:32	14:04:12	393397	5ef37831c37ebb0bbd2d3e03	785355724	1	main_z	7	advance_on_keypress_ZEE	22	stimuli_distractor_diamondtriangles.svg	stimuli_target_diamondsquares.svg	32	yes	57	0	169
6.6.1	win	2022-12-14	13:57:32	14:04:14	395302	5ef37831c37ebb0bbd2d3e03	785355724	1	main_z	7	main_z	23	stimuli_target_circlediamonds.svg	stimuli_distractor_diamondtriangles.svg	6	yes	44	1	1094
6.6.1	win	2022-12-14	13:57:32	14:04:14	395302	5ef37831c37ebb0bbd2d3e03	785355724	1	main_z	7	advance_on_keypress_ZEE	24	stimuli_target_circlediamonds.svg	stimuli_distractor_diamondtriangles.svg	6	yes	57	0	204
6.6.1	win	2022-12-14	13:57:32	14:04:17	398141	5ef37831c37ebb0bbd2d3e03	785355724	1	main_z	7	main_z	25	stimuli_distractor_trianglediamonds.svg	stimuli_distractor_diamondtriangles.svg	35	no	0	1	2000
6.6.1	win	2022-12-14	13:57:32	14:04:17	398141	5ef37831c37ebb0bbd2d3e03	785355724	1	main_z	7	advance_on_keypress_ZEE	26	stimuli_distractor_trianglediamonds.svg	stimuli_distractor_diamondtriangles.svg	35	no	57	0	448
6.6.1	win	2022-12-14	13:57:32	14:04:18	399762	5ef37831c37ebb0bbd2d3e03	785355724	1	main_z	7	main_z	27	stimuli_distractor_trianglediamonds.svg	stimuli_target_trianglesquares.svg	26	yes	44	1	518
6.6.1	win	2022-12-14	13:57:32	14:04:18	399762	5ef37831c37ebb0bbd2d3e03	785355724	1	main_z	7	advance_on_keypress_ZEE	28	stimuli_distractor_trianglediamonds.svg	stimuli_target_trianglesquares.svg	26	yes	57	0	155
6.6.1	win	2022-12-14	13:57:32	14:04:21	402558	5ef37831c37ebb0bbd2d3e03	785355724	1	main_z	7	main_z	29	stimuli_distractor_trianglediamonds.svg	stimuli_distractor_trianglediamonds.svg	34	no	0	1	2000
6.6.1	win	2022-12-14	13:57:32	14:04:21	402558	5ef37831c37ebb0bbd2d3e03	785355724	1	main_z	7	advance_on_keypress_ZEE	30	stimuli_distractor_trianglediamonds.svg	stimuli_distractor_trianglediamonds.svg	34	no	57	0	498
6.6.1	win	2022-12-14	13:57:32	14:04:23	404200	5ef37831c37ebb0bbd2d3e03	785355724	1	main_z	7	main_z	31	stimuli_target_trianglesquares.svg	stimuli_distractor_trianglediamonds.svg	18	yes	44	1	493
6.6.1	win	2022-12-14	13:57:32	14:04:23	404200	5ef37831c37ebb0bbd2d3e03	785355724	1	main_z	7	advance_on_keypress_ZEE	32	stimuli_target_trianglesquares.svg	stimuli_distractor_trianglediamonds.svg	18	yes	57	0	164
6.6.1	win	2022-12-14	13:57:32	14:04:24	406006	5ef37831c37ebb0bbd2d3e03	785355724	1	main_z	7	main_z	33	stimuli_distractor_trianglediamonds.svg	stimuli_target_diamondsquares.svg	28	yes	44	1	1014
6.6.1	win	2022-12-14	13:57:32	14:04:24	406006	5ef37831c37ebb0bbd2d3e03	785355724	1	main_z	7	advance_on_keypress_ZEE	34	stimuli_distractor_trianglediamonds.svg	stimuli_target_diamondsquares.svg	28	yes	57	0	141
6.6.1	win	2022-12-14	13:57:32	14:04:26	407330	5ef37831c37ebb0bbd2d3e03	785355724	1	main_z	7	main_z	35	stimuli_target_diamondcircles.svg	stimuli_distractor_trianglediamonds.svg	19	yes	44	1	538
6.6.1	win	2022-12-14	13:57:32	14:04:26	407330	5ef37831c37ebb0bbd2d3e03	785355724	1	main_z	7	advance_on_keypress_ZEE	36	stimuli_target_diamondcircles.svg	stimuli_distractor_trianglediamonds.svg	19	yes	57	0	113
6.6.1	win	2022-12-14	13:57:32	14:04:27	408693	5ef37831c37ebb0bbd2d3e03	785355724	1	main_z	7	main_z	37	stimuli_distractor_trianglediamonds.svg	stimuli_target_circletriangles.svg	9	yes	44	1	618
6.6.1	win	2022-12-14	13:57:32	14:04:27	408693	5ef37831c37ebb0bbd2d3e03	785355724	1	main_z	7	advance_on_keypress_ZEE	38	stimuli_distractor_trianglediamonds.svg	stimuli_target_circletriangles.svg	9	yes	57	0	115
6.6.1	win	2022-12-14	13:57:32	14:04:29	410161	5ef37831c37ebb0bbd2d3e03	785355724	1	main_z	7	main_z	39	stimuli_target_diamondsquares.svg	stimuli_distractor_diamondtriangles.svg	24	yes	44	1	703
6.6.1	win	2022-12-14	13:57:32	14:04:29	410161	5ef37831c37ebb0bbd2d3e03	785355724	1	main_z	7	advance_on_keypress_ZEE	40	stimuli_target_diamondsquares.svg	stimuli_distractor_diamondtriangles.svg	24	yes	57	0	72
6.6.1	win	2022-12-14	13:57:32	14:04:31	412242	5ef37831c37ebb0bbd2d3e03	785355724	1	main_z	7	main_z	41	stimuli_distractor_trianglediamonds.svg	stimuli_target_squaretriangles.svg	11	yes	44	1	1367
6.6.1	win	2022-12-14	13:57:32	14:04:31	412242	5ef37831c37ebb0bbd2d3e03	785355724	1	main_z	7	advance_on_keypress_ZEE	42	stimuli_distractor_trianglediamonds.svg	stimuli_target_squaretriangles.svg	11	yes	57	0	154
6.6.1	win	2022-12-14	13:57:32	14:04:33	415041	5ef37831c37ebb0bbd2d3e03	785355724	1	main_z	7	main_z	43	stimuli_distractor_diamondtriangles.svg	stimuli_target_trianglecircles.svg	29	yes	0	0	2000
6.6.1	win	2022-12-14	13:57:32	14:04:33	415041	5ef37831c37ebb0bbd2d3e03	785355724	1	main_z	7	advance_on_keypress_ZEE	44	stimuli_distractor_diamondtriangles.svg	stimuli_target_trianglecircles.svg	29	yes	57	0	558
6.6.1	win	2022-12-14	13:57:32	14:04:35	416783	5ef37831c37ebb0bbd2d3e03	785355724	1	main_z	7	main_z	45	stimuli_target_diamondcircles.svg	stimuli_distractor_diamondtriangles.svg	23	yes	44	1	543
6.6.1	win	2022-12-14	13:57:32	14:04:35	416783	5ef37831c37ebb0bbd2d3e03	785355724	1	main_z	7	advance_on_keypress_ZEE	46	stimuli_target_diamondcircles.svg	stimuli_distractor_diamondtriangles.svg	23	yes	57	0	269
6.6.1	win	2022-12-14	13:57:32	14:04:38	419691	5ef37831c37ebb0bbd2d3e03	785355724	1	main_z	7	main_z	47	stimuli_distractor_diamondtriangles.svg	stimuli_target_trianglesquares.svg	30	yes	0	0	2000
6.6.1	win	2022-12-14	13:57:32	14:04:38	419691	5ef37831c37ebb0bbd2d3e03	785355724	1	main_z	7	advance_on_keypress_ZEE	48	stimuli_distractor_diamondtriangles.svg	stimuli_target_trianglesquares.svg	30	yes	57	0	350
6.6.1	win	2022-12-14	13:57:32	14:04:41	422691	5ef37831c37ebb0bbd2d3e03	785355724	1	main_z	7	main_z	49	stimuli_distractor_trianglediamonds.svg	stimuli_distractor_diamondtriangles.svg	36	no	0	1	2000
6.6.1	win	2022-12-14	13:57:32	14:04:41	422691	5ef37831c37ebb0bbd2d3e03	785355724	1	main_z	7	advance_on_keypress_ZEE	50	stimuli_distractor_trianglediamonds.svg	stimuli_distractor_diamondtriangles.svg	36	no	57	0	268
6.6.1	win	2022-12-14	13:57:32	14:04:43	424153	5ef37831c37ebb0bbd2d3e03	785355724	1	main_z	7	main_z	51	stimuli_target_squarediamonds.svg	stimuli_distractor_trianglediamonds.svg	4	yes	44	1	546
6.6.1	win	2022-12-14	13:57:32	14:04:43	424153	5ef37831c37ebb0bbd2d3e03	785355724	1	main_z	7	advance_on_keypress_ZEE	52	stimuli_target_squarediamonds.svg	stimuli_distractor_trianglediamonds.svg	4	yes	57	0	111
6.6.1	win	2022-12-14	13:57:32	14:04:44	425526	5ef37831c37ebb0bbd2d3e03	785355724	1	main_z	7	main_z	53	stimuli_target_circletriangles.svg	stimuli_distractor_diamondtriangles.svg	5	yes	44	1	636
6.6.1	win	2022-12-14	13:57:32	14:04:44	425526	5ef37831c37ebb0bbd2d3e03	785355724	1	main_z	7	advance_on_keypress_ZEE	54	stimuli_target_circletriangles.svg	stimuli_distractor_diamondtriangles.svg	5	yes	57	0	72
6.6.1	win	2022-12-14	13:57:32	14:04:45	426871	5ef37831c37ebb0bbd2d3e03	785355724	1	main_z	7	main_z	55	stimuli_target_squaretriangles.svg	stimuli_distractor_diamondtriangles.svg	7	yes	44	1	630
6.6.1	win	2022-12-14	13:57:32	14:04:45	426871	5ef37831c37ebb0bbd2d3e03	785355724	1	main_z	7	advance_on_keypress_ZEE	56	stimuli_target_squaretriangles.svg	stimuli_distractor_diamondtriangles.svg	7	yes	57	0	121
6.6.1	win	2022-12-14	13:57:32	14:04:47	428263	5ef37831c37ebb0bbd2d3e03	785355724	1	main_z	7	main_z	57	stimuli_target_circletriangles.svg	stimuli_distractor_trianglediamonds.svg	1	yes	44	1	639
6.6.1	win	2022-12-14	13:57:32	14:04:47	428263	5ef37831c37ebb0bbd2d3e03	785355724	1	main_z	7	advance_on_keypress_ZEE	58	stimuli_target_circletriangles.svg	stimuli_distractor_trianglediamonds.svg	1	yes	57	0	100
6.6.1	win	2022-12-14	13:57:32	14:04:48	429447	5ef37831c37ebb0bbd2d3e03	785355724	1	main_z	7	main_z	59	stimuli_target_circlediamonds.svg	stimuli_distractor_trianglediamonds.svg	2	yes	44	1	440
6.6.1	win	2022-12-14	13:57:32	14:04:48	429447	5ef37831c37ebb0bbd2d3e03	785355724	1	main_z	7	advance_on_keypress_ZEE	60	stimuli_target_circlediamonds.svg	stimuli_distractor_trianglediamonds.svg	2	yes	57	0	170
6.6.1	win	2022-12-14	13:57:32	14:04:49	430855	5ef37831c37ebb0bbd2d3e03	785355724	1	main_z	7	main_z	61	stimuli_distractor_diamondtriangles.svg	stimuli_target_circlediamonds.svg	14	yes	44	1	598
6.6.1	win	2022-12-14	13:57:32	14:04:49	430855	5ef37831c37ebb0bbd2d3e03	785355724	1	main_z	7	advance_on_keypress_ZEE	62	stimuli_distractor_diamondtriangles.svg	stimuli_target_circlediamonds.svg	14	yes	57	0	148
6.6.1	win	2022-12-14	13:57:32	14:04:52	433657	5ef37831c37ebb0bbd2d3e03	785355724	1	main_z	7	main_z	63	stimuli_distractor_trianglediamonds.svg	stimuli_distractor_trianglediamonds.svg	33	no	0	1	2000
6.6.1	win	2022-12-14	13:57:32	14:04:52	433657	5ef37831c37ebb0bbd2d3e03	785355724	1	main_z	7	advance_on_keypress_ZEE	64	stimuli_distractor_trianglediamonds.svg	stimuli_distractor_trianglediamonds.svg	33	no	57	0	255
6.6.1	win	2022-12-14	13:57:32	14:04:54	435101	5ef37831c37ebb0bbd2d3e03	785355724	1	main_z	7	main_z	65	stimuli_distractor_diamondtriangles.svg	stimuli_target_squarediamonds.svg	16	yes	44	1	544
6.6.1	win	2022-12-14	13:57:32	14:04:54	435101	5ef37831c37ebb0bbd2d3e03	785355724	1	main_z	7	advance_on_keypress_ZEE	66	stimuli_distractor_diamondtriangles.svg	stimuli_target_squarediamonds.svg	16	yes	57	0	73
6.6.1	win	2022-12-14	13:57:32	14:04:55	436456	5ef37831c37ebb0bbd2d3e03	785355724	1	main_z	7	main_z	67	stimuli_target_squarediamonds.svg	stimuli_distractor_diamondtriangles.svg	8	yes	44	1	632
6.6.1	win	2022-12-14	13:57:32	14:04:55	436456	5ef37831c37ebb0bbd2d3e03	785355724	1	main_z	7	advance_on_keypress_ZEE	68	stimuli_target_squarediamonds.svg	stimuli_distractor_diamondtriangles.svg	8	yes	57	0	87
6.6.1	win	2022-12-14	13:57:32	14:04:58	439191	5ef37831c37ebb0bbd2d3e03	785355724	1	main_z	7	main_z	69	stimuli_target_trianglesquares.svg	stimuli_distractor_diamondtriangles.svg	22	yes	0	0	2000
6.6.1	win	2022-12-14	13:57:32	14:04:58	439191	5ef37831c37ebb0bbd2d3e03	785355724	1	main_z	7	advance_on_keypress_ZEE	70	stimuli_target_trianglesquares.svg	stimuli_distractor_diamondtriangles.svg	22	yes	57	0	246
6.6.1	win	2022-12-14	13:57:32	14:04:59	440657	5ef37831c37ebb0bbd2d3e03	785355724	1	main_z	7	main_z	71	stimuli_distractor_diamondtriangles.svg	stimuli_target_squaretriangles.svg	15	yes	44	1	583
6.6.1	win	2022-12-14	13:57:32	14:04:59	440657	5ef37831c37ebb0bbd2d3e03	785355724	1	main_z	7	advance_on_keypress_ZEE	72	stimuli_distractor_diamondtriangles.svg	stimuli_target_squaretriangles.svg	15	yes	57	0	68
6.6.1	win	2022-12-14	13:57:32	14:05:02	443374	5ef37831c37ebb0bbd2d3e03	785355724	1	main_z	7	main_z	73	stimuli_target_trianglecircles.svg	stimuli_distractor_trianglediamonds.svg	17	yes	0	0	2000
6.6.1	win	2022-12-14	13:57:32	14:05:02	443374	5ef37831c37ebb0bbd2d3e03	785355724	1	main_z	7	advance_on_keypress_ZEE	74	stimuli_target_trianglecircles.svg	stimuli_distractor_trianglediamonds.svg	17	yes	57	0	249
6.6.1	win	2022-12-14	13:57:32	14:05:05	446274	5ef37831c37ebb0bbd2d3e03	785355724	1	main_z	7	main_z	75	stimuli_distractor_diamondtriangles.svg	stimuli_distractor_diamondtriangles.svg	40	no	0	1	2000
6.6.1	win	2022-12-14	13:57:32	14:05:05	446274	5ef37831c37ebb0bbd2d3e03	785355724	1	main_z	7	advance_on_keypress_ZEE	76	stimuli_distractor_diamondtriangles.svg	stimuli_distractor_diamondtriangles.svg	40	no	57	0	252
6.6.1	win	2022-12-14	13:57:32	14:05:06	448026	5ef37831c37ebb0bbd2d3e03	785355724	1	main_z	7	main_z	77	stimuli_distractor_trianglediamonds.svg	stimuli_target_trianglecircles.svg	25	yes	44	1	852
6.6.1	win	2022-12-14	13:57:32	14:05:06	448026	5ef37831c37ebb0bbd2d3e03	785355724	1	main_z	7	advance_on_keypress_ZEE	78	stimuli_distractor_trianglediamonds.svg	stimuli_target_trianglecircles.svg	25	yes	57	0	86
6.6.1	win	2022-12-14	13:57:32	14:05:08	449600	5ef37831c37ebb0bbd2d3e03	785355724	1	main_z	7	main_z	79	stimuli_distractor_trianglediamonds.svg	stimuli_target_squarediamonds.svg	12	yes	44	1	844
6.6.1	win	2022-12-14	13:57:32	14:05:08	449600	5ef37831c37ebb0bbd2d3e03	785355724	1	main_z	7	advance_on_keypress_ZEE	80	stimuli_distractor_trianglediamonds.svg	stimuli_target_squarediamonds.svg	12	yes	57	0	99
6.6.1	win	2022-12-14	13:57:32	14:05:10	451665	5ef37831c37ebb0bbd2d3e03	785355724	1	main_z	7	main_z	81	stimuli_target_trianglesquares.svg	stimuli_distractor_trianglediamonds.svg	18	yes	44	1	1325
6.6.1	win	2022-12-14	13:57:32	14:05:10	451665	5ef37831c37ebb0bbd2d3e03	785355724	1	main_z	7	advance_on_keypress_ZEE	82	stimuli_target_trianglesquares.svg	stimuli_distractor_trianglediamonds.svg	18	yes	57	0	558
6.6.1	win	2022-12-14	13:57:32	14:05:12	453405	5ef37831c37ebb0bbd2d3e03	785355724	1	main_z	7	main_z	83	stimuli_target_circlediamonds.svg	stimuli_distractor_diamondtriangles.svg	6	yes	44	1	548
6.6.1	win	2022-12-14	13:57:32	14:05:12	453405	5ef37831c37ebb0bbd2d3e03	785355724	1	main_z	7	advance_on_keypress_ZEE	84	stimuli_target_circlediamonds.svg	stimuli_distractor_diamondtriangles.svg	6	yes	57	0	77
6.6.1	win	2022-12-14	13:57:32	14:05:13	454838	5ef37831c37ebb0bbd2d3e03	785355724	1	main_z	7	main_z	85	stimuli_target_diamondcircles.svg	stimuli_distractor_diamondtriangles.svg	23	yes	44	1	715
6.6.1	win	2022-12-14	13:57:32	14:05:13	454838	5ef37831c37ebb0bbd2d3e03	785355724	1	main_z	7	advance_on_keypress_ZEE	86	stimuli_target_diamondcircles.svg	stimuli_distractor_diamondtriangles.svg	23	yes	57	0	107
6.6.1	win	2022-12-14	13:57:32	14:05:15	456332	5ef37831c37ebb0bbd2d3e03	785355724	1	main_z	7	main_z	87	stimuli_distractor_diamondtriangles.svg	stimuli_target_circletriangles.svg	13	yes	44	1	742
6.6.1	win	2022-12-14	13:57:32	14:05:15	456332	5ef37831c37ebb0bbd2d3e03	785355724	1	main_z	7	advance_on_keypress_ZEE	88	stimuli_distractor_diamondtriangles.svg	stimuli_target_circletriangles.svg	13	yes	57	0	98
6.6.1	win	2022-12-14	13:57:32	14:05:18	459073	5ef37831c37ebb0bbd2d3e03	785355724	1	main_z	7	main_z	89	stimuli_distractor_trianglediamonds.svg	stimuli_target_diamondsquares.svg	28	yes	0	0	2000
6.6.1	win	2022-12-14	13:57:32	14:05:18	459073	5ef37831c37ebb0bbd2d3e03	785355724	1	main_z	7	advance_on_keypress_ZEE	90	stimuli_distractor_trianglediamonds.svg	stimuli_target_diamondsquares.svg	28	yes	57	0	230
6.6.1	win	2022-12-14	13:57:32	14:05:19	460624	5ef37831c37ebb0bbd2d3e03	785355724	1	main_z	7	main_z	91	stimuli_distractor_diamondtriangles.svg	stimuli_target_trianglecircles.svg	29	yes	44	1	667
6.6.1	win	2022-12-14	13:57:32	14:05:19	460624	5ef37831c37ebb0bbd2d3e03	785355724	1	main_z	7	advance_on_keypress_ZEE	92	stimuli_distractor_diamondtriangles.svg	stimuli_target_trianglecircles.svg	29	yes	57	0	104
6.6.1	win	2022-12-14	13:57:32	14:05:21	462189	5ef37831c37ebb0bbd2d3e03	785355724	1	main_z	7	main_z	93	stimuli_target_diamondsquares.svg	stimuli_distractor_diamondtriangles.svg	24	yes	44	1	815
6.6.1	win	2022-12-14	13:57:32	14:05:21	462189	5ef37831c37ebb0bbd2d3e03	785355724	1	main_z	7	advance_on_keypress_ZEE	94	stimuli_target_diamondsquares.svg	stimuli_distractor_diamondtriangles.svg	24	yes	57	0	87
6.6.1	win	2022-12-14	13:57:32	14:05:23	464923	5ef37831c37ebb0bbd2d3e03	785355724	1	main_z	7	main_z	95	stimuli_distractor_trianglediamonds.svg	stimuli_distractor_diamondtriangles.svg	35	no	0	1	2000
6.6.1	win	2022-12-14	13:57:32	14:05:23	464923	5ef37831c37ebb0bbd2d3e03	785355724	1	main_z	7	advance_on_keypress_ZEE	96	stimuli_distractor_trianglediamonds.svg	stimuli_distractor_diamondtriangles.svg	35	no	57	0	257
6.6.1	win	2022-12-14	13:57:32	14:05:25	466414	5ef37831c37ebb0bbd2d3e03	785355724	1	main_z	7	main_z	97	stimuli_distractor_trianglediamonds.svg	stimuli_target_circletriangles.svg	9	yes	44	1	590
6.6.1	win	2022-12-14	13:57:32	14:05:25	466414	5ef37831c37ebb0bbd2d3e03	785355724	1	main_z	7	advance_on_keypress_ZEE	98	stimuli_distractor_trianglediamonds.svg	stimuli_target_circletriangles.svg	9	yes	57	0	76
6.6.1	win	2022-12-14	13:57:32	14:05:28	469123	5ef37831c37ebb0bbd2d3e03	785355724	1	main_z	7	main_z	99	stimuli_distractor_trianglediamonds.svg	stimuli_distractor_trianglediamonds.svg	34	no	0	1	2000
6.6.1	win	2022-12-14	13:57:32	14:05:28	469123	5ef37831c37ebb0bbd2d3e03	785355724	1	main_z	7	advance_on_keypress_ZEE	100	stimuli_distractor_trianglediamonds.svg	stimuli_distractor_trianglediamonds.svg	34	no	57	0	308
6.6.1	win	2022-12-14	13:57:32	14:05:29	470661	5ef37831c37ebb0bbd2d3e03	785355724	1	main_z	7	main_z	101	stimuli_distractor_diamondtriangles.svg	stimuli_target_diamondsquares.svg	32	yes	44	1	587
6.6.1	win	2022-12-14	13:57:32	14:05:29	470661	5ef37831c37ebb0bbd2d3e03	785355724	1	main_z	7	advance_on_keypress_ZEE	102	stimuli_distractor_diamondtriangles.svg	stimuli_target_diamondsquares.svg	32	yes	57	0	77
6.6.1	win	2022-12-14	13:57:32	14:05:32	473373	5ef37831c37ebb0bbd2d3e03	785355724	1	main_z	7	main_z	103	stimuli_distractor_diamondtriangles.svg	stimuli_distractor_trianglediamonds.svg	38	no	0	1	2000
6.6.1	win	2022-12-14	13:57:32	14:05:32	473373	5ef37831c37ebb0bbd2d3e03	785355724	1	main_z	7	advance_on_keypress_ZEE	104	stimuli_distractor_diamondtriangles.svg	stimuli_distractor_trianglediamonds.svg	38	no	57	0	259
6.6.1	win	2022-12-14	13:57:32	14:05:33	474861	5ef37831c37ebb0bbd2d3e03	785355724	1	main_z	7	main_z	105	stimuli_target_trianglecircles.svg	stimuli_distractor_trianglediamonds.svg	17	yes	44	1	588
6.6.1	win	2022-12-14	13:57:32	14:05:33	474861	5ef37831c37ebb0bbd2d3e03	785355724	1	main_z	7	advance_on_keypress_ZEE	106	stimuli_target_trianglecircles.svg	stimuli_distractor_trianglediamonds.svg	17	yes	57	0	58
6.6.1	win	2022-12-14	13:57:32	14:05:35	476204	5ef37831c37ebb0bbd2d3e03	785355724	1	main_z	7	main_z	107	stimuli_distractor_trianglediamonds.svg	stimuli_target_diamondcircles.svg	27	yes	44	1	648
6.6.1	win	2022-12-14	13:57:32	14:05:35	476204	5ef37831c37ebb0bbd2d3e03	785355724	1	main_z	7	advance_on_keypress_ZEE	108	stimuli_distractor_trianglediamonds.svg	stimuli_target_diamondcircles.svg	27	yes	57	0	81
6.6.1	win	2022-12-14	13:57:32	14:05:36	477653	5ef37831c37ebb0bbd2d3e03	785355724	1	main_z	7	main_z	109	stimuli_distractor_trianglediamonds.svg	stimuli_target_trianglecircles.svg	25	yes	44	1	714
6.6.1	win	2022-12-14	13:57:32	14:05:36	477653	5ef37831c37ebb0bbd2d3e03	785355724	1	main_z	7	advance_on_keypress_ZEE	110	stimuli_distractor_trianglediamonds.svg	stimuli_target_trianglecircles.svg	25	yes	57	0	76
6.6.1	win	2022-12-14	13:57:32	14:05:39	480373	5ef37831c37ebb0bbd2d3e03	785355724	1	main_z	7	main_z	111	stimuli_distractor_diamondtriangles.svg	stimuli_distractor_diamondtriangles.svg	40	no	0	1	2000
6.6.1	win	2022-12-14	13:57:32	14:05:39	480373	5ef37831c37ebb0bbd2d3e03	785355724	1	main_z	7	advance_on_keypress_ZEE	112	stimuli_distractor_diamondtriangles.svg	stimuli_distractor_diamondtriangles.svg	40	no	57	0	277
6.6.1	win	2022-12-14	13:57:32	14:05:40	481919	5ef37831c37ebb0bbd2d3e03	785355724	1	main_z	7	main_z	113	stimuli_distractor_diamondtriangles.svg	stimuli_target_trianglesquares.svg	30	yes	44	1	630
6.6.1	win	2022-12-14	13:57:32	14:05:40	481919	5ef37831c37ebb0bbd2d3e03	785355724	1	main_z	7	advance_on_keypress_ZEE	114	stimuli_distractor_diamondtriangles.svg	stimuli_target_trianglesquares.svg	30	yes	57	0	103
6.6.1	win	2022-12-14	13:57:32	14:05:43	484656	5ef37831c37ebb0bbd2d3e03	785355724	1	main_z	7	main_z	115	stimuli_distractor_diamondtriangles.svg	stimuli_target_circlediamonds.svg	14	yes	0	0	2000
6.6.1	win	2022-12-14	13:57:32	14:05:43	484656	5ef37831c37ebb0bbd2d3e03	785355724	1	main_z	7	advance_on_keypress_ZEE	116	stimuli_distractor_diamondtriangles.svg	stimuli_target_circlediamonds.svg	14	yes	57	0	1243
6.6.1	win	2022-12-14	13:57:32	14:05:47	488052	5ef37831c37ebb0bbd2d3e03	785355724	1	main_z	7	main_z	117	stimuli_target_circletriangles.svg	stimuli_distractor_diamondtriangles.svg	5	yes	44	1	1512
6.6.1	win	2022-12-14	13:57:32	14:05:47	488052	5ef37831c37ebb0bbd2d3e03	785355724	1	main_z	7	advance_on_keypress_ZEE	118	stimuli_target_circletriangles.svg	stimuli_distractor_diamondtriangles.svg	5	yes	57	0	586
6.6.1	win	2022-12-14	13:57:32	14:05:50	491130	5ef37831c37ebb0bbd2d3e03	785355724	1	main_z	7	main_z	119	stimuli_distractor_diamondtriangles.svg	stimuli_target_squarediamonds.svg	16	yes	44	1	1857
6.6.1	win	2022-12-14	13:57:32	14:05:50	491130	5ef37831c37ebb0bbd2d3e03	785355724	1	main_z	7	advance_on_keypress_ZEE	120	stimuli_distractor_diamondtriangles.svg	stimuli_target_squarediamonds.svg	16	yes	57	0	471
6.6.1	win	2022-12-14	13:57:32	14:05:51	492873	5ef37831c37ebb0bbd2d3e03	785355724	1	main_z	7	main_z	121	stimuli_distractor_trianglediamonds.svg	stimuli_target_squarediamonds.svg	12	yes	44	1	634
6.6.1	win	2022-12-14	13:57:32	14:05:51	492873	5ef37831c37ebb0bbd2d3e03	785355724	1	main_z	7	advance_on_keypress_ZEE	122	stimuli_distractor_trianglediamonds.svg	stimuli_target_squarediamonds.svg	12	yes	57	0	150
6.6.1	win	2022-12-14	13:57:32	14:05:53	494317	5ef37831c37ebb0bbd2d3e03	785355724	1	main_z	7	main_z	123	stimuli_distractor_diamondtriangles.svg	stimuli_target_squaretriangles.svg	15	yes	44	1	645
6.6.1	win	2022-12-14	13:57:32	14:05:53	494317	5ef37831c37ebb0bbd2d3e03	785355724	1	main_z	7	advance_on_keypress_ZEE	124	stimuli_distractor_diamondtriangles.svg	stimuli_target_squaretriangles.svg	15	yes	57	0	125
6.6.1	win	2022-12-14	13:57:32	14:05:56	497073	5ef37831c37ebb0bbd2d3e03	785355724	1	main_z	7	main_z	125	stimuli_target_trianglesquares.svg	stimuli_distractor_diamondtriangles.svg	22	yes	0	0	2000
6.6.1	win	2022-12-14	13:57:32	14:05:56	497073	5ef37831c37ebb0bbd2d3e03	785355724	1	main_z	7	advance_on_keypress_ZEE	126	stimuli_target_trianglesquares.svg	stimuli_distractor_diamondtriangles.svg	22	yes	57	0	321
6.6.1	win	2022-12-14	13:57:32	14:05:58	500039	5ef37831c37ebb0bbd2d3e03	785355724	1	main_z	7	main_z	127	stimuli_distractor_trianglediamonds.svg	stimuli_distractor_trianglediamonds.svg	33	no	0	1	2000
6.6.1	win	2022-12-14	13:57:32	14:05:58	500039	5ef37831c37ebb0bbd2d3e03	785355724	1	main_z	7	advance_on_keypress_ZEE	128	stimuli_distractor_trianglediamonds.svg	stimuli_distractor_trianglediamonds.svg	33	no	57	0	273
6.6.1	win	2022-12-14	13:57:32	14:06:00	501581	5ef37831c37ebb0bbd2d3e03	785355724	1	main_z	7	main_z	129	stimuli_target_circletriangles.svg	stimuli_distractor_trianglediamonds.svg	1	yes	44	1	626
6.6.1	win	2022-12-14	13:57:32	14:06:00	501581	5ef37831c37ebb0bbd2d3e03	785355724	1	main_z	7	advance_on_keypress_ZEE	130	stimuli_target_circletriangles.svg	stimuli_distractor_trianglediamonds.svg	1	yes	57	0	77
6.6.1	win	2022-12-14	13:57:32	14:06:01	502910	5ef37831c37ebb0bbd2d3e03	785355724	1	main_z	7	main_z	131	stimuli_distractor_trianglediamonds.svg	stimuli_target_circlediamonds.svg	10	yes	44	1	621
6.6.1	win	2022-12-14	13:57:32	14:06:01	502910	5ef37831c37ebb0bbd2d3e03	785355724	1	main_z	7	advance_on_keypress_ZEE	132	stimuli_distractor_trianglediamonds.svg	stimuli_target_circlediamonds.svg	10	yes	57	0	93
6.6.1	win	2022-12-14	13:57:32	14:06:04	505639	5ef37831c37ebb0bbd2d3e03	785355724	1	main_z	7	main_z	133	stimuli_distractor_trianglediamonds.svg	stimuli_distractor_diamondtriangles.svg	36	no	0	1	2000
6.6.1	win	2022-12-14	13:57:32	14:06:04	505639	5ef37831c37ebb0bbd2d3e03	785355724	1	main_z	7	advance_on_keypress_ZEE	134	stimuli_distractor_trianglediamonds.svg	stimuli_distractor_diamondtriangles.svg	36	no	57	0	313
6.6.1	win	2022-12-14	13:57:32	14:06:07	508589	5ef37831c37ebb0bbd2d3e03	785355724	1	main_z	7	main_z	135	stimuli_distractor_diamondtriangles.svg	stimuli_distractor_trianglediamonds.svg	37	no	0	1	2000
6.6.1	win	2022-12-14	13:57:32	14:06:07	508589	5ef37831c37ebb0bbd2d3e03	785355724	1	main_z	7	advance_on_keypress_ZEE	136	stimuli_distractor_diamondtriangles.svg	stimuli_distractor_trianglediamonds.svg	37	no	57	0	265
6.6.1	win	2022-12-14	13:57:32	14:06:08	510026	5ef37831c37ebb0bbd2d3e03	785355724	1	main_z	7	main_z	137	stimuli_target_trianglecircles.svg	stimuli_distractor_diamondtriangles.svg	21	yes	44	1	518
6.6.1	win	2022-12-14	13:57:32	14:06:08	510026	5ef37831c37ebb0bbd2d3e03	785355724	1	main_z	7	advance_on_keypress_ZEE	138	stimuli_target_trianglecircles.svg	stimuli_distractor_diamondtriangles.svg	21	yes	57	0	74
6.6.1	win	2022-12-14	13:57:32	14:06:11	512739	5ef37831c37ebb0bbd2d3e03	785355724	1	main_z	7	main_z	139	stimuli_distractor_diamondtriangles.svg	stimuli_distractor_diamondtriangles.svg	39	no	0	1	2000
6.6.1	win	2022-12-14	13:57:32	14:06:11	512739	5ef37831c37ebb0bbd2d3e03	785355724	1	main_z	7	advance_on_keypress_ZEE	140	stimuli_distractor_diamondtriangles.svg	stimuli_distractor_diamondtriangles.svg	39	no	57	0	286
6.6.1	win	2022-12-14	13:57:32	14:06:13	514325	5ef37831c37ebb0bbd2d3e03	785355724	1	main_z	7	main_z	141	stimuli_target_squarediamonds.svg	stimuli_distractor_trianglediamonds.svg	4	yes	44	1	653
6.6.1	win	2022-12-14	13:57:32	14:06:13	514325	5ef37831c37ebb0bbd2d3e03	785355724	1	main_z	7	advance_on_keypress_ZEE	142	stimuli_target_squarediamonds.svg	stimuli_distractor_trianglediamonds.svg	4	yes	57	0	82
6.6.1	win	2022-12-14	13:57:32	14:06:14	515823	5ef37831c37ebb0bbd2d3e03	785355724	1	main_z	7	main_z	143	stimuli_distractor_diamondtriangles.svg	stimuli_target_diamondcircles.svg	31	yes	44	1	768
6.6.1	win	2022-12-14	13:57:32	14:06:14	515823	5ef37831c37ebb0bbd2d3e03	785355724	1	main_z	7	advance_on_keypress_ZEE	144	stimuli_distractor_diamondtriangles.svg	stimuli_target_diamondcircles.svg	31	yes	57	0	116
6.6.1	win	2022-12-14	13:57:32	14:06:16	517534	5ef37831c37ebb0bbd2d3e03	785355724	1	main_z	7	main_z	145	stimuli_target_squarediamonds.svg	stimuli_distractor_diamondtriangles.svg	8	yes	44	1	945
6.6.1	win	2022-12-14	13:57:32	14:06:16	517534	5ef37831c37ebb0bbd2d3e03	785355724	1	main_z	7	advance_on_keypress_ZEE	146	stimuli_target_squarediamonds.svg	stimuli_distractor_diamondtriangles.svg	8	yes	57	0	115
6.6.1	win	2022-12-14	13:57:32	14:06:18	519113	5ef37831c37ebb0bbd2d3e03	785355724	1	main_z	7	main_z	147	stimuli_target_squaretriangles.svg	stimuli_distractor_diamondtriangles.svg	7	yes	44	1	824
6.6.1	win	2022-12-14	13:57:32	14:06:18	519113	5ef37831c37ebb0bbd2d3e03	785355724	1	main_z	7	advance_on_keypress_ZEE	148	stimuli_target_squaretriangles.svg	stimuli_distractor_diamondtriangles.svg	7	yes	57	0	125
6.6.1	win	2022-12-14	13:57:32	14:06:19	520746	5ef37831c37ebb0bbd2d3e03	785355724	1	main_z	7	main_z	149	stimuli_distractor_trianglediamonds.svg	stimuli_target_trianglesquares.svg	26	yes	44	1	874
6.6.1	win	2022-12-14	13:57:32	14:06:19	520746	5ef37831c37ebb0bbd2d3e03	785355724	1	main_z	7	advance_on_keypress_ZEE	150	stimuli_distractor_trianglediamonds.svg	stimuli_target_trianglesquares.svg	26	yes	57	0	152
6.6.1	win	2022-12-14	13:57:32	14:06:21	522421	5ef37831c37ebb0bbd2d3e03	785355724	1	main_z	7	main_z	151	stimuli_target_circlediamonds.svg	stimuli_distractor_trianglediamonds.svg	2	yes	44	1	883
6.6.1	win	2022-12-14	13:57:32	14:06:21	522421	5ef37831c37ebb0bbd2d3e03	785355724	1	main_z	7	advance_on_keypress_ZEE	152	stimuli_target_circlediamonds.svg	stimuli_distractor_trianglediamonds.svg	2	yes	57	0	133
6.6.1	win	2022-12-14	13:57:32	14:06:24	525128	5ef37831c37ebb0bbd2d3e03	785355724	1	main_z	7	main_z	153	stimuli_target_diamondcircles.svg	stimuli_distractor_trianglediamonds.svg	19	yes	44	1	1923
6.6.1	win	2022-12-14	13:57:32	14:06:24	525128	5ef37831c37ebb0bbd2d3e03	785355724	1	main_z	7	advance_on_keypress_ZEE	154	stimuli_target_diamondcircles.svg	stimuli_distractor_trianglediamonds.svg	19	yes	57	0	110
6.6.1	win	2022-12-14	13:57:32	14:06:25	526583	5ef37831c37ebb0bbd2d3e03	785355724	1	main_z	7	main_z	155	stimuli_distractor_trianglediamonds.svg	stimuli_target_squaretriangles.svg	11	yes	44	1	711
6.6.1	win	2022-12-14	13:57:32	14:06:25	526583	5ef37831c37ebb0bbd2d3e03	785355724	1	main_z	7	advance_on_keypress_ZEE	156	stimuli_distractor_trianglediamonds.svg	stimuli_target_squaretriangles.svg	11	yes	57	0	129
6.6.1	win	2022-12-14	13:57:32	14:06:28	529339	5ef37831c37ebb0bbd2d3e03	785355724	1	main_z	7	main_z	157	stimuli_target_diamondsquares.svg	stimuli_distractor_trianglediamonds.svg	20	yes	0	0	2000
6.6.1	win	2022-12-14	13:57:32	14:06:28	529339	5ef37831c37ebb0bbd2d3e03	785355724	1	main_z	7	advance_on_keypress_ZEE	158	stimuli_target_diamondsquares.svg	stimuli_distractor_trianglediamonds.svg	20	yes	57	0	280
6.6.1	win	2022-12-14	13:57:32	14:06:29	530858	5ef37831c37ebb0bbd2d3e03	785355724	1	main_z	7	main_z	159	stimuli_target_squaretriangles.svg	stimuli_distractor_trianglediamonds.svg	3	yes	44	1	603
6.6.1	win	2022-12-14	13:57:32	14:06:29	530858	5ef37831c37ebb0bbd2d3e03	785355724	1	main_z	7	advance_on_keypress_ZEE	160	stimuli_target_squaretriangles.svg	stimuli_distractor_trianglediamonds.svg	3	yes	57	0	102
6.6.1	win	2022-12-14	13:57:32	14:06:47	548638	5ef37831c37ebb0bbd2d3e03	785355724	1	practice_slash	9	practice_slash	1	stimuli_target_circlediamonds.svg	stimuli_distractor_trianglediamonds.svg	4	yes	53	1	483
6.6.1	win	2022-12-14	13:57:32	14:06:47	548638	5ef37831c37ebb0bbd2d3e03	785355724	1	practice_slash	9	advance_on_keypress_SLASH	2	stimuli_target_circlediamonds.svg	stimuli_distractor_trianglediamonds.svg	4	yes	57	0	512
6.6.1	win	2022-12-14	13:57:32	14:06:50	551310	5ef37831c37ebb0bbd2d3e03	785355724	1	practice_slash	9	practice_slash	3	stimuli_target_circlediamonds.svg	stimuli_distractor_diamondtriangles.svg	1	yes	53	1	521
6.6.1	win	2022-12-14	13:57:32	14:06:50	551310	5ef37831c37ebb0bbd2d3e03	785355724	1	practice_slash	9	advance_on_keypress_SLASH	4	stimuli_target_circlediamonds.svg	stimuli_distractor_diamondtriangles.svg	1	yes	57	0	778
6.6.1	win	2022-12-14	13:57:32	14:06:54	555723	5ef37831c37ebb0bbd2d3e03	785355724	1	practice_slash	9	practice_slash	5	stimuli_target_diamondsquares.svg	stimuli_distractor_trianglediamonds.svg	6	yes	0	0	2000
6.6.1	win	2022-12-14	13:57:32	14:06:54	555723	5ef37831c37ebb0bbd2d3e03	785355724	1	practice_slash	9	advance_on_keypress_SLASH	6	stimuli_target_diamondsquares.svg	stimuli_distractor_trianglediamonds.svg	6	yes	57	0	567
6.6.1	win	2022-12-14	13:57:32	14:06:58	559939	5ef37831c37ebb0bbd2d3e03	785355724	1	practice_slash	9	practice_slash	7	stimuli_distractor_diamondtriangles.svg	stimuli_distractor_trianglediamonds.svg	14	no	0	1	2000
6.6.1	win	2022-12-14	13:57:32	14:06:58	559939	5ef37831c37ebb0bbd2d3e03	785355724	1	practice_slash	9	advance_on_keypress_SLASH	8	stimuli_distractor_diamondtriangles.svg	stimuli_distractor_trianglediamonds.svg	14	no	57	0	462
6.6.1	win	2022-12-14	13:57:32	14:07:02	564039	5ef37831c37ebb0bbd2d3e03	785355724	1	practice_slash	9	practice_slash	9	stimuli_distractor_trianglediamonds.svg	stimuli_distractor_trianglediamonds.svg	15	no	0	1	2000
6.6.1	win	2022-12-14	13:57:32	14:07:02	564039	5ef37831c37ebb0bbd2d3e03	785355724	1	practice_slash	9	advance_on_keypress_SLASH	10	stimuli_distractor_trianglediamonds.svg	stimuli_distractor_trianglediamonds.svg	15	no	57	0	462
6.6.1	win	2022-12-14	13:57:32	14:07:07	568139	5ef37831c37ebb0bbd2d3e03	785355724	1	practice_slash	9	practice_slash	11	stimuli_distractor_diamondtriangles.svg	stimuli_distractor_diamondtriangles.svg	13	no	0	1	2000
6.6.1	win	2022-12-14	13:57:32	14:07:07	568139	5ef37831c37ebb0bbd2d3e03	785355724	1	practice_slash	9	advance_on_keypress_SLASH	12	stimuli_distractor_diamondtriangles.svg	stimuli_distractor_diamondtriangles.svg	13	no	57	0	408
6.6.1	win	2022-12-14	13:57:32	14:07:09	570632	5ef37831c37ebb0bbd2d3e03	785355724	1	practice_slash	9	practice_slash	13	stimuli_target_squarediamonds.svg	stimuli_distractor_trianglediamonds.svg	5	yes	53	1	443
6.6.1	win	2022-12-14	13:57:32	14:07:09	570632	5ef37831c37ebb0bbd2d3e03	785355724	1	practice_slash	9	advance_on_keypress_SLASH	14	stimuli_target_squarediamonds.svg	stimuli_distractor_trianglediamonds.svg	5	yes	57	0	331
6.6.1	win	2022-12-14	13:57:32	14:07:12	573529	5ef37831c37ebb0bbd2d3e03	785355724	1	practice_slash	9	practice_slash	15	stimuli_distractor_diamondtriangles.svg	stimuli_target_trianglecircles.svg	9	yes	53	1	923
6.6.1	win	2022-12-14	13:57:32	14:07:12	573529	5ef37831c37ebb0bbd2d3e03	785355724	1	practice_slash	9	advance_on_keypress_SLASH	16	stimuli_distractor_diamondtriangles.svg	stimuli_target_trianglecircles.svg	9	yes	57	0	374
6.6.1	win	2022-12-14	13:57:32	14:07:15	576101	5ef37831c37ebb0bbd2d3e03	785355724	1	practice_slash	9	practice_slash	17	stimuli_distractor_diamondtriangles.svg	stimuli_target_diamondcircles.svg	8	yes	53	1	562
6.6.1	win	2022-12-14	13:57:32	14:07:15	576101	5ef37831c37ebb0bbd2d3e03	785355724	1	practice_slash	9	advance_on_keypress_SLASH	18	stimuli_distractor_diamondtriangles.svg	stimuli_target_diamondcircles.svg	8	yes	57	0	333
6.6.1	win	2022-12-14	13:57:32	14:07:17	578969	5ef37831c37ebb0bbd2d3e03	785355724	1	practice_slash	9	practice_slash	19	stimuli_target_diamondsquares.svg	stimuli_distractor_diamondtriangles.svg	3	yes	53	1	897
6.6.1	win	2022-12-14	13:57:32	14:07:17	578969	5ef37831c37ebb0bbd2d3e03	785355724	1	practice_slash	9	advance_on_keypress_SLASH	20	stimuli_target_diamondsquares.svg	stimuli_distractor_diamondtriangles.svg	3	yes	57	0	388
6.6.1	win	2022-12-14	13:57:32	14:07:20	581665	5ef37831c37ebb0bbd2d3e03	785355724	1	practice_slash	9	practice_slash	21	stimuli_distractor_trianglediamonds.svg	stimuli_target_circlediamonds.svg	10	yes	53	1	660
6.6.1	win	2022-12-14	13:57:32	14:07:20	581665	5ef37831c37ebb0bbd2d3e03	785355724	1	practice_slash	9	advance_on_keypress_SLASH	22	stimuli_distractor_trianglediamonds.svg	stimuli_target_circlediamonds.svg	10	yes	57	0	282
6.6.1	win	2022-12-14	13:57:32	14:07:23	584749	5ef37831c37ebb0bbd2d3e03	785355724	1	practice_slash	9	practice_slash	23	stimuli_distractor_diamondtriangles.svg	stimuli_target_circletriangles.svg	7	yes	53	1	1159
6.6.1	win	2022-12-14	13:57:32	14:07:23	584749	5ef37831c37ebb0bbd2d3e03	785355724	1	practice_slash	9	advance_on_keypress_SLASH	24	stimuli_distractor_diamondtriangles.svg	stimuli_target_circletriangles.svg	7	yes	57	0	321
6.6.1	win	2022-12-14	13:57:32	14:07:26	587230	5ef37831c37ebb0bbd2d3e03	785355724	1	practice_slash	9	practice_slash	25	stimuli_distractor_trianglediamonds.svg	stimuli_target_squarediamonds.svg	11	yes	53	1	524
6.6.1	win	2022-12-14	13:57:32	14:07:26	587230	5ef37831c37ebb0bbd2d3e03	785355724	1	practice_slash	9	advance_on_keypress_SLASH	26	stimuli_distractor_trianglediamonds.svg	stimuli_target_squarediamonds.svg	11	yes	57	0	355
6.6.1	win	2022-12-14	13:57:32	14:07:28	589707	5ef37831c37ebb0bbd2d3e03	785355724	1	practice_slash	9	practice_slash	27	stimuli_target_squarediamonds.svg	stimuli_distractor_diamondtriangles.svg	2	yes	53	1	485
6.6.1	win	2022-12-14	13:57:32	14:07:28	589707	5ef37831c37ebb0bbd2d3e03	785355724	1	practice_slash	9	advance_on_keypress_SLASH	28	stimuli_target_squarediamonds.svg	stimuli_distractor_diamondtriangles.svg	2	yes	57	0	409
6.6.1	win	2022-12-14	13:57:32	14:07:31	592443	5ef37831c37ebb0bbd2d3e03	785355724	1	practice_slash	9	practice_slash	29	stimuli_distractor_trianglediamonds.svg	stimuli_target_diamondcircles.svg	12	yes	53	1	689
6.6.1	win	2022-12-14	13:57:32	14:07:31	592443	5ef37831c37ebb0bbd2d3e03	785355724	1	practice_slash	9	advance_on_keypress_SLASH	30	stimuli_distractor_trianglediamonds.svg	stimuli_target_diamondcircles.svg	12	yes	57	0	423
6.6.1	win	2022-12-14	13:57:32	14:07:34	595150	5ef37831c37ebb0bbd2d3e03	785355724	1	practice_slash	9	practice_slash	31	stimuli_distractor_trianglediamonds.svg	stimuli_distractor_diamondtriangles.svg	16	no	53	0	646
6.6.1	win	2022-12-14	13:57:32	14:07:34	595150	5ef37831c37ebb0bbd2d3e03	785355724	1	practice_slash	9	advance_on_keypress_SLASH	32	stimuli_distractor_trianglediamonds.svg	stimuli_distractor_diamondtriangles.svg	16	no	57	0	500
6.6.1	win	2022-12-14	13:57:32	14:07:38	599591	5ef37831c37ebb0bbd2d3e03	785355724	1	main_slash	11	main_slash	1	stimuli_target_squarediamonds.svg	stimuli_distractor_diamondtriangles.svg	8	yes	53	1	519
6.6.1	win	2022-12-14	13:57:32	14:07:38	599591	5ef37831c37ebb0bbd2d3e03	785355724	1	main_slash	11	advance_on_keypress_SLASH	2	stimuli_target_squarediamonds.svg	stimuli_distractor_diamondtriangles.svg	8	yes	57	0	787
6.6.1	win	2022-12-14	13:57:32	14:07:40	601639	5ef37831c37ebb0bbd2d3e03	785355724	1	main_slash	11	main_slash	3	stimuli_distractor_trianglediamonds.svg	stimuli_target_squarediamonds.svg	12	yes	53	1	619
6.6.1	win	2022-12-14	13:57:32	14:07:40	601639	5ef37831c37ebb0bbd2d3e03	785355724	1	main_slash	11	advance_on_keypress_SLASH	4	stimuli_distractor_trianglediamonds.svg	stimuli_target_squarediamonds.svg	12	yes	57	0	201
6.6.1	win	2022-12-14	13:57:32	14:07:41	603018	5ef37831c37ebb0bbd2d3e03	785355724	1	main_slash	11	main_slash	5	stimuli_distractor_diamondtriangles.svg	stimuli_target_squaretriangles.svg	15	yes	53	1	531
6.6.1	win	2022-12-14	13:57:32	14:07:41	603018	5ef37831c37ebb0bbd2d3e03	785355724	1	main_slash	11	advance_on_keypress_SLASH	6	stimuli_distractor_diamondtriangles.svg	stimuli_target_squaretriangles.svg	15	yes	57	0	225
6.6.1	win	2022-12-14	13:57:32	14:07:43	604456	5ef37831c37ebb0bbd2d3e03	785355724	1	main_slash	11	main_slash	7	stimuli_distractor_diamondtriangles.svg	stimuli_target_diamondcircles.svg	31	yes	53	1	570
6.6.1	win	2022-12-14	13:57:32	14:07:43	604456	5ef37831c37ebb0bbd2d3e03	785355724	1	main_slash	11	advance_on_keypress_SLASH	8	stimuli_distractor_diamondtriangles.svg	stimuli_target_diamondcircles.svg	31	yes	57	0	247
6.6.1	win	2022-12-14	13:57:32	14:07:45	606096	5ef37831c37ebb0bbd2d3e03	785355724	1	main_slash	11	main_slash	9	stimuli_target_trianglecircles.svg	stimuli_distractor_trianglediamonds.svg	17	yes	53	1	760
6.6.1	win	2022-12-14	13:57:32	14:07:45	606096	5ef37831c37ebb0bbd2d3e03	785355724	1	main_slash	11	advance_on_keypress_SLASH	10	stimuli_target_trianglecircles.svg	stimuli_distractor_trianglediamonds.svg	17	yes	57	0	218
6.6.1	win	2022-12-14	13:57:32	14:07:46	607610	5ef37831c37ebb0bbd2d3e03	785355724	1	main_slash	11	main_slash	11	stimuli_distractor_trianglediamonds.svg	stimuli_target_circlediamonds.svg	10	yes	53	1	657
6.6.1	win	2022-12-14	13:57:32	14:07:46	607610	5ef37831c37ebb0bbd2d3e03	785355724	1	main_slash	11	advance_on_keypress_SLASH	12	stimuli_distractor_trianglediamonds.svg	stimuli_target_circlediamonds.svg	10	yes	57	0	234
6.6.1	win	2022-12-14	13:57:32	14:07:47	609013	5ef37831c37ebb0bbd2d3e03	785355724	1	main_slash	11	main_slash	13	stimuli_distractor_diamondtriangles.svg	stimuli_target_circletriangles.svg	13	yes	53	1	527
6.6.1	win	2022-12-14	13:57:32	14:07:47	609013	5ef37831c37ebb0bbd2d3e03	785355724	1	main_slash	11	advance_on_keypress_SLASH	14	stimuli_distractor_diamondtriangles.svg	stimuli_target_circletriangles.svg	13	yes	57	0	269
6.6.1	win	2022-12-14	13:57:32	14:07:49	610783	5ef37831c37ebb0bbd2d3e03	785355724	1	main_slash	11	main_slash	15	stimuli_distractor_diamondtriangles.svg	stimuli_target_trianglesquares.svg	30	yes	53	1	862
6.6.1	win	2022-12-14	13:57:32	14:07:49	610783	5ef37831c37ebb0bbd2d3e03	785355724	1	main_slash	11	advance_on_keypress_SLASH	16	stimuli_distractor_diamondtriangles.svg	stimuli_target_trianglesquares.svg	30	yes	57	0	243
6.6.1	win	2022-12-14	13:57:32	14:07:52	613654	5ef37831c37ebb0bbd2d3e03	785355724	1	main_slash	11	main_slash	17	stimuli_distractor_diamondtriangles.svg	stimuli_distractor_trianglediamonds.svg	37	no	0	1	2000
6.6.1	win	2022-12-14	13:57:32	14:07:52	613654	5ef37831c37ebb0bbd2d3e03	785355724	1	main_slash	11	advance_on_keypress_SLASH	18	stimuli_distractor_diamondtriangles.svg	stimuli_distractor_trianglediamonds.svg	37	no	57	0	295
6.6.1	win	2022-12-14	13:57:32	14:07:55	616587	5ef37831c37ebb0bbd2d3e03	785355724	1	main_slash	11	main_slash	19	stimuli_target_diamondsquares.svg	stimuli_distractor_diamondtriangles.svg	24	yes	0	0	2000
6.6.1	win	2022-12-14	13:57:32	14:07:55	616587	5ef37831c37ebb0bbd2d3e03	785355724	1	main_slash	11	advance_on_keypress_SLASH	20	stimuli_target_diamondsquares.svg	stimuli_distractor_diamondtriangles.svg	24	yes	57	0	512
6.6.1	win	2022-12-14	13:57:32	14:07:57	618212	5ef37831c37ebb0bbd2d3e03	785355724	1	main_slash	11	main_slash	21	stimuli_target_trianglecircles.svg	stimuli_distractor_diamondtriangles.svg	21	yes	53	1	475
6.6.1	win	2022-12-14	13:57:32	14:07:57	618212	5ef37831c37ebb0bbd2d3e03	785355724	1	main_slash	11	advance_on_keypress_SLASH	22	stimuli_target_trianglecircles.svg	stimuli_distractor_diamondtriangles.svg	21	yes	57	0	204
6.6.1	win	2022-12-14	13:57:32	14:08:00	621053	5ef37831c37ebb0bbd2d3e03	785355724	1	main_slash	11	main_slash	23	stimuli_distractor_trianglediamonds.svg	stimuli_distractor_diamondtriangles.svg	36	no	0	1	2000
6.6.1	win	2022-12-14	13:57:32	14:08:00	621053	5ef37831c37ebb0bbd2d3e03	785355724	1	main_slash	11	advance_on_keypress_SLASH	24	stimuli_distractor_trianglediamonds.svg	stimuli_distractor_diamondtriangles.svg	36	no	57	0	287
6.6.1	win	2022-12-14	13:57:32	14:08:02	623987	5ef37831c37ebb0bbd2d3e03	785355724	1	main_slash	11	main_slash	25	stimuli_target_trianglesquares.svg	stimuli_distractor_diamondtriangles.svg	22	yes	0	0	2000
6.6.1	win	2022-12-14	13:57:32	14:08:02	623987	5ef37831c37ebb0bbd2d3e03	785355724	1	main_slash	11	advance_on_keypress_SLASH	26	stimuli_target_trianglesquares.svg	stimuli_distractor_diamondtriangles.svg	22	yes	57	0	280
6.6.1	win	2022-12-14	13:57:32	14:08:04	625532	5ef37831c37ebb0bbd2d3e03	785355724	1	main_slash	11	main_slash	27	stimuli_target_diamondcircles.svg	stimuli_distractor_trianglediamonds.svg	19	yes	53	1	613
6.6.1	win	2022-12-14	13:57:32	14:08:04	625532	5ef37831c37ebb0bbd2d3e03	785355724	1	main_slash	11	advance_on_keypress_SLASH	28	stimuli_target_diamondcircles.svg	stimuli_distractor_trianglediamonds.svg	19	yes	57	0	226
6.6.1	win	2022-12-14	13:57:32	14:08:05	627031	5ef37831c37ebb0bbd2d3e03	785355724	1	main_slash	11	main_slash	29	stimuli_distractor_diamondtriangles.svg	stimuli_target_circlediamonds.svg	14	yes	53	1	644
6.6.1	win	2022-12-14	13:57:32	14:08:05	627031	5ef37831c37ebb0bbd2d3e03	785355724	1	main_slash	11	advance_on_keypress_SLASH	30	stimuli_distractor_diamondtriangles.svg	stimuli_target_circlediamonds.svg	14	yes	57	0	235
6.6.1	win	2022-12-14	13:57:32	14:08:08	629903	5ef37831c37ebb0bbd2d3e03	785355724	1	main_slash	11	main_slash	31	stimuli_distractor_diamondtriangles.svg	stimuli_distractor_diamondtriangles.svg	40	no	0	1	2000
6.6.1	win	2022-12-14	13:57:32	14:08:08	629903	5ef37831c37ebb0bbd2d3e03	785355724	1	main_slash	11	advance_on_keypress_SLASH	32	stimuli_distractor_diamondtriangles.svg	stimuli_distractor_diamondtriangles.svg	40	no	57	0	279
6.6.1	win	2022-12-14	13:57:32	14:08:10	632019	5ef37831c37ebb0bbd2d3e03	785355724	1	main_slash	11	main_slash	33	stimuli_distractor_diamondtriangles.svg	stimuli_target_diamondsquares.svg	32	yes	53	1	1199
6.6.1	win	2022-12-14	13:57:32	14:08:10	632019	5ef37831c37ebb0bbd2d3e03	785355724	1	main_slash	11	advance_on_keypress_SLASH	34	stimuli_distractor_diamondtriangles.svg	stimuli_target_diamondsquares.svg	32	yes	57	0	413
6.6.1	win	2022-12-14	13:57:32	14:08:12	633634	5ef37831c37ebb0bbd2d3e03	785355724	1	main_slash	11	main_slash	35	stimuli_target_diamondcircles.svg	stimuli_distractor_diamondtriangles.svg	23	yes	53	1	564
6.6.1	win	2022-12-14	13:57:32	14:08:12	633634	5ef37831c37ebb0bbd2d3e03	785355724	1	main_slash	11	advance_on_keypress_SLASH	36	stimuli_target_diamondcircles.svg	stimuli_distractor_diamondtriangles.svg	23	yes	57	0	160
6.6.1	win	2022-12-14	13:57:32	14:08:14	635398	5ef37831c37ebb0bbd2d3e03	785355724	1	main_slash	11	main_slash	37	stimuli_distractor_trianglediamonds.svg	stimuli_target_squaretriangles.svg	11	yes	53	1	962
6.6.1	win	2022-12-14	13:57:32	14:08:14	635398	5ef37831c37ebb0bbd2d3e03	785355724	1	main_slash	11	advance_on_keypress_SLASH	38	stimuli_distractor_trianglediamonds.svg	stimuli_target_squaretriangles.svg	11	yes	57	0	226
6.6.1	win	2022-12-14	13:57:32	14:08:16	637348	5ef37831c37ebb0bbd2d3e03	785355724	1	main_slash	11	main_slash	39	stimuli_target_diamondsquares.svg	stimuli_distractor_trianglediamonds.svg	20	yes	53	1	1096
6.6.1	win	2022-12-14	13:57:32	14:08:16	637348	5ef37831c37ebb0bbd2d3e03	785355724	1	main_slash	11	advance_on_keypress_SLASH	40	stimuli_target_diamondsquares.svg	stimuli_distractor_trianglediamonds.svg	20	yes	57	0	185
6.6.1	win	2022-12-14	13:57:32	14:08:17	638852	5ef37831c37ebb0bbd2d3e03	785355724	1	main_slash	11	main_slash	41	stimuli_distractor_diamondtriangles.svg	stimuli_target_trianglecircles.svg	29	yes	53	1	683
6.6.1	win	2022-12-14	13:57:32	14:08:17	638852	5ef37831c37ebb0bbd2d3e03	785355724	1	main_slash	11	advance_on_keypress_SLASH	42	stimuli_distractor_diamondtriangles.svg	stimuli_target_trianglecircles.svg	29	yes	57	0	232
6.6.1	win	2022-12-14	13:57:32	14:08:19	640397	5ef37831c37ebb0bbd2d3e03	785355724	1	main_slash	11	main_slash	43	stimuli_target_squaretriangles.svg	stimuli_distractor_trianglediamonds.svg	3	yes	53	1	660
6.6.1	win	2022-12-14	13:57:32	14:08:19	640397	5ef37831c37ebb0bbd2d3e03	785355724	1	main_slash	11	advance_on_keypress_SLASH	44	stimuli_target_squaretriangles.svg	stimuli_distractor_trianglediamonds.svg	3	yes	57	0	224
6.6.1	win	2022-12-14	13:57:32	14:08:22	643253	5ef37831c37ebb0bbd2d3e03	785355724	1	main_slash	11	main_slash	45	stimuli_distractor_diamondtriangles.svg	stimuli_distractor_diamondtriangles.svg	39	no	0	1	2000
6.6.1	win	2022-12-14	13:57:32	14:08:22	643253	5ef37831c37ebb0bbd2d3e03	785355724	1	main_slash	11	advance_on_keypress_SLASH	46	stimuli_distractor_diamondtriangles.svg	stimuli_distractor_diamondtriangles.svg	39	no	57	0	269
6.6.1	win	2022-12-14	13:57:32	14:08:23	644717	5ef37831c37ebb0bbd2d3e03	785355724	1	main_slash	11	main_slash	47	stimuli_distractor_trianglediamonds.svg	stimuli_target_diamondsquares.svg	28	yes	53	1	548
6.6.1	win	2022-12-14	13:57:32	14:08:23	644717	5ef37831c37ebb0bbd2d3e03	785355724	1	main_slash	11	advance_on_keypress_SLASH	48	stimuli_distractor_trianglediamonds.svg	stimuli_target_diamondsquares.svg	28	yes	57	0	186
6.6.1	win	2022-12-14	13:57:32	14:08:25	646462	5ef37831c37ebb0bbd2d3e03	785355724	1	main_slash	11	main_slash	49	stimuli_target_circletriangles.svg	stimuli_distractor_diamondtriangles.svg	5	yes	53	1	910
6.6.1	win	2022-12-14	13:57:32	14:08:25	646462	5ef37831c37ebb0bbd2d3e03	785355724	1	main_slash	11	advance_on_keypress_SLASH	50	stimuli_target_circletriangles.svg	stimuli_distractor_diamondtriangles.svg	5	yes	57	0	172
6.6.1	win	2022-12-14	13:57:32	14:08:28	649269	5ef37831c37ebb0bbd2d3e03	785355724	1	main_slash	11	main_slash	51	stimuli_distractor_trianglediamonds.svg	stimuli_distractor_trianglediamonds.svg	34	no	0	1	2000
6.6.1	win	2022-12-14	13:57:32	14:08:28	649269	5ef37831c37ebb0bbd2d3e03	785355724	1	main_slash	11	advance_on_keypress_SLASH	52	stimuli_distractor_trianglediamonds.svg	stimuli_distractor_trianglediamonds.svg	34	no	57	0	264
6.6.1	win	2022-12-14	13:57:32	14:08:29	650702	5ef37831c37ebb0bbd2d3e03	785355724	1	main_slash	11	main_slash	53	stimuli_distractor_trianglediamonds.svg	stimuli_target_trianglesquares.svg	26	yes	53	1	504
6.6.1	win	2022-12-14	13:57:32	14:08:29	650702	5ef37831c37ebb0bbd2d3e03	785355724	1	main_slash	11	advance_on_keypress_SLASH	54	stimuli_distractor_trianglediamonds.svg	stimuli_target_trianglesquares.svg	26	yes	57	0	144
6.6.1	win	2022-12-14	13:57:32	14:08:31	652076	5ef37831c37ebb0bbd2d3e03	785355724	1	main_slash	11	main_slash	55	stimuli_target_circlediamonds.svg	stimuli_distractor_trianglediamonds.svg	2	yes	53	1	590
6.6.1	win	2022-12-14	13:57:32	14:08:31	652076	5ef37831c37ebb0bbd2d3e03	785355724	1	main_slash	11	advance_on_keypress_SLASH	56	stimuli_target_circlediamonds.svg	stimuli_distractor_trianglediamonds.svg	2	yes	57	0	191
6.6.1	win	2022-12-14	13:57:32	14:08:32	653400	5ef37831c37ebb0bbd2d3e03	785355724	1	main_slash	11	main_slash	57	stimuli_target_circlediamonds.svg	stimuli_distractor_diamondtriangles.svg	6	yes	53	1	498
6.6.1	win	2022-12-14	13:57:32	14:08:32	653400	5ef37831c37ebb0bbd2d3e03	785355724	1	main_slash	11	advance_on_keypress_SLASH	58	stimuli_target_circlediamonds.svg	stimuli_distractor_diamondtriangles.svg	6	yes	57	0	220
6.6.1	win	2022-12-14	13:57:32	14:08:35	656269	5ef37831c37ebb0bbd2d3e03	785355724	1	main_slash	11	main_slash	59	stimuli_distractor_trianglediamonds.svg	stimuli_distractor_diamondtriangles.svg	35	no	0	1	2000
6.6.1	win	2022-12-14	13:57:32	14:08:35	656269	5ef37831c37ebb0bbd2d3e03	785355724	1	main_slash	11	advance_on_keypress_SLASH	60	stimuli_distractor_trianglediamonds.svg	stimuli_distractor_diamondtriangles.svg	35	no	57	0	252
6.6.1	win	2022-12-14	13:57:32	14:08:36	657756	5ef37831c37ebb0bbd2d3e03	785355724	1	main_slash	11	main_slash	61	stimuli_target_trianglesquares.svg	stimuli_distractor_trianglediamonds.svg	18	yes	53	1	586
6.6.1	win	2022-12-14	13:57:32	14:08:36	657756	5ef37831c37ebb0bbd2d3e03	785355724	1	main_slash	11	advance_on_keypress_SLASH	62	stimuli_target_trianglesquares.svg	stimuli_distractor_trianglediamonds.svg	18	yes	57	0	192
6.6.1	win	2022-12-14	13:57:32	14:08:37	658995	5ef37831c37ebb0bbd2d3e03	785355724	1	main_slash	11	main_slash	63	stimuli_distractor_diamondtriangles.svg	stimuli_target_squarediamonds.svg	16	yes	53	1	410
6.6.1	win	2022-12-14	13:57:32	14:08:37	658995	5ef37831c37ebb0bbd2d3e03	785355724	1	main_slash	11	advance_on_keypress_SLASH	64	stimuli_distractor_diamondtriangles.svg	stimuli_target_squarediamonds.svg	16	yes	57	0	288
6.6.1	win	2022-12-14	13:57:32	14:08:40	661919	5ef37831c37ebb0bbd2d3e03	785355724	1	main_slash	11	main_slash	65	stimuli_distractor_trianglediamonds.svg	stimuli_distractor_trianglediamonds.svg	33	no	0	1	2000
6.6.1	win	2022-12-14	13:57:32	14:08:40	661919	5ef37831c37ebb0bbd2d3e03	785355724	1	main_slash	11	advance_on_keypress_SLASH	66	stimuli_distractor_trianglediamonds.svg	stimuli_distractor_trianglediamonds.svg	33	no	57	0	277
6.6.1	win	2022-12-14	13:57:32	14:08:42	663281	5ef37831c37ebb0bbd2d3e03	785355724	1	main_slash	11	main_slash	67	stimuli_distractor_trianglediamonds.svg	stimuli_target_circletriangles.svg	9	yes	53	1	445
6.6.1	win	2022-12-14	13:57:32	14:08:42	663281	5ef37831c37ebb0bbd2d3e03	785355724	1	main_slash	11	advance_on_keypress_SLASH	68	stimuli_distractor_trianglediamonds.svg	stimuli_target_circletriangles.svg	9	yes	57	0	165
6.6.1	win	2022-12-14	13:57:32	14:08:43	664468	5ef37831c37ebb0bbd2d3e03	785355724	1	main_slash	11	main_slash	69	stimuli_target_squarediamonds.svg	stimuli_distractor_trianglediamonds.svg	4	yes	53	1	378
6.6.1	win	2022-12-14	13:57:32	14:08:43	664468	5ef37831c37ebb0bbd2d3e03	785355724	1	main_slash	11	advance_on_keypress_SLASH	70	stimuli_target_squarediamonds.svg	stimuli_distractor_trianglediamonds.svg	4	yes	57	0	209
6.6.1	win	2022-12-14	13:57:32	14:08:44	665868	5ef37831c37ebb0bbd2d3e03	785355724	1	main_slash	11	main_slash	71	stimuli_target_circletriangles.svg	stimuli_distractor_trianglediamonds.svg	1	yes	53	1	549
6.6.1	win	2022-12-14	13:57:32	14:08:44	665868	5ef37831c37ebb0bbd2d3e03	785355724	1	main_slash	11	advance_on_keypress_SLASH	72	stimuli_target_circletriangles.svg	stimuli_distractor_trianglediamonds.svg	1	yes	57	0	202
6.6.1	win	2022-12-14	13:57:32	14:08:46	667331	5ef37831c37ebb0bbd2d3e03	785355724	1	main_slash	11	main_slash	73	stimuli_distractor_trianglediamonds.svg	stimuli_target_trianglecircles.svg	25	yes	53	1	613
6.6.1	win	2022-12-14	13:57:32	14:08:46	667331	5ef37831c37ebb0bbd2d3e03	785355724	1	main_slash	11	advance_on_keypress_SLASH	74	stimuli_distractor_trianglediamonds.svg	stimuli_target_trianglecircles.svg	25	yes	57	0	201
6.6.1	win	2022-12-14	13:57:32	14:08:47	668590	5ef37831c37ebb0bbd2d3e03	785355724	1	main_slash	11	main_slash	75	stimuli_target_squaretriangles.svg	stimuli_distractor_diamondtriangles.svg	7	yes	53	1	421
6.6.1	win	2022-12-14	13:57:32	14:08:47	668590	5ef37831c37ebb0bbd2d3e03	785355724	1	main_slash	11	advance_on_keypress_SLASH	76	stimuli_target_squaretriangles.svg	stimuli_distractor_diamondtriangles.svg	7	yes	57	0	243
6.6.1	win	2022-12-14	13:57:32	14:08:50	671469	5ef37831c37ebb0bbd2d3e03	785355724	1	main_slash	11	main_slash	77	stimuli_distractor_diamondtriangles.svg	stimuli_distractor_trianglediamonds.svg	38	no	0	1	2000
6.6.1	win	2022-12-14	13:57:32	14:08:50	671469	5ef37831c37ebb0bbd2d3e03	785355724	1	main_slash	11	advance_on_keypress_SLASH	78	stimuli_distractor_diamondtriangles.svg	stimuli_distractor_trianglediamonds.svg	38	no	57	0	262
6.6.1	win	2022-12-14	13:57:32	14:08:51	672751	5ef37831c37ebb0bbd2d3e03	785355724	1	main_slash	11	main_slash	79	stimuli_distractor_trianglediamonds.svg	stimuli_target_diamondcircles.svg	27	yes	53	1	368
6.6.1	win	2022-12-14	13:57:32	14:08:51	672751	5ef37831c37ebb0bbd2d3e03	785355724	1	main_slash	11	advance_on_keypress_SLASH	80	stimuli_distractor_trianglediamonds.svg	stimuli_target_diamondcircles.svg	27	yes	57	0	247
6.6.1	win	2022-12-14	13:57:32	14:08:54	675652	5ef37831c37ebb0bbd2d3e03	785355724	1	main_slash	11	main_slash	81	stimuli_distractor_diamondtriangles.svg	stimuli_distractor_diamondtriangles.svg	39	no	0	1	2000
6.6.1	win	2022-12-14	13:57:32	14:08:54	675652	5ef37831c37ebb0bbd2d3e03	785355724	1	main_slash	11	advance_on_keypress_SLASH	82	stimuli_distractor_diamondtriangles.svg	stimuli_distractor_diamondtriangles.svg	39	no	57	0	275
6.6.1	win	2022-12-14	13:57:32	14:08:57	678569	5ef37831c37ebb0bbd2d3e03	785355724	1	main_slash	11	main_slash	83	stimuli_distractor_diamondtriangles.svg	stimuli_distractor_trianglediamonds.svg	38	no	0	1	2000
6.6.1	win	2022-12-14	13:57:32	14:08:57	678569	5ef37831c37ebb0bbd2d3e03	785355724	1	main_slash	11	advance_on_keypress_SLASH	84	stimuli_distractor_diamondtriangles.svg	stimuli_distractor_trianglediamonds.svg	38	no	57	0	302
6.6.1	win	2022-12-14	13:57:32	14:08:58	679935	5ef37831c37ebb0bbd2d3e03	785355724	1	main_slash	11	main_slash	85	stimuli_distractor_diamondtriangles.svg	stimuli_target_diamondsquares.svg	32	yes	53	1	417
6.6.1	win	2022-12-14	13:57:32	14:08:58	679935	5ef37831c37ebb0bbd2d3e03	785355724	1	main_slash	11	advance_on_keypress_SLASH	86	stimuli_distractor_diamondtriangles.svg	stimuli_target_diamondsquares.svg	32	yes	57	0	189
6.6.1	win	2022-12-14	13:57:32	14:09:00	681268	5ef37831c37ebb0bbd2d3e03	785355724	1	main_slash	11	main_slash	87	stimuli_distractor_diamondtriangles.svg	stimuli_target_squaretriangles.svg	15	yes	53	1	499
6.6.1	win	2022-12-14	13:57:32	14:09:00	681268	5ef37831c37ebb0bbd2d3e03	785355724	1	main_slash	11	advance_on_keypress_SLASH	88	stimuli_distractor_diamondtriangles.svg	stimuli_target_squaretriangles.svg	15	yes	57	0	209
6.6.1	win	2022-12-14	13:57:32	14:09:01	682722	5ef37831c37ebb0bbd2d3e03	785355724	1	main_slash	11	main_slash	89	stimuli_distractor_trianglediamonds.svg	stimuli_target_squaretriangles.svg	11	yes	53	1	603
6.6.1	win	2022-12-14	13:57:32	14:09:01	682722	5ef37831c37ebb0bbd2d3e03	785355724	1	main_slash	11	advance_on_keypress_SLASH	90	stimuli_distractor_trianglediamonds.svg	stimuli_target_squaretriangles.svg	11	yes	57	0	228
6.6.1	win	2022-12-14	13:57:32	14:09:03	684276	5ef37831c37ebb0bbd2d3e03	785355724	1	main_slash	11	main_slash	91	stimuli_distractor_diamondtriangles.svg	stimuli_target_trianglesquares.svg	30	yes	53	1	690
6.6.1	win	2022-12-14	13:57:32	14:09:03	684276	5ef37831c37ebb0bbd2d3e03	785355724	1	main_slash	11	advance_on_keypress_SLASH	92	stimuli_distractor_diamondtriangles.svg	stimuli_target_trianglesquares.svg	30	yes	57	0	141
6.6.1	win	2022-12-14	13:57:32	14:09:04	685499	5ef37831c37ebb0bbd2d3e03	785355724	1	main_slash	11	main_slash	93	stimuli_target_squarediamonds.svg	stimuli_distractor_diamondtriangles.svg	8	yes	53	1	447
6.6.1	win	2022-12-14	13:57:32	14:09:04	685499	5ef37831c37ebb0bbd2d3e03	785355724	1	main_slash	11	advance_on_keypress_SLASH	94	stimuli_target_squarediamonds.svg	stimuli_distractor_diamondtriangles.svg	8	yes	57	0	187
6.6.1	win	2022-12-14	13:57:32	14:09:05	686943	5ef37831c37ebb0bbd2d3e03	785355724	1	main_slash	11	main_slash	95	stimuli_target_trianglesquares.svg	stimuli_distractor_trianglediamonds.svg	18	yes	53	1	607
6.6.1	win	2022-12-14	13:57:32	14:09:05	686943	5ef37831c37ebb0bbd2d3e03	785355724	1	main_slash	11	advance_on_keypress_SLASH	96	stimuli_target_trianglesquares.svg	stimuli_distractor_trianglediamonds.svg	18	yes	57	0	223
6.6.1	win	2022-12-14	13:57:32	14:09:07	688241	5ef37831c37ebb0bbd2d3e03	785355724	1	main_slash	11	main_slash	97	stimuli_distractor_trianglediamonds.svg	stimuli_target_circlediamonds.svg	10	yes	53	1	440
6.6.1	win	2022-12-14	13:57:32	14:09:07	688241	5ef37831c37ebb0bbd2d3e03	785355724	1	main_slash	11	advance_on_keypress_SLASH	98	stimuli_distractor_trianglediamonds.svg	stimuli_target_circlediamonds.svg	10	yes	57	0	225
6.6.1	win	2022-12-14	13:57:32	14:09:08	689515	5ef37831c37ebb0bbd2d3e03	785355724	1	main_slash	11	main_slash	99	stimuli_distractor_trianglediamonds.svg	stimuli_target_squarediamonds.svg	12	yes	53	1	413
6.6.1	win	2022-12-14	13:57:32	14:09:08	689515	5ef37831c37ebb0bbd2d3e03	785355724	1	main_slash	11	advance_on_keypress_SLASH	100	stimuli_distractor_trianglediamonds.svg	stimuli_target_squarediamonds.svg	12	yes	57	0	212
6.6.1	win	2022-12-14	13:57:32	14:09:09	690778	5ef37831c37ebb0bbd2d3e03	785355724	1	main_slash	11	main_slash	101	stimuli_distractor_diamondtriangles.svg	stimuli_target_circlediamonds.svg	14	yes	53	1	426
6.6.1	win	2022-12-14	13:57:32	14:09:09	690778	5ef37831c37ebb0bbd2d3e03	785355724	1	main_slash	11	advance_on_keypress_SLASH	102	stimuli_distractor_diamondtriangles.svg	stimuli_target_circlediamonds.svg	14	yes	57	0	213
6.6.1	win	2022-12-14	13:57:32	14:09:11	692051	5ef37831c37ebb0bbd2d3e03	785355724	1	main_slash	11	main_slash	103	stimuli_target_diamondcircles.svg	stimuli_distractor_trianglediamonds.svg	19	yes	53	1	415
6.6.1	win	2022-12-14	13:57:32	14:09:11	692051	5ef37831c37ebb0bbd2d3e03	785355724	1	main_slash	11	advance_on_keypress_SLASH	104	stimuli_target_diamondcircles.svg	stimuli_distractor_trianglediamonds.svg	19	yes	57	0	228
6.6.1	win	2022-12-14	13:57:32	14:09:12	693540	5ef37831c37ebb0bbd2d3e03	785355724	1	main_slash	11	main_slash	105	stimuli_distractor_diamondtriangles.svg	stimuli_target_circletriangles.svg	13	yes	53	1	621
6.6.1	win	2022-12-14	13:57:32	14:09:12	693540	5ef37831c37ebb0bbd2d3e03	785355724	1	main_slash	11	advance_on_keypress_SLASH	106	stimuli_distractor_diamondtriangles.svg	stimuli_target_circletriangles.svg	13	yes	57	0	189
6.6.1	win	2022-12-14	13:57:32	14:09:13	694959	5ef37831c37ebb0bbd2d3e03	785355724	1	main_slash	11	main_slash	107	stimuli_target_diamondcircles.svg	stimuli_distractor_diamondtriangles.svg	23	yes	53	1	590
6.6.1	win	2022-12-14	13:57:32	14:09:13	694959	5ef37831c37ebb0bbd2d3e03	785355724	1	main_slash	11	advance_on_keypress_SLASH	108	stimuli_target_diamondcircles.svg	stimuli_distractor_diamondtriangles.svg	23	yes	57	0	155
6.6.1	win	2022-12-14	13:57:32	14:09:16	697752	5ef37831c37ebb0bbd2d3e03	785355724	1	main_slash	11	main_slash	109	stimuli_distractor_trianglediamonds.svg	stimuli_distractor_trianglediamonds.svg	34	no	0	1	2000
6.6.1	win	2022-12-14	13:57:32	14:09:16	697752	5ef37831c37ebb0bbd2d3e03	785355724	1	main_slash	11	advance_on_keypress_SLASH	110	stimuli_distractor_trianglediamonds.svg	stimuli_distractor_trianglediamonds.svg	34	no	57	0	253
6.6.1	win	2022-12-14	13:57:32	14:09:18	699070	5ef37831c37ebb0bbd2d3e03	785355724	1	main_slash	11	main_slash	111	stimuli_distractor_trianglediamonds.svg	stimuli_target_trianglecircles.svg	25	yes	53	1	418
6.6.1	win	2022-12-14	13:57:32	14:09:18	699070	5ef37831c37ebb0bbd2d3e03	785355724	1	main_slash	11	advance_on_keypress_SLASH	112	stimuli_distractor_trianglediamonds.svg	stimuli_target_trianglecircles.svg	25	yes	57	0	146
6.6.1	win	2022-12-14	13:57:32	14:09:20	701852	5ef37831c37ebb0bbd2d3e03	785355724	1	main_slash	11	main_slash	113	stimuli_target_diamondsquares.svg	stimuli_distractor_trianglediamonds.svg	20	yes	0	0	2000
6.6.1	win	2022-12-14	13:57:32	14:09:20	701852	5ef37831c37ebb0bbd2d3e03	785355724	1	main_slash	11	advance_on_keypress_SLASH	114	stimuli_target_diamondsquares.svg	stimuli_distractor_trianglediamonds.svg	20	yes	57	0	295
6.6.1	win	2022-12-14	13:57:32	14:09:22	703391	5ef37831c37ebb0bbd2d3e03	785355724	1	main_slash	11	main_slash	115	stimuli_distractor_trianglediamonds.svg	stimuli_target_trianglesquares.svg	26	yes	53	1	606
6.6.1	win	2022-12-14	13:57:32	14:09:22	703391	5ef37831c37ebb0bbd2d3e03	785355724	1	main_slash	11	advance_on_keypress_SLASH	116	stimuli_distractor_trianglediamonds.svg	stimuli_target_trianglesquares.svg	26	yes	57	0	190
6.6.1	win	2022-12-14	13:57:32	14:09:23	704629	5ef37831c37ebb0bbd2d3e03	785355724	1	main_slash	11	main_slash	117	stimuli_distractor_diamondtriangles.svg	stimuli_target_diamondcircles.svg	31	yes	53	1	411
6.6.1	win	2022-12-14	13:57:32	14:09:23	704629	5ef37831c37ebb0bbd2d3e03	785355724	1	main_slash	11	advance_on_keypress_SLASH	118	stimuli_distractor_diamondtriangles.svg	stimuli_target_diamondcircles.svg	31	yes	57	0	185
6.6.1	win	2022-12-14	13:57:32	14:09:24	705973	5ef37831c37ebb0bbd2d3e03	785355724	1	main_slash	11	main_slash	119	stimuli_target_trianglecircles.svg	stimuli_distractor_trianglediamonds.svg	17	yes	53	1	522
6.6.1	win	2022-12-14	13:57:32	14:09:24	705973	5ef37831c37ebb0bbd2d3e03	785355724	1	main_slash	11	advance_on_keypress_SLASH	120	stimuli_target_trianglecircles.svg	stimuli_distractor_trianglediamonds.svg	17	yes	57	0	173
6.6.1	win	2022-12-14	13:57:32	14:09:26	707362	5ef37831c37ebb0bbd2d3e03	785355724	1	main_slash	11	main_slash	121	stimuli_distractor_trianglediamonds.svg	stimuli_target_diamondsquares.svg	28	yes	53	1	577
6.6.1	win	2022-12-14	13:57:32	14:09:26	707362	5ef37831c37ebb0bbd2d3e03	785355724	1	main_slash	11	advance_on_keypress_SLASH	122	stimuli_distractor_trianglediamonds.svg	stimuli_target_diamondsquares.svg	28	yes	57	0	188
6.6.1	win	2022-12-14	13:57:32	14:09:27	708866	5ef37831c37ebb0bbd2d3e03	785355724	1	main_slash	11	main_slash	123	stimuli_distractor_trianglediamonds.svg	stimuli_distractor_diamondtriangles.svg	35	no	53	0	682
6.6.1	win	2022-12-14	13:57:32	14:09:27	708866	5ef37831c37ebb0bbd2d3e03	785355724	1	main_slash	11	advance_on_keypress_SLASH	124	stimuli_distractor_trianglediamonds.svg	stimuli_distractor_diamondtriangles.svg	35	no	57	0	929
6.6.1	win	2022-12-14	13:57:32	14:09:29	710851	5ef37831c37ebb0bbd2d3e03	785355724	1	main_slash	11	main_slash	125	stimuli_target_trianglesquares.svg	stimuli_distractor_diamondtriangles.svg	22	yes	53	1	417
6.6.1	win	2022-12-14	13:57:32	14:09:29	710851	5ef37831c37ebb0bbd2d3e03	785355724	1	main_slash	11	advance_on_keypress_SLASH	126	stimuli_target_trianglesquares.svg	stimuli_distractor_diamondtriangles.svg	22	yes	57	0	148
6.6.1	win	2022-12-14	13:57:32	14:09:32	713651	5ef37831c37ebb0bbd2d3e03	785355724	1	main_slash	11	main_slash	127	stimuli_distractor_diamondtriangles.svg	stimuli_distractor_diamondtriangles.svg	40	no	0	1	2000
6.6.1	win	2022-12-14	13:57:32	14:09:32	713651	5ef37831c37ebb0bbd2d3e03	785355724	1	main_slash	11	advance_on_keypress_SLASH	128	stimuli_distractor_diamondtriangles.svg	stimuli_distractor_diamondtriangles.svg	40	no	57	0	262
6.6.1	win	2022-12-14	13:57:32	14:09:34	715092	5ef37831c37ebb0bbd2d3e03	785355724	1	main_slash	11	main_slash	129	stimuli_distractor_trianglediamonds.svg	stimuli_target_circletriangles.svg	9	yes	53	1	541
6.6.1	win	2022-12-14	13:57:32	14:09:34	715092	5ef37831c37ebb0bbd2d3e03	785355724	1	main_slash	11	advance_on_keypress_SLASH	130	stimuli_distractor_trianglediamonds.svg	stimuli_target_circletriangles.svg	9	yes	57	0	176
6.6.1	win	2022-12-14	13:57:32	14:09:35	716305	5ef37831c37ebb0bbd2d3e03	785355724	1	main_slash	11	main_slash	131	stimuli_target_circletriangles.svg	stimuli_distractor_trianglediamonds.svg	1	yes	53	1	403
6.6.1	win	2022-12-14	13:57:32	14:09:35	716305	5ef37831c37ebb0bbd2d3e03	785355724	1	main_slash	11	advance_on_keypress_SLASH	132	stimuli_target_circletriangles.svg	stimuli_distractor_trianglediamonds.svg	1	yes	57	0	178
6.6.1	win	2022-12-14	13:57:32	14:09:36	717483	5ef37831c37ebb0bbd2d3e03	785355724	1	main_slash	11	main_slash	133	stimuli_target_circlediamonds.svg	stimuli_distractor_trianglediamonds.svg	2	yes	53	1	366
6.6.1	win	2022-12-14	13:57:32	14:09:36	717483	5ef37831c37ebb0bbd2d3e03	785355724	1	main_slash	11	advance_on_keypress_SLASH	134	stimuli_target_circlediamonds.svg	stimuli_distractor_trianglediamonds.svg	2	yes	57	0	137
6.6.1	win	2022-12-14	13:57:32	14:09:37	718706	5ef37831c37ebb0bbd2d3e03	785355724	1	main_slash	11	main_slash	135	stimuli_target_squarediamonds.svg	stimuli_distractor_trianglediamonds.svg	4	yes	53	1	438
6.6.1	win	2022-12-14	13:57:32	14:09:37	718706	5ef37831c37ebb0bbd2d3e03	785355724	1	main_slash	11	advance_on_keypress_SLASH	136	stimuli_target_squarediamonds.svg	stimuli_distractor_trianglediamonds.svg	4	yes	57	0	154
6.6.1	win	2022-12-14	13:57:32	14:09:38	719900	5ef37831c37ebb0bbd2d3e03	785355724	1	main_slash	11	main_slash	137	stimuli_distractor_diamondtriangles.svg	stimuli_target_trianglecircles.svg	29	yes	53	1	398
6.6.1	win	2022-12-14	13:57:32	14:09:38	719900	5ef37831c37ebb0bbd2d3e03	785355724	1	main_slash	11	advance_on_keypress_SLASH	138	stimuli_distractor_diamondtriangles.svg	stimuli_target_trianglecircles.svg	29	yes	57	0	152
6.6.1	win	2022-12-14	13:57:32	14:09:40	721429	5ef37831c37ebb0bbd2d3e03	785355724	1	main_slash	11	main_slash	139	stimuli_target_circletriangles.svg	stimuli_distractor_diamondtriangles.svg	5	yes	53	1	727
6.6.1	win	2022-12-14	13:57:32	14:09:40	721429	5ef37831c37ebb0bbd2d3e03	785355724	1	main_slash	11	advance_on_keypress_SLASH	140	stimuli_target_circletriangles.svg	stimuli_distractor_diamondtriangles.svg	5	yes	57	0	115
6.6.1	win	2022-12-14	13:57:32	14:09:41	722672	5ef37831c37ebb0bbd2d3e03	785355724	1	main_slash	11	main_slash	141	stimuli_target_squaretriangles.svg	stimuli_distractor_trianglediamonds.svg	3	yes	53	1	488
6.6.1	win	2022-12-14	13:57:32	14:09:41	722672	5ef37831c37ebb0bbd2d3e03	785355724	1	main_slash	11	advance_on_keypress_SLASH	142	stimuli_target_squaretriangles.svg	stimuli_distractor_trianglediamonds.svg	3	yes	57	0	98
6.6.1	win	2022-12-14	13:57:32	14:09:42	723800	5ef37831c37ebb0bbd2d3e03	785355724	1	main_slash	11	main_slash	143	stimuli_target_circlediamonds.svg	stimuli_distractor_diamondtriangles.svg	6	yes	53	1	372
6.6.1	win	2022-12-14	13:57:32	14:09:42	723800	5ef37831c37ebb0bbd2d3e03	785355724	1	main_slash	11	advance_on_keypress_SLASH	144	stimuli_target_circlediamonds.svg	stimuli_distractor_diamondtriangles.svg	6	yes	57	0	133
6.6.1	win	2022-12-14	13:57:32	14:09:45	726584	5ef37831c37ebb0bbd2d3e03	785355724	1	main_slash	11	main_slash	145	stimuli_distractor_diamondtriangles.svg	stimuli_distractor_trianglediamonds.svg	37	no	0	1	2000
6.6.1	win	2022-12-14	13:57:32	14:09:45	726584	5ef37831c37ebb0bbd2d3e03	785355724	1	main_slash	11	advance_on_keypress_SLASH	146	stimuli_distractor_diamondtriangles.svg	stimuli_distractor_trianglediamonds.svg	37	no	57	0	198
6.6.1	win	2022-12-14	13:57:32	14:09:46	727906	5ef37831c37ebb0bbd2d3e03	785355724	1	main_slash	11	main_slash	147	stimuli_target_trianglecircles.svg	stimuli_distractor_diamondtriangles.svg	21	yes	53	1	471
6.6.1	win	2022-12-14	13:57:32	14:09:46	727906	5ef37831c37ebb0bbd2d3e03	785355724	1	main_slash	11	advance_on_keypress_SLASH	148	stimuli_target_trianglecircles.svg	stimuli_distractor_diamondtriangles.svg	21	yes	57	0	173
6.6.1	win	2022-12-14	13:57:32	14:09:48	729119	5ef37831c37ebb0bbd2d3e03	785355724	1	main_slash	11	main_slash	149	stimuli_distractor_diamondtriangles.svg	stimuli_target_squarediamonds.svg	16	yes	53	1	401
6.6.1	win	2022-12-14	13:57:32	14:09:48	729119	5ef37831c37ebb0bbd2d3e03	785355724	1	main_slash	11	advance_on_keypress_SLASH	150	stimuli_distractor_diamondtriangles.svg	stimuli_target_squarediamonds.svg	16	yes	57	0	139
6.6.1	win	2022-12-14	13:57:32	14:09:50	731901	5ef37831c37ebb0bbd2d3e03	785355724	1	main_slash	11	main_slash	151	stimuli_distractor_trianglediamonds.svg	stimuli_distractor_diamondtriangles.svg	36	no	0	1	2000
6.6.1	win	2022-12-14	13:57:32	14:09:50	731901	5ef37831c37ebb0bbd2d3e03	785355724	1	main_slash	11	advance_on_keypress_SLASH	152	stimuli_distractor_trianglediamonds.svg	stimuli_distractor_diamondtriangles.svg	36	no	57	0	285
6.6.1	win	2022-12-14	13:57:32	14:09:53	734834	5ef37831c37ebb0bbd2d3e03	785355724	1	main_slash	11	main_slash	153	stimuli_distractor_trianglediamonds.svg	stimuli_distractor_trianglediamonds.svg	33	no	0	1	2000
6.6.1	win	2022-12-14	13:57:32	14:09:53	734834	5ef37831c37ebb0bbd2d3e03	785355724	1	main_slash	11	advance_on_keypress_SLASH	154	stimuli_distractor_trianglediamonds.svg	stimuli_distractor_trianglediamonds.svg	33	no	57	0	280
6.6.1	win	2022-12-14	13:57:32	14:09:55	736313	5ef37831c37ebb0bbd2d3e03	785355724	1	main_slash	11	main_slash	155	stimuli_target_squaretriangles.svg	stimuli_distractor_diamondtriangles.svg	7	yes	53	1	562
6.6.1	win	2022-12-14	13:57:32	14:09:55	736313	5ef37831c37ebb0bbd2d3e03	785355724	1	main_slash	11	advance_on_keypress_SLASH	156	stimuli_target_squaretriangles.svg	stimuli_distractor_diamondtriangles.svg	7	yes	57	0	135
6.6.1	win	2022-12-14	13:57:32	14:09:56	737726	5ef37831c37ebb0bbd2d3e03	785355724	1	main_slash	11	main_slash	157	stimuli_target_diamondsquares.svg	stimuli_distractor_diamondtriangles.svg	24	yes	53	1	641
6.6.1	win	2022-12-14	13:57:32	14:09:56	737726	5ef37831c37ebb0bbd2d3e03	785355724	1	main_slash	11	advance_on_keypress_SLASH	158	stimuli_target_diamondsquares.svg	stimuli_distractor_diamondtriangles.svg	24	yes	57	0	138
6.6.1	win	2022-12-14	13:57:32	14:09:57	738924	5ef37831c37ebb0bbd2d3e03	785355724	1	main_slash	11	main_slash	159	stimuli_distractor_trianglediamonds.svg	stimuli_target_diamondcircles.svg	27	yes	53	1	423
6.6.1	win	2022-12-14	13:57:32	14:09:57	738924	5ef37831c37ebb0bbd2d3e03	785355724	1	main_slash	11	advance_on_keypress_SLASH	160	stimuli_distractor_trianglediamonds.svg	stimuli_target_diamondcircles.svg	27	yes	57	0	160