build	computer.platform	date	time	timestamp	time_elapsed_ms	subject	group	session	blockcode	blocknum	trialcode	trialnum	stimulus_left	stimulus_right	stim_index	target_present	response	correct	latency
6.6.1	mac	2022-12-28	15:50:33	15:53:07	153314	6101db15d4eefc0ed011e3c3	663557747	1	practice_slash	5	practice_slash	1	stimuli_distractor_trianglediamonds.svg	stimuli_distractor_diamondtriangles.svg	16	no	0	1	2000
6.6.1	mac	2022-12-28	15:50:33	15:53:07	153314	6101db15d4eefc0ed011e3c3	663557747	1	practice_slash	5	advance_on_keypress_SLASH	2	stimuli_distractor_trianglediamonds.svg	stimuli_distractor_diamondtriangles.svg	16	no	57	0	2194
6.6.1	mac	2022-12-28	15:50:33	15:53:13	159148	6101db15d4eefc0ed011e3c3	663557747	1	practice_slash	5	practice_slash	3	stimuli_distractor_diamondtriangles.svg	stimuli_distractor_trianglediamonds.svg	14	no	0	1	2000
6.6.1	mac	2022-12-28	15:50:33	15:53:13	159148	6101db15d4eefc0ed011e3c3	663557747	1	practice_slash	5	advance_on_keypress_SLASH	4	stimuli_distractor_diamondtriangles.svg	stimuli_distractor_trianglediamonds.svg	14	no	57	0	850
6.6.1	mac	2022-12-28	15:50:33	15:53:17	162585	6101db15d4eefc0ed011e3c3	663557747	1	practice_slash	5	practice_slash	5	stimuli_target_squarediamonds.svg	stimuli_distractor_diamondtriangles.svg	2	yes	53	1	953
6.6.1	mac	2022-12-28	15:50:33	15:53:17	162585	6101db15d4eefc0ed011e3c3	663557747	1	practice_slash	5	advance_on_keypress_SLASH	6	stimuli_target_squarediamonds.svg	stimuli_distractor_diamondtriangles.svg	2	yes	57	0	1123
6.6.1	mac	2022-12-28	15:50:33	15:53:20	166134	6101db15d4eefc0ed011e3c3	663557747	1	practice_slash	5	practice_slash	7	stimuli_target_diamondsquares.svg	stimuli_distractor_diamondtriangles.svg	3	yes	53	1	786
6.6.1	mac	2022-12-28	15:50:33	15:53:20	166134	6101db15d4eefc0ed011e3c3	663557747	1	practice_slash	5	advance_on_keypress_SLASH	8	stimuli_target_diamondsquares.svg	stimuli_distractor_diamondtriangles.svg	3	yes	57	0	628
6.6.1	mac	2022-12-28	15:50:33	15:53:24	170397	6101db15d4eefc0ed011e3c3	663557747	1	practice_slash	5	practice_slash	9	stimuli_distractor_diamondtriangles.svg	stimuli_distractor_diamondtriangles.svg	13	no	0	1	2000
6.6.1	mac	2022-12-28	15:50:33	15:53:24	170397	6101db15d4eefc0ed011e3c3	663557747	1	practice_slash	5	advance_on_keypress_SLASH	10	stimuli_distractor_diamondtriangles.svg	stimuli_distractor_diamondtriangles.svg	13	no	57	0	364
6.6.1	mac	2022-12-28	15:50:33	15:53:27	173243	6101db15d4eefc0ed011e3c3	663557747	1	practice_slash	5	practice_slash	11	stimuli_target_diamondsquares.svg	stimuli_distractor_trianglediamonds.svg	6	yes	53	1	846
6.6.1	mac	2022-12-28	15:50:33	15:53:27	173243	6101db15d4eefc0ed011e3c3	663557747	1	practice_slash	5	advance_on_keypress_SLASH	12	stimuli_target_diamondsquares.svg	stimuli_distractor_trianglediamonds.svg	6	yes	57	0	665
6.6.1	mac	2022-12-28	15:50:33	15:53:31	176567	6101db15d4eefc0ed011e3c3	663557747	1	practice_slash	5	practice_slash	13	stimuli_distractor_diamondtriangles.svg	stimuli_target_circletriangles.svg	7	yes	53	1	1018
6.6.1	mac	2022-12-28	15:50:33	15:53:31	176567	6101db15d4eefc0ed011e3c3	663557747	1	practice_slash	5	advance_on_keypress_SLASH	14	stimuli_distractor_diamondtriangles.svg	stimuli_target_circletriangles.svg	7	yes	57	0	611
6.6.1	mac	2022-12-28	15:50:33	15:53:34	179724	6101db15d4eefc0ed011e3c3	663557747	1	practice_slash	5	practice_slash	15	stimuli_distractor_diamondtriangles.svg	stimuli_target_trianglecircles.svg	9	yes	53	1	908
6.6.1	mac	2022-12-28	15:50:33	15:53:34	179724	6101db15d4eefc0ed011e3c3	663557747	1	practice_slash	5	advance_on_keypress_SLASH	16	stimuli_distractor_diamondtriangles.svg	stimuli_target_trianglecircles.svg	9	yes	57	0	551
6.6.1	mac	2022-12-28	15:50:33	15:53:38	183916	6101db15d4eefc0ed011e3c3	663557747	1	practice_slash	5	practice_slash	17	stimuli_distractor_trianglediamonds.svg	stimuli_target_diamondcircles.svg	12	yes	0	0	2000
6.6.1	mac	2022-12-28	15:50:33	15:53:38	183916	6101db15d4eefc0ed011e3c3	663557747	1	practice_slash	5	advance_on_keypress_SLASH	18	stimuli_distractor_trianglediamonds.svg	stimuli_target_diamondcircles.svg	12	yes	57	0	544
6.6.1	mac	2022-12-28	15:50:33	15:53:42	188097	6101db15d4eefc0ed011e3c3	663557747	1	practice_slash	5	practice_slash	19	stimuli_distractor_trianglediamonds.svg	stimuli_distractor_trianglediamonds.svg	15	no	0	1	2000
6.6.1	mac	2022-12-28	15:50:33	15:53:42	188097	6101db15d4eefc0ed011e3c3	663557747	1	practice_slash	5	advance_on_keypress_SLASH	20	stimuli_distractor_trianglediamonds.svg	stimuli_distractor_trianglediamonds.svg	15	no	57	0	527
6.6.1	mac	2022-12-28	15:50:33	15:53:45	191122	6101db15d4eefc0ed011e3c3	663557747	1	practice_slash	5	practice_slash	21	stimuli_distractor_trianglediamonds.svg	stimuli_target_circlediamonds.svg	10	yes	53	1	858
6.6.1	mac	2022-12-28	15:50:33	15:53:45	191122	6101db15d4eefc0ed011e3c3	663557747	1	practice_slash	5	advance_on_keypress_SLASH	22	stimuli_distractor_trianglediamonds.svg	stimuli_target_circlediamonds.svg	10	yes	57	0	435
6.6.1	mac	2022-12-28	15:50:33	15:53:48	194141	6101db15d4eefc0ed011e3c3	663557747	1	practice_slash	5	practice_slash	23	stimuli_target_circlediamonds.svg	stimuli_distractor_trianglediamonds.svg	4	yes	53	1	961
6.6.1	mac	2022-12-28	15:50:33	15:53:48	194141	6101db15d4eefc0ed011e3c3	663557747	1	practice_slash	5	advance_on_keypress_SLASH	24	stimuli_target_circlediamonds.svg	stimuli_distractor_trianglediamonds.svg	4	yes	57	0	602
6.6.1	mac	2022-12-28	15:50:33	15:53:51	197199	6101db15d4eefc0ed011e3c3	663557747	1	practice_slash	5	practice_slash	25	stimuli_distractor_trianglediamonds.svg	stimuli_target_squarediamonds.svg	11	yes	53	1	817
6.6.1	mac	2022-12-28	15:50:33	15:53:51	197199	6101db15d4eefc0ed011e3c3	663557747	1	practice_slash	5	advance_on_keypress_SLASH	26	stimuli_distractor_trianglediamonds.svg	stimuli_target_squarediamonds.svg	11	yes	57	0	378
6.6.1	mac	2022-12-28	15:50:33	15:53:54	200039	6101db15d4eefc0ed011e3c3	663557747	1	practice_slash	5	practice_slash	27	stimuli_distractor_diamondtriangles.svg	stimuli_target_diamondcircles.svg	8	yes	53	1	825
6.6.1	mac	2022-12-28	15:50:33	15:53:54	200039	6101db15d4eefc0ed011e3c3	663557747	1	practice_slash	5	advance_on_keypress_SLASH	28	stimuli_distractor_diamondtriangles.svg	stimuli_target_diamondcircles.svg	8	yes	57	0	304
6.6.1	mac	2022-12-28	15:50:33	15:53:57	203091	6101db15d4eefc0ed011e3c3	663557747	1	practice_slash	5	practice_slash	29	stimuli_target_squarediamonds.svg	stimuli_distractor_trianglediamonds.svg	5	yes	53	1	1122
6.6.1	mac	2022-12-28	15:50:33	15:53:57	203091	6101db15d4eefc0ed011e3c3	663557747	1	practice_slash	5	advance_on_keypress_SLASH	30	stimuli_target_squarediamonds.svg	stimuli_distractor_trianglediamonds.svg	5	yes	57	0	426
6.6.1	mac	2022-12-28	15:50:33	15:54:00	206187	6101db15d4eefc0ed011e3c3	663557747	1	practice_slash	5	practice_slash	31	stimuli_target_circlediamonds.svg	stimuli_distractor_diamondtriangles.svg	1	yes	53	1	1039
6.6.1	mac	2022-12-28	15:50:33	15:54:00	206187	6101db15d4eefc0ed011e3c3	663557747	1	practice_slash	5	advance_on_keypress_SLASH	32	stimuli_target_circlediamonds.svg	stimuli_distractor_diamondtriangles.svg	1	yes	57	0	529
6.6.1	mac	2022-12-28	15:50:33	15:54:08	213746	6101db15d4eefc0ed011e3c3	663557747	1	main_slash	7	main_slash	1	stimuli_target_diamondsquares.svg	stimuli_distractor_trianglediamonds.svg	20	yes	0	0	2000
6.6.1	mac	2022-12-28	15:50:33	15:54:08	213746	6101db15d4eefc0ed011e3c3	663557747	1	main_slash	7	advance_on_keypress_SLASH	2	stimuli_target_diamondsquares.svg	stimuli_distractor_trianglediamonds.svg	20	yes	57	0	1457
6.6.1	mac	2022-12-28	15:50:33	15:54:12	217846	6101db15d4eefc0ed011e3c3	663557747	1	main_slash	7	main_slash	3	stimuli_target_trianglesquares.svg	stimuli_distractor_diamondtriangles.svg	22	yes	0	0	2000
6.6.1	mac	2022-12-28	15:50:33	15:54:12	217846	6101db15d4eefc0ed011e3c3	663557747	1	main_slash	7	advance_on_keypress_SLASH	4	stimuli_target_trianglesquares.svg	stimuli_distractor_diamondtriangles.svg	22	yes	57	0	584
6.6.1	mac	2022-12-28	15:50:33	15:54:14	220167	6101db15d4eefc0ed011e3c3	663557747	1	main_slash	7	main_slash	5	stimuli_distractor_trianglediamonds.svg	stimuli_target_diamondcircles.svg	27	yes	53	1	1104
6.6.1	mac	2022-12-28	15:50:33	15:54:14	220167	6101db15d4eefc0ed011e3c3	663557747	1	main_slash	7	advance_on_keypress_SLASH	6	stimuli_distractor_trianglediamonds.svg	stimuli_target_diamondcircles.svg	27	yes	57	0	987
6.6.1	mac	2022-12-28	15:50:33	15:54:17	222675	6101db15d4eefc0ed011e3c3	663557747	1	main_slash	7	main_slash	7	stimuli_distractor_diamondtriangles.svg	stimuli_target_circletriangles.svg	13	yes	53	1	895
6.6.1	mac	2022-12-28	15:50:33	15:54:17	222675	6101db15d4eefc0ed011e3c3	663557747	1	main_slash	7	advance_on_keypress_SLASH	8	stimuli_distractor_diamondtriangles.svg	stimuli_target_circletriangles.svg	13	yes	57	0	524
6.6.1	mac	2022-12-28	15:50:33	15:54:20	225829	6101db15d4eefc0ed011e3c3	663557747	1	main_slash	7	main_slash	9	stimuli_distractor_diamondtriangles.svg	stimuli_target_trianglesquares.svg	30	yes	0	0	2000
6.6.1	mac	2022-12-28	15:50:33	15:54:20	225829	6101db15d4eefc0ed011e3c3	663557747	1	main_slash	7	advance_on_keypress_SLASH	10	stimuli_distractor_diamondtriangles.svg	stimuli_target_trianglesquares.svg	30	yes	57	0	405
6.6.1	mac	2022-12-28	15:50:33	15:54:22	227980	6101db15d4eefc0ed011e3c3	663557747	1	main_slash	7	main_slash	11	stimuli_target_diamondcircles.svg	stimuli_distractor_trianglediamonds.svg	19	yes	53	1	1118
6.6.1	mac	2022-12-28	15:50:33	15:54:22	227980	6101db15d4eefc0ed011e3c3	663557747	1	main_slash	7	advance_on_keypress_SLASH	12	stimuli_target_diamondcircles.svg	stimuli_distractor_trianglediamonds.svg	19	yes	57	0	680
6.6.1	mac	2022-12-28	15:50:33	15:54:25	231296	6101db15d4eefc0ed011e3c3	663557747	1	main_slash	7	main_slash	13	stimuli_distractor_diamondtriangles.svg	stimuli_distractor_trianglediamonds.svg	38	no	0	1	2000
6.6.1	mac	2022-12-28	15:50:33	15:54:25	231296	6101db15d4eefc0ed011e3c3	663557747	1	main_slash	7	advance_on_keypress_SLASH	14	stimuli_distractor_diamondtriangles.svg	stimuli_distractor_trianglediamonds.svg	38	no	57	0	357
6.6.1	mac	2022-12-28	15:50:33	15:54:28	234296	6101db15d4eefc0ed011e3c3	663557747	1	main_slash	7	main_slash	15	stimuli_distractor_trianglediamonds.svg	stimuli_distractor_trianglediamonds.svg	34	no	0	1	2000
6.6.1	mac	2022-12-28	15:50:33	15:54:28	234296	6101db15d4eefc0ed011e3c3	663557747	1	main_slash	7	advance_on_keypress_SLASH	16	stimuli_distractor_trianglediamonds.svg	stimuli_distractor_trianglediamonds.svg	34	no	57	0	533
6.6.1	mac	2022-12-28	15:50:33	15:54:30	236329	6101db15d4eefc0ed011e3c3	663557747	1	main_slash	7	main_slash	17	stimuli_distractor_trianglediamonds.svg	stimuli_target_diamondsquares.svg	28	yes	53	1	865
6.6.1	mac	2022-12-28	15:50:33	15:54:30	236329	6101db15d4eefc0ed011e3c3	663557747	1	main_slash	7	advance_on_keypress_SLASH	18	stimuli_distractor_trianglediamonds.svg	stimuli_target_diamondsquares.svg	28	yes	57	0	1036
6.6.1	mac	2022-12-28	15:50:33	15:54:33	238719	6101db15d4eefc0ed011e3c3	663557747	1	main_slash	7	main_slash	19	stimuli_distractor_diamondtriangles.svg	stimuli_target_circlediamonds.svg	14	yes	53	1	722
6.6.1	mac	2022-12-28	15:50:33	15:54:33	238719	6101db15d4eefc0ed011e3c3	663557747	1	main_slash	7	advance_on_keypress_SLASH	20	stimuli_distractor_diamondtriangles.svg	stimuli_target_circlediamonds.svg	14	yes	57	0	1124
6.6.1	mac	2022-12-28	15:50:33	15:54:35	241218	6101db15d4eefc0ed011e3c3	663557747	1	main_slash	7	main_slash	21	stimuli_distractor_trianglediamonds.svg	stimuli_target_squarediamonds.svg	12	yes	53	1	738
6.6.1	mac	2022-12-28	15:50:33	15:54:35	241218	6101db15d4eefc0ed011e3c3	663557747	1	main_slash	7	advance_on_keypress_SLASH	22	stimuli_distractor_trianglediamonds.svg	stimuli_target_squarediamonds.svg	12	yes	57	0	612
6.6.1	mac	2022-12-28	15:50:33	15:54:38	244463	6101db15d4eefc0ed011e3c3	663557747	1	main_slash	7	main_slash	23	stimuli_distractor_diamondtriangles.svg	stimuli_distractor_trianglediamonds.svg	37	no	0	1	2000
6.6.1	mac	2022-12-28	15:50:33	15:54:38	244463	6101db15d4eefc0ed011e3c3	663557747	1	main_slash	7	advance_on_keypress_SLASH	24	stimuli_distractor_diamondtriangles.svg	stimuli_distractor_trianglediamonds.svg	37	no	57	0	891
6.6.1	mac	2022-12-28	15:50:33	15:54:41	246881	6101db15d4eefc0ed011e3c3	663557747	1	main_slash	7	main_slash	25	stimuli_distractor_diamondtriangles.svg	stimuli_target_squaretriangles.svg	15	yes	53	1	884
6.6.1	mac	2022-12-28	15:50:33	15:54:41	246881	6101db15d4eefc0ed011e3c3	663557747	1	main_slash	7	advance_on_keypress_SLASH	26	stimuli_distractor_diamondtriangles.svg	stimuli_target_squaretriangles.svg	15	yes	57	0	788
6.6.1	mac	2022-12-28	15:50:33	15:54:44	250297	6101db15d4eefc0ed011e3c3	663557747	1	main_slash	7	main_slash	27	stimuli_distractor_trianglediamonds.svg	stimuli_distractor_trianglediamonds.svg	33	no	0	1	2000
6.6.1	mac	2022-12-28	15:50:33	15:54:44	250297	6101db15d4eefc0ed011e3c3	663557747	1	main_slash	7	advance_on_keypress_SLASH	28	stimuli_distractor_trianglediamonds.svg	stimuli_distractor_trianglediamonds.svg	33	no	57	0	443
6.6.1	mac	2022-12-28	15:50:33	15:54:46	252428	6101db15d4eefc0ed011e3c3	663557747	1	main_slash	7	main_slash	29	stimuli_target_trianglesquares.svg	stimuli_distractor_trianglediamonds.svg	18	yes	53	1	1048
6.6.1	mac	2022-12-28	15:50:33	15:54:46	252428	6101db15d4eefc0ed011e3c3	663557747	1	main_slash	7	advance_on_keypress_SLASH	30	stimuli_target_trianglesquares.svg	stimuli_distractor_trianglediamonds.svg	18	yes	57	0	724
6.6.1	mac	2022-12-28	15:50:33	15:54:49	254741	6101db15d4eefc0ed011e3c3	663557747	1	main_slash	7	main_slash	31	stimuli_distractor_trianglediamonds.svg	stimuli_target_circlediamonds.svg	10	yes	53	1	961
6.6.1	mac	2022-12-28	15:50:33	15:54:49	254741	6101db15d4eefc0ed011e3c3	663557747	1	main_slash	7	advance_on_keypress_SLASH	32	stimuli_distractor_trianglediamonds.svg	stimuli_target_circlediamonds.svg	10	yes	57	0	374
6.6.1	mac	2022-12-28	15:50:33	15:54:51	256801	6101db15d4eefc0ed011e3c3	663557747	1	main_slash	7	main_slash	33	stimuli_distractor_trianglediamonds.svg	stimuli_target_trianglesquares.svg	26	yes	53	1	1054
6.6.1	mac	2022-12-28	15:50:33	15:54:51	256801	6101db15d4eefc0ed011e3c3	663557747	1	main_slash	7	advance_on_keypress_SLASH	34	stimuli_distractor_trianglediamonds.svg	stimuli_target_trianglesquares.svg	26	yes	57	0	509
6.6.1	mac	2022-12-28	15:50:33	15:54:54	259929	6101db15d4eefc0ed011e3c3	663557747	1	main_slash	7	main_slash	35	stimuli_distractor_trianglediamonds.svg	stimuli_distractor_diamondtriangles.svg	36	no	0	1	2000
6.6.1	mac	2022-12-28	15:50:33	15:54:54	259929	6101db15d4eefc0ed011e3c3	663557747	1	main_slash	7	advance_on_keypress_SLASH	36	stimuli_distractor_trianglediamonds.svg	stimuli_distractor_diamondtriangles.svg	36	no	57	0	3829
6.6.1	mac	2022-12-28	15:50:33	15:55:00	266396	6101db15d4eefc0ed011e3c3	663557747	1	main_slash	7	main_slash	37	stimuli_distractor_diamondtriangles.svg	stimuli_distractor_diamondtriangles.svg	39	no	0	1	2000
6.6.1	mac	2022-12-28	15:50:33	15:55:00	266396	6101db15d4eefc0ed011e3c3	663557747	1	main_slash	7	advance_on_keypress_SLASH	38	stimuli_distractor_diamondtriangles.svg	stimuli_distractor_diamondtriangles.svg	39	no	57	0	350
6.6.1	mac	2022-12-28	15:50:33	15:55:03	269379	6101db15d4eefc0ed011e3c3	663557747	1	main_slash	7	main_slash	39	stimuli_distractor_trianglediamonds.svg	stimuli_distractor_diamondtriangles.svg	35	no	0	1	2000
6.6.1	mac	2022-12-28	15:50:33	15:55:03	269379	6101db15d4eefc0ed011e3c3	663557747	1	main_slash	7	advance_on_keypress_SLASH	40	stimuli_distractor_trianglediamonds.svg	stimuli_distractor_diamondtriangles.svg	35	no	57	0	480
6.6.1	mac	2022-12-28	15:50:33	15:55:06	271639	6101db15d4eefc0ed011e3c3	663557747	1	main_slash	7	main_slash	41	stimuli_target_trianglecircles.svg	stimuli_distractor_trianglediamonds.svg	17	yes	53	1	1142
6.6.1	mac	2022-12-28	15:50:33	15:55:06	271639	6101db15d4eefc0ed011e3c3	663557747	1	main_slash	7	advance_on_keypress_SLASH	42	stimuli_target_trianglecircles.svg	stimuli_distractor_trianglediamonds.svg	17	yes	57	0	738
6.6.1	mac	2022-12-28	15:50:33	15:55:08	274085	6101db15d4eefc0ed011e3c3	663557747	1	main_slash	7	main_slash	43	stimuli_distractor_diamondtriangles.svg	stimuli_target_trianglecircles.svg	29	yes	53	1	1088
6.6.1	mac	2022-12-28	15:50:33	15:55:08	274085	6101db15d4eefc0ed011e3c3	663557747	1	main_slash	7	advance_on_keypress_SLASH	44	stimuli_distractor_diamondtriangles.svg	stimuli_target_trianglecircles.svg	29	yes	57	0	448
6.6.1	mac	2022-12-28	15:50:33	15:55:11	277162	6101db15d4eefc0ed011e3c3	663557747	1	main_slash	7	main_slash	45	stimuli_target_trianglecircles.svg	stimuli_distractor_diamondtriangles.svg	21	yes	0	0	2000
6.6.1	mac	2022-12-28	15:50:33	15:55:11	277162	6101db15d4eefc0ed011e3c3	663557747	1	main_slash	7	advance_on_keypress_SLASH	46	stimuli_target_trianglecircles.svg	stimuli_distractor_diamondtriangles.svg	21	yes	57	0	549
6.6.1	mac	2022-12-28	15:50:33	15:55:13	279264	6101db15d4eefc0ed011e3c3	663557747	1	main_slash	7	main_slash	47	stimuli_target_circletriangles.svg	stimuli_distractor_diamondtriangles.svg	5	yes	53	1	917
6.6.1	mac	2022-12-28	15:50:33	15:55:13	279264	6101db15d4eefc0ed011e3c3	663557747	1	main_slash	7	advance_on_keypress_SLASH	48	stimuli_target_circletriangles.svg	stimuli_distractor_diamondtriangles.svg	5	yes	57	0	788
6.6.1	mac	2022-12-28	15:50:33	15:55:16	281658	6101db15d4eefc0ed011e3c3	663557747	1	main_slash	7	main_slash	49	stimuli_target_diamondsquares.svg	stimuli_distractor_diamondtriangles.svg	24	yes	53	1	978
6.6.1	mac	2022-12-28	15:50:33	15:55:16	281658	6101db15d4eefc0ed011e3c3	663557747	1	main_slash	7	advance_on_keypress_SLASH	50	stimuli_target_diamondsquares.svg	stimuli_distractor_diamondtriangles.svg	24	yes	57	0	606
6.6.1	mac	2022-12-28	15:50:33	15:55:18	284101	6101db15d4eefc0ed011e3c3	663557747	1	main_slash	7	main_slash	51	stimuli_target_circletriangles.svg	stimuli_distractor_trianglediamonds.svg	1	yes	53	1	1205
6.6.1	mac	2022-12-28	15:50:33	15:55:18	284101	6101db15d4eefc0ed011e3c3	663557747	1	main_slash	7	advance_on_keypress_SLASH	52	stimuli_target_circletriangles.svg	stimuli_distractor_trianglediamonds.svg	1	yes	57	0	453
6.6.1	mac	2022-12-28	15:50:33	15:55:20	286343	6101db15d4eefc0ed011e3c3	663557747	1	main_slash	7	main_slash	53	stimuli_target_diamondcircles.svg	stimuli_distractor_diamondtriangles.svg	23	yes	53	1	1163
6.6.1	mac	2022-12-28	15:50:33	15:55:20	286343	6101db15d4eefc0ed011e3c3	663557747	1	main_slash	7	advance_on_keypress_SLASH	54	stimuli_target_diamondcircles.svg	stimuli_distractor_diamondtriangles.svg	23	yes	57	0	469
6.6.1	mac	2022-12-28	15:50:33	15:55:23	288684	6101db15d4eefc0ed011e3c3	663557747	1	main_slash	7	main_slash	55	stimuli_distractor_diamondtriangles.svg	stimuli_target_diamondsquares.svg	32	yes	53	1	1237
6.6.1	mac	2022-12-28	15:50:33	15:55:23	288684	6101db15d4eefc0ed011e3c3	663557747	1	main_slash	7	advance_on_keypress_SLASH	56	stimuli_distractor_diamondtriangles.svg	stimuli_target_diamondsquares.svg	32	yes	57	0	635
6.6.1	mac	2022-12-28	15:50:33	15:55:25	291003	6101db15d4eefc0ed011e3c3	663557747	1	main_slash	7	main_slash	57	stimuli_distractor_diamondtriangles.svg	stimuli_target_squarediamonds.svg	16	yes	53	1	1056
6.6.1	mac	2022-12-28	15:50:33	15:55:25	291003	6101db15d4eefc0ed011e3c3	663557747	1	main_slash	7	advance_on_keypress_SLASH	58	stimuli_distractor_diamondtriangles.svg	stimuli_target_squarediamonds.svg	16	yes	57	0	416
6.6.1	mac	2022-12-28	15:50:33	15:55:27	293114	6101db15d4eefc0ed011e3c3	663557747	1	main_slash	7	main_slash	59	stimuli_distractor_diamondtriangles.svg	stimuli_target_diamondcircles.svg	31	yes	53	1	1067
6.6.1	mac	2022-12-28	15:50:33	15:55:27	293114	6101db15d4eefc0ed011e3c3	663557747	1	main_slash	7	advance_on_keypress_SLASH	60	stimuli_distractor_diamondtriangles.svg	stimuli_target_diamondcircles.svg	31	yes	57	0	454
6.6.1	mac	2022-12-28	15:50:33	15:55:30	296197	6101db15d4eefc0ed011e3c3	663557747	1	main_slash	7	main_slash	61	stimuli_distractor_diamondtriangles.svg	stimuli_distractor_diamondtriangles.svg	40	no	0	1	2000
6.6.1	mac	2022-12-28	15:50:33	15:55:30	296197	6101db15d4eefc0ed011e3c3	663557747	1	main_slash	7	advance_on_keypress_SLASH	62	stimuli_distractor_diamondtriangles.svg	stimuli_distractor_diamondtriangles.svg	40	no	57	0	563
6.6.1	mac	2022-12-28	15:50:33	15:55:32	298472	6101db15d4eefc0ed011e3c3	663557747	1	main_slash	7	main_slash	63	stimuli_distractor_trianglediamonds.svg	stimuli_target_squaretriangles.svg	11	yes	53	1	1075
6.6.1	mac	2022-12-28	15:50:33	15:55:32	298472	6101db15d4eefc0ed011e3c3	663557747	1	main_slash	7	advance_on_keypress_SLASH	64	stimuli_distractor_trianglediamonds.svg	stimuli_target_squaretriangles.svg	11	yes	57	0	462
6.6.1	mac	2022-12-28	15:50:33	15:55:35	300564	6101db15d4eefc0ed011e3c3	663557747	1	main_slash	7	main_slash	65	stimuli_target_squarediamonds.svg	stimuli_distractor_diamondtriangles.svg	8	yes	53	1	1000
6.6.1	mac	2022-12-28	15:50:33	15:55:35	300564	6101db15d4eefc0ed011e3c3	663557747	1	main_slash	7	advance_on_keypress_SLASH	66	stimuli_target_squarediamonds.svg	stimuli_distractor_diamondtriangles.svg	8	yes	57	0	348
6.6.1	mac	2022-12-28	15:50:33	15:55:37	302751	6101db15d4eefc0ed011e3c3	663557747	1	main_slash	7	main_slash	67	stimuli_target_squaretriangles.svg	stimuli_distractor_diamondtriangles.svg	7	yes	53	1	1204
6.6.1	mac	2022-12-28	15:50:33	15:55:37	302751	6101db15d4eefc0ed011e3c3	663557747	1	main_slash	7	advance_on_keypress_SLASH	68	stimuli_target_squaretriangles.svg	stimuli_distractor_diamondtriangles.svg	7	yes	57	0	413
6.6.1	mac	2022-12-28	15:50:33	15:55:39	304890	6101db15d4eefc0ed011e3c3	663557747	1	main_slash	7	main_slash	69	stimuli_target_squaretriangles.svg	stimuli_distractor_trianglediamonds.svg	3	yes	53	1	1092
6.6.1	mac	2022-12-28	15:50:33	15:55:39	304890	6101db15d4eefc0ed011e3c3	663557747	1	main_slash	7	advance_on_keypress_SLASH	70	stimuli_target_squaretriangles.svg	stimuli_distractor_trianglediamonds.svg	3	yes	57	0	470
6.6.1	mac	2022-12-28	15:50:33	15:55:41	307210	6101db15d4eefc0ed011e3c3	663557747	1	main_slash	7	main_slash	71	stimuli_distractor_trianglediamonds.svg	stimuli_target_circletriangles.svg	9	yes	53	1	1213
6.6.1	mac	2022-12-28	15:50:33	15:55:41	307210	6101db15d4eefc0ed011e3c3	663557747	1	main_slash	7	advance_on_keypress_SLASH	72	stimuli_distractor_trianglediamonds.svg	stimuli_target_circletriangles.svg	9	yes	57	0	351
6.6.1	mac	2022-12-28	15:50:33	15:55:44	310197	6101db15d4eefc0ed011e3c3	663557747	1	main_slash	7	main_slash	73	stimuli_distractor_trianglediamonds.svg	stimuli_target_trianglecircles.svg	25	yes	0	0	2000
6.6.1	mac	2022-12-28	15:50:33	15:55:44	310197	6101db15d4eefc0ed011e3c3	663557747	1	main_slash	7	advance_on_keypress_SLASH	74	stimuli_distractor_trianglediamonds.svg	stimuli_target_trianglecircles.svg	25	yes	57	0	392
6.6.1	mac	2022-12-28	15:50:33	15:55:46	312332	6101db15d4eefc0ed011e3c3	663557747	1	main_slash	7	main_slash	75	stimuli_target_squarediamonds.svg	stimuli_distractor_trianglediamonds.svg	4	yes	53	1	1119
6.6.1	mac	2022-12-28	15:50:33	15:55:46	312332	6101db15d4eefc0ed011e3c3	663557747	1	main_slash	7	advance_on_keypress_SLASH	76	stimuli_target_squarediamonds.svg	stimuli_distractor_trianglediamonds.svg	4	yes	57	0	540
6.6.1	mac	2022-12-28	15:50:33	15:55:49	314588	6101db15d4eefc0ed011e3c3	663557747	1	main_slash	7	main_slash	77	stimuli_target_circlediamonds.svg	stimuli_distractor_diamondtriangles.svg	6	yes	53	1	1093
6.6.1	mac	2022-12-28	15:50:33	15:55:49	314588	6101db15d4eefc0ed011e3c3	663557747	1	main_slash	7	advance_on_keypress_SLASH	78	stimuli_target_circlediamonds.svg	stimuli_distractor_diamondtriangles.svg	6	yes	57	0	560
6.6.1	mac	2022-12-28	15:50:33	15:55:51	316864	6101db15d4eefc0ed011e3c3	663557747	1	main_slash	7	main_slash	79	stimuli_target_circlediamonds.svg	stimuli_distractor_trianglediamonds.svg	2	yes	53	1	1102
6.6.1	mac	2022-12-28	15:50:33	15:55:51	316864	6101db15d4eefc0ed011e3c3	663557747	1	main_slash	7	advance_on_keypress_SLASH	80	stimuli_target_circlediamonds.svg	stimuli_distractor_trianglediamonds.svg	2	yes	57	0	651
6.6.1	mac	2022-12-28	15:50:33	15:55:53	319330	6101db15d4eefc0ed011e3c3	663557747	1	main_slash	7	main_slash	81	stimuli_target_circletriangles.svg	stimuli_distractor_diamondtriangles.svg	5	yes	53	1	1183
6.6.1	mac	2022-12-28	15:50:33	15:55:53	319330	6101db15d4eefc0ed011e3c3	663557747	1	main_slash	7	advance_on_keypress_SLASH	82	stimuli_target_circletriangles.svg	stimuli_distractor_diamondtriangles.svg	5	yes	57	0	1235
6.6.1	mac	2022-12-28	15:50:33	15:55:56	322121	6101db15d4eefc0ed011e3c3	663557747	1	main_slash	7	main_slash	83	stimuli_distractor_diamondtriangles.svg	stimuli_target_circlediamonds.svg	14	yes	53	1	924
6.6.1	mac	2022-12-28	15:50:33	15:55:56	322121	6101db15d4eefc0ed011e3c3	663557747	1	main_slash	7	advance_on_keypress_SLASH	84	stimuli_distractor_diamondtriangles.svg	stimuli_target_circlediamonds.svg	14	yes	57	0	473
6.6.1	mac	2022-12-28	15:50:33	15:55:58	324390	6101db15d4eefc0ed011e3c3	663557747	1	main_slash	7	main_slash	85	stimuli_target_trianglesquares.svg	stimuli_distractor_diamondtriangles.svg	22	yes	53	1	1176
6.6.1	mac	2022-12-28	15:50:33	15:55:58	324390	6101db15d4eefc0ed011e3c3	663557747	1	main_slash	7	advance_on_keypress_SLASH	86	stimuli_target_trianglesquares.svg	stimuli_distractor_diamondtriangles.svg	22	yes	57	0	383
6.6.1	mac	2022-12-28	15:50:33	15:56:00	326485	6101db15d4eefc0ed011e3c3	663557747	1	main_slash	7	main_slash	87	stimuli_distractor_trianglediamonds.svg	stimuli_target_circletriangles.svg	9	yes	53	1	1088
6.6.1	mac	2022-12-28	15:50:33	15:56:00	326485	6101db15d4eefc0ed011e3c3	663557747	1	main_slash	7	advance_on_keypress_SLASH	88	stimuli_distractor_trianglediamonds.svg	stimuli_target_circletriangles.svg	9	yes	57	0	310
6.6.1	mac	2022-12-28	15:50:33	15:56:03	328982	6101db15d4eefc0ed011e3c3	663557747	1	main_slash	7	main_slash	89	stimuli_distractor_trianglediamonds.svg	stimuli_distractor_trianglediamonds.svg	33	no	53	0	1568
6.6.1	mac	2022-12-28	15:50:33	15:56:03	328982	6101db15d4eefc0ed011e3c3	663557747	1	main_slash	7	advance_on_keypress_SLASH	90	stimuli_distractor_trianglediamonds.svg	stimuli_distractor_trianglediamonds.svg	33	no	57	0	503
6.6.1	mac	2022-12-28	15:50:33	15:56:05	330667	6101db15d4eefc0ed011e3c3	663557747	1	main_slash	7	main_slash	91	stimuli_target_trianglecircles.svg	stimuli_distractor_trianglediamonds.svg	17	yes	53	1	555
6.6.1	mac	2022-12-28	15:50:33	15:56:05	330667	6101db15d4eefc0ed011e3c3	663557747	1	main_slash	7	advance_on_keypress_SLASH	92	stimuli_target_trianglecircles.svg	stimuli_distractor_trianglediamonds.svg	17	yes	57	0	557
6.6.1	mac	2022-12-28	15:50:33	15:56:08	333846	6101db15d4eefc0ed011e3c3	663557747	1	main_slash	7	main_slash	93	stimuli_distractor_trianglediamonds.svg	stimuli_distractor_diamondtriangles.svg	35	no	0	1	2000
6.6.1	mac	2022-12-28	15:50:33	15:56:08	333846	6101db15d4eefc0ed011e3c3	663557747	1	main_slash	7	advance_on_keypress_SLASH	94	stimuli_distractor_trianglediamonds.svg	stimuli_distractor_diamondtriangles.svg	35	no	57	0	424
6.6.1	mac	2022-12-28	15:50:33	15:56:10	335776	6101db15d4eefc0ed011e3c3	663557747	1	main_slash	7	main_slash	95	stimuli_target_squaretriangles.svg	stimuli_distractor_diamondtriangles.svg	7	yes	53	1	878
6.6.1	mac	2022-12-28	15:50:33	15:56:10	335776	6101db15d4eefc0ed011e3c3	663557747	1	main_slash	7	advance_on_keypress_SLASH	96	stimuli_target_squaretriangles.svg	stimuli_distractor_diamondtriangles.svg	7	yes	57	0	447
6.6.1	mac	2022-12-28	15:50:33	15:56:12	337622	6101db15d4eefc0ed011e3c3	663557747	1	main_slash	7	main_slash	97	stimuli_target_diamondcircles.svg	stimuli_distractor_trianglediamonds.svg	19	yes	53	1	759
6.6.1	mac	2022-12-28	15:50:33	15:56:12	337622	6101db15d4eefc0ed011e3c3	663557747	1	main_slash	7	advance_on_keypress_SLASH	98	stimuli_target_diamondcircles.svg	stimuli_distractor_trianglediamonds.svg	19	yes	57	0	539
6.6.1	mac	2022-12-28	15:50:33	15:56:14	339863	6101db15d4eefc0ed011e3c3	663557747	1	main_slash	7	main_slash	99	stimuli_distractor_trianglediamonds.svg	stimuli_target_diamondcircles.svg	27	yes	53	1	1083
6.6.1	mac	2022-12-28	15:50:33	15:56:14	339863	6101db15d4eefc0ed011e3c3	663557747	1	main_slash	7	advance_on_keypress_SLASH	100	stimuli_distractor_trianglediamonds.svg	stimuli_target_diamondcircles.svg	27	yes	57	0	350
6.6.1	mac	2022-12-28	15:50:33	15:56:16	341845	6101db15d4eefc0ed011e3c3	663557747	1	main_slash	7	main_slash	101	stimuli_distractor_trianglediamonds.svg	stimuli_target_squaretriangles.svg	11	yes	53	1	998
6.6.1	mac	2022-12-28	15:50:33	15:56:16	341845	6101db15d4eefc0ed011e3c3	663557747	1	main_slash	7	advance_on_keypress_SLASH	102	stimuli_distractor_trianglediamonds.svg	stimuli_target_squaretriangles.svg	11	yes	57	0	337
6.6.1	mac	2022-12-28	15:50:33	15:56:18	343951	6101db15d4eefc0ed011e3c3	663557747	1	main_slash	7	main_slash	103	stimuli_distractor_trianglediamonds.svg	stimuli_target_circlediamonds.svg	10	yes	53	1	1137
6.6.1	mac	2022-12-28	15:50:33	15:56:18	343951	6101db15d4eefc0ed011e3c3	663557747	1	main_slash	7	advance_on_keypress_SLASH	104	stimuli_distractor_trianglediamonds.svg	stimuli_target_circlediamonds.svg	10	yes	57	0	392
6.6.1	mac	2022-12-28	15:50:33	15:56:20	346318	6101db15d4eefc0ed011e3c3	663557747	1	main_slash	7	main_slash	105	stimuli_distractor_diamondtriangles.svg	stimuli_target_squaretriangles.svg	15	yes	53	1	1354
6.6.1	mac	2022-12-28	15:50:33	15:56:20	346318	6101db15d4eefc0ed011e3c3	663557747	1	main_slash	7	advance_on_keypress_SLASH	106	stimuli_distractor_diamondtriangles.svg	stimuli_target_squaretriangles.svg	15	yes	57	0	338
6.6.1	mac	2022-12-28	15:50:33	15:56:22	348342	6101db15d4eefc0ed011e3c3	663557747	1	main_slash	7	main_slash	107	stimuli_distractor_trianglediamonds.svg	stimuli_target_trianglecircles.svg	25	yes	53	1	1063
6.6.1	mac	2022-12-28	15:50:33	15:56:22	348342	6101db15d4eefc0ed011e3c3	663557747	1	main_slash	7	advance_on_keypress_SLASH	108	stimuli_distractor_trianglediamonds.svg	stimuli_target_trianglecircles.svg	25	yes	57	0	327
6.6.1	mac	2022-12-28	15:50:33	15:56:25	351296	6101db15d4eefc0ed011e3c3	663557747	1	main_slash	7	main_slash	109	stimuli_distractor_trianglediamonds.svg	stimuli_target_diamondsquares.svg	28	yes	0	0	2000
6.6.1	mac	2022-12-28	15:50:33	15:56:25	351296	6101db15d4eefc0ed011e3c3	663557747	1	main_slash	7	advance_on_keypress_SLASH	110	stimuli_distractor_trianglediamonds.svg	stimuli_target_diamondsquares.svg	28	yes	57	0	290
6.6.1	mac	2022-12-28	15:50:33	15:56:28	354213	6101db15d4eefc0ed011e3c3	663557747	1	main_slash	7	main_slash	111	stimuli_distractor_diamondtriangles.svg	stimuli_distractor_trianglediamonds.svg	38	no	0	1	2000
6.6.1	mac	2022-12-28	15:50:33	15:56:28	354213	6101db15d4eefc0ed011e3c3	663557747	1	main_slash	7	advance_on_keypress_SLASH	112	stimuli_distractor_diamondtriangles.svg	stimuli_distractor_trianglediamonds.svg	38	no	57	0	704
6.6.1	mac	2022-12-28	15:50:33	15:56:31	356640	6101db15d4eefc0ed011e3c3	663557747	1	main_slash	7	main_slash	113	stimuli_target_trianglecircles.svg	stimuli_distractor_diamondtriangles.svg	21	yes	53	1	1093
6.6.1	mac	2022-12-28	15:50:33	15:56:31	356640	6101db15d4eefc0ed011e3c3	663557747	1	main_slash	7	advance_on_keypress_SLASH	114	stimuli_target_trianglecircles.svg	stimuli_distractor_diamondtriangles.svg	21	yes	57	0	380
6.6.1	mac	2022-12-28	15:50:33	15:56:33	358685	6101db15d4eefc0ed011e3c3	663557747	1	main_slash	7	main_slash	115	stimuli_distractor_diamondtriangles.svg	stimuli_target_squarediamonds.svg	16	yes	53	1	1038
6.6.1	mac	2022-12-28	15:50:33	15:56:33	358685	6101db15d4eefc0ed011e3c3	663557747	1	main_slash	7	advance_on_keypress_SLASH	116	stimuli_distractor_diamondtriangles.svg	stimuli_target_squarediamonds.svg	16	yes	57	0	605
6.6.1	mac	2022-12-28	15:50:33	15:56:35	360871	6101db15d4eefc0ed011e3c3	663557747	1	main_slash	7	main_slash	117	stimuli_distractor_diamondtriangles.svg	stimuli_target_circletriangles.svg	13	yes	53	1	957
6.6.1	mac	2022-12-28	15:50:33	15:56:35	360871	6101db15d4eefc0ed011e3c3	663557747	1	main_slash	7	advance_on_keypress_SLASH	118	stimuli_distractor_diamondtriangles.svg	stimuli_target_circletriangles.svg	13	yes	57	0	467
6.6.1	mac	2022-12-28	15:50:33	15:56:38	363963	6101db15d4eefc0ed011e3c3	663557747	1	main_slash	7	main_slash	119	stimuli_target_diamondsquares.svg	stimuli_distractor_trianglediamonds.svg	20	yes	0	0	2000
6.6.1	mac	2022-12-28	15:50:33	15:56:38	363963	6101db15d4eefc0ed011e3c3	663557747	1	main_slash	7	advance_on_keypress_SLASH	120	stimuli_target_diamondsquares.svg	stimuli_distractor_trianglediamonds.svg	20	yes	57	0	247
6.6.1	mac	2022-12-28	15:50:33	15:56:41	366846	6101db15d4eefc0ed011e3c3	663557747	1	main_slash	7	main_slash	121	stimuli_distractor_diamondtriangles.svg	stimuli_distractor_diamondtriangles.svg	40	no	0	1	2000
6.6.1	mac	2022-12-28	15:50:33	15:56:41	366846	6101db15d4eefc0ed011e3c3	663557747	1	main_slash	7	advance_on_keypress_SLASH	122	stimuli_distractor_diamondtriangles.svg	stimuli_distractor_diamondtriangles.svg	40	no	57	0	325
6.6.1	mac	2022-12-28	15:50:33	15:56:43	368875	6101db15d4eefc0ed011e3c3	663557747	1	main_slash	7	main_slash	123	stimuli_target_trianglesquares.svg	stimuli_distractor_trianglediamonds.svg	18	yes	53	1	1078
6.6.1	mac	2022-12-28	15:50:33	15:56:43	368875	6101db15d4eefc0ed011e3c3	663557747	1	main_slash	7	advance_on_keypress_SLASH	124	stimuli_target_trianglesquares.svg	stimuli_distractor_trianglediamonds.svg	18	yes	57	0	353
6.6.1	mac	2022-12-28	15:50:33	15:56:45	370942	6101db15d4eefc0ed011e3c3	663557747	1	main_slash	7	main_slash	125	stimuli_distractor_diamondtriangles.svg	stimuli_target_trianglesquares.svg	30	yes	53	1	1079
6.6.1	mac	2022-12-28	15:50:33	15:56:45	370942	6101db15d4eefc0ed011e3c3	663557747	1	main_slash	7	advance_on_keypress_SLASH	126	stimuli_distractor_diamondtriangles.svg	stimuli_target_trianglesquares.svg	30	yes	57	0	485
6.6.1	mac	2022-12-28	15:50:33	15:56:48	374063	6101db15d4eefc0ed011e3c3	663557747	1	main_slash	7	main_slash	127	stimuli_distractor_trianglediamonds.svg	stimuli_distractor_trianglediamonds.svg	34	no	0	1	2000
6.6.1	mac	2022-12-28	15:50:33	15:56:48	374063	6101db15d4eefc0ed011e3c3	663557747	1	main_slash	7	advance_on_keypress_SLASH	128	stimuli_distractor_trianglediamonds.svg	stimuli_distractor_trianglediamonds.svg	34	no	57	0	341
6.6.1	mac	2022-12-28	15:50:33	15:56:50	376090	6101db15d4eefc0ed011e3c3	663557747	1	main_slash	7	main_slash	129	stimuli_target_diamondsquares.svg	stimuli_distractor_diamondtriangles.svg	24	yes	53	1	1060
6.6.1	mac	2022-12-28	15:50:33	15:56:50	376090	6101db15d4eefc0ed011e3c3	663557747	1	main_slash	7	advance_on_keypress_SLASH	130	stimuli_target_diamondsquares.svg	stimuli_distractor_diamondtriangles.svg	24	yes	57	0	379
6.6.1	mac	2022-12-28	15:50:33	15:56:52	378195	6101db15d4eefc0ed011e3c3	663557747	1	main_slash	7	main_slash	131	stimuli_target_circletriangles.svg	stimuli_distractor_trianglediamonds.svg	1	yes	53	1	1099
6.6.1	mac	2022-12-28	15:50:33	15:56:52	378195	6101db15d4eefc0ed011e3c3	663557747	1	main_slash	7	advance_on_keypress_SLASH	132	stimuli_target_circletriangles.svg	stimuli_distractor_trianglediamonds.svg	1	yes	57	0	453
6.6.1	mac	2022-12-28	15:50:33	15:56:54	380315	6101db15d4eefc0ed011e3c3	663557747	1	main_slash	7	main_slash	133	stimuli_distractor_diamondtriangles.svg	stimuli_target_diamondsquares.svg	32	yes	53	1	1032
6.6.1	mac	2022-12-28	15:50:33	15:56:54	380315	6101db15d4eefc0ed011e3c3	663557747	1	main_slash	7	advance_on_keypress_SLASH	134	stimuli_distractor_diamondtriangles.svg	stimuli_target_diamondsquares.svg	32	yes	57	0	325
6.6.1	mac	2022-12-28	15:50:33	15:56:56	382417	6101db15d4eefc0ed011e3c3	663557747	1	main_slash	7	main_slash	135	stimuli_target_squarediamonds.svg	stimuli_distractor_trianglediamonds.svg	4	yes	53	1	1137
6.6.1	mac	2022-12-28	15:50:33	15:56:56	382417	6101db15d4eefc0ed011e3c3	663557747	1	main_slash	7	advance_on_keypress_SLASH	136	stimuli_target_squarediamonds.svg	stimuli_distractor_trianglediamonds.svg	4	yes	57	0	2439
6.6.1	mac	2022-12-28	15:50:33	15:57:00	386526	6101db15d4eefc0ed011e3c3	663557747	1	main_slash	7	main_slash	137	stimuli_distractor_diamondtriangles.svg	stimuli_target_trianglecircles.svg	29	yes	53	1	1029
6.6.1	mac	2022-12-28	15:50:33	15:57:00	386526	6101db15d4eefc0ed011e3c3	663557747	1	main_slash	7	advance_on_keypress_SLASH	138	stimuli_distractor_diamondtriangles.svg	stimuli_target_trianglecircles.svg	29	yes	57	0	609
6.6.1	mac	2022-12-28	15:50:33	15:57:03	388917	6101db15d4eefc0ed011e3c3	663557747	1	main_slash	7	main_slash	139	stimuli_target_circlediamonds.svg	stimuli_distractor_diamondtriangles.svg	6	yes	53	1	1155
6.6.1	mac	2022-12-28	15:50:33	15:57:03	388917	6101db15d4eefc0ed011e3c3	663557747	1	main_slash	7	advance_on_keypress_SLASH	140	stimuli_target_circlediamonds.svg	stimuli_distractor_diamondtriangles.svg	6	yes	57	0	459
6.6.1	mac	2022-12-28	15:50:33	15:57:05	391007	6101db15d4eefc0ed011e3c3	663557747	1	main_slash	7	main_slash	141	stimuli_distractor_diamondtriangles.svg	stimuli_target_diamondcircles.svg	31	yes	53	1	994
6.6.1	mac	2022-12-28	15:50:33	15:57:05	391007	6101db15d4eefc0ed011e3c3	663557747	1	main_slash	7	advance_on_keypress_SLASH	142	stimuli_distractor_diamondtriangles.svg	stimuli_target_diamondcircles.svg	31	yes	57	0	394
6.6.1	mac	2022-12-28	15:50:33	15:57:08	394029	6101db15d4eefc0ed011e3c3	663557747	1	main_slash	7	main_slash	143	stimuli_distractor_diamondtriangles.svg	stimuli_distractor_trianglediamonds.svg	37	no	0	1	2000
6.6.1	mac	2022-12-28	15:50:33	15:57:08	394029	6101db15d4eefc0ed011e3c3	663557747	1	main_slash	7	advance_on_keypress_SLASH	144	stimuli_distractor_diamondtriangles.svg	stimuli_distractor_trianglediamonds.svg	37	no	57	0	503
6.6.1	mac	2022-12-28	15:50:33	15:57:10	396242	6101db15d4eefc0ed011e3c3	663557747	1	main_slash	7	main_slash	145	stimuli_target_diamondcircles.svg	stimuli_distractor_diamondtriangles.svg	23	yes	53	1	1079
6.6.1	mac	2022-12-28	15:50:33	15:57:10	396242	6101db15d4eefc0ed011e3c3	663557747	1	main_slash	7	advance_on_keypress_SLASH	146	stimuli_target_diamondcircles.svg	stimuli_distractor_diamondtriangles.svg	23	yes	57	0	439
6.6.1	mac	2022-12-28	15:50:33	15:57:13	399312	6101db15d4eefc0ed011e3c3	663557747	1	main_slash	7	main_slash	147	stimuli_distractor_diamondtriangles.svg	stimuli_distractor_diamondtriangles.svg	39	no	0	1	2000
6.6.1	mac	2022-12-28	15:50:33	15:57:13	399312	6101db15d4eefc0ed011e3c3	663557747	1	main_slash	7	advance_on_keypress_SLASH	148	stimuli_distractor_diamondtriangles.svg	stimuli_distractor_diamondtriangles.svg	39	no	57	0	335
6.6.1	mac	2022-12-28	15:50:33	15:57:16	402280	6101db15d4eefc0ed011e3c3	663557747	1	main_slash	7	main_slash	149	stimuli_distractor_trianglediamonds.svg	stimuli_distractor_diamondtriangles.svg	36	no	0	1	2000
6.6.1	mac	2022-12-28	15:50:33	15:57:16	402280	6101db15d4eefc0ed011e3c3	663557747	1	main_slash	7	advance_on_keypress_SLASH	150	stimuli_distractor_trianglediamonds.svg	stimuli_distractor_diamondtriangles.svg	36	no	57	0	353
6.6.1	mac	2022-12-28	15:50:33	15:57:18	404192	6101db15d4eefc0ed011e3c3	663557747	1	main_slash	7	main_slash	151	stimuli_distractor_trianglediamonds.svg	stimuli_target_squarediamonds.svg	12	yes	53	1	929
6.6.1	mac	2022-12-28	15:50:33	15:57:18	404192	6101db15d4eefc0ed011e3c3	663557747	1	main_slash	7	advance_on_keypress_SLASH	152	stimuli_distractor_trianglediamonds.svg	stimuli_target_squarediamonds.svg	12	yes	57	0	268
6.6.1	mac	2022-12-28	15:50:33	15:57:20	406147	6101db15d4eefc0ed011e3c3	663557747	1	main_slash	7	main_slash	153	stimuli_target_squaretriangles.svg	stimuli_distractor_trianglediamonds.svg	3	yes	53	1	1050
6.6.1	mac	2022-12-28	15:50:33	15:57:20	406147	6101db15d4eefc0ed011e3c3	663557747	1	main_slash	7	advance_on_keypress_SLASH	154	stimuli_target_squaretriangles.svg	stimuli_distractor_trianglediamonds.svg	3	yes	57	0	359
6.6.1	mac	2022-12-28	15:50:33	15:57:22	408077	6101db15d4eefc0ed011e3c3	663557747	1	main_slash	7	main_slash	155	stimuli_target_squarediamonds.svg	stimuli_distractor_diamondtriangles.svg	8	yes	53	1	947
6.6.1	mac	2022-12-28	15:50:33	15:57:22	408077	6101db15d4eefc0ed011e3c3	663557747	1	main_slash	7	advance_on_keypress_SLASH	156	stimuli_target_squarediamonds.svg	stimuli_distractor_diamondtriangles.svg	8	yes	57	0	288
6.6.1	mac	2022-12-28	15:50:33	15:57:24	410030	6101db15d4eefc0ed011e3c3	663557747	1	main_slash	7	main_slash	157	stimuli_distractor_trianglediamonds.svg	stimuli_target_trianglesquares.svg	26	yes	53	1	1034
6.6.1	mac	2022-12-28	15:50:33	15:57:24	410030	6101db15d4eefc0ed011e3c3	663557747	1	main_slash	7	advance_on_keypress_SLASH	158	stimuli_distractor_trianglediamonds.svg	stimuli_target_trianglesquares.svg	26	yes	57	0	354
6.6.1	mac	2022-12-28	15:50:33	15:57:26	412068	6101db15d4eefc0ed011e3c3	663557747	1	main_slash	7	main_slash	159	stimuli_target_circlediamonds.svg	stimuli_distractor_trianglediamonds.svg	2	yes	53	1	1055
6.6.1	mac	2022-12-28	15:50:33	15:57:26	412068	6101db15d4eefc0ed011e3c3	663557747	1	main_slash	7	advance_on_keypress_SLASH	160	stimuli_target_circlediamonds.svg	stimuli_distractor_trianglediamonds.svg	2	yes	57	0	442
6.6.1	mac	2022-12-28	15:50:33	15:57:45	430680	6101db15d4eefc0ed011e3c3	663557747	1	practice_z	9	practice_z	1	stimuli_distractor_diamondtriangles.svg	stimuli_target_diamondcircles.svg	8	yes	44	1	981
6.6.1	mac	2022-12-28	15:50:33	15:57:45	430680	6101db15d4eefc0ed011e3c3	663557747	1	practice_z	9	advance_on_keypress_ZEE	2	stimuli_distractor_diamondtriangles.svg	stimuli_target_diamondcircles.svg	8	yes	57	0	571
6.6.1	mac	2022-12-28	15:50:33	15:57:48	433575	6101db15d4eefc0ed011e3c3	663557747	1	practice_z	9	practice_z	3	stimuli_target_diamondsquares.svg	stimuli_distractor_diamondtriangles.svg	3	yes	44	1	695
6.6.1	mac	2022-12-28	15:50:33	15:57:48	433575	6101db15d4eefc0ed011e3c3	663557747	1	practice_z	9	advance_on_keypress_ZEE	4	stimuli_target_diamondsquares.svg	stimuli_distractor_diamondtriangles.svg	3	yes	57	0	1657
6.6.1	mac	2022-12-28	15:50:33	15:57:53	438863	6101db15d4eefc0ed011e3c3	663557747	1	practice_z	9	practice_z	5	stimuli_distractor_diamondtriangles.svg	stimuli_distractor_diamondtriangles.svg	13	no	0	1	2000
6.6.1	mac	2022-12-28	15:50:33	15:57:53	438863	6101db15d4eefc0ed011e3c3	663557747	1	practice_z	9	advance_on_keypress_ZEE	6	stimuli_distractor_diamondtriangles.svg	stimuli_distractor_diamondtriangles.svg	13	no	57	0	290
6.6.1	mac	2022-12-28	15:50:33	15:57:55	441396	6101db15d4eefc0ed011e3c3	663557747	1	practice_z	9	practice_z	7	stimuli_distractor_trianglediamonds.svg	stimuli_target_circlediamonds.svg	10	yes	44	1	616
6.6.1	mac	2022-12-28	15:50:33	15:57:55	441396	6101db15d4eefc0ed011e3c3	663557747	1	practice_z	9	advance_on_keypress_ZEE	8	stimuli_distractor_trianglediamonds.svg	stimuli_target_circlediamonds.svg	10	yes	57	0	592
6.6.1	mac	2022-12-28	15:50:33	15:57:58	444215	6101db15d4eefc0ed011e3c3	663557747	1	practice_z	9	practice_z	9	stimuli_target_circlediamonds.svg	stimuli_distractor_trianglediamonds.svg	4	yes	44	1	602
6.6.1	mac	2022-12-28	15:50:33	15:57:58	444215	6101db15d4eefc0ed011e3c3	663557747	1	practice_z	9	advance_on_keypress_ZEE	10	stimuli_target_circlediamonds.svg	stimuli_distractor_trianglediamonds.svg	4	yes	57	0	462
6.6.1	mac	2022-12-28	15:50:33	15:58:01	447290	6101db15d4eefc0ed011e3c3	663557747	1	practice_z	9	practice_z	11	stimuli_distractor_trianglediamonds.svg	stimuli_target_diamondcircles.svg	12	yes	44	1	976
6.6.1	mac	2022-12-28	15:50:33	15:58:01	447290	6101db15d4eefc0ed011e3c3	663557747	1	practice_z	9	advance_on_keypress_ZEE	12	stimuli_distractor_trianglediamonds.svg	stimuli_target_diamondcircles.svg	12	yes	57	0	500
6.6.1	mac	2022-12-28	15:50:33	15:58:04	450327	6101db15d4eefc0ed011e3c3	663557747	1	practice_z	9	practice_z	13	stimuli_target_diamondsquares.svg	stimuli_distractor_trianglediamonds.svg	6	yes	44	1	913
6.6.1	mac	2022-12-28	15:50:33	15:58:04	450327	6101db15d4eefc0ed011e3c3	663557747	1	practice_z	9	advance_on_keypress_ZEE	14	stimuli_target_diamondsquares.svg	stimuli_distractor_trianglediamonds.svg	6	yes	57	0	226
6.6.1	mac	2022-12-28	15:50:33	15:58:07	452686	6101db15d4eefc0ed011e3c3	663557747	1	practice_z	9	practice_z	15	stimuli_distractor_diamondtriangles.svg	stimuli_target_circletriangles.svg	7	yes	44	1	505
6.6.1	mac	2022-12-28	15:50:33	15:58:07	452686	6101db15d4eefc0ed011e3c3	663557747	1	practice_z	9	advance_on_keypress_ZEE	16	stimuli_distractor_diamondtriangles.svg	stimuli_target_circletriangles.svg	7	yes	57	0	234
6.6.1	mac	2022-12-28	15:50:33	15:58:11	456548	6101db15d4eefc0ed011e3c3	663557747	1	practice_z	9	practice_z	17	stimuli_distractor_trianglediamonds.svg	stimuli_distractor_diamondtriangles.svg	16	no	0	1	2000
6.6.1	mac	2022-12-28	15:50:33	15:58:11	456548	6101db15d4eefc0ed011e3c3	663557747	1	practice_z	9	advance_on_keypress_ZEE	18	stimuli_distractor_trianglediamonds.svg	stimuli_distractor_diamondtriangles.svg	16	no	57	0	468
6.6.1	mac	2022-12-28	15:50:33	15:58:13	459355	6101db15d4eefc0ed011e3c3	663557747	1	practice_z	9	practice_z	19	stimuli_target_squarediamonds.svg	stimuli_distractor_diamondtriangles.svg	2	yes	44	1	707
6.6.1	mac	2022-12-28	15:50:33	15:58:13	459355	6101db15d4eefc0ed011e3c3	663557747	1	practice_z	9	advance_on_keypress_ZEE	20	stimuli_target_squarediamonds.svg	stimuli_distractor_diamondtriangles.svg	2	yes	57	0	330
6.6.1	mac	2022-12-28	15:50:33	15:58:17	463322	6101db15d4eefc0ed011e3c3	663557747	1	practice_z	9	practice_z	21	stimuli_distractor_diamondtriangles.svg	stimuli_distractor_trianglediamonds.svg	14	no	0	1	2000
6.6.1	mac	2022-12-28	15:50:33	15:58:17	463322	6101db15d4eefc0ed011e3c3	663557747	1	practice_z	9	advance_on_keypress_ZEE	22	stimuli_distractor_diamondtriangles.svg	stimuli_distractor_trianglediamonds.svg	14	no	57	0	805
6.6.1	mac	2022-12-28	15:50:33	15:58:20	466399	6101db15d4eefc0ed011e3c3	663557747	1	practice_z	9	practice_z	23	stimuli_distractor_trianglediamonds.svg	stimuli_target_squarediamonds.svg	11	yes	44	1	651
6.6.1	mac	2022-12-28	15:50:33	15:58:20	466399	6101db15d4eefc0ed011e3c3	663557747	1	practice_z	9	advance_on_keypress_ZEE	24	stimuli_distractor_trianglediamonds.svg	stimuli_target_squarediamonds.svg	11	yes	57	0	331
6.6.1	mac	2022-12-28	15:50:33	15:58:23	468941	6101db15d4eefc0ed011e3c3	663557747	1	practice_z	9	practice_z	25	stimuli_target_circlediamonds.svg	stimuli_distractor_diamondtriangles.svg	1	yes	44	1	579
6.6.1	mac	2022-12-28	15:50:33	15:58:23	468941	6101db15d4eefc0ed011e3c3	663557747	1	practice_z	9	advance_on_keypress_ZEE	26	stimuli_target_circlediamonds.svg	stimuli_distractor_diamondtriangles.svg	1	yes	57	0	272
6.6.1	mac	2022-12-28	15:50:33	15:58:25	471344	6101db15d4eefc0ed011e3c3	663557747	1	practice_z	9	practice_z	27	stimuli_distractor_diamondtriangles.svg	stimuli_target_trianglecircles.svg	9	yes	44	1	498
6.6.1	mac	2022-12-28	15:50:33	15:58:25	471344	6101db15d4eefc0ed011e3c3	663557747	1	practice_z	9	advance_on_keypress_ZEE	28	stimuli_distractor_diamondtriangles.svg	stimuli_target_trianglecircles.svg	9	yes	57	0	357
6.6.1	mac	2022-12-28	15:50:33	15:58:28	473802	6101db15d4eefc0ed011e3c3	663557747	1	practice_z	9	practice_z	29	stimuli_target_squarediamonds.svg	stimuli_distractor_trianglediamonds.svg	5	yes	44	1	472
6.6.1	mac	2022-12-28	15:50:33	15:58:28	473802	6101db15d4eefc0ed011e3c3	663557747	1	practice_z	9	advance_on_keypress_ZEE	30	stimuli_target_squarediamonds.svg	stimuli_distractor_trianglediamonds.svg	5	yes	57	0	384
6.6.1	mac	2022-12-28	15:50:33	15:58:32	477814	6101db15d4eefc0ed011e3c3	663557747	1	practice_z	9	practice_z	31	stimuli_distractor_trianglediamonds.svg	stimuli_distractor_trianglediamonds.svg	15	no	0	1	2000
6.6.1	mac	2022-12-28	15:50:33	15:58:32	477814	6101db15d4eefc0ed011e3c3	663557747	1	practice_z	9	advance_on_keypress_ZEE	32	stimuli_distractor_trianglediamonds.svg	stimuli_distractor_trianglediamonds.svg	15	no	57	0	538
6.6.1	mac	2022-12-28	15:50:33	15:58:35	481361	6101db15d4eefc0ed011e3c3	663557747	1	main_z	11	main_z	1	stimuli_target_squarediamonds.svg	stimuli_distractor_diamondtriangles.svg	8	yes	44	1	516
6.6.1	mac	2022-12-28	15:50:33	15:58:35	481361	6101db15d4eefc0ed011e3c3	663557747	1	main_z	11	advance_on_keypress_ZEE	2	stimuli_target_squarediamonds.svg	stimuli_distractor_diamondtriangles.svg	8	yes	57	0	1234
6.6.1	mac	2022-12-28	15:50:33	15:58:38	483791	6101db15d4eefc0ed011e3c3	663557747	1	main_z	11	main_z	3	stimuli_distractor_diamondtriangles.svg	stimuli_target_diamondsquares.svg	32	yes	44	1	562
6.6.1	mac	2022-12-28	15:50:33	15:58:38	483791	6101db15d4eefc0ed011e3c3	663557747	1	main_z	11	advance_on_keypress_ZEE	4	stimuli_distractor_diamondtriangles.svg	stimuli_target_diamondsquares.svg	32	yes	57	0	555
6.6.1	mac	2022-12-28	15:50:33	15:58:41	486979	6101db15d4eefc0ed011e3c3	663557747	1	main_z	11	main_z	5	stimuli_distractor_trianglediamonds.svg	stimuli_distractor_trianglediamonds.svg	33	no	0	1	2000
6.6.1	mac	2022-12-28	15:50:33	15:58:41	486979	6101db15d4eefc0ed011e3c3	663557747	1	main_z	11	advance_on_keypress_ZEE	6	stimuli_distractor_trianglediamonds.svg	stimuli_distractor_trianglediamonds.svg	33	no	57	0	512
6.6.1	mac	2022-12-28	15:50:33	15:58:44	490130	6101db15d4eefc0ed011e3c3	663557747	1	main_z	11	main_z	7	stimuli_target_diamondsquares.svg	stimuli_distractor_trianglediamonds.svg	20	yes	0	0	2000
6.6.1	mac	2022-12-28	15:50:33	15:58:44	490130	6101db15d4eefc0ed011e3c3	663557747	1	main_z	11	advance_on_keypress_ZEE	8	stimuli_target_diamondsquares.svg	stimuli_distractor_trianglediamonds.svg	20	yes	57	0	394
6.6.1	mac	2022-12-28	15:50:33	15:58:46	491907	6101db15d4eefc0ed011e3c3	663557747	1	main_z	11	main_z	9	stimuli_distractor_diamondtriangles.svg	stimuli_target_diamondcircles.svg	31	yes	44	1	744
6.6.1	mac	2022-12-28	15:50:33	15:58:46	491907	6101db15d4eefc0ed011e3c3	663557747	1	main_z	11	advance_on_keypress_ZEE	10	stimuli_distractor_diamondtriangles.svg	stimuli_target_diamondcircles.svg	31	yes	57	0	366
6.6.1	mac	2022-12-28	15:50:33	15:58:48	493561	6101db15d4eefc0ed011e3c3	663557747	1	main_z	11	main_z	11	stimuli_target_circlediamonds.svg	stimuli_distractor_trianglediamonds.svg	2	yes	44	1	648
6.6.1	mac	2022-12-28	15:50:33	15:58:48	493561	6101db15d4eefc0ed011e3c3	663557747	1	main_z	11	advance_on_keypress_ZEE	12	stimuli_target_circlediamonds.svg	stimuli_distractor_trianglediamonds.svg	2	yes	57	0	420
6.6.1	mac	2022-12-28	15:50:33	15:58:49	495139	6101db15d4eefc0ed011e3c3	663557747	1	main_z	11	main_z	13	stimuli_distractor_trianglediamonds.svg	stimuli_target_circletriangles.svg	9	yes	44	1	527
6.6.1	mac	2022-12-28	15:50:33	15:58:49	495139	6101db15d4eefc0ed011e3c3	663557747	1	main_z	11	advance_on_keypress_ZEE	14	stimuli_distractor_trianglediamonds.svg	stimuli_target_circletriangles.svg	9	yes	57	0	471
6.6.1	mac	2022-12-28	15:50:33	15:58:51	496930	6101db15d4eefc0ed011e3c3	663557747	1	main_z	11	main_z	15	stimuli_target_trianglesquares.svg	stimuli_distractor_diamondtriangles.svg	22	yes	44	1	701
6.6.1	mac	2022-12-28	15:50:33	15:58:51	496930	6101db15d4eefc0ed011e3c3	663557747	1	main_z	11	advance_on_keypress_ZEE	16	stimuli_target_trianglesquares.svg	stimuli_distractor_diamondtriangles.svg	22	yes	57	0	548
6.6.1	mac	2022-12-28	15:50:33	15:58:53	498616	6101db15d4eefc0ed011e3c3	663557747	1	main_z	11	main_z	17	stimuli_target_diamondcircles.svg	stimuli_distractor_diamondtriangles.svg	23	yes	44	1	502
6.6.1	mac	2022-12-28	15:50:33	15:58:53	498616	6101db15d4eefc0ed011e3c3	663557747	1	main_z	11	advance_on_keypress_ZEE	18	stimuli_target_diamondcircles.svg	stimuli_distractor_diamondtriangles.svg	23	yes	57	0	506
6.6.1	mac	2022-12-28	15:50:33	15:58:54	500236	6101db15d4eefc0ed011e3c3	663557747	1	main_z	11	main_z	19	stimuli_target_circletriangles.svg	stimuli_distractor_trianglediamonds.svg	1	yes	44	1	490
6.6.1	mac	2022-12-28	15:50:33	15:58:54	500236	6101db15d4eefc0ed011e3c3	663557747	1	main_z	11	advance_on_keypress_ZEE	20	stimuli_target_circletriangles.svg	stimuli_distractor_trianglediamonds.svg	1	yes	57	0	378
6.6.1	mac	2022-12-28	15:50:33	15:58:56	502305	6101db15d4eefc0ed011e3c3	663557747	1	main_z	11	main_z	21	stimuli_distractor_diamondtriangles.svg	stimuli_target_squaretriangles.svg	15	yes	44	1	1076
6.6.1	mac	2022-12-28	15:50:33	15:58:56	502305	6101db15d4eefc0ed011e3c3	663557747	1	main_z	11	advance_on_keypress_ZEE	22	stimuli_distractor_diamondtriangles.svg	stimuli_target_squaretriangles.svg	15	yes	57	0	1986
6.6.1	mac	2022-12-28	15:50:33	15:58:59	505471	6101db15d4eefc0ed011e3c3	663557747	1	main_z	11	main_z	23	stimuli_distractor_trianglediamonds.svg	stimuli_target_trianglecircles.svg	25	yes	44	1	557
6.6.1	mac	2022-12-28	15:50:33	15:58:59	505471	6101db15d4eefc0ed011e3c3	663557747	1	main_z	11	advance_on_keypress_ZEE	24	stimuli_distractor_trianglediamonds.svg	stimuli_target_trianglecircles.svg	25	yes	57	0	692
6.6.1	mac	2022-12-28	15:50:33	15:59:01	507243	6101db15d4eefc0ed011e3c3	663557747	1	main_z	11	main_z	25	stimuli_target_squarediamonds.svg	stimuli_distractor_trianglediamonds.svg	4	yes	44	1	446
6.6.1	mac	2022-12-28	15:50:33	15:59:01	507243	6101db15d4eefc0ed011e3c3	663557747	1	main_z	11	advance_on_keypress_ZEE	26	stimuli_target_squarediamonds.svg	stimuli_distractor_trianglediamonds.svg	4	yes	57	0	552
6.6.1	mac	2022-12-28	15:50:33	15:59:03	508815	6101db15d4eefc0ed011e3c3	663557747	1	main_z	11	main_z	27	stimuli_distractor_trianglediamonds.svg	stimuli_target_circlediamonds.svg	10	yes	44	1	384
6.6.1	mac	2022-12-28	15:50:33	15:59:03	508815	6101db15d4eefc0ed011e3c3	663557747	1	main_z	11	advance_on_keypress_ZEE	28	stimuli_distractor_trianglediamonds.svg	stimuli_target_circlediamonds.svg	10	yes	57	0	570
6.6.1	mac	2022-12-28	15:50:33	15:59:06	512013	6101db15d4eefc0ed011e3c3	663557747	1	main_z	11	main_z	29	stimuli_distractor_diamondtriangles.svg	stimuli_distractor_trianglediamonds.svg	38	no	0	1	2000
6.6.1	mac	2022-12-28	15:50:33	15:59:06	512013	6101db15d4eefc0ed011e3c3	663557747	1	main_z	11	advance_on_keypress_ZEE	30	stimuli_distractor_diamondtriangles.svg	stimuli_distractor_trianglediamonds.svg	38	no	57	0	582
6.6.1	mac	2022-12-28	15:50:33	15:59:08	513689	6101db15d4eefc0ed011e3c3	663557747	1	main_z	11	main_z	31	stimuli_distractor_diamondtriangles.svg	stimuli_target_circletriangles.svg	13	yes	44	1	460
6.6.1	mac	2022-12-28	15:50:33	15:59:08	513689	6101db15d4eefc0ed011e3c3	663557747	1	main_z	11	advance_on_keypress_ZEE	32	stimuli_distractor_diamondtriangles.svg	stimuli_target_circletriangles.svg	13	yes	57	0	435
6.6.1	mac	2022-12-28	15:50:33	15:59:09	515127	6101db15d4eefc0ed011e3c3	663557747	1	main_z	11	main_z	33	stimuli_distractor_diamondtriangles.svg	stimuli_target_circlediamonds.svg	14	yes	44	1	381
6.6.1	mac	2022-12-28	15:50:33	15:59:09	515127	6101db15d4eefc0ed011e3c3	663557747	1	main_z	11	advance_on_keypress_ZEE	34	stimuli_distractor_diamondtriangles.svg	stimuli_target_circlediamonds.svg	14	yes	57	0	358
6.6.1	mac	2022-12-28	15:50:33	15:59:11	516594	6101db15d4eefc0ed011e3c3	663557747	1	main_z	11	main_z	35	stimuli_target_diamondcircles.svg	stimuli_distractor_trianglediamonds.svg	19	yes	44	1	481
6.6.1	mac	2022-12-28	15:50:33	15:59:11	516594	6101db15d4eefc0ed011e3c3	663557747	1	main_z	11	advance_on_keypress_ZEE	36	stimuli_target_diamondcircles.svg	stimuli_distractor_trianglediamonds.svg	19	yes	57	0	347
6.6.1	mac	2022-12-28	15:50:33	15:59:12	518096	6101db15d4eefc0ed011e3c3	663557747	1	main_z	11	main_z	37	stimuli_target_trianglecircles.svg	stimuli_distractor_trianglediamonds.svg	17	yes	44	1	518
6.6.1	mac	2022-12-28	15:50:33	15:59:12	518096	6101db15d4eefc0ed011e3c3	663557747	1	main_z	11	advance_on_keypress_ZEE	38	stimuli_target_trianglecircles.svg	stimuli_distractor_trianglediamonds.svg	17	yes	57	0	342
6.6.1	mac	2022-12-28	15:50:33	15:59:14	519752	6101db15d4eefc0ed011e3c3	663557747	1	main_z	11	main_z	39	stimuli_target_circletriangles.svg	stimuli_distractor_diamondtriangles.svg	5	yes	44	1	673
6.6.1	mac	2022-12-28	15:50:33	15:59:14	519752	6101db15d4eefc0ed011e3c3	663557747	1	main_z	11	advance_on_keypress_ZEE	40	stimuli_target_circletriangles.svg	stimuli_distractor_diamondtriangles.svg	5	yes	57	0	443
6.6.1	mac	2022-12-28	15:50:33	15:59:17	522812	6101db15d4eefc0ed011e3c3	663557747	1	main_z	11	main_z	41	stimuli_distractor_trianglediamonds.svg	stimuli_distractor_diamondtriangles.svg	35	no	0	1	2000
6.6.1	mac	2022-12-28	15:50:33	15:59:17	522812	6101db15d4eefc0ed011e3c3	663557747	1	main_z	11	advance_on_keypress_ZEE	42	stimuli_distractor_trianglediamonds.svg	stimuli_distractor_diamondtriangles.svg	35	no	57	0	978
6.6.1	mac	2022-12-28	15:50:33	15:59:19	525009	6101db15d4eefc0ed011e3c3	663557747	1	main_z	11	main_z	43	stimuli_distractor_trianglediamonds.svg	stimuli_target_diamondsquares.svg	28	yes	44	1	579
6.6.1	mac	2022-12-28	15:50:33	15:59:19	525009	6101db15d4eefc0ed011e3c3	663557747	1	main_z	11	advance_on_keypress_ZEE	44	stimuli_distractor_trianglediamonds.svg	stimuli_target_diamondsquares.svg	28	yes	57	0	364
6.6.1	mac	2022-12-28	15:50:33	15:59:20	526502	6101db15d4eefc0ed011e3c3	663557747	1	main_z	11	main_z	45	stimuli_distractor_trianglediamonds.svg	stimuli_target_squaretriangles.svg	11	yes	44	1	489
6.6.1	mac	2022-12-28	15:50:33	15:59:20	526502	6101db15d4eefc0ed011e3c3	663557747	1	main_z	11	advance_on_keypress_ZEE	46	stimuli_distractor_trianglediamonds.svg	stimuli_target_squaretriangles.svg	11	yes	57	0	353
6.6.1	mac	2022-12-28	15:50:33	15:59:22	528414	6101db15d4eefc0ed011e3c3	663557747	1	main_z	11	main_z	47	stimuli_target_circlediamonds.svg	stimuli_distractor_diamondtriangles.svg	6	yes	44	1	934
6.6.1	mac	2022-12-28	15:50:33	15:59:22	528414	6101db15d4eefc0ed011e3c3	663557747	1	main_z	11	advance_on_keypress_ZEE	48	stimuli_target_circlediamonds.svg	stimuli_distractor_diamondtriangles.svg	6	yes	57	0	328
6.6.1	mac	2022-12-28	15:50:33	15:59:24	530307	6101db15d4eefc0ed011e3c3	663557747	1	main_z	11	main_z	49	stimuli_target_trianglecircles.svg	stimuli_distractor_diamondtriangles.svg	21	yes	44	1	944
6.6.1	mac	2022-12-28	15:50:33	15:59:24	530307	6101db15d4eefc0ed011e3c3	663557747	1	main_z	11	advance_on_keypress_ZEE	50	stimuli_target_trianglecircles.svg	stimuli_distractor_diamondtriangles.svg	21	yes	57	0	314
6.6.1	mac	2022-12-28	15:50:33	15:59:26	531931	6101db15d4eefc0ed011e3c3	663557747	1	main_z	11	main_z	51	stimuli_target_squaretriangles.svg	stimuli_distractor_diamondtriangles.svg	7	yes	44	1	668
6.6.1	mac	2022-12-28	15:50:33	15:59:26	531931	6101db15d4eefc0ed011e3c3	663557747	1	main_z	11	advance_on_keypress_ZEE	52	stimuli_target_squaretriangles.svg	stimuli_distractor_diamondtriangles.svg	7	yes	57	0	462
6.6.1	mac	2022-12-28	15:50:33	15:59:28	533728	6101db15d4eefc0ed011e3c3	663557747	1	main_z	11	main_z	53	stimuli_target_trianglesquares.svg	stimuli_distractor_trianglediamonds.svg	18	yes	44	1	699
6.6.1	mac	2022-12-28	15:50:33	15:59:28	533728	6101db15d4eefc0ed011e3c3	663557747	1	main_z	11	advance_on_keypress_ZEE	54	stimuli_target_trianglesquares.svg	stimuli_distractor_trianglediamonds.svg	18	yes	57	0	399
6.6.1	mac	2022-12-28	15:50:33	15:59:31	536763	6101db15d4eefc0ed011e3c3	663557747	1	main_z	11	main_z	55	stimuli_target_squaretriangles.svg	stimuli_distractor_trianglediamonds.svg	3	yes	0	0	2000
6.6.1	mac	2022-12-28	15:50:33	15:59:31	536763	6101db15d4eefc0ed011e3c3	663557747	1	main_z	11	advance_on_keypress_ZEE	56	stimuli_target_squaretriangles.svg	stimuli_distractor_trianglediamonds.svg	3	yes	57	0	1096
6.6.1	mac	2022-12-28	15:50:33	15:59:33	538997	6101db15d4eefc0ed011e3c3	663557747	1	main_z	11	main_z	57	stimuli_distractor_trianglediamonds.svg	stimuli_target_squarediamonds.svg	12	yes	44	1	501
6.6.1	mac	2022-12-28	15:50:33	15:59:33	538997	6101db15d4eefc0ed011e3c3	663557747	1	main_z	11	advance_on_keypress_ZEE	58	stimuli_distractor_trianglediamonds.svg	stimuli_target_squarediamonds.svg	12	yes	57	0	339
6.6.1	mac	2022-12-28	15:50:33	15:59:36	541964	6101db15d4eefc0ed011e3c3	663557747	1	main_z	11	main_z	59	stimuli_distractor_diamondtriangles.svg	stimuli_distractor_diamondtriangles.svg	40	no	0	1	2000
6.6.1	mac	2022-12-28	15:50:33	15:59:36	541964	6101db15d4eefc0ed011e3c3	663557747	1	main_z	11	advance_on_keypress_ZEE	60	stimuli_distractor_diamondtriangles.svg	stimuli_distractor_diamondtriangles.svg	40	no	57	0	787
6.6.1	mac	2022-12-28	15:50:33	15:59:38	543927	6101db15d4eefc0ed011e3c3	663557747	1	main_z	11	main_z	61	stimuli_distractor_diamondtriangles.svg	stimuli_target_squarediamonds.svg	16	yes	44	1	547
6.6.1	mac	2022-12-28	15:50:33	15:59:38	543927	6101db15d4eefc0ed011e3c3	663557747	1	main_z	11	advance_on_keypress_ZEE	62	stimuli_distractor_diamondtriangles.svg	stimuli_target_squarediamonds.svg	16	yes	57	0	552
6.6.1	mac	2022-12-28	15:50:33	15:59:40	545691	6101db15d4eefc0ed011e3c3	663557747	1	main_z	11	main_z	63	stimuli_distractor_trianglediamonds.svg	stimuli_target_trianglesquares.svg	26	yes	44	1	577
6.6.1	mac	2022-12-28	15:50:33	15:59:40	545691	6101db15d4eefc0ed011e3c3	663557747	1	main_z	11	advance_on_keypress_ZEE	64	stimuli_distractor_trianglediamonds.svg	stimuli_target_trianglesquares.svg	26	yes	57	0	388
6.6.1	mac	2022-12-28	15:50:33	15:59:43	548712	6101db15d4eefc0ed011e3c3	663557747	1	main_z	11	main_z	65	stimuli_target_diamondsquares.svg	stimuli_distractor_diamondtriangles.svg	24	yes	0	0	2000
6.6.1	mac	2022-12-28	15:50:33	15:59:43	548712	6101db15d4eefc0ed011e3c3	663557747	1	main_z	11	advance_on_keypress_ZEE	66	stimuli_target_diamondsquares.svg	stimuli_distractor_diamondtriangles.svg	24	yes	57	0	438
6.6.1	mac	2022-12-28	15:50:33	15:59:44	550388	6101db15d4eefc0ed011e3c3	663557747	1	main_z	11	main_z	67	stimuli_distractor_trianglediamonds.svg	stimuli_target_diamondcircles.svg	27	yes	44	1	608
6.6.1	mac	2022-12-28	15:50:33	15:59:44	550388	6101db15d4eefc0ed011e3c3	663557747	1	main_z	11	advance_on_keypress_ZEE	68	stimuli_distractor_trianglediamonds.svg	stimuli_target_diamondcircles.svg	27	yes	57	0	396
6.6.1	mac	2022-12-28	15:50:33	15:59:46	551934	6101db15d4eefc0ed011e3c3	663557747	1	main_z	11	main_z	69	stimuli_distractor_diamondtriangles.svg	stimuli_target_trianglecircles.svg	29	yes	44	1	521
6.6.1	mac	2022-12-28	15:50:33	15:59:46	551934	6101db15d4eefc0ed011e3c3	663557747	1	main_z	11	advance_on_keypress_ZEE	70	stimuli_distractor_diamondtriangles.svg	stimuli_target_trianglecircles.svg	29	yes	57	0	332
6.6.1	mac	2022-12-28	15:50:33	15:59:49	554897	6101db15d4eefc0ed011e3c3	663557747	1	main_z	11	main_z	71	stimuli_distractor_diamondtriangles.svg	stimuli_distractor_diamondtriangles.svg	39	no	0	1	2000
6.6.1	mac	2022-12-28	15:50:33	15:59:49	554897	6101db15d4eefc0ed011e3c3	663557747	1	main_z	11	advance_on_keypress_ZEE	72	stimuli_distractor_diamondtriangles.svg	stimuli_distractor_diamondtriangles.svg	39	no	57	0	491
6.6.1	mac	2022-12-28	15:50:33	15:59:52	558012	6101db15d4eefc0ed011e3c3	663557747	1	main_z	11	main_z	73	stimuli_distractor_trianglediamonds.svg	stimuli_distractor_trianglediamonds.svg	34	no	0	1	2000
6.6.1	mac	2022-12-28	15:50:33	15:59:52	558012	6101db15d4eefc0ed011e3c3	663557747	1	main_z	11	advance_on_keypress_ZEE	74	stimuli_distractor_trianglediamonds.svg	stimuli_distractor_trianglediamonds.svg	34	no	57	0	553
6.6.1	mac	2022-12-28	15:50:33	15:59:55	561196	6101db15d4eefc0ed011e3c3	663557747	1	main_z	11	main_z	75	stimuli_distractor_trianglediamonds.svg	stimuli_distractor_diamondtriangles.svg	36	no	0	1	2000
6.6.1	mac	2022-12-28	15:50:33	15:59:55	561196	6101db15d4eefc0ed011e3c3	663557747	1	main_z	11	advance_on_keypress_ZEE	76	stimuli_distractor_trianglediamonds.svg	stimuli_distractor_diamondtriangles.svg	36	no	57	0	318
6.6.1	mac	2022-12-28	15:50:33	15:59:57	562678	6101db15d4eefc0ed011e3c3	663557747	1	main_z	11	main_z	77	stimuli_distractor_diamondtriangles.svg	stimuli_target_trianglesquares.svg	30	yes	44	1	532
6.6.1	mac	2022-12-28	15:50:33	15:59:57	562678	6101db15d4eefc0ed011e3c3	663557747	1	main_z	11	advance_on_keypress_ZEE	78	stimuli_distractor_diamondtriangles.svg	stimuli_target_trianglesquares.svg	30	yes	57	0	400
6.6.1	mac	2022-12-28	15:50:33	16:00:00	565713	6101db15d4eefc0ed011e3c3	663557747	1	main_z	11	main_z	79	stimuli_distractor_diamondtriangles.svg	stimuli_distractor_trianglediamonds.svg	37	no	0	1	2000
6.6.1	mac	2022-12-28	15:50:33	16:00:00	565713	6101db15d4eefc0ed011e3c3	663557747	1	main_z	11	advance_on_keypress_ZEE	80	stimuli_distractor_diamondtriangles.svg	stimuli_distractor_trianglediamonds.svg	37	no	57	0	550
6.6.1	mac	2022-12-28	15:50:33	16:00:01	567478	6101db15d4eefc0ed011e3c3	663557747	1	main_z	11	main_z	81	stimuli_target_circlediamonds.svg	stimuli_distractor_trianglediamonds.svg	2	yes	44	1	581
6.6.1	mac	2022-12-28	15:50:33	16:00:01	567478	6101db15d4eefc0ed011e3c3	663557747	1	main_z	11	advance_on_keypress_ZEE	82	stimuli_target_circlediamonds.svg	stimuli_distractor_trianglediamonds.svg	2	yes	57	0	444
6.6.1	mac	2022-12-28	15:50:33	16:00:03	569309	6101db15d4eefc0ed011e3c3	663557747	1	main_z	11	main_z	83	stimuli_distractor_trianglediamonds.svg	stimuli_target_diamondsquares.svg	28	yes	44	1	762
6.6.1	mac	2022-12-28	15:50:33	16:00:03	569309	6101db15d4eefc0ed011e3c3	663557747	1	main_z	11	advance_on_keypress_ZEE	84	stimuli_distractor_trianglediamonds.svg	stimuli_target_diamondsquares.svg	28	yes	57	0	497
6.6.1	mac	2022-12-28	15:50:33	16:00:05	570945	6101db15d4eefc0ed011e3c3	663557747	1	main_z	11	main_z	85	stimuli_target_trianglesquares.svg	stimuli_distractor_trianglediamonds.svg	18	yes	44	1	500
6.6.1	mac	2022-12-28	15:50:33	16:00:05	570945	6101db15d4eefc0ed011e3c3	663557747	1	main_z	11	advance_on_keypress_ZEE	86	stimuli_target_trianglesquares.svg	stimuli_distractor_trianglediamonds.svg	18	yes	57	0	376
6.6.1	mac	2022-12-28	15:50:33	16:00:06	572518	6101db15d4eefc0ed011e3c3	663557747	1	main_z	11	main_z	87	stimuli_target_circletriangles.svg	stimuli_distractor_trianglediamonds.svg	1	yes	44	1	570
6.6.1	mac	2022-12-28	15:50:33	16:00:06	572518	6101db15d4eefc0ed011e3c3	663557747	1	main_z	11	advance_on_keypress_ZEE	88	stimuli_target_circletriangles.svg	stimuli_distractor_trianglediamonds.svg	1	yes	57	0	307
6.6.1	mac	2022-12-28	15:50:33	16:00:09	574558	6101db15d4eefc0ed011e3c3	663557747	1	main_z	11	main_z	89	stimuli_distractor_trianglediamonds.svg	stimuli_target_squaretriangles.svg	11	yes	44	1	1095
6.6.1	mac	2022-12-28	15:50:33	16:00:09	574558	6101db15d4eefc0ed011e3c3	663557747	1	main_z	11	advance_on_keypress_ZEE	90	stimuli_distractor_trianglediamonds.svg	stimuli_target_squaretriangles.svg	11	yes	57	0	568
6.6.1	mac	2022-12-28	15:50:33	16:00:10	576497	6101db15d4eefc0ed011e3c3	663557747	1	main_z	11	main_z	91	stimuli_distractor_diamondtriangles.svg	stimuli_target_circlediamonds.svg	14	yes	44	1	734
6.6.1	mac	2022-12-28	15:50:33	16:00:10	576497	6101db15d4eefc0ed011e3c3	663557747	1	main_z	11	advance_on_keypress_ZEE	92	stimuli_distractor_diamondtriangles.svg	stimuli_target_circlediamonds.svg	14	yes	57	0	787
6.6.1	mac	2022-12-28	15:50:33	16:00:12	578450	6101db15d4eefc0ed011e3c3	663557747	1	main_z	11	main_z	93	stimuli_distractor_trianglediamonds.svg	stimuli_target_circlediamonds.svg	10	yes	44	1	538
6.6.1	mac	2022-12-28	15:50:33	16:00:12	578450	6101db15d4eefc0ed011e3c3	663557747	1	main_z	11	advance_on_keypress_ZEE	94	stimuli_distractor_trianglediamonds.svg	stimuli_target_circlediamonds.svg	10	yes	57	0	629
6.6.1	mac	2022-12-28	15:50:33	16:00:14	580460	6101db15d4eefc0ed011e3c3	663557747	1	main_z	11	main_z	95	stimuli_target_trianglesquares.svg	stimuli_distractor_diamondtriangles.svg	22	yes	44	1	748
6.6.1	mac	2022-12-28	15:50:33	16:00:14	580460	6101db15d4eefc0ed011e3c3	663557747	1	main_z	11	advance_on_keypress_ZEE	96	stimuli_target_trianglesquares.svg	stimuli_distractor_diamondtriangles.svg	22	yes	57	0	470
6.6.1	mac	2022-12-28	15:50:33	16:00:16	582161	6101db15d4eefc0ed011e3c3	663557747	1	main_z	11	main_z	97	stimuli_distractor_diamondtriangles.svg	stimuli_target_diamondsquares.svg	32	yes	44	1	599
6.6.1	mac	2022-12-28	15:50:33	16:00:16	582161	6101db15d4eefc0ed011e3c3	663557747	1	main_z	11	advance_on_keypress_ZEE	98	stimuli_distractor_diamondtriangles.svg	stimuli_target_diamondsquares.svg	32	yes	57	0	818
6.6.1	mac	2022-12-28	15:50:33	16:00:18	584140	6101db15d4eefc0ed011e3c3	663557747	1	main_z	11	main_z	99	stimuli_distractor_trianglediamonds.svg	stimuli_target_trianglesquares.svg	26	yes	44	1	528
6.6.1	mac	2022-12-28	15:50:33	16:00:18	584140	6101db15d4eefc0ed011e3c3	663557747	1	main_z	11	advance_on_keypress_ZEE	100	stimuli_distractor_trianglediamonds.svg	stimuli_target_trianglesquares.svg	26	yes	57	0	412
6.6.1	mac	2022-12-28	15:50:33	16:00:21	587180	6101db15d4eefc0ed011e3c3	663557747	1	main_z	11	main_z	101	stimuli_distractor_diamondtriangles.svg	stimuli_distractor_trianglediamonds.svg	38	no	0	1	2000
6.6.1	mac	2022-12-28	15:50:33	16:00:21	587180	6101db15d4eefc0ed011e3c3	663557747	1	main_z	11	advance_on_keypress_ZEE	102	stimuli_distractor_diamondtriangles.svg	stimuli_distractor_trianglediamonds.svg	38	no	57	0	494
6.6.1	mac	2022-12-28	15:50:33	16:00:23	588945	6101db15d4eefc0ed011e3c3	663557747	1	main_z	11	main_z	103	stimuli_distractor_diamondtriangles.svg	stimuli_target_squarediamonds.svg	16	yes	44	1	632
6.6.1	mac	2022-12-28	15:50:33	16:00:23	588945	6101db15d4eefc0ed011e3c3	663557747	1	main_z	11	advance_on_keypress_ZEE	104	stimuli_distractor_diamondtriangles.svg	stimuli_target_squarediamonds.svg	16	yes	57	0	447
6.6.1	mac	2022-12-28	15:50:33	16:00:26	592030	6101db15d4eefc0ed011e3c3	663557747	1	main_z	11	main_z	105	stimuli_distractor_diamondtriangles.svg	stimuli_distractor_trianglediamonds.svg	37	no	0	1	2000
6.6.1	mac	2022-12-28	15:50:33	16:00:26	592030	6101db15d4eefc0ed011e3c3	663557747	1	main_z	11	advance_on_keypress_ZEE	106	stimuli_distractor_diamondtriangles.svg	stimuli_distractor_trianglediamonds.svg	37	no	57	0	464
6.6.1	mac	2022-12-28	15:50:33	16:00:28	593743	6101db15d4eefc0ed011e3c3	663557747	1	main_z	11	main_z	107	stimuli_target_trianglecircles.svg	stimuli_distractor_diamondtriangles.svg	21	yes	44	1	613
6.6.1	mac	2022-12-28	15:50:33	16:00:28	593743	6101db15d4eefc0ed011e3c3	663557747	1	main_z	11	advance_on_keypress_ZEE	108	stimuli_target_trianglecircles.svg	stimuli_distractor_diamondtriangles.svg	21	yes	57	0	334
6.6.1	mac	2022-12-28	15:50:33	16:00:31	596713	6101db15d4eefc0ed011e3c3	663557747	1	main_z	11	main_z	109	stimuli_distractor_trianglediamonds.svg	stimuli_distractor_trianglediamonds.svg	33	no	0	1	2000
6.6.1	mac	2022-12-28	15:50:33	16:00:31	596713	6101db15d4eefc0ed011e3c3	663557747	1	main_z	11	advance_on_keypress_ZEE	110	stimuli_distractor_trianglediamonds.svg	stimuli_distractor_trianglediamonds.svg	33	no	57	0	500
6.6.1	mac	2022-12-28	15:50:33	16:00:34	599847	6101db15d4eefc0ed011e3c3	663557747	1	main_z	11	main_z	111	stimuli_distractor_trianglediamonds.svg	stimuli_distractor_diamondtriangles.svg	35	no	0	1	2000
6.6.1	mac	2022-12-28	15:50:33	16:00:34	599847	6101db15d4eefc0ed011e3c3	663557747	1	main_z	11	advance_on_keypress_ZEE	112	stimuli_distractor_trianglediamonds.svg	stimuli_distractor_diamondtriangles.svg	35	no	57	0	504
6.6.1	mac	2022-12-28	15:50:33	16:00:37	602979	6101db15d4eefc0ed011e3c3	663557747	1	main_z	11	main_z	113	stimuli_target_diamondsquares.svg	stimuli_distractor_trianglediamonds.svg	20	yes	0	0	2000
6.6.1	mac	2022-12-28	15:50:33	16:00:37	602979	6101db15d4eefc0ed011e3c3	663557747	1	main_z	11	advance_on_keypress_ZEE	114	stimuli_target_diamondsquares.svg	stimuli_distractor_trianglediamonds.svg	20	yes	57	0	352
6.6.1	mac	2022-12-28	15:50:33	16:00:38	604442	6101db15d4eefc0ed011e3c3	663557747	1	main_z	11	main_z	115	stimuli_distractor_trianglediamonds.svg	stimuli_target_circletriangles.svg	9	yes	44	1	479
6.6.1	mac	2022-12-28	15:50:33	16:00:38	604442	6101db15d4eefc0ed011e3c3	663557747	1	main_z	11	advance_on_keypress_ZEE	116	stimuli_distractor_trianglediamonds.svg	stimuli_target_circletriangles.svg	9	yes	57	0	478
6.6.1	mac	2022-12-28	15:50:33	16:00:41	607342	6101db15d4eefc0ed011e3c3	663557747	1	main_z	11	main_z	117	stimuli_target_trianglecircles.svg	stimuli_distractor_trianglediamonds.svg	17	yes	44	1	1777
6.6.1	mac	2022-12-28	15:50:33	16:00:41	607342	6101db15d4eefc0ed011e3c3	663557747	1	main_z	11	advance_on_keypress_ZEE	118	stimuli_target_trianglecircles.svg	stimuli_distractor_trianglediamonds.svg	17	yes	57	0	724
6.6.1	mac	2022-12-28	15:50:33	16:00:43	609017	6101db15d4eefc0ed011e3c3	663557747	1	main_z	11	main_z	119	stimuli_target_diamondcircles.svg	stimuli_distractor_diamondtriangles.svg	23	yes	44	1	321
6.6.1	mac	2022-12-28	15:50:33	16:00:43	609017	6101db15d4eefc0ed011e3c3	663557747	1	main_z	11	advance_on_keypress_ZEE	120	stimuli_target_diamondcircles.svg	stimuli_distractor_diamondtriangles.svg	23	yes	57	0	502
6.6.1	mac	2022-12-28	15:50:33	16:00:45	610722	6101db15d4eefc0ed011e3c3	663557747	1	main_z	11	main_z	121	stimuli_target_squaretriangles.svg	stimuli_distractor_trianglediamonds.svg	3	yes	44	1	576
6.6.1	mac	2022-12-28	15:50:33	16:00:45	610722	6101db15d4eefc0ed011e3c3	663557747	1	main_z	11	advance_on_keypress_ZEE	122	stimuli_target_squaretriangles.svg	stimuli_distractor_trianglediamonds.svg	3	yes	57	0	541
6.6.1	mac	2022-12-28	15:50:33	16:00:46	612354	6101db15d4eefc0ed011e3c3	663557747	1	main_z	11	main_z	123	stimuli_distractor_trianglediamonds.svg	stimuli_target_diamondcircles.svg	27	yes	44	1	457
6.6.1	mac	2022-12-28	15:50:33	16:00:46	612354	6101db15d4eefc0ed011e3c3	663557747	1	main_z	11	advance_on_keypress_ZEE	124	stimuli_distractor_trianglediamonds.svg	stimuli_target_diamondcircles.svg	27	yes	57	0	400
6.6.1	mac	2022-12-28	15:50:33	16:00:48	613722	6101db15d4eefc0ed011e3c3	663557747	1	main_z	11	main_z	125	stimuli_target_circlediamonds.svg	stimuli_distractor_diamondtriangles.svg	6	yes	44	1	342
6.6.1	mac	2022-12-28	15:50:33	16:00:48	613722	6101db15d4eefc0ed011e3c3	663557747	1	main_z	11	advance_on_keypress_ZEE	126	stimuli_target_circlediamonds.svg	stimuli_distractor_diamondtriangles.svg	6	yes	57	0	429
6.6.1	mac	2022-12-28	15:50:33	16:00:49	615193	6101db15d4eefc0ed011e3c3	663557747	1	main_z	11	main_z	127	stimuli_target_squarediamonds.svg	stimuli_distractor_diamondtriangles.svg	8	yes	44	1	414
6.6.1	mac	2022-12-28	15:50:33	16:00:49	615193	6101db15d4eefc0ed011e3c3	663557747	1	main_z	11	advance_on_keypress_ZEE	128	stimuli_target_squarediamonds.svg	stimuli_distractor_diamondtriangles.svg	8	yes	57	0	356
6.6.1	mac	2022-12-28	15:50:33	16:00:51	616622	6101db15d4eefc0ed011e3c3	663557747	1	main_z	11	main_z	129	stimuli_target_squaretriangles.svg	stimuli_distractor_diamondtriangles.svg	7	yes	44	1	442
6.6.1	mac	2022-12-28	15:50:33	16:00:51	616622	6101db15d4eefc0ed011e3c3	663557747	1	main_z	11	advance_on_keypress_ZEE	130	stimuli_target_squaretriangles.svg	stimuli_distractor_diamondtriangles.svg	7	yes	57	0	368
6.6.1	mac	2022-12-28	15:50:33	16:00:54	619613	6101db15d4eefc0ed011e3c3	663557747	1	main_z	11	main_z	131	stimuli_distractor_trianglediamonds.svg	stimuli_distractor_trianglediamonds.svg	34	no	0	1	2000
6.6.1	mac	2022-12-28	15:50:33	16:00:54	619613	6101db15d4eefc0ed011e3c3	663557747	1	main_z	11	advance_on_keypress_ZEE	132	stimuli_distractor_trianglediamonds.svg	stimuli_distractor_trianglediamonds.svg	34	no	57	0	358
6.6.1	mac	2022-12-28	15:50:33	16:00:55	621094	6101db15d4eefc0ed011e3c3	663557747	1	main_z	11	main_z	133	stimuli_distractor_diamondtriangles.svg	stimuli_target_trianglesquares.svg	30	yes	44	1	499
6.6.1	mac	2022-12-28	15:50:33	16:00:55	621094	6101db15d4eefc0ed011e3c3	663557747	1	main_z	11	advance_on_keypress_ZEE	134	stimuli_distractor_diamondtriangles.svg	stimuli_target_trianglesquares.svg	30	yes	57	0	437
6.6.1	mac	2022-12-28	15:50:33	16:00:57	622583	6101db15d4eefc0ed011e3c3	663557747	1	main_z	11	main_z	135	stimuli_distractor_trianglediamonds.svg	stimuli_target_trianglecircles.svg	25	yes	44	1	421
6.6.1	mac	2022-12-28	15:50:33	16:00:57	622583	6101db15d4eefc0ed011e3c3	663557747	1	main_z	11	advance_on_keypress_ZEE	136	stimuli_distractor_trianglediamonds.svg	stimuli_target_trianglecircles.svg	25	yes	57	0	403
6.6.1	mac	2022-12-28	15:50:33	16:00:58	624100	6101db15d4eefc0ed011e3c3	663557747	1	main_z	11	main_z	137	stimuli_target_circletriangles.svg	stimuli_distractor_diamondtriangles.svg	5	yes	44	1	487
6.6.1	mac	2022-12-28	15:50:33	16:00:58	624100	6101db15d4eefc0ed011e3c3	663557747	1	main_z	11	advance_on_keypress_ZEE	138	stimuli_target_circletriangles.svg	stimuli_distractor_diamondtriangles.svg	5	yes	57	0	366
6.6.1	mac	2022-12-28	15:50:33	16:01:00	625685	6101db15d4eefc0ed011e3c3	663557747	1	main_z	11	main_z	139	stimuli_target_diamondsquares.svg	stimuli_distractor_diamondtriangles.svg	24	yes	44	1	588
6.6.1	mac	2022-12-28	15:50:33	16:01:00	625685	6101db15d4eefc0ed011e3c3	663557747	1	main_z	11	advance_on_keypress_ZEE	140	stimuli_target_diamondsquares.svg	stimuli_distractor_diamondtriangles.svg	24	yes	57	0	416
6.6.1	mac	2022-12-28	15:50:33	16:01:01	627199	6101db15d4eefc0ed011e3c3	663557747	1	main_z	11	main_z	141	stimuli_distractor_diamondtriangles.svg	stimuli_target_diamondcircles.svg	31	yes	44	1	471
6.6.1	mac	2022-12-28	15:50:33	16:01:01	627199	6101db15d4eefc0ed011e3c3	663557747	1	main_z	11	advance_on_keypress_ZEE	142	stimuli_distractor_diamondtriangles.svg	stimuli_target_diamondcircles.svg	31	yes	57	0	399
6.6.1	mac	2022-12-28	15:50:33	16:01:03	628637	6101db15d4eefc0ed011e3c3	663557747	1	main_z	11	main_z	143	stimuli_distractor_trianglediamonds.svg	stimuli_target_squarediamonds.svg	12	yes	44	1	409
6.6.1	mac	2022-12-28	15:50:33	16:01:03	628637	6101db15d4eefc0ed011e3c3	663557747	1	main_z	11	advance_on_keypress_ZEE	144	stimuli_distractor_trianglediamonds.svg	stimuli_target_squarediamonds.svg	12	yes	57	0	708
6.6.1	mac	2022-12-28	15:50:33	16:01:06	631980	6101db15d4eefc0ed011e3c3	663557747	1	main_z	11	main_z	145	stimuli_distractor_diamondtriangles.svg	stimuli_distractor_diamondtriangles.svg	39	no	0	1	2000
6.6.1	mac	2022-12-28	15:50:33	16:01:06	631980	6101db15d4eefc0ed011e3c3	663557747	1	main_z	11	advance_on_keypress_ZEE	146	stimuli_distractor_diamondtriangles.svg	stimuli_distractor_diamondtriangles.svg	39	no	57	0	361
6.6.1	mac	2022-12-28	15:50:33	16:01:07	633439	6101db15d4eefc0ed011e3c3	663557747	1	main_z	11	main_z	147	stimuli_distractor_diamondtriangles.svg	stimuli_target_circletriangles.svg	13	yes	44	1	459
6.6.1	mac	2022-12-28	15:50:33	16:01:07	633439	6101db15d4eefc0ed011e3c3	663557747	1	main_z	11	advance_on_keypress_ZEE	148	stimuli_distractor_diamondtriangles.svg	stimuli_target_circletriangles.svg	13	yes	57	0	361
6.6.1	mac	2022-12-28	15:50:33	16:01:09	634859	6101db15d4eefc0ed011e3c3	663557747	1	main_z	11	main_z	149	stimuli_distractor_diamondtriangles.svg	stimuli_target_trianglecircles.svg	29	yes	44	1	447
6.6.1	mac	2022-12-28	15:50:33	16:01:09	634859	6101db15d4eefc0ed011e3c3	663557747	1	main_z	11	advance_on_keypress_ZEE	150	stimuli_distractor_diamondtriangles.svg	stimuli_target_trianglecircles.svg	29	yes	57	0	343
6.6.1	mac	2022-12-28	15:50:33	16:01:10	636373	6101db15d4eefc0ed011e3c3	663557747	1	main_z	11	main_z	151	stimuli_target_diamondcircles.svg	stimuli_distractor_trianglediamonds.svg	19	yes	44	1	543
6.6.1	mac	2022-12-28	15:50:33	16:01:10	636373	6101db15d4eefc0ed011e3c3	663557747	1	main_z	11	advance_on_keypress_ZEE	152	stimuli_target_diamondcircles.svg	stimuli_distractor_trianglediamonds.svg	19	yes	57	0	313
6.6.1	mac	2022-12-28	15:50:33	16:01:13	639312	6101db15d4eefc0ed011e3c3	663557747	1	main_z	11	main_z	153	stimuli_distractor_trianglediamonds.svg	stimuli_distractor_diamondtriangles.svg	36	no	0	1	2000
6.6.1	mac	2022-12-28	15:50:33	16:01:13	639312	6101db15d4eefc0ed011e3c3	663557747	1	main_z	11	advance_on_keypress_ZEE	154	stimuli_distractor_trianglediamonds.svg	stimuli_distractor_diamondtriangles.svg	36	no	57	0	394
6.6.1	mac	2022-12-28	15:50:33	16:01:15	640875	6101db15d4eefc0ed011e3c3	663557747	1	main_z	11	main_z	155	stimuli_distractor_diamondtriangles.svg	stimuli_target_squaretriangles.svg	15	yes	44	1	545
6.6.1	mac	2022-12-28	15:50:33	16:01:15	640875	6101db15d4eefc0ed011e3c3	663557747	1	main_z	11	advance_on_keypress_ZEE	156	stimuli_distractor_diamondtriangles.svg	stimuli_target_squaretriangles.svg	15	yes	57	0	362
6.6.1	mac	2022-12-28	15:50:33	16:01:16	642343	6101db15d4eefc0ed011e3c3	663557747	1	main_z	11	main_z	157	stimuli_target_squarediamonds.svg	stimuli_distractor_trianglediamonds.svg	4	yes	44	1	464
6.6.1	mac	2022-12-28	15:50:33	16:01:16	642343	6101db15d4eefc0ed011e3c3	663557747	1	main_z	11	advance_on_keypress_ZEE	158	stimuli_target_squarediamonds.svg	stimuli_distractor_trianglediamonds.svg	4	yes	57	0	340
6.6.1	mac	2022-12-28	15:50:33	16:01:19	645312	6101db15d4eefc0ed011e3c3	663557747	1	main_z	11	main_z	159	stimuli_distractor_diamondtriangles.svg	stimuli_distractor_diamondtriangles.svg	40	no	0	1	2000
6.6.1	mac	2022-12-28	15:50:33	16:01:19	645312	6101db15d4eefc0ed011e3c3	663557747	1	main_z	11	advance_on_keypress_ZEE	160	stimuli_distractor_diamondtriangles.svg	stimuli_distractor_diamondtriangles.svg	40	no	57	0	262