build	computer.platform	date	time	timestamp	time_elapsed_ms	subject	group	session	blockcode	blocknum	trialcode	trialnum	stimulus_left	stimulus_right	stim_index	target_present	response	correct	latency
6.6.1	win	2022-12-15	09:46:16	09:56:08	589784	5c284ae48e845b0001fc40aa	13880952	1	practice_z	5	practice_z	1	stimuli_target_diamondsquares.svg	stimuli_distractor_diamondtriangles.svg	3	yes	0	0	2000
6.6.1	win	2022-12-15	09:46:16	09:56:08	589784	5c284ae48e845b0001fc40aa	13880952	1	practice_z	5	advance_on_keypress_ZEE	2	stimuli_target_diamondsquares.svg	stimuli_distractor_diamondtriangles.svg	3	yes	57	0	2413
6.6.1	win	2022-12-15	09:46:16	09:56:12	594481	5c284ae48e845b0001fc40aa	13880952	1	practice_z	5	practice_z	3	stimuli_distractor_trianglediamonds.svg	stimuli_target_circlediamonds.svg	10	yes	44	1	624
6.6.1	win	2022-12-15	09:46:16	09:56:12	594481	5c284ae48e845b0001fc40aa	13880952	1	practice_z	5	advance_on_keypress_ZEE	4	stimuli_distractor_trianglediamonds.svg	stimuli_target_circlediamonds.svg	10	yes	57	0	777
6.6.1	win	2022-12-15	09:46:16	09:56:17	598893	5c284ae48e845b0001fc40aa	13880952	1	practice_z	5	practice_z	5	stimuli_distractor_diamondtriangles.svg	stimuli_distractor_trianglediamonds.svg	14	no	0	1	2000
6.6.1	win	2022-12-15	09:46:16	09:56:17	598893	5c284ae48e845b0001fc40aa	13880952	1	practice_z	5	advance_on_keypress_ZEE	6	stimuli_distractor_diamondtriangles.svg	stimuli_distractor_trianglediamonds.svg	14	no	57	0	685
6.6.1	win	2022-12-15	09:46:16	09:56:21	603231	5c284ae48e845b0001fc40aa	13880952	1	practice_z	5	practice_z	7	stimuli_distractor_diamondtriangles.svg	stimuli_distractor_diamondtriangles.svg	13	no	0	1	2000
6.6.1	win	2022-12-15	09:46:16	09:56:21	603231	5c284ae48e845b0001fc40aa	13880952	1	practice_z	5	advance_on_keypress_ZEE	8	stimuli_distractor_diamondtriangles.svg	stimuli_distractor_diamondtriangles.svg	13	no	57	0	790
6.6.1	win	2022-12-15	09:46:16	09:56:24	606405	5c284ae48e845b0001fc40aa	13880952	1	practice_z	5	practice_z	9	stimuli_target_circlediamonds.svg	stimuli_distractor_diamondtriangles.svg	1	yes	44	1	737
6.6.1	win	2022-12-15	09:46:16	09:56:24	606405	5c284ae48e845b0001fc40aa	13880952	1	practice_z	5	advance_on_keypress_ZEE	10	stimuli_target_circlediamonds.svg	stimuli_distractor_diamondtriangles.svg	1	yes	57	0	829
6.6.1	win	2022-12-15	09:46:16	09:56:29	610871	5c284ae48e845b0001fc40aa	13880952	1	practice_z	5	practice_z	11	stimuli_distractor_trianglediamonds.svg	stimuli_distractor_trianglediamonds.svg	15	no	0	1	2000
6.6.1	win	2022-12-15	09:46:16	09:56:29	610871	5c284ae48e845b0001fc40aa	13880952	1	practice_z	5	advance_on_keypress_ZEE	12	stimuli_distractor_trianglediamonds.svg	stimuli_distractor_trianglediamonds.svg	15	no	57	0	721
6.6.1	win	2022-12-15	09:46:16	09:56:32	614472	5c284ae48e845b0001fc40aa	13880952	1	practice_z	5	practice_z	13	stimuli_distractor_diamondtriangles.svg	stimuli_target_trianglecircles.svg	9	yes	44	1	1229
6.6.1	win	2022-12-15	09:46:16	09:56:32	614472	5c284ae48e845b0001fc40aa	13880952	1	practice_z	5	advance_on_keypress_ZEE	14	stimuli_distractor_diamondtriangles.svg	stimuli_target_trianglecircles.svg	9	yes	57	0	1107
6.6.1	win	2022-12-15	09:46:16	09:56:36	617970	5c284ae48e845b0001fc40aa	13880952	1	practice_z	5	practice_z	15	stimuli_distractor_diamondtriangles.svg	stimuli_target_circletriangles.svg	7	yes	44	1	757
6.6.1	win	2022-12-15	09:46:16	09:56:36	617970	5c284ae48e845b0001fc40aa	13880952	1	practice_z	5	advance_on_keypress_ZEE	16	stimuli_distractor_diamondtriangles.svg	stimuli_target_circletriangles.svg	7	yes	57	0	710
6.6.1	win	2022-12-15	09:46:16	09:56:39	621166	5c284ae48e845b0001fc40aa	13880952	1	practice_z	5	practice_z	17	stimuli_distractor_trianglediamonds.svg	stimuli_target_diamondcircles.svg	12	yes	44	1	849
6.6.1	win	2022-12-15	09:46:16	09:56:39	621166	5c284ae48e845b0001fc40aa	13880952	1	practice_z	5	advance_on_keypress_ZEE	18	stimuli_distractor_trianglediamonds.svg	stimuli_target_diamondcircles.svg	12	yes	57	0	1129
6.6.1	win	2022-12-15	09:46:16	09:56:44	625786	5c284ae48e845b0001fc40aa	13880952	1	practice_z	5	practice_z	19	stimuli_target_squarediamonds.svg	stimuli_distractor_trianglediamonds.svg	5	yes	44	1	1833
6.6.1	win	2022-12-15	09:46:16	09:56:44	625786	5c284ae48e845b0001fc40aa	13880952	1	practice_z	5	advance_on_keypress_ZEE	20	stimuli_target_squarediamonds.svg	stimuli_distractor_trianglediamonds.svg	5	yes	57	0	670
6.6.1	win	2022-12-15	09:46:16	09:56:47	629198	5c284ae48e845b0001fc40aa	13880952	1	practice_z	5	practice_z	21	stimuli_distractor_diamondtriangles.svg	stimuli_target_diamondcircles.svg	8	yes	44	1	1091
6.6.1	win	2022-12-15	09:46:16	09:56:47	629198	5c284ae48e845b0001fc40aa	13880952	1	practice_z	5	advance_on_keypress_ZEE	22	stimuli_distractor_diamondtriangles.svg	stimuli_target_diamondcircles.svg	8	yes	57	0	878
6.6.1	win	2022-12-15	09:46:16	09:56:51	632764	5c284ae48e845b0001fc40aa	13880952	1	practice_z	5	practice_z	23	stimuli_target_squarediamonds.svg	stimuli_distractor_diamondtriangles.svg	2	yes	44	1	1053
6.6.1	win	2022-12-15	09:46:16	09:56:51	632764	5c284ae48e845b0001fc40aa	13880952	1	practice_z	5	advance_on_keypress_ZEE	24	stimuli_target_squarediamonds.svg	stimuli_distractor_diamondtriangles.svg	2	yes	57	0	1298
6.6.1	win	2022-12-15	09:46:16	09:56:55	637487	5c284ae48e845b0001fc40aa	13880952	1	practice_z	5	practice_z	25	stimuli_distractor_trianglediamonds.svg	stimuli_distractor_diamondtriangles.svg	16	no	44	0	1772
6.6.1	win	2022-12-15	09:46:16	09:56:55	637487	5c284ae48e845b0001fc40aa	13880952	1	practice_z	5	advance_on_keypress_ZEE	26	stimuli_distractor_trianglediamonds.svg	stimuli_distractor_diamondtriangles.svg	16	no	57	0	765
6.6.1	win	2022-12-15	09:46:16	09:56:59	640830	5c284ae48e845b0001fc40aa	13880952	1	practice_z	5	practice_z	27	stimuli_distractor_trianglediamonds.svg	stimuli_target_squarediamonds.svg	11	yes	44	1	929
6.6.1	win	2022-12-15	09:46:16	09:56:59	640830	5c284ae48e845b0001fc40aa	13880952	1	practice_z	5	advance_on_keypress_ZEE	28	stimuli_distractor_trianglediamonds.svg	stimuli_target_squarediamonds.svg	11	yes	57	0	747
6.6.1	win	2022-12-15	09:46:16	09:57:02	644003	5c284ae48e845b0001fc40aa	13880952	1	practice_z	5	practice_z	29	stimuli_target_circlediamonds.svg	stimuli_distractor_trianglediamonds.svg	4	yes	44	1	781
6.6.1	win	2022-12-15	09:46:16	09:57:02	644003	5c284ae48e845b0001fc40aa	13880952	1	practice_z	5	advance_on_keypress_ZEE	30	stimuli_target_circlediamonds.svg	stimuli_distractor_trianglediamonds.svg	4	yes	57	0	598
6.6.1	win	2022-12-15	09:46:16	09:57:06	648259	5c284ae48e845b0001fc40aa	13880952	1	practice_z	5	practice_z	31	stimuli_target_diamondsquares.svg	stimuli_distractor_trianglediamonds.svg	6	yes	0	0	2000
6.6.1	win	2022-12-15	09:46:16	09:57:06	648259	5c284ae48e845b0001fc40aa	13880952	1	practice_z	5	advance_on_keypress_ZEE	32	stimuli_target_diamondsquares.svg	stimuli_distractor_trianglediamonds.svg	6	yes	57	0	627
6.6.1	win	2022-12-15	09:46:16	09:57:14	656557	5c284ae48e845b0001fc40aa	13880952	1	main_z	7	main_z	1	stimuli_distractor_trianglediamonds.svg	stimuli_target_circletriangles.svg	9	yes	44	1	656
6.6.1	win	2022-12-15	09:46:16	09:57:14	656557	5c284ae48e845b0001fc40aa	13880952	1	main_z	7	advance_on_keypress_ZEE	2	stimuli_distractor_trianglediamonds.svg	stimuli_target_circletriangles.svg	9	yes	57	0	1980
6.6.1	win	2022-12-15	09:46:16	09:57:18	659831	5c284ae48e845b0001fc40aa	13880952	1	main_z	7	main_z	3	stimuli_distractor_trianglediamonds.svg	stimuli_target_squaretriangles.svg	11	yes	44	1	644
6.6.1	win	2022-12-15	09:46:16	09:57:18	659831	5c284ae48e845b0001fc40aa	13880952	1	main_z	7	advance_on_keypress_ZEE	4	stimuli_distractor_trianglediamonds.svg	stimuli_target_squaretriangles.svg	11	yes	57	0	1353
6.6.1	win	2022-12-15	09:46:16	09:57:20	662407	5c284ae48e845b0001fc40aa	13880952	1	main_z	7	main_z	5	stimuli_target_trianglecircles.svg	stimuli_distractor_trianglediamonds.svg	17	yes	44	1	584
6.6.1	win	2022-12-15	09:46:16	09:57:20	662407	5c284ae48e845b0001fc40aa	13880952	1	main_z	7	advance_on_keypress_ZEE	6	stimuli_target_trianglecircles.svg	stimuli_distractor_trianglediamonds.svg	17	yes	57	0	2522
6.6.1	win	2022-12-15	09:46:16	09:57:25	667220	5c284ae48e845b0001fc40aa	13880952	1	main_z	7	main_z	7	stimuli_distractor_trianglediamonds.svg	stimuli_distractor_diamondtriangles.svg	35	no	44	0	1643
6.6.1	win	2022-12-15	09:46:16	09:57:25	667220	5c284ae48e845b0001fc40aa	13880952	1	main_z	7	advance_on_keypress_ZEE	8	stimuli_distractor_trianglediamonds.svg	stimuli_distractor_diamondtriangles.svg	35	no	57	0	983
6.6.1	win	2022-12-15	09:46:16	09:57:27	669574	5c284ae48e845b0001fc40aa	13880952	1	main_z	7	main_z	9	stimuli_target_squaretriangles.svg	stimuli_distractor_diamondtriangles.svg	7	yes	44	1	727
6.6.1	win	2022-12-15	09:46:16	09:57:27	669574	5c284ae48e845b0001fc40aa	13880952	1	main_z	7	advance_on_keypress_ZEE	10	stimuli_target_squaretriangles.svg	stimuli_distractor_diamondtriangles.svg	7	yes	57	0	937
6.6.1	win	2022-12-15	09:46:16	09:57:30	671914	5c284ae48e845b0001fc40aa	13880952	1	main_z	7	main_z	11	stimuli_distractor_trianglediamonds.svg	stimuli_target_squarediamonds.svg	12	yes	44	1	765
6.6.1	win	2022-12-15	09:46:16	09:57:30	671914	5c284ae48e845b0001fc40aa	13880952	1	main_z	7	advance_on_keypress_ZEE	12	stimuli_distractor_trianglediamonds.svg	stimuli_target_squarediamonds.svg	12	yes	57	0	722
6.6.1	win	2022-12-15	09:46:16	09:57:32	674366	5c284ae48e845b0001fc40aa	13880952	1	main_z	7	main_z	13	stimuli_target_diamondcircles.svg	stimuli_distractor_diamondtriangles.svg	23	yes	44	1	1081
6.6.1	win	2022-12-15	09:46:16	09:57:32	674366	5c284ae48e845b0001fc40aa	13880952	1	main_z	7	advance_on_keypress_ZEE	14	stimuli_target_diamondcircles.svg	stimuli_distractor_diamondtriangles.svg	23	yes	57	0	813
6.6.1	win	2022-12-15	09:46:16	09:57:36	677838	5c284ae48e845b0001fc40aa	13880952	1	main_z	7	main_z	15	stimuli_distractor_diamondtriangles.svg	stimuli_target_circlediamonds.svg	14	yes	0	0	2000
6.6.1	win	2022-12-15	09:46:16	09:57:36	677838	5c284ae48e845b0001fc40aa	13880952	1	main_z	7	advance_on_keypress_ZEE	16	stimuli_distractor_diamondtriangles.svg	stimuli_target_circlediamonds.svg	14	yes	57	0	939
6.6.1	win	2022-12-15	09:46:16	09:57:38	680306	5c284ae48e845b0001fc40aa	13880952	1	main_z	7	main_z	17	stimuli_distractor_trianglediamonds.svg	stimuli_target_diamondcircles.svg	27	yes	44	1	882
6.6.1	win	2022-12-15	09:46:16	09:57:38	680306	5c284ae48e845b0001fc40aa	13880952	1	main_z	7	advance_on_keypress_ZEE	18	stimuli_distractor_trianglediamonds.svg	stimuli_target_diamondcircles.svg	27	yes	57	0	1544
6.6.1	win	2022-12-15	09:46:16	09:57:41	683220	5c284ae48e845b0001fc40aa	13880952	1	main_z	7	main_z	19	stimuli_target_squarediamonds.svg	stimuli_distractor_trianglediamonds.svg	4	yes	44	1	726
6.6.1	win	2022-12-15	09:46:16	09:57:41	683220	5c284ae48e845b0001fc40aa	13880952	1	main_z	7	advance_on_keypress_ZEE	20	stimuli_target_squarediamonds.svg	stimuli_distractor_trianglediamonds.svg	4	yes	57	0	1274
6.6.1	win	2022-12-15	09:46:16	09:57:45	687130	5c284ae48e845b0001fc40aa	13880952	1	main_z	7	main_z	21	stimuli_distractor_trianglediamonds.svg	stimuli_target_circlediamonds.svg	10	yes	0	0	2000
6.6.1	win	2022-12-15	09:46:16	09:57:45	687130	5c284ae48e845b0001fc40aa	13880952	1	main_z	7	advance_on_keypress_ZEE	22	stimuli_distractor_trianglediamonds.svg	stimuli_target_circlediamonds.svg	10	yes	57	0	1021
6.6.1	win	2022-12-15	09:46:16	09:57:48	690116	5c284ae48e845b0001fc40aa	13880952	1	main_z	7	main_z	23	stimuli_distractor_diamondtriangles.svg	stimuli_target_trianglesquares.svg	30	yes	44	1	1316
6.6.1	win	2022-12-15	09:46:16	09:57:48	690116	5c284ae48e845b0001fc40aa	13880952	1	main_z	7	advance_on_keypress_ZEE	24	stimuli_distractor_diamondtriangles.svg	stimuli_target_trianglesquares.svg	30	yes	57	0	2119
6.6.1	win	2022-12-15	09:46:16	09:57:53	694888	5c284ae48e845b0001fc40aa	13880952	1	main_z	7	main_z	25	stimuli_distractor_diamondtriangles.svg	stimuli_distractor_diamondtriangles.svg	40	no	0	1	2000
6.6.1	win	2022-12-15	09:46:16	09:57:53	694888	5c284ae48e845b0001fc40aa	13880952	1	main_z	7	advance_on_keypress_ZEE	26	stimuli_distractor_diamondtriangles.svg	stimuli_distractor_diamondtriangles.svg	40	no	57	0	685
6.6.1	win	2022-12-15	09:46:16	09:57:55	697249	5c284ae48e845b0001fc40aa	13880952	1	main_z	7	main_z	27	stimuli_target_circlediamonds.svg	stimuli_distractor_trianglediamonds.svg	2	yes	44	1	1025
6.6.1	win	2022-12-15	09:46:16	09:57:55	697249	5c284ae48e845b0001fc40aa	13880952	1	main_z	7	advance_on_keypress_ZEE	28	stimuli_target_circlediamonds.svg	stimuli_distractor_trianglediamonds.svg	2	yes	57	0	2555
6.6.1	win	2022-12-15	09:46:16	09:57:59	701378	5c284ae48e845b0001fc40aa	13880952	1	main_z	7	main_z	29	stimuli_target_diamondsquares.svg	stimuli_distractor_diamondtriangles.svg	24	yes	44	1	933
6.6.1	win	2022-12-15	09:46:16	09:57:59	701378	5c284ae48e845b0001fc40aa	13880952	1	main_z	7	advance_on_keypress_ZEE	30	stimuli_target_diamondsquares.svg	stimuli_distractor_diamondtriangles.svg	24	yes	57	0	1669
6.6.1	win	2022-12-15	09:46:16	09:58:02	704584	5c284ae48e845b0001fc40aa	13880952	1	main_z	7	main_z	31	stimuli_target_squarediamonds.svg	stimuli_distractor_diamondtriangles.svg	8	yes	44	1	886
6.6.1	win	2022-12-15	09:46:16	09:58:02	704584	5c284ae48e845b0001fc40aa	13880952	1	main_z	7	advance_on_keypress_ZEE	32	stimuli_target_squarediamonds.svg	stimuli_distractor_diamondtriangles.svg	8	yes	57	0	1930
6.6.1	win	2022-12-15	09:46:16	09:58:06	707802	5c284ae48e845b0001fc40aa	13880952	1	main_z	7	main_z	33	stimuli_target_squaretriangles.svg	stimuli_distractor_trianglediamonds.svg	3	yes	44	1	650
6.6.1	win	2022-12-15	09:46:16	09:58:06	707802	5c284ae48e845b0001fc40aa	13880952	1	main_z	7	advance_on_keypress_ZEE	34	stimuli_target_squaretriangles.svg	stimuli_distractor_trianglediamonds.svg	3	yes	57	0	1129
6.6.1	win	2022-12-15	09:46:16	09:58:09	711571	5c284ae48e845b0001fc40aa	13880952	1	main_z	7	main_z	35	stimuli_distractor_diamondtriangles.svg	stimuli_distractor_trianglediamonds.svg	38	no	0	1	2000
6.6.1	win	2022-12-15	09:46:16	09:58:09	711571	5c284ae48e845b0001fc40aa	13880952	1	main_z	7	advance_on_keypress_ZEE	36	stimuli_distractor_diamondtriangles.svg	stimuli_distractor_trianglediamonds.svg	38	no	57	0	787
6.6.1	win	2022-12-15	09:46:16	09:58:12	714147	5c284ae48e845b0001fc40aa	13880952	1	main_z	7	main_z	37	stimuli_distractor_trianglediamonds.svg	stimuli_target_trianglesquares.svg	26	yes	44	1	1139
6.6.1	win	2022-12-15	09:46:16	09:58:12	714147	5c284ae48e845b0001fc40aa	13880952	1	main_z	7	advance_on_keypress_ZEE	38	stimuli_distractor_trianglediamonds.svg	stimuli_target_trianglesquares.svg	26	yes	57	0	1967
6.6.1	win	2022-12-15	09:46:16	09:58:16	717893	5c284ae48e845b0001fc40aa	13880952	1	main_z	7	main_z	39	stimuli_distractor_diamondtriangles.svg	stimuli_target_squarediamonds.svg	16	yes	44	1	1132
6.6.1	win	2022-12-15	09:46:16	09:58:16	717893	5c284ae48e845b0001fc40aa	13880952	1	main_z	7	advance_on_keypress_ZEE	40	stimuli_distractor_diamondtriangles.svg	stimuli_target_squarediamonds.svg	16	yes	57	0	2227
6.6.1	win	2022-12-15	09:46:16	09:58:19	721729	5c284ae48e845b0001fc40aa	13880952	1	main_z	7	main_z	41	stimuli_target_diamondcircles.svg	stimuli_distractor_trianglediamonds.svg	19	yes	44	1	964
6.6.1	win	2022-12-15	09:46:16	09:58:19	721729	5c284ae48e845b0001fc40aa	13880952	1	main_z	7	advance_on_keypress_ZEE	42	stimuli_target_diamondcircles.svg	stimuli_distractor_trianglediamonds.svg	19	yes	57	0	805
6.6.1	win	2022-12-15	09:46:16	09:58:22	723867	5c284ae48e845b0001fc40aa	13880952	1	main_z	7	main_z	43	stimuli_distractor_diamondtriangles.svg	stimuli_target_diamondcircles.svg	31	yes	44	1	699
6.6.1	win	2022-12-15	09:46:16	09:58:22	723867	5c284ae48e845b0001fc40aa	13880952	1	main_z	7	advance_on_keypress_ZEE	44	stimuli_distractor_diamondtriangles.svg	stimuli_target_diamondcircles.svg	31	yes	57	0	779
6.6.1	win	2022-12-15	09:46:16	09:58:24	725993	5c284ae48e845b0001fc40aa	13880952	1	main_z	7	main_z	45	stimuli_distractor_diamondtriangles.svg	stimuli_target_squaretriangles.svg	15	yes	44	1	706
6.6.1	win	2022-12-15	09:46:16	09:58:24	725993	5c284ae48e845b0001fc40aa	13880952	1	main_z	7	advance_on_keypress_ZEE	46	stimuli_distractor_diamondtriangles.svg	stimuli_target_squaretriangles.svg	15	yes	57	0	832
6.6.1	win	2022-12-15	09:46:16	09:58:26	728164	5c284ae48e845b0001fc40aa	13880952	1	main_z	7	main_z	47	stimuli_distractor_diamondtriangles.svg	stimuli_target_diamondsquares.svg	32	yes	44	1	692
6.6.1	win	2022-12-15	09:46:16	09:58:26	728164	5c284ae48e845b0001fc40aa	13880952	1	main_z	7	advance_on_keypress_ZEE	48	stimuli_distractor_diamondtriangles.svg	stimuli_target_diamondsquares.svg	32	yes	57	0	834
6.6.1	win	2022-12-15	09:46:16	09:58:29	731641	5c284ae48e845b0001fc40aa	13880952	1	main_z	7	main_z	49	stimuli_distractor_trianglediamonds.svg	stimuli_distractor_trianglediamonds.svg	34	no	0	1	2000
6.6.1	win	2022-12-15	09:46:16	09:58:29	731641	5c284ae48e845b0001fc40aa	13880952	1	main_z	7	advance_on_keypress_ZEE	50	stimuli_distractor_trianglediamonds.svg	stimuli_distractor_trianglediamonds.svg	34	no	57	0	723
6.6.1	win	2022-12-15	09:46:16	09:58:31	733609	5c284ae48e845b0001fc40aa	13880952	1	main_z	7	main_z	51	stimuli_target_circlediamonds.svg	stimuli_distractor_diamondtriangles.svg	6	yes	44	1	598
6.6.1	win	2022-12-15	09:46:16	09:58:31	733609	5c284ae48e845b0001fc40aa	13880952	1	main_z	7	advance_on_keypress_ZEE	52	stimuli_target_circlediamonds.svg	stimuli_distractor_diamondtriangles.svg	6	yes	57	0	824
6.6.1	win	2022-12-15	09:46:16	09:58:35	737080	5c284ae48e845b0001fc40aa	13880952	1	main_z	7	main_z	53	stimuli_distractor_diamondtriangles.svg	stimuli_distractor_trianglediamonds.svg	37	no	0	1	2000
6.6.1	win	2022-12-15	09:46:16	09:58:35	737080	5c284ae48e845b0001fc40aa	13880952	1	main_z	7	advance_on_keypress_ZEE	54	stimuli_distractor_diamondtriangles.svg	stimuli_distractor_trianglediamonds.svg	37	no	57	0	941
6.6.1	win	2022-12-15	09:46:16	09:58:37	739280	5c284ae48e845b0001fc40aa	13880952	1	main_z	7	main_z	55	stimuli_target_trianglecircles.svg	stimuli_distractor_diamondtriangles.svg	21	yes	44	1	612
6.6.1	win	2022-12-15	09:46:16	09:58:37	739280	5c284ae48e845b0001fc40aa	13880952	1	main_z	7	advance_on_keypress_ZEE	56	stimuli_target_trianglecircles.svg	stimuli_distractor_diamondtriangles.svg	21	yes	57	0	991
6.6.1	win	2022-12-15	09:46:16	09:58:39	741620	5c284ae48e845b0001fc40aa	13880952	1	main_z	7	main_z	57	stimuli_target_trianglesquares.svg	stimuli_distractor_diamondtriangles.svg	22	yes	44	1	700
6.6.1	win	2022-12-15	09:46:16	09:58:39	741620	5c284ae48e845b0001fc40aa	13880952	1	main_z	7	advance_on_keypress_ZEE	58	stimuli_target_trianglesquares.svg	stimuli_distractor_diamondtriangles.svg	22	yes	57	0	961
6.6.1	win	2022-12-15	09:46:16	09:58:42	744038	5c284ae48e845b0001fc40aa	13880952	1	main_z	7	main_z	59	stimuli_distractor_trianglediamonds.svg	stimuli_target_diamondsquares.svg	28	yes	44	1	817
6.6.1	win	2022-12-15	09:46:16	09:58:42	744038	5c284ae48e845b0001fc40aa	13880952	1	main_z	7	advance_on_keypress_ZEE	60	stimuli_distractor_trianglediamonds.svg	stimuli_target_diamondsquares.svg	28	yes	57	0	713
6.6.1	win	2022-12-15	09:46:16	09:58:45	747390	5c284ae48e845b0001fc40aa	13880952	1	main_z	7	main_z	61	stimuli_distractor_trianglediamonds.svg	stimuli_distractor_trianglediamonds.svg	33	no	0	1	2000
6.6.1	win	2022-12-15	09:46:16	09:58:45	747390	5c284ae48e845b0001fc40aa	13880952	1	main_z	7	advance_on_keypress_ZEE	62	stimuli_distractor_trianglediamonds.svg	stimuli_distractor_trianglediamonds.svg	33	no	57	0	563
6.6.1	win	2022-12-15	09:46:16	09:58:47	749382	5c284ae48e845b0001fc40aa	13880952	1	main_z	7	main_z	63	stimuli_target_circletriangles.svg	stimuli_distractor_diamondtriangles.svg	5	yes	44	1	772
6.6.1	win	2022-12-15	09:46:16	09:58:47	749382	5c284ae48e845b0001fc40aa	13880952	1	main_z	7	advance_on_keypress_ZEE	64	stimuli_target_circletriangles.svg	stimuli_distractor_diamondtriangles.svg	5	yes	57	0	4372
6.6.1	win	2022-12-15	09:46:16	09:58:53	755041	5c284ae48e845b0001fc40aa	13880952	1	main_z	7	main_z	65	stimuli_distractor_diamondtriangles.svg	stimuli_target_trianglecircles.svg	29	yes	44	1	642
6.6.1	win	2022-12-15	09:46:16	09:58:53	755041	5c284ae48e845b0001fc40aa	13880952	1	main_z	7	advance_on_keypress_ZEE	66	stimuli_distractor_diamondtriangles.svg	stimuli_target_trianglecircles.svg	29	yes	57	0	1352
6.6.1	win	2022-12-15	09:46:16	09:58:57	759035	5c284ae48e845b0001fc40aa	13880952	1	main_z	7	main_z	67	stimuli_distractor_trianglediamonds.svg	stimuli_distractor_diamondtriangles.svg	36	no	0	1	2000
6.6.1	win	2022-12-15	09:46:16	09:58:57	759035	5c284ae48e845b0001fc40aa	13880952	1	main_z	7	advance_on_keypress_ZEE	68	stimuli_distractor_trianglediamonds.svg	stimuli_distractor_diamondtriangles.svg	36	no	57	0	788
6.6.1	win	2022-12-15	09:46:16	09:59:00	762472	5c284ae48e845b0001fc40aa	13880952	1	main_z	7	main_z	69	stimuli_distractor_diamondtriangles.svg	stimuli_distractor_diamondtriangles.svg	39	no	0	1	2000
6.6.1	win	2022-12-15	09:46:16	09:59:00	762472	5c284ae48e845b0001fc40aa	13880952	1	main_z	7	advance_on_keypress_ZEE	70	stimuli_distractor_diamondtriangles.svg	stimuli_distractor_diamondtriangles.svg	39	no	57	0	512
6.6.1	win	2022-12-15	09:46:16	09:59:02	764311	5c284ae48e845b0001fc40aa	13880952	1	main_z	7	main_z	71	stimuli_target_circletriangles.svg	stimuli_distractor_trianglediamonds.svg	1	yes	44	1	686
6.6.1	win	2022-12-15	09:46:16	09:59:02	764311	5c284ae48e845b0001fc40aa	13880952	1	main_z	7	advance_on_keypress_ZEE	72	stimuli_target_circletriangles.svg	stimuli_distractor_trianglediamonds.svg	1	yes	57	0	1076
6.6.1	win	2022-12-15	09:46:16	09:59:05	767292	5c284ae48e845b0001fc40aa	13880952	1	main_z	7	main_z	73	stimuli_target_trianglesquares.svg	stimuli_distractor_trianglediamonds.svg	18	yes	44	1	1265
6.6.1	win	2022-12-15	09:46:16	09:59:05	767292	5c284ae48e845b0001fc40aa	13880952	1	main_z	7	advance_on_keypress_ZEE	74	stimuli_target_trianglesquares.svg	stimuli_distractor_trianglediamonds.svg	18	yes	57	0	1065
6.6.1	win	2022-12-15	09:46:16	09:59:08	769902	5c284ae48e845b0001fc40aa	13880952	1	main_z	7	main_z	75	stimuli_distractor_trianglediamonds.svg	stimuli_target_trianglecircles.svg	25	yes	44	1	905
6.6.1	win	2022-12-15	09:46:16	09:59:08	769902	5c284ae48e845b0001fc40aa	13880952	1	main_z	7	advance_on_keypress_ZEE	76	stimuli_distractor_trianglediamonds.svg	stimuli_target_trianglecircles.svg	25	yes	57	0	1618
6.6.1	win	2022-12-15	09:46:16	09:59:11	772940	5c284ae48e845b0001fc40aa	13880952	1	main_z	7	main_z	77	stimuli_distractor_diamondtriangles.svg	stimuli_target_circletriangles.svg	13	yes	44	1	773
6.6.1	win	2022-12-15	09:46:16	09:59:11	772940	5c284ae48e845b0001fc40aa	13880952	1	main_z	7	advance_on_keypress_ZEE	78	stimuli_distractor_diamondtriangles.svg	stimuli_target_circletriangles.svg	13	yes	57	0	730
6.6.1	win	2022-12-15	09:46:16	09:59:14	775986	5c284ae48e845b0001fc40aa	13880952	1	main_z	7	main_z	79	stimuli_target_diamondsquares.svg	stimuli_distractor_trianglediamonds.svg	20	yes	44	1	1667
6.6.1	win	2022-12-15	09:46:16	09:59:14	775986	5c284ae48e845b0001fc40aa	13880952	1	main_z	7	advance_on_keypress_ZEE	80	stimuli_target_diamondsquares.svg	stimuli_distractor_trianglediamonds.svg	20	yes	57	0	714
6.6.1	win	2022-12-15	09:46:16	09:59:17	779356	5c284ae48e845b0001fc40aa	13880952	1	main_z	7	main_z	81	stimuli_distractor_diamondtriangles.svg	stimuli_target_circletriangles.svg	13	yes	0	0	2000
6.6.1	win	2022-12-15	09:46:16	09:59:17	779356	5c284ae48e845b0001fc40aa	13880952	1	main_z	7	advance_on_keypress_ZEE	82	stimuli_distractor_diamondtriangles.svg	stimuli_target_circletriangles.svg	13	yes	57	0	660
6.6.1	win	2022-12-15	09:46:16	09:59:19	781445	5c284ae48e845b0001fc40aa	13880952	1	main_z	7	main_z	83	stimuli_distractor_diamondtriangles.svg	stimuli_target_diamondsquares.svg	32	yes	44	1	785
6.6.1	win	2022-12-15	09:46:16	09:59:19	781445	5c284ae48e845b0001fc40aa	13880952	1	main_z	7	advance_on_keypress_ZEE	84	stimuli_distractor_diamondtriangles.svg	stimuli_target_diamondsquares.svg	32	yes	57	0	2741
6.6.1	win	2022-12-15	09:46:16	09:59:25	786830	5c284ae48e845b0001fc40aa	13880952	1	main_z	7	main_z	85	stimuli_distractor_trianglediamonds.svg	stimuli_distractor_diamondtriangles.svg	36	no	0	1	2000
6.6.1	win	2022-12-15	09:46:16	09:59:25	786830	5c284ae48e845b0001fc40aa	13880952	1	main_z	7	advance_on_keypress_ZEE	86	stimuli_distractor_trianglediamonds.svg	stimuli_distractor_diamondtriangles.svg	36	no	57	0	713
6.6.1	win	2022-12-15	09:46:16	09:59:27	788802	5c284ae48e845b0001fc40aa	13880952	1	main_z	7	main_z	87	stimuli_distractor_diamondtriangles.svg	stimuli_target_trianglecircles.svg	29	yes	44	1	602
6.6.1	win	2022-12-15	09:46:16	09:59:27	788802	5c284ae48e845b0001fc40aa	13880952	1	main_z	7	advance_on_keypress_ZEE	88	stimuli_distractor_diamondtriangles.svg	stimuli_target_trianglecircles.svg	29	yes	57	0	704
6.6.1	win	2022-12-15	09:46:16	09:59:29	790827	5c284ae48e845b0001fc40aa	13880952	1	main_z	7	main_z	89	stimuli_distractor_trianglediamonds.svg	stimuli_target_trianglesquares.svg	26	yes	44	1	676
6.6.1	win	2022-12-15	09:46:16	09:59:29	790827	5c284ae48e845b0001fc40aa	13880952	1	main_z	7	advance_on_keypress_ZEE	90	stimuli_distractor_trianglediamonds.svg	stimuli_target_trianglesquares.svg	26	yes	57	0	666
6.6.1	win	2022-12-15	09:46:16	09:59:31	792796	5c284ae48e845b0001fc40aa	13880952	1	main_z	7	main_z	91	stimuli_target_trianglecircles.svg	stimuli_distractor_diamondtriangles.svg	21	yes	44	1	659
6.6.1	win	2022-12-15	09:46:16	09:59:31	792796	5c284ae48e845b0001fc40aa	13880952	1	main_z	7	advance_on_keypress_ZEE	92	stimuli_target_trianglecircles.svg	stimuli_distractor_diamondtriangles.svg	21	yes	57	0	970
6.6.1	win	2022-12-15	09:46:16	09:59:34	796406	5c284ae48e845b0001fc40aa	13880952	1	main_z	7	main_z	93	stimuli_distractor_trianglediamonds.svg	stimuli_target_circlediamonds.svg	10	yes	0	0	2000
6.6.1	win	2022-12-15	09:46:16	09:59:34	796406	5c284ae48e845b0001fc40aa	13880952	1	main_z	7	advance_on_keypress_ZEE	94	stimuli_distractor_trianglediamonds.svg	stimuli_target_circlediamonds.svg	10	yes	57	0	553
6.6.1	win	2022-12-15	09:46:16	09:59:37	799609	5c284ae48e845b0001fc40aa	13880952	1	main_z	7	main_z	95	stimuli_distractor_diamondtriangles.svg	stimuli_distractor_trianglediamonds.svg	38	no	0	1	2000
6.6.1	win	2022-12-15	09:46:16	09:59:37	799609	5c284ae48e845b0001fc40aa	13880952	1	main_z	7	advance_on_keypress_ZEE	96	stimuli_distractor_diamondtriangles.svg	stimuli_distractor_trianglediamonds.svg	38	no	57	0	680
6.6.1	win	2022-12-15	09:46:16	09:59:40	802190	5c284ae48e845b0001fc40aa	13880952	1	main_z	7	main_z	97	stimuli_distractor_trianglediamonds.svg	stimuli_target_diamondsquares.svg	28	yes	44	1	1260
6.6.1	win	2022-12-15	09:46:16	09:59:40	802190	5c284ae48e845b0001fc40aa	13880952	1	main_z	7	advance_on_keypress_ZEE	98	stimuli_distractor_trianglediamonds.svg	stimuli_target_diamondsquares.svg	28	yes	57	0	679
6.6.1	win	2022-12-15	09:46:16	09:59:42	804293	5c284ae48e845b0001fc40aa	13880952	1	main_z	7	main_z	99	stimuli_target_diamondsquares.svg	stimuli_distractor_trianglediamonds.svg	20	yes	44	1	795
6.6.1	win	2022-12-15	09:46:16	09:59:42	804293	5c284ae48e845b0001fc40aa	13880952	1	main_z	7	advance_on_keypress_ZEE	100	stimuli_target_diamondsquares.svg	stimuli_distractor_trianglediamonds.svg	20	yes	57	0	602
6.6.1	win	2022-12-15	09:46:16	09:59:45	807534	5c284ae48e845b0001fc40aa	13880952	1	main_z	7	main_z	101	stimuli_distractor_diamondtriangles.svg	stimuli_distractor_trianglediamonds.svg	37	no	0	1	2000
6.6.1	win	2022-12-15	09:46:16	09:59:45	807534	5c284ae48e845b0001fc40aa	13880952	1	main_z	7	advance_on_keypress_ZEE	102	stimuli_distractor_diamondtriangles.svg	stimuli_distractor_trianglediamonds.svg	37	no	57	0	900
6.6.1	win	2022-12-15	09:46:16	09:59:48	809795	5c284ae48e845b0001fc40aa	13880952	1	main_z	7	main_z	103	stimuli_target_trianglesquares.svg	stimuli_distractor_diamondtriangles.svg	22	yes	44	1	708
6.6.1	win	2022-12-15	09:46:16	09:59:48	809795	5c284ae48e845b0001fc40aa	13880952	1	main_z	7	advance_on_keypress_ZEE	104	stimuli_target_trianglesquares.svg	stimuli_distractor_diamondtriangles.svg	22	yes	57	0	867
6.6.1	win	2022-12-15	09:46:16	09:59:51	813306	5c284ae48e845b0001fc40aa	13880952	1	main_z	7	main_z	105	stimuli_target_circletriangles.svg	stimuli_distractor_trianglediamonds.svg	1	yes	0	0	2000
6.6.1	win	2022-12-15	09:46:16	09:59:51	813306	5c284ae48e845b0001fc40aa	13880952	1	main_z	7	advance_on_keypress_ZEE	106	stimuli_target_circletriangles.svg	stimuli_distractor_trianglediamonds.svg	1	yes	57	0	562
6.6.1	win	2022-12-15	09:46:16	09:59:54	816509	5c284ae48e845b0001fc40aa	13880952	1	main_z	7	main_z	107	stimuli_target_squaretriangles.svg	stimuli_distractor_diamondtriangles.svg	7	yes	0	0	2000
6.6.1	win	2022-12-15	09:46:16	09:59:54	816509	5c284ae48e845b0001fc40aa	13880952	1	main_z	7	advance_on_keypress_ZEE	108	stimuli_target_squaretriangles.svg	stimuli_distractor_diamondtriangles.svg	7	yes	57	0	531
6.6.1	win	2022-12-15	09:46:16	09:59:57	819696	5c284ae48e845b0001fc40aa	13880952	1	main_z	7	main_z	109	stimuli_distractor_trianglediamonds.svg	stimuli_distractor_trianglediamonds.svg	34	no	0	1	2000
6.6.1	win	2022-12-15	09:46:16	09:59:57	819696	5c284ae48e845b0001fc40aa	13880952	1	main_z	7	advance_on_keypress_ZEE	110	stimuli_distractor_trianglediamonds.svg	stimuli_distractor_trianglediamonds.svg	34	no	57	0	45
6.6.1	win	2022-12-15	09:46:16	10:00:00	822382	5c284ae48e845b0001fc40aa	13880952	1	main_z	7	main_z	111	stimuli_target_squaretriangles.svg	stimuli_distractor_trianglediamonds.svg	3	yes	0	0	2000
6.6.1	win	2022-12-15	09:46:16	10:00:00	822382	5c284ae48e845b0001fc40aa	13880952	1	main_z	7	advance_on_keypress_ZEE	112	stimuli_target_squaretriangles.svg	stimuli_distractor_trianglediamonds.svg	3	yes	57	0	556
6.6.1	win	2022-12-15	09:46:16	10:00:03	825585	5c284ae48e845b0001fc40aa	13880952	1	main_z	7	main_z	113	stimuli_distractor_diamondtriangles.svg	stimuli_target_circlediamonds.svg	14	yes	0	0	2000
6.6.1	win	2022-12-15	09:46:16	10:00:03	825585	5c284ae48e845b0001fc40aa	13880952	1	main_z	7	advance_on_keypress_ZEE	114	stimuli_distractor_diamondtriangles.svg	stimuli_target_circlediamonds.svg	14	yes	57	0	512
6.6.1	win	2022-12-15	09:46:16	10:00:05	827266	5c284ae48e845b0001fc40aa	13880952	1	main_z	7	main_z	115	stimuli_target_diamondcircles.svg	stimuli_distractor_trianglediamonds.svg	19	yes	44	1	528
6.6.1	win	2022-12-15	09:46:16	10:00:05	827266	5c284ae48e845b0001fc40aa	13880952	1	main_z	7	advance_on_keypress_ZEE	116	stimuli_target_diamondcircles.svg	stimuli_distractor_trianglediamonds.svg	19	yes	57	0	2064
6.6.1	win	2022-12-15	09:46:16	10:00:09	831507	5c284ae48e845b0001fc40aa	13880952	1	main_z	7	main_z	117	stimuli_distractor_trianglediamonds.svg	stimuli_target_circletriangles.svg	9	yes	44	1	1549
6.6.1	win	2022-12-15	09:46:16	10:00:09	831507	5c284ae48e845b0001fc40aa	13880952	1	main_z	7	advance_on_keypress_ZEE	118	stimuli_distractor_trianglediamonds.svg	stimuli_target_circletriangles.svg	9	yes	57	0	959
6.6.1	win	2022-12-15	09:46:16	10:00:12	833859	5c284ae48e845b0001fc40aa	13880952	1	main_z	7	main_z	119	stimuli_distractor_diamondtriangles.svg	stimuli_target_squarediamonds.svg	16	yes	44	1	748
6.6.1	win	2022-12-15	09:46:16	10:00:12	833859	5c284ae48e845b0001fc40aa	13880952	1	main_z	7	advance_on_keypress_ZEE	120	stimuli_distractor_diamondtriangles.svg	stimuli_target_squarediamonds.svg	16	yes	57	0	1352
6.6.1	win	2022-12-15	09:46:16	10:00:14	836492	5c284ae48e845b0001fc40aa	13880952	1	main_z	7	main_z	121	stimuli_distractor_trianglediamonds.svg	stimuli_target_trianglecircles.svg	25	yes	44	1	627
6.6.1	win	2022-12-15	09:46:16	10:00:14	836492	5c284ae48e845b0001fc40aa	13880952	1	main_z	7	advance_on_keypress_ZEE	122	stimuli_distractor_trianglediamonds.svg	stimuli_target_trianglecircles.svg	25	yes	57	0	781
6.6.1	win	2022-12-15	09:46:16	10:00:18	839916	5c284ae48e845b0001fc40aa	13880952	1	main_z	7	main_z	123	stimuli_target_circletriangles.svg	stimuli_distractor_diamondtriangles.svg	5	yes	0	0	2000
6.6.1	win	2022-12-15	09:46:16	10:00:18	839916	5c284ae48e845b0001fc40aa	13880952	1	main_z	7	advance_on_keypress_ZEE	124	stimuli_target_circletriangles.svg	stimuli_distractor_diamondtriangles.svg	5	yes	57	0	547
6.6.1	win	2022-12-15	09:46:16	10:00:20	841790	5c284ae48e845b0001fc40aa	13880952	1	main_z	7	main_z	125	stimuli_distractor_diamondtriangles.svg	stimuli_target_squaretriangles.svg	15	yes	44	1	671
6.6.1	win	2022-12-15	09:46:16	10:00:20	841790	5c284ae48e845b0001fc40aa	13880952	1	main_z	7	advance_on_keypress_ZEE	126	stimuli_distractor_diamondtriangles.svg	stimuli_target_squaretriangles.svg	15	yes	57	0	875
6.6.1	win	2022-12-15	09:46:16	10:00:22	844265	5c284ae48e845b0001fc40aa	13880952	1	main_z	7	main_z	127	stimuli_distractor_diamondtriangles.svg	stimuli_target_diamondcircles.svg	31	yes	44	1	960
6.6.1	win	2022-12-15	09:46:16	10:00:22	844265	5c284ae48e845b0001fc40aa	13880952	1	main_z	7	advance_on_keypress_ZEE	128	stimuli_distractor_diamondtriangles.svg	stimuli_target_diamondcircles.svg	31	yes	57	0	633
6.6.1	win	2022-12-15	09:46:16	10:00:25	847540	5c284ae48e845b0001fc40aa	13880952	1	main_z	7	main_z	129	stimuli_distractor_trianglediamonds.svg	stimuli_target_squaretriangles.svg	11	yes	0	0	2000
6.6.1	win	2022-12-15	09:46:16	10:00:25	847540	5c284ae48e845b0001fc40aa	13880952	1	main_z	7	advance_on_keypress_ZEE	130	stimuli_distractor_trianglediamonds.svg	stimuli_target_squaretriangles.svg	11	yes	57	0	620
6.6.1	win	2022-12-15	09:46:16	10:00:29	850811	5c284ae48e845b0001fc40aa	13880952	1	main_z	7	main_z	131	stimuli_distractor_diamondtriangles.svg	stimuli_distractor_diamondtriangles.svg	40	no	0	1	2000
6.6.1	win	2022-12-15	09:46:16	10:00:29	850811	5c284ae48e845b0001fc40aa	13880952	1	main_z	7	advance_on_keypress_ZEE	132	stimuli_distractor_diamondtriangles.svg	stimuli_distractor_diamondtriangles.svg	40	no	57	0	667
6.6.1	win	2022-12-15	09:46:16	10:00:31	852759	5c284ae48e845b0001fc40aa	13880952	1	main_z	7	main_z	133	stimuli_target_circlediamonds.svg	stimuli_distractor_trianglediamonds.svg	2	yes	44	1	629
6.6.1	win	2022-12-15	09:46:16	10:00:31	852759	5c284ae48e845b0001fc40aa	13880952	1	main_z	7	advance_on_keypress_ZEE	134	stimuli_target_circlediamonds.svg	stimuli_distractor_trianglediamonds.svg	2	yes	57	0	749
6.6.1	win	2022-12-15	09:46:16	10:00:34	856149	5c284ae48e845b0001fc40aa	13880952	1	main_z	7	main_z	135	stimuli_target_squarediamonds.svg	stimuli_distractor_trianglediamonds.svg	4	yes	0	0	2000
6.6.1	win	2022-12-15	09:46:16	10:00:34	856149	5c284ae48e845b0001fc40aa	13880952	1	main_z	7	advance_on_keypress_ZEE	136	stimuli_target_squarediamonds.svg	stimuli_distractor_trianglediamonds.svg	4	yes	57	0	548
6.6.1	win	2022-12-15	09:46:16	10:00:37	859352	5c284ae48e845b0001fc40aa	13880952	1	main_z	7	main_z	137	stimuli_distractor_trianglediamonds.svg	stimuli_distractor_trianglediamonds.svg	33	no	0	1	2000
6.6.1	win	2022-12-15	09:46:16	10:00:37	859352	5c284ae48e845b0001fc40aa	13880952	1	main_z	7	advance_on_keypress_ZEE	138	stimuli_distractor_trianglediamonds.svg	stimuli_distractor_trianglediamonds.svg	33	no	57	0	652
6.6.1	win	2022-12-15	09:46:16	10:00:39	861321	5c284ae48e845b0001fc40aa	13880952	1	main_z	7	main_z	139	stimuli_target_trianglecircles.svg	stimuli_distractor_trianglediamonds.svg	17	yes	44	1	665
6.6.1	win	2022-12-15	09:46:16	10:00:39	861321	5c284ae48e845b0001fc40aa	13880952	1	main_z	7	advance_on_keypress_ZEE	140	stimuli_target_trianglecircles.svg	stimuli_distractor_trianglediamonds.svg	17	yes	57	0	599
6.6.1	win	2022-12-15	09:46:16	10:00:41	863289	5c284ae48e845b0001fc40aa	13880952	1	main_z	7	main_z	141	stimuli_target_diamondcircles.svg	stimuli_distractor_diamondtriangles.svg	23	yes	44	1	715
6.6.1	win	2022-12-15	09:46:16	10:00:41	863289	5c284ae48e845b0001fc40aa	13880952	1	main_z	7	advance_on_keypress_ZEE	142	stimuli_target_diamondcircles.svg	stimuli_distractor_diamondtriangles.svg	23	yes	57	0	666
6.6.1	win	2022-12-15	09:46:16	10:00:44	866609	5c284ae48e845b0001fc40aa	13880952	1	main_z	7	main_z	143	stimuli_distractor_trianglediamonds.svg	stimuli_distractor_diamondtriangles.svg	35	no	0	1	2000
6.6.1	win	2022-12-15	09:46:16	10:00:44	866609	5c284ae48e845b0001fc40aa	13880952	1	main_z	7	advance_on_keypress_ZEE	144	stimuli_distractor_trianglediamonds.svg	stimuli_distractor_diamondtriangles.svg	35	no	57	0	595
6.6.1	win	2022-12-15	09:46:16	10:00:46	868633	5c284ae48e845b0001fc40aa	13880952	1	main_z	7	main_z	145	stimuli_target_diamondsquares.svg	stimuli_distractor_diamondtriangles.svg	24	yes	44	1	787
6.6.1	win	2022-12-15	09:46:16	10:00:46	868633	5c284ae48e845b0001fc40aa	13880952	1	main_z	7	advance_on_keypress_ZEE	146	stimuli_target_diamondsquares.svg	stimuli_distractor_diamondtriangles.svg	24	yes	57	0	627
6.6.1	win	2022-12-15	09:46:16	10:00:50	871898	5c284ae48e845b0001fc40aa	13880952	1	main_z	7	main_z	147	stimuli_distractor_diamondtriangles.svg	stimuli_distractor_diamondtriangles.svg	39	no	0	1	2000
6.6.1	win	2022-12-15	09:46:16	10:00:50	871898	5c284ae48e845b0001fc40aa	13880952	1	main_z	7	advance_on_keypress_ZEE	148	stimuli_distractor_diamondtriangles.svg	stimuli_distractor_diamondtriangles.svg	39	no	57	0	571
6.6.1	win	2022-12-15	09:46:16	10:00:52	873763	5c284ae48e845b0001fc40aa	13880952	1	main_z	7	main_z	149	stimuli_target_trianglesquares.svg	stimuli_distractor_trianglediamonds.svg	18	yes	44	1	645
6.6.1	win	2022-12-15	09:46:16	10:00:52	873763	5c284ae48e845b0001fc40aa	13880952	1	main_z	7	advance_on_keypress_ZEE	150	stimuli_target_trianglesquares.svg	stimuli_distractor_trianglediamonds.svg	18	yes	57	0	1130
6.6.1	win	2022-12-15	09:46:16	10:00:54	876339	5c284ae48e845b0001fc40aa	13880952	1	main_z	7	main_z	151	stimuli_distractor_diamondtriangles.svg	stimuli_target_trianglesquares.svg	30	yes	44	1	819
6.6.1	win	2022-12-15	09:46:16	10:00:54	876339	5c284ae48e845b0001fc40aa	13880952	1	main_z	7	advance_on_keypress_ZEE	152	stimuli_distractor_diamondtriangles.svg	stimuli_target_trianglesquares.svg	30	yes	57	0	1177
6.6.1	win	2022-12-15	09:46:16	10:00:57	878792	5c284ae48e845b0001fc40aa	13880952	1	main_z	7	main_z	153	stimuli_distractor_trianglediamonds.svg	stimuli_target_diamondcircles.svg	27	yes	44	1	636
6.6.1	win	2022-12-15	09:46:16	10:00:57	878792	5c284ae48e845b0001fc40aa	13880952	1	main_z	7	advance_on_keypress_ZEE	154	stimuli_distractor_trianglediamonds.svg	stimuli_target_diamondcircles.svg	27	yes	57	0	1559
6.6.1	win	2022-12-15	09:46:16	10:01:01	882992	5c284ae48e845b0001fc40aa	13880952	1	main_z	7	main_z	155	stimuli_target_squarediamonds.svg	stimuli_distractor_diamondtriangles.svg	8	yes	0	0	2000
6.6.1	win	2022-12-15	09:46:16	10:01:01	882992	5c284ae48e845b0001fc40aa	13880952	1	main_z	7	advance_on_keypress_ZEE	156	stimuli_target_squarediamonds.svg	stimuli_distractor_diamondtriangles.svg	8	yes	57	0	739
6.6.1	win	2022-12-15	09:46:16	10:01:04	886379	5c284ae48e845b0001fc40aa	13880952	1	main_z	7	main_z	157	stimuli_target_circlediamonds.svg	stimuli_distractor_diamondtriangles.svg	6	yes	0	0	2000
6.6.1	win	2022-12-15	09:46:16	10:01:04	886379	5c284ae48e845b0001fc40aa	13880952	1	main_z	7	advance_on_keypress_ZEE	158	stimuli_target_circlediamonds.svg	stimuli_distractor_diamondtriangles.svg	6	yes	57	0	705
6.6.1	win	2022-12-15	09:46:16	10:01:07	889732	5c284ae48e845b0001fc40aa	13880952	1	main_z	7	main_z	159	stimuli_distractor_trianglediamonds.svg	stimuli_target_squarediamonds.svg	12	yes	0	0	2000
6.6.1	win	2022-12-15	09:46:16	10:01:07	889732	5c284ae48e845b0001fc40aa	13880952	1	main_z	7	advance_on_keypress_ZEE	160	stimuli_distractor_trianglediamonds.svg	stimuli_target_squarediamonds.svg	12	yes	57	0	658
6.6.1	win	2022-12-15	09:46:16	10:01:27	909353	5c284ae48e845b0001fc40aa	13880952	1	practice_slash	9	practice_slash	1	stimuli_distractor_trianglediamonds.svg	stimuli_target_circlediamonds.svg	10	yes	0	0	2000
6.6.1	win	2022-12-15	09:46:16	10:01:27	909353	5c284ae48e845b0001fc40aa	13880952	1	practice_slash	9	advance_on_keypress_SLASH	2	stimuli_distractor_trianglediamonds.svg	stimuli_target_circlediamonds.svg	10	yes	57	0	595
6.6.1	win	2022-12-15	09:46:16	10:01:31	913591	5c284ae48e845b0001fc40aa	13880952	1	practice_slash	9	practice_slash	3	stimuli_distractor_diamondtriangles.svg	stimuli_distractor_trianglediamonds.svg	14	no	0	1	2000
6.6.1	win	2022-12-15	09:46:16	10:01:31	913591	5c284ae48e845b0001fc40aa	13880952	1	practice_slash	9	advance_on_keypress_SLASH	4	stimuli_distractor_diamondtriangles.svg	stimuli_distractor_trianglediamonds.svg	14	no	57	0	944
6.6.1	win	2022-12-15	09:46:16	10:01:35	916852	5c284ae48e845b0001fc40aa	13880952	1	practice_slash	9	practice_slash	5	stimuli_target_diamondsquares.svg	stimuli_distractor_trianglediamonds.svg	6	yes	53	1	673
6.6.1	win	2022-12-15	09:46:16	10:01:35	916852	5c284ae48e845b0001fc40aa	13880952	1	practice_slash	9	advance_on_keypress_SLASH	6	stimuli_target_diamondsquares.svg	stimuli_distractor_trianglediamonds.svg	6	yes	57	0	529
6.6.1	win	2022-12-15	09:46:16	10:01:37	919720	5c284ae48e845b0001fc40aa	13880952	1	practice_slash	9	practice_slash	7	stimuli_distractor_diamondtriangles.svg	stimuli_target_diamondcircles.svg	8	yes	53	1	689
6.6.1	win	2022-12-15	09:46:16	10:01:37	919720	5c284ae48e845b0001fc40aa	13880952	1	practice_slash	9	advance_on_keypress_SLASH	8	stimuli_distractor_diamondtriangles.svg	stimuli_target_diamondcircles.svg	8	yes	57	0	505
6.6.1	win	2022-12-15	09:46:16	10:01:41	922826	5c284ae48e845b0001fc40aa	13880952	1	practice_slash	9	practice_slash	9	stimuli_target_circlediamonds.svg	stimuli_distractor_diamondtriangles.svg	1	yes	53	1	958
6.6.1	win	2022-12-15	09:46:16	10:01:41	922826	5c284ae48e845b0001fc40aa	13880952	1	practice_slash	9	advance_on_keypress_SLASH	10	stimuli_target_circlediamonds.svg	stimuli_distractor_diamondtriangles.svg	1	yes	57	0	709
6.6.1	win	2022-12-15	09:46:16	10:01:43	925706	5c284ae48e845b0001fc40aa	13880952	1	practice_slash	9	practice_slash	11	stimuli_target_squarediamonds.svg	stimuli_distractor_diamondtriangles.svg	2	yes	53	1	535
6.6.1	win	2022-12-15	09:46:16	10:01:43	925706	5c284ae48e845b0001fc40aa	13880952	1	practice_slash	9	advance_on_keypress_SLASH	12	stimuli_target_squarediamonds.svg	stimuli_distractor_diamondtriangles.svg	2	yes	57	0	456
6.6.1	win	2022-12-15	09:46:16	10:01:46	928451	5c284ae48e845b0001fc40aa	13880952	1	practice_slash	9	practice_slash	13	stimuli_distractor_trianglediamonds.svg	stimuli_target_diamondcircles.svg	12	yes	53	1	643
6.6.1	win	2022-12-15	09:46:16	10:01:46	928451	5c284ae48e845b0001fc40aa	13880952	1	practice_slash	9	advance_on_keypress_SLASH	14	stimuli_distractor_trianglediamonds.svg	stimuli_target_diamondcircles.svg	12	yes	57	0	510
6.6.1	win	2022-12-15	09:46:16	10:01:49	931398	5c284ae48e845b0001fc40aa	13880952	1	practice_slash	9	practice_slash	15	stimuli_distractor_trianglediamonds.svg	stimuli_distractor_diamondtriangles.svg	16	no	53	0	805
6.6.1	win	2022-12-15	09:46:16	10:01:49	931398	5c284ae48e845b0001fc40aa	13880952	1	practice_slash	9	advance_on_keypress_SLASH	16	stimuli_distractor_trianglediamonds.svg	stimuli_distractor_diamondtriangles.svg	16	no	57	0	572
6.6.1	win	2022-12-15	09:46:16	10:01:52	934210	5c284ae48e845b0001fc40aa	13880952	1	practice_slash	9	practice_slash	17	stimuli_distractor_diamondtriangles.svg	stimuli_target_circletriangles.svg	7	yes	53	1	598
6.6.1	win	2022-12-15	09:46:16	10:01:52	934210	5c284ae48e845b0001fc40aa	13880952	1	practice_slash	9	advance_on_keypress_SLASH	18	stimuli_distractor_diamondtriangles.svg	stimuli_target_circletriangles.svg	7	yes	57	0	498
6.6.1	win	2022-12-15	09:46:16	10:01:56	938365	5c284ae48e845b0001fc40aa	13880952	1	practice_slash	9	practice_slash	19	stimuli_distractor_trianglediamonds.svg	stimuli_distractor_trianglediamonds.svg	15	no	0	1	2000
6.6.1	win	2022-12-15	09:46:16	10:01:56	938365	5c284ae48e845b0001fc40aa	13880952	1	practice_slash	9	advance_on_keypress_SLASH	20	stimuli_distractor_trianglediamonds.svg	stimuli_distractor_trianglediamonds.svg	15	no	57	0	649
6.6.1	win	2022-12-15	09:46:16	10:01:59	941603	5c284ae48e845b0001fc40aa	13880952	1	practice_slash	9	practice_slash	21	stimuli_target_diamondsquares.svg	stimuli_distractor_diamondtriangles.svg	3	yes	53	1	932
6.6.1	win	2022-12-15	09:46:16	10:01:59	941603	5c284ae48e845b0001fc40aa	13880952	1	practice_slash	9	advance_on_keypress_SLASH	22	stimuli_target_diamondsquares.svg	stimuli_distractor_diamondtriangles.svg	3	yes	57	0	611
6.6.1	win	2022-12-15	09:46:16	10:02:02	944471	5c284ae48e845b0001fc40aa	13880952	1	practice_slash	9	practice_slash	23	stimuli_distractor_diamondtriangles.svg	stimuli_target_trianglecircles.svg	9	yes	53	1	614
6.6.1	win	2022-12-15	09:46:16	10:02:02	944471	5c284ae48e845b0001fc40aa	13880952	1	practice_slash	9	advance_on_keypress_SLASH	24	stimuli_distractor_diamondtriangles.svg	stimuli_target_trianglecircles.svg	9	yes	57	0	745
6.6.1	win	2022-12-15	09:46:16	10:02:05	947497	5c284ae48e845b0001fc40aa	13880952	1	practice_slash	9	practice_slash	25	stimuli_target_circlediamonds.svg	stimuli_distractor_trianglediamonds.svg	4	yes	53	1	638
6.6.1	win	2022-12-15	09:46:16	10:02:05	947497	5c284ae48e845b0001fc40aa	13880952	1	practice_slash	9	advance_on_keypress_SLASH	26	stimuli_target_circlediamonds.svg	stimuli_distractor_trianglediamonds.svg	4	yes	57	0	549
6.6.1	win	2022-12-15	09:46:16	10:02:08	950287	5c284ae48e845b0001fc40aa	13880952	1	practice_slash	9	practice_slash	27	stimuli_distractor_trianglediamonds.svg	stimuli_target_squarediamonds.svg	11	yes	53	1	592
6.6.1	win	2022-12-15	09:46:16	10:02:08	950287	5c284ae48e845b0001fc40aa	13880952	1	practice_slash	9	advance_on_keypress_SLASH	28	stimuli_distractor_trianglediamonds.svg	stimuli_target_squarediamonds.svg	11	yes	57	0	610
6.6.1	win	2022-12-15	09:46:16	10:02:12	954531	5c284ae48e845b0001fc40aa	13880952	1	practice_slash	9	practice_slash	29	stimuli_distractor_diamondtriangles.svg	stimuli_distractor_diamondtriangles.svg	13	no	0	1	2000
6.6.1	win	2022-12-15	09:46:16	10:02:12	954531	5c284ae48e845b0001fc40aa	13880952	1	practice_slash	9	advance_on_keypress_SLASH	30	stimuli_distractor_diamondtriangles.svg	stimuli_distractor_diamondtriangles.svg	13	no	57	0	616
6.6.1	win	2022-12-15	09:46:16	10:02:15	957397	5c284ae48e845b0001fc40aa	13880952	1	practice_slash	9	practice_slash	31	stimuli_target_squarediamonds.svg	stimuli_distractor_trianglediamonds.svg	5	yes	53	1	595
6.6.1	win	2022-12-15	09:46:16	10:02:15	957397	5c284ae48e845b0001fc40aa	13880952	1	practice_slash	9	advance_on_keypress_SLASH	32	stimuli_target_squarediamonds.svg	stimuli_distractor_trianglediamonds.svg	5	yes	57	0	669
6.6.1	win	2022-12-15	09:46:16	10:04:21	1083206	5c284ae48e845b0001fc40aa	13880952	1	main_slash	11	main_slash	1	stimuli_distractor_trianglediamonds.svg	stimuli_target_diamondsquares.svg	28	yes	53	1	712
6.6.1	win	2022-12-15	09:46:16	10:04:21	1083206	5c284ae48e845b0001fc40aa	13880952	1	main_slash	11	advance_on_keypress_SLASH	2	stimuli_distractor_trianglediamonds.svg	stimuli_target_diamondsquares.svg	28	yes	57	0	1091
6.6.1	win	2022-12-15	09:46:16	10:04:23	1085467	5c284ae48e845b0001fc40aa	13880952	1	main_slash	11	main_slash	3	stimuli_distractor_trianglediamonds.svg	stimuli_target_trianglecircles.svg	25	yes	53	1	521
6.6.1	win	2022-12-15	09:46:16	10:04:23	1085467	5c284ae48e845b0001fc40aa	13880952	1	main_slash	11	advance_on_keypress_SLASH	4	stimuli_distractor_trianglediamonds.svg	stimuli_target_trianglecircles.svg	25	yes	57	0	617
6.6.1	win	2022-12-15	09:46:16	10:04:25	1087222	5c284ae48e845b0001fc40aa	13880952	1	main_slash	11	main_slash	5	stimuli_target_trianglecircles.svg	stimuli_distractor_diamondtriangles.svg	21	yes	53	1	491
6.6.1	win	2022-12-15	09:46:16	10:04:25	1087222	5c284ae48e845b0001fc40aa	13880952	1	main_slash	11	advance_on_keypress_SLASH	6	stimuli_target_trianglecircles.svg	stimuli_distractor_diamondtriangles.svg	21	yes	57	0	418
6.6.1	win	2022-12-15	09:46:16	10:04:27	1088887	5c284ae48e845b0001fc40aa	13880952	1	main_slash	11	main_slash	7	stimuli_distractor_trianglediamonds.svg	stimuli_target_circlediamonds.svg	10	yes	53	1	604
6.6.1	win	2022-12-15	09:46:16	10:04:27	1088887	5c284ae48e845b0001fc40aa	13880952	1	main_slash	11	advance_on_keypress_SLASH	8	stimuli_distractor_trianglediamonds.svg	stimuli_target_circlediamonds.svg	10	yes	57	0	425
6.6.1	win	2022-12-15	09:46:16	10:04:28	1090507	5c284ae48e845b0001fc40aa	13880952	1	main_slash	11	main_slash	9	stimuli_target_diamondcircles.svg	stimuli_distractor_diamondtriangles.svg	23	yes	53	1	556
6.6.1	win	2022-12-15	09:46:16	10:04:28	1090507	5c284ae48e845b0001fc40aa	13880952	1	main_slash	11	advance_on_keypress_SLASH	10	stimuli_target_diamondcircles.svg	stimuli_distractor_diamondtriangles.svg	23	yes	57	0	303
6.6.1	win	2022-12-15	09:46:16	10:04:30	1091959	5c284ae48e845b0001fc40aa	13880952	1	main_slash	11	main_slash	11	stimuli_distractor_diamondtriangles.svg	stimuli_target_diamondcircles.svg	31	yes	53	1	506
6.6.1	win	2022-12-15	09:46:16	10:04:30	1091959	5c284ae48e845b0001fc40aa	13880952	1	main_slash	11	advance_on_keypress_SLASH	12	stimuli_distractor_diamondtriangles.svg	stimuli_target_diamondcircles.svg	31	yes	57	0	281
6.6.1	win	2022-12-15	09:46:16	10:04:31	1093353	5c284ae48e845b0001fc40aa	13880952	1	main_slash	11	main_slash	13	stimuli_distractor_diamondtriangles.svg	stimuli_target_trianglesquares.svg	30	yes	53	1	466
6.6.1	win	2022-12-15	09:46:16	10:04:31	1093353	5c284ae48e845b0001fc40aa	13880952	1	main_slash	11	advance_on_keypress_SLASH	14	stimuli_distractor_diamondtriangles.svg	stimuli_target_trianglesquares.svg	30	yes	57	0	364
6.6.1	win	2022-12-15	09:46:16	10:04:33	1094928	5c284ae48e845b0001fc40aa	13880952	1	main_slash	11	main_slash	15	stimuli_distractor_diamondtriangles.svg	stimuli_target_circletriangles.svg	13	yes	53	1	556
6.6.1	win	2022-12-15	09:46:16	10:04:33	1094928	5c284ae48e845b0001fc40aa	13880952	1	main_slash	11	advance_on_keypress_SLASH	16	stimuli_distractor_diamondtriangles.svg	stimuli_target_circletriangles.svg	13	yes	57	0	258
6.6.1	win	2022-12-15	09:46:16	10:04:36	1097824	5c284ae48e845b0001fc40aa	13880952	1	main_slash	11	main_slash	17	stimuli_target_squarediamonds.svg	stimuli_distractor_trianglediamonds.svg	4	yes	0	0	2000
6.6.1	win	2022-12-15	09:46:16	10:04:36	1097824	5c284ae48e845b0001fc40aa	13880952	1	main_slash	11	advance_on_keypress_SLASH	18	stimuli_target_squarediamonds.svg	stimuli_distractor_trianglediamonds.svg	4	yes	57	0	615
6.6.1	win	2022-12-15	09:46:16	10:04:37	1099698	5c284ae48e845b0001fc40aa	13880952	1	main_slash	11	main_slash	19	stimuli_target_trianglesquares.svg	stimuli_distractor_diamondtriangles.svg	22	yes	53	1	604
6.6.1	win	2022-12-15	09:46:16	10:04:37	1099698	5c284ae48e845b0001fc40aa	13880952	1	main_slash	11	advance_on_keypress_SLASH	20	stimuli_target_trianglesquares.svg	stimuli_distractor_diamondtriangles.svg	22	yes	57	0	505
6.6.1	win	2022-12-15	09:46:16	10:04:39	1101555	5c284ae48e845b0001fc40aa	13880952	1	main_slash	11	main_slash	21	stimuli_target_circlediamonds.svg	stimuli_distractor_trianglediamonds.svg	2	yes	53	1	710
6.6.1	win	2022-12-15	09:46:16	10:04:39	1101555	5c284ae48e845b0001fc40aa	13880952	1	main_slash	11	advance_on_keypress_SLASH	22	stimuli_target_circlediamonds.svg	stimuli_distractor_trianglediamonds.svg	2	yes	57	0	385
6.6.1	win	2022-12-15	09:46:16	10:04:41	1103231	5c284ae48e845b0001fc40aa	13880952	1	main_slash	11	main_slash	23	stimuli_distractor_diamondtriangles.svg	stimuli_target_trianglecircles.svg	29	yes	53	1	651
6.6.1	win	2022-12-15	09:46:16	10:04:41	1103231	5c284ae48e845b0001fc40aa	13880952	1	main_slash	11	advance_on_keypress_SLASH	24	stimuli_distractor_diamondtriangles.svg	stimuli_target_trianglecircles.svg	29	yes	57	0	320
6.6.1	win	2022-12-15	09:46:16	10:04:44	1106199	5c284ae48e845b0001fc40aa	13880952	1	main_slash	11	main_slash	25	stimuli_target_circletriangles.svg	stimuli_distractor_diamondtriangles.svg	5	yes	0	0	2000
6.6.1	win	2022-12-15	09:46:16	10:04:44	1106199	5c284ae48e845b0001fc40aa	13880952	1	main_slash	11	advance_on_keypress_SLASH	26	stimuli_target_circletriangles.svg	stimuli_distractor_diamondtriangles.svg	5	yes	57	0	565
6.6.1	win	2022-12-15	09:46:16	10:04:46	1108080	5c284ae48e845b0001fc40aa	13880952	1	main_slash	11	main_slash	27	stimuli_distractor_diamondtriangles.svg	stimuli_target_diamondsquares.svg	32	yes	53	1	661
6.6.1	win	2022-12-15	09:46:16	10:04:46	1108080	5c284ae48e845b0001fc40aa	13880952	1	main_slash	11	advance_on_keypress_SLASH	28	stimuli_distractor_diamondtriangles.svg	stimuli_target_diamondsquares.svg	32	yes	57	0	612
6.6.1	win	2022-12-15	09:46:16	10:04:49	1111321	5c284ae48e845b0001fc40aa	13880952	1	main_slash	11	main_slash	29	stimuli_distractor_trianglediamonds.svg	stimuli_distractor_trianglediamonds.svg	34	no	0	1	2000
6.6.1	win	2022-12-15	09:46:16	10:04:49	1111321	5c284ae48e845b0001fc40aa	13880952	1	main_slash	11	advance_on_keypress_SLASH	30	stimuli_distractor_trianglediamonds.svg	stimuli_distractor_trianglediamonds.svg	34	no	57	0	438
6.6.1	win	2022-12-15	09:46:16	10:04:52	1114407	5c284ae48e845b0001fc40aa	13880952	1	main_slash	11	main_slash	31	stimuli_distractor_trianglediamonds.svg	stimuli_distractor_diamondtriangles.svg	35	no	0	1	2000
6.6.1	win	2022-12-15	09:46:16	10:04:52	1114407	5c284ae48e845b0001fc40aa	13880952	1	main_slash	11	advance_on_keypress_SLASH	32	stimuli_distractor_trianglediamonds.svg	stimuli_distractor_diamondtriangles.svg	35	no	57	0	569
6.6.1	win	2022-12-15	09:46:16	10:04:55	1117627	5c284ae48e845b0001fc40aa	13880952	1	main_slash	11	main_slash	33	stimuli_distractor_diamondtriangles.svg	stimuli_distractor_trianglediamonds.svg	38	no	0	1	2000
6.6.1	win	2022-12-15	09:46:16	10:04:55	1117627	5c284ae48e845b0001fc40aa	13880952	1	main_slash	11	advance_on_keypress_SLASH	34	stimuli_distractor_diamondtriangles.svg	stimuli_distractor_trianglediamonds.svg	38	no	57	0	499
6.6.1	win	2022-12-15	09:46:16	10:04:57	1119432	5c284ae48e845b0001fc40aa	13880952	1	main_slash	11	main_slash	35	stimuli_target_squarediamonds.svg	stimuli_distractor_diamondtriangles.svg	8	yes	53	1	652
6.6.1	win	2022-12-15	09:46:16	10:04:57	1119432	5c284ae48e845b0001fc40aa	13880952	1	main_slash	11	advance_on_keypress_SLASH	36	stimuli_target_squarediamonds.svg	stimuli_distractor_diamondtriangles.svg	8	yes	57	0	770
6.6.1	win	2022-12-15	09:46:16	10:05:00	1121872	5c284ae48e845b0001fc40aa	13880952	1	main_slash	11	main_slash	37	stimuli_distractor_trianglediamonds.svg	stimuli_distractor_diamondtriangles.svg	36	no	53	0	1024
6.6.1	win	2022-12-15	09:46:16	10:05:00	1121872	5c284ae48e845b0001fc40aa	13880952	1	main_slash	11	advance_on_keypress_SLASH	38	stimuli_distractor_trianglediamonds.svg	stimuli_distractor_diamondtriangles.svg	36	no	57	0	607
6.6.1	win	2022-12-15	09:46:16	10:05:02	1124246	5c284ae48e845b0001fc40aa	13880952	1	main_slash	11	main_slash	39	stimuli_distractor_trianglediamonds.svg	stimuli_target_trianglesquares.svg	26	yes	53	1	1128
6.6.1	win	2022-12-15	09:46:16	10:05:02	1124246	5c284ae48e845b0001fc40aa	13880952	1	main_slash	11	advance_on_keypress_SLASH	40	stimuli_distractor_trianglediamonds.svg	stimuli_target_trianglesquares.svg	26	yes	57	0	624
6.6.1	win	2022-12-15	09:46:16	10:05:04	1126125	5c284ae48e845b0001fc40aa	13880952	1	main_slash	11	main_slash	41	stimuli_distractor_trianglediamonds.svg	stimuli_target_diamondcircles.svg	27	yes	53	1	622
6.6.1	win	2022-12-15	09:46:16	10:05:04	1126125	5c284ae48e845b0001fc40aa	13880952	1	main_slash	11	advance_on_keypress_SLASH	42	stimuli_distractor_trianglediamonds.svg	stimuli_target_diamondcircles.svg	27	yes	57	0	437
6.6.1	win	2022-12-15	09:46:16	10:05:06	1127858	5c284ae48e845b0001fc40aa	13880952	1	main_slash	11	main_slash	43	stimuli_target_diamondsquares.svg	stimuli_distractor_trianglediamonds.svg	20	yes	53	1	652
6.6.1	win	2022-12-15	09:46:16	10:05:06	1127858	5c284ae48e845b0001fc40aa	13880952	1	main_slash	11	advance_on_keypress_SLASH	44	stimuli_target_diamondsquares.svg	stimuli_distractor_trianglediamonds.svg	20	yes	57	0	502
6.6.1	win	2022-12-15	09:46:16	10:05:08	1130119	5c284ae48e845b0001fc40aa	13880952	1	main_slash	11	main_slash	45	stimuli_distractor_diamondtriangles.svg	stimuli_target_squarediamonds.svg	16	yes	53	1	1112
6.6.1	win	2022-12-15	09:46:16	10:05:08	1130119	5c284ae48e845b0001fc40aa	13880952	1	main_slash	11	advance_on_keypress_SLASH	46	stimuli_distractor_diamondtriangles.svg	stimuli_target_squarediamonds.svg	16	yes	57	0	489
6.6.1	win	2022-12-15	09:46:16	10:05:10	1131817	5c284ae48e845b0001fc40aa	13880952	1	main_slash	11	main_slash	47	stimuli_distractor_diamondtriangles.svg	stimuli_target_circlediamonds.svg	14	yes	53	1	575
6.6.1	win	2022-12-15	09:46:16	10:05:10	1131817	5c284ae48e845b0001fc40aa	13880952	1	main_slash	11	advance_on_keypress_SLASH	48	stimuli_distractor_diamondtriangles.svg	stimuli_target_circlediamonds.svg	14	yes	57	0	384
6.6.1	win	2022-12-15	09:46:16	10:05:11	1133482	5c284ae48e845b0001fc40aa	13880952	1	main_slash	11	main_slash	49	stimuli_distractor_diamondtriangles.svg	stimuli_target_squaretriangles.svg	15	yes	53	1	638
6.6.1	win	2022-12-15	09:46:16	10:05:11	1133482	5c284ae48e845b0001fc40aa	13880952	1	main_slash	11	advance_on_keypress_SLASH	50	stimuli_distractor_diamondtriangles.svg	stimuli_target_squaretriangles.svg	15	yes	57	0	325
6.6.1	win	2022-12-15	09:46:16	10:05:13	1134956	5c284ae48e845b0001fc40aa	13880952	1	main_slash	11	main_slash	51	stimuli_target_circletriangles.svg	stimuli_distractor_trianglediamonds.svg	1	yes	53	1	511
6.6.1	win	2022-12-15	09:46:16	10:05:13	1134956	5c284ae48e845b0001fc40aa	13880952	1	main_slash	11	advance_on_keypress_SLASH	52	stimuli_target_circletriangles.svg	stimuli_distractor_trianglediamonds.svg	1	yes	57	0	352
6.6.1	win	2022-12-15	09:46:16	10:05:14	1136644	5c284ae48e845b0001fc40aa	13880952	1	main_slash	11	main_slash	53	stimuli_distractor_diamondtriangles.svg	stimuli_distractor_trianglediamonds.svg	37	no	53	0	697
6.6.1	win	2022-12-15	09:46:16	10:05:14	1136644	5c284ae48e845b0001fc40aa	13880952	1	main_slash	11	advance_on_keypress_SLASH	54	stimuli_distractor_diamondtriangles.svg	stimuli_distractor_trianglediamonds.svg	37	no	57	0	356
6.6.1	win	2022-12-15	09:46:16	10:05:16	1138297	5c284ae48e845b0001fc40aa	13880952	1	main_slash	11	main_slash	55	stimuli_distractor_trianglediamonds.svg	stimuli_target_squaretriangles.svg	11	yes	53	1	665
6.6.1	win	2022-12-15	09:46:16	10:05:16	1138297	5c284ae48e845b0001fc40aa	13880952	1	main_slash	11	advance_on_keypress_SLASH	56	stimuli_distractor_trianglediamonds.svg	stimuli_target_squaretriangles.svg	11	yes	57	0	374
6.6.1	win	2022-12-15	09:46:16	10:05:18	1139850	5c284ae48e845b0001fc40aa	13880952	1	main_slash	11	main_slash	57	stimuli_target_circlediamonds.svg	stimuli_distractor_diamondtriangles.svg	6	yes	53	1	533
6.6.1	win	2022-12-15	09:46:16	10:05:18	1139850	5c284ae48e845b0001fc40aa	13880952	1	main_slash	11	advance_on_keypress_SLASH	58	stimuli_target_circlediamonds.svg	stimuli_distractor_diamondtriangles.svg	6	yes	57	0	6313
6.6.1	win	2022-12-15	09:46:16	10:05:27	1148808	5c284ae48e845b0001fc40aa	13880952	1	main_slash	11	main_slash	59	stimuli_distractor_diamondtriangles.svg	stimuli_distractor_diamondtriangles.svg	39	no	0	1	2000
6.6.1	win	2022-12-15	09:46:16	10:05:27	1148808	5c284ae48e845b0001fc40aa	13880952	1	main_slash	11	advance_on_keypress_SLASH	60	stimuli_distractor_diamondtriangles.svg	stimuli_distractor_diamondtriangles.svg	39	no	57	0	616
6.6.1	win	2022-12-15	09:46:16	10:05:30	1152078	5c284ae48e845b0001fc40aa	13880952	1	main_slash	11	main_slash	61	stimuli_distractor_diamondtriangles.svg	stimuli_distractor_diamondtriangles.svg	40	no	0	1	2000
6.6.1	win	2022-12-15	09:46:16	10:05:30	1152078	5c284ae48e845b0001fc40aa	13880952	1	main_slash	11	advance_on_keypress_SLASH	62	stimuli_distractor_diamondtriangles.svg	stimuli_distractor_diamondtriangles.svg	40	no	57	0	488
6.6.1	win	2022-12-15	09:46:16	10:05:32	1154048	5c284ae48e845b0001fc40aa	13880952	1	main_slash	11	main_slash	63	stimuli_target_diamondcircles.svg	stimuli_distractor_trianglediamonds.svg	19	yes	53	1	834
6.6.1	win	2022-12-15	09:46:16	10:05:32	1154048	5c284ae48e845b0001fc40aa	13880952	1	main_slash	11	advance_on_keypress_SLASH	64	stimuli_target_diamondcircles.svg	stimuli_distractor_trianglediamonds.svg	19	yes	57	0	814
6.6.1	win	2022-12-15	09:46:16	10:05:34	1156140	5c284ae48e845b0001fc40aa	13880952	1	main_slash	11	main_slash	65	stimuli_distractor_trianglediamonds.svg	stimuli_target_squarediamonds.svg	12	yes	53	1	623
6.6.1	win	2022-12-15	09:46:16	10:05:34	1156140	5c284ae48e845b0001fc40aa	13880952	1	main_slash	11	advance_on_keypress_SLASH	66	stimuli_distractor_trianglediamonds.svg	stimuli_target_squarediamonds.svg	12	yes	57	0	282
6.6.1	win	2022-12-15	09:46:16	10:05:35	1157648	5c284ae48e845b0001fc40aa	13880952	1	main_slash	11	main_slash	67	stimuli_target_squaretriangles.svg	stimuli_distractor_diamondtriangles.svg	7	yes	53	1	580
6.6.1	win	2022-12-15	09:46:16	10:05:35	1157648	5c284ae48e845b0001fc40aa	13880952	1	main_slash	11	advance_on_keypress_SLASH	68	stimuli_target_squaretriangles.svg	stimuli_distractor_diamondtriangles.svg	7	yes	57	0	299
6.6.1	win	2022-12-15	09:46:16	10:05:37	1159369	5c284ae48e845b0001fc40aa	13880952	1	main_slash	11	main_slash	69	stimuli_target_diamondsquares.svg	stimuli_distractor_diamondtriangles.svg	24	yes	53	1	783
6.6.1	win	2022-12-15	09:46:16	10:05:37	1159369	5c284ae48e845b0001fc40aa	13880952	1	main_slash	11	advance_on_keypress_SLASH	70	stimuli_target_diamondsquares.svg	stimuli_distractor_diamondtriangles.svg	24	yes	57	0	263
6.6.1	win	2022-12-15	09:46:16	10:05:40	1162288	5c284ae48e845b0001fc40aa	13880952	1	main_slash	11	main_slash	71	stimuli_distractor_trianglediamonds.svg	stimuli_distractor_trianglediamonds.svg	33	no	0	1	2000
6.6.1	win	2022-12-15	09:46:16	10:05:40	1162288	5c284ae48e845b0001fc40aa	13880952	1	main_slash	11	advance_on_keypress_SLASH	72	stimuli_distractor_trianglediamonds.svg	stimuli_distractor_trianglediamonds.svg	33	no	57	0	671
6.6.1	win	2022-12-15	09:46:16	10:05:42	1164218	5c284ae48e845b0001fc40aa	13880952	1	main_slash	11	main_slash	73	stimuli_distractor_trianglediamonds.svg	stimuli_target_circletriangles.svg	9	yes	53	1	610
6.6.1	win	2022-12-15	09:46:16	10:05:42	1164218	5c284ae48e845b0001fc40aa	13880952	1	main_slash	11	advance_on_keypress_SLASH	74	stimuli_distractor_trianglediamonds.svg	stimuli_target_circletriangles.svg	9	yes	57	0	318
6.6.1	win	2022-12-15	09:46:16	10:05:44	1165759	5c284ae48e845b0001fc40aa	13880952	1	main_slash	11	main_slash	75	stimuli_target_trianglesquares.svg	stimuli_distractor_trianglediamonds.svg	18	yes	53	1	583
6.6.1	win	2022-12-15	09:46:16	10:05:44	1165759	5c284ae48e845b0001fc40aa	13880952	1	main_slash	11	advance_on_keypress_SLASH	76	stimuli_target_trianglesquares.svg	stimuli_distractor_trianglediamonds.svg	18	yes	57	0	286
6.6.1	win	2022-12-15	09:46:16	10:05:45	1167390	5c284ae48e845b0001fc40aa	13880952	1	main_slash	11	main_slash	77	stimuli_target_squaretriangles.svg	stimuli_distractor_trianglediamonds.svg	3	yes	53	1	696
6.6.1	win	2022-12-15	09:46:16	10:05:45	1167390	5c284ae48e845b0001fc40aa	13880952	1	main_slash	11	advance_on_keypress_SLASH	78	stimuli_target_squaretriangles.svg	stimuli_distractor_trianglediamonds.svg	3	yes	57	0	253
6.6.1	win	2022-12-15	09:46:16	10:05:47	1168865	5c284ae48e845b0001fc40aa	13880952	1	main_slash	11	main_slash	79	stimuli_target_trianglecircles.svg	stimuli_distractor_trianglediamonds.svg	17	yes	53	1	585
6.6.1	win	2022-12-15	09:46:16	10:05:47	1168865	5c284ae48e845b0001fc40aa	13880952	1	main_slash	11	advance_on_keypress_SLASH	80	stimuli_target_trianglecircles.svg	stimuli_distractor_trianglediamonds.svg	17	yes	57	0	231
6.6.1	win	2022-12-15	09:46:16	10:05:48	1170350	5c284ae48e845b0001fc40aa	13880952	1	main_slash	11	main_slash	81	stimuli_distractor_trianglediamonds.svg	stimuli_target_circletriangles.svg	9	yes	53	1	602
6.6.1	win	2022-12-15	09:46:16	10:05:48	1170350	5c284ae48e845b0001fc40aa	13880952	1	main_slash	11	advance_on_keypress_SLASH	82	stimuli_distractor_trianglediamonds.svg	stimuli_target_circletriangles.svg	9	yes	57	0	254
6.6.1	win	2022-12-15	09:46:16	10:05:50	1171856	5c284ae48e845b0001fc40aa	13880952	1	main_slash	11	main_slash	83	stimuli_distractor_trianglediamonds.svg	stimuli_target_trianglesquares.svg	26	yes	53	1	607
6.6.1	win	2022-12-15	09:46:16	10:05:50	1171856	5c284ae48e845b0001fc40aa	13880952	1	main_slash	11	advance_on_keypress_SLASH	84	stimuli_distractor_trianglediamonds.svg	stimuli_target_trianglesquares.svg	26	yes	57	0	282
6.6.1	win	2022-12-15	09:46:16	10:05:53	1174784	5c284ae48e845b0001fc40aa	13880952	1	main_slash	11	main_slash	85	stimuli_distractor_diamondtriangles.svg	stimuli_target_squarediamonds.svg	16	yes	0	0	2000
6.6.1	win	2022-12-15	09:46:16	10:05:53	1174784	5c284ae48e845b0001fc40aa	13880952	1	main_slash	11	advance_on_keypress_SLASH	86	stimuli_distractor_diamondtriangles.svg	stimuli_target_squarediamonds.svg	16	yes	57	0	1396
6.6.1	win	2022-12-15	09:46:16	10:05:57	1178822	5c284ae48e845b0001fc40aa	13880952	1	main_slash	11	main_slash	87	stimuli_distractor_trianglediamonds.svg	stimuli_distractor_trianglediamonds.svg	33	no	0	1	2000
6.6.1	win	2022-12-15	09:46:16	10:05:57	1178822	5c284ae48e845b0001fc40aa	13880952	1	main_slash	11	advance_on_keypress_SLASH	88	stimuli_distractor_trianglediamonds.svg	stimuli_distractor_trianglediamonds.svg	33	no	57	0	618
6.6.1	win	2022-12-15	09:46:16	10:05:58	1180710	5c284ae48e845b0001fc40aa	13880952	1	main_slash	11	main_slash	89	stimuli_distractor_trianglediamonds.svg	stimuli_target_squaretriangles.svg	11	yes	53	1	619
6.6.1	win	2022-12-15	09:46:16	10:05:58	1180710	5c284ae48e845b0001fc40aa	13880952	1	main_slash	11	advance_on_keypress_SLASH	90	stimuli_distractor_trianglediamonds.svg	stimuli_target_squaretriangles.svg	11	yes	57	0	289
6.6.1	win	2022-12-15	09:46:16	10:06:00	1182240	5c284ae48e845b0001fc40aa	13880952	1	main_slash	11	main_slash	91	stimuli_target_circletriangles.svg	stimuli_distractor_trianglediamonds.svg	1	yes	53	1	597
6.6.1	win	2022-12-15	09:46:16	10:06:00	1182240	5c284ae48e845b0001fc40aa	13880952	1	main_slash	11	advance_on_keypress_SLASH	92	stimuli_target_circletriangles.svg	stimuli_distractor_trianglediamonds.svg	1	yes	57	0	328
6.6.1	win	2022-12-15	09:46:16	10:06:02	1183917	5c284ae48e845b0001fc40aa	13880952	1	main_slash	11	main_slash	93	stimuli_distractor_diamondtriangles.svg	stimuli_target_trianglecircles.svg	29	yes	53	1	705
6.6.1	win	2022-12-15	09:46:16	10:06:02	1183917	5c284ae48e845b0001fc40aa	13880952	1	main_slash	11	advance_on_keypress_SLASH	94	stimuli_distractor_diamondtriangles.svg	stimuli_target_trianglecircles.svg	29	yes	57	0	235
6.6.1	win	2022-12-15	09:46:16	10:06:03	1185334	5c284ae48e845b0001fc40aa	13880952	1	main_slash	11	main_slash	95	stimuli_distractor_trianglediamonds.svg	stimuli_target_trianglecircles.svg	25	yes	53	1	538
6.6.1	win	2022-12-15	09:46:16	10:06:03	1185334	5c284ae48e845b0001fc40aa	13880952	1	main_slash	11	advance_on_keypress_SLASH	96	stimuli_distractor_trianglediamonds.svg	stimuli_target_trianglecircles.svg	25	yes	57	0	279
6.6.1	win	2022-12-15	09:46:16	10:06:05	1186774	5c284ae48e845b0001fc40aa	13880952	1	main_slash	11	main_slash	97	stimuli_target_circlediamonds.svg	stimuli_distractor_diamondtriangles.svg	6	yes	53	1	527
6.6.1	win	2022-12-15	09:46:16	10:06:05	1186774	5c284ae48e845b0001fc40aa	13880952	1	main_slash	11	advance_on_keypress_SLASH	98	stimuli_target_circlediamonds.svg	stimuli_distractor_diamondtriangles.svg	6	yes	57	0	284
6.6.1	win	2022-12-15	09:46:16	10:06:07	1189699	5c284ae48e845b0001fc40aa	13880952	1	main_slash	11	main_slash	99	stimuli_distractor_trianglediamonds.svg	stimuli_distractor_diamondtriangles.svg	35	no	0	1	2000
6.6.1	win	2022-12-15	09:46:16	10:06:07	1189699	5c284ae48e845b0001fc40aa	13880952	1	main_slash	11	advance_on_keypress_SLASH	100	stimuli_distractor_trianglediamonds.svg	stimuli_distractor_diamondtriangles.svg	35	no	57	0	665
6.6.1	win	2022-12-15	09:46:16	10:06:10	1191803	5c284ae48e845b0001fc40aa	13880952	1	main_slash	11	main_slash	101	stimuli_distractor_diamondtriangles.svg	stimuli_target_diamondcircles.svg	31	yes	53	1	784
6.6.1	win	2022-12-15	09:46:16	10:06:10	1191803	5c284ae48e845b0001fc40aa	13880952	1	main_slash	11	advance_on_keypress_SLASH	102	stimuli_distractor_diamondtriangles.svg	stimuli_target_diamondcircles.svg	31	yes	57	0	309
6.6.1	win	2022-12-15	09:46:16	10:06:11	1193423	5c284ae48e845b0001fc40aa	13880952	1	main_slash	11	main_slash	103	stimuli_target_squaretriangles.svg	stimuli_distractor_diamondtriangles.svg	7	yes	53	1	669
6.6.1	win	2022-12-15	09:46:16	10:06:11	1193423	5c284ae48e845b0001fc40aa	13880952	1	main_slash	11	advance_on_keypress_SLASH	104	stimuli_target_squaretriangles.svg	stimuli_distractor_diamondtriangles.svg	7	yes	57	0	289
6.6.1	win	2022-12-15	09:46:16	10:06:13	1194919	5c284ae48e845b0001fc40aa	13880952	1	main_slash	11	main_slash	105	stimuli_target_diamondcircles.svg	stimuli_distractor_trianglediamonds.svg	19	yes	53	1	564
6.6.1	win	2022-12-15	09:46:16	10:06:13	1194919	5c284ae48e845b0001fc40aa	13880952	1	main_slash	11	advance_on_keypress_SLASH	106	stimuli_target_diamondcircles.svg	stimuli_distractor_trianglediamonds.svg	19	yes	57	0	468
6.6.1	win	2022-12-15	09:46:16	10:06:14	1196573	5c284ae48e845b0001fc40aa	13880952	1	main_slash	11	main_slash	107	stimuli_distractor_diamondtriangles.svg	stimuli_target_circlediamonds.svg	14	yes	53	1	550
6.6.1	win	2022-12-15	09:46:16	10:06:14	1196573	5c284ae48e845b0001fc40aa	13880952	1	main_slash	11	advance_on_keypress_SLASH	108	stimuli_distractor_diamondtriangles.svg	stimuli_target_circlediamonds.svg	14	yes	57	0	342
6.6.1	win	2022-12-15	09:46:16	10:06:16	1198114	5c284ae48e845b0001fc40aa	13880952	1	main_slash	11	main_slash	109	stimuli_distractor_trianglediamonds.svg	stimuli_target_circlediamonds.svg	10	yes	53	1	556
6.6.1	win	2022-12-15	09:46:16	10:06:16	1198114	5c284ae48e845b0001fc40aa	13880952	1	main_slash	11	advance_on_keypress_SLASH	110	stimuli_distractor_trianglediamonds.svg	stimuli_target_circlediamonds.svg	10	yes	57	0	337
6.6.1	win	2022-12-15	09:46:16	10:06:17	1199566	5c284ae48e845b0001fc40aa	13880952	1	main_slash	11	main_slash	111	stimuli_target_squaretriangles.svg	stimuli_distractor_trianglediamonds.svg	3	yes	53	1	472
6.6.1	win	2022-12-15	09:46:16	10:06:17	1199566	5c284ae48e845b0001fc40aa	13880952	1	main_slash	11	advance_on_keypress_SLASH	112	stimuli_target_squaretriangles.svg	stimuli_distractor_trianglediamonds.svg	3	yes	57	0	325
6.6.1	win	2022-12-15	09:46:16	10:06:20	1202528	5c284ae48e845b0001fc40aa	13880952	1	main_slash	11	main_slash	113	stimuli_distractor_diamondtriangles.svg	stimuli_distractor_diamondtriangles.svg	39	no	0	1	2000
6.6.1	win	2022-12-15	09:46:16	10:06:20	1202528	5c284ae48e845b0001fc40aa	13880952	1	main_slash	11	advance_on_keypress_SLASH	114	stimuli_distractor_diamondtriangles.svg	stimuli_distractor_diamondtriangles.svg	39	no	57	0	570
6.6.1	win	2022-12-15	09:46:16	10:06:22	1204493	5c284ae48e845b0001fc40aa	13880952	1	main_slash	11	main_slash	115	stimuli_target_diamondsquares.svg	stimuli_distractor_diamondtriangles.svg	24	yes	53	1	745
6.6.1	win	2022-12-15	09:46:16	10:06:22	1204493	5c284ae48e845b0001fc40aa	13880952	1	main_slash	11	advance_on_keypress_SLASH	116	stimuli_target_diamondsquares.svg	stimuli_distractor_diamondtriangles.svg	24	yes	57	0	286
6.6.1	win	2022-12-15	09:46:16	10:06:24	1206136	5c284ae48e845b0001fc40aa	13880952	1	main_slash	11	main_slash	117	stimuli_distractor_diamondtriangles.svg	stimuli_target_circletriangles.svg	13	yes	53	1	719
6.6.1	win	2022-12-15	09:46:16	10:06:24	1206136	5c284ae48e845b0001fc40aa	13880952	1	main_slash	11	advance_on_keypress_SLASH	118	stimuli_distractor_diamondtriangles.svg	stimuli_target_circletriangles.svg	13	yes	57	0	513
6.6.1	win	2022-12-15	09:46:16	10:06:27	1209302	5c284ae48e845b0001fc40aa	13880952	1	main_slash	11	main_slash	119	stimuli_distractor_diamondtriangles.svg	stimuli_distractor_trianglediamonds.svg	37	no	0	1	2000
6.6.1	win	2022-12-15	09:46:16	10:06:27	1209302	5c284ae48e845b0001fc40aa	13880952	1	main_slash	11	advance_on_keypress_SLASH	120	stimuli_distractor_diamondtriangles.svg	stimuli_distractor_trianglediamonds.svg	37	no	57	0	681
6.6.1	win	2022-12-15	09:46:16	10:06:30	1212638	5c284ae48e845b0001fc40aa	13880952	1	main_slash	11	main_slash	121	stimuli_target_trianglesquares.svg	stimuli_distractor_diamondtriangles.svg	22	yes	0	0	2000
6.6.1	win	2022-12-15	09:46:16	10:06:30	1212638	5c284ae48e845b0001fc40aa	13880952	1	main_slash	11	advance_on_keypress_SLASH	122	stimuli_target_trianglesquares.svg	stimuli_distractor_diamondtriangles.svg	22	yes	57	0	787
6.6.1	win	2022-12-15	09:46:16	10:06:33	1214809	5c284ae48e845b0001fc40aa	13880952	1	main_slash	11	main_slash	123	stimuli_target_diamondsquares.svg	stimuli_distractor_trianglediamonds.svg	20	yes	53	1	734
6.6.1	win	2022-12-15	09:46:16	10:06:33	1214809	5c284ae48e845b0001fc40aa	13880952	1	main_slash	11	advance_on_keypress_SLASH	124	stimuli_target_diamondsquares.svg	stimuli_distractor_trianglediamonds.svg	20	yes	57	0	310
6.6.1	win	2022-12-15	09:46:16	10:06:36	1217760	5c284ae48e845b0001fc40aa	13880952	1	main_slash	11	main_slash	125	stimuli_distractor_trianglediamonds.svg	stimuli_distractor_trianglediamonds.svg	34	no	0	1	2000
6.6.1	win	2022-12-15	09:46:16	10:06:36	1217760	5c284ae48e845b0001fc40aa	13880952	1	main_slash	11	advance_on_keypress_SLASH	126	stimuli_distractor_trianglediamonds.svg	stimuli_distractor_trianglediamonds.svg	34	no	57	0	650
6.6.1	win	2022-12-15	09:46:16	10:06:38	1219849	5c284ae48e845b0001fc40aa	13880952	1	main_slash	11	main_slash	127	stimuli_distractor_diamondtriangles.svg	stimuli_target_trianglesquares.svg	30	yes	53	1	786
6.6.1	win	2022-12-15	09:46:16	10:06:38	1219849	5c284ae48e845b0001fc40aa	13880952	1	main_slash	11	advance_on_keypress_SLASH	128	stimuli_distractor_diamondtriangles.svg	stimuli_target_trianglesquares.svg	30	yes	57	0	1436
6.6.1	win	2022-12-15	09:46:16	10:06:40	1222482	5c284ae48e845b0001fc40aa	13880952	1	main_slash	11	main_slash	129	stimuli_distractor_trianglediamonds.svg	stimuli_target_squarediamonds.svg	12	yes	53	1	549
6.6.1	win	2022-12-15	09:46:16	10:06:40	1222482	5c284ae48e845b0001fc40aa	13880952	1	main_slash	11	advance_on_keypress_SLASH	130	stimuli_distractor_trianglediamonds.svg	stimuli_target_squarediamonds.svg	12	yes	57	0	971
6.6.1	win	2022-12-15	09:46:16	10:06:42	1224642	5c284ae48e845b0001fc40aa	13880952	1	main_slash	11	main_slash	131	stimuli_distractor_trianglediamonds.svg	stimuli_target_diamondcircles.svg	27	yes	53	1	540
6.6.1	win	2022-12-15	09:46:16	10:06:42	1224642	5c284ae48e845b0001fc40aa	13880952	1	main_slash	11	advance_on_keypress_SLASH	132	stimuli_distractor_trianglediamonds.svg	stimuli_target_diamondcircles.svg	27	yes	57	0	1350
6.6.1	win	2022-12-15	09:46:16	10:06:45	1227241	5c284ae48e845b0001fc40aa	13880952	1	main_slash	11	main_slash	133	stimuli_target_trianglecircles.svg	stimuli_distractor_trianglediamonds.svg	17	yes	53	1	603
6.6.1	win	2022-12-15	09:46:16	10:06:45	1227241	5c284ae48e845b0001fc40aa	13880952	1	main_slash	11	advance_on_keypress_SLASH	134	stimuli_target_trianglecircles.svg	stimuli_distractor_trianglediamonds.svg	17	yes	57	0	762
6.6.1	win	2022-12-15	09:46:16	10:06:48	1230640	5c284ae48e845b0001fc40aa	13880952	1	main_slash	11	main_slash	135	stimuli_distractor_diamondtriangles.svg	stimuli_distractor_diamondtriangles.svg	40	no	0	1	2000
6.6.1	win	2022-12-15	09:46:16	10:06:48	1230640	5c284ae48e845b0001fc40aa	13880952	1	main_slash	11	advance_on_keypress_SLASH	136	stimuli_distractor_diamondtriangles.svg	stimuli_distractor_diamondtriangles.svg	40	no	57	0	505
6.6.1	win	2022-12-15	09:46:16	10:06:50	1232393	5c284ae48e845b0001fc40aa	13880952	1	main_slash	11	main_slash	137	stimuli_target_circlediamonds.svg	stimuli_distractor_trianglediamonds.svg	2	yes	53	1	600
6.6.1	win	2022-12-15	09:46:16	10:06:50	1232393	5c284ae48e845b0001fc40aa	13880952	1	main_slash	11	advance_on_keypress_SLASH	138	stimuli_target_circlediamonds.svg	stimuli_distractor_trianglediamonds.svg	2	yes	57	0	736
6.6.1	win	2022-12-15	09:46:16	10:06:52	1234339	5c284ae48e845b0001fc40aa	13880952	1	main_slash	11	main_slash	139	stimuli_target_trianglesquares.svg	stimuli_distractor_trianglediamonds.svg	18	yes	53	1	561
6.6.1	win	2022-12-15	09:46:16	10:06:52	1234339	5c284ae48e845b0001fc40aa	13880952	1	main_slash	11	advance_on_keypress_SLASH	140	stimuli_target_trianglesquares.svg	stimuli_distractor_trianglediamonds.svg	18	yes	57	0	568
6.6.1	win	2022-12-15	09:46:16	10:06:54	1236308	5c284ae48e845b0001fc40aa	13880952	1	main_slash	11	main_slash	141	stimuli_distractor_trianglediamonds.svg	stimuli_target_diamondsquares.svg	28	yes	53	1	762
6.6.1	win	2022-12-15	09:46:16	10:06:54	1236308	5c284ae48e845b0001fc40aa	13880952	1	main_slash	11	advance_on_keypress_SLASH	142	stimuli_distractor_trianglediamonds.svg	stimuli_target_diamondsquares.svg	28	yes	57	0	275
6.6.1	win	2022-12-15	09:46:16	10:06:56	1237782	5c284ae48e845b0001fc40aa	13880952	1	main_slash	11	main_slash	143	stimuli_distractor_diamondtriangles.svg	stimuli_target_squaretriangles.svg	15	yes	53	1	567
6.6.1	win	2022-12-15	09:46:16	10:06:56	1237782	5c284ae48e845b0001fc40aa	13880952	1	main_slash	11	advance_on_keypress_SLASH	144	stimuli_distractor_diamondtriangles.svg	stimuli_target_squaretriangles.svg	15	yes	57	0	377
6.6.1	win	2022-12-15	09:46:16	10:06:59	1240800	5c284ae48e845b0001fc40aa	13880952	1	main_slash	11	main_slash	145	stimuli_distractor_trianglediamonds.svg	stimuli_distractor_diamondtriangles.svg	36	no	0	1	2000
6.6.1	win	2022-12-15	09:46:16	10:06:59	1240800	5c284ae48e845b0001fc40aa	13880952	1	main_slash	11	advance_on_keypress_SLASH	146	stimuli_distractor_trianglediamonds.svg	stimuli_distractor_diamondtriangles.svg	36	no	57	0	492
6.6.1	win	2022-12-15	09:46:16	10:07:00	1242507	5c284ae48e845b0001fc40aa	13880952	1	main_slash	11	main_slash	147	stimuli_target_diamondcircles.svg	stimuli_distractor_diamondtriangles.svg	23	yes	53	1	571
6.6.1	win	2022-12-15	09:46:16	10:07:00	1242507	5c284ae48e845b0001fc40aa	13880952	1	main_slash	11	advance_on_keypress_SLASH	148	stimuli_target_diamondcircles.svg	stimuli_distractor_diamondtriangles.svg	23	yes	57	0	492
6.6.1	win	2022-12-15	09:46:16	10:07:02	1244240	5c284ae48e845b0001fc40aa	13880952	1	main_slash	11	main_slash	149	stimuli_distractor_diamondtriangles.svg	stimuli_target_diamondsquares.svg	32	yes	53	1	602
6.6.1	win	2022-12-15	09:46:16	10:07:02	1244240	5c284ae48e845b0001fc40aa	13880952	1	main_slash	11	advance_on_keypress_SLASH	150	stimuli_distractor_diamondtriangles.svg	stimuli_target_diamondsquares.svg	32	yes	57	0	332
6.6.1	win	2022-12-15	09:46:16	10:07:03	1245668	5c284ae48e845b0001fc40aa	13880952	1	main_slash	11	main_slash	151	stimuli_target_trianglecircles.svg	stimuli_distractor_diamondtriangles.svg	21	yes	53	1	445
6.6.1	win	2022-12-15	09:46:16	10:07:03	1245668	5c284ae48e845b0001fc40aa	13880952	1	main_slash	11	advance_on_keypress_SLASH	152	stimuli_target_trianglecircles.svg	stimuli_distractor_diamondtriangles.svg	21	yes	57	0	320
6.6.1	win	2022-12-15	09:46:16	10:07:05	1247254	5c284ae48e845b0001fc40aa	13880952	1	main_slash	11	main_slash	153	stimuli_target_squarediamonds.svg	stimuli_distractor_trianglediamonds.svg	4	yes	53	1	630
6.6.1	win	2022-12-15	09:46:16	10:07:05	1247254	5c284ae48e845b0001fc40aa	13880952	1	main_slash	11	advance_on_keypress_SLASH	154	stimuli_target_squarediamonds.svg	stimuli_distractor_trianglediamonds.svg	4	yes	57	0	265
6.6.1	win	2022-12-15	09:46:16	10:07:06	1248616	5c284ae48e845b0001fc40aa	13880952	1	main_slash	11	main_slash	155	stimuli_target_circletriangles.svg	stimuli_distractor_diamondtriangles.svg	5	yes	53	1	457
6.6.1	win	2022-12-15	09:46:16	10:07:06	1248616	5c284ae48e845b0001fc40aa	13880952	1	main_slash	11	advance_on_keypress_SLASH	156	stimuli_target_circletriangles.svg	stimuli_distractor_diamondtriangles.svg	5	yes	57	0	315
6.6.1	win	2022-12-15	09:46:16	10:07:09	1251577	5c284ae48e845b0001fc40aa	13880952	1	main_slash	11	main_slash	157	stimuli_distractor_diamondtriangles.svg	stimuli_distractor_trianglediamonds.svg	38	no	0	1	2000
6.6.1	win	2022-12-15	09:46:16	10:07:09	1251577	5c284ae48e845b0001fc40aa	13880952	1	main_slash	11	advance_on_keypress_SLASH	158	stimuli_distractor_diamondtriangles.svg	stimuli_distractor_trianglediamonds.svg	38	no	57	0	538
6.6.1	win	2022-12-15	09:46:16	10:07:12	1254038	5c284ae48e845b0001fc40aa	13880952	1	main_slash	11	main_slash	159	stimuli_target_squarediamonds.svg	stimuli_distractor_diamondtriangles.svg	8	yes	53	1	1274
6.6.1	win	2022-12-15	09:46:16	10:07:12	1254038	5c284ae48e845b0001fc40aa	13880952	1	main_slash	11	advance_on_keypress_SLASH	160	stimuli_target_squarediamonds.svg	stimuli_distractor_diamondtriangles.svg	8	yes	57	0	631