build	computer.platform	date	time	timestamp	time_elapsed_ms	subject	group	session	blockcode	blocknum	trialcode	trialnum	stimulus_left	stimulus_right	stim_index	target_present	response	correct	latency
6.6.1	win	2022-12-14	20:06:22	20:08:04	101412	62713a003caa3feec5c6a0ba	291454553	1	practice_slash	5	practice_slash	1	stimuli_target_circlediamonds.svg	stimuli_distractor_diamondtriangles.svg	1	yes	53	1	673
6.6.1	win	2022-12-14	20:06:22	20:08:04	101412	62713a003caa3feec5c6a0ba	291454553	1	practice_slash	5	advance_on_keypress_SLASH	2	stimuli_target_circlediamonds.svg	stimuli_distractor_diamondtriangles.svg	1	yes	57	0	1283
6.6.1	win	2022-12-14	20:06:22	20:08:09	106468	62713a003caa3feec5c6a0ba	291454553	1	practice_slash	5	practice_slash	3	stimuli_distractor_trianglediamonds.svg	stimuli_distractor_trianglediamonds.svg	15	no	0	1	2003
6.6.1	win	2022-12-14	20:06:22	20:08:09	106468	62713a003caa3feec5c6a0ba	291454553	1	practice_slash	5	advance_on_keypress_SLASH	4	stimuli_distractor_trianglediamonds.svg	stimuli_distractor_trianglediamonds.svg	15	no	57	0	995
6.6.1	win	2022-12-14	20:06:22	20:08:13	109787	62713a003caa3feec5c6a0ba	291454553	1	practice_slash	5	practice_slash	5	stimuli_target_squarediamonds.svg	stimuli_distractor_trianglediamonds.svg	5	yes	53	1	628
6.6.1	win	2022-12-14	20:06:22	20:08:13	109787	62713a003caa3feec5c6a0ba	291454553	1	practice_slash	5	advance_on_keypress_SLASH	6	stimuli_target_squarediamonds.svg	stimuli_distractor_trianglediamonds.svg	5	yes	57	0	435
6.6.1	win	2022-12-14	20:06:22	20:08:15	112444	62713a003caa3feec5c6a0ba	291454553	1	practice_slash	5	practice_slash	7	stimuli_target_circlediamonds.svg	stimuli_distractor_trianglediamonds.svg	4	yes	53	1	608
6.6.1	win	2022-12-14	20:06:22	20:08:15	112444	62713a003caa3feec5c6a0ba	291454553	1	practice_slash	5	advance_on_keypress_SLASH	8	stimuli_target_circlediamonds.svg	stimuli_distractor_trianglediamonds.svg	4	yes	57	0	331
6.6.1	win	2022-12-14	20:06:22	20:08:19	116469	62713a003caa3feec5c6a0ba	291454553	1	practice_slash	5	practice_slash	9	stimuli_distractor_trianglediamonds.svg	stimuli_target_circlediamonds.svg	10	yes	0	0	2003
6.6.1	win	2022-12-14	20:06:22	20:08:19	116469	62713a003caa3feec5c6a0ba	291454553	1	practice_slash	5	advance_on_keypress_SLASH	10	stimuli_distractor_trianglediamonds.svg	stimuli_target_circlediamonds.svg	10	yes	57	0	410
6.6.1	win	2022-12-14	20:06:22	20:08:23	120495	62713a003caa3feec5c6a0ba	291454553	1	practice_slash	5	practice_slash	11	stimuli_distractor_trianglediamonds.svg	stimuli_distractor_diamondtriangles.svg	16	no	0	1	2003
6.6.1	win	2022-12-14	20:06:22	20:08:23	120495	62713a003caa3feec5c6a0ba	291454553	1	practice_slash	5	advance_on_keypress_SLASH	12	stimuli_distractor_trianglediamonds.svg	stimuli_distractor_diamondtriangles.svg	16	no	57	0	328
6.6.1	win	2022-12-14	20:06:22	20:08:27	124439	62713a003caa3feec5c6a0ba	291454553	1	practice_slash	5	practice_slash	13	stimuli_distractor_trianglediamonds.svg	stimuli_target_squarediamonds.svg	11	yes	0	0	2003
6.6.1	win	2022-12-14	20:06:22	20:08:27	124439	62713a003caa3feec5c6a0ba	291454553	1	practice_slash	5	advance_on_keypress_SLASH	14	stimuli_distractor_trianglediamonds.svg	stimuli_target_squarediamonds.svg	11	yes	57	0	16
6.6.1	win	2022-12-14	20:06:22	20:08:30	126867	62713a003caa3feec5c6a0ba	291454553	1	practice_slash	5	practice_slash	15	stimuli_distractor_diamondtriangles.svg	stimuli_target_trianglecircles.svg	9	yes	53	1	795
6.6.1	win	2022-12-14	20:06:22	20:08:30	126867	62713a003caa3feec5c6a0ba	291454553	1	practice_slash	5	advance_on_keypress_SLASH	16	stimuli_distractor_diamondtriangles.svg	stimuli_target_trianglecircles.svg	9	yes	57	0	611
6.6.1	win	2022-12-14	20:06:22	20:08:33	129963	62713a003caa3feec5c6a0ba	291454553	1	practice_slash	5	practice_slash	17	stimuli_distractor_diamondtriangles.svg	stimuli_target_circletriangles.svg	7	yes	53	1	805
6.6.1	win	2022-12-14	20:06:22	20:08:33	129963	62713a003caa3feec5c6a0ba	291454553	1	practice_slash	5	advance_on_keypress_SLASH	18	stimuli_distractor_diamondtriangles.svg	stimuli_target_circletriangles.svg	7	yes	57	0	411
6.6.1	win	2022-12-14	20:06:22	20:08:37	134071	62713a003caa3feec5c6a0ba	291454553	1	practice_slash	5	practice_slash	19	stimuli_target_diamondsquares.svg	stimuli_distractor_diamondtriangles.svg	3	yes	0	0	2003
6.6.1	win	2022-12-14	20:06:22	20:08:37	134071	62713a003caa3feec5c6a0ba	291454553	1	practice_slash	5	advance_on_keypress_SLASH	20	stimuli_target_diamondsquares.svg	stimuli_distractor_diamondtriangles.svg	3	yes	57	0	375
6.6.1	win	2022-12-14	20:06:22	20:08:40	136804	62713a003caa3feec5c6a0ba	291454553	1	practice_slash	5	practice_slash	21	stimuli_target_diamondsquares.svg	stimuli_distractor_trianglediamonds.svg	6	yes	53	1	744
6.6.1	win	2022-12-14	20:06:22	20:08:40	136804	62713a003caa3feec5c6a0ba	291454553	1	practice_slash	5	advance_on_keypress_SLASH	22	stimuli_target_diamondsquares.svg	stimuli_distractor_trianglediamonds.svg	6	yes	57	0	347
6.6.1	win	2022-12-14	20:06:22	20:08:42	139131	62713a003caa3feec5c6a0ba	291454553	1	practice_slash	5	practice_slash	23	stimuli_target_squarediamonds.svg	stimuli_distractor_diamondtriangles.svg	2	yes	53	1	368
6.6.1	win	2022-12-14	20:06:22	20:08:42	139131	62713a003caa3feec5c6a0ba	291454553	1	practice_slash	5	advance_on_keypress_SLASH	24	stimuli_target_squarediamonds.svg	stimuli_distractor_diamondtriangles.svg	2	yes	57	0	283
6.6.1	win	2022-12-14	20:06:22	20:08:44	141475	62713a003caa3feec5c6a0ba	291454553	1	practice_slash	5	practice_slash	25	stimuli_distractor_diamondtriangles.svg	stimuli_target_diamondcircles.svg	8	yes	53	1	370
6.6.1	win	2022-12-14	20:06:22	20:08:44	141475	62713a003caa3feec5c6a0ba	291454553	1	practice_slash	5	advance_on_keypress_SLASH	26	stimuli_distractor_diamondtriangles.svg	stimuli_target_diamondcircles.svg	8	yes	57	0	188
6.6.1	win	2022-12-14	20:06:22	20:08:47	143691	62713a003caa3feec5c6a0ba	291454553	1	practice_slash	5	practice_slash	27	stimuli_distractor_trianglediamonds.svg	stimuli_target_diamondcircles.svg	12	yes	53	1	337
6.6.1	win	2022-12-14	20:06:22	20:08:47	143691	62713a003caa3feec5c6a0ba	291454553	1	practice_slash	5	advance_on_keypress_SLASH	28	stimuli_distractor_trianglediamonds.svg	stimuli_target_diamondcircles.svg	12	yes	57	0	179
6.6.1	win	2022-12-14	20:06:22	20:08:49	146018	62713a003caa3feec5c6a0ba	291454553	1	practice_slash	5	practice_slash	29	stimuli_distractor_diamondtriangles.svg	stimuli_distractor_trianglediamonds.svg	14	no	53	0	536
6.6.1	win	2022-12-14	20:06:22	20:08:49	146018	62713a003caa3feec5c6a0ba	291454553	1	practice_slash	5	advance_on_keypress_SLASH	30	stimuli_distractor_diamondtriangles.svg	stimuli_distractor_trianglediamonds.svg	14	no	57	0	396
6.6.1	win	2022-12-14	20:06:22	20:08:53	150030	62713a003caa3feec5c6a0ba	291454553	1	practice_slash	5	practice_slash	31	stimuli_distractor_diamondtriangles.svg	stimuli_distractor_diamondtriangles.svg	13	no	0	1	2003
6.6.1	win	2022-12-14	20:06:22	20:08:53	150030	62713a003caa3feec5c6a0ba	291454553	1	practice_slash	5	advance_on_keypress_SLASH	32	stimuli_distractor_diamondtriangles.svg	stimuli_distractor_diamondtriangles.svg	13	no	57	0	248
6.6.1	win	2022-12-14	20:06:22	20:08:57	153873	62713a003caa3feec5c6a0ba	291454553	1	main_slash	7	main_slash	1	stimuli_distractor_diamondtriangles.svg	stimuli_target_squarediamonds.svg	16	yes	53	1	452
6.6.1	win	2022-12-14	20:06:22	20:08:57	153873	62713a003caa3feec5c6a0ba	291454553	1	main_slash	7	advance_on_keypress_SLASH	2	stimuli_distractor_diamondtriangles.svg	stimuli_target_squarediamonds.svg	16	yes	57	0	953
6.6.1	win	2022-12-14	20:06:22	20:08:59	156242	62713a003caa3feec5c6a0ba	291454553	1	main_slash	7	main_slash	3	stimuli_target_diamondsquares.svg	stimuli_distractor_trianglediamonds.svg	20	yes	53	1	720
6.6.1	win	2022-12-14	20:06:22	20:08:59	156242	62713a003caa3feec5c6a0ba	291454553	1	main_slash	7	advance_on_keypress_SLASH	4	stimuli_target_diamondsquares.svg	stimuli_distractor_trianglediamonds.svg	20	yes	57	0	676
6.6.1	win	2022-12-14	20:06:22	20:09:01	158210	62713a003caa3feec5c6a0ba	291454553	1	main_slash	7	main_slash	5	stimuli_target_squaretriangles.svg	stimuli_distractor_diamondtriangles.svg	7	yes	53	1	598
6.6.1	win	2022-12-14	20:06:22	20:09:01	158210	62713a003caa3feec5c6a0ba	291454553	1	main_slash	7	advance_on_keypress_SLASH	6	stimuli_target_squaretriangles.svg	stimuli_distractor_diamondtriangles.svg	7	yes	57	0	413
6.6.1	win	2022-12-14	20:06:22	20:09:04	161237	62713a003caa3feec5c6a0ba	291454553	1	main_slash	7	main_slash	7	stimuli_distractor_diamondtriangles.svg	stimuli_distractor_trianglediamonds.svg	38	no	0	1	2003
6.6.1	win	2022-12-14	20:06:22	20:09:04	161237	62713a003caa3feec5c6a0ba	291454553	1	main_slash	7	advance_on_keypress_SLASH	8	stimuli_distractor_diamondtriangles.svg	stimuli_distractor_trianglediamonds.svg	38	no	57	0	298
6.6.1	win	2022-12-14	20:06:22	20:09:07	164149	62713a003caa3feec5c6a0ba	291454553	1	main_slash	7	main_slash	9	stimuli_distractor_trianglediamonds.svg	stimuli_distractor_trianglediamonds.svg	34	no	0	1	2003
6.6.1	win	2022-12-14	20:06:22	20:09:07	164149	62713a003caa3feec5c6a0ba	291454553	1	main_slash	7	advance_on_keypress_SLASH	10	stimuli_distractor_trianglediamonds.svg	stimuli_distractor_trianglediamonds.svg	34	no	57	0	314
6.6.1	win	2022-12-14	20:06:22	20:09:09	165562	62713a003caa3feec5c6a0ba	291454553	1	main_slash	7	main_slash	11	stimuli_distractor_diamondtriangles.svg	stimuli_target_circlediamonds.svg	14	yes	53	1	488
6.6.1	win	2022-12-14	20:06:22	20:09:09	165562	62713a003caa3feec5c6a0ba	291454553	1	main_slash	7	advance_on_keypress_SLASH	12	stimuli_distractor_diamondtriangles.svg	stimuli_target_circlediamonds.svg	14	yes	57	0	589
6.6.1	win	2022-12-14	20:06:22	20:09:10	167362	62713a003caa3feec5c6a0ba	291454553	1	main_slash	7	main_slash	13	stimuli_distractor_trianglediamonds.svg	stimuli_target_squarediamonds.svg	12	yes	53	1	600
6.6.1	win	2022-12-14	20:06:22	20:09:10	167362	62713a003caa3feec5c6a0ba	291454553	1	main_slash	7	advance_on_keypress_SLASH	14	stimuli_distractor_trianglediamonds.svg	stimuli_target_squarediamonds.svg	12	yes	57	0	469
6.6.1	win	2022-12-14	20:06:22	20:09:13	170058	62713a003caa3feec5c6a0ba	291454553	1	main_slash	7	main_slash	15	stimuli_target_diamondsquares.svg	stimuli_distractor_diamondtriangles.svg	24	yes	53	1	1616
6.6.1	win	2022-12-14	20:06:22	20:09:13	170058	62713a003caa3feec5c6a0ba	291454553	1	main_slash	7	advance_on_keypress_SLASH	16	stimuli_target_diamondsquares.svg	stimuli_distractor_diamondtriangles.svg	24	yes	57	0	509
6.6.1	win	2022-12-14	20:06:22	20:09:15	171778	62713a003caa3feec5c6a0ba	291454553	1	main_slash	7	main_slash	17	stimuli_target_circletriangles.svg	stimuli_distractor_diamondtriangles.svg	5	yes	53	1	600
6.6.1	win	2022-12-14	20:06:22	20:09:15	171778	62713a003caa3feec5c6a0ba	291454553	1	main_slash	7	advance_on_keypress_SLASH	18	stimuli_target_circletriangles.svg	stimuli_distractor_diamondtriangles.svg	5	yes	57	0	356
6.6.1	win	2022-12-14	20:06:22	20:09:16	173234	62713a003caa3feec5c6a0ba	291454553	1	main_slash	7	main_slash	19	stimuli_target_squarediamonds.svg	stimuli_distractor_trianglediamonds.svg	4	yes	53	1	488
6.6.1	win	2022-12-14	20:06:22	20:09:16	173234	62713a003caa3feec5c6a0ba	291454553	1	main_slash	7	advance_on_keypress_SLASH	20	stimuli_target_squarediamonds.svg	stimuli_distractor_trianglediamonds.svg	4	yes	57	0	341
6.6.1	win	2022-12-14	20:06:22	20:09:18	174769	62713a003caa3feec5c6a0ba	291454553	1	main_slash	7	main_slash	21	stimuli_target_trianglesquares.svg	stimuli_distractor_diamondtriangles.svg	22	yes	53	1	584
6.6.1	win	2022-12-14	20:06:22	20:09:18	174769	62713a003caa3feec5c6a0ba	291454553	1	main_slash	7	advance_on_keypress_SLASH	22	stimuli_target_trianglesquares.svg	stimuli_distractor_diamondtriangles.svg	22	yes	57	0	326
6.6.1	win	2022-12-14	20:06:22	20:09:19	176354	62713a003caa3feec5c6a0ba	291454553	1	main_slash	7	main_slash	23	stimuli_target_circlediamonds.svg	stimuli_distractor_trianglediamonds.svg	2	yes	53	1	649
6.6.1	win	2022-12-14	20:06:22	20:09:19	176354	62713a003caa3feec5c6a0ba	291454553	1	main_slash	7	advance_on_keypress_SLASH	24	stimuli_target_circlediamonds.svg	stimuli_distractor_trianglediamonds.svg	2	yes	57	0	357
6.6.1	win	2022-12-14	20:06:22	20:09:21	177930	62713a003caa3feec5c6a0ba	291454553	1	main_slash	7	main_slash	25	stimuli_target_trianglecircles.svg	stimuli_distractor_trianglediamonds.svg	17	yes	53	1	608
6.6.1	win	2022-12-14	20:06:22	20:09:21	177930	62713a003caa3feec5c6a0ba	291454553	1	main_slash	7	advance_on_keypress_SLASH	26	stimuli_target_trianglecircles.svg	stimuli_distractor_trianglediamonds.svg	17	yes	57	0	348
6.6.1	win	2022-12-14	20:06:22	20:09:23	179546	62713a003caa3feec5c6a0ba	291454553	1	main_slash	7	main_slash	27	stimuli_distractor_diamondtriangles.svg	stimuli_target_trianglesquares.svg	30	yes	53	1	656
6.6.1	win	2022-12-14	20:06:22	20:09:23	179546	62713a003caa3feec5c6a0ba	291454553	1	main_slash	7	advance_on_keypress_SLASH	28	stimuli_distractor_diamondtriangles.svg	stimuli_target_trianglesquares.svg	30	yes	57	0	388
6.6.1	win	2022-12-14	20:06:22	20:09:26	182549	62713a003caa3feec5c6a0ba	291454553	1	main_slash	7	main_slash	29	stimuli_target_diamondcircles.svg	stimuli_distractor_diamondtriangles.svg	23	yes	0	0	2003
6.6.1	win	2022-12-14	20:06:22	20:09:26	182549	62713a003caa3feec5c6a0ba	291454553	1	main_slash	7	advance_on_keypress_SLASH	30	stimuli_target_diamondcircles.svg	stimuli_distractor_diamondtriangles.svg	23	yes	57	0	386
6.6.1	win	2022-12-14	20:06:22	20:09:27	184170	62713a003caa3feec5c6a0ba	291454553	1	main_slash	7	main_slash	31	stimuli_distractor_trianglediamonds.svg	stimuli_target_diamondsquares.svg	28	yes	53	1	624
6.6.1	win	2022-12-14	20:06:22	20:09:27	184170	62713a003caa3feec5c6a0ba	291454553	1	main_slash	7	advance_on_keypress_SLASH	32	stimuli_distractor_trianglediamonds.svg	stimuli_target_diamondsquares.svg	28	yes	57	0	644
6.6.1	win	2022-12-14	20:06:22	20:09:29	186019	62713a003caa3feec5c6a0ba	291454553	1	main_slash	7	main_slash	33	stimuli_distractor_trianglediamonds.svg	stimuli_target_trianglecircles.svg	25	yes	53	1	593
6.6.1	win	2022-12-14	20:06:22	20:09:29	186019	62713a003caa3feec5c6a0ba	291454553	1	main_slash	7	advance_on_keypress_SLASH	34	stimuli_distractor_trianglediamonds.svg	stimuli_target_trianglecircles.svg	25	yes	57	0	356
6.6.1	win	2022-12-14	20:06:22	20:09:31	187577	62713a003caa3feec5c6a0ba	291454553	1	main_slash	7	main_slash	35	stimuli_distractor_diamondtriangles.svg	stimuli_target_trianglecircles.svg	29	yes	53	1	592
6.6.1	win	2022-12-14	20:06:22	20:09:31	187577	62713a003caa3feec5c6a0ba	291454553	1	main_slash	7	advance_on_keypress_SLASH	36	stimuli_distractor_diamondtriangles.svg	stimuli_target_trianglecircles.svg	29	yes	57	0	302
6.6.1	win	2022-12-14	20:06:22	20:09:32	189025	62713a003caa3feec5c6a0ba	291454553	1	main_slash	7	main_slash	37	stimuli_distractor_diamondtriangles.svg	stimuli_target_diamondcircles.svg	31	yes	53	1	538
6.6.1	win	2022-12-14	20:06:22	20:09:32	189025	62713a003caa3feec5c6a0ba	291454553	1	main_slash	7	advance_on_keypress_SLASH	38	stimuli_distractor_diamondtriangles.svg	stimuli_target_diamondcircles.svg	31	yes	57	0	310
6.6.1	win	2022-12-14	20:06:22	20:09:35	191949	62713a003caa3feec5c6a0ba	291454553	1	main_slash	7	main_slash	39	stimuli_distractor_diamondtriangles.svg	stimuli_distractor_diamondtriangles.svg	40	no	0	1	2003
6.6.1	win	2022-12-14	20:06:22	20:09:35	191949	62713a003caa3feec5c6a0ba	291454553	1	main_slash	7	advance_on_keypress_SLASH	40	stimuli_distractor_diamondtriangles.svg	stimuli_distractor_diamondtriangles.svg	40	no	57	0	594
6.6.1	win	2022-12-14	20:06:22	20:09:38	195156	62713a003caa3feec5c6a0ba	291454553	1	main_slash	7	main_slash	41	stimuli_distractor_trianglediamonds.svg	stimuli_distractor_trianglediamonds.svg	33	no	0	1	2003
6.6.1	win	2022-12-14	20:06:22	20:09:38	195156	62713a003caa3feec5c6a0ba	291454553	1	main_slash	7	advance_on_keypress_SLASH	42	stimuli_distractor_trianglediamonds.svg	stimuli_distractor_trianglediamonds.svg	33	no	57	0	460
6.6.1	win	2022-12-14	20:06:22	20:09:41	198229	62713a003caa3feec5c6a0ba	291454553	1	main_slash	7	main_slash	43	stimuli_distractor_diamondtriangles.svg	stimuli_distractor_trianglediamonds.svg	37	no	0	1	2003
6.6.1	win	2022-12-14	20:06:22	20:09:41	198229	62713a003caa3feec5c6a0ba	291454553	1	main_slash	7	advance_on_keypress_SLASH	44	stimuli_distractor_diamondtriangles.svg	stimuli_distractor_trianglediamonds.svg	37	no	57	0	377
6.6.1	win	2022-12-14	20:06:22	20:09:44	201221	62713a003caa3feec5c6a0ba	291454553	1	main_slash	7	main_slash	45	stimuli_distractor_diamondtriangles.svg	stimuli_target_squaretriangles.svg	15	yes	0	0	2003
6.6.1	win	2022-12-14	20:06:22	20:09:44	201221	62713a003caa3feec5c6a0ba	291454553	1	main_slash	7	advance_on_keypress_SLASH	46	stimuli_distractor_diamondtriangles.svg	stimuli_target_squaretriangles.svg	15	yes	57	0	345
6.6.1	win	2022-12-14	20:06:22	20:09:46	202642	62713a003caa3feec5c6a0ba	291454553	1	main_slash	7	main_slash	47	stimuli_distractor_diamondtriangles.svg	stimuli_target_circletriangles.svg	13	yes	53	1	464
6.6.1	win	2022-12-14	20:06:22	20:09:46	202642	62713a003caa3feec5c6a0ba	291454553	1	main_slash	7	advance_on_keypress_SLASH	48	stimuli_distractor_diamondtriangles.svg	stimuli_target_circletriangles.svg	13	yes	57	0	380
6.6.1	win	2022-12-14	20:06:22	20:09:47	204122	62713a003caa3feec5c6a0ba	291454553	1	main_slash	7	main_slash	49	stimuli_target_diamondcircles.svg	stimuli_distractor_trianglediamonds.svg	19	yes	53	1	488
6.6.1	win	2022-12-14	20:06:22	20:09:47	204122	62713a003caa3feec5c6a0ba	291454553	1	main_slash	7	advance_on_keypress_SLASH	50	stimuli_target_diamondcircles.svg	stimuli_distractor_trianglediamonds.svg	19	yes	57	0	293
6.6.1	win	2022-12-14	20:06:22	20:09:48	205514	62713a003caa3feec5c6a0ba	291454553	1	main_slash	7	main_slash	51	stimuli_distractor_trianglediamonds.svg	stimuli_target_circlediamonds.svg	10	yes	53	1	488
6.6.1	win	2022-12-14	20:06:22	20:09:48	205514	62713a003caa3feec5c6a0ba	291454553	1	main_slash	7	advance_on_keypress_SLASH	52	stimuli_distractor_trianglediamonds.svg	stimuli_target_circlediamonds.svg	10	yes	57	0	341
6.6.1	win	2022-12-14	20:06:22	20:09:50	206922	62713a003caa3feec5c6a0ba	291454553	1	main_slash	7	main_slash	53	stimuli_target_squaretriangles.svg	stimuli_distractor_trianglediamonds.svg	3	yes	53	1	456
6.6.1	win	2022-12-14	20:06:22	20:09:50	206922	62713a003caa3feec5c6a0ba	291454553	1	main_slash	7	advance_on_keypress_SLASH	54	stimuli_target_squaretriangles.svg	stimuli_distractor_trianglediamonds.svg	3	yes	57	0	300
6.6.1	win	2022-12-14	20:06:22	20:09:51	208442	62713a003caa3feec5c6a0ba	291454553	1	main_slash	7	main_slash	55	stimuli_target_trianglesquares.svg	stimuli_distractor_trianglediamonds.svg	18	yes	53	1	608
6.6.1	win	2022-12-14	20:06:22	20:09:51	208442	62713a003caa3feec5c6a0ba	291454553	1	main_slash	7	advance_on_keypress_SLASH	56	stimuli_target_trianglesquares.svg	stimuli_distractor_trianglediamonds.svg	18	yes	57	0	420
6.6.1	win	2022-12-14	20:06:22	20:09:53	210025	62713a003caa3feec5c6a0ba	291454553	1	main_slash	7	main_slash	57	stimuli_distractor_trianglediamonds.svg	stimuli_target_squaretriangles.svg	11	yes	53	1	552
6.6.1	win	2022-12-14	20:06:22	20:09:53	210025	62713a003caa3feec5c6a0ba	291454553	1	main_slash	7	advance_on_keypress_SLASH	58	stimuli_distractor_trianglediamonds.svg	stimuli_target_squaretriangles.svg	11	yes	57	0	294
6.6.1	win	2022-12-14	20:06:22	20:09:56	212933	62713a003caa3feec5c6a0ba	291454553	1	main_slash	7	main_slash	59	stimuli_distractor_diamondtriangles.svg	stimuli_distractor_diamondtriangles.svg	39	no	0	1	2003
6.6.1	win	2022-12-14	20:06:22	20:09:56	212933	62713a003caa3feec5c6a0ba	291454553	1	main_slash	7	advance_on_keypress_SLASH	60	stimuli_distractor_diamondtriangles.svg	stimuli_distractor_diamondtriangles.svg	39	no	57	0	531
6.6.1	win	2022-12-14	20:06:22	20:09:58	214706	62713a003caa3feec5c6a0ba	291454553	1	main_slash	7	main_slash	61	stimuli_distractor_diamondtriangles.svg	stimuli_target_diamondsquares.svg	32	yes	53	1	632
6.6.1	win	2022-12-14	20:06:22	20:09:58	214706	62713a003caa3feec5c6a0ba	291454553	1	main_slash	7	advance_on_keypress_SLASH	62	stimuli_distractor_diamondtriangles.svg	stimuli_target_diamondsquares.svg	32	yes	57	0	324
6.6.1	win	2022-12-14	20:06:22	20:09:59	216162	62713a003caa3feec5c6a0ba	291454553	1	main_slash	7	main_slash	63	stimuli_target_squarediamonds.svg	stimuli_distractor_diamondtriangles.svg	8	yes	53	1	520
6.6.1	win	2022-12-14	20:06:22	20:09:59	216162	62713a003caa3feec5c6a0ba	291454553	1	main_slash	7	advance_on_keypress_SLASH	64	stimuli_target_squarediamonds.svg	stimuli_distractor_diamondtriangles.svg	8	yes	57	0	260
6.6.1	win	2022-12-14	20:06:22	20:10:01	217600	62713a003caa3feec5c6a0ba	291454553	1	main_slash	7	main_slash	65	stimuli_distractor_trianglediamonds.svg	stimuli_target_diamondcircles.svg	27	yes	53	1	568
6.6.1	win	2022-12-14	20:06:22	20:10:01	217600	62713a003caa3feec5c6a0ba	291454553	1	main_slash	7	advance_on_keypress_SLASH	66	stimuli_distractor_trianglediamonds.svg	stimuli_target_diamondcircles.svg	27	yes	57	0	270
6.6.1	win	2022-12-14	20:06:22	20:10:02	218946	62713a003caa3feec5c6a0ba	291454553	1	main_slash	7	main_slash	67	stimuli_distractor_trianglediamonds.svg	stimuli_distractor_diamondtriangles.svg	35	no	53	0	464
6.6.1	win	2022-12-14	20:06:22	20:10:02	218946	62713a003caa3feec5c6a0ba	291454553	1	main_slash	7	advance_on_keypress_SLASH	68	stimuli_distractor_trianglediamonds.svg	stimuli_distractor_diamondtriangles.svg	35	no	57	0	316
6.6.1	win	2022-12-14	20:06:22	20:10:04	220850	62713a003caa3feec5c6a0ba	291454553	1	main_slash	7	main_slash	69	stimuli_distractor_trianglediamonds.svg	stimuli_target_trianglesquares.svg	26	yes	53	1	976
6.6.1	win	2022-12-14	20:06:22	20:10:04	220850	62713a003caa3feec5c6a0ba	291454553	1	main_slash	7	advance_on_keypress_SLASH	70	stimuli_distractor_trianglediamonds.svg	stimuli_target_trianglesquares.svg	26	yes	57	0	429
6.6.1	win	2022-12-14	20:06:22	20:10:06	222690	62713a003caa3feec5c6a0ba	291454553	1	main_slash	7	main_slash	71	stimuli_distractor_trianglediamonds.svg	stimuli_distractor_diamondtriangles.svg	36	no	53	0	800
6.6.1	win	2022-12-14	20:06:22	20:10:06	222690	62713a003caa3feec5c6a0ba	291454553	1	main_slash	7	advance_on_keypress_SLASH	72	stimuli_distractor_trianglediamonds.svg	stimuli_distractor_diamondtriangles.svg	36	no	57	0	332
6.6.1	win	2022-12-14	20:06:22	20:10:07	224217	62713a003caa3feec5c6a0ba	291454553	1	main_slash	7	main_slash	73	stimuli_target_circletriangles.svg	stimuli_distractor_trianglediamonds.svg	1	yes	53	1	585
6.6.1	win	2022-12-14	20:06:22	20:10:07	224217	62713a003caa3feec5c6a0ba	291454553	1	main_slash	7	advance_on_keypress_SLASH	74	stimuli_target_circletriangles.svg	stimuli_distractor_trianglediamonds.svg	1	yes	57	0	278
6.6.1	win	2022-12-14	20:06:22	20:10:09	225610	62713a003caa3feec5c6a0ba	291454553	1	main_slash	7	main_slash	75	stimuli_target_circlediamonds.svg	stimuli_distractor_diamondtriangles.svg	6	yes	53	1	504
6.6.1	win	2022-12-14	20:06:22	20:10:09	225610	62713a003caa3feec5c6a0ba	291454553	1	main_slash	7	advance_on_keypress_SLASH	76	stimuli_target_circlediamonds.svg	stimuli_distractor_diamondtriangles.svg	6	yes	57	0	221
6.6.1	win	2022-12-14	20:06:22	20:10:10	227009	62713a003caa3feec5c6a0ba	291454553	1	main_slash	7	main_slash	77	stimuli_distractor_trianglediamonds.svg	stimuli_target_circletriangles.svg	9	yes	53	1	569
6.6.1	win	2022-12-14	20:06:22	20:10:10	227009	62713a003caa3feec5c6a0ba	291454553	1	main_slash	7	advance_on_keypress_SLASH	78	stimuli_distractor_trianglediamonds.svg	stimuli_target_circletriangles.svg	9	yes	57	0	358
6.6.1	win	2022-12-14	20:06:22	20:10:11	228490	62713a003caa3feec5c6a0ba	291454553	1	main_slash	7	main_slash	79	stimuli_target_trianglecircles.svg	stimuli_distractor_diamondtriangles.svg	21	yes	53	1	512
6.6.1	win	2022-12-14	20:06:22	20:10:11	228490	62713a003caa3feec5c6a0ba	291454553	1	main_slash	7	advance_on_keypress_SLASH	80	stimuli_target_trianglecircles.svg	stimuli_distractor_diamondtriangles.svg	21	yes	57	0	269
6.6.1	win	2022-12-14	20:06:22	20:10:13	230074	62713a003caa3feec5c6a0ba	291454553	1	main_slash	7	main_slash	81	stimuli_target_diamondcircles.svg	stimuli_distractor_diamondtriangles.svg	23	yes	53	1	704
6.6.1	win	2022-12-14	20:06:22	20:10:13	230074	62713a003caa3feec5c6a0ba	291454553	1	main_slash	7	advance_on_keypress_SLASH	82	stimuli_target_diamondcircles.svg	stimuli_distractor_diamondtriangles.svg	23	yes	57	0	300
6.6.1	win	2022-12-14	20:06:22	20:10:16	232989	62713a003caa3feec5c6a0ba	291454553	1	main_slash	7	main_slash	83	stimuli_target_squaretriangles.svg	stimuli_distractor_trianglediamonds.svg	3	yes	0	0	2003
6.6.1	win	2022-12-14	20:06:22	20:10:16	232989	62713a003caa3feec5c6a0ba	291454553	1	main_slash	7	advance_on_keypress_SLASH	84	stimuli_target_squaretriangles.svg	stimuli_distractor_trianglediamonds.svg	3	yes	57	0	289
6.6.1	win	2022-12-14	20:06:22	20:10:17	234297	62713a003caa3feec5c6a0ba	291454553	1	main_slash	7	main_slash	85	stimuli_target_trianglecircles.svg	stimuli_distractor_diamondtriangles.svg	21	yes	53	1	409
6.6.1	win	2022-12-14	20:06:22	20:10:17	234297	62713a003caa3feec5c6a0ba	291454553	1	main_slash	7	advance_on_keypress_SLASH	86	stimuli_target_trianglecircles.svg	stimuli_distractor_diamondtriangles.svg	21	yes	57	0	238
6.6.1	win	2022-12-14	20:06:22	20:10:18	235522	62713a003caa3feec5c6a0ba	291454553	1	main_slash	7	main_slash	87	stimuli_target_circlediamonds.svg	stimuli_distractor_trianglediamonds.svg	2	yes	53	1	376
6.6.1	win	2022-12-14	20:06:22	20:10:18	235522	62713a003caa3feec5c6a0ba	291454553	1	main_slash	7	advance_on_keypress_SLASH	88	stimuli_target_circlediamonds.svg	stimuli_distractor_trianglediamonds.svg	2	yes	57	0	189
6.6.1	win	2022-12-14	20:06:22	20:10:21	238325	62713a003caa3feec5c6a0ba	291454553	1	main_slash	7	main_slash	89	stimuli_distractor_diamondtriangles.svg	stimuli_distractor_diamondtriangles.svg	39	no	0	1	2003
6.6.1	win	2022-12-14	20:06:22	20:10:21	238325	62713a003caa3feec5c6a0ba	291454553	1	main_slash	7	advance_on_keypress_SLASH	90	stimuli_distractor_diamondtriangles.svg	stimuli_distractor_diamondtriangles.svg	39	no	57	0	291
6.6.1	win	2022-12-14	20:06:22	20:10:23	239777	62713a003caa3feec5c6a0ba	291454553	1	main_slash	7	main_slash	91	stimuli_distractor_trianglediamonds.svg	stimuli_distractor_diamondtriangles.svg	35	no	53	0	552
6.6.1	win	2022-12-14	20:06:22	20:10:23	239777	62713a003caa3feec5c6a0ba	291454553	1	main_slash	7	advance_on_keypress_SLASH	92	stimuli_distractor_trianglediamonds.svg	stimuli_distractor_diamondtriangles.svg	35	no	57	0	326
6.6.1	win	2022-12-14	20:06:22	20:10:24	241289	62713a003caa3feec5c6a0ba	291454553	1	main_slash	7	main_slash	93	stimuli_distractor_trianglediamonds.svg	stimuli_target_circlediamonds.svg	10	yes	53	1	576
6.6.1	win	2022-12-14	20:06:22	20:10:24	241289	62713a003caa3feec5c6a0ba	291454553	1	main_slash	7	advance_on_keypress_SLASH	94	stimuli_distractor_trianglediamonds.svg	stimuli_target_circlediamonds.svg	10	yes	57	0	270
6.6.1	win	2022-12-14	20:06:22	20:10:26	242617	62713a003caa3feec5c6a0ba	291454553	1	main_slash	7	main_slash	95	stimuli_distractor_diamondtriangles.svg	stimuli_target_circletriangles.svg	13	yes	53	1	448
6.6.1	win	2022-12-14	20:06:22	20:10:26	242617	62713a003caa3feec5c6a0ba	291454553	1	main_slash	7	advance_on_keypress_SLASH	96	stimuli_distractor_diamondtriangles.svg	stimuli_target_circletriangles.svg	13	yes	57	0	206
6.6.1	win	2022-12-14	20:06:22	20:10:27	243857	62713a003caa3feec5c6a0ba	291454553	1	main_slash	7	main_slash	97	stimuli_distractor_diamondtriangles.svg	stimuli_target_circlediamonds.svg	14	yes	53	1	424
6.6.1	win	2022-12-14	20:06:22	20:10:27	243857	62713a003caa3feec5c6a0ba	291454553	1	main_slash	7	advance_on_keypress_SLASH	98	stimuli_distractor_diamondtriangles.svg	stimuli_target_circlediamonds.svg	14	yes	57	0	190
6.6.1	win	2022-12-14	20:06:22	20:10:28	245114	62713a003caa3feec5c6a0ba	291454553	1	main_slash	7	main_slash	99	stimuli_distractor_trianglediamonds.svg	stimuli_target_diamondcircles.svg	27	yes	53	1	456
6.6.1	win	2022-12-14	20:06:22	20:10:28	245114	62713a003caa3feec5c6a0ba	291454553	1	main_slash	7	advance_on_keypress_SLASH	100	stimuli_distractor_trianglediamonds.svg	stimuli_target_diamondcircles.svg	27	yes	57	0	238
6.6.1	win	2022-12-14	20:06:22	20:10:29	246489	62713a003caa3feec5c6a0ba	291454553	1	main_slash	7	main_slash	101	stimuli_distractor_trianglediamonds.svg	stimuli_distractor_diamondtriangles.svg	36	no	53	0	528
6.6.1	win	2022-12-14	20:06:22	20:10:29	246489	62713a003caa3feec5c6a0ba	291454553	1	main_slash	7	advance_on_keypress_SLASH	102	stimuli_distractor_trianglediamonds.svg	stimuli_distractor_diamondtriangles.svg	36	no	57	0	302
6.6.1	win	2022-12-14	20:06:22	20:10:32	249405	62713a003caa3feec5c6a0ba	291454553	1	main_slash	7	main_slash	103	stimuli_distractor_diamondtriangles.svg	stimuli_distractor_trianglediamonds.svg	38	no	0	1	2003
6.6.1	win	2022-12-14	20:06:22	20:10:32	249405	62713a003caa3feec5c6a0ba	291454553	1	main_slash	7	advance_on_keypress_SLASH	104	stimuli_distractor_diamondtriangles.svg	stimuli_distractor_trianglediamonds.svg	38	no	57	0	314
6.6.1	win	2022-12-14	20:06:22	20:10:34	251058	62713a003caa3feec5c6a0ba	291454553	1	main_slash	7	main_slash	105	stimuli_target_diamondsquares.svg	stimuli_distractor_diamondtriangles.svg	24	yes	53	1	728
6.6.1	win	2022-12-14	20:06:22	20:10:34	251058	62713a003caa3feec5c6a0ba	291454553	1	main_slash	7	advance_on_keypress_SLASH	106	stimuli_target_diamondsquares.svg	stimuli_distractor_diamondtriangles.svg	24	yes	57	0	292
6.6.1	win	2022-12-14	20:06:22	20:10:35	252418	62713a003caa3feec5c6a0ba	291454553	1	main_slash	7	main_slash	107	stimuli_distractor_diamondtriangles.svg	stimuli_target_trianglesquares.svg	30	yes	53	1	456
6.6.1	win	2022-12-14	20:06:22	20:10:35	252418	62713a003caa3feec5c6a0ba	291454553	1	main_slash	7	advance_on_keypress_SLASH	108	stimuli_distractor_diamondtriangles.svg	stimuli_target_trianglesquares.svg	30	yes	57	0	229
6.6.1	win	2022-12-14	20:06:22	20:10:37	253817	62713a003caa3feec5c6a0ba	291454553	1	main_slash	7	main_slash	109	stimuli_distractor_diamondtriangles.svg	stimuli_target_squaretriangles.svg	15	yes	53	1	560
6.6.1	win	2022-12-14	20:06:22	20:10:37	253817	62713a003caa3feec5c6a0ba	291454553	1	main_slash	7	advance_on_keypress_SLASH	110	stimuli_distractor_diamondtriangles.svg	stimuli_target_squaretriangles.svg	15	yes	57	0	222
6.6.1	win	2022-12-14	20:06:22	20:10:40	256653	62713a003caa3feec5c6a0ba	291454553	1	main_slash	7	main_slash	111	stimuli_distractor_trianglediamonds.svg	stimuli_distractor_trianglediamonds.svg	33	no	0	1	2003
6.6.1	win	2022-12-14	20:06:22	20:10:40	256653	62713a003caa3feec5c6a0ba	291454553	1	main_slash	7	advance_on_keypress_SLASH	112	stimuli_distractor_trianglediamonds.svg	stimuli_distractor_trianglediamonds.svg	33	no	57	0	290
6.6.1	win	2022-12-14	20:06:22	20:10:43	259556	62713a003caa3feec5c6a0ba	291454553	1	main_slash	7	main_slash	113	stimuli_distractor_trianglediamonds.svg	stimuli_target_squaretriangles.svg	11	yes	0	0	2003
6.6.1	win	2022-12-14	20:06:22	20:10:43	259556	62713a003caa3feec5c6a0ba	291454553	1	main_slash	7	advance_on_keypress_SLASH	114	stimuli_distractor_trianglediamonds.svg	stimuli_target_squaretriangles.svg	11	yes	57	0	306
6.6.1	win	2022-12-14	20:06:22	20:10:44	261146	62713a003caa3feec5c6a0ba	291454553	1	main_slash	7	main_slash	115	stimuli_target_trianglesquares.svg	stimuli_distractor_trianglediamonds.svg	18	yes	53	1	672
6.6.1	win	2022-12-14	20:06:22	20:10:44	261146	62713a003caa3feec5c6a0ba	291454553	1	main_slash	7	advance_on_keypress_SLASH	116	stimuli_target_trianglesquares.svg	stimuli_distractor_trianglediamonds.svg	18	yes	57	0	316
6.6.1	win	2022-12-14	20:06:22	20:10:46	262562	62713a003caa3feec5c6a0ba	291454553	1	main_slash	7	main_slash	117	stimuli_distractor_trianglediamonds.svg	stimuli_target_trianglesquares.svg	26	yes	53	1	489
6.6.1	win	2022-12-14	20:06:22	20:10:46	262562	62713a003caa3feec5c6a0ba	291454553	1	main_slash	7	advance_on_keypress_SLASH	118	stimuli_distractor_trianglediamonds.svg	stimuli_target_trianglesquares.svg	26	yes	57	0	180
6.6.1	win	2022-12-14	20:06:22	20:10:47	263730	62713a003caa3feec5c6a0ba	291454553	1	main_slash	7	main_slash	119	stimuli_distractor_diamondtriangles.svg	stimuli_target_trianglecircles.svg	29	yes	53	1	376
6.6.1	win	2022-12-14	20:06:22	20:10:47	263730	62713a003caa3feec5c6a0ba	291454553	1	main_slash	7	advance_on_keypress_SLASH	120	stimuli_distractor_diamondtriangles.svg	stimuli_target_trianglecircles.svg	29	yes	57	0	181
6.6.1	win	2022-12-14	20:06:22	20:10:48	264907	62713a003caa3feec5c6a0ba	291454553	1	main_slash	7	main_slash	121	stimuli_distractor_diamondtriangles.svg	stimuli_target_diamondcircles.svg	31	yes	53	1	386
6.6.1	win	2022-12-14	20:06:22	20:10:48	264907	62713a003caa3feec5c6a0ba	291454553	1	main_slash	7	advance_on_keypress_SLASH	122	stimuli_distractor_diamondtriangles.svg	stimuli_target_diamondcircles.svg	31	yes	57	0	236
6.6.1	win	2022-12-14	20:06:22	20:10:49	266266	62713a003caa3feec5c6a0ba	291454553	1	main_slash	7	main_slash	123	stimuli_target_circletriangles.svg	stimuli_distractor_diamondtriangles.svg	5	yes	53	1	512
6.6.1	win	2022-12-14	20:06:22	20:10:49	266266	62713a003caa3feec5c6a0ba	291454553	1	main_slash	7	advance_on_keypress_SLASH	124	stimuli_target_circletriangles.svg	stimuli_distractor_diamondtriangles.svg	5	yes	57	0	220
6.6.1	win	2022-12-14	20:06:22	20:10:51	267570	62713a003caa3feec5c6a0ba	291454553	1	main_slash	7	main_slash	125	stimuli_target_squarediamonds.svg	stimuli_distractor_trianglediamonds.svg	4	yes	53	1	472
6.6.1	win	2022-12-14	20:06:22	20:10:51	267570	62713a003caa3feec5c6a0ba	291454553	1	main_slash	7	advance_on_keypress_SLASH	126	stimuli_target_squarediamonds.svg	stimuli_distractor_trianglediamonds.svg	4	yes	57	0	229
6.6.1	win	2022-12-14	20:06:22	20:10:52	269106	62713a003caa3feec5c6a0ba	291454553	1	main_slash	7	main_slash	127	stimuli_distractor_diamondtriangles.svg	stimuli_distractor_trianglediamonds.svg	37	no	53	0	696
6.6.1	win	2022-12-14	20:06:22	20:10:52	269106	62713a003caa3feec5c6a0ba	291454553	1	main_slash	7	advance_on_keypress_SLASH	128	stimuli_distractor_diamondtriangles.svg	stimuli_distractor_trianglediamonds.svg	37	no	57	0	293
6.6.1	win	2022-12-14	20:06:22	20:10:53	270490	62713a003caa3feec5c6a0ba	291454553	1	main_slash	7	main_slash	129	stimuli_distractor_trianglediamonds.svg	stimuli_target_circletriangles.svg	9	yes	53	1	480
6.6.1	win	2022-12-14	20:06:22	20:10:53	270490	62713a003caa3feec5c6a0ba	291454553	1	main_slash	7	advance_on_keypress_SLASH	130	stimuli_distractor_trianglediamonds.svg	stimuli_target_circletriangles.svg	9	yes	57	0	221
6.6.1	win	2022-12-14	20:06:22	20:10:55	271761	62713a003caa3feec5c6a0ba	291454553	1	main_slash	7	main_slash	131	stimuli_distractor_trianglediamonds.svg	stimuli_target_trianglecircles.svg	25	yes	53	1	440
6.6.1	win	2022-12-14	20:06:22	20:10:55	271761	62713a003caa3feec5c6a0ba	291454553	1	main_slash	7	advance_on_keypress_SLASH	132	stimuli_distractor_trianglediamonds.svg	stimuli_target_trianglecircles.svg	25	yes	57	0	182
6.6.1	win	2022-12-14	20:06:22	20:10:56	273105	62713a003caa3feec5c6a0ba	291454553	1	main_slash	7	main_slash	133	stimuli_target_squaretriangles.svg	stimuli_distractor_diamondtriangles.svg	7	yes	53	1	554
6.6.1	win	2022-12-14	20:06:22	20:10:56	273105	62713a003caa3feec5c6a0ba	291454553	1	main_slash	7	advance_on_keypress_SLASH	134	stimuli_target_squaretriangles.svg	stimuli_distractor_diamondtriangles.svg	7	yes	57	0	229
6.6.1	win	2022-12-14	20:06:22	20:10:57	274426	62713a003caa3feec5c6a0ba	291454553	1	main_slash	7	main_slash	135	stimuli_target_diamondsquares.svg	stimuli_distractor_trianglediamonds.svg	20	yes	53	1	480
6.6.1	win	2022-12-14	20:06:22	20:10:57	274426	62713a003caa3feec5c6a0ba	291454553	1	main_slash	7	advance_on_keypress_SLASH	136	stimuli_target_diamondsquares.svg	stimuli_distractor_trianglediamonds.svg	20	yes	57	0	197
6.6.1	win	2022-12-14	20:06:22	20:10:59	275681	62713a003caa3feec5c6a0ba	291454553	1	main_slash	7	main_slash	137	stimuli_target_trianglecircles.svg	stimuli_distractor_trianglediamonds.svg	17	yes	53	1	449
6.6.1	win	2022-12-14	20:06:22	20:10:59	275681	62713a003caa3feec5c6a0ba	291454553	1	main_slash	7	advance_on_keypress_SLASH	138	stimuli_target_trianglecircles.svg	stimuli_distractor_trianglediamonds.svg	17	yes	57	0	246
6.6.1	win	2022-12-14	20:06:22	20:11:00	277162	62713a003caa3feec5c6a0ba	291454553	1	main_slash	7	main_slash	139	stimuli_distractor_trianglediamonds.svg	stimuli_distractor_trianglediamonds.svg	34	no	53	0	625
6.6.1	win	2022-12-14	20:06:22	20:11:00	277162	62713a003caa3feec5c6a0ba	291454553	1	main_slash	7	advance_on_keypress_SLASH	140	stimuli_distractor_trianglediamonds.svg	stimuli_distractor_trianglediamonds.svg	34	no	57	0	373
6.6.1	win	2022-12-14	20:06:22	20:11:02	278602	62713a003caa3feec5c6a0ba	291454553	1	main_slash	7	main_slash	141	stimuli_target_trianglesquares.svg	stimuli_distractor_diamondtriangles.svg	22	yes	53	1	456
6.6.1	win	2022-12-14	20:06:22	20:11:02	278602	62713a003caa3feec5c6a0ba	291454553	1	main_slash	7	advance_on_keypress_SLASH	142	stimuli_target_trianglesquares.svg	stimuli_distractor_diamondtriangles.svg	22	yes	57	0	197
6.6.1	win	2022-12-14	20:06:22	20:11:03	279874	62713a003caa3feec5c6a0ba	291454553	1	main_slash	7	main_slash	143	stimuli_target_circlediamonds.svg	stimuli_distractor_diamondtriangles.svg	6	yes	53	1	465
6.6.1	win	2022-12-14	20:06:22	20:11:03	279874	62713a003caa3feec5c6a0ba	291454553	1	main_slash	7	advance_on_keypress_SLASH	144	stimuli_target_circlediamonds.svg	stimuli_distractor_diamondtriangles.svg	6	yes	57	0	229
6.6.1	win	2022-12-14	20:06:22	20:11:04	281178	62713a003caa3feec5c6a0ba	291454553	1	main_slash	7	main_slash	145	stimuli_target_circletriangles.svg	stimuli_distractor_trianglediamonds.svg	1	yes	53	1	464
6.6.1	win	2022-12-14	20:06:22	20:11:04	281178	62713a003caa3feec5c6a0ba	291454553	1	main_slash	7	advance_on_keypress_SLASH	146	stimuli_target_circletriangles.svg	stimuli_distractor_trianglediamonds.svg	1	yes	57	0	197
6.6.1	win	2022-12-14	20:06:22	20:11:05	282442	62713a003caa3feec5c6a0ba	291454553	1	main_slash	7	main_slash	147	stimuli_target_diamondcircles.svg	stimuli_distractor_trianglediamonds.svg	19	yes	53	1	456
6.6.1	win	2022-12-14	20:06:22	20:11:05	282442	62713a003caa3feec5c6a0ba	291454553	1	main_slash	7	advance_on_keypress_SLASH	148	stimuli_target_diamondcircles.svg	stimuli_distractor_trianglediamonds.svg	19	yes	57	0	180
6.6.1	win	2022-12-14	20:06:22	20:11:07	284146	62713a003caa3feec5c6a0ba	291454553	1	main_slash	7	main_slash	149	stimuli_target_squarediamonds.svg	stimuli_distractor_diamondtriangles.svg	8	yes	53	1	912
6.6.1	win	2022-12-14	20:06:22	20:11:07	284146	62713a003caa3feec5c6a0ba	291454553	1	main_slash	7	advance_on_keypress_SLASH	150	stimuli_target_squarediamonds.svg	stimuli_distractor_diamondtriangles.svg	8	yes	57	0	292
6.6.1	win	2022-12-14	20:06:22	20:11:09	286186	62713a003caa3feec5c6a0ba	291454553	1	main_slash	7	main_slash	151	stimuli_distractor_trianglediamonds.svg	stimuli_target_squarediamonds.svg	12	yes	53	1	1136
6.6.1	win	2022-12-14	20:06:22	20:11:09	286186	62713a003caa3feec5c6a0ba	291454553	1	main_slash	7	advance_on_keypress_SLASH	152	stimuli_distractor_trianglediamonds.svg	stimuli_target_squarediamonds.svg	12	yes	57	0	260
6.6.1	win	2022-12-14	20:06:22	20:11:11	287609	62713a003caa3feec5c6a0ba	291454553	1	main_slash	7	main_slash	153	stimuli_distractor_trianglediamonds.svg	stimuli_target_diamondsquares.svg	28	yes	53	1	553
6.6.1	win	2022-12-14	20:06:22	20:11:11	287609	62713a003caa3feec5c6a0ba	291454553	1	main_slash	7	advance_on_keypress_SLASH	154	stimuli_distractor_trianglediamonds.svg	stimuli_target_diamondsquares.svg	28	yes	57	0	174
6.6.1	win	2022-12-14	20:06:22	20:11:12	288945	62713a003caa3feec5c6a0ba	291454553	1	main_slash	7	main_slash	155	stimuli_distractor_diamondtriangles.svg	stimuli_target_diamondsquares.svg	32	yes	53	1	552
6.6.1	win	2022-12-14	20:06:22	20:11:12	288945	62713a003caa3feec5c6a0ba	291454553	1	main_slash	7	advance_on_keypress_SLASH	156	stimuli_distractor_diamondtriangles.svg	stimuli_target_diamondsquares.svg	32	yes	57	0	189
6.6.1	win	2022-12-14	20:06:22	20:11:14	290530	62713a003caa3feec5c6a0ba	291454553	1	main_slash	7	main_slash	157	stimuli_distractor_diamondtriangles.svg	stimuli_target_squarediamonds.svg	16	yes	53	1	784
6.6.1	win	2022-12-14	20:06:22	20:11:14	290530	62713a003caa3feec5c6a0ba	291454553	1	main_slash	7	advance_on_keypress_SLASH	158	stimuli_distractor_diamondtriangles.svg	stimuli_target_squarediamonds.svg	16	yes	57	0	285
6.6.1	win	2022-12-14	20:06:22	20:11:16	293429	62713a003caa3feec5c6a0ba	291454553	1	main_slash	7	main_slash	159	stimuli_distractor_diamondtriangles.svg	stimuli_distractor_diamondtriangles.svg	40	no	0	1	2003
6.6.1	win	2022-12-14	20:06:22	20:11:16	293429	62713a003caa3feec5c6a0ba	291454553	1	main_slash	7	advance_on_keypress_SLASH	160	stimuli_distractor_diamondtriangles.svg	stimuli_distractor_diamondtriangles.svg	40	no	57	0	298
6.6.1	win	2022-12-14	20:06:22	20:11:27	304171	62713a003caa3feec5c6a0ba	291454553	1	practice_z	9	practice_z	1	stimuli_distractor_trianglediamonds.svg	stimuli_target_circlediamonds.svg	10	yes	44	1	383
6.6.1	win	2022-12-14	20:06:22	20:11:27	304171	62713a003caa3feec5c6a0ba	291454553	1	practice_z	9	advance_on_keypress_ZEE	2	stimuli_distractor_trianglediamonds.svg	stimuli_target_circlediamonds.svg	10	yes	57	0	553
6.6.1	win	2022-12-14	20:06:22	20:11:31	308423	62713a003caa3feec5c6a0ba	291454553	1	practice_z	9	practice_z	3	stimuli_distractor_trianglediamonds.svg	stimuli_distractor_trianglediamonds.svg	15	no	0	1	2003
6.6.1	win	2022-12-14	20:06:22	20:11:31	308423	62713a003caa3feec5c6a0ba	291454553	1	practice_z	9	advance_on_keypress_ZEE	4	stimuli_distractor_trianglediamonds.svg	stimuli_distractor_trianglediamonds.svg	15	no	57	0	232
6.6.1	win	2022-12-14	20:06:22	20:11:34	310859	62713a003caa3feec5c6a0ba	291454553	1	practice_z	9	practice_z	5	stimuli_target_diamondsquares.svg	stimuli_distractor_diamondtriangles.svg	3	yes	44	1	592
6.6.1	win	2022-12-14	20:06:22	20:11:34	310859	62713a003caa3feec5c6a0ba	291454553	1	practice_z	9	advance_on_keypress_ZEE	6	stimuli_target_diamondsquares.svg	stimuli_distractor_diamondtriangles.svg	3	yes	57	0	347
6.6.1	win	2022-12-14	20:06:22	20:11:36	313179	62713a003caa3feec5c6a0ba	291454553	1	practice_z	9	practice_z	7	stimuli_target_circlediamonds.svg	stimuli_distractor_diamondtriangles.svg	1	yes	44	1	360
6.6.1	win	2022-12-14	20:06:22	20:11:36	313179	62713a003caa3feec5c6a0ba	291454553	1	practice_z	9	advance_on_keypress_ZEE	8	stimuli_target_circlediamonds.svg	stimuli_distractor_diamondtriangles.svg	1	yes	57	0	427
6.6.1	win	2022-12-14	20:06:22	20:11:39	315779	62713a003caa3feec5c6a0ba	291454553	1	practice_z	9	practice_z	9	stimuli_target_diamondsquares.svg	stimuli_distractor_trianglediamonds.svg	6	yes	44	1	485
6.6.1	win	2022-12-14	20:06:22	20:11:39	315779	62713a003caa3feec5c6a0ba	291454553	1	practice_z	9	advance_on_keypress_ZEE	10	stimuli_target_diamondsquares.svg	stimuli_distractor_trianglediamonds.svg	6	yes	57	0	355
6.6.1	win	2022-12-14	20:06:22	20:11:41	318227	62713a003caa3feec5c6a0ba	291454553	1	practice_z	9	practice_z	11	stimuli_target_circlediamonds.svg	stimuli_distractor_trianglediamonds.svg	4	yes	44	1	481
6.6.1	win	2022-12-14	20:06:22	20:11:41	318227	62713a003caa3feec5c6a0ba	291454553	1	practice_z	9	advance_on_keypress_ZEE	12	stimuli_target_circlediamonds.svg	stimuli_distractor_trianglediamonds.svg	4	yes	57	0	363
6.6.1	win	2022-12-14	20:06:22	20:11:44	321227	62713a003caa3feec5c6a0ba	291454553	1	practice_z	9	practice_z	13	stimuli_distractor_diamondtriangles.svg	stimuli_distractor_diamondtriangles.svg	13	no	44	0	1025
6.6.1	win	2022-12-14	20:06:22	20:11:44	321227	62713a003caa3feec5c6a0ba	291454553	1	practice_z	9	advance_on_keypress_ZEE	14	stimuli_distractor_diamondtriangles.svg	stimuli_distractor_diamondtriangles.svg	13	no	57	0	707
6.6.1	win	2022-12-14	20:06:22	20:11:47	324012	62713a003caa3feec5c6a0ba	291454553	1	practice_z	9	practice_z	15	stimuli_target_squarediamonds.svg	stimuli_distractor_trianglediamonds.svg	5	yes	44	1	464
6.6.1	win	2022-12-14	20:06:22	20:11:47	324012	62713a003caa3feec5c6a0ba	291454553	1	practice_z	9	advance_on_keypress_ZEE	16	stimuli_target_squarediamonds.svg	stimuli_distractor_trianglediamonds.svg	5	yes	57	0	523
6.6.1	win	2022-12-14	20:06:22	20:11:50	326636	62713a003caa3feec5c6a0ba	291454553	1	practice_z	9	practice_z	17	stimuli_distractor_diamondtriangles.svg	stimuli_target_diamondcircles.svg	8	yes	44	1	488
6.6.1	win	2022-12-14	20:06:22	20:11:50	326636	62713a003caa3feec5c6a0ba	291454553	1	practice_z	9	advance_on_keypress_ZEE	18	stimuli_distractor_diamondtriangles.svg	stimuli_target_diamondcircles.svg	8	yes	57	0	299
6.6.1	win	2022-12-14	20:06:22	20:11:52	329035	62713a003caa3feec5c6a0ba	291454553	1	practice_z	9	practice_z	19	stimuli_target_squarediamonds.svg	stimuli_distractor_diamondtriangles.svg	2	yes	44	1	489
6.6.1	win	2022-12-14	20:06:22	20:11:52	329035	62713a003caa3feec5c6a0ba	291454553	1	practice_z	9	advance_on_keypress_ZEE	20	stimuli_target_squarediamonds.svg	stimuli_distractor_diamondtriangles.svg	2	yes	57	0	339
6.6.1	win	2022-12-14	20:06:22	20:11:54	331523	62713a003caa3feec5c6a0ba	291454553	1	practice_z	9	practice_z	21	stimuli_distractor_trianglediamonds.svg	stimuli_target_diamondcircles.svg	12	yes	44	1	456
6.6.1	win	2022-12-14	20:06:22	20:11:54	331523	62713a003caa3feec5c6a0ba	291454553	1	practice_z	9	advance_on_keypress_ZEE	22	stimuli_distractor_trianglediamonds.svg	stimuli_target_diamondcircles.svg	12	yes	57	0	275
6.6.1	win	2022-12-14	20:06:22	20:11:57	334123	62713a003caa3feec5c6a0ba	291454553	1	practice_z	9	practice_z	23	stimuli_distractor_trianglediamonds.svg	stimuli_distractor_diamondtriangles.svg	16	no	44	0	712
6.6.1	win	2022-12-14	20:06:22	20:11:57	334123	62713a003caa3feec5c6a0ba	291454553	1	practice_z	9	advance_on_keypress_ZEE	24	stimuli_distractor_trianglediamonds.svg	stimuli_distractor_diamondtriangles.svg	16	no	57	0	579
6.6.1	win	2022-12-14	20:06:22	20:12:00	336882	62713a003caa3feec5c6a0ba	291454553	1	practice_z	9	practice_z	25	stimuli_distractor_diamondtriangles.svg	stimuli_target_circletriangles.svg	7	yes	44	1	568
6.6.1	win	2022-12-14	20:06:22	20:12:00	336882	62713a003caa3feec5c6a0ba	291454553	1	practice_z	9	advance_on_keypress_ZEE	26	stimuli_distractor_diamondtriangles.svg	stimuli_target_circletriangles.svg	7	yes	57	0	268
6.6.1	win	2022-12-14	20:06:22	20:12:02	339236	62713a003caa3feec5c6a0ba	291454553	1	practice_z	9	practice_z	27	stimuli_distractor_diamondtriangles.svg	stimuli_target_trianglecircles.svg	9	yes	44	1	472
6.6.1	win	2022-12-14	20:06:22	20:12:02	339236	62713a003caa3feec5c6a0ba	291454553	1	practice_z	9	advance_on_keypress_ZEE	28	stimuli_distractor_diamondtriangles.svg	stimuli_target_trianglecircles.svg	9	yes	57	0	307
6.6.1	win	2022-12-14	20:06:22	20:12:06	343159	62713a003caa3feec5c6a0ba	291454553	1	practice_z	9	practice_z	29	stimuli_distractor_diamondtriangles.svg	stimuli_distractor_trianglediamonds.svg	14	no	0	1	2003
6.6.1	win	2022-12-14	20:06:22	20:12:06	343159	62713a003caa3feec5c6a0ba	291454553	1	practice_z	9	advance_on_keypress_ZEE	30	stimuli_distractor_diamondtriangles.svg	stimuli_distractor_trianglediamonds.svg	14	no	57	0	224
6.6.1	win	2022-12-14	20:06:22	20:12:08	345514	62713a003caa3feec5c6a0ba	291454553	1	practice_z	9	practice_z	31	stimuli_distractor_trianglediamonds.svg	stimuli_target_squarediamonds.svg	11	yes	44	1	446
6.6.1	win	2022-12-14	20:06:22	20:12:08	345514	62713a003caa3feec5c6a0ba	291454553	1	practice_z	9	advance_on_keypress_ZEE	32	stimuli_distractor_trianglediamonds.svg	stimuli_target_squarediamonds.svg	11	yes	57	0	183
6.6.1	win	2022-12-14	20:06:22	20:12:12	348546	62713a003caa3feec5c6a0ba	291454553	1	main_z	11	main_z	1	stimuli_target_diamondcircles.svg	stimuli_distractor_trianglediamonds.svg	19	yes	44	1	632
6.6.1	win	2022-12-14	20:06:22	20:12:12	348546	62713a003caa3feec5c6a0ba	291454553	1	main_z	11	advance_on_keypress_ZEE	2	stimuli_target_diamondcircles.svg	stimuli_distractor_trianglediamonds.svg	19	yes	57	0	578
6.6.1	win	2022-12-14	20:06:22	20:12:13	350290	62713a003caa3feec5c6a0ba	291454553	1	main_z	11	main_z	3	stimuli_target_diamondsquares.svg	stimuli_distractor_diamondtriangles.svg	24	yes	44	1	472
6.6.1	win	2022-12-14	20:06:22	20:12:13	350290	62713a003caa3feec5c6a0ba	291454553	1	main_z	11	advance_on_keypress_ZEE	4	stimuli_target_diamondsquares.svg	stimuli_distractor_diamondtriangles.svg	24	yes	57	0	1061
6.6.1	win	2022-12-14	20:06:22	20:12:15	352466	62713a003caa3feec5c6a0ba	291454553	1	main_z	11	main_z	5	stimuli_target_circletriangles.svg	stimuli_distractor_diamondtriangles.svg	5	yes	44	1	504
6.6.1	win	2022-12-14	20:06:22	20:12:15	352466	62713a003caa3feec5c6a0ba	291454553	1	main_z	11	advance_on_keypress_ZEE	6	stimuli_target_circletriangles.svg	stimuli_distractor_diamondtriangles.svg	5	yes	57	0	573
6.6.1	win	2022-12-14	20:06:22	20:12:19	355653	62713a003caa3feec5c6a0ba	291454553	1	main_z	11	main_z	7	stimuli_distractor_diamondtriangles.svg	stimuli_distractor_diamondtriangles.svg	40	no	0	1	2003
6.6.1	win	2022-12-14	20:06:22	20:12:19	355653	62713a003caa3feec5c6a0ba	291454553	1	main_z	11	advance_on_keypress_ZEE	8	stimuli_distractor_diamondtriangles.svg	stimuli_distractor_diamondtriangles.svg	40	no	57	0	281
6.6.1	win	2022-12-14	20:06:22	20:12:20	357050	62713a003caa3feec5c6a0ba	291454553	1	main_z	11	main_z	9	stimuli_target_circlediamonds.svg	stimuli_distractor_diamondtriangles.svg	6	yes	44	1	504
6.6.1	win	2022-12-14	20:06:22	20:12:20	357050	62713a003caa3feec5c6a0ba	291454553	1	main_z	11	advance_on_keypress_ZEE	10	stimuli_target_circlediamonds.svg	stimuli_distractor_diamondtriangles.svg	6	yes	57	0	484
6.6.1	win	2022-12-14	20:06:22	20:12:22	358626	62713a003caa3feec5c6a0ba	291454553	1	main_z	11	main_z	11	stimuli_distractor_trianglediamonds.svg	stimuli_target_diamondcircles.svg	27	yes	44	1	481
6.6.1	win	2022-12-14	20:06:22	20:12:22	358626	62713a003caa3feec5c6a0ba	291454553	1	main_z	11	advance_on_keypress_ZEE	12	stimuli_distractor_trianglediamonds.svg	stimuli_target_diamondcircles.svg	27	yes	57	0	437
6.6.1	win	2022-12-14	20:06:22	20:12:25	361677	62713a003caa3feec5c6a0ba	291454553	1	main_z	11	main_z	13	stimuli_distractor_diamondtriangles.svg	stimuli_distractor_diamondtriangles.svg	39	no	0	1	2003
6.6.1	win	2022-12-14	20:06:22	20:12:25	361677	62713a003caa3feec5c6a0ba	291454553	1	main_z	11	advance_on_keypress_ZEE	14	stimuli_distractor_diamondtriangles.svg	stimuli_distractor_diamondtriangles.svg	39	no	57	0	313
6.6.1	win	2022-12-14	20:06:22	20:12:28	364605	62713a003caa3feec5c6a0ba	291454553	1	main_z	11	main_z	15	stimuli_distractor_trianglediamonds.svg	stimuli_target_squarediamonds.svg	12	yes	0	0	2003
6.6.1	win	2022-12-14	20:06:22	20:12:28	364605	62713a003caa3feec5c6a0ba	291454553	1	main_z	11	advance_on_keypress_ZEE	16	stimuli_distractor_trianglediamonds.svg	stimuli_target_squarediamonds.svg	12	yes	57	0	49
6.6.1	win	2022-12-14	20:06:22	20:12:30	367267	62713a003caa3feec5c6a0ba	291454553	1	main_z	11	main_z	17	stimuli_distractor_trianglediamonds.svg	stimuli_distractor_trianglediamonds.svg	33	no	0	1	2003
6.6.1	win	2022-12-14	20:06:22	20:12:30	367267	62713a003caa3feec5c6a0ba	291454553	1	main_z	11	advance_on_keypress_ZEE	18	stimuli_distractor_trianglediamonds.svg	stimuli_distractor_trianglediamonds.svg	33	no	57	0	355
6.6.1	win	2022-12-14	20:06:22	20:12:32	368706	62713a003caa3feec5c6a0ba	291454553	1	main_z	11	main_z	19	stimuli_distractor_diamondtriangles.svg	stimuli_target_diamondsquares.svg	32	yes	44	1	473
6.6.1	win	2022-12-14	20:06:22	20:12:32	368706	62713a003caa3feec5c6a0ba	291454553	1	main_z	11	advance_on_keypress_ZEE	20	stimuli_distractor_diamondtriangles.svg	stimuli_target_diamondsquares.svg	32	yes	57	0	540
6.6.1	win	2022-12-14	20:06:22	20:12:33	370265	62713a003caa3feec5c6a0ba	291454553	1	main_z	11	main_z	21	stimuli_target_trianglesquares.svg	stimuli_distractor_trianglediamonds.svg	18	yes	44	1	410
6.6.1	win	2022-12-14	20:06:22	20:12:33	370265	62713a003caa3feec5c6a0ba	291454553	1	main_z	11	advance_on_keypress_ZEE	22	stimuli_target_trianglesquares.svg	stimuli_distractor_trianglediamonds.svg	18	yes	57	0	854
6.6.1	win	2022-12-14	20:06:22	20:12:35	372250	62713a003caa3feec5c6a0ba	291454553	1	main_z	11	main_z	23	stimuli_distractor_trianglediamonds.svg	stimuli_target_squaretriangles.svg	11	yes	44	1	520
6.6.1	win	2022-12-14	20:06:22	20:12:35	372250	62713a003caa3feec5c6a0ba	291454553	1	main_z	11	advance_on_keypress_ZEE	24	stimuli_distractor_trianglediamonds.svg	stimuli_target_squaretriangles.svg	11	yes	57	0	477
6.6.1	win	2022-12-14	20:06:22	20:12:37	373777	62713a003caa3feec5c6a0ba	291454553	1	main_z	11	main_z	25	stimuli_target_diamondcircles.svg	stimuli_distractor_diamondtriangles.svg	23	yes	44	1	441
6.6.1	win	2022-12-14	20:06:22	20:12:37	373777	62713a003caa3feec5c6a0ba	291454553	1	main_z	11	advance_on_keypress_ZEE	26	stimuli_target_diamondcircles.svg	stimuli_distractor_diamondtriangles.svg	23	yes	57	0	318
6.6.1	win	2022-12-14	20:06:22	20:12:38	375289	62713a003caa3feec5c6a0ba	291454553	1	main_z	11	main_z	27	stimuli_target_squarediamonds.svg	stimuli_distractor_trianglediamonds.svg	4	yes	44	1	585
6.6.1	win	2022-12-14	20:06:22	20:12:38	375289	62713a003caa3feec5c6a0ba	291454553	1	main_z	11	advance_on_keypress_ZEE	28	stimuli_target_squarediamonds.svg	stimuli_distractor_trianglediamonds.svg	4	yes	57	0	238
6.6.1	win	2022-12-14	20:06:22	20:12:40	376762	62713a003caa3feec5c6a0ba	291454553	1	main_z	11	main_z	29	stimuli_distractor_diamondtriangles.svg	stimuli_target_circletriangles.svg	13	yes	44	1	625
6.6.1	win	2022-12-14	20:06:22	20:12:40	376762	62713a003caa3feec5c6a0ba	291454553	1	main_z	11	advance_on_keypress_ZEE	30	stimuli_distractor_diamondtriangles.svg	stimuli_target_circletriangles.svg	13	yes	57	0	228
6.6.1	win	2022-12-14	20:06:22	20:12:41	378210	62713a003caa3feec5c6a0ba	291454553	1	main_z	11	main_z	31	stimuli_distractor_trianglediamonds.svg	stimuli_target_diamondsquares.svg	28	yes	44	1	608
6.6.1	win	2022-12-14	20:06:22	20:12:41	378210	62713a003caa3feec5c6a0ba	291454553	1	main_z	11	advance_on_keypress_ZEE	32	stimuli_distractor_trianglediamonds.svg	stimuli_target_diamondsquares.svg	28	yes	57	0	228
6.6.1	win	2022-12-14	20:06:22	20:12:44	381052	62713a003caa3feec5c6a0ba	291454553	1	main_z	11	main_z	33	stimuli_distractor_trianglediamonds.svg	stimuli_distractor_trianglediamonds.svg	34	no	0	1	2003
6.6.1	win	2022-12-14	20:06:22	20:12:44	381052	62713a003caa3feec5c6a0ba	291454553	1	main_z	11	advance_on_keypress_ZEE	34	stimuli_distractor_trianglediamonds.svg	stimuli_distractor_trianglediamonds.svg	34	no	57	0	282
6.6.1	win	2022-12-14	20:06:22	20:12:45	382345	62713a003caa3feec5c6a0ba	291454553	1	main_z	11	main_z	35	stimuli_distractor_trianglediamonds.svg	stimuli_target_circlediamonds.svg	10	yes	44	1	400
6.6.1	win	2022-12-14	20:06:22	20:12:45	382345	62713a003caa3feec5c6a0ba	291454553	1	main_z	11	advance_on_keypress_ZEE	36	stimuli_distractor_trianglediamonds.svg	stimuli_target_circlediamonds.svg	10	yes	57	0	210
6.6.1	win	2022-12-14	20:06:22	20:12:48	385173	62713a003caa3feec5c6a0ba	291454553	1	main_z	11	main_z	37	stimuli_distractor_diamondtriangles.svg	stimuli_distractor_trianglediamonds.svg	37	no	0	1	2003
6.6.1	win	2022-12-14	20:06:22	20:12:48	385173	62713a003caa3feec5c6a0ba	291454553	1	main_z	11	advance_on_keypress_ZEE	38	stimuli_distractor_diamondtriangles.svg	stimuli_distractor_trianglediamonds.svg	37	no	57	0	250
6.6.1	win	2022-12-14	20:06:22	20:12:49	386441	62713a003caa3feec5c6a0ba	291454553	1	main_z	11	main_z	39	stimuli_target_squaretriangles.svg	stimuli_distractor_trianglediamonds.svg	3	yes	44	1	408
6.6.1	win	2022-12-14	20:06:22	20:12:49	386441	62713a003caa3feec5c6a0ba	291454553	1	main_z	11	advance_on_keypress_ZEE	40	stimuli_target_squaretriangles.svg	stimuli_distractor_trianglediamonds.svg	3	yes	57	0	214
6.6.1	win	2022-12-14	20:06:22	20:12:51	387754	62713a003caa3feec5c6a0ba	291454553	1	main_z	11	main_z	41	stimuli_distractor_trianglediamonds.svg	stimuli_distractor_diamondtriangles.svg	35	no	44	0	489
6.6.1	win	2022-12-14	20:06:22	20:12:51	387754	62713a003caa3feec5c6a0ba	291454553	1	main_z	11	advance_on_keypress_ZEE	42	stimuli_distractor_trianglediamonds.svg	stimuli_distractor_diamondtriangles.svg	35	no	57	0	181
6.6.1	win	2022-12-14	20:06:22	20:12:52	389154	62713a003caa3feec5c6a0ba	291454553	1	main_z	11	main_z	43	stimuli_distractor_trianglediamonds.svg	stimuli_target_circletriangles.svg	9	yes	44	1	609
6.6.1	win	2022-12-14	20:06:22	20:12:52	389154	62713a003caa3feec5c6a0ba	291454553	1	main_z	11	advance_on_keypress_ZEE	44	stimuli_distractor_trianglediamonds.svg	stimuli_target_circletriangles.svg	9	yes	57	0	213
6.6.1	win	2022-12-14	20:06:22	20:12:53	390434	62713a003caa3feec5c6a0ba	291454553	1	main_z	11	main_z	45	stimuli_target_trianglecircles.svg	stimuli_distractor_diamondtriangles.svg	21	yes	44	1	456
6.6.1	win	2022-12-14	20:06:22	20:12:53	390434	62713a003caa3feec5c6a0ba	291454553	1	main_z	11	advance_on_keypress_ZEE	46	stimuli_target_trianglecircles.svg	stimuli_distractor_diamondtriangles.svg	21	yes	57	0	196
6.6.1	win	2022-12-14	20:06:22	20:12:55	391714	62713a003caa3feec5c6a0ba	291454553	1	main_z	11	main_z	47	stimuli_target_trianglesquares.svg	stimuli_distractor_diamondtriangles.svg	22	yes	44	1	473
6.6.1	win	2022-12-14	20:06:22	20:12:55	391714	62713a003caa3feec5c6a0ba	291454553	1	main_z	11	advance_on_keypress_ZEE	48	stimuli_target_trianglesquares.svg	stimuli_distractor_diamondtriangles.svg	22	yes	57	0	197
6.6.1	win	2022-12-14	20:06:22	20:12:56	392945	62713a003caa3feec5c6a0ba	291454553	1	main_z	11	main_z	49	stimuli_target_circletriangles.svg	stimuli_distractor_trianglediamonds.svg	1	yes	44	1	425
6.6.1	win	2022-12-14	20:06:22	20:12:56	392945	62713a003caa3feec5c6a0ba	291454553	1	main_z	11	advance_on_keypress_ZEE	50	stimuli_target_circletriangles.svg	stimuli_distractor_trianglediamonds.svg	1	yes	57	0	198
6.6.1	win	2022-12-14	20:06:22	20:12:57	394193	62713a003caa3feec5c6a0ba	291454553	1	main_z	11	main_z	51	stimuli_distractor_diamondtriangles.svg	stimuli_target_circlediamonds.svg	14	yes	44	1	441
6.6.1	win	2022-12-14	20:06:22	20:12:57	394193	62713a003caa3feec5c6a0ba	291454553	1	main_z	11	advance_on_keypress_ZEE	52	stimuli_distractor_diamondtriangles.svg	stimuli_target_circlediamonds.svg	14	yes	57	0	190
6.6.1	win	2022-12-14	20:06:22	20:12:58	395458	62713a003caa3feec5c6a0ba	291454553	1	main_z	11	main_z	53	stimuli_distractor_diamondtriangles.svg	stimuli_target_squaretriangles.svg	15	yes	44	1	464
6.6.1	win	2022-12-14	20:06:22	20:12:58	395458	62713a003caa3feec5c6a0ba	291454553	1	main_z	11	advance_on_keypress_ZEE	54	stimuli_distractor_diamondtriangles.svg	stimuli_target_squaretriangles.svg	15	yes	57	0	181
6.6.1	win	2022-12-14	20:06:22	20:13:00	396697	62713a003caa3feec5c6a0ba	291454553	1	main_z	11	main_z	55	stimuli_distractor_diamondtriangles.svg	stimuli_target_trianglesquares.svg	30	yes	44	1	449
6.6.1	win	2022-12-14	20:06:22	20:13:00	396697	62713a003caa3feec5c6a0ba	291454553	1	main_z	11	advance_on_keypress_ZEE	56	stimuli_distractor_diamondtriangles.svg	stimuli_target_trianglesquares.svg	30	yes	57	0	206
6.6.1	win	2022-12-14	20:06:22	20:13:01	398049	62713a003caa3feec5c6a0ba	291454553	1	main_z	11	main_z	57	stimuli_distractor_diamondtriangles.svg	stimuli_distractor_trianglediamonds.svg	38	no	44	0	537
6.6.1	win	2022-12-14	20:06:22	20:13:01	398049	62713a003caa3feec5c6a0ba	291454553	1	main_z	11	advance_on_keypress_ZEE	58	stimuli_distractor_diamondtriangles.svg	stimuli_distractor_trianglediamonds.svg	38	no	57	0	230
6.6.1	win	2022-12-14	20:06:22	20:13:04	400893	62713a003caa3feec5c6a0ba	291454553	1	main_z	11	main_z	59	stimuli_distractor_trianglediamonds.svg	stimuli_distractor_diamondtriangles.svg	36	no	0	1	2003
6.6.1	win	2022-12-14	20:06:22	20:13:04	400893	62713a003caa3feec5c6a0ba	291454553	1	main_z	11	advance_on_keypress_ZEE	60	stimuli_distractor_trianglediamonds.svg	stimuli_distractor_diamondtriangles.svg	36	no	57	0	305
6.6.1	win	2022-12-14	20:06:22	20:13:05	402209	62713a003caa3feec5c6a0ba	291454553	1	main_z	11	main_z	61	stimuli_target_squaretriangles.svg	stimuli_distractor_diamondtriangles.svg	7	yes	44	1	400
6.6.1	win	2022-12-14	20:06:22	20:13:05	402209	62713a003caa3feec5c6a0ba	291454553	1	main_z	11	advance_on_keypress_ZEE	62	stimuli_target_squaretriangles.svg	stimuli_distractor_diamondtriangles.svg	7	yes	57	0	153
6.6.1	win	2022-12-14	20:06:22	20:13:06	403417	62713a003caa3feec5c6a0ba	291454553	1	main_z	11	main_z	63	stimuli_target_circlediamonds.svg	stimuli_distractor_trianglediamonds.svg	2	yes	44	1	440
6.6.1	win	2022-12-14	20:06:22	20:13:06	403417	62713a003caa3feec5c6a0ba	291454553	1	main_z	11	advance_on_keypress_ZEE	64	stimuli_target_circlediamonds.svg	stimuli_distractor_trianglediamonds.svg	2	yes	57	0	134
6.6.1	win	2022-12-14	20:06:22	20:13:08	404634	62713a003caa3feec5c6a0ba	291454553	1	main_z	11	main_z	65	stimuli_distractor_trianglediamonds.svg	stimuli_target_trianglesquares.svg	26	yes	44	1	472
6.6.1	win	2022-12-14	20:06:22	20:13:08	404634	62713a003caa3feec5c6a0ba	291454553	1	main_z	11	advance_on_keypress_ZEE	66	stimuli_distractor_trianglediamonds.svg	stimuli_target_trianglesquares.svg	26	yes	57	0	77
6.6.1	win	2022-12-14	20:06:22	20:13:09	405786	62713a003caa3feec5c6a0ba	291454553	1	main_z	11	main_z	67	stimuli_distractor_diamondtriangles.svg	stimuli_target_squarediamonds.svg	16	yes	44	1	464
6.6.1	win	2022-12-14	20:06:22	20:13:09	405786	62713a003caa3feec5c6a0ba	291454553	1	main_z	11	advance_on_keypress_ZEE	68	stimuli_distractor_diamondtriangles.svg	stimuli_target_squarediamonds.svg	16	yes	57	0	109
6.6.1	win	2022-12-14	20:06:22	20:13:10	407002	62713a003caa3feec5c6a0ba	291454553	1	main_z	11	main_z	69	stimuli_distractor_diamondtriangles.svg	stimuli_target_trianglecircles.svg	29	yes	44	1	497
6.6.1	win	2022-12-14	20:06:22	20:13:10	407002	62713a003caa3feec5c6a0ba	291454553	1	main_z	11	advance_on_keypress_ZEE	70	stimuli_distractor_diamondtriangles.svg	stimuli_target_trianglecircles.svg	29	yes	57	0	693
6.6.1	win	2022-12-14	20:06:22	20:13:12	408697	62713a003caa3feec5c6a0ba	291454553	1	main_z	11	main_z	71	stimuli_distractor_diamondtriangles.svg	stimuli_target_diamondcircles.svg	31	yes	44	1	392
6.6.1	win	2022-12-14	20:06:22	20:13:12	408697	62713a003caa3feec5c6a0ba	291454553	1	main_z	11	advance_on_keypress_ZEE	72	stimuli_distractor_diamondtriangles.svg	stimuli_target_diamondcircles.svg	31	yes	57	0	35
6.6.1	win	2022-12-14	20:06:22	20:13:12	409442	62713a003caa3feec5c6a0ba	291454553	1	main_z	11	main_z	73	stimuli_target_diamondsquares.svg	stimuli_distractor_trianglediamonds.svg	20	yes	44	1	90
6.6.1	win	2022-12-14	20:06:22	20:13:12	409442	62713a003caa3feec5c6a0ba	291454553	1	main_z	11	advance_on_keypress_ZEE	74	stimuli_target_diamondsquares.svg	stimuli_distractor_trianglediamonds.svg	20	yes	57	0	829
6.6.1	win	2022-12-14	20:06:22	20:13:14	411274	62713a003caa3feec5c6a0ba	291454553	1	main_z	11	main_z	75	stimuli_target_squarediamonds.svg	stimuli_distractor_diamondtriangles.svg	8	yes	44	1	386
6.6.1	win	2022-12-14	20:06:22	20:13:14	411274	62713a003caa3feec5c6a0ba	291454553	1	main_z	11	advance_on_keypress_ZEE	76	stimuli_target_squarediamonds.svg	stimuli_distractor_diamondtriangles.svg	8	yes	57	0	76
6.6.1	win	2022-12-14	20:06:22	20:13:15	412418	62713a003caa3feec5c6a0ba	291454553	1	main_z	11	main_z	77	stimuli_distractor_trianglediamonds.svg	stimuli_target_trianglecircles.svg	25	yes	44	1	456
6.6.1	win	2022-12-14	20:06:22	20:13:15	412418	62713a003caa3feec5c6a0ba	291454553	1	main_z	11	advance_on_keypress_ZEE	78	stimuli_distractor_trianglediamonds.svg	stimuli_target_trianglecircles.svg	25	yes	57	0	149
6.6.1	win	2022-12-14	20:06:22	20:13:17	413576	62713a003caa3feec5c6a0ba	291454553	1	main_z	11	main_z	79	stimuli_target_trianglecircles.svg	stimuli_distractor_trianglediamonds.svg	17	yes	44	1	400
6.6.1	win	2022-12-14	20:06:22	20:13:17	413576	62713a003caa3feec5c6a0ba	291454553	1	main_z	11	advance_on_keypress_ZEE	80	stimuli_target_trianglecircles.svg	stimuli_distractor_trianglediamonds.svg	17	yes	57	0	150
6.6.1	win	2022-12-14	20:06:22	20:13:18	414666	62713a003caa3feec5c6a0ba	291454553	1	main_z	11	main_z	81	stimuli_target_squarediamonds.svg	stimuli_distractor_diamondtriangles.svg	8	yes	44	1	329
6.6.1	win	2022-12-14	20:06:22	20:13:18	414666	62713a003caa3feec5c6a0ba	291454553	1	main_z	11	advance_on_keypress_ZEE	82	stimuli_target_squarediamonds.svg	stimuli_distractor_diamondtriangles.svg	8	yes	57	0	165
6.6.1	win	2022-12-14	20:06:22	20:13:20	417445	62713a003caa3feec5c6a0ba	291454553	1	main_z	11	main_z	83	stimuli_distractor_trianglediamonds.svg	stimuli_distractor_trianglediamonds.svg	34	no	0	1	2003
6.6.1	win	2022-12-14	20:06:22	20:13:20	417445	62713a003caa3feec5c6a0ba	291454553	1	main_z	11	advance_on_keypress_ZEE	84	stimuli_distractor_trianglediamonds.svg	stimuli_distractor_trianglediamonds.svg	34	no	57	0	370
6.6.1	win	2022-12-14	20:06:22	20:13:22	418682	62713a003caa3feec5c6a0ba	291454553	1	main_z	11	main_z	85	stimuli_distractor_diamondtriangles.svg	stimuli_target_circletriangles.svg	13	yes	44	1	256
6.6.1	win	2022-12-14	20:06:22	20:13:22	418682	62713a003caa3feec5c6a0ba	291454553	1	main_z	11	advance_on_keypress_ZEE	86	stimuli_distractor_diamondtriangles.svg	stimuli_target_circletriangles.svg	13	yes	57	0	149
6.6.1	win	2022-12-14	20:06:22	20:13:23	419730	62713a003caa3feec5c6a0ba	291454553	1	main_z	11	main_z	87	stimuli_target_diamondsquares.svg	stimuli_distractor_diamondtriangles.svg	24	yes	44	1	288
6.6.1	win	2022-12-14	20:06:22	20:13:23	419730	62713a003caa3feec5c6a0ba	291454553	1	main_z	11	advance_on_keypress_ZEE	88	stimuli_target_diamondsquares.svg	stimuli_distractor_diamondtriangles.svg	24	yes	57	0	149
6.6.1	win	2022-12-14	20:06:22	20:13:24	420778	62713a003caa3feec5c6a0ba	291454553	1	main_z	11	main_z	89	stimuli_target_squaretriangles.svg	stimuli_distractor_trianglediamonds.svg	3	yes	44	1	288
6.6.1	win	2022-12-14	20:06:22	20:13:24	420778	62713a003caa3feec5c6a0ba	291454553	1	main_z	11	advance_on_keypress_ZEE	90	stimuli_target_squaretriangles.svg	stimuli_distractor_trianglediamonds.svg	3	yes	57	0	93
6.6.1	win	2022-12-14	20:06:22	20:13:25	421786	62713a003caa3feec5c6a0ba	291454553	1	main_z	11	main_z	91	stimuli_target_trianglecircles.svg	stimuli_distractor_trianglediamonds.svg	17	yes	44	1	305
6.6.1	win	2022-12-14	20:06:22	20:13:25	421786	62713a003caa3feec5c6a0ba	291454553	1	main_z	11	advance_on_keypress_ZEE	92	stimuli_target_trianglecircles.svg	stimuli_distractor_trianglediamonds.svg	17	yes	57	0	28
6.6.1	win	2022-12-14	20:06:22	20:13:26	422825	62713a003caa3feec5c6a0ba	291454553	1	main_z	11	main_z	93	stimuli_distractor_diamondtriangles.svg	stimuli_distractor_trianglediamonds.svg	38	no	44	0	402
6.6.1	win	2022-12-14	20:06:22	20:13:26	422825	62713a003caa3feec5c6a0ba	291454553	1	main_z	11	advance_on_keypress_ZEE	94	stimuli_distractor_diamondtriangles.svg	stimuli_distractor_trianglediamonds.svg	38	no	57	0	222
6.6.1	win	2022-12-14	20:06:22	20:13:27	424002	62713a003caa3feec5c6a0ba	291454553	1	main_z	11	main_z	95	stimuli_target_circlediamonds.svg	stimuli_distractor_trianglediamonds.svg	2	yes	44	1	345
6.6.1	win	2022-12-14	20:06:22	20:13:27	424002	62713a003caa3feec5c6a0ba	291454553	1	main_z	11	advance_on_keypress_ZEE	96	stimuli_target_circlediamonds.svg	stimuli_distractor_trianglediamonds.svg	2	yes	57	0	93
6.6.1	win	2022-12-14	20:06:22	20:13:28	425121	62713a003caa3feec5c6a0ba	291454553	1	main_z	11	main_z	97	stimuli_distractor_trianglediamonds.svg	stimuli_target_diamondcircles.svg	27	yes	44	1	417
6.6.1	win	2022-12-14	20:06:22	20:13:28	425121	62713a003caa3feec5c6a0ba	291454553	1	main_z	11	advance_on_keypress_ZEE	98	stimuli_distractor_trianglediamonds.svg	stimuli_target_diamondcircles.svg	27	yes	57	0	70
6.6.1	win	2022-12-14	20:06:22	20:13:29	426154	62713a003caa3feec5c6a0ba	291454553	1	main_z	11	main_z	99	stimuli_target_circletriangles.svg	stimuli_distractor_trianglediamonds.svg	1	yes	44	1	354
6.6.1	win	2022-12-14	20:06:22	20:13:29	426154	62713a003caa3feec5c6a0ba	291454553	1	main_z	11	advance_on_keypress_ZEE	100	stimuli_target_circletriangles.svg	stimuli_distractor_trianglediamonds.svg	1	yes	57	0	69
6.6.1	win	2022-12-14	20:06:22	20:13:30	427361	62713a003caa3feec5c6a0ba	291454553	1	main_z	11	main_z	101	stimuli_distractor_diamondtriangles.svg	stimuli_target_diamondsquares.svg	32	yes	44	1	529
6.6.1	win	2022-12-14	20:06:22	20:13:30	427361	62713a003caa3feec5c6a0ba	291454553	1	main_z	11	advance_on_keypress_ZEE	102	stimuli_distractor_diamondtriangles.svg	stimuli_target_diamondsquares.svg	32	yes	57	0	59
6.6.1	win	2022-12-14	20:06:22	20:13:33	430035	62713a003caa3feec5c6a0ba	291454553	1	main_z	11	main_z	103	stimuli_distractor_trianglediamonds.svg	stimuli_distractor_trianglediamonds.svg	33	no	0	1	2003
6.6.1	win	2022-12-14	20:06:22	20:13:33	430035	62713a003caa3feec5c6a0ba	291454553	1	main_z	11	advance_on_keypress_ZEE	104	stimuli_distractor_trianglediamonds.svg	stimuli_distractor_trianglediamonds.svg	33	no	57	0	299
6.6.1	win	2022-12-14	20:06:22	20:13:34	431210	62713a003caa3feec5c6a0ba	291454553	1	main_z	11	main_z	105	stimuli_target_trianglesquares.svg	stimuli_distractor_trianglediamonds.svg	18	yes	44	1	264
6.6.1	win	2022-12-14	20:06:22	20:13:34	431210	62713a003caa3feec5c6a0ba	291454553	1	main_z	11	advance_on_keypress_ZEE	106	stimuli_target_trianglesquares.svg	stimuli_distractor_trianglediamonds.svg	18	yes	57	0	116
6.6.1	win	2022-12-14	20:06:22	20:13:35	432226	62713a003caa3feec5c6a0ba	291454553	1	main_z	11	main_z	107	stimuli_distractor_trianglediamonds.svg	stimuli_target_diamondsquares.svg	28	yes	44	1	289
6.6.1	win	2022-12-14	20:06:22	20:13:35	432226	62713a003caa3feec5c6a0ba	291454553	1	main_z	11	advance_on_keypress_ZEE	108	stimuli_distractor_trianglediamonds.svg	stimuli_target_diamondsquares.svg	28	yes	57	0	101
6.6.1	win	2022-12-14	20:06:22	20:13:38	434940	62713a003caa3feec5c6a0ba	291454553	1	main_z	11	main_z	109	stimuli_distractor_diamondtriangles.svg	stimuli_distractor_diamondtriangles.svg	39	no	0	1	2003
6.6.1	win	2022-12-14	20:06:22	20:13:38	434940	62713a003caa3feec5c6a0ba	291454553	1	main_z	11	advance_on_keypress_ZEE	110	stimuli_distractor_diamondtriangles.svg	stimuli_distractor_diamondtriangles.svg	39	no	57	0	210
6.6.1	win	2022-12-14	20:06:22	20:13:39	436026	62713a003caa3feec5c6a0ba	291454553	1	main_z	11	main_z	111	stimuli_distractor_diamondtriangles.svg	stimuli_distractor_trianglediamonds.svg	37	no	44	0	264
6.6.1	win	2022-12-14	20:06:22	20:13:39	436026	62713a003caa3feec5c6a0ba	291454553	1	main_z	11	advance_on_keypress_ZEE	112	stimuli_distractor_diamondtriangles.svg	stimuli_distractor_trianglediamonds.svg	37	no	57	0	68
6.6.1	win	2022-12-14	20:06:22	20:13:40	437322	62713a003caa3feec5c6a0ba	291454553	1	main_z	11	main_z	113	stimuli_distractor_diamondtriangles.svg	stimuli_target_squaretriangles.svg	15	yes	44	1	618
6.6.1	win	2022-12-14	20:06:22	20:13:40	437322	62713a003caa3feec5c6a0ba	291454553	1	main_z	11	advance_on_keypress_ZEE	114	stimuli_distractor_diamondtriangles.svg	stimuli_target_squaretriangles.svg	15	yes	57	0	93
6.6.1	win	2022-12-14	20:06:22	20:13:41	438394	62713a003caa3feec5c6a0ba	291454553	1	main_z	11	main_z	115	stimuli_distractor_trianglediamonds.svg	stimuli_target_circletriangles.svg	9	yes	44	1	368
6.6.1	win	2022-12-14	20:06:22	20:13:41	438394	62713a003caa3feec5c6a0ba	291454553	1	main_z	11	advance_on_keypress_ZEE	116	stimuli_distractor_trianglediamonds.svg	stimuli_target_circletriangles.svg	9	yes	57	0	45
6.6.1	win	2022-12-14	20:06:22	20:13:42	439410	62713a003caa3feec5c6a0ba	291454553	1	main_z	11	main_z	117	stimuli_distractor_trianglediamonds.svg	stimuli_distractor_diamondtriangles.svg	36	no	44	0	362
6.6.1	win	2022-12-14	20:06:22	20:13:42	439410	62713a003caa3feec5c6a0ba	291454553	1	main_z	11	advance_on_keypress_ZEE	118	stimuli_distractor_trianglediamonds.svg	stimuli_distractor_diamondtriangles.svg	36	no	57	0	69
6.6.1	win	2022-12-14	20:06:22	20:13:43	440434	62713a003caa3feec5c6a0ba	291454553	1	main_z	11	main_z	119	stimuli_target_circletriangles.svg	stimuli_distractor_diamondtriangles.svg	5	yes	44	1	345
6.6.1	win	2022-12-14	20:06:22	20:13:43	440434	62713a003caa3feec5c6a0ba	291454553	1	main_z	11	advance_on_keypress_ZEE	120	stimuli_target_circletriangles.svg	stimuli_distractor_diamondtriangles.svg	5	yes	57	0	69
6.6.1	win	2022-12-14	20:06:22	20:13:44	441489	62713a003caa3feec5c6a0ba	291454553	1	main_z	11	main_z	121	stimuli_distractor_diamondtriangles.svg	stimuli_target_trianglesquares.svg	30	yes	44	1	378
6.6.1	win	2022-12-14	20:06:22	20:13:44	441489	62713a003caa3feec5c6a0ba	291454553	1	main_z	11	advance_on_keypress_ZEE	122	stimuli_distractor_diamondtriangles.svg	stimuli_target_trianglesquares.svg	30	yes	57	0	53
6.6.1	win	2022-12-14	20:06:22	20:13:45	442490	62713a003caa3feec5c6a0ba	291454553	1	main_z	11	main_z	123	stimuli_target_diamondcircles.svg	stimuli_distractor_trianglediamonds.svg	19	yes	44	1	338
6.6.1	win	2022-12-14	20:06:22	20:13:45	442490	62713a003caa3feec5c6a0ba	291454553	1	main_z	11	advance_on_keypress_ZEE	124	stimuli_target_diamondcircles.svg	stimuli_distractor_trianglediamonds.svg	19	yes	57	0	69
6.6.1	win	2022-12-14	20:06:22	20:13:47	443561	62713a003caa3feec5c6a0ba	291454553	1	main_z	11	main_z	125	stimuli_target_squarediamonds.svg	stimuli_distractor_trianglediamonds.svg	4	yes	44	1	394
6.6.1	win	2022-12-14	20:06:22	20:13:47	443561	62713a003caa3feec5c6a0ba	291454553	1	main_z	11	advance_on_keypress_ZEE	126	stimuli_target_squarediamonds.svg	stimuli_distractor_trianglediamonds.svg	4	yes	57	0	92
6.6.1	win	2022-12-14	20:06:22	20:13:48	444914	62713a003caa3feec5c6a0ba	291454553	1	main_z	11	main_z	127	stimuli_target_diamondcircles.svg	stimuli_distractor_diamondtriangles.svg	23	yes	44	1	641
6.6.1	win	2022-12-14	20:06:22	20:13:48	444914	62713a003caa3feec5c6a0ba	291454553	1	main_z	11	advance_on_keypress_ZEE	128	stimuli_target_diamondcircles.svg	stimuli_distractor_diamondtriangles.svg	23	yes	57	0	101
6.6.1	win	2022-12-14	20:06:22	20:13:49	446032	62713a003caa3feec5c6a0ba	291454553	1	main_z	11	main_z	129	stimuli_distractor_trianglediamonds.svg	stimuli_distractor_diamondtriangles.svg	35	no	44	0	409
6.6.1	win	2022-12-14	20:06:22	20:13:49	446032	62713a003caa3feec5c6a0ba	291454553	1	main_z	11	advance_on_keypress_ZEE	130	stimuli_distractor_trianglediamonds.svg	stimuli_distractor_diamondtriangles.svg	35	no	57	0	54
6.6.1	win	2022-12-14	20:06:22	20:13:50	447121	62713a003caa3feec5c6a0ba	291454553	1	main_z	11	main_z	131	stimuli_distractor_trianglediamonds.svg	stimuli_target_trianglecircles.svg	25	yes	44	1	426
6.6.1	win	2022-12-14	20:06:22	20:13:50	447121	62713a003caa3feec5c6a0ba	291454553	1	main_z	11	advance_on_keypress_ZEE	132	stimuli_distractor_trianglediamonds.svg	stimuli_target_trianglecircles.svg	25	yes	57	0	70
6.6.1	win	2022-12-14	20:06:22	20:13:51	448193	62713a003caa3feec5c6a0ba	291454553	1	main_z	11	main_z	133	stimuli_target_diamondsquares.svg	stimuli_distractor_trianglediamonds.svg	20	yes	44	1	394
6.6.1	win	2022-12-14	20:06:22	20:13:51	448193	62713a003caa3feec5c6a0ba	291454553	1	main_z	11	advance_on_keypress_ZEE	134	stimuli_target_diamondsquares.svg	stimuli_distractor_trianglediamonds.svg	20	yes	57	0	62
6.6.1	win	2022-12-14	20:06:22	20:13:52	449289	62713a003caa3feec5c6a0ba	291454553	1	main_z	11	main_z	135	stimuli_distractor_trianglediamonds.svg	stimuli_target_squarediamonds.svg	12	yes	44	1	418
6.6.1	win	2022-12-14	20:06:22	20:13:52	449289	62713a003caa3feec5c6a0ba	291454553	1	main_z	11	advance_on_keypress_ZEE	136	stimuli_distractor_trianglediamonds.svg	stimuli_target_squarediamonds.svg	12	yes	57	0	78
6.6.1	win	2022-12-14	20:06:22	20:13:53	450354	62713a003caa3feec5c6a0ba	291454553	1	main_z	11	main_z	137	stimuli_distractor_diamondtriangles.svg	stimuli_target_circlediamonds.svg	14	yes	44	1	376
6.6.1	win	2022-12-14	20:06:22	20:13:53	450354	62713a003caa3feec5c6a0ba	291454553	1	main_z	11	advance_on_keypress_ZEE	138	stimuli_distractor_diamondtriangles.svg	stimuli_target_circlediamonds.svg	14	yes	57	0	61
6.6.1	win	2022-12-14	20:06:22	20:13:54	451473	62713a003caa3feec5c6a0ba	291454553	1	main_z	11	main_z	139	stimuli_target_trianglesquares.svg	stimuli_distractor_diamondtriangles.svg	22	yes	44	1	450
6.6.1	win	2022-12-14	20:06:22	20:13:54	451473	62713a003caa3feec5c6a0ba	291454553	1	main_z	11	advance_on_keypress_ZEE	140	stimuli_target_trianglesquares.svg	stimuli_distractor_diamondtriangles.svg	22	yes	57	0	70
6.6.1	win	2022-12-14	20:06:22	20:13:55	452530	62713a003caa3feec5c6a0ba	291454553	1	main_z	11	main_z	141	stimuli_target_trianglecircles.svg	stimuli_distractor_diamondtriangles.svg	21	yes	44	1	378
6.6.1	win	2022-12-14	20:06:22	20:13:55	452530	62713a003caa3feec5c6a0ba	291454553	1	main_z	11	advance_on_keypress_ZEE	142	stimuli_target_trianglecircles.svg	stimuli_distractor_diamondtriangles.svg	21	yes	57	0	61
6.6.1	win	2022-12-14	20:06:22	20:13:57	453554	62713a003caa3feec5c6a0ba	291454553	1	main_z	11	main_z	143	stimuli_target_squaretriangles.svg	stimuli_distractor_diamondtriangles.svg	7	yes	44	1	354
6.6.1	win	2022-12-14	20:06:22	20:13:57	453554	62713a003caa3feec5c6a0ba	291454553	1	main_z	11	advance_on_keypress_ZEE	144	stimuli_target_squaretriangles.svg	stimuli_distractor_diamondtriangles.svg	7	yes	57	0	85
6.6.1	win	2022-12-14	20:06:22	20:13:58	454634	62713a003caa3feec5c6a0ba	291454553	1	main_z	11	main_z	145	stimuli_distractor_diamondtriangles.svg	stimuli_target_trianglecircles.svg	29	yes	44	1	385
6.6.1	win	2022-12-14	20:06:22	20:13:58	454634	62713a003caa3feec5c6a0ba	291454553	1	main_z	11	advance_on_keypress_ZEE	146	stimuli_distractor_diamondtriangles.svg	stimuli_target_trianglecircles.svg	29	yes	57	0	93
6.6.1	win	2022-12-14	20:06:22	20:13:59	455706	62713a003caa3feec5c6a0ba	291454553	1	main_z	11	main_z	147	stimuli_distractor_diamondtriangles.svg	stimuli_target_squarediamonds.svg	16	yes	44	1	369
6.6.1	win	2022-12-14	20:06:22	20:13:59	455706	62713a003caa3feec5c6a0ba	291454553	1	main_z	11	advance_on_keypress_ZEE	148	stimuli_distractor_diamondtriangles.svg	stimuli_target_squarediamonds.svg	16	yes	57	0	77
6.6.1	win	2022-12-14	20:06:22	20:14:00	456784	62713a003caa3feec5c6a0ba	291454553	1	main_z	11	main_z	149	stimuli_distractor_trianglediamonds.svg	stimuli_target_squaretriangles.svg	11	yes	44	1	393
6.6.1	win	2022-12-14	20:06:22	20:14:00	456784	62713a003caa3feec5c6a0ba	291454553	1	main_z	11	advance_on_keypress_ZEE	150	stimuli_distractor_trianglediamonds.svg	stimuli_target_squaretriangles.svg	11	yes	57	0	43
6.6.1	win	2022-12-14	20:06:22	20:14:01	457857	62713a003caa3feec5c6a0ba	291454553	1	main_z	11	main_z	151	stimuli_distractor_diamondtriangles.svg	stimuli_target_diamondcircles.svg	31	yes	44	1	410
6.6.1	win	2022-12-14	20:06:22	20:14:01	457857	62713a003caa3feec5c6a0ba	291454553	1	main_z	11	advance_on_keypress_ZEE	152	stimuli_distractor_diamondtriangles.svg	stimuli_target_diamondcircles.svg	31	yes	57	0	54
6.6.1	win	2022-12-14	20:06:22	20:14:03	460523	62713a003caa3feec5c6a0ba	291454553	1	main_z	11	main_z	153	stimuli_distractor_diamondtriangles.svg	stimuli_distractor_diamondtriangles.svg	40	no	0	1	2003
6.6.1	win	2022-12-14	20:06:22	20:14:03	460523	62713a003caa3feec5c6a0ba	291454553	1	main_z	11	advance_on_keypress_ZEE	154	stimuli_distractor_diamondtriangles.svg	stimuli_distractor_diamondtriangles.svg	40	no	57	0	243
6.6.1	win	2022-12-14	20:06:22	20:14:05	461698	62713a003caa3feec5c6a0ba	291454553	1	main_z	11	main_z	155	stimuli_distractor_trianglediamonds.svg	stimuli_target_circlediamonds.svg	10	yes	44	1	321
6.6.1	win	2022-12-14	20:06:22	20:14:05	461698	62713a003caa3feec5c6a0ba	291454553	1	main_z	11	advance_on_keypress_ZEE	156	stimuli_distractor_trianglediamonds.svg	stimuli_target_circlediamonds.svg	10	yes	57	0	93
6.6.1	win	2022-12-14	20:06:22	20:14:06	462706	62713a003caa3feec5c6a0ba	291454553	1	main_z	11	main_z	157	stimuli_target_circlediamonds.svg	stimuli_distractor_diamondtriangles.svg	6	yes	44	1	305
6.6.1	win	2022-12-14	20:06:22	20:14:06	462706	62713a003caa3feec5c6a0ba	291454553	1	main_z	11	advance_on_keypress_ZEE	158	stimuli_target_circlediamonds.svg	stimuli_distractor_diamondtriangles.svg	6	yes	57	0	61
6.6.1	win	2022-12-14	20:06:22	20:14:07	463738	62713a003caa3feec5c6a0ba	291454553	1	main_z	11	main_z	159	stimuli_distractor_trianglediamonds.svg	stimuli_target_trianglesquares.svg	26	yes	44	1	362
6.6.1	win	2022-12-14	20:06:22	20:14:07	463738	62713a003caa3feec5c6a0ba	291454553	1	main_z	11	advance_on_keypress_ZEE	160	stimuli_distractor_trianglediamonds.svg	stimuli_target_trianglesquares.svg	26	yes	57	0	60