build	computer.platform	date	time	timestamp	time_elapsed_ms	subject	group	session	blockcode	blocknum	trialcode	trialnum	stimulus_left	stimulus_right	stim_index	target_present	response	correct	latency
6.6.1	win	2022-11-07	14:48:35	14:51:31	172682	5f877e0715f8781a0c7c3ab8	141899420	1	practice_z	5	practice_z	1	stimuli_distractor_diamondtriangles.svg	stimuli_target_diamondcircles.svg	8	yes	0	0	2000
6.6.1	win	2022-11-07	14:48:35	14:51:31	172682	5f877e0715f8781a0c7c3ab8	141899420	1	practice_z	5	advance_on_keypress_ZEE	2	stimuli_distractor_diamondtriangles.svg	stimuli_target_diamondcircles.svg	8	yes	57	0	2088
6.6.1	win	2022-11-07	14:48:35	14:51:37	178617	5f877e0715f8781a0c7c3ab8	141899420	1	practice_z	5	practice_z	3	stimuli_distractor_diamondtriangles.svg	stimuli_distractor_diamondtriangles.svg	13	no	0	1	2000
6.6.1	win	2022-11-07	14:48:35	14:51:37	178617	5f877e0715f8781a0c7c3ab8	141899420	1	practice_z	5	advance_on_keypress_ZEE	4	stimuli_distractor_diamondtriangles.svg	stimuli_distractor_diamondtriangles.svg	13	no	57	0	597
6.6.1	win	2022-11-07	14:48:35	14:51:40	181669	5f877e0715f8781a0c7c3ab8	141899420	1	practice_z	5	practice_z	5	stimuli_target_circlediamonds.svg	stimuli_distractor_diamondtriangles.svg	1	yes	44	1	623
6.6.1	win	2022-11-07	14:48:35	14:51:40	181669	5f877e0715f8781a0c7c3ab8	141899420	1	practice_z	5	advance_on_keypress_ZEE	6	stimuli_target_circlediamonds.svg	stimuli_distractor_diamondtriangles.svg	1	yes	57	0	481
6.6.1	win	2022-11-07	14:48:35	14:51:43	185092	5f877e0715f8781a0c7c3ab8	141899420	1	practice_z	5	practice_z	7	stimuli_distractor_trianglediamonds.svg	stimuli_target_diamondcircles.svg	12	yes	44	1	1103
6.6.1	win	2022-11-07	14:48:35	14:51:43	185092	5f877e0715f8781a0c7c3ab8	141899420	1	practice_z	5	advance_on_keypress_ZEE	8	stimuli_distractor_trianglediamonds.svg	stimuli_target_diamondcircles.svg	12	yes	57	0	344
6.6.1	win	2022-11-07	14:48:35	14:51:47	188425	5f877e0715f8781a0c7c3ab8	141899420	1	practice_z	5	practice_z	9	stimuli_distractor_trianglediamonds.svg	stimuli_target_squarediamonds.svg	11	yes	44	1	1143
6.6.1	win	2022-11-07	14:48:35	14:51:47	188425	5f877e0715f8781a0c7c3ab8	141899420	1	practice_z	5	advance_on_keypress_ZEE	10	stimuli_distractor_trianglediamonds.svg	stimuli_target_squarediamonds.svg	11	yes	57	0	398
6.6.1	win	2022-11-07	14:48:35	14:51:51	192656	5f877e0715f8781a0c7c3ab8	141899420	1	practice_z	5	practice_z	11	stimuli_distractor_trianglediamonds.svg	stimuli_distractor_diamondtriangles.svg	16	no	0	1	2000
6.6.1	win	2022-11-07	14:48:35	14:51:51	192656	5f877e0715f8781a0c7c3ab8	141899420	1	practice_z	5	advance_on_keypress_ZEE	12	stimuli_distractor_trianglediamonds.svg	stimuli_distractor_diamondtriangles.svg	16	no	57	0	466
6.6.1	win	2022-11-07	14:48:35	14:51:54	195938	5f877e0715f8781a0c7c3ab8	141899420	1	practice_z	5	practice_z	13	stimuli_target_circlediamonds.svg	stimuli_distractor_trianglediamonds.svg	4	yes	44	1	985
6.6.1	win	2022-11-07	14:48:35	14:51:54	195938	5f877e0715f8781a0c7c3ab8	141899420	1	practice_z	5	advance_on_keypress_ZEE	14	stimuli_target_circlediamonds.svg	stimuli_distractor_trianglediamonds.svg	4	yes	57	0	346
6.6.1	win	2022-11-07	14:48:35	14:51:57	199167	5f877e0715f8781a0c7c3ab8	141899420	1	practice_z	5	practice_z	15	stimuli_target_squarediamonds.svg	stimuli_distractor_diamondtriangles.svg	2	yes	44	1	1038
6.6.1	win	2022-11-07	14:48:35	14:51:57	199167	5f877e0715f8781a0c7c3ab8	141899420	1	practice_z	5	advance_on_keypress_ZEE	16	stimuli_target_squarediamonds.svg	stimuli_distractor_diamondtriangles.svg	2	yes	57	0	344
6.6.1	win	2022-11-07	14:48:35	14:52:00	202308	5f877e0715f8781a0c7c3ab8	141899420	1	practice_z	5	practice_z	17	stimuli_target_diamondsquares.svg	stimuli_distractor_diamondtriangles.svg	3	yes	44	1	952
6.6.1	win	2022-11-07	14:48:35	14:52:00	202308	5f877e0715f8781a0c7c3ab8	141899420	1	practice_z	5	advance_on_keypress_ZEE	18	stimuli_target_diamondsquares.svg	stimuli_distractor_diamondtriangles.svg	3	yes	57	0	501
6.6.1	win	2022-11-07	14:48:35	14:52:05	206648	5f877e0715f8781a0c7c3ab8	141899420	1	practice_z	5	practice_z	19	stimuli_target_diamondsquares.svg	stimuli_distractor_trianglediamonds.svg	6	yes	0	0	2000
6.6.1	win	2022-11-07	14:48:35	14:52:05	206648	5f877e0715f8781a0c7c3ab8	141899420	1	practice_z	5	advance_on_keypress_ZEE	20	stimuli_target_diamondsquares.svg	stimuli_distractor_trianglediamonds.svg	6	yes	57	0	432
6.6.1	win	2022-11-07	14:48:35	14:52:09	210916	5f877e0715f8781a0c7c3ab8	141899420	1	practice_z	5	practice_z	21	stimuli_distractor_trianglediamonds.svg	stimuli_distractor_trianglediamonds.svg	15	no	0	1	2000
6.6.1	win	2022-11-07	14:48:35	14:52:09	210916	5f877e0715f8781a0c7c3ab8	141899420	1	practice_z	5	advance_on_keypress_ZEE	22	stimuli_distractor_trianglediamonds.svg	stimuli_distractor_trianglediamonds.svg	15	no	57	0	4083
6.6.1	win	2022-11-07	14:48:35	14:52:17	218836	5f877e0715f8781a0c7c3ab8	141899420	1	practice_z	5	practice_z	23	stimuli_distractor_diamondtriangles.svg	stimuli_distractor_trianglediamonds.svg	14	no	0	1	2000
6.6.1	win	2022-11-07	14:48:35	14:52:17	218836	5f877e0715f8781a0c7c3ab8	141899420	1	practice_z	5	advance_on_keypress_ZEE	24	stimuli_distractor_diamondtriangles.svg	stimuli_distractor_trianglediamonds.svg	14	no	57	0	382
6.6.1	win	2022-11-07	14:48:35	14:52:20	222046	5f877e0715f8781a0c7c3ab8	141899420	1	practice_z	5	practice_z	25	stimuli_distractor_diamondtriangles.svg	stimuli_target_trianglecircles.svg	9	yes	44	1	996
6.6.1	win	2022-11-07	14:48:35	14:52:20	222046	5f877e0715f8781a0c7c3ab8	141899420	1	practice_z	5	advance_on_keypress_ZEE	26	stimuli_distractor_diamondtriangles.svg	stimuli_target_trianglecircles.svg	9	yes	57	0	308
6.6.1	win	2022-11-07	14:48:35	14:52:23	225142	5f877e0715f8781a0c7c3ab8	141899420	1	practice_z	5	practice_z	27	stimuli_distractor_diamondtriangles.svg	stimuli_target_circletriangles.svg	7	yes	44	1	948
6.6.1	win	2022-11-07	14:48:35	14:52:23	225142	5f877e0715f8781a0c7c3ab8	141899420	1	practice_z	5	advance_on_keypress_ZEE	28	stimuli_distractor_diamondtriangles.svg	stimuli_target_circletriangles.svg	7	yes	57	0	278
6.6.1	win	2022-11-07	14:48:35	14:52:26	228256	5f877e0715f8781a0c7c3ab8	141899420	1	practice_z	5	practice_z	29	stimuli_target_squarediamonds.svg	stimuli_distractor_trianglediamonds.svg	5	yes	44	1	988
6.6.1	win	2022-11-07	14:48:35	14:52:26	228256	5f877e0715f8781a0c7c3ab8	141899420	1	practice_z	5	advance_on_keypress_ZEE	30	stimuli_target_squarediamonds.svg	stimuli_distractor_trianglediamonds.svg	5	yes	57	0	188
6.6.1	win	2022-11-07	14:48:35	14:52:29	231308	5f877e0715f8781a0c7c3ab8	141899420	1	practice_z	5	practice_z	31	stimuli_distractor_trianglediamonds.svg	stimuli_target_circlediamonds.svg	10	yes	44	1	1033
6.6.1	win	2022-11-07	14:48:35	14:52:29	231308	5f877e0715f8781a0c7c3ab8	141899420	1	practice_z	5	advance_on_keypress_ZEE	32	stimuli_distractor_trianglediamonds.svg	stimuli_target_circlediamonds.svg	10	yes	57	0	316
6.6.1	win	2022-11-07	14:48:35	14:52:37	239335	5f877e0715f8781a0c7c3ab8	141899420	1	main_z	7	main_z	1	stimuli_distractor_trianglediamonds.svg	stimuli_target_diamondsquares.svg	28	yes	44	1	1082
6.6.1	win	2022-11-07	14:48:35	14:52:37	239335	5f877e0715f8781a0c7c3ab8	141899420	1	main_z	7	advance_on_keypress_ZEE	2	stimuli_distractor_trianglediamonds.svg	stimuli_target_diamondsquares.svg	28	yes	57	0	1200
6.6.1	win	2022-11-07	14:48:35	14:52:41	242451	5f877e0715f8781a0c7c3ab8	141899420	1	main_z	7	main_z	3	stimuli_distractor_diamondtriangles.svg	stimuli_target_diamondsquares.svg	32	yes	44	1	1119
6.6.1	win	2022-11-07	14:48:35	14:52:41	242451	5f877e0715f8781a0c7c3ab8	141899420	1	main_z	7	advance_on_keypress_ZEE	4	stimuli_distractor_diamondtriangles.svg	stimuli_target_diamondsquares.svg	32	yes	57	0	854
6.6.1	win	2022-11-07	14:48:35	14:52:43	245043	5f877e0715f8781a0c7c3ab8	141899420	1	main_z	7	main_z	5	stimuli_target_circletriangles.svg	stimuli_distractor_diamondtriangles.svg	5	yes	44	1	955
6.6.1	win	2022-11-07	14:48:35	14:52:43	245043	5f877e0715f8781a0c7c3ab8	141899420	1	main_z	7	advance_on_keypress_ZEE	6	stimuli_target_circletriangles.svg	stimuli_distractor_diamondtriangles.svg	5	yes	57	0	579
6.6.1	win	2022-11-07	14:48:35	14:52:46	247370	5f877e0715f8781a0c7c3ab8	141899420	1	main_z	7	main_z	7	stimuli_target_squaretriangles.svg	stimuli_distractor_trianglediamonds.svg	3	yes	44	1	954
6.6.1	win	2022-11-07	14:48:35	14:52:46	247370	5f877e0715f8781a0c7c3ab8	141899420	1	main_z	7	advance_on_keypress_ZEE	8	stimuli_target_squaretriangles.svg	stimuli_distractor_trianglediamonds.svg	3	yes	57	0	681
6.6.1	win	2022-11-07	14:48:35	14:52:48	250086	5f877e0715f8781a0c7c3ab8	141899420	1	main_z	7	main_z	9	stimuli_target_diamondsquares.svg	stimuli_distractor_diamondtriangles.svg	24	yes	44	1	1250
6.6.1	win	2022-11-07	14:48:35	14:52:48	250086	5f877e0715f8781a0c7c3ab8	141899420	1	main_z	7	advance_on_keypress_ZEE	10	stimuli_target_diamondsquares.svg	stimuli_distractor_diamondtriangles.svg	24	yes	57	0	703
6.6.1	win	2022-11-07	14:48:35	14:52:51	252486	5f877e0715f8781a0c7c3ab8	141899420	1	main_z	7	main_z	11	stimuli_distractor_trianglediamonds.svg	stimuli_target_circletriangles.svg	9	yes	44	1	909
6.6.1	win	2022-11-07	14:48:35	14:52:51	252486	5f877e0715f8781a0c7c3ab8	141899420	1	main_z	7	advance_on_keypress_ZEE	12	stimuli_distractor_trianglediamonds.svg	stimuli_target_circletriangles.svg	9	yes	57	0	532
6.6.1	win	2022-11-07	14:48:35	14:52:53	254776	5f877e0715f8781a0c7c3ab8	141899420	1	main_z	7	main_z	13	stimuli_target_squaretriangles.svg	stimuli_distractor_diamondtriangles.svg	7	yes	44	1	973
6.6.1	win	2022-11-07	14:48:35	14:52:53	254776	5f877e0715f8781a0c7c3ab8	141899420	1	main_z	7	advance_on_keypress_ZEE	14	stimuli_target_squaretriangles.svg	stimuli_distractor_diamondtriangles.svg	7	yes	57	0	500
6.6.1	win	2022-11-07	14:48:35	14:52:56	258058	5f877e0715f8781a0c7c3ab8	141899420	1	main_z	7	main_z	15	stimuli_distractor_diamondtriangles.svg	stimuli_distractor_trianglediamonds.svg	37	no	0	1	2000
6.6.1	win	2022-11-07	14:48:35	14:52:56	258058	5f877e0715f8781a0c7c3ab8	141899420	1	main_z	7	advance_on_keypress_ZEE	16	stimuli_distractor_diamondtriangles.svg	stimuli_distractor_trianglediamonds.svg	37	no	57	0	411
6.6.1	win	2022-11-07	14:48:35	14:52:59	261234	5f877e0715f8781a0c7c3ab8	141899420	1	main_z	7	main_z	17	stimuli_distractor_trianglediamonds.svg	stimuli_target_squarediamonds.svg	12	yes	0	0	2000
6.6.1	win	2022-11-07	14:48:35	14:52:59	261234	5f877e0715f8781a0c7c3ab8	141899420	1	main_z	7	advance_on_keypress_ZEE	18	stimuli_distractor_trianglediamonds.svg	stimuli_target_squarediamonds.svg	12	yes	57	0	338
6.6.1	win	2022-11-07	14:48:35	14:53:01	263311	5f877e0715f8781a0c7c3ab8	141899420	1	main_z	7	main_z	19	stimuli_distractor_trianglediamonds.svg	stimuli_target_circlediamonds.svg	10	yes	44	1	967
6.6.1	win	2022-11-07	14:48:35	14:53:01	263311	5f877e0715f8781a0c7c3ab8	141899420	1	main_z	7	advance_on_keypress_ZEE	20	stimuli_distractor_trianglediamonds.svg	stimuli_target_circlediamonds.svg	10	yes	57	0	645
6.6.1	win	2022-11-07	14:48:35	14:53:04	265629	5f877e0715f8781a0c7c3ab8	141899420	1	main_z	7	main_z	21	stimuli_distractor_diamondtriangles.svg	stimuli_target_circletriangles.svg	13	yes	44	1	895
6.6.1	win	2022-11-07	14:48:35	14:53:04	265629	5f877e0715f8781a0c7c3ab8	141899420	1	main_z	7	advance_on_keypress_ZEE	22	stimuli_distractor_diamondtriangles.svg	stimuli_target_circletriangles.svg	13	yes	57	0	532
6.6.1	win	2022-11-07	14:48:35	14:53:06	268011	5f877e0715f8781a0c7c3ab8	141899420	1	main_z	7	main_z	23	stimuli_distractor_trianglediamonds.svg	stimuli_target_diamondcircles.svg	27	yes	44	1	1071
6.6.1	win	2022-11-07	14:48:35	14:53:06	268011	5f877e0715f8781a0c7c3ab8	141899420	1	main_z	7	advance_on_keypress_ZEE	24	stimuli_distractor_trianglediamonds.svg	stimuli_target_diamondcircles.svg	27	yes	57	0	525
6.6.1	win	2022-11-07	14:48:35	14:53:08	270218	5f877e0715f8781a0c7c3ab8	141899420	1	main_z	7	main_z	25	stimuli_target_circletriangles.svg	stimuli_distractor_trianglediamonds.svg	1	yes	44	1	903
6.6.1	win	2022-11-07	14:48:35	14:53:08	270218	5f877e0715f8781a0c7c3ab8	141899420	1	main_z	7	advance_on_keypress_ZEE	26	stimuli_target_circletriangles.svg	stimuli_distractor_trianglediamonds.svg	1	yes	57	0	518
6.6.1	win	2022-11-07	14:48:35	14:53:11	272616	5f877e0715f8781a0c7c3ab8	141899420	1	main_z	7	main_z	27	stimuli_distractor_diamondtriangles.svg	stimuli_target_diamondcircles.svg	31	yes	44	1	1093
6.6.1	win	2022-11-07	14:48:35	14:53:11	272616	5f877e0715f8781a0c7c3ab8	141899420	1	main_z	7	advance_on_keypress_ZEE	28	stimuli_distractor_diamondtriangles.svg	stimuli_target_diamondcircles.svg	31	yes	57	0	502
6.6.1	win	2022-11-07	14:48:35	14:53:14	275897	5f877e0715f8781a0c7c3ab8	141899420	1	main_z	7	main_z	29	stimuli_distractor_diamondtriangles.svg	stimuli_distractor_diamondtriangles.svg	39	no	0	1	2000
6.6.1	win	2022-11-07	14:48:35	14:53:14	275897	5f877e0715f8781a0c7c3ab8	141899420	1	main_z	7	advance_on_keypress_ZEE	30	stimuli_distractor_diamondtriangles.svg	stimuli_distractor_diamondtriangles.svg	39	no	57	0	469
6.6.1	win	2022-11-07	14:48:35	14:53:16	277978	5f877e0715f8781a0c7c3ab8	141899420	1	main_z	7	main_z	31	stimuli_distractor_diamondtriangles.svg	stimuli_target_trianglesquares.svg	30	yes	44	1	821
6.6.1	win	2022-11-07	14:48:35	14:53:16	277978	5f877e0715f8781a0c7c3ab8	141899420	1	main_z	7	advance_on_keypress_ZEE	32	stimuli_distractor_diamondtriangles.svg	stimuli_target_trianglesquares.svg	30	yes	57	0	666
6.6.1	win	2022-11-07	14:48:35	14:53:20	281428	5f877e0715f8781a0c7c3ab8	141899420	1	main_z	7	main_z	33	stimuli_distractor_diamondtriangles.svg	stimuli_distractor_diamondtriangles.svg	40	no	0	1	2000
6.6.1	win	2022-11-07	14:48:35	14:53:20	281428	5f877e0715f8781a0c7c3ab8	141899420	1	main_z	7	advance_on_keypress_ZEE	34	stimuli_distractor_diamondtriangles.svg	stimuli_distractor_diamondtriangles.svg	40	no	57	0	312
6.6.1	win	2022-11-07	14:48:35	14:53:22	283448	5f877e0715f8781a0c7c3ab8	141899420	1	main_z	7	main_z	35	stimuli_target_circlediamonds.svg	stimuli_distractor_diamondtriangles.svg	6	yes	44	1	927
6.6.1	win	2022-11-07	14:48:35	14:53:22	283448	5f877e0715f8781a0c7c3ab8	141899420	1	main_z	7	advance_on_keypress_ZEE	36	stimuli_target_circlediamonds.svg	stimuli_distractor_diamondtriangles.svg	6	yes	57	0	735
6.6.1	win	2022-11-07	14:48:35	14:53:24	285935	5f877e0715f8781a0c7c3ab8	141899420	1	main_z	7	main_z	37	stimuli_distractor_diamondtriangles.svg	stimuli_target_squaretriangles.svg	15	yes	44	1	969
6.6.1	win	2022-11-07	14:48:35	14:53:24	285935	5f877e0715f8781a0c7c3ab8	141899420	1	main_z	7	advance_on_keypress_ZEE	38	stimuli_distractor_diamondtriangles.svg	stimuli_target_squaretriangles.svg	15	yes	57	0	584
6.6.1	win	2022-11-07	14:48:35	14:53:26	288206	5f877e0715f8781a0c7c3ab8	141899420	1	main_z	7	main_z	39	stimuli_target_squarediamonds.svg	stimuli_distractor_diamondtriangles.svg	8	yes	44	1	902
6.6.1	win	2022-11-07	14:48:35	14:53:26	288206	5f877e0715f8781a0c7c3ab8	141899420	1	main_z	7	advance_on_keypress_ZEE	40	stimuli_target_squarediamonds.svg	stimuli_distractor_diamondtriangles.svg	8	yes	57	0	570
6.6.1	win	2022-11-07	14:48:35	14:53:28	290322	5f877e0715f8781a0c7c3ab8	141899420	1	main_z	7	main_z	41	stimuli_distractor_diamondtriangles.svg	stimuli_target_squarediamonds.svg	16	yes	44	1	763
6.6.1	win	2022-11-07	14:48:35	14:53:28	290322	5f877e0715f8781a0c7c3ab8	141899420	1	main_z	7	advance_on_keypress_ZEE	42	stimuli_distractor_diamondtriangles.svg	stimuli_target_squarediamonds.svg	16	yes	57	0	515
6.6.1	win	2022-11-07	14:48:35	14:53:31	292480	5f877e0715f8781a0c7c3ab8	141899420	1	main_z	7	main_z	43	stimuli_target_diamondcircles.svg	stimuli_distractor_diamondtriangles.svg	23	yes	44	1	865
6.6.1	win	2022-11-07	14:48:35	14:53:31	292480	5f877e0715f8781a0c7c3ab8	141899420	1	main_z	7	advance_on_keypress_ZEE	44	stimuli_target_diamondcircles.svg	stimuli_distractor_diamondtriangles.svg	23	yes	57	0	455
6.6.1	win	2022-11-07	14:48:35	14:53:33	294511	5f877e0715f8781a0c7c3ab8	141899420	1	main_z	7	main_z	45	stimuli_distractor_trianglediamonds.svg	stimuli_target_squaretriangles.svg	11	yes	44	1	790
6.6.1	win	2022-11-07	14:48:35	14:53:33	294511	5f877e0715f8781a0c7c3ab8	141899420	1	main_z	7	advance_on_keypress_ZEE	46	stimuli_distractor_trianglediamonds.svg	stimuli_target_squaretriangles.svg	11	yes	57	0	564
6.6.1	win	2022-11-07	14:48:35	14:53:35	296770	5f877e0715f8781a0c7c3ab8	141899420	1	main_z	7	main_z	47	stimuli_target_trianglesquares.svg	stimuli_distractor_diamondtriangles.svg	22	yes	44	1	909
6.6.1	win	2022-11-07	14:48:35	14:53:35	296770	5f877e0715f8781a0c7c3ab8	141899420	1	main_z	7	advance_on_keypress_ZEE	48	stimuli_target_trianglesquares.svg	stimuli_distractor_diamondtriangles.svg	22	yes	57	0	586
6.6.1	win	2022-11-07	14:48:35	14:53:37	298983	5f877e0715f8781a0c7c3ab8	141899420	1	main_z	7	main_z	49	stimuli_target_diamondsquares.svg	stimuli_distractor_trianglediamonds.svg	20	yes	44	1	849
6.6.1	win	2022-11-07	14:48:35	14:53:37	298983	5f877e0715f8781a0c7c3ab8	141899420	1	main_z	7	advance_on_keypress_ZEE	50	stimuli_target_diamondsquares.svg	stimuli_distractor_trianglediamonds.svg	20	yes	57	0	531
6.6.1	win	2022-11-07	14:48:35	14:53:40	301723	5f877e0715f8781a0c7c3ab8	141899420	1	main_z	7	main_z	51	stimuli_distractor_trianglediamonds.svg	stimuli_distractor_trianglediamonds.svg	33	no	44	0	1416
6.6.1	win	2022-11-07	14:48:35	14:53:40	301723	5f877e0715f8781a0c7c3ab8	141899420	1	main_z	7	advance_on_keypress_ZEE	52	stimuli_distractor_trianglediamonds.svg	stimuli_distractor_trianglediamonds.svg	33	no	57	0	1140
6.6.1	win	2022-11-07	14:48:35	14:53:44	305637	5f877e0715f8781a0c7c3ab8	141899420	1	main_z	7	main_z	53	stimuli_distractor_trianglediamonds.svg	stimuli_distractor_diamondtriangles.svg	35	no	0	1	2000
6.6.1	win	2022-11-07	14:48:35	14:53:44	305637	5f877e0715f8781a0c7c3ab8	141899420	1	main_z	7	advance_on_keypress_ZEE	54	stimuli_distractor_trianglediamonds.svg	stimuli_distractor_diamondtriangles.svg	35	no	57	0	402
6.6.1	win	2022-11-07	14:48:35	14:53:47	308830	5f877e0715f8781a0c7c3ab8	141899420	1	main_z	7	main_z	55	stimuli_distractor_trianglediamonds.svg	stimuli_distractor_diamondtriangles.svg	36	no	0	1	2000
6.6.1	win	2022-11-07	14:48:35	14:53:47	308830	5f877e0715f8781a0c7c3ab8	141899420	1	main_z	7	advance_on_keypress_ZEE	56	stimuli_distractor_trianglediamonds.svg	stimuli_distractor_diamondtriangles.svg	36	no	57	0	374
6.6.1	win	2022-11-07	14:48:35	14:53:49	310901	5f877e0715f8781a0c7c3ab8	141899420	1	main_z	7	main_z	57	stimuli_target_trianglesquares.svg	stimuli_distractor_trianglediamonds.svg	18	yes	44	1	911
6.6.1	win	2022-11-07	14:48:35	14:53:49	310901	5f877e0715f8781a0c7c3ab8	141899420	1	main_z	7	advance_on_keypress_ZEE	58	stimuli_target_trianglesquares.svg	stimuli_distractor_trianglediamonds.svg	18	yes	57	0	743
6.6.1	win	2022-11-07	14:48:35	14:53:52	313396	5f877e0715f8781a0c7c3ab8	141899420	1	main_z	7	main_z	59	stimuli_target_squarediamonds.svg	stimuli_distractor_trianglediamonds.svg	4	yes	44	1	986
6.6.1	win	2022-11-07	14:48:35	14:53:52	313396	5f877e0715f8781a0c7c3ab8	141899420	1	main_z	7	advance_on_keypress_ZEE	60	stimuli_target_squarediamonds.svg	stimuli_distractor_trianglediamonds.svg	4	yes	57	0	581
6.6.1	win	2022-11-07	14:48:35	14:53:54	315641	5f877e0715f8781a0c7c3ab8	141899420	1	main_z	7	main_z	61	stimuli_target_trianglecircles.svg	stimuli_distractor_trianglediamonds.svg	17	yes	44	1	870
6.6.1	win	2022-11-07	14:48:35	14:53:54	315641	5f877e0715f8781a0c7c3ab8	141899420	1	main_z	7	advance_on_keypress_ZEE	62	stimuli_target_trianglecircles.svg	stimuli_distractor_trianglediamonds.svg	17	yes	57	0	519
6.6.1	win	2022-11-07	14:48:35	14:53:56	317703	5f877e0715f8781a0c7c3ab8	141899420	1	main_z	7	main_z	63	stimuli_distractor_diamondtriangles.svg	stimuli_target_circlediamonds.svg	14	yes	44	1	762
6.6.1	win	2022-11-07	14:48:35	14:53:56	317703	5f877e0715f8781a0c7c3ab8	141899420	1	main_z	7	advance_on_keypress_ZEE	64	stimuli_distractor_diamondtriangles.svg	stimuli_target_circlediamonds.svg	14	yes	57	0	464
6.6.1	win	2022-11-07	14:48:35	14:53:58	319678	5f877e0715f8781a0c7c3ab8	141899420	1	main_z	7	main_z	65	stimuli_target_diamondcircles.svg	stimuli_distractor_trianglediamonds.svg	19	yes	44	1	728
6.6.1	win	2022-11-07	14:48:35	14:53:58	319678	5f877e0715f8781a0c7c3ab8	141899420	1	main_z	7	advance_on_keypress_ZEE	66	stimuli_target_diamondcircles.svg	stimuli_distractor_trianglediamonds.svg	19	yes	57	0	454
6.6.1	win	2022-11-07	14:48:35	14:54:00	321744	5f877e0715f8781a0c7c3ab8	141899420	1	main_z	7	main_z	67	stimuli_distractor_diamondtriangles.svg	stimuli_distractor_trianglediamonds.svg	38	no	44	0	840
6.6.1	win	2022-11-07	14:48:35	14:54:00	321744	5f877e0715f8781a0c7c3ab8	141899420	1	main_z	7	advance_on_keypress_ZEE	68	stimuli_distractor_diamondtriangles.svg	stimuli_distractor_trianglediamonds.svg	38	no	57	0	465
6.6.1	win	2022-11-07	14:48:35	14:54:02	323912	5f877e0715f8781a0c7c3ab8	141899420	1	main_z	7	main_z	69	stimuli_target_trianglecircles.svg	stimuli_distractor_diamondtriangles.svg	21	yes	44	1	918
6.6.1	win	2022-11-07	14:48:35	14:54:02	323912	5f877e0715f8781a0c7c3ab8	141899420	1	main_z	7	advance_on_keypress_ZEE	70	stimuli_target_trianglecircles.svg	stimuli_distractor_diamondtriangles.svg	21	yes	57	0	425
6.6.1	win	2022-11-07	14:48:35	14:54:05	327118	5f877e0715f8781a0c7c3ab8	141899420	1	main_z	7	main_z	71	stimuli_distractor_trianglediamonds.svg	stimuli_distractor_trianglediamonds.svg	34	no	0	1	2000
6.6.1	win	2022-11-07	14:48:35	14:54:05	327118	5f877e0715f8781a0c7c3ab8	141899420	1	main_z	7	advance_on_keypress_ZEE	72	stimuli_distractor_trianglediamonds.svg	stimuli_distractor_trianglediamonds.svg	34	no	57	0	565
6.6.1	win	2022-11-07	14:48:35	14:54:08	329416	5f877e0715f8781a0c7c3ab8	141899420	1	main_z	7	main_z	73	stimuli_distractor_trianglediamonds.svg	stimuli_target_trianglesquares.svg	26	yes	44	1	937
6.6.1	win	2022-11-07	14:48:35	14:54:08	329416	5f877e0715f8781a0c7c3ab8	141899420	1	main_z	7	advance_on_keypress_ZEE	74	stimuli_distractor_trianglediamonds.svg	stimuli_target_trianglesquares.svg	26	yes	57	0	519
6.6.1	win	2022-11-07	14:48:35	14:54:10	331624	5f877e0715f8781a0c7c3ab8	141899420	1	main_z	7	main_z	75	stimuli_distractor_trianglediamonds.svg	stimuli_target_trianglecircles.svg	25	yes	44	1	907
6.6.1	win	2022-11-07	14:48:35	14:54:10	331624	5f877e0715f8781a0c7c3ab8	141899420	1	main_z	7	advance_on_keypress_ZEE	76	stimuli_distractor_trianglediamonds.svg	stimuli_target_trianglecircles.svg	25	yes	57	0	460
6.6.1	win	2022-11-07	14:48:35	14:54:12	333792	5f877e0715f8781a0c7c3ab8	141899420	1	main_z	7	main_z	77	stimuli_target_circlediamonds.svg	stimuli_distractor_trianglediamonds.svg	2	yes	44	1	934
6.6.1	win	2022-11-07	14:48:35	14:54:12	333792	5f877e0715f8781a0c7c3ab8	141899420	1	main_z	7	advance_on_keypress_ZEE	78	stimuli_target_circlediamonds.svg	stimuli_distractor_trianglediamonds.svg	2	yes	57	0	475
6.6.1	win	2022-11-07	14:48:35	14:54:14	335930	5f877e0715f8781a0c7c3ab8	141899420	1	main_z	7	main_z	79	stimuli_distractor_diamondtriangles.svg	stimuli_target_trianglecircles.svg	29	yes	44	1	864
6.6.1	win	2022-11-07	14:48:35	14:54:14	335930	5f877e0715f8781a0c7c3ab8	141899420	1	main_z	7	advance_on_keypress_ZEE	80	stimuli_distractor_diamondtriangles.svg	stimuli_target_trianglecircles.svg	29	yes	57	0	423
6.6.1	win	2022-11-07	14:48:35	14:54:16	338059	5f877e0715f8781a0c7c3ab8	141899420	1	main_z	7	main_z	81	stimuli_target_squarediamonds.svg	stimuli_distractor_diamondtriangles.svg	8	yes	44	1	924
6.6.1	win	2022-11-07	14:48:35	14:54:16	338059	5f877e0715f8781a0c7c3ab8	141899420	1	main_z	7	advance_on_keypress_ZEE	82	stimuli_target_squarediamonds.svg	stimuli_distractor_diamondtriangles.svg	8	yes	57	0	453
6.6.1	win	2022-11-07	14:48:35	14:54:18	340204	5f877e0715f8781a0c7c3ab8	141899420	1	main_z	7	main_z	83	stimuli_distractor_trianglediamonds.svg	stimuli_target_circlediamonds.svg	10	yes	44	1	910
6.6.1	win	2022-11-07	14:48:35	14:54:18	340204	5f877e0715f8781a0c7c3ab8	141899420	1	main_z	7	advance_on_keypress_ZEE	84	stimuli_distractor_trianglediamonds.svg	stimuli_target_circlediamonds.svg	10	yes	57	0	426
6.6.1	win	2022-11-07	14:48:35	14:54:20	342169	5f877e0715f8781a0c7c3ab8	141899420	1	main_z	7	main_z	85	stimuli_target_trianglecircles.svg	stimuli_distractor_trianglediamonds.svg	17	yes	44	1	769
6.6.1	win	2022-11-07	14:48:35	14:54:20	342169	5f877e0715f8781a0c7c3ab8	141899420	1	main_z	7	advance_on_keypress_ZEE	86	stimuli_target_trianglecircles.svg	stimuli_distractor_trianglediamonds.svg	17	yes	57	0	471
6.6.1	win	2022-11-07	14:48:35	14:54:22	344267	5f877e0715f8781a0c7c3ab8	141899420	1	main_z	7	main_z	87	stimuli_distractor_trianglediamonds.svg	stimuli_target_trianglecircles.svg	25	yes	44	1	844
6.6.1	win	2022-11-07	14:48:35	14:54:22	344267	5f877e0715f8781a0c7c3ab8	141899420	1	main_z	7	advance_on_keypress_ZEE	88	stimuli_distractor_trianglediamonds.svg	stimuli_target_trianglecircles.svg	25	yes	57	0	470
6.6.1	win	2022-11-07	14:48:35	14:54:24	346235	5f877e0715f8781a0c7c3ab8	141899420	1	main_z	7	main_z	89	stimuli_target_trianglesquares.svg	stimuli_distractor_diamondtriangles.svg	22	yes	44	1	723
6.6.1	win	2022-11-07	14:48:35	14:54:24	346235	5f877e0715f8781a0c7c3ab8	141899420	1	main_z	7	advance_on_keypress_ZEE	90	stimuli_target_trianglesquares.svg	stimuli_distractor_diamondtriangles.svg	22	yes	57	0	480
6.6.1	win	2022-11-07	14:48:35	14:54:27	348537	5f877e0715f8781a0c7c3ab8	141899420	1	main_z	7	main_z	91	stimuli_distractor_diamondtriangles.svg	stimuli_target_squaretriangles.svg	15	yes	44	1	1032
6.6.1	win	2022-11-07	14:48:35	14:54:27	348537	5f877e0715f8781a0c7c3ab8	141899420	1	main_z	7	advance_on_keypress_ZEE	92	stimuli_distractor_diamondtriangles.svg	stimuli_target_squaretriangles.svg	15	yes	57	0	462
6.6.1	win	2022-11-07	14:48:35	14:54:30	351793	5f877e0715f8781a0c7c3ab8	141899420	1	main_z	7	main_z	93	stimuli_distractor_trianglediamonds.svg	stimuli_distractor_diamondtriangles.svg	36	no	0	1	2000
6.6.1	win	2022-11-07	14:48:35	14:54:30	351793	5f877e0715f8781a0c7c3ab8	141899420	1	main_z	7	advance_on_keypress_ZEE	94	stimuli_distractor_trianglediamonds.svg	stimuli_distractor_diamondtriangles.svg	36	no	57	0	528
6.6.1	win	2022-11-07	14:48:35	14:54:32	353762	5f877e0715f8781a0c7c3ab8	141899420	1	main_z	7	main_z	95	stimuli_target_trianglesquares.svg	stimuli_distractor_trianglediamonds.svg	18	yes	44	1	661
6.6.1	win	2022-11-07	14:48:35	14:54:32	353762	5f877e0715f8781a0c7c3ab8	141899420	1	main_z	7	advance_on_keypress_ZEE	96	stimuli_target_trianglesquares.svg	stimuli_distractor_trianglediamonds.svg	18	yes	57	0	423
6.6.1	win	2022-11-07	14:48:35	14:54:34	355772	5f877e0715f8781a0c7c3ab8	141899420	1	main_z	7	main_z	97	stimuli_target_diamondsquares.svg	stimuli_distractor_diamondtriangles.svg	24	yes	44	1	813
6.6.1	win	2022-11-07	14:48:35	14:54:34	355772	5f877e0715f8781a0c7c3ab8	141899420	1	main_z	7	advance_on_keypress_ZEE	98	stimuli_target_diamondsquares.svg	stimuli_distractor_diamondtriangles.svg	24	yes	57	0	408
6.6.1	win	2022-11-07	14:48:35	14:54:36	357731	5f877e0715f8781a0c7c3ab8	141899420	1	main_z	7	main_z	99	stimuli_target_circlediamonds.svg	stimuli_distractor_diamondtriangles.svg	6	yes	44	1	769
6.6.1	win	2022-11-07	14:48:35	14:54:36	357731	5f877e0715f8781a0c7c3ab8	141899420	1	main_z	7	advance_on_keypress_ZEE	100	stimuli_target_circlediamonds.svg	stimuli_distractor_diamondtriangles.svg	6	yes	57	0	394
6.6.1	win	2022-11-07	14:48:35	14:54:38	359870	5f877e0715f8781a0c7c3ab8	141899420	1	main_z	7	main_z	101	stimuli_distractor_trianglediamonds.svg	stimuli_target_squarediamonds.svg	12	yes	44	1	951
6.6.1	win	2022-11-07	14:48:35	14:54:38	359870	5f877e0715f8781a0c7c3ab8	141899420	1	main_z	7	advance_on_keypress_ZEE	102	stimuli_distractor_trianglediamonds.svg	stimuli_target_squarediamonds.svg	12	yes	57	0	383
6.6.1	win	2022-11-07	14:48:35	14:54:40	361823	5f877e0715f8781a0c7c3ab8	141899420	1	main_z	7	main_z	103	stimuli_distractor_trianglediamonds.svg	stimuli_target_trianglesquares.svg	26	yes	44	1	779
6.6.1	win	2022-11-07	14:48:35	14:54:40	361823	5f877e0715f8781a0c7c3ab8	141899420	1	main_z	7	advance_on_keypress_ZEE	104	stimuli_distractor_trianglediamonds.svg	stimuli_target_trianglesquares.svg	26	yes	57	0	480
6.6.1	win	2022-11-07	14:48:35	14:54:42	363857	5f877e0715f8781a0c7c3ab8	141899420	1	main_z	7	main_z	105	stimuli_target_circletriangles.svg	stimuli_distractor_diamondtriangles.svg	5	yes	44	1	758
6.6.1	win	2022-11-07	14:48:35	14:54:42	363857	5f877e0715f8781a0c7c3ab8	141899420	1	main_z	7	advance_on_keypress_ZEE	106	stimuli_target_circletriangles.svg	stimuli_distractor_diamondtriangles.svg	5	yes	57	0	415
6.6.1	win	2022-11-07	14:48:35	14:54:44	365793	5f877e0715f8781a0c7c3ab8	141899420	1	main_z	7	main_z	107	stimuli_target_diamondcircles.svg	stimuli_distractor_trianglediamonds.svg	19	yes	44	1	737
6.6.1	win	2022-11-07	14:48:35	14:54:44	365793	5f877e0715f8781a0c7c3ab8	141899420	1	main_z	7	advance_on_keypress_ZEE	108	stimuli_target_diamondcircles.svg	stimuli_distractor_trianglediamonds.svg	19	yes	57	0	393
6.6.1	win	2022-11-07	14:48:35	14:54:46	367630	5f877e0715f8781a0c7c3ab8	141899420	1	main_z	7	main_z	109	stimuli_distractor_trianglediamonds.svg	stimuli_target_circletriangles.svg	9	yes	44	1	670
6.6.1	win	2022-11-07	14:48:35	14:54:46	367630	5f877e0715f8781a0c7c3ab8	141899420	1	main_z	7	advance_on_keypress_ZEE	110	stimuli_distractor_trianglediamonds.svg	stimuli_target_circletriangles.svg	9	yes	57	0	350
6.6.1	win	2022-11-07	14:48:35	14:54:48	369930	5f877e0715f8781a0c7c3ab8	141899420	1	main_z	7	main_z	111	stimuli_target_squaretriangles.svg	stimuli_distractor_trianglediamonds.svg	3	yes	44	1	1162
6.6.1	win	2022-11-07	14:48:35	14:54:48	369930	5f877e0715f8781a0c7c3ab8	141899420	1	main_z	7	advance_on_keypress_ZEE	112	stimuli_target_squaretriangles.svg	stimuli_distractor_trianglediamonds.svg	3	yes	57	0	339
6.6.1	win	2022-11-07	14:48:35	14:54:50	371689	5f877e0715f8781a0c7c3ab8	141899420	1	main_z	7	main_z	113	stimuli_distractor_diamondtriangles.svg	stimuli_target_diamondsquares.svg	32	yes	44	1	650
6.6.1	win	2022-11-07	14:48:35	14:54:50	371689	5f877e0715f8781a0c7c3ab8	141899420	1	main_z	7	advance_on_keypress_ZEE	114	stimuli_distractor_diamondtriangles.svg	stimuli_target_diamondsquares.svg	32	yes	57	0	342
6.6.1	win	2022-11-07	14:48:35	14:54:52	373500	5f877e0715f8781a0c7c3ab8	141899420	1	main_z	7	main_z	115	stimuli_distractor_diamondtriangles.svg	stimuli_target_trianglecircles.svg	29	yes	44	1	689
6.6.1	win	2022-11-07	14:48:35	14:54:52	373500	5f877e0715f8781a0c7c3ab8	141899420	1	main_z	7	advance_on_keypress_ZEE	116	stimuli_distractor_diamondtriangles.svg	stimuli_target_trianglecircles.svg	29	yes	57	0	337
6.6.1	win	2022-11-07	14:48:35	14:54:55	376616	5f877e0715f8781a0c7c3ab8	141899420	1	main_z	7	main_z	117	stimuli_distractor_diamondtriangles.svg	stimuli_distractor_trianglediamonds.svg	38	no	0	1	2000
6.6.1	win	2022-11-07	14:48:35	14:54:55	376616	5f877e0715f8781a0c7c3ab8	141899420	1	main_z	7	advance_on_keypress_ZEE	118	stimuli_distractor_diamondtriangles.svg	stimuli_distractor_trianglediamonds.svg	38	no	57	0	447
6.6.1	win	2022-11-07	14:48:35	14:54:57	379036	5f877e0715f8781a0c7c3ab8	141899420	1	main_z	7	main_z	119	stimuli_target_squaretriangles.svg	stimuli_distractor_diamondtriangles.svg	7	yes	44	1	1194
6.6.1	win	2022-11-07	14:48:35	14:54:57	379036	5f877e0715f8781a0c7c3ab8	141899420	1	main_z	7	advance_on_keypress_ZEE	120	stimuli_target_squaretriangles.svg	stimuli_distractor_diamondtriangles.svg	7	yes	57	0	341
6.6.1	win	2022-11-07	14:48:35	14:54:59	380897	5f877e0715f8781a0c7c3ab8	141899420	1	main_z	7	main_z	121	stimuli_target_circletriangles.svg	stimuli_distractor_trianglediamonds.svg	1	yes	44	1	746
6.6.1	win	2022-11-07	14:48:35	14:54:59	380897	5f877e0715f8781a0c7c3ab8	141899420	1	main_z	7	advance_on_keypress_ZEE	122	stimuli_target_circletriangles.svg	stimuli_distractor_trianglediamonds.svg	1	yes	57	0	344
6.6.1	win	2022-11-07	14:48:35	14:55:01	382899	5f877e0715f8781a0c7c3ab8	141899420	1	main_z	7	main_z	123	stimuli_distractor_trianglediamonds.svg	stimuli_target_diamondsquares.svg	28	yes	44	1	861
6.6.1	win	2022-11-07	14:48:35	14:55:01	382899	5f877e0715f8781a0c7c3ab8	141899420	1	main_z	7	advance_on_keypress_ZEE	124	stimuli_distractor_trianglediamonds.svg	stimuli_target_diamondsquares.svg	28	yes	57	0	352
6.6.1	win	2022-11-07	14:48:35	14:55:04	386029	5f877e0715f8781a0c7c3ab8	141899420	1	main_z	7	main_z	125	stimuli_distractor_trianglediamonds.svg	stimuli_distractor_trianglediamonds.svg	34	no	0	1	2000
6.6.1	win	2022-11-07	14:48:35	14:55:04	386029	5f877e0715f8781a0c7c3ab8	141899420	1	main_z	7	advance_on_keypress_ZEE	126	stimuli_distractor_trianglediamonds.svg	stimuli_distractor_trianglediamonds.svg	34	no	57	0	507
6.6.1	win	2022-11-07	14:48:35	14:55:06	388080	5f877e0715f8781a0c7c3ab8	141899420	1	main_z	7	main_z	127	stimuli_distractor_diamondtriangles.svg	stimuli_target_circletriangles.svg	13	yes	44	1	774
6.6.1	win	2022-11-07	14:48:35	14:55:06	388080	5f877e0715f8781a0c7c3ab8	141899420	1	main_z	7	advance_on_keypress_ZEE	128	stimuli_distractor_diamondtriangles.svg	stimuli_target_circletriangles.svg	13	yes	57	0	314
6.6.1	win	2022-11-07	14:48:35	14:55:08	389931	5f877e0715f8781a0c7c3ab8	141899420	1	main_z	7	main_z	129	stimuli_target_circlediamonds.svg	stimuli_distractor_trianglediamonds.svg	2	yes	44	1	753
6.6.1	win	2022-11-07	14:48:35	14:55:08	389931	5f877e0715f8781a0c7c3ab8	141899420	1	main_z	7	advance_on_keypress_ZEE	130	stimuli_target_circlediamonds.svg	stimuli_distractor_trianglediamonds.svg	2	yes	57	0	331
6.6.1	win	2022-11-07	14:48:35	14:55:10	392297	5f877e0715f8781a0c7c3ab8	141899420	1	main_z	7	main_z	131	stimuli_target_diamondcircles.svg	stimuli_distractor_diamondtriangles.svg	23	yes	44	1	1246
6.6.1	win	2022-11-07	14:48:35	14:55:10	392297	5f877e0715f8781a0c7c3ab8	141899420	1	main_z	7	advance_on_keypress_ZEE	132	stimuli_target_diamondcircles.svg	stimuli_distractor_diamondtriangles.svg	23	yes	57	0	380
6.6.1	win	2022-11-07	14:48:35	14:55:12	394344	5f877e0715f8781a0c7c3ab8	141899420	1	main_z	7	main_z	133	stimuli_target_squarediamonds.svg	stimuli_distractor_trianglediamonds.svg	4	yes	44	1	888
6.6.1	win	2022-11-07	14:48:35	14:55:12	394344	5f877e0715f8781a0c7c3ab8	141899420	1	main_z	7	advance_on_keypress_ZEE	134	stimuli_target_squarediamonds.svg	stimuli_distractor_trianglediamonds.svg	4	yes	57	0	296
6.6.1	win	2022-11-07	14:48:35	14:55:14	396057	5f877e0715f8781a0c7c3ab8	141899420	1	main_z	7	main_z	135	stimuli_distractor_diamondtriangles.svg	stimuli_target_circlediamonds.svg	14	yes	44	1	625
6.6.1	win	2022-11-07	14:48:35	14:55:14	396057	5f877e0715f8781a0c7c3ab8	141899420	1	main_z	7	advance_on_keypress_ZEE	136	stimuli_distractor_diamondtriangles.svg	stimuli_target_circlediamonds.svg	14	yes	57	0	276
6.6.1	win	2022-11-07	14:48:35	14:55:16	397705	5f877e0715f8781a0c7c3ab8	141899420	1	main_z	7	main_z	137	stimuli_target_trianglecircles.svg	stimuli_distractor_diamondtriangles.svg	21	yes	44	1	604
6.6.1	win	2022-11-07	14:48:35	14:55:16	397705	5f877e0715f8781a0c7c3ab8	141899420	1	main_z	7	advance_on_keypress_ZEE	138	stimuli_target_trianglecircles.svg	stimuli_distractor_diamondtriangles.svg	21	yes	57	0	295
6.6.1	win	2022-11-07	14:48:35	14:55:19	400789	5f877e0715f8781a0c7c3ab8	141899420	1	main_z	7	main_z	139	stimuli_distractor_diamondtriangles.svg	stimuli_distractor_diamondtriangles.svg	39	no	0	1	2000
6.6.1	win	2022-11-07	14:48:35	14:55:19	400789	5f877e0715f8781a0c7c3ab8	141899420	1	main_z	7	advance_on_keypress_ZEE	140	stimuli_distractor_diamondtriangles.svg	stimuli_distractor_diamondtriangles.svg	39	no	57	0	319
6.6.1	win	2022-11-07	14:48:35	14:55:21	402491	5f877e0715f8781a0c7c3ab8	141899420	1	main_z	7	main_z	141	stimuli_distractor_trianglediamonds.svg	stimuli_target_squaretriangles.svg	11	yes	44	1	606
6.6.1	win	2022-11-07	14:48:35	14:55:21	402491	5f877e0715f8781a0c7c3ab8	141899420	1	main_z	7	advance_on_keypress_ZEE	142	stimuli_distractor_trianglediamonds.svg	stimuli_target_squaretriangles.svg	11	yes	57	0	288
6.6.1	win	2022-11-07	14:48:35	14:55:22	404092	5f877e0715f8781a0c7c3ab8	141899420	1	main_z	7	main_z	143	stimuli_distractor_diamondtriangles.svg	stimuli_target_diamondcircles.svg	31	yes	44	1	540
6.6.1	win	2022-11-07	14:48:35	14:55:22	404092	5f877e0715f8781a0c7c3ab8	141899420	1	main_z	7	advance_on_keypress_ZEE	144	stimuli_distractor_diamondtriangles.svg	stimuli_target_diamondcircles.svg	31	yes	57	0	278
6.6.1	win	2022-11-07	14:48:35	14:55:24	405712	5f877e0715f8781a0c7c3ab8	141899420	1	main_z	7	main_z	145	stimuli_distractor_trianglediamonds.svg	stimuli_distractor_diamondtriangles.svg	35	no	44	0	570
6.6.1	win	2022-11-07	14:48:35	14:55:24	405712	5f877e0715f8781a0c7c3ab8	141899420	1	main_z	7	advance_on_keypress_ZEE	146	stimuli_distractor_trianglediamonds.svg	stimuli_distractor_diamondtriangles.svg	35	no	57	0	1026
6.6.1	win	2022-11-07	14:48:35	14:55:27	408747	5f877e0715f8781a0c7c3ab8	141899420	1	main_z	7	main_z	147	stimuli_distractor_diamondtriangles.svg	stimuli_target_squarediamonds.svg	16	yes	44	1	1230
6.6.1	win	2022-11-07	14:48:35	14:55:27	408747	5f877e0715f8781a0c7c3ab8	141899420	1	main_z	7	advance_on_keypress_ZEE	148	stimuli_distractor_diamondtriangles.svg	stimuli_target_squarediamonds.svg	16	yes	57	0	546
6.6.1	win	2022-11-07	14:48:35	14:55:30	412059	5f877e0715f8781a0c7c3ab8	141899420	1	main_z	7	main_z	149	stimuli_distractor_trianglediamonds.svg	stimuli_distractor_trianglediamonds.svg	33	no	0	1	2000
6.6.1	win	2022-11-07	14:48:35	14:55:30	412059	5f877e0715f8781a0c7c3ab8	141899420	1	main_z	7	advance_on_keypress_ZEE	150	stimuli_distractor_trianglediamonds.svg	stimuli_distractor_trianglediamonds.svg	33	no	57	0	344
6.6.1	win	2022-11-07	14:48:35	14:55:33	415183	5f877e0715f8781a0c7c3ab8	141899420	1	main_z	7	main_z	151	stimuli_target_diamondsquares.svg	stimuli_distractor_trianglediamonds.svg	20	yes	0	0	2000
6.6.1	win	2022-11-07	14:48:35	14:55:33	415183	5f877e0715f8781a0c7c3ab8	141899420	1	main_z	7	advance_on_keypress_ZEE	152	stimuli_target_diamondsquares.svg	stimuli_distractor_trianglediamonds.svg	20	yes	57	0	499
6.6.1	win	2022-11-07	14:48:35	14:55:35	417163	5f877e0715f8781a0c7c3ab8	141899420	1	main_z	7	main_z	153	stimuli_distractor_trianglediamonds.svg	stimuli_target_diamondcircles.svg	27	yes	44	1	703
6.6.1	win	2022-11-07	14:48:35	14:55:35	417163	5f877e0715f8781a0c7c3ab8	141899420	1	main_z	7	advance_on_keypress_ZEE	154	stimuli_distractor_trianglediamonds.svg	stimuli_target_diamondcircles.svg	27	yes	57	0	350
6.6.1	win	2022-11-07	14:48:35	14:55:38	420298	5f877e0715f8781a0c7c3ab8	141899420	1	main_z	7	main_z	155	stimuli_distractor_diamondtriangles.svg	stimuli_distractor_diamondtriangles.svg	40	no	0	1	2000
6.6.1	win	2022-11-07	14:48:35	14:55:38	420298	5f877e0715f8781a0c7c3ab8	141899420	1	main_z	7	advance_on_keypress_ZEE	156	stimuli_distractor_diamondtriangles.svg	stimuli_distractor_diamondtriangles.svg	40	no	57	0	291
6.6.1	win	2022-11-07	14:48:35	14:55:40	422154	5f877e0715f8781a0c7c3ab8	141899420	1	main_z	7	main_z	157	stimuli_distractor_diamondtriangles.svg	stimuli_target_trianglesquares.svg	30	yes	44	1	794
6.6.1	win	2022-11-07	14:48:35	14:55:40	422154	5f877e0715f8781a0c7c3ab8	141899420	1	main_z	7	advance_on_keypress_ZEE	158	stimuli_distractor_diamondtriangles.svg	stimuli_target_trianglesquares.svg	30	yes	57	0	371
6.6.1	win	2022-11-07	14:48:35	14:55:43	425297	5f877e0715f8781a0c7c3ab8	141899420	1	main_z	7	main_z	159	stimuli_distractor_diamondtriangles.svg	stimuli_distractor_trianglediamonds.svg	37	no	0	1	2000
6.6.1	win	2022-11-07	14:48:35	14:55:43	425297	5f877e0715f8781a0c7c3ab8	141899420	1	main_z	7	advance_on_keypress_ZEE	160	stimuli_distractor_diamondtriangles.svg	stimuli_distractor_trianglediamonds.svg	37	no	57	0	320
6.6.1	win	2022-11-07	14:48:35	14:56:15	457274	5f877e0715f8781a0c7c3ab8	141899420	1	practice_slash	9	practice_slash	1	stimuli_distractor_diamondtriangles.svg	stimuli_target_circletriangles.svg	7	yes	53	1	594
6.6.1	win	2022-11-07	14:48:35	14:56:15	457274	5f877e0715f8781a0c7c3ab8	141899420	1	practice_slash	9	advance_on_keypress_SLASH	2	stimuli_distractor_diamondtriangles.svg	stimuli_target_circletriangles.svg	7	yes	57	0	1201
6.6.1	win	2022-11-07	14:48:35	14:56:19	460946	5f877e0715f8781a0c7c3ab8	141899420	1	practice_slash	9	practice_slash	3	stimuli_distractor_diamondtriangles.svg	stimuli_target_diamondcircles.svg	8	yes	53	1	623
6.6.1	win	2022-11-07	14:48:35	14:56:19	460946	5f877e0715f8781a0c7c3ab8	141899420	1	practice_slash	9	advance_on_keypress_SLASH	4	stimuli_distractor_diamondtriangles.svg	stimuli_target_diamondcircles.svg	8	yes	57	0	362
6.6.1	win	2022-11-07	14:48:35	14:56:22	463686	5f877e0715f8781a0c7c3ab8	141899420	1	practice_slash	9	practice_slash	5	stimuli_target_circlediamonds.svg	stimuli_distractor_trianglediamonds.svg	4	yes	53	1	539
6.6.1	win	2022-11-07	14:48:35	14:56:22	463686	5f877e0715f8781a0c7c3ab8	141899420	1	practice_slash	9	advance_on_keypress_SLASH	6	stimuli_target_circlediamonds.svg	stimuli_distractor_trianglediamonds.svg	4	yes	57	0	457
6.6.1	win	2022-11-07	14:48:35	14:56:25	467037	5f877e0715f8781a0c7c3ab8	141899420	1	practice_slash	9	practice_slash	7	stimuli_distractor_trianglediamonds.svg	stimuli_target_squarediamonds.svg	11	yes	53	1	1064
6.6.1	win	2022-11-07	14:48:35	14:56:25	467037	5f877e0715f8781a0c7c3ab8	141899420	1	practice_slash	9	advance_on_keypress_SLASH	8	stimuli_distractor_trianglediamonds.svg	stimuli_target_squarediamonds.svg	11	yes	57	0	293
6.6.1	win	2022-11-07	14:48:35	14:56:29	471166	5f877e0715f8781a0c7c3ab8	141899420	1	practice_slash	9	practice_slash	9	stimuli_target_diamondsquares.svg	stimuli_distractor_diamondtriangles.svg	3	yes	0	0	2000
6.6.1	win	2022-11-07	14:48:35	14:56:29	471166	5f877e0715f8781a0c7c3ab8	141899420	1	practice_slash	9	advance_on_keypress_SLASH	10	stimuli_target_diamondsquares.svg	stimuli_distractor_diamondtriangles.svg	3	yes	57	0	265
6.6.1	win	2022-11-07	14:48:35	14:56:32	473823	5f877e0715f8781a0c7c3ab8	141899420	1	practice_slash	9	practice_slash	11	stimuli_target_squarediamonds.svg	stimuli_distractor_trianglediamonds.svg	5	yes	53	1	561
6.6.1	win	2022-11-07	14:48:35	14:56:32	473823	5f877e0715f8781a0c7c3ab8	141899420	1	practice_slash	9	advance_on_keypress_SLASH	12	stimuli_target_squarediamonds.svg	stimuli_distractor_trianglediamonds.svg	5	yes	57	0	596
6.6.1	win	2022-11-07	14:48:35	14:56:35	476855	5f877e0715f8781a0c7c3ab8	141899420	1	practice_slash	9	practice_slash	13	stimuli_target_squarediamonds.svg	stimuli_distractor_diamondtriangles.svg	2	yes	53	1	617
6.6.1	win	2022-11-07	14:48:35	14:56:35	476855	5f877e0715f8781a0c7c3ab8	141899420	1	practice_slash	9	advance_on_keypress_SLASH	14	stimuli_target_squarediamonds.svg	stimuli_distractor_diamondtriangles.svg	2	yes	57	0	315
6.6.1	win	2022-11-07	14:48:35	14:56:39	481014	5f877e0715f8781a0c7c3ab8	141899420	1	practice_slash	9	practice_slash	15	stimuli_distractor_trianglediamonds.svg	stimuli_distractor_diamondtriangles.svg	16	no	0	1	2000
6.6.1	win	2022-11-07	14:48:35	14:56:39	481014	5f877e0715f8781a0c7c3ab8	141899420	1	practice_slash	9	advance_on_keypress_SLASH	16	stimuli_distractor_trianglediamonds.svg	stimuli_distractor_diamondtriangles.svg	16	no	57	0	349
6.6.1	win	2022-11-07	14:48:35	14:56:42	483957	5f877e0715f8781a0c7c3ab8	141899420	1	practice_slash	9	practice_slash	17	stimuli_distractor_trianglediamonds.svg	stimuli_target_circlediamonds.svg	10	yes	53	1	763
6.6.1	win	2022-11-07	14:48:35	14:56:42	483957	5f877e0715f8781a0c7c3ab8	141899420	1	practice_slash	9	advance_on_keypress_SLASH	18	stimuli_distractor_trianglediamonds.svg	stimuli_target_circlediamonds.svg	10	yes	57	0	360
6.6.1	win	2022-11-07	14:48:35	14:56:45	487020	5f877e0715f8781a0c7c3ab8	141899420	1	practice_slash	9	practice_slash	19	stimuli_target_diamondsquares.svg	stimuli_distractor_trianglediamonds.svg	6	yes	53	1	868
6.6.1	win	2022-11-07	14:48:35	14:56:45	487020	5f877e0715f8781a0c7c3ab8	141899420	1	practice_slash	9	advance_on_keypress_SLASH	20	stimuli_target_diamondsquares.svg	stimuli_distractor_trianglediamonds.svg	6	yes	57	0	378
6.6.1	win	2022-11-07	14:48:35	14:56:49	491247	5f877e0715f8781a0c7c3ab8	141899420	1	practice_slash	9	practice_slash	21	stimuli_distractor_diamondtriangles.svg	stimuli_distractor_diamondtriangles.svg	13	no	0	1	2000
6.6.1	win	2022-11-07	14:48:35	14:56:49	491247	5f877e0715f8781a0c7c3ab8	141899420	1	practice_slash	9	advance_on_keypress_SLASH	22	stimuli_distractor_diamondtriangles.svg	stimuli_distractor_diamondtriangles.svg	13	no	57	0	440
6.6.1	win	2022-11-07	14:48:35	14:56:52	494127	5f877e0715f8781a0c7c3ab8	141899420	1	practice_slash	9	practice_slash	23	stimuli_target_circlediamonds.svg	stimuli_distractor_diamondtriangles.svg	1	yes	53	1	621
6.6.1	win	2022-11-07	14:48:35	14:56:52	494127	5f877e0715f8781a0c7c3ab8	141899420	1	practice_slash	9	advance_on_keypress_SLASH	24	stimuli_target_circlediamonds.svg	stimuli_distractor_diamondtriangles.svg	1	yes	57	0	349
6.6.1	win	2022-11-07	14:48:35	14:56:56	498318	5f877e0715f8781a0c7c3ab8	141899420	1	practice_slash	9	practice_slash	25	stimuli_distractor_trianglediamonds.svg	stimuli_distractor_trianglediamonds.svg	15	no	0	1	2000
6.6.1	win	2022-11-07	14:48:35	14:56:56	498318	5f877e0715f8781a0c7c3ab8	141899420	1	practice_slash	9	advance_on_keypress_SLASH	26	stimuli_distractor_trianglediamonds.svg	stimuli_distractor_trianglediamonds.svg	15	no	57	0	470
6.6.1	win	2022-11-07	14:48:35	14:56:59	501304	5f877e0715f8781a0c7c3ab8	141899420	1	practice_slash	9	practice_slash	27	stimuli_distractor_diamondtriangles.svg	stimuli_target_trianglecircles.svg	9	yes	53	1	691
6.6.1	win	2022-11-07	14:48:35	14:56:59	501304	5f877e0715f8781a0c7c3ab8	141899420	1	practice_slash	9	advance_on_keypress_SLASH	28	stimuli_distractor_diamondtriangles.svg	stimuli_target_trianglecircles.svg	9	yes	57	0	373
6.6.1	win	2022-11-07	14:48:35	14:57:04	505503	5f877e0715f8781a0c7c3ab8	141899420	1	practice_slash	9	practice_slash	29	stimuli_distractor_diamondtriangles.svg	stimuli_distractor_trianglediamonds.svg	14	no	0	1	2000
6.6.1	win	2022-11-07	14:48:35	14:57:04	505503	5f877e0715f8781a0c7c3ab8	141899420	1	practice_slash	9	advance_on_keypress_SLASH	30	stimuli_distractor_diamondtriangles.svg	stimuli_distractor_trianglediamonds.svg	14	no	57	0	365
6.6.1	win	2022-11-07	14:48:35	14:57:07	508650	5f877e0715f8781a0c7c3ab8	141899420	1	practice_slash	9	practice_slash	31	stimuli_distractor_trianglediamonds.svg	stimuli_target_diamondcircles.svg	12	yes	53	1	950
6.6.1	win	2022-11-07	14:48:35	14:57:07	508650	5f877e0715f8781a0c7c3ab8	141899420	1	practice_slash	9	advance_on_keypress_SLASH	32	stimuli_distractor_trianglediamonds.svg	stimuli_target_diamondcircles.svg	12	yes	57	0	314
6.6.1	win	2022-11-07	14:48:35	14:57:12	513602	5f877e0715f8781a0c7c3ab8	141899420	1	main_slash	11	main_slash	1	stimuli_target_squaretriangles.svg	stimuli_distractor_diamondtriangles.svg	7	yes	53	1	865
6.6.1	win	2022-11-07	14:48:35	14:57:12	513602	5f877e0715f8781a0c7c3ab8	141899420	1	main_slash	11	advance_on_keypress_SLASH	2	stimuli_target_squaretriangles.svg	stimuli_distractor_diamondtriangles.svg	7	yes	57	0	680
6.6.1	win	2022-11-07	14:48:35	14:57:15	517078	5f877e0715f8781a0c7c3ab8	141899420	1	main_slash	11	main_slash	3	stimuli_distractor_trianglediamonds.svg	stimuli_distractor_diamondtriangles.svg	36	no	0	1	2000
6.6.1	win	2022-11-07	14:48:35	14:57:15	517078	5f877e0715f8781a0c7c3ab8	141899420	1	main_slash	11	advance_on_keypress_SLASH	4	stimuli_distractor_trianglediamonds.svg	stimuli_distractor_diamondtriangles.svg	36	no	57	0	376
6.6.1	win	2022-11-07	14:48:35	14:57:17	519154	5f877e0715f8781a0c7c3ab8	141899420	1	main_slash	11	main_slash	5	stimuli_target_squaretriangles.svg	stimuli_distractor_trianglediamonds.svg	3	yes	53	1	920
6.6.1	win	2022-11-07	14:48:35	14:57:17	519154	5f877e0715f8781a0c7c3ab8	141899420	1	main_slash	11	advance_on_keypress_SLASH	6	stimuli_target_squaretriangles.svg	stimuli_distractor_trianglediamonds.svg	3	yes	57	0	515
6.6.1	win	2022-11-07	14:48:35	14:57:19	521327	5f877e0715f8781a0c7c3ab8	141899420	1	main_slash	11	main_slash	7	stimuli_distractor_trianglediamonds.svg	stimuli_target_circletriangles.svg	9	yes	53	1	869
6.6.1	win	2022-11-07	14:48:35	14:57:19	521327	5f877e0715f8781a0c7c3ab8	141899420	1	main_slash	11	advance_on_keypress_SLASH	8	stimuli_distractor_trianglediamonds.svg	stimuli_target_circletriangles.svg	9	yes	57	0	539
6.6.1	win	2022-11-07	14:48:35	14:57:23	524647	5f877e0715f8781a0c7c3ab8	141899420	1	main_slash	11	main_slash	9	stimuli_distractor_trianglediamonds.svg	stimuli_distractor_trianglediamonds.svg	34	no	0	1	2000
6.6.1	win	2022-11-07	14:48:35	14:57:23	524647	5f877e0715f8781a0c7c3ab8	141899420	1	main_slash	11	advance_on_keypress_SLASH	10	stimuli_distractor_trianglediamonds.svg	stimuli_distractor_trianglediamonds.svg	34	no	57	0	315
6.6.1	win	2022-11-07	14:48:35	14:57:25	526403	5f877e0715f8781a0c7c3ab8	141899420	1	main_slash	11	main_slash	11	stimuli_distractor_trianglediamonds.svg	stimuli_target_circlediamonds.svg	10	yes	53	1	663
6.6.1	win	2022-11-07	14:48:35	14:57:25	526403	5f877e0715f8781a0c7c3ab8	141899420	1	main_slash	11	advance_on_keypress_SLASH	12	stimuli_distractor_trianglediamonds.svg	stimuli_target_circlediamonds.svg	10	yes	57	0	536
6.6.1	win	2022-11-07	14:48:35	14:57:27	528530	5f877e0715f8781a0c7c3ab8	141899420	1	main_slash	11	main_slash	13	stimuli_target_circletriangles.svg	stimuli_distractor_trianglediamonds.svg	1	yes	53	1	815
6.6.1	win	2022-11-07	14:48:35	14:57:27	528530	5f877e0715f8781a0c7c3ab8	141899420	1	main_slash	11	advance_on_keypress_SLASH	14	stimuli_target_circletriangles.svg	stimuli_distractor_trianglediamonds.svg	1	yes	57	0	433
6.6.1	win	2022-11-07	14:48:35	14:57:29	530829	5f877e0715f8781a0c7c3ab8	141899420	1	main_slash	11	main_slash	15	stimuli_distractor_diamondtriangles.svg	stimuli_target_circlediamonds.svg	14	yes	53	1	1075
6.6.1	win	2022-11-07	14:48:35	14:57:29	530829	5f877e0715f8781a0c7c3ab8	141899420	1	main_slash	11	advance_on_keypress_SLASH	16	stimuli_distractor_diamondtriangles.svg	stimuli_target_circlediamonds.svg	14	yes	57	0	527
6.6.1	win	2022-11-07	14:48:35	14:57:31	532850	5f877e0715f8781a0c7c3ab8	141899420	1	main_slash	11	main_slash	17	stimuli_target_circlediamonds.svg	stimuli_distractor_trianglediamonds.svg	2	yes	53	1	724
6.6.1	win	2022-11-07	14:48:35	14:57:31	532850	5f877e0715f8781a0c7c3ab8	141899420	1	main_slash	11	advance_on_keypress_SLASH	18	stimuli_target_circlediamonds.svg	stimuli_distractor_trianglediamonds.svg	2	yes	57	0	439
6.6.1	win	2022-11-07	14:48:35	14:57:33	535216	5f877e0715f8781a0c7c3ab8	141899420	1	main_slash	11	main_slash	19	stimuli_target_trianglecircles.svg	stimuli_distractor_trianglediamonds.svg	17	yes	53	1	1148
6.6.1	win	2022-11-07	14:48:35	14:57:33	535216	5f877e0715f8781a0c7c3ab8	141899420	1	main_slash	11	advance_on_keypress_SLASH	20	stimuli_target_trianglecircles.svg	stimuli_distractor_trianglediamonds.svg	17	yes	57	0	374
6.6.1	win	2022-11-07	14:48:35	14:57:35	537286	5f877e0715f8781a0c7c3ab8	141899420	1	main_slash	11	main_slash	21	stimuli_distractor_trianglediamonds.svg	stimuli_target_squarediamonds.svg	12	yes	53	1	913
6.6.1	win	2022-11-07	14:48:35	14:57:35	537286	5f877e0715f8781a0c7c3ab8	141899420	1	main_slash	11	advance_on_keypress_SLASH	22	stimuli_distractor_trianglediamonds.svg	stimuli_target_squarediamonds.svg	12	yes	57	0	369
6.6.1	win	2022-11-07	14:48:35	14:57:37	539302	5f877e0715f8781a0c7c3ab8	141899420	1	main_slash	11	main_slash	23	stimuli_distractor_trianglediamonds.svg	stimuli_target_squaretriangles.svg	11	yes	53	1	873
6.6.1	win	2022-11-07	14:48:35	14:57:37	539302	5f877e0715f8781a0c7c3ab8	141899420	1	main_slash	11	advance_on_keypress_SLASH	24	stimuli_distractor_trianglediamonds.svg	stimuli_target_squaretriangles.svg	11	yes	57	0	403
6.6.1	win	2022-11-07	14:48:35	14:57:40	541370	5f877e0715f8781a0c7c3ab8	141899420	1	main_slash	11	main_slash	25	stimuli_target_trianglesquares.svg	stimuli_distractor_diamondtriangles.svg	22	yes	53	1	884
6.6.1	win	2022-11-07	14:48:35	14:57:40	541370	5f877e0715f8781a0c7c3ab8	141899420	1	main_slash	11	advance_on_keypress_SLASH	26	stimuli_target_trianglesquares.svg	stimuli_distractor_diamondtriangles.svg	22	yes	57	0	367
6.6.1	win	2022-11-07	14:48:35	14:57:41	543355	5f877e0715f8781a0c7c3ab8	141899420	1	main_slash	11	main_slash	27	stimuli_distractor_diamondtriangles.svg	stimuli_target_trianglesquares.svg	30	yes	53	1	830
6.6.1	win	2022-11-07	14:48:35	14:57:41	543355	5f877e0715f8781a0c7c3ab8	141899420	1	main_slash	11	advance_on_keypress_SLASH	28	stimuli_distractor_diamondtriangles.svg	stimuli_target_trianglesquares.svg	30	yes	57	0	441
6.6.1	win	2022-11-07	14:48:35	14:57:43	545346	5f877e0715f8781a0c7c3ab8	141899420	1	main_slash	11	main_slash	29	stimuli_target_diamondcircles.svg	stimuli_distractor_trianglediamonds.svg	19	yes	53	1	782
6.6.1	win	2022-11-07	14:48:35	14:57:43	545346	5f877e0715f8781a0c7c3ab8	141899420	1	main_slash	11	advance_on_keypress_SLASH	30	stimuli_target_diamondcircles.svg	stimuli_distractor_trianglediamonds.svg	19	yes	57	0	406
6.6.1	win	2022-11-07	14:48:35	14:57:45	547217	5f877e0715f8781a0c7c3ab8	141899420	1	main_slash	11	main_slash	31	stimuli_distractor_trianglediamonds.svg	stimuli_target_trianglesquares.svg	26	yes	53	1	681
6.6.1	win	2022-11-07	14:48:35	14:57:45	547217	5f877e0715f8781a0c7c3ab8	141899420	1	main_slash	11	advance_on_keypress_SLASH	32	stimuli_distractor_trianglediamonds.svg	stimuli_target_trianglesquares.svg	26	yes	57	0	366
6.6.1	win	2022-11-07	14:48:35	14:57:47	549038	5f877e0715f8781a0c7c3ab8	141899420	1	main_slash	11	main_slash	33	stimuli_target_circletriangles.svg	stimuli_distractor_diamondtriangles.svg	5	yes	53	1	678
6.6.1	win	2022-11-07	14:48:35	14:57:47	549038	5f877e0715f8781a0c7c3ab8	141899420	1	main_slash	11	advance_on_keypress_SLASH	34	stimuli_target_circletriangles.svg	stimuli_distractor_diamondtriangles.svg	5	yes	57	0	360
6.6.1	win	2022-11-07	14:48:35	14:57:49	550784	5f877e0715f8781a0c7c3ab8	141899420	1	main_slash	11	main_slash	35	stimuli_distractor_diamondtriangles.svg	stimuli_target_diamondsquares.svg	32	yes	53	1	617
6.6.1	win	2022-11-07	14:48:35	14:57:49	550784	5f877e0715f8781a0c7c3ab8	141899420	1	main_slash	11	advance_on_keypress_SLASH	36	stimuli_distractor_diamondtriangles.svg	stimuli_target_diamondsquares.svg	32	yes	57	0	315
6.6.1	win	2022-11-07	14:48:35	14:57:52	553886	5f877e0715f8781a0c7c3ab8	141899420	1	main_slash	11	main_slash	37	stimuli_distractor_diamondtriangles.svg	stimuli_distractor_diamondtriangles.svg	39	no	0	1	2000
6.6.1	win	2022-11-07	14:48:35	14:57:52	553886	5f877e0715f8781a0c7c3ab8	141899420	1	main_slash	11	advance_on_keypress_SLASH	38	stimuli_distractor_diamondtriangles.svg	stimuli_distractor_diamondtriangles.svg	39	no	57	0	367
6.6.1	win	2022-11-07	14:48:35	14:57:54	555639	5f877e0715f8781a0c7c3ab8	141899420	1	main_slash	11	main_slash	39	stimuli_distractor_diamondtriangles.svg	stimuli_target_trianglecircles.svg	29	yes	53	1	610
6.6.1	win	2022-11-07	14:48:35	14:57:54	555639	5f877e0715f8781a0c7c3ab8	141899420	1	main_slash	11	advance_on_keypress_SLASH	40	stimuli_distractor_diamondtriangles.svg	stimuli_target_trianglecircles.svg	29	yes	57	0	317
6.6.1	win	2022-11-07	14:48:35	14:57:56	557390	5f877e0715f8781a0c7c3ab8	141899420	1	main_slash	11	main_slash	41	stimuli_target_squarediamonds.svg	stimuli_distractor_trianglediamonds.svg	4	yes	53	1	651
6.6.1	win	2022-11-07	14:48:35	14:57:56	557390	5f877e0715f8781a0c7c3ab8	141899420	1	main_slash	11	advance_on_keypress_SLASH	42	stimuli_target_squarediamonds.svg	stimuli_distractor_trianglediamonds.svg	4	yes	57	0	277
6.6.1	win	2022-11-07	14:48:35	14:57:59	560439	5f877e0715f8781a0c7c3ab8	141899420	1	main_slash	11	main_slash	43	stimuli_distractor_trianglediamonds.svg	stimuli_distractor_diamondtriangles.svg	35	no	0	1	2000
6.6.1	win	2022-11-07	14:48:35	14:57:59	560439	5f877e0715f8781a0c7c3ab8	141899420	1	main_slash	11	advance_on_keypress_SLASH	44	stimuli_distractor_trianglediamonds.svg	stimuli_distractor_diamondtriangles.svg	35	no	57	0	367
6.6.1	win	2022-11-07	14:48:35	14:58:02	563582	5f877e0715f8781a0c7c3ab8	141899420	1	main_slash	11	main_slash	45	stimuli_distractor_trianglediamonds.svg	stimuli_distractor_trianglediamonds.svg	33	no	0	1	2000
6.6.1	win	2022-11-07	14:48:35	14:58:02	563582	5f877e0715f8781a0c7c3ab8	141899420	1	main_slash	11	advance_on_keypress_SLASH	46	stimuli_distractor_trianglediamonds.svg	stimuli_distractor_trianglediamonds.svg	33	no	57	0	313
6.6.1	win	2022-11-07	14:48:35	14:58:03	565316	5f877e0715f8781a0c7c3ab8	141899420	1	main_slash	11	main_slash	47	stimuli_distractor_diamondtriangles.svg	stimuli_target_diamondcircles.svg	31	yes	53	1	639
6.6.1	win	2022-11-07	14:48:35	14:58:03	565316	5f877e0715f8781a0c7c3ab8	141899420	1	main_slash	11	advance_on_keypress_SLASH	48	stimuli_distractor_diamondtriangles.svg	stimuli_target_diamondcircles.svg	31	yes	57	0	349
6.6.1	win	2022-11-07	14:48:35	14:58:05	567045	5f877e0715f8781a0c7c3ab8	141899420	1	main_slash	11	main_slash	49	stimuli_target_trianglesquares.svg	stimuli_distractor_trianglediamonds.svg	18	yes	53	1	599
6.6.1	win	2022-11-07	14:48:35	14:58:05	567045	5f877e0715f8781a0c7c3ab8	141899420	1	main_slash	11	advance_on_keypress_SLASH	50	stimuli_target_trianglesquares.svg	stimuli_distractor_trianglediamonds.svg	18	yes	57	0	279
6.6.1	win	2022-11-07	14:48:35	14:58:07	568689	5f877e0715f8781a0c7c3ab8	141899420	1	main_slash	11	main_slash	51	stimuli_distractor_trianglediamonds.svg	stimuli_target_diamondsquares.svg	28	yes	53	1	571
6.6.1	win	2022-11-07	14:48:35	14:58:07	568689	5f877e0715f8781a0c7c3ab8	141899420	1	main_slash	11	advance_on_keypress_SLASH	52	stimuli_distractor_trianglediamonds.svg	stimuli_target_diamondsquares.svg	28	yes	57	0	241
6.6.1	win	2022-11-07	14:48:35	14:58:08	570242	5f877e0715f8781a0c7c3ab8	141899420	1	main_slash	11	main_slash	53	stimuli_target_diamondsquares.svg	stimuli_distractor_trianglediamonds.svg	20	yes	53	1	537
6.6.1	win	2022-11-07	14:48:35	14:58:08	570242	5f877e0715f8781a0c7c3ab8	141899420	1	main_slash	11	advance_on_keypress_SLASH	54	stimuli_target_diamondsquares.svg	stimuli_distractor_trianglediamonds.svg	20	yes	57	0	224
6.6.1	win	2022-11-07	14:48:35	14:58:10	572004	5f877e0715f8781a0c7c3ab8	141899420	1	main_slash	11	main_slash	55	stimuli_distractor_diamondtriangles.svg	stimuli_target_squaretriangles.svg	15	yes	53	1	757
6.6.1	win	2022-11-07	14:48:35	14:58:10	572004	5f877e0715f8781a0c7c3ab8	141899420	1	main_slash	11	advance_on_keypress_SLASH	56	stimuli_distractor_diamondtriangles.svg	stimuli_target_squaretriangles.svg	15	yes	57	0	306
6.6.1	win	2022-11-07	14:48:35	14:58:13	575086	5f877e0715f8781a0c7c3ab8	141899420	1	main_slash	11	main_slash	57	stimuli_distractor_diamondtriangles.svg	stimuli_distractor_trianglediamonds.svg	37	no	0	1	2000
6.6.1	win	2022-11-07	14:48:35	14:58:13	575086	5f877e0715f8781a0c7c3ab8	141899420	1	main_slash	11	advance_on_keypress_SLASH	58	stimuli_distractor_diamondtriangles.svg	stimuli_distractor_trianglediamonds.svg	37	no	57	0	375
6.6.1	win	2022-11-07	14:48:35	14:58:15	576847	5f877e0715f8781a0c7c3ab8	141899420	1	main_slash	11	main_slash	59	stimuli_target_squarediamonds.svg	stimuli_distractor_diamondtriangles.svg	8	yes	53	1	603
6.6.1	win	2022-11-07	14:48:35	14:58:15	576847	5f877e0715f8781a0c7c3ab8	141899420	1	main_slash	11	advance_on_keypress_SLASH	60	stimuli_target_squarediamonds.svg	stimuli_distractor_diamondtriangles.svg	8	yes	57	0	275
6.6.1	win	2022-11-07	14:48:35	14:58:16	578355	5f877e0715f8781a0c7c3ab8	141899420	1	main_slash	11	main_slash	61	stimuli_distractor_diamondtriangles.svg	stimuli_target_squarediamonds.svg	16	yes	53	1	455
6.6.1	win	2022-11-07	14:48:35	14:58:16	578355	5f877e0715f8781a0c7c3ab8	141899420	1	main_slash	11	advance_on_keypress_SLASH	62	stimuli_distractor_diamondtriangles.svg	stimuli_target_squarediamonds.svg	16	yes	57	0	1119
6.6.1	win	2022-11-07	14:48:35	14:58:20	582256	5f877e0715f8781a0c7c3ab8	141899420	1	main_slash	11	main_slash	63	stimuli_target_diamondsquares.svg	stimuli_distractor_diamondtriangles.svg	24	yes	0	0	2000
6.6.1	win	2022-11-07	14:48:35	14:58:20	582256	5f877e0715f8781a0c7c3ab8	141899420	1	main_slash	11	advance_on_keypress_SLASH	64	stimuli_target_diamondsquares.svg	stimuli_distractor_diamondtriangles.svg	24	yes	57	0	341
6.6.1	win	2022-11-07	14:48:35	14:58:22	584134	5f877e0715f8781a0c7c3ab8	141899420	1	main_slash	11	main_slash	65	stimuli_distractor_diamondtriangles.svg	stimuli_target_circletriangles.svg	13	yes	53	1	769
6.6.1	win	2022-11-07	14:48:35	14:58:22	584134	5f877e0715f8781a0c7c3ab8	141899420	1	main_slash	11	advance_on_keypress_SLASH	66	stimuli_distractor_diamondtriangles.svg	stimuli_target_circletriangles.svg	13	yes	57	0	358
6.6.1	win	2022-11-07	14:48:35	14:58:25	587270	5f877e0715f8781a0c7c3ab8	141899420	1	main_slash	11	main_slash	67	stimuli_distractor_diamondtriangles.svg	stimuli_distractor_diamondtriangles.svg	40	no	0	1	2000
6.6.1	win	2022-11-07	14:48:35	14:58:25	587270	5f877e0715f8781a0c7c3ab8	141899420	1	main_slash	11	advance_on_keypress_SLASH	68	stimuli_distractor_diamondtriangles.svg	stimuli_distractor_diamondtriangles.svg	40	no	57	0	314
6.6.1	win	2022-11-07	14:48:35	14:58:27	588965	5f877e0715f8781a0c7c3ab8	141899420	1	main_slash	11	main_slash	69	stimuli_distractor_trianglediamonds.svg	stimuli_target_trianglecircles.svg	25	yes	53	1	601
6.6.1	win	2022-11-07	14:48:35	14:58:27	588965	5f877e0715f8781a0c7c3ab8	141899420	1	main_slash	11	advance_on_keypress_SLASH	70	stimuli_distractor_trianglediamonds.svg	stimuli_target_trianglecircles.svg	25	yes	57	0	333
6.6.1	win	2022-11-07	14:48:35	14:58:30	592086	5f877e0715f8781a0c7c3ab8	141899420	1	main_slash	11	main_slash	71	stimuli_distractor_diamondtriangles.svg	stimuli_distractor_trianglediamonds.svg	38	no	0	1	2000
6.6.1	win	2022-11-07	14:48:35	14:58:30	592086	5f877e0715f8781a0c7c3ab8	141899420	1	main_slash	11	advance_on_keypress_SLASH	72	stimuli_distractor_diamondtriangles.svg	stimuli_distractor_trianglediamonds.svg	38	no	57	0	368
6.6.1	win	2022-11-07	14:48:35	14:58:32	593797	5f877e0715f8781a0c7c3ab8	141899420	1	main_slash	11	main_slash	73	stimuli_distractor_trianglediamonds.svg	stimuli_target_diamondcircles.svg	27	yes	53	1	568
6.6.1	win	2022-11-07	14:48:35	14:58:32	593797	5f877e0715f8781a0c7c3ab8	141899420	1	main_slash	11	advance_on_keypress_SLASH	74	stimuli_distractor_trianglediamonds.svg	stimuli_target_diamondcircles.svg	27	yes	57	0	361
6.6.1	win	2022-11-07	14:48:35	14:58:34	595462	5f877e0715f8781a0c7c3ab8	141899420	1	main_slash	11	main_slash	75	stimuli_target_diamondcircles.svg	stimuli_distractor_diamondtriangles.svg	23	yes	53	1	530
6.6.1	win	2022-11-07	14:48:35	14:58:34	595462	5f877e0715f8781a0c7c3ab8	141899420	1	main_slash	11	advance_on_keypress_SLASH	76	stimuli_target_diamondcircles.svg	stimuli_distractor_diamondtriangles.svg	23	yes	57	0	295
6.6.1	win	2022-11-07	14:48:35	14:58:35	596972	5f877e0715f8781a0c7c3ab8	141899420	1	main_slash	11	main_slash	77	stimuli_target_circlediamonds.svg	stimuli_distractor_diamondtriangles.svg	6	yes	53	1	450
6.6.1	win	2022-11-07	14:48:35	14:58:35	596972	5f877e0715f8781a0c7c3ab8	141899420	1	main_slash	11	advance_on_keypress_SLASH	78	stimuli_target_circlediamonds.svg	stimuli_distractor_diamondtriangles.svg	6	yes	57	0	302
6.6.1	win	2022-11-07	14:48:35	14:58:37	598576	5f877e0715f8781a0c7c3ab8	141899420	1	main_slash	11	main_slash	79	stimuli_target_trianglecircles.svg	stimuli_distractor_diamondtriangles.svg	21	yes	53	1	517
6.6.1	win	2022-11-07	14:48:35	14:58:37	598576	5f877e0715f8781a0c7c3ab8	141899420	1	main_slash	11	advance_on_keypress_SLASH	80	stimuli_target_trianglecircles.svg	stimuli_distractor_diamondtriangles.svg	21	yes	57	0	283
6.6.1	win	2022-11-07	14:48:35	14:58:40	601649	5f877e0715f8781a0c7c3ab8	141899420	1	main_slash	11	main_slash	81	stimuli_target_circlediamonds.svg	stimuli_distractor_diamondtriangles.svg	6	yes	0	0	2000
6.6.1	win	2022-11-07	14:48:35	14:58:40	601649	5f877e0715f8781a0c7c3ab8	141899420	1	main_slash	11	advance_on_keypress_SLASH	82	stimuli_target_circlediamonds.svg	stimuli_distractor_diamondtriangles.svg	6	yes	57	0	330
6.6.1	win	2022-11-07	14:48:35	14:58:42	603525	5f877e0715f8781a0c7c3ab8	141899420	1	main_slash	11	main_slash	83	stimuli_distractor_diamondtriangles.svg	stimuli_target_squaretriangles.svg	15	yes	53	1	752
6.6.1	win	2022-11-07	14:48:35	14:58:42	603525	5f877e0715f8781a0c7c3ab8	141899420	1	main_slash	11	advance_on_keypress_SLASH	84	stimuli_distractor_diamondtriangles.svg	stimuli_target_squaretriangles.svg	15	yes	57	0	359
6.6.1	win	2022-11-07	14:48:35	14:58:45	606665	5f877e0715f8781a0c7c3ab8	141899420	1	main_slash	11	main_slash	85	stimuli_distractor_trianglediamonds.svg	stimuli_distractor_trianglediamonds.svg	33	no	0	1	2000
6.6.1	win	2022-11-07	14:48:35	14:58:45	606665	5f877e0715f8781a0c7c3ab8	141899420	1	main_slash	11	advance_on_keypress_SLASH	86	stimuli_distractor_trianglediamonds.svg	stimuli_distractor_trianglediamonds.svg	33	no	57	0	299
6.6.1	win	2022-11-07	14:48:35	14:58:46	608318	5f877e0715f8781a0c7c3ab8	141899420	1	main_slash	11	main_slash	87	stimuli_distractor_trianglediamonds.svg	stimuli_target_circlediamonds.svg	10	yes	53	1	563
6.6.1	win	2022-11-07	14:48:35	14:58:46	608318	5f877e0715f8781a0c7c3ab8	141899420	1	main_slash	11	advance_on_keypress_SLASH	88	stimuli_distractor_trianglediamonds.svg	stimuli_target_circlediamonds.svg	10	yes	57	0	285
6.6.1	win	2022-11-07	14:48:35	14:58:48	610011	5f877e0715f8781a0c7c3ab8	141899420	1	main_slash	11	main_slash	89	stimuli_distractor_diamondtriangles.svg	stimuli_target_circlediamonds.svg	14	yes	53	1	631
6.6.1	win	2022-11-07	14:48:35	14:58:48	610011	5f877e0715f8781a0c7c3ab8	141899420	1	main_slash	11	advance_on_keypress_SLASH	90	stimuli_distractor_diamondtriangles.svg	stimuli_target_circlediamonds.svg	14	yes	57	0	492
6.6.1	win	2022-11-07	14:48:35	14:58:51	613284	5f877e0715f8781a0c7c3ab8	141899420	1	main_slash	11	main_slash	91	stimuli_distractor_diamondtriangles.svg	stimuli_distractor_diamondtriangles.svg	39	no	0	1	2000
6.6.1	win	2022-11-07	14:48:35	14:58:51	613284	5f877e0715f8781a0c7c3ab8	141899420	1	main_slash	11	advance_on_keypress_SLASH	92	stimuli_distractor_diamondtriangles.svg	stimuli_distractor_diamondtriangles.svg	39	no	57	0	303
6.6.1	win	2022-11-07	14:48:35	14:58:55	616377	5f877e0715f8781a0c7c3ab8	141899420	1	main_slash	11	main_slash	93	stimuli_distractor_trianglediamonds.svg	stimuli_distractor_diamondtriangles.svg	35	no	0	1	2000
6.6.1	win	2022-11-07	14:48:35	14:58:55	616377	5f877e0715f8781a0c7c3ab8	141899420	1	main_slash	11	advance_on_keypress_SLASH	94	stimuli_distractor_trianglediamonds.svg	stimuli_distractor_diamondtriangles.svg	35	no	57	0	319
6.6.1	win	2022-11-07	14:48:35	14:58:56	618001	5f877e0715f8781a0c7c3ab8	141899420	1	main_slash	11	main_slash	95	stimuli_target_circletriangles.svg	stimuli_distractor_diamondtriangles.svg	5	yes	53	1	518
6.6.1	win	2022-11-07	14:48:35	14:58:56	618001	5f877e0715f8781a0c7c3ab8	141899420	1	main_slash	11	advance_on_keypress_SLASH	96	stimuli_target_circletriangles.svg	stimuli_distractor_diamondtriangles.svg	5	yes	57	0	302
6.6.1	win	2022-11-07	14:48:35	14:58:59	621090	5f877e0715f8781a0c7c3ab8	141899420	1	main_slash	11	main_slash	97	stimuli_distractor_diamondtriangles.svg	stimuli_distractor_diamondtriangles.svg	40	no	0	1	2000
6.6.1	win	2022-11-07	14:48:35	14:58:59	621090	5f877e0715f8781a0c7c3ab8	141899420	1	main_slash	11	advance_on_keypress_SLASH	98	stimuli_distractor_diamondtriangles.svg	stimuli_distractor_diamondtriangles.svg	40	no	57	0	296
6.6.1	win	2022-11-07	14:48:35	14:59:01	622682	5f877e0715f8781a0c7c3ab8	141899420	1	main_slash	11	main_slash	99	stimuli_target_squaretriangles.svg	stimuli_distractor_diamondtriangles.svg	7	yes	53	1	515
6.6.1	win	2022-11-07	14:48:35	14:59:01	622682	5f877e0715f8781a0c7c3ab8	141899420	1	main_slash	11	advance_on_keypress_SLASH	100	stimuli_target_squaretriangles.svg	stimuli_distractor_diamondtriangles.svg	7	yes	57	0	324
6.6.1	win	2022-11-07	14:48:35	14:59:02	624303	5f877e0715f8781a0c7c3ab8	141899420	1	main_slash	11	main_slash	101	stimuli_distractor_diamondtriangles.svg	stimuli_target_squarediamonds.svg	16	yes	53	1	517
6.6.1	win	2022-11-07	14:48:35	14:59:02	624303	5f877e0715f8781a0c7c3ab8	141899420	1	main_slash	11	advance_on_keypress_SLASH	102	stimuli_distractor_diamondtriangles.svg	stimuli_target_squarediamonds.svg	16	yes	57	0	242
6.6.1	win	2022-11-07	14:48:35	14:59:04	625778	5f877e0715f8781a0c7c3ab8	141899420	1	main_slash	11	main_slash	103	stimuli_distractor_diamondtriangles.svg	stimuli_target_circletriangles.svg	13	yes	53	1	452
6.6.1	win	2022-11-07	14:48:35	14:59:04	625778	5f877e0715f8781a0c7c3ab8	141899420	1	main_slash	11	advance_on_keypress_SLASH	104	stimuli_distractor_diamondtriangles.svg	stimuli_target_circletriangles.svg	13	yes	57	0	270
6.6.1	win	2022-11-07	14:48:35	14:59:05	627345	5f877e0715f8781a0c7c3ab8	141899420	1	main_slash	11	main_slash	105	stimuli_target_trianglesquares.svg	stimuli_distractor_trianglediamonds.svg	18	yes	53	1	515
6.6.1	win	2022-11-07	14:48:35	14:59:05	627345	5f877e0715f8781a0c7c3ab8	141899420	1	main_slash	11	advance_on_keypress_SLASH	106	stimuli_target_trianglesquares.svg	stimuli_distractor_trianglediamonds.svg	18	yes	57	0	278
6.6.1	win	2022-11-07	14:48:35	14:59:07	629013	5f877e0715f8781a0c7c3ab8	141899420	1	main_slash	11	main_slash	107	stimuli_target_diamondcircles.svg	stimuli_distractor_diamondtriangles.svg	23	yes	53	1	595
6.6.1	win	2022-11-07	14:48:35	14:59:07	629013	5f877e0715f8781a0c7c3ab8	141899420	1	main_slash	11	advance_on_keypress_SLASH	108	stimuli_target_diamondcircles.svg	stimuli_distractor_diamondtriangles.svg	23	yes	57	0	329
6.6.1	win	2022-11-07	14:48:35	14:59:09	630568	5f877e0715f8781a0c7c3ab8	141899420	1	main_slash	11	main_slash	109	stimuli_distractor_diamondtriangles.svg	stimuli_distractor_trianglediamonds.svg	37	no	53	0	443
6.6.1	win	2022-11-07	14:48:35	14:59:09	630568	5f877e0715f8781a0c7c3ab8	141899420	1	main_slash	11	advance_on_keypress_SLASH	110	stimuli_distractor_diamondtriangles.svg	stimuli_distractor_trianglediamonds.svg	37	no	57	0	727
6.6.1	win	2022-11-07	14:48:35	14:59:11	632468	5f877e0715f8781a0c7c3ab8	141899420	1	main_slash	11	main_slash	111	stimuli_distractor_diamondtriangles.svg	stimuli_target_trianglesquares.svg	30	yes	53	1	408
6.6.1	win	2022-11-07	14:48:35	14:59:11	632468	5f877e0715f8781a0c7c3ab8	141899420	1	main_slash	11	advance_on_keypress_SLASH	112	stimuli_distractor_diamondtriangles.svg	stimuli_target_trianglesquares.svg	30	yes	57	0	250
6.6.1	win	2022-11-07	14:48:35	14:59:12	634016	5f877e0715f8781a0c7c3ab8	141899420	1	main_slash	11	main_slash	113	stimuli_distractor_diamondtriangles.svg	stimuli_target_diamondsquares.svg	32	yes	53	1	516
6.6.1	win	2022-11-07	14:48:35	14:59:12	634016	5f877e0715f8781a0c7c3ab8	141899420	1	main_slash	11	advance_on_keypress_SLASH	114	stimuli_distractor_diamondtriangles.svg	stimuli_target_diamondsquares.svg	32	yes	57	0	210
6.6.1	win	2022-11-07	14:48:35	14:59:14	635539	5f877e0715f8781a0c7c3ab8	141899420	1	main_slash	11	main_slash	115	stimuli_distractor_trianglediamonds.svg	stimuli_target_circletriangles.svg	9	yes	53	1	519
6.6.1	win	2022-11-07	14:48:35	14:59:14	635539	5f877e0715f8781a0c7c3ab8	141899420	1	main_slash	11	advance_on_keypress_SLASH	116	stimuli_distractor_trianglediamonds.svg	stimuli_target_circletriangles.svg	9	yes	57	0	254
6.6.1	win	2022-11-07	14:48:35	14:59:15	637092	5f877e0715f8781a0c7c3ab8	141899420	1	main_slash	11	main_slash	117	stimuli_target_squaretriangles.svg	stimuli_distractor_trianglediamonds.svg	3	yes	53	1	515
6.6.1	win	2022-11-07	14:48:35	14:59:15	637092	5f877e0715f8781a0c7c3ab8	141899420	1	main_slash	11	advance_on_keypress_SLASH	118	stimuli_target_squaretriangles.svg	stimuli_distractor_trianglediamonds.svg	3	yes	57	0	264
6.6.1	win	2022-11-07	14:48:35	14:59:18	640147	5f877e0715f8781a0c7c3ab8	141899420	1	main_slash	11	main_slash	119	stimuli_distractor_trianglediamonds.svg	stimuli_distractor_trianglediamonds.svg	34	no	0	1	2000
6.6.1	win	2022-11-07	14:48:35	14:59:18	640147	5f877e0715f8781a0c7c3ab8	141899420	1	main_slash	11	advance_on_keypress_SLASH	120	stimuli_distractor_trianglediamonds.svg	stimuli_distractor_trianglediamonds.svg	34	no	57	0	416
6.6.1	win	2022-11-07	14:48:35	14:59:20	641893	5f877e0715f8781a0c7c3ab8	141899420	1	main_slash	11	main_slash	121	stimuli_distractor_diamondtriangles.svg	stimuli_distractor_trianglediamonds.svg	38	no	53	0	552
6.6.1	win	2022-11-07	14:48:35	14:59:20	641893	5f877e0715f8781a0c7c3ab8	141899420	1	main_slash	11	advance_on_keypress_SLASH	122	stimuli_distractor_diamondtriangles.svg	stimuli_distractor_trianglediamonds.svg	38	no	57	0	825
6.6.1	win	2022-11-07	14:48:35	14:59:24	645496	5f877e0715f8781a0c7c3ab8	141899420	1	main_slash	11	main_slash	123	stimuli_distractor_trianglediamonds.svg	stimuli_distractor_diamondtriangles.svg	36	no	0	1	2000
6.6.1	win	2022-11-07	14:48:35	14:59:24	645496	5f877e0715f8781a0c7c3ab8	141899420	1	main_slash	11	advance_on_keypress_SLASH	124	stimuli_distractor_trianglediamonds.svg	stimuli_distractor_diamondtriangles.svg	36	no	57	0	342
6.6.1	win	2022-11-07	14:48:35	14:59:25	647178	5f877e0715f8781a0c7c3ab8	141899420	1	main_slash	11	main_slash	125	stimuli_target_trianglesquares.svg	stimuli_distractor_diamondtriangles.svg	22	yes	53	1	570
6.6.1	win	2022-11-07	14:48:35	14:59:25	647178	5f877e0715f8781a0c7c3ab8	141899420	1	main_slash	11	advance_on_keypress_SLASH	126	stimuli_target_trianglesquares.svg	stimuli_distractor_diamondtriangles.svg	22	yes	57	0	353
6.6.1	win	2022-11-07	14:48:35	14:59:27	648853	5f877e0715f8781a0c7c3ab8	141899420	1	main_slash	11	main_slash	127	stimuli_distractor_trianglediamonds.svg	stimuli_target_trianglesquares.svg	26	yes	53	1	543
6.6.1	win	2022-11-07	14:48:35	14:59:27	648853	5f877e0715f8781a0c7c3ab8	141899420	1	main_slash	11	advance_on_keypress_SLASH	128	stimuli_distractor_trianglediamonds.svg	stimuli_target_trianglesquares.svg	26	yes	57	0	297
6.6.1	win	2022-11-07	14:48:35	14:59:29	650696	5f877e0715f8781a0c7c3ab8	141899420	1	main_slash	11	main_slash	129	stimuli_target_trianglecircles.svg	stimuli_distractor_diamondtriangles.svg	21	yes	53	1	760
6.6.1	win	2022-11-07	14:48:35	14:59:29	650696	5f877e0715f8781a0c7c3ab8	141899420	1	main_slash	11	advance_on_keypress_SLASH	130	stimuli_target_trianglecircles.svg	stimuli_distractor_diamondtriangles.svg	21	yes	57	0	470
6.6.1	win	2022-11-07	14:48:35	14:59:31	652459	5f877e0715f8781a0c7c3ab8	141899420	1	main_slash	11	main_slash	131	stimuli_distractor_diamondtriangles.svg	stimuli_target_diamondcircles.svg	31	yes	53	1	522
6.6.1	win	2022-11-07	14:48:35	14:59:31	652459	5f877e0715f8781a0c7c3ab8	141899420	1	main_slash	11	advance_on_keypress_SLASH	132	stimuli_distractor_diamondtriangles.svg	stimuli_target_diamondcircles.svg	31	yes	57	0	298
6.6.1	win	2022-11-07	14:48:35	14:59:32	654105	5f877e0715f8781a0c7c3ab8	141899420	1	main_slash	11	main_slash	133	stimuli_distractor_trianglediamonds.svg	stimuli_target_diamondsquares.svg	28	yes	53	1	562
6.6.1	win	2022-11-07	14:48:35	14:59:32	654105	5f877e0715f8781a0c7c3ab8	141899420	1	main_slash	11	advance_on_keypress_SLASH	134	stimuli_distractor_trianglediamonds.svg	stimuli_target_diamondsquares.svg	28	yes	57	0	299
6.6.1	win	2022-11-07	14:48:35	14:59:34	655745	5f877e0715f8781a0c7c3ab8	141899420	1	main_slash	11	main_slash	135	stimuli_target_squarediamonds.svg	stimuli_distractor_diamondtriangles.svg	8	yes	53	1	564
6.6.1	win	2022-11-07	14:48:35	14:59:34	655745	5f877e0715f8781a0c7c3ab8	141899420	1	main_slash	11	advance_on_keypress_SLASH	136	stimuli_target_squarediamonds.svg	stimuli_distractor_diamondtriangles.svg	8	yes	57	0	356
6.6.1	win	2022-11-07	14:48:35	14:59:36	657435	5f877e0715f8781a0c7c3ab8	141899420	1	main_slash	11	main_slash	137	stimuli_target_diamondsquares.svg	stimuli_distractor_trianglediamonds.svg	20	yes	53	1	565
6.6.1	win	2022-11-07	14:48:35	14:59:36	657435	5f877e0715f8781a0c7c3ab8	141899420	1	main_slash	11	advance_on_keypress_SLASH	138	stimuli_target_diamondsquares.svg	stimuli_distractor_trianglediamonds.svg	20	yes	57	0	351
6.6.1	win	2022-11-07	14:48:35	14:59:37	659041	5f877e0715f8781a0c7c3ab8	141899420	1	main_slash	11	main_slash	139	stimuli_distractor_trianglediamonds.svg	stimuli_target_diamondcircles.svg	27	yes	53	1	465
6.6.1	win	2022-11-07	14:48:35	14:59:37	659041	5f877e0715f8781a0c7c3ab8	141899420	1	main_slash	11	advance_on_keypress_SLASH	140	stimuli_distractor_trianglediamonds.svg	stimuli_target_diamondcircles.svg	27	yes	57	0	330
6.6.1	win	2022-11-07	14:48:35	14:59:39	660583	5f877e0715f8781a0c7c3ab8	141899420	1	main_slash	11	main_slash	141	stimuli_distractor_trianglediamonds.svg	stimuli_target_trianglecircles.svg	25	yes	53	1	419
6.6.1	win	2022-11-07	14:48:35	14:59:39	660583	5f877e0715f8781a0c7c3ab8	141899420	1	main_slash	11	advance_on_keypress_SLASH	142	stimuli_distractor_trianglediamonds.svg	stimuli_target_trianglecircles.svg	25	yes	57	0	351
6.6.1	win	2022-11-07	14:48:35	14:59:40	662165	5f877e0715f8781a0c7c3ab8	141899420	1	main_slash	11	main_slash	143	stimuli_target_diamondcircles.svg	stimuli_distractor_trianglediamonds.svg	19	yes	53	1	443
6.6.1	win	2022-11-07	14:48:35	14:59:40	662165	5f877e0715f8781a0c7c3ab8	141899420	1	main_slash	11	advance_on_keypress_SLASH	144	stimuli_target_diamondcircles.svg	stimuli_distractor_trianglediamonds.svg	19	yes	57	0	385
6.6.1	win	2022-11-07	14:48:35	14:59:42	663944	5f877e0715f8781a0c7c3ab8	141899420	1	main_slash	11	main_slash	145	stimuli_distractor_trianglediamonds.svg	stimuli_target_squaretriangles.svg	11	yes	53	1	618
6.6.1	win	2022-11-07	14:48:35	14:59:42	663944	5f877e0715f8781a0c7c3ab8	141899420	1	main_slash	11	advance_on_keypress_SLASH	146	stimuli_distractor_trianglediamonds.svg	stimuli_target_squaretriangles.svg	11	yes	57	0	336
6.6.1	win	2022-11-07	14:48:35	14:59:44	665462	5f877e0715f8781a0c7c3ab8	141899420	1	main_slash	11	main_slash	147	stimuli_distractor_diamondtriangles.svg	stimuli_target_trianglecircles.svg	29	yes	53	1	401
6.6.1	win	2022-11-07	14:48:35	14:59:44	665462	5f877e0715f8781a0c7c3ab8	141899420	1	main_slash	11	advance_on_keypress_SLASH	148	stimuli_distractor_diamondtriangles.svg	stimuli_target_trianglecircles.svg	29	yes	57	0	349
6.6.1	win	2022-11-07	14:48:35	14:59:45	667117	5f877e0715f8781a0c7c3ab8	141899420	1	main_slash	11	main_slash	149	stimuli_target_circlediamonds.svg	stimuli_distractor_trianglediamonds.svg	2	yes	53	1	518
6.6.1	win	2022-11-07	14:48:35	14:59:45	667117	5f877e0715f8781a0c7c3ab8	141899420	1	main_slash	11	advance_on_keypress_SLASH	150	stimuli_target_circlediamonds.svg	stimuli_distractor_trianglediamonds.svg	2	yes	57	0	319
6.6.1	win	2022-11-07	14:48:35	14:59:47	668661	5f877e0715f8781a0c7c3ab8	141899420	1	main_slash	11	main_slash	151	stimuli_target_diamondsquares.svg	stimuli_distractor_diamondtriangles.svg	24	yes	53	1	440
6.6.1	win	2022-11-07	14:48:35	14:59:47	668661	5f877e0715f8781a0c7c3ab8	141899420	1	main_slash	11	advance_on_keypress_SLASH	152	stimuli_target_diamondsquares.svg	stimuli_distractor_diamondtriangles.svg	24	yes	57	0	360
6.6.1	win	2022-11-07	14:48:35	14:59:48	670240	5f877e0715f8781a0c7c3ab8	141899420	1	main_slash	11	main_slash	153	stimuli_target_trianglecircles.svg	stimuli_distractor_trianglediamonds.svg	17	yes	53	1	448
6.6.1	win	2022-11-07	14:48:35	14:59:48	670240	5f877e0715f8781a0c7c3ab8	141899420	1	main_slash	11	advance_on_keypress_SLASH	154	stimuli_target_trianglecircles.svg	stimuli_distractor_trianglediamonds.svg	17	yes	57	0	333
6.6.1	win	2022-11-07	14:48:35	14:59:50	671734	5f877e0715f8781a0c7c3ab8	141899420	1	main_slash	11	main_slash	155	stimuli_target_circletriangles.svg	stimuli_distractor_trianglediamonds.svg	1	yes	53	1	387
6.6.1	win	2022-11-07	14:48:35	14:59:50	671734	5f877e0715f8781a0c7c3ab8	141899420	1	main_slash	11	advance_on_keypress_SLASH	156	stimuli_target_circletriangles.svg	stimuli_distractor_trianglediamonds.svg	1	yes	57	0	443
6.6.1	win	2022-11-07	14:48:35	14:59:51	673343	5f877e0715f8781a0c7c3ab8	141899420	1	main_slash	11	main_slash	157	stimuli_target_squarediamonds.svg	stimuli_distractor_trianglediamonds.svg	4	yes	53	1	364
6.6.1	win	2022-11-07	14:48:35	14:59:51	673343	5f877e0715f8781a0c7c3ab8	141899420	1	main_slash	11	advance_on_keypress_SLASH	158	stimuli_target_squarediamonds.svg	stimuli_distractor_trianglediamonds.svg	4	yes	57	0	341
6.6.1	win	2022-11-07	14:48:35	14:59:53	674840	5f877e0715f8781a0c7c3ab8	141899420	1	main_slash	11	main_slash	159	stimuli_distractor_trianglediamonds.svg	stimuli_target_squarediamonds.svg	12	yes	53	1	384
6.6.1	win	2022-11-07	14:48:35	14:59:53	674840	5f877e0715f8781a0c7c3ab8	141899420	1	main_slash	11	advance_on_keypress_SLASH	160	stimuli_distractor_trianglediamonds.svg	stimuli_target_squarediamonds.svg	12	yes	57	0	345