build	computer.platform	date	time	timestamp	time_elapsed_ms	subject	group	session	blockcode	blocknum	trialcode	trialnum	stimulus_left	stimulus_right	stim_index	target_present	response	correct	latency
6.6.1	mac	2022-12-28	00:21:48	00:24:38	168817	60fd021e842d3a8a5a139787	365551011	1	practice_slash	5	practice_slash	1	stimuli_distractor_trianglediamonds.svg	stimuli_target_diamondcircles.svg	12	yes	0	0	2000
6.6.1	mac	2022-12-28	00:21:48	00:24:38	168817	60fd021e842d3a8a5a139787	365551011	1	practice_slash	5	advance_on_keypress_SLASH	2	stimuli_distractor_trianglediamonds.svg	stimuli_target_diamondcircles.svg	12	yes	57	0	1822
6.6.1	mac	2022-12-28	00:21:48	00:24:44	174266	60fd021e842d3a8a5a139787	365551011	1	practice_slash	5	practice_slash	3	stimuli_target_diamondsquares.svg	stimuli_distractor_diamondtriangles.svg	3	yes	0	0	2000
6.6.1	mac	2022-12-28	00:21:48	00:24:44	174266	60fd021e842d3a8a5a139787	365551011	1	practice_slash	5	advance_on_keypress_SLASH	4	stimuli_target_diamondsquares.svg	stimuli_distractor_diamondtriangles.svg	3	yes	57	0	5465
6.6.1	mac	2022-12-28	00:21:48	00:24:51	181986	60fd021e842d3a8a5a139787	365551011	1	practice_slash	5	practice_slash	5	stimuli_distractor_diamondtriangles.svg	stimuli_distractor_trianglediamonds.svg	14	no	53	0	618
6.6.1	mac	2022-12-28	00:21:48	00:24:51	181986	60fd021e842d3a8a5a139787	365551011	1	practice_slash	5	advance_on_keypress_SLASH	6	stimuli_distractor_diamondtriangles.svg	stimuli_distractor_trianglediamonds.svg	14	no	57	0	1337
6.6.1	mac	2022-12-28	00:21:48	00:24:55	185268	60fd021e842d3a8a5a139787	365551011	1	practice_slash	5	practice_slash	7	stimuli_distractor_trianglediamonds.svg	stimuli_target_squarediamonds.svg	11	yes	53	1	317
6.6.1	mac	2022-12-28	00:21:48	00:24:55	185268	60fd021e842d3a8a5a139787	365551011	1	practice_slash	5	advance_on_keypress_SLASH	8	stimuli_distractor_trianglediamonds.svg	stimuli_target_squarediamonds.svg	11	yes	57	0	808
6.6.1	mac	2022-12-28	00:21:48	00:24:58	188109	60fd021e842d3a8a5a139787	365551011	1	practice_slash	5	practice_slash	9	stimuli_distractor_diamondtriangles.svg	stimuli_target_trianglecircles.svg	9	yes	53	1	408
6.6.1	mac	2022-12-28	00:21:48	00:24:58	188109	60fd021e842d3a8a5a139787	365551011	1	practice_slash	5	advance_on_keypress_SLASH	10	stimuli_distractor_diamondtriangles.svg	stimuli_target_trianglecircles.svg	9	yes	57	0	812
6.6.1	mac	2022-12-28	00:21:48	00:25:00	190914	60fd021e842d3a8a5a139787	365551011	1	practice_slash	5	practice_slash	11	stimuli_distractor_trianglediamonds.svg	stimuli_target_circlediamonds.svg	10	yes	53	1	363
6.6.1	mac	2022-12-28	00:21:48	00:25:00	190914	60fd021e842d3a8a5a139787	365551011	1	practice_slash	5	advance_on_keypress_SLASH	12	stimuli_distractor_trianglediamonds.svg	stimuli_target_circlediamonds.svg	10	yes	57	0	852
6.6.1	mac	2022-12-28	00:21:48	00:25:05	195399	60fd021e842d3a8a5a139787	365551011	1	practice_slash	5	practice_slash	13	stimuli_distractor_diamondtriangles.svg	stimuli_target_circletriangles.svg	7	yes	0	0	2000
6.6.1	mac	2022-12-28	00:21:48	00:25:05	195399	60fd021e842d3a8a5a139787	365551011	1	practice_slash	5	advance_on_keypress_SLASH	14	stimuli_distractor_diamondtriangles.svg	stimuli_target_circletriangles.svg	7	yes	57	0	1720
6.6.1	mac	2022-12-28	00:21:48	00:25:09	199176	60fd021e842d3a8a5a139787	365551011	1	practice_slash	5	practice_slash	15	stimuli_target_circlediamonds.svg	stimuli_distractor_diamondtriangles.svg	1	yes	53	1	425
6.6.1	mac	2022-12-28	00:21:48	00:25:09	199176	60fd021e842d3a8a5a139787	365551011	1	practice_slash	5	advance_on_keypress_SLASH	16	stimuli_target_circlediamonds.svg	stimuli_distractor_diamondtriangles.svg	1	yes	57	0	770
6.6.1	mac	2022-12-28	00:21:48	00:25:11	201905	60fd021e842d3a8a5a139787	365551011	1	practice_slash	5	practice_slash	17	stimuli_distractor_diamondtriangles.svg	stimuli_target_diamondcircles.svg	8	yes	53	1	337
6.6.1	mac	2022-12-28	00:21:48	00:25:11	201905	60fd021e842d3a8a5a139787	365551011	1	practice_slash	5	advance_on_keypress_SLASH	18	stimuli_distractor_diamondtriangles.svg	stimuli_target_diamondcircles.svg	8	yes	57	0	695
6.6.1	mac	2022-12-28	00:21:48	00:25:14	204617	60fd021e842d3a8a5a139787	365551011	1	practice_slash	5	practice_slash	19	stimuli_target_diamondsquares.svg	stimuli_distractor_trianglediamonds.svg	6	yes	53	1	383
6.6.1	mac	2022-12-28	00:21:48	00:25:14	204617	60fd021e842d3a8a5a139787	365551011	1	practice_slash	5	advance_on_keypress_SLASH	20	stimuli_target_diamondsquares.svg	stimuli_distractor_trianglediamonds.svg	6	yes	57	0	1446
6.6.1	mac	2022-12-28	00:21:48	00:25:17	208000	60fd021e842d3a8a5a139787	365551011	1	practice_slash	5	practice_slash	21	stimuli_target_circlediamonds.svg	stimuli_distractor_trianglediamonds.svg	4	yes	53	1	299
6.6.1	mac	2022-12-28	00:21:48	00:25:17	208000	60fd021e842d3a8a5a139787	365551011	1	practice_slash	5	advance_on_keypress_SLASH	22	stimuli_target_circlediamonds.svg	stimuli_distractor_trianglediamonds.svg	4	yes	57	0	654
6.6.1	mac	2022-12-28	00:21:48	00:25:20	210652	60fd021e842d3a8a5a139787	365551011	1	practice_slash	5	practice_slash	23	stimuli_target_squarediamonds.svg	stimuli_distractor_diamondtriangles.svg	2	yes	53	1	367
6.6.1	mac	2022-12-28	00:21:48	00:25:20	210652	60fd021e842d3a8a5a139787	365551011	1	practice_slash	5	advance_on_keypress_SLASH	24	stimuli_target_squarediamonds.svg	stimuli_distractor_diamondtriangles.svg	2	yes	57	0	850
6.6.1	mac	2022-12-28	00:21:48	00:25:23	213443	60fd021e842d3a8a5a139787	365551011	1	practice_slash	5	practice_slash	25	stimuli_distractor_trianglediamonds.svg	stimuli_distractor_diamondtriangles.svg	16	no	53	0	308
6.6.1	mac	2022-12-28	00:21:48	00:25:23	213443	60fd021e842d3a8a5a139787	365551011	1	practice_slash	5	advance_on_keypress_SLASH	26	stimuli_distractor_trianglediamonds.svg	stimuli_distractor_diamondtriangles.svg	16	no	57	0	274
6.6.1	mac	2022-12-28	00:21:48	00:25:25	215727	60fd021e842d3a8a5a139787	365551011	1	practice_slash	5	practice_slash	27	stimuli_target_squarediamonds.svg	stimuli_distractor_trianglediamonds.svg	5	yes	53	1	393
6.6.1	mac	2022-12-28	00:21:48	00:25:25	215727	60fd021e842d3a8a5a139787	365551011	1	practice_slash	5	advance_on_keypress_SLASH	28	stimuli_target_squarediamonds.svg	stimuli_distractor_trianglediamonds.svg	5	yes	57	0	308
6.6.1	mac	2022-12-28	00:21:48	00:25:29	219649	60fd021e842d3a8a5a139787	365551011	1	practice_slash	5	practice_slash	29	stimuli_distractor_diamondtriangles.svg	stimuli_distractor_diamondtriangles.svg	13	no	0	1	2000
6.6.1	mac	2022-12-28	00:21:48	00:25:29	219649	60fd021e842d3a8a5a139787	365551011	1	practice_slash	5	advance_on_keypress_SLASH	30	stimuli_distractor_diamondtriangles.svg	stimuli_distractor_diamondtriangles.svg	13	no	57	0	1030
6.6.1	mac	2022-12-28	00:21:48	00:25:34	224316	60fd021e842d3a8a5a139787	365551011	1	practice_slash	5	practice_slash	31	stimuli_distractor_trianglediamonds.svg	stimuli_distractor_trianglediamonds.svg	15	no	0	1	2000
6.6.1	mac	2022-12-28	00:21:48	00:25:34	224316	60fd021e842d3a8a5a139787	365551011	1	practice_slash	5	advance_on_keypress_SLASH	32	stimuli_distractor_trianglediamonds.svg	stimuli_distractor_trianglediamonds.svg	15	no	57	0	418
6.6.1	mac	2022-12-28	00:21:48	00:25:49	239284	60fd021e842d3a8a5a139787	365551011	1	main_slash	7	main_slash	1	stimuli_distractor_diamondtriangles.svg	stimuli_distractor_trianglediamonds.svg	38	no	0	1	2000
6.6.1	mac	2022-12-28	00:21:48	00:25:49	239284	60fd021e842d3a8a5a139787	365551011	1	main_slash	7	advance_on_keypress_SLASH	2	stimuli_distractor_diamondtriangles.svg	stimuli_distractor_trianglediamonds.svg	38	no	57	0	1323
6.6.1	mac	2022-12-28	00:21:48	00:25:51	241653	60fd021e842d3a8a5a139787	365551011	1	main_slash	7	main_slash	3	stimuli_target_squaretriangles.svg	stimuli_distractor_diamondtriangles.svg	7	yes	53	1	419
6.6.1	mac	2022-12-28	00:21:48	00:25:51	241653	60fd021e842d3a8a5a139787	365551011	1	main_slash	7	advance_on_keypress_SLASH	4	stimuli_target_squaretriangles.svg	stimuli_distractor_diamondtriangles.svg	7	yes	57	0	1510
6.6.1	mac	2022-12-28	00:21:48	00:25:55	245782	60fd021e842d3a8a5a139787	365551011	1	main_slash	7	main_slash	5	stimuli_distractor_trianglediamonds.svg	stimuli_distractor_trianglediamonds.svg	33	no	0	1	2000
6.6.1	mac	2022-12-28	00:21:48	00:25:55	245782	60fd021e842d3a8a5a139787	365551011	1	main_slash	7	advance_on_keypress_SLASH	6	stimuli_distractor_trianglediamonds.svg	stimuli_distractor_trianglediamonds.svg	33	no	57	0	465
6.6.1	mac	2022-12-28	00:21:48	00:25:57	247311	60fd021e842d3a8a5a139787	365551011	1	main_slash	7	main_slash	7	stimuli_distractor_diamondtriangles.svg	stimuli_target_squaretriangles.svg	15	yes	53	1	427
6.6.1	mac	2022-12-28	00:21:48	00:25:57	247311	60fd021e842d3a8a5a139787	365551011	1	main_slash	7	advance_on_keypress_SLASH	8	stimuli_distractor_diamondtriangles.svg	stimuli_target_squaretriangles.svg	15	yes	57	0	1161
6.6.1	mac	2022-12-28	00:21:48	00:26:01	251099	60fd021e842d3a8a5a139787	365551011	1	main_slash	7	main_slash	9	stimuli_distractor_trianglediamonds.svg	stimuli_distractor_diamondtriangles.svg	35	no	0	1	2000
6.6.1	mac	2022-12-28	00:21:48	00:26:01	251099	60fd021e842d3a8a5a139787	365551011	1	main_slash	7	advance_on_keypress_SLASH	10	stimuli_distractor_trianglediamonds.svg	stimuli_distractor_diamondtriangles.svg	35	no	57	0	503
6.6.1	mac	2022-12-28	00:21:48	00:26:02	252652	60fd021e842d3a8a5a139787	365551011	1	main_slash	7	main_slash	11	stimuli_target_circletriangles.svg	stimuli_distractor_trianglediamonds.svg	1	yes	53	1	417
6.6.1	mac	2022-12-28	00:21:48	00:26:02	252652	60fd021e842d3a8a5a139787	365551011	1	main_slash	7	advance_on_keypress_SLASH	12	stimuli_target_circletriangles.svg	stimuli_distractor_trianglediamonds.svg	1	yes	57	0	1155
6.6.1	mac	2022-12-28	00:21:48	00:26:04	255022	60fd021e842d3a8a5a139787	365551011	1	main_slash	7	main_slash	13	stimuli_distractor_trianglediamonds.svg	stimuli_target_diamondsquares.svg	28	yes	53	1	587
6.6.1	mac	2022-12-28	00:21:48	00:26:04	255022	60fd021e842d3a8a5a139787	365551011	1	main_slash	7	advance_on_keypress_SLASH	14	stimuli_distractor_trianglediamonds.svg	stimuli_target_diamondsquares.svg	28	yes	57	0	1030
6.6.1	mac	2022-12-28	00:21:48	00:26:07	257394	60fd021e842d3a8a5a139787	365551011	1	main_slash	7	main_slash	15	stimuli_target_diamondcircles.svg	stimuli_distractor_trianglediamonds.svg	19	yes	53	1	709
6.6.1	mac	2022-12-28	00:21:48	00:26:07	257394	60fd021e842d3a8a5a139787	365551011	1	main_slash	7	advance_on_keypress_SLASH	16	stimuli_target_diamondcircles.svg	stimuli_distractor_trianglediamonds.svg	19	yes	57	0	845
6.6.1	mac	2022-12-28	00:21:48	00:26:09	259414	60fd021e842d3a8a5a139787	365551011	1	main_slash	7	main_slash	17	stimuli_distractor_trianglediamonds.svg	stimuli_target_trianglesquares.svg	26	yes	53	1	562
6.6.1	mac	2022-12-28	00:21:48	00:26:09	259414	60fd021e842d3a8a5a139787	365551011	1	main_slash	7	advance_on_keypress_SLASH	18	stimuli_distractor_trianglediamonds.svg	stimuli_target_trianglesquares.svg	26	yes	57	0	837
6.6.1	mac	2022-12-28	00:21:48	00:26:11	261552	60fd021e842d3a8a5a139787	365551011	1	main_slash	7	main_slash	19	stimuli_target_trianglesquares.svg	stimuli_distractor_trianglediamonds.svg	18	yes	53	1	667
6.6.1	mac	2022-12-28	00:21:48	00:26:11	261552	60fd021e842d3a8a5a139787	365551011	1	main_slash	7	advance_on_keypress_SLASH	20	stimuli_target_trianglesquares.svg	stimuli_distractor_trianglediamonds.svg	18	yes	57	0	1285
6.6.1	mac	2022-12-28	00:21:48	00:26:13	263974	60fd021e842d3a8a5a139787	365551011	1	main_slash	7	main_slash	21	stimuli_target_trianglecircles.svg	stimuli_distractor_diamondtriangles.svg	21	yes	53	1	506
6.6.1	mac	2022-12-28	00:21:48	00:26:13	263974	60fd021e842d3a8a5a139787	365551011	1	main_slash	7	advance_on_keypress_SLASH	22	stimuli_target_trianglecircles.svg	stimuli_distractor_diamondtriangles.svg	21	yes	57	0	1638
6.6.1	mac	2022-12-28	00:21:48	00:26:18	268233	60fd021e842d3a8a5a139787	365551011	1	main_slash	7	main_slash	23	stimuli_distractor_diamondtriangles.svg	stimuli_distractor_diamondtriangles.svg	40	no	0	1	2000
6.6.1	mac	2022-12-28	00:21:48	00:26:18	268233	60fd021e842d3a8a5a139787	365551011	1	main_slash	7	advance_on_keypress_SLASH	24	stimuli_distractor_diamondtriangles.svg	stimuli_distractor_diamondtriangles.svg	40	no	57	0	728
6.6.1	mac	2022-12-28	00:21:48	00:26:20	270064	60fd021e842d3a8a5a139787	365551011	1	main_slash	7	main_slash	25	stimuli_target_diamondcircles.svg	stimuli_distractor_diamondtriangles.svg	23	yes	53	1	479
6.6.1	mac	2022-12-28	00:21:48	00:26:20	270064	60fd021e842d3a8a5a139787	365551011	1	main_slash	7	advance_on_keypress_SLASH	26	stimuli_target_diamondcircles.svg	stimuli_distractor_diamondtriangles.svg	23	yes	57	0	1149
6.6.1	mac	2022-12-28	00:21:48	00:26:22	272320	60fd021e842d3a8a5a139787	365551011	1	main_slash	7	main_slash	27	stimuli_distractor_diamondtriangles.svg	stimuli_target_trianglesquares.svg	30	yes	53	1	468
6.6.1	mac	2022-12-28	00:21:48	00:26:22	272320	60fd021e842d3a8a5a139787	365551011	1	main_slash	7	advance_on_keypress_SLASH	28	stimuli_distractor_diamondtriangles.svg	stimuli_target_trianglesquares.svg	30	yes	57	0	1025
6.6.1	mac	2022-12-28	00:21:48	00:26:25	275966	60fd021e842d3a8a5a139787	365551011	1	main_slash	7	main_slash	29	stimuli_distractor_diamondtriangles.svg	stimuli_distractor_trianglediamonds.svg	37	no	0	1	2000
6.6.1	mac	2022-12-28	00:21:48	00:26:25	275966	60fd021e842d3a8a5a139787	365551011	1	main_slash	7	advance_on_keypress_SLASH	30	stimuli_distractor_diamondtriangles.svg	stimuli_distractor_trianglediamonds.svg	37	no	57	0	301
6.6.1	mac	2022-12-28	00:21:48	00:26:27	277586	60fd021e842d3a8a5a139787	365551011	1	main_slash	7	main_slash	31	stimuli_target_circlediamonds.svg	stimuli_distractor_diamondtriangles.svg	6	yes	53	1	684
6.6.1	mac	2022-12-28	00:21:48	00:26:27	277586	60fd021e842d3a8a5a139787	365551011	1	main_slash	7	advance_on_keypress_SLASH	32	stimuli_target_circlediamonds.svg	stimuli_distractor_diamondtriangles.svg	6	yes	57	0	775
6.6.1	mac	2022-12-28	00:21:48	00:26:30	280983	60fd021e842d3a8a5a139787	365551011	1	main_slash	7	main_slash	33	stimuli_distractor_trianglediamonds.svg	stimuli_distractor_trianglediamonds.svg	34	no	0	1	2000
6.6.1	mac	2022-12-28	00:21:48	00:26:30	280983	60fd021e842d3a8a5a139787	365551011	1	main_slash	7	advance_on_keypress_SLASH	34	stimuli_distractor_trianglediamonds.svg	stimuli_distractor_trianglediamonds.svg	34	no	57	0	277
6.6.1	mac	2022-12-28	00:21:48	00:26:32	282301	60fd021e842d3a8a5a139787	365551011	1	main_slash	7	main_slash	35	stimuli_distractor_diamondtriangles.svg	stimuli_target_diamondsquares.svg	32	yes	53	1	417
6.6.1	mac	2022-12-28	00:21:48	00:26:32	282301	60fd021e842d3a8a5a139787	365551011	1	main_slash	7	advance_on_keypress_SLASH	36	stimuli_distractor_diamondtriangles.svg	stimuli_target_diamondsquares.svg	32	yes	57	0	877
6.6.1	mac	2022-12-28	00:21:48	00:26:34	284502	60fd021e842d3a8a5a139787	365551011	1	main_slash	7	main_slash	37	stimuli_target_circletriangles.svg	stimuli_distractor_diamondtriangles.svg	5	yes	53	1	701
6.6.1	mac	2022-12-28	00:21:48	00:26:34	284502	60fd021e842d3a8a5a139787	365551011	1	main_slash	7	advance_on_keypress_SLASH	38	stimuli_target_circletriangles.svg	stimuli_distractor_diamondtriangles.svg	5	yes	57	0	979
6.6.1	mac	2022-12-28	00:21:48	00:26:36	287035	60fd021e842d3a8a5a139787	365551011	1	main_slash	7	main_slash	39	stimuli_target_squaretriangles.svg	stimuli_distractor_trianglediamonds.svg	3	yes	53	1	934
6.6.1	mac	2022-12-28	00:21:48	00:26:36	287035	60fd021e842d3a8a5a139787	365551011	1	main_slash	7	advance_on_keypress_SLASH	40	stimuli_target_squaretriangles.svg	stimuli_distractor_trianglediamonds.svg	3	yes	57	0	1103
6.6.1	mac	2022-12-28	00:21:48	00:26:39	289137	60fd021e842d3a8a5a139787	365551011	1	main_slash	7	main_slash	41	stimuli_distractor_diamondtriangles.svg	stimuli_target_circlediamonds.svg	14	yes	53	1	369
6.6.1	mac	2022-12-28	00:21:48	00:26:39	289137	60fd021e842d3a8a5a139787	365551011	1	main_slash	7	advance_on_keypress_SLASH	42	stimuli_distractor_diamondtriangles.svg	stimuli_target_circlediamonds.svg	14	yes	57	0	863
6.6.1	mac	2022-12-28	00:21:48	00:26:40	291009	60fd021e842d3a8a5a139787	365551011	1	main_slash	7	main_slash	43	stimuli_target_squarediamonds.svg	stimuli_distractor_diamondtriangles.svg	8	yes	53	1	374
6.6.1	mac	2022-12-28	00:21:48	00:26:40	291009	60fd021e842d3a8a5a139787	365551011	1	main_slash	7	advance_on_keypress_SLASH	44	stimuli_target_squarediamonds.svg	stimuli_distractor_diamondtriangles.svg	8	yes	57	0	888
6.6.1	mac	2022-12-28	00:21:48	00:26:42	292976	60fd021e842d3a8a5a139787	365551011	1	main_slash	7	main_slash	45	stimuli_target_squarediamonds.svg	stimuli_distractor_trianglediamonds.svg	4	yes	53	1	441
6.6.1	mac	2022-12-28	00:21:48	00:26:42	292976	60fd021e842d3a8a5a139787	365551011	1	main_slash	7	advance_on_keypress_SLASH	46	stimuli_target_squarediamonds.svg	stimuli_distractor_trianglediamonds.svg	4	yes	57	0	821
6.6.1	mac	2022-12-28	00:21:48	00:26:44	294816	60fd021e842d3a8a5a139787	365551011	1	main_slash	7	main_slash	47	stimuli_distractor_diamondtriangles.svg	stimuli_target_diamondcircles.svg	31	yes	53	1	399
6.6.1	mac	2022-12-28	00:21:48	00:26:44	294816	60fd021e842d3a8a5a139787	365551011	1	main_slash	7	advance_on_keypress_SLASH	48	stimuli_distractor_diamondtriangles.svg	stimuli_target_diamondcircles.svg	31	yes	57	0	768
6.6.1	mac	2022-12-28	00:21:48	00:26:46	296634	60fd021e842d3a8a5a139787	365551011	1	main_slash	7	main_slash	49	stimuli_distractor_trianglediamonds.svg	stimuli_target_squarediamonds.svg	12	yes	53	1	416
6.6.1	mac	2022-12-28	00:21:48	00:26:46	296634	60fd021e842d3a8a5a139787	365551011	1	main_slash	7	advance_on_keypress_SLASH	50	stimuli_distractor_trianglediamonds.svg	stimuli_target_squarediamonds.svg	12	yes	57	0	716
6.6.1	mac	2022-12-28	00:21:48	00:26:48	298375	60fd021e842d3a8a5a139787	365551011	1	main_slash	7	main_slash	51	stimuli_distractor_diamondtriangles.svg	stimuli_target_circletriangles.svg	13	yes	53	1	390
6.6.1	mac	2022-12-28	00:21:48	00:26:48	298375	60fd021e842d3a8a5a139787	365551011	1	main_slash	7	advance_on_keypress_SLASH	52	stimuli_distractor_diamondtriangles.svg	stimuli_target_circletriangles.svg	13	yes	57	0	619
6.6.1	mac	2022-12-28	00:21:48	00:26:49	299958	60fd021e842d3a8a5a139787	365551011	1	main_slash	7	main_slash	53	stimuli_distractor_trianglediamonds.svg	stimuli_target_squaretriangles.svg	11	yes	53	1	340
6.6.1	mac	2022-12-28	00:21:48	00:26:49	299958	60fd021e842d3a8a5a139787	365551011	1	main_slash	7	advance_on_keypress_SLASH	54	stimuli_distractor_trianglediamonds.svg	stimuli_target_squaretriangles.svg	11	yes	57	0	730
6.6.1	mac	2022-12-28	00:21:48	00:26:51	301596	60fd021e842d3a8a5a139787	365551011	1	main_slash	7	main_slash	55	stimuli_distractor_trianglediamonds.svg	stimuli_target_circletriangles.svg	9	yes	53	1	294
6.6.1	mac	2022-12-28	00:21:48	00:26:51	301596	60fd021e842d3a8a5a139787	365551011	1	main_slash	7	advance_on_keypress_SLASH	56	stimuli_distractor_trianglediamonds.svg	stimuli_target_circletriangles.svg	9	yes	57	0	895
6.6.1	mac	2022-12-28	00:21:48	00:26:53	303424	60fd021e842d3a8a5a139787	365551011	1	main_slash	7	main_slash	57	stimuli_distractor_diamondtriangles.svg	stimuli_target_squarediamonds.svg	16	yes	53	1	322
6.6.1	mac	2022-12-28	00:21:48	00:26:53	303424	60fd021e842d3a8a5a139787	365551011	1	main_slash	7	advance_on_keypress_SLASH	58	stimuli_distractor_diamondtriangles.svg	stimuli_target_squarediamonds.svg	16	yes	57	0	629
6.6.1	mac	2022-12-28	00:21:48	00:26:54	304954	60fd021e842d3a8a5a139787	365551011	1	main_slash	7	main_slash	59	stimuli_distractor_trianglediamonds.svg	stimuli_target_diamondcircles.svg	27	yes	53	1	286
6.6.1	mac	2022-12-28	00:21:48	00:26:54	304954	60fd021e842d3a8a5a139787	365551011	1	main_slash	7	advance_on_keypress_SLASH	60	stimuli_distractor_trianglediamonds.svg	stimuli_target_diamondcircles.svg	27	yes	57	0	760
6.6.1	mac	2022-12-28	00:21:48	00:26:56	306604	60fd021e842d3a8a5a139787	365551011	1	main_slash	7	main_slash	61	stimuli_target_circlediamonds.svg	stimuli_distractor_trianglediamonds.svg	2	yes	53	1	269
6.6.1	mac	2022-12-28	00:21:48	00:26:56	306604	60fd021e842d3a8a5a139787	365551011	1	main_slash	7	advance_on_keypress_SLASH	62	stimuli_target_circlediamonds.svg	stimuli_distractor_trianglediamonds.svg	2	yes	57	0	638
6.6.1	mac	2022-12-28	00:21:48	00:26:58	308127	60fd021e842d3a8a5a139787	365551011	1	main_slash	7	main_slash	63	stimuli_distractor_diamondtriangles.svg	stimuli_distractor_diamondtriangles.svg	39	no	53	0	258
6.6.1	mac	2022-12-28	00:21:48	00:26:58	308127	60fd021e842d3a8a5a139787	365551011	1	main_slash	7	advance_on_keypress_SLASH	64	stimuli_distractor_diamondtriangles.svg	stimuli_distractor_diamondtriangles.svg	39	no	57	0	696
6.6.1	mac	2022-12-28	00:21:48	00:26:59	309768	60fd021e842d3a8a5a139787	365551011	1	main_slash	7	main_slash	65	stimuli_distractor_trianglediamonds.svg	stimuli_target_trianglecircles.svg	25	yes	53	1	316
6.6.1	mac	2022-12-28	00:21:48	00:26:59	309768	60fd021e842d3a8a5a139787	365551011	1	main_slash	7	advance_on_keypress_SLASH	66	stimuli_distractor_trianglediamonds.svg	stimuli_target_trianglecircles.svg	25	yes	57	0	544
6.6.1	mac	2022-12-28	00:21:48	00:27:01	311364	60fd021e842d3a8a5a139787	365551011	1	main_slash	7	main_slash	67	stimuli_target_trianglesquares.svg	stimuli_distractor_diamondtriangles.svg	22	yes	53	1	429
6.6.1	mac	2022-12-28	00:21:48	00:27:01	311364	60fd021e842d3a8a5a139787	365551011	1	main_slash	7	advance_on_keypress_SLASH	68	stimuli_target_trianglesquares.svg	stimuli_distractor_diamondtriangles.svg	22	yes	57	0	826
6.6.1	mac	2022-12-28	00:21:48	00:27:04	314816	60fd021e842d3a8a5a139787	365551011	1	main_slash	7	main_slash	69	stimuli_distractor_trianglediamonds.svg	stimuli_distractor_diamondtriangles.svg	36	no	0	1	2000
6.6.1	mac	2022-12-28	00:21:48	00:27:04	314816	60fd021e842d3a8a5a139787	365551011	1	main_slash	7	advance_on_keypress_SLASH	70	stimuli_distractor_trianglediamonds.svg	stimuli_distractor_diamondtriangles.svg	36	no	57	0	127
6.6.1	mac	2022-12-28	00:21:48	00:27:06	316263	60fd021e842d3a8a5a139787	365551011	1	main_slash	7	main_slash	71	stimuli_target_diamondsquares.svg	stimuli_distractor_trianglediamonds.svg	20	yes	53	1	695
6.6.1	mac	2022-12-28	00:21:48	00:27:06	316263	60fd021e842d3a8a5a139787	365551011	1	main_slash	7	advance_on_keypress_SLASH	72	stimuli_target_diamondsquares.svg	stimuli_distractor_trianglediamonds.svg	20	yes	57	0	537
6.6.1	mac	2022-12-28	00:21:48	00:27:07	317861	60fd021e842d3a8a5a139787	365551011	1	main_slash	7	main_slash	73	stimuli_target_diamondsquares.svg	stimuli_distractor_diamondtriangles.svg	24	yes	53	1	444
6.6.1	mac	2022-12-28	00:21:48	00:27:07	317861	60fd021e842d3a8a5a139787	365551011	1	main_slash	7	advance_on_keypress_SLASH	74	stimuli_target_diamondsquares.svg	stimuli_distractor_diamondtriangles.svg	24	yes	57	0	553
6.6.1	mac	2022-12-28	00:21:48	00:27:09	319408	60fd021e842d3a8a5a139787	365551011	1	main_slash	7	main_slash	75	stimuli_target_trianglecircles.svg	stimuli_distractor_trianglediamonds.svg	17	yes	53	1	356
6.6.1	mac	2022-12-28	00:21:48	00:27:09	319408	60fd021e842d3a8a5a139787	365551011	1	main_slash	7	advance_on_keypress_SLASH	76	stimuli_target_trianglecircles.svg	stimuli_distractor_trianglediamonds.svg	17	yes	57	0	534
6.6.1	mac	2022-12-28	00:21:48	00:27:10	320876	60fd021e842d3a8a5a139787	365551011	1	main_slash	7	main_slash	77	stimuli_distractor_trianglediamonds.svg	stimuli_target_circlediamonds.svg	10	yes	53	1	309
6.6.1	mac	2022-12-28	00:21:48	00:27:10	320876	60fd021e842d3a8a5a139787	365551011	1	main_slash	7	advance_on_keypress_SLASH	78	stimuli_distractor_trianglediamonds.svg	stimuli_target_circlediamonds.svg	10	yes	57	0	526
6.6.1	mac	2022-12-28	00:21:48	00:27:12	322303	60fd021e842d3a8a5a139787	365551011	1	main_slash	7	main_slash	79	stimuli_distractor_diamondtriangles.svg	stimuli_target_trianglecircles.svg	29	yes	53	1	286
6.6.1	mac	2022-12-28	00:21:48	00:27:12	322303	60fd021e842d3a8a5a139787	365551011	1	main_slash	7	advance_on_keypress_SLASH	80	stimuli_distractor_diamondtriangles.svg	stimuli_target_trianglecircles.svg	29	yes	57	0	487
6.6.1	mac	2022-12-28	00:21:48	00:27:13	323911	60fd021e842d3a8a5a139787	365551011	1	main_slash	7	main_slash	81	stimuli_distractor_diamondtriangles.svg	stimuli_target_diamondsquares.svg	32	yes	53	1	493
6.6.1	mac	2022-12-28	00:21:48	00:27:13	323911	60fd021e842d3a8a5a139787	365551011	1	main_slash	7	advance_on_keypress_SLASH	82	stimuli_distractor_diamondtriangles.svg	stimuli_target_diamondsquares.svg	32	yes	57	0	510
6.6.1	mac	2022-12-28	00:21:48	00:27:15	325461	60fd021e842d3a8a5a139787	365551011	1	main_slash	7	main_slash	83	stimuli_target_circletriangles.svg	stimuli_distractor_diamondtriangles.svg	5	yes	53	1	426
6.6.1	mac	2022-12-28	00:21:48	00:27:15	325461	60fd021e842d3a8a5a139787	365551011	1	main_slash	7	advance_on_keypress_SLASH	84	stimuli_target_circletriangles.svg	stimuli_distractor_diamondtriangles.svg	5	yes	57	0	507
6.6.1	mac	2022-12-28	00:21:48	00:27:16	326890	60fd021e842d3a8a5a139787	365551011	1	main_slash	7	main_slash	85	stimuli_target_squaretriangles.svg	stimuli_distractor_diamondtriangles.svg	7	yes	53	1	288
6.6.1	mac	2022-12-28	00:21:48	00:27:16	326890	60fd021e842d3a8a5a139787	365551011	1	main_slash	7	advance_on_keypress_SLASH	86	stimuli_target_squaretriangles.svg	stimuli_distractor_diamondtriangles.svg	7	yes	57	0	511
6.6.1	mac	2022-12-28	00:21:48	00:27:18	328400	60fd021e842d3a8a5a139787	365551011	1	main_slash	7	main_slash	87	stimuli_target_trianglesquares.svg	stimuli_distractor_trianglediamonds.svg	18	yes	53	1	382
6.6.1	mac	2022-12-28	00:21:48	00:27:18	328400	60fd021e842d3a8a5a139787	365551011	1	main_slash	7	advance_on_keypress_SLASH	88	stimuli_target_trianglesquares.svg	stimuli_distractor_trianglediamonds.svg	18	yes	57	0	412
6.6.1	mac	2022-12-28	00:21:48	00:27:19	329812	60fd021e842d3a8a5a139787	365551011	1	main_slash	7	main_slash	89	stimuli_distractor_trianglediamonds.svg	stimuli_target_diamondsquares.svg	28	yes	53	1	377
6.6.1	mac	2022-12-28	00:21:48	00:27:19	329812	60fd021e842d3a8a5a139787	365551011	1	main_slash	7	advance_on_keypress_SLASH	90	stimuli_distractor_trianglediamonds.svg	stimuli_target_diamondsquares.svg	28	yes	57	0	550
6.6.1	mac	2022-12-28	00:21:48	00:27:21	331223	60fd021e842d3a8a5a139787	365551011	1	main_slash	7	main_slash	91	stimuli_target_diamondsquares.svg	stimuli_distractor_diamondtriangles.svg	24	yes	53	1	221
6.6.1	mac	2022-12-28	00:21:48	00:27:21	331223	60fd021e842d3a8a5a139787	365551011	1	main_slash	7	advance_on_keypress_SLASH	92	stimuli_target_diamondsquares.svg	stimuli_distractor_diamondtriangles.svg	24	yes	57	0	566
6.6.1	mac	2022-12-28	00:21:48	00:27:22	332756	60fd021e842d3a8a5a139787	365551011	1	main_slash	7	main_slash	93	stimuli_distractor_diamondtriangles.svg	stimuli_distractor_trianglediamonds.svg	38	no	53	0	338
6.6.1	mac	2022-12-28	00:21:48	00:27:22	332756	60fd021e842d3a8a5a139787	365551011	1	main_slash	7	advance_on_keypress_SLASH	94	stimuli_distractor_diamondtriangles.svg	stimuli_distractor_trianglediamonds.svg	38	no	57	0	942
6.6.1	mac	2022-12-28	00:21:48	00:27:24	334888	60fd021e842d3a8a5a139787	365551011	1	main_slash	7	main_slash	95	stimuli_distractor_diamondtriangles.svg	stimuli_target_diamondcircles.svg	31	yes	53	1	570
6.6.1	mac	2022-12-28	00:21:48	00:27:24	334888	60fd021e842d3a8a5a139787	365551011	1	main_slash	7	advance_on_keypress_SLASH	96	stimuli_distractor_diamondtriangles.svg	stimuli_target_diamondcircles.svg	31	yes	57	0	680
6.6.1	mac	2022-12-28	00:21:48	00:27:26	336646	60fd021e842d3a8a5a139787	365551011	1	main_slash	7	main_slash	97	stimuli_distractor_trianglediamonds.svg	stimuli_target_squarediamonds.svg	12	yes	53	1	444
6.6.1	mac	2022-12-28	00:21:48	00:27:26	336646	60fd021e842d3a8a5a139787	365551011	1	main_slash	7	advance_on_keypress_SLASH	98	stimuli_distractor_trianglediamonds.svg	stimuli_target_squarediamonds.svg	12	yes	57	0	490
6.6.1	mac	2022-12-28	00:21:48	00:27:28	338156	60fd021e842d3a8a5a139787	365551011	1	main_slash	7	main_slash	99	stimuli_target_circlediamonds.svg	stimuli_distractor_trianglediamonds.svg	2	yes	53	1	388
6.6.1	mac	2022-12-28	00:21:48	00:27:28	338156	60fd021e842d3a8a5a139787	365551011	1	main_slash	7	advance_on_keypress_SLASH	100	stimuli_target_circlediamonds.svg	stimuli_distractor_trianglediamonds.svg	2	yes	57	0	500
6.6.1	mac	2022-12-28	00:21:48	00:27:29	339601	60fd021e842d3a8a5a139787	365551011	1	main_slash	7	main_slash	101	stimuli_target_diamondcircles.svg	stimuli_distractor_diamondtriangles.svg	23	yes	53	1	316
6.6.1	mac	2022-12-28	00:21:48	00:27:29	339601	60fd021e842d3a8a5a139787	365551011	1	main_slash	7	advance_on_keypress_SLASH	102	stimuli_target_diamondcircles.svg	stimuli_distractor_diamondtriangles.svg	23	yes	57	0	592
6.6.1	mac	2022-12-28	00:21:48	00:27:31	341140	60fd021e842d3a8a5a139787	365551011	1	main_slash	7	main_slash	103	stimuli_target_trianglecircles.svg	stimuli_distractor_diamondtriangles.svg	21	yes	53	1	322
6.6.1	mac	2022-12-28	00:21:48	00:27:31	341140	60fd021e842d3a8a5a139787	365551011	1	main_slash	7	advance_on_keypress_SLASH	104	stimuli_target_trianglecircles.svg	stimuli_distractor_diamondtriangles.svg	21	yes	57	0	548
6.6.1	mac	2022-12-28	00:21:48	00:27:32	342669	60fd021e842d3a8a5a139787	365551011	1	main_slash	7	main_slash	105	stimuli_distractor_trianglediamonds.svg	stimuli_target_circlediamonds.svg	10	yes	53	1	351
6.6.1	mac	2022-12-28	00:21:48	00:27:32	342669	60fd021e842d3a8a5a139787	365551011	1	main_slash	7	advance_on_keypress_SLASH	106	stimuli_distractor_trianglediamonds.svg	stimuli_target_circlediamonds.svg	10	yes	57	0	545
6.6.1	mac	2022-12-28	00:21:48	00:27:34	344205	60fd021e842d3a8a5a139787	365551011	1	main_slash	7	main_slash	107	stimuli_distractor_diamondtriangles.svg	stimuli_distractor_diamondtriangles.svg	39	no	53	0	370
6.6.1	mac	2022-12-28	00:21:48	00:27:34	344205	60fd021e842d3a8a5a139787	365551011	1	main_slash	7	advance_on_keypress_SLASH	108	stimuli_distractor_diamondtriangles.svg	stimuli_distractor_diamondtriangles.svg	39	no	57	0	447
6.6.1	mac	2022-12-28	00:21:48	00:27:35	345537	60fd021e842d3a8a5a139787	365551011	1	main_slash	7	main_slash	109	stimuli_distractor_diamondtriangles.svg	stimuli_target_squarediamonds.svg	16	yes	53	1	269
6.6.1	mac	2022-12-28	00:21:48	00:27:35	345537	60fd021e842d3a8a5a139787	365551011	1	main_slash	7	advance_on_keypress_SLASH	110	stimuli_distractor_diamondtriangles.svg	stimuli_target_squarediamonds.svg	16	yes	57	0	1403
6.6.1	mac	2022-12-28	00:21:48	00:27:37	347832	60fd021e842d3a8a5a139787	365551011	1	main_slash	7	main_slash	111	stimuli_distractor_trianglediamonds.svg	stimuli_target_squaretriangles.svg	11	yes	53	1	265
6.6.1	mac	2022-12-28	00:21:48	00:27:37	347832	60fd021e842d3a8a5a139787	365551011	1	main_slash	7	advance_on_keypress_SLASH	112	stimuli_distractor_trianglediamonds.svg	stimuli_target_squaretriangles.svg	11	yes	57	0	522
6.6.1	mac	2022-12-28	00:21:48	00:27:39	349312	60fd021e842d3a8a5a139787	365551011	1	main_slash	7	main_slash	113	stimuli_distractor_trianglediamonds.svg	stimuli_distractor_trianglediamonds.svg	33	no	53	0	328
6.6.1	mac	2022-12-28	00:21:48	00:27:39	349312	60fd021e842d3a8a5a139787	365551011	1	main_slash	7	advance_on_keypress_SLASH	114	stimuli_distractor_trianglediamonds.svg	stimuli_distractor_trianglediamonds.svg	33	no	57	0	401
6.6.1	mac	2022-12-28	00:21:48	00:27:40	350565	60fd021e842d3a8a5a139787	365551011	1	main_slash	7	main_slash	115	stimuli_target_squarediamonds.svg	stimuli_distractor_trianglediamonds.svg	4	yes	53	1	231
6.6.1	mac	2022-12-28	00:21:48	00:27:40	350565	60fd021e842d3a8a5a139787	365551011	1	main_slash	7	advance_on_keypress_SLASH	116	stimuli_target_squarediamonds.svg	stimuli_distractor_trianglediamonds.svg	4	yes	57	0	494
6.6.1	mac	2022-12-28	00:21:48	00:27:41	352018	60fd021e842d3a8a5a139787	365551011	1	main_slash	7	main_slash	117	stimuli_distractor_trianglediamonds.svg	stimuli_target_trianglecircles.svg	25	yes	53	1	333
6.6.1	mac	2022-12-28	00:21:48	00:27:41	352018	60fd021e842d3a8a5a139787	365551011	1	main_slash	7	advance_on_keypress_SLASH	118	stimuli_distractor_trianglediamonds.svg	stimuli_target_trianglecircles.svg	25	yes	57	0	457
6.6.1	mac	2022-12-28	00:21:48	00:27:45	355099	60fd021e842d3a8a5a139787	365551011	1	main_slash	7	main_slash	119	stimuli_distractor_trianglediamonds.svg	stimuli_distractor_trianglediamonds.svg	34	no	0	1	2000
6.6.1	mac	2022-12-28	00:21:48	00:27:45	355099	60fd021e842d3a8a5a139787	365551011	1	main_slash	7	advance_on_keypress_SLASH	120	stimuli_distractor_trianglediamonds.svg	stimuli_distractor_trianglediamonds.svg	34	no	57	0	317
6.6.1	mac	2022-12-28	00:21:48	00:27:46	356385	60fd021e842d3a8a5a139787	365551011	1	main_slash	7	main_slash	121	stimuli_distractor_diamondtriangles.svg	stimuli_target_squaretriangles.svg	15	yes	53	1	334
6.6.1	mac	2022-12-28	00:21:48	00:27:46	356385	60fd021e842d3a8a5a139787	365551011	1	main_slash	7	advance_on_keypress_SLASH	122	stimuli_distractor_diamondtriangles.svg	stimuli_target_squaretriangles.svg	15	yes	57	0	835
6.6.1	mac	2022-12-28	00:21:48	00:27:49	359849	60fd021e842d3a8a5a139787	365551011	1	main_slash	7	main_slash	123	stimuli_distractor_trianglediamonds.svg	stimuli_distractor_diamondtriangles.svg	36	no	0	1	2000
6.6.1	mac	2022-12-28	00:21:48	00:27:49	359849	60fd021e842d3a8a5a139787	365551011	1	main_slash	7	advance_on_keypress_SLASH	124	stimuli_distractor_trianglediamonds.svg	stimuli_distractor_diamondtriangles.svg	36	no	57	0	380
6.6.1	mac	2022-12-28	00:21:48	00:27:51	361311	60fd021e842d3a8a5a139787	365551011	1	main_slash	7	main_slash	125	stimuli_target_circletriangles.svg	stimuli_distractor_trianglediamonds.svg	1	yes	53	1	444
6.6.1	mac	2022-12-28	00:21:48	00:27:51	361311	60fd021e842d3a8a5a139787	365551011	1	main_slash	7	advance_on_keypress_SLASH	126	stimuli_target_circletriangles.svg	stimuli_distractor_trianglediamonds.svg	1	yes	57	0	748
6.6.1	mac	2022-12-28	00:21:48	00:27:53	363125	60fd021e842d3a8a5a139787	365551011	1	main_slash	7	main_slash	127	stimuli_target_trianglesquares.svg	stimuli_distractor_diamondtriangles.svg	22	yes	53	1	424
6.6.1	mac	2022-12-28	00:21:48	00:27:53	363125	60fd021e842d3a8a5a139787	365551011	1	main_slash	7	advance_on_keypress_SLASH	128	stimuli_target_trianglesquares.svg	stimuli_distractor_diamondtriangles.svg	22	yes	57	0	515
6.6.1	mac	2022-12-28	00:21:48	00:27:54	364634	60fd021e842d3a8a5a139787	365551011	1	main_slash	7	main_slash	129	stimuli_distractor_trianglediamonds.svg	stimuli_target_trianglesquares.svg	26	yes	53	1	366
6.6.1	mac	2022-12-28	00:21:48	00:27:54	364634	60fd021e842d3a8a5a139787	365551011	1	main_slash	7	advance_on_keypress_SLASH	130	stimuli_distractor_trianglediamonds.svg	stimuli_target_trianglesquares.svg	26	yes	57	0	420
6.6.1	mac	2022-12-28	00:21:48	00:27:56	366055	60fd021e842d3a8a5a139787	365551011	1	main_slash	7	main_slash	131	stimuli_target_diamondsquares.svg	stimuli_distractor_trianglediamonds.svg	20	yes	53	1	371
6.6.1	mac	2022-12-28	00:21:48	00:27:56	366055	60fd021e842d3a8a5a139787	365551011	1	main_slash	7	advance_on_keypress_SLASH	132	stimuli_target_diamondsquares.svg	stimuli_distractor_trianglediamonds.svg	20	yes	57	0	596
6.6.1	mac	2022-12-28	00:21:48	00:27:57	367656	60fd021e842d3a8a5a139787	365551011	1	main_slash	7	main_slash	133	stimuli_target_circlediamonds.svg	stimuli_distractor_diamondtriangles.svg	6	yes	53	1	387
6.6.1	mac	2022-12-28	00:21:48	00:27:57	367656	60fd021e842d3a8a5a139787	365551011	1	main_slash	7	advance_on_keypress_SLASH	134	stimuli_target_circlediamonds.svg	stimuli_distractor_diamondtriangles.svg	6	yes	57	0	722
6.6.1	mac	2022-12-28	00:21:48	00:27:59	369360	60fd021e842d3a8a5a139787	365551011	1	main_slash	7	main_slash	135	stimuli_distractor_trianglediamonds.svg	stimuli_target_circletriangles.svg	9	yes	53	1	359
6.6.1	mac	2022-12-28	00:21:48	00:27:59	369360	60fd021e842d3a8a5a139787	365551011	1	main_slash	7	advance_on_keypress_SLASH	136	stimuli_distractor_trianglediamonds.svg	stimuli_target_circletriangles.svg	9	yes	57	0	563
6.6.1	mac	2022-12-28	00:21:48	00:28:00	370821	60fd021e842d3a8a5a139787	365551011	1	main_slash	7	main_slash	137	stimuli_distractor_diamondtriangles.svg	stimuli_distractor_diamondtriangles.svg	40	no	53	0	286
6.6.1	mac	2022-12-28	00:21:48	00:28:00	370821	60fd021e842d3a8a5a139787	365551011	1	main_slash	7	advance_on_keypress_SLASH	138	stimuli_distractor_diamondtriangles.svg	stimuli_distractor_diamondtriangles.svg	40	no	57	0	477
6.6.1	mac	2022-12-28	00:21:48	00:28:02	372270	60fd021e842d3a8a5a139787	365551011	1	main_slash	7	main_slash	139	stimuli_target_squarediamonds.svg	stimuli_distractor_diamondtriangles.svg	8	yes	53	1	352
6.6.1	mac	2022-12-28	00:21:48	00:28:02	372270	60fd021e842d3a8a5a139787	365551011	1	main_slash	7	advance_on_keypress_SLASH	140	stimuli_target_squarediamonds.svg	stimuli_distractor_diamondtriangles.svg	8	yes	57	0	474
6.6.1	mac	2022-12-28	00:21:48	00:28:03	373789	60fd021e842d3a8a5a139787	365551011	1	main_slash	7	main_slash	141	stimuli_distractor_diamondtriangles.svg	stimuli_target_trianglesquares.svg	30	yes	53	1	421
6.6.1	mac	2022-12-28	00:21:48	00:28:03	373789	60fd021e842d3a8a5a139787	365551011	1	main_slash	7	advance_on_keypress_SLASH	142	stimuli_distractor_diamondtriangles.svg	stimuli_target_trianglesquares.svg	30	yes	57	0	629
6.6.1	mac	2022-12-28	00:21:48	00:28:05	375397	60fd021e842d3a8a5a139787	365551011	1	main_slash	7	main_slash	143	stimuli_distractor_trianglediamonds.svg	stimuli_distractor_diamondtriangles.svg	35	no	53	0	362
6.6.1	mac	2022-12-28	00:21:48	00:28:05	375397	60fd021e842d3a8a5a139787	365551011	1	main_slash	7	advance_on_keypress_SLASH	144	stimuli_distractor_trianglediamonds.svg	stimuli_distractor_diamondtriangles.svg	35	no	57	0	474
6.6.1	mac	2022-12-28	00:21:48	00:28:06	376728	60fd021e842d3a8a5a139787	365551011	1	main_slash	7	main_slash	145	stimuli_target_trianglecircles.svg	stimuli_distractor_trianglediamonds.svg	17	yes	53	1	226
6.6.1	mac	2022-12-28	00:21:48	00:28:06	376728	60fd021e842d3a8a5a139787	365551011	1	main_slash	7	advance_on_keypress_SLASH	146	stimuli_target_trianglecircles.svg	stimuli_distractor_trianglediamonds.svg	17	yes	57	0	465
6.6.1	mac	2022-12-28	00:21:48	00:28:09	379816	60fd021e842d3a8a5a139787	365551011	1	main_slash	7	main_slash	147	stimuli_distractor_diamondtriangles.svg	stimuli_distractor_trianglediamonds.svg	37	no	0	1	2000
6.6.1	mac	2022-12-28	00:21:48	00:28:09	379816	60fd021e842d3a8a5a139787	365551011	1	main_slash	7	advance_on_keypress_SLASH	148	stimuli_distractor_diamondtriangles.svg	stimuli_distractor_trianglediamonds.svg	37	no	57	0	285
6.6.1	mac	2022-12-28	00:21:48	00:28:11	381039	60fd021e842d3a8a5a139787	365551011	1	main_slash	7	main_slash	149	stimuli_distractor_diamondtriangles.svg	stimuli_target_trianglecircles.svg	29	yes	53	1	304
6.6.1	mac	2022-12-28	00:21:48	00:28:11	381039	60fd021e842d3a8a5a139787	365551011	1	main_slash	7	advance_on_keypress_SLASH	150	stimuli_distractor_diamondtriangles.svg	stimuli_target_trianglecircles.svg	29	yes	57	0	467
6.6.1	mac	2022-12-28	00:21:48	00:28:12	382767	60fd021e842d3a8a5a139787	365551011	1	main_slash	7	main_slash	151	stimuli_target_squaretriangles.svg	stimuli_distractor_trianglediamonds.svg	3	yes	53	1	632
6.6.1	mac	2022-12-28	00:21:48	00:28:12	382767	60fd021e842d3a8a5a139787	365551011	1	main_slash	7	advance_on_keypress_SLASH	152	stimuli_target_squaretriangles.svg	stimuli_distractor_trianglediamonds.svg	3	yes	57	0	473
6.6.1	mac	2022-12-28	00:21:48	00:28:14	384303	60fd021e842d3a8a5a139787	365551011	1	main_slash	7	main_slash	153	stimuli_distractor_trianglediamonds.svg	stimuli_target_diamondcircles.svg	27	yes	53	1	435
6.6.1	mac	2022-12-28	00:21:48	00:28:14	384303	60fd021e842d3a8a5a139787	365551011	1	main_slash	7	advance_on_keypress_SLASH	154	stimuli_distractor_trianglediamonds.svg	stimuli_target_diamondcircles.svg	27	yes	57	0	507
6.6.1	mac	2022-12-28	00:21:48	00:28:15	385733	60fd021e842d3a8a5a139787	365551011	1	main_slash	7	main_slash	155	stimuli_target_diamondcircles.svg	stimuli_distractor_trianglediamonds.svg	19	yes	53	1	298
6.6.1	mac	2022-12-28	00:21:48	00:28:15	385733	60fd021e842d3a8a5a139787	365551011	1	main_slash	7	advance_on_keypress_SLASH	156	stimuli_target_diamondcircles.svg	stimuli_distractor_trianglediamonds.svg	19	yes	57	0	482
6.6.1	mac	2022-12-28	00:21:48	00:28:17	387152	60fd021e842d3a8a5a139787	365551011	1	main_slash	7	main_slash	157	stimuli_distractor_diamondtriangles.svg	stimuli_target_circletriangles.svg	13	yes	53	1	300
6.6.1	mac	2022-12-28	00:21:48	00:28:17	387152	60fd021e842d3a8a5a139787	365551011	1	main_slash	7	advance_on_keypress_SLASH	158	stimuli_distractor_diamondtriangles.svg	stimuli_target_circletriangles.svg	13	yes	57	0	493
6.6.1	mac	2022-12-28	00:21:48	00:28:18	388617	60fd021e842d3a8a5a139787	365551011	1	main_slash	7	main_slash	159	stimuli_distractor_diamondtriangles.svg	stimuli_target_circlediamonds.svg	14	yes	53	1	349
6.6.1	mac	2022-12-28	00:21:48	00:28:18	388617	60fd021e842d3a8a5a139787	365551011	1	main_slash	7	advance_on_keypress_SLASH	160	stimuli_distractor_diamondtriangles.svg	stimuli_target_circlediamonds.svg	14	yes	57	0	388
6.6.1	mac	2022-12-28	00:21:48	00:28:41	412000	60fd021e842d3a8a5a139787	365551011	1	practice_z	9	practice_z	1	stimuli_distractor_trianglediamonds.svg	stimuli_distractor_trianglediamonds.svg	15	no	0	1	2000
6.6.1	mac	2022-12-28	00:21:48	00:28:41	412000	60fd021e842d3a8a5a139787	365551011	1	practice_z	9	advance_on_keypress_ZEE	2	stimuli_distractor_trianglediamonds.svg	stimuli_distractor_trianglediamonds.svg	15	no	57	0	1667
6.6.1	mac	2022-12-28	00:21:48	00:28:45	415691	60fd021e842d3a8a5a139787	365551011	1	practice_z	9	practice_z	3	stimuli_distractor_trianglediamonds.svg	stimuli_target_squarediamonds.svg	11	yes	44	1	389
6.6.1	mac	2022-12-28	00:21:48	00:28:45	415691	60fd021e842d3a8a5a139787	365551011	1	practice_z	9	advance_on_keypress_ZEE	4	stimuli_distractor_trianglediamonds.svg	stimuli_target_squarediamonds.svg	11	yes	57	0	608
6.6.1	mac	2022-12-28	00:21:48	00:28:48	418299	60fd021e842d3a8a5a139787	365551011	1	practice_z	9	practice_z	5	stimuli_distractor_diamondtriangles.svg	stimuli_target_diamondcircles.svg	8	yes	44	1	381
6.6.1	mac	2022-12-28	00:21:48	00:28:48	418299	60fd021e842d3a8a5a139787	365551011	1	practice_z	9	advance_on_keypress_ZEE	6	stimuli_distractor_diamondtriangles.svg	stimuli_target_diamondcircles.svg	8	yes	57	0	327
6.6.1	mac	2022-12-28	00:21:48	00:28:50	420655	60fd021e842d3a8a5a139787	365551011	1	practice_z	9	practice_z	7	stimuli_distractor_trianglediamonds.svg	stimuli_distractor_diamondtriangles.svg	16	no	44	0	403
6.6.1	mac	2022-12-28	00:21:48	00:28:50	420655	60fd021e842d3a8a5a139787	365551011	1	practice_z	9	advance_on_keypress_ZEE	8	stimuli_distractor_trianglediamonds.svg	stimuli_distractor_diamondtriangles.svg	16	no	57	0	425
6.6.1	mac	2022-12-28	00:21:48	00:28:52	423032	60fd021e842d3a8a5a139787	365551011	1	practice_z	9	practice_z	9	stimuli_target_squarediamonds.svg	stimuli_distractor_trianglediamonds.svg	5	yes	44	1	331
6.6.1	mac	2022-12-28	00:21:48	00:28:52	423032	60fd021e842d3a8a5a139787	365551011	1	practice_z	9	advance_on_keypress_ZEE	10	stimuli_target_squarediamonds.svg	stimuli_distractor_trianglediamonds.svg	5	yes	57	0	375
6.6.1	mac	2022-12-28	00:21:48	00:28:55	425354	60fd021e842d3a8a5a139787	365551011	1	practice_z	9	practice_z	11	stimuli_target_circlediamonds.svg	stimuli_distractor_trianglediamonds.svg	4	yes	44	1	319
6.6.1	mac	2022-12-28	00:21:48	00:28:55	425354	60fd021e842d3a8a5a139787	365551011	1	practice_z	9	advance_on_keypress_ZEE	12	stimuli_target_circlediamonds.svg	stimuli_distractor_trianglediamonds.svg	4	yes	57	0	652
6.6.1	mac	2022-12-28	00:21:48	00:28:57	427964	60fd021e842d3a8a5a139787	365551011	1	practice_z	9	practice_z	13	stimuli_distractor_trianglediamonds.svg	stimuli_target_diamondcircles.svg	12	yes	44	1	329
6.6.1	mac	2022-12-28	00:21:48	00:28:57	427964	60fd021e842d3a8a5a139787	365551011	1	practice_z	9	advance_on_keypress_ZEE	14	stimuli_distractor_trianglediamonds.svg	stimuli_target_diamondcircles.svg	12	yes	57	0	312
6.6.1	mac	2022-12-28	00:21:48	00:29:00	430315	60fd021e842d3a8a5a139787	365551011	1	practice_z	9	practice_z	15	stimuli_target_diamondsquares.svg	stimuli_distractor_trianglediamonds.svg	6	yes	44	1	398
6.6.1	mac	2022-12-28	00:21:48	00:29:00	430315	60fd021e842d3a8a5a139787	365551011	1	practice_z	9	advance_on_keypress_ZEE	16	stimuli_target_diamondsquares.svg	stimuli_distractor_trianglediamonds.svg	6	yes	57	0	267
6.6.1	mac	2022-12-28	00:21:48	00:29:04	434216	60fd021e842d3a8a5a139787	365551011	1	practice_z	9	practice_z	17	stimuli_distractor_diamondtriangles.svg	stimuli_distractor_trianglediamonds.svg	14	no	0	1	2000
6.6.1	mac	2022-12-28	00:21:48	00:29:04	434216	60fd021e842d3a8a5a139787	365551011	1	practice_z	9	advance_on_keypress_ZEE	18	stimuli_distractor_diamondtriangles.svg	stimuli_distractor_trianglediamonds.svg	14	no	57	0	471
6.6.1	mac	2022-12-28	00:21:48	00:29:06	436626	60fd021e842d3a8a5a139787	365551011	1	practice_z	9	practice_z	19	stimuli_distractor_diamondtriangles.svg	stimuli_target_trianglecircles.svg	9	yes	44	1	309
6.6.1	mac	2022-12-28	00:21:48	00:29:06	436626	60fd021e842d3a8a5a139787	365551011	1	practice_z	9	advance_on_keypress_ZEE	20	stimuli_distractor_diamondtriangles.svg	stimuli_target_trianglecircles.svg	9	yes	57	0	329
6.6.1	mac	2022-12-28	00:21:48	00:29:08	438917	60fd021e842d3a8a5a139787	365551011	1	practice_z	9	practice_z	21	stimuli_target_circlediamonds.svg	stimuli_distractor_diamondtriangles.svg	1	yes	44	1	332
6.6.1	mac	2022-12-28	00:21:48	00:29:08	438917	60fd021e842d3a8a5a139787	365551011	1	practice_z	9	advance_on_keypress_ZEE	22	stimuli_target_circlediamonds.svg	stimuli_distractor_diamondtriangles.svg	1	yes	57	0	480
6.6.1	mac	2022-12-28	00:21:48	00:29:11	441477	60fd021e842d3a8a5a139787	365551011	1	practice_z	9	practice_z	23	stimuli_target_diamondsquares.svg	stimuli_distractor_diamondtriangles.svg	3	yes	44	1	442
6.6.1	mac	2022-12-28	00:21:48	00:29:11	441477	60fd021e842d3a8a5a139787	365551011	1	practice_z	9	advance_on_keypress_ZEE	24	stimuli_target_diamondsquares.svg	stimuli_distractor_diamondtriangles.svg	3	yes	57	0	313
6.6.1	mac	2022-12-28	00:21:48	00:29:15	445416	60fd021e842d3a8a5a139787	365551011	1	practice_z	9	practice_z	25	stimuli_distractor_diamondtriangles.svg	stimuli_distractor_diamondtriangles.svg	13	no	0	1	2000
6.6.1	mac	2022-12-28	00:21:48	00:29:15	445416	60fd021e842d3a8a5a139787	365551011	1	practice_z	9	advance_on_keypress_ZEE	26	stimuli_distractor_diamondtriangles.svg	stimuli_distractor_diamondtriangles.svg	13	no	57	0	294
6.6.1	mac	2022-12-28	00:21:48	00:29:17	447643	60fd021e842d3a8a5a139787	365551011	1	practice_z	9	practice_z	27	stimuli_distractor_diamondtriangles.svg	stimuli_target_circletriangles.svg	7	yes	44	1	308
6.6.1	mac	2022-12-28	00:21:48	00:29:17	447643	60fd021e842d3a8a5a139787	365551011	1	practice_z	9	advance_on_keypress_ZEE	28	stimuli_distractor_diamondtriangles.svg	stimuli_target_circletriangles.svg	7	yes	57	0	392
6.6.1	mac	2022-12-28	00:21:48	00:29:19	450015	60fd021e842d3a8a5a139787	365551011	1	practice_z	9	practice_z	29	stimuli_target_squarediamonds.svg	stimuli_distractor_diamondtriangles.svg	2	yes	44	1	364
6.6.1	mac	2022-12-28	00:21:48	00:29:19	450015	60fd021e842d3a8a5a139787	365551011	1	practice_z	9	advance_on_keypress_ZEE	30	stimuli_target_squarediamonds.svg	stimuli_distractor_diamondtriangles.svg	2	yes	57	0	260
6.6.1	mac	2022-12-28	00:21:48	00:29:22	452234	60fd021e842d3a8a5a139787	365551011	1	practice_z	9	practice_z	31	stimuli_distractor_trianglediamonds.svg	stimuli_target_circlediamonds.svg	10	yes	44	1	332
6.6.1	mac	2022-12-28	00:21:48	00:29:22	452234	60fd021e842d3a8a5a139787	365551011	1	practice_z	9	advance_on_keypress_ZEE	32	stimuli_distractor_trianglediamonds.svg	stimuli_target_circlediamonds.svg	10	yes	57	0	346
6.6.1	mac	2022-12-28	00:21:48	00:30:22	512434	60fd021e842d3a8a5a139787	365551011	1	main_z	11	main_z	1	stimuli_distractor_trianglediamonds.svg	stimuli_distractor_trianglediamonds.svg	33	no	0	1	2000
6.6.1	mac	2022-12-28	00:21:48	00:30:22	512434	60fd021e842d3a8a5a139787	365551011	1	main_z	11	advance_on_keypress_ZEE	2	stimuli_distractor_trianglediamonds.svg	stimuli_distractor_trianglediamonds.svg	33	no	57	0	2770
6.6.1	mac	2022-12-28	00:21:48	00:30:26	516095	60fd021e842d3a8a5a139787	365551011	1	main_z	11	main_z	3	stimuli_distractor_diamondtriangles.svg	stimuli_target_squarediamonds.svg	16	yes	44	1	260
6.6.1	mac	2022-12-28	00:21:48	00:30:26	516095	60fd021e842d3a8a5a139787	365551011	1	main_z	11	advance_on_keypress_ZEE	4	stimuli_distractor_diamondtriangles.svg	stimuli_target_squarediamonds.svg	16	yes	57	0	963
6.6.1	mac	2022-12-28	00:21:48	00:30:27	518011	60fd021e842d3a8a5a139787	365551011	1	main_z	11	main_z	5	stimuli_distractor_trianglediamonds.svg	stimuli_distractor_diamondtriangles.svg	35	no	44	0	327
6.6.1	mac	2022-12-28	00:21:48	00:30:27	518011	60fd021e842d3a8a5a139787	365551011	1	main_z	11	advance_on_keypress_ZEE	6	stimuli_distractor_trianglediamonds.svg	stimuli_distractor_diamondtriangles.svg	35	no	57	0	496
6.6.1	mac	2022-12-28	00:21:48	00:30:29	519334	60fd021e842d3a8a5a139787	365551011	1	main_z	11	main_z	7	stimuli_distractor_trianglediamonds.svg	stimuli_target_squaretriangles.svg	11	yes	44	1	217
6.6.1	mac	2022-12-28	00:21:48	00:30:29	519334	60fd021e842d3a8a5a139787	365551011	1	main_z	11	advance_on_keypress_ZEE	8	stimuli_distractor_trianglediamonds.svg	stimuli_target_squaretriangles.svg	11	yes	57	0	980
6.6.1	mac	2022-12-28	00:21:48	00:30:31	521268	60fd021e842d3a8a5a139787	365551011	1	main_z	11	main_z	9	stimuli_target_circletriangles.svg	stimuli_distractor_trianglediamonds.svg	1	yes	44	1	317
6.6.1	mac	2022-12-28	00:21:48	00:30:31	521268	60fd021e842d3a8a5a139787	365551011	1	main_z	11	advance_on_keypress_ZEE	10	stimuli_target_circletriangles.svg	stimuli_distractor_trianglediamonds.svg	1	yes	57	0	508
6.6.1	mac	2022-12-28	00:21:48	00:30:32	522752	60fd021e842d3a8a5a139787	365551011	1	main_z	11	main_z	11	stimuli_target_squarediamonds.svg	stimuli_distractor_diamondtriangles.svg	8	yes	44	1	351
6.6.1	mac	2022-12-28	00:21:48	00:30:32	522752	60fd021e842d3a8a5a139787	365551011	1	main_z	11	advance_on_keypress_ZEE	12	stimuli_target_squarediamonds.svg	stimuli_distractor_diamondtriangles.svg	8	yes	57	0	477
6.6.1	mac	2022-12-28	00:21:48	00:30:34	524213	60fd021e842d3a8a5a139787	365551011	1	main_z	11	main_z	13	stimuli_target_diamondsquares.svg	stimuli_distractor_trianglediamonds.svg	20	yes	44	1	362
6.6.1	mac	2022-12-28	00:21:48	00:30:34	524213	60fd021e842d3a8a5a139787	365551011	1	main_z	11	advance_on_keypress_ZEE	14	stimuli_target_diamondsquares.svg	stimuli_distractor_trianglediamonds.svg	20	yes	57	0	698
6.6.1	mac	2022-12-28	00:21:48	00:30:35	525768	60fd021e842d3a8a5a139787	365551011	1	main_z	11	main_z	15	stimuli_distractor_diamondtriangles.svg	stimuli_distractor_diamondtriangles.svg	40	no	44	0	234
6.6.1	mac	2022-12-28	00:21:48	00:30:35	525768	60fd021e842d3a8a5a139787	365551011	1	main_z	11	advance_on_keypress_ZEE	16	stimuli_distractor_diamondtriangles.svg	stimuli_distractor_diamondtriangles.svg	40	no	57	0	410
6.6.1	mac	2022-12-28	00:21:48	00:30:37	527112	60fd021e842d3a8a5a139787	365551011	1	main_z	11	main_z	17	stimuli_target_squaretriangles.svg	stimuli_distractor_trianglediamonds.svg	3	yes	44	1	311
6.6.1	mac	2022-12-28	00:21:48	00:30:37	527112	60fd021e842d3a8a5a139787	365551011	1	main_z	11	advance_on_keypress_ZEE	18	stimuli_target_squaretriangles.svg	stimuli_distractor_trianglediamonds.svg	3	yes	57	0	886
6.6.1	mac	2022-12-28	00:21:48	00:30:38	528988	60fd021e842d3a8a5a139787	365551011	1	main_z	11	main_z	19	stimuli_target_trianglecircles.svg	stimuli_distractor_trianglediamonds.svg	17	yes	44	1	371
6.6.1	mac	2022-12-28	00:21:48	00:30:38	528988	60fd021e842d3a8a5a139787	365551011	1	main_z	11	advance_on_keypress_ZEE	20	stimuli_target_trianglecircles.svg	stimuli_distractor_trianglediamonds.svg	17	yes	57	0	657
6.6.1	mac	2022-12-28	00:21:48	00:30:40	530641	60fd021e842d3a8a5a139787	365551011	1	main_z	11	main_z	21	stimuli_distractor_trianglediamonds.svg	stimuli_target_circletriangles.svg	9	yes	44	1	374
6.6.1	mac	2022-12-28	00:21:48	00:30:40	530641	60fd021e842d3a8a5a139787	365551011	1	main_z	11	advance_on_keypress_ZEE	22	stimuli_distractor_trianglediamonds.svg	stimuli_target_circletriangles.svg	9	yes	57	0	2565
6.6.1	mac	2022-12-28	00:21:48	00:30:44	534145	60fd021e842d3a8a5a139787	365551011	1	main_z	11	main_z	23	stimuli_distractor_diamondtriangles.svg	stimuli_target_trianglesquares.svg	30	yes	44	1	294
6.6.1	mac	2022-12-28	00:21:48	00:30:44	534145	60fd021e842d3a8a5a139787	365551011	1	main_z	11	advance_on_keypress_ZEE	24	stimuli_distractor_diamondtriangles.svg	stimuli_target_trianglesquares.svg	30	yes	57	0	701
6.6.1	mac	2022-12-28	00:21:48	00:30:45	535757	60fd021e842d3a8a5a139787	365551011	1	main_z	11	main_z	25	stimuli_target_squarediamonds.svg	stimuli_distractor_trianglediamonds.svg	4	yes	44	1	290
6.6.1	mac	2022-12-28	00:21:48	00:30:45	535757	60fd021e842d3a8a5a139787	365551011	1	main_z	11	advance_on_keypress_ZEE	26	stimuli_target_squarediamonds.svg	stimuli_distractor_trianglediamonds.svg	4	yes	57	0	615
6.6.1	mac	2022-12-28	00:21:48	00:30:48	538999	60fd021e842d3a8a5a139787	365551011	1	main_z	11	main_z	27	stimuli_distractor_diamondtriangles.svg	stimuli_distractor_diamondtriangles.svg	39	no	0	1	2000
6.6.1	mac	2022-12-28	00:21:48	00:30:48	538999	60fd021e842d3a8a5a139787	365551011	1	main_z	11	advance_on_keypress_ZEE	28	stimuli_distractor_diamondtriangles.svg	stimuli_distractor_diamondtriangles.svg	39	no	57	0	92
6.6.1	mac	2022-12-28	00:21:48	00:30:50	540145	60fd021e842d3a8a5a139787	365551011	1	main_z	11	main_z	29	stimuli_distractor_diamondtriangles.svg	stimuli_target_diamondsquares.svg	32	yes	44	1	427
6.6.1	mac	2022-12-28	00:21:48	00:30:50	540145	60fd021e842d3a8a5a139787	365551011	1	main_z	11	advance_on_keypress_ZEE	30	stimuli_distractor_diamondtriangles.svg	stimuli_target_diamondsquares.svg	32	yes	57	0	682
6.6.1	mac	2022-12-28	00:21:48	00:30:51	541844	60fd021e842d3a8a5a139787	365551011	1	main_z	11	main_z	31	stimuli_distractor_diamondtriangles.svg	stimuli_target_circlediamonds.svg	14	yes	44	1	376
6.6.1	mac	2022-12-28	00:21:48	00:30:51	541844	60fd021e842d3a8a5a139787	365551011	1	main_z	11	advance_on_keypress_ZEE	32	stimuli_distractor_diamondtriangles.svg	stimuli_target_circlediamonds.svg	14	yes	57	0	539
6.6.1	mac	2022-12-28	00:21:48	00:30:53	543297	60fd021e842d3a8a5a139787	365551011	1	main_z	11	main_z	33	stimuli_distractor_trianglediamonds.svg	stimuli_target_trianglesquares.svg	26	yes	44	1	295
6.6.1	mac	2022-12-28	00:21:48	00:30:53	543297	60fd021e842d3a8a5a139787	365551011	1	main_z	11	advance_on_keypress_ZEE	34	stimuli_distractor_trianglediamonds.svg	stimuli_target_trianglesquares.svg	26	yes	57	0	432
6.6.1	mac	2022-12-28	00:21:48	00:30:54	544597	60fd021e842d3a8a5a139787	365551011	1	main_z	11	main_z	35	stimuli_distractor_diamondtriangles.svg	stimuli_target_trianglecircles.svg	29	yes	44	1	229
6.6.1	mac	2022-12-28	00:21:48	00:30:54	544597	60fd021e842d3a8a5a139787	365551011	1	main_z	11	advance_on_keypress_ZEE	36	stimuli_distractor_diamondtriangles.svg	stimuli_target_trianglecircles.svg	29	yes	57	0	449
6.6.1	mac	2022-12-28	00:21:48	00:30:55	545939	60fd021e842d3a8a5a139787	365551011	1	main_z	11	main_z	37	stimuli_target_trianglesquares.svg	stimuli_distractor_diamondtriangles.svg	22	yes	44	1	271
6.6.1	mac	2022-12-28	00:21:48	00:30:55	545939	60fd021e842d3a8a5a139787	365551011	1	main_z	11	advance_on_keypress_ZEE	38	stimuli_target_trianglesquares.svg	stimuli_distractor_diamondtriangles.svg	22	yes	57	0	438
6.6.1	mac	2022-12-28	00:21:48	00:30:57	547250	60fd021e842d3a8a5a139787	365551011	1	main_z	11	main_z	39	stimuli_distractor_diamondtriangles.svg	stimuli_distractor_trianglediamonds.svg	38	no	44	0	248
6.6.1	mac	2022-12-28	00:21:48	00:30:57	547250	60fd021e842d3a8a5a139787	365551011	1	main_z	11	advance_on_keypress_ZEE	40	stimuli_distractor_diamondtriangles.svg	stimuli_distractor_trianglediamonds.svg	38	no	57	0	548
6.6.1	mac	2022-12-28	00:21:48	00:30:58	548509	60fd021e842d3a8a5a139787	365551011	1	main_z	11	main_z	41	stimuli_distractor_trianglediamonds.svg	stimuli_target_diamondcircles.svg	27	yes	44	1	74
6.6.1	mac	2022-12-28	00:21:48	00:30:58	548509	60fd021e842d3a8a5a139787	365551011	1	main_z	11	advance_on_keypress_ZEE	42	stimuli_distractor_trianglediamonds.svg	stimuli_target_diamondcircles.svg	27	yes	57	0	498
6.6.1	mac	2022-12-28	00:21:48	00:30:59	549881	60fd021e842d3a8a5a139787	365551011	1	main_z	11	main_z	43	stimuli_target_squaretriangles.svg	stimuli_distractor_diamondtriangles.svg	7	yes	44	1	246
6.6.1	mac	2022-12-28	00:21:48	00:30:59	549881	60fd021e842d3a8a5a139787	365551011	1	main_z	11	advance_on_keypress_ZEE	44	stimuli_target_squaretriangles.svg	stimuli_distractor_diamondtriangles.svg	7	yes	57	0	435
6.6.1	mac	2022-12-28	00:21:48	00:31:01	551205	60fd021e842d3a8a5a139787	365551011	1	main_z	11	main_z	45	stimuli_distractor_trianglediamonds.svg	stimuli_target_squarediamonds.svg	12	yes	44	1	253
6.6.1	mac	2022-12-28	00:21:48	00:31:01	551205	60fd021e842d3a8a5a139787	365551011	1	main_z	11	advance_on_keypress_ZEE	46	stimuli_distractor_trianglediamonds.svg	stimuli_target_squarediamonds.svg	12	yes	57	0	895
6.6.1	mac	2022-12-28	00:21:48	00:31:02	552917	60fd021e842d3a8a5a139787	365551011	1	main_z	11	main_z	47	stimuli_target_circletriangles.svg	stimuli_distractor_diamondtriangles.svg	5	yes	44	1	198
6.6.1	mac	2022-12-28	00:21:48	00:31:02	552917	60fd021e842d3a8a5a139787	365551011	1	main_z	11	advance_on_keypress_ZEE	48	stimuli_target_circletriangles.svg	stimuli_distractor_diamondtriangles.svg	5	yes	57	0	469
6.6.1	mac	2022-12-28	00:21:48	00:31:04	554583	60fd021e842d3a8a5a139787	365551011	1	main_z	11	main_z	49	stimuli_target_diamondcircles.svg	stimuli_distractor_diamondtriangles.svg	23	yes	44	1	565
6.6.1	mac	2022-12-28	00:21:48	00:31:04	554583	60fd021e842d3a8a5a139787	365551011	1	main_z	11	advance_on_keypress_ZEE	50	stimuli_target_diamondcircles.svg	stimuli_distractor_diamondtriangles.svg	23	yes	57	0	641
6.6.1	mac	2022-12-28	00:21:48	00:31:07	557849	60fd021e842d3a8a5a139787	365551011	1	main_z	11	main_z	51	stimuli_distractor_trianglediamonds.svg	stimuli_distractor_trianglediamonds.svg	34	no	0	1	2000
6.6.1	mac	2022-12-28	00:21:48	00:31:07	557849	60fd021e842d3a8a5a139787	365551011	1	main_z	11	advance_on_keypress_ZEE	52	stimuli_distractor_trianglediamonds.svg	stimuli_distractor_trianglediamonds.svg	34	no	57	0	298
6.6.1	mac	2022-12-28	00:21:48	00:31:09	559165	60fd021e842d3a8a5a139787	365551011	1	main_z	11	main_z	53	stimuli_target_diamondsquares.svg	stimuli_distractor_diamondtriangles.svg	24	yes	44	1	380
6.6.1	mac	2022-12-28	00:21:48	00:31:09	559165	60fd021e842d3a8a5a139787	365551011	1	main_z	11	advance_on_keypress_ZEE	54	stimuli_target_diamondsquares.svg	stimuli_distractor_diamondtriangles.svg	24	yes	57	0	446
6.6.1	mac	2022-12-28	00:21:48	00:31:10	560527	60fd021e842d3a8a5a139787	365551011	1	main_z	11	main_z	55	stimuli_target_trianglesquares.svg	stimuli_distractor_trianglediamonds.svg	18	yes	44	1	292
6.6.1	mac	2022-12-28	00:21:48	00:31:10	560527	60fd021e842d3a8a5a139787	365551011	1	main_z	11	advance_on_keypress_ZEE	56	stimuli_target_trianglesquares.svg	stimuli_distractor_trianglediamonds.svg	18	yes	57	0	503
6.6.1	mac	2022-12-28	00:21:48	00:31:13	563649	60fd021e842d3a8a5a139787	365551011	1	main_z	11	main_z	57	stimuli_distractor_trianglediamonds.svg	stimuli_distractor_diamondtriangles.svg	36	no	0	1	2000
6.6.1	mac	2022-12-28	00:21:48	00:31:13	563649	60fd021e842d3a8a5a139787	365551011	1	main_z	11	advance_on_keypress_ZEE	58	stimuli_distractor_trianglediamonds.svg	stimuli_distractor_diamondtriangles.svg	36	no	57	0	281
6.6.1	mac	2022-12-28	00:21:48	00:31:14	564818	60fd021e842d3a8a5a139787	365551011	1	main_z	11	main_z	59	stimuli_target_circlediamonds.svg	stimuli_distractor_diamondtriangles.svg	6	yes	44	1	251
6.6.1	mac	2022-12-28	00:21:48	00:31:14	564818	60fd021e842d3a8a5a139787	365551011	1	main_z	11	advance_on_keypress_ZEE	60	stimuli_target_circlediamonds.svg	stimuli_distractor_diamondtriangles.svg	6	yes	57	0	496
6.6.1	mac	2022-12-28	00:21:48	00:31:16	566179	60fd021e842d3a8a5a139787	365551011	1	main_z	11	main_z	61	stimuli_distractor_trianglediamonds.svg	stimuli_target_diamondsquares.svg	28	yes	44	1	228
6.6.1	mac	2022-12-28	00:21:48	00:31:16	566179	60fd021e842d3a8a5a139787	365551011	1	main_z	11	advance_on_keypress_ZEE	62	stimuli_distractor_trianglediamonds.svg	stimuli_target_diamondsquares.svg	28	yes	57	0	619
6.6.1	mac	2022-12-28	00:21:48	00:31:17	567676	60fd021e842d3a8a5a139787	365551011	1	main_z	11	main_z	63	stimuli_distractor_diamondtriangles.svg	stimuli_target_diamondcircles.svg	31	yes	44	1	258
6.6.1	mac	2022-12-28	00:21:48	00:31:17	567676	60fd021e842d3a8a5a139787	365551011	1	main_z	11	advance_on_keypress_ZEE	64	stimuli_distractor_diamondtriangles.svg	stimuli_target_diamondcircles.svg	31	yes	57	0	670
6.6.1	mac	2022-12-28	00:21:48	00:31:19	569173	60fd021e842d3a8a5a139787	365551011	1	main_z	11	main_z	65	stimuli_distractor_trianglediamonds.svg	stimuli_target_trianglecircles.svg	25	yes	44	1	205
6.6.1	mac	2022-12-28	00:21:48	00:31:19	569173	60fd021e842d3a8a5a139787	365551011	1	main_z	11	advance_on_keypress_ZEE	66	stimuli_distractor_trianglediamonds.svg	stimuli_target_trianglecircles.svg	25	yes	57	0	600
6.6.1	mac	2022-12-28	00:21:48	00:31:20	570612	60fd021e842d3a8a5a139787	365551011	1	main_z	11	main_z	67	stimuli_distractor_diamondtriangles.svg	stimuli_target_squaretriangles.svg	15	yes	44	1	211
6.6.1	mac	2022-12-28	00:21:48	00:31:20	570612	60fd021e842d3a8a5a139787	365551011	1	main_z	11	advance_on_keypress_ZEE	68	stimuli_distractor_diamondtriangles.svg	stimuli_target_squaretriangles.svg	15	yes	57	0	734
6.6.1	mac	2022-12-28	00:21:48	00:31:22	572077	60fd021e842d3a8a5a139787	365551011	1	main_z	11	main_z	69	stimuli_distractor_diamondtriangles.svg	stimuli_distractor_trianglediamonds.svg	37	no	44	0	110
6.6.1	mac	2022-12-28	00:21:48	00:31:22	572077	60fd021e842d3a8a5a139787	365551011	1	main_z	11	advance_on_keypress_ZEE	70	stimuli_distractor_diamondtriangles.svg	stimuli_distractor_trianglediamonds.svg	37	no	57	0	690
6.6.1	mac	2022-12-28	00:21:48	00:31:23	573608	60fd021e842d3a8a5a139787	365551011	1	main_z	11	main_z	71	stimuli_target_diamondcircles.svg	stimuli_distractor_trianglediamonds.svg	19	yes	44	1	224
6.6.1	mac	2022-12-28	00:21:48	00:31:23	573608	60fd021e842d3a8a5a139787	365551011	1	main_z	11	advance_on_keypress_ZEE	72	stimuli_target_diamondcircles.svg	stimuli_distractor_trianglediamonds.svg	19	yes	57	0	458
6.6.1	mac	2022-12-28	00:21:48	00:31:24	574920	60fd021e842d3a8a5a139787	365551011	1	main_z	11	main_z	73	stimuli_distractor_trianglediamonds.svg	stimuli_target_circlediamonds.svg	10	yes	44	1	236
6.6.1	mac	2022-12-28	00:21:48	00:31:24	574920	60fd021e842d3a8a5a139787	365551011	1	main_z	11	advance_on_keypress_ZEE	74	stimuli_distractor_trianglediamonds.svg	stimuli_target_circlediamonds.svg	10	yes	57	0	421
6.6.1	mac	2022-12-28	00:21:48	00:31:26	576225	60fd021e842d3a8a5a139787	365551011	1	main_z	11	main_z	75	stimuli_distractor_diamondtriangles.svg	stimuli_target_circletriangles.svg	13	yes	44	1	258
6.6.1	mac	2022-12-28	00:21:48	00:31:26	576225	60fd021e842d3a8a5a139787	365551011	1	main_z	11	advance_on_keypress_ZEE	76	stimuli_distractor_diamondtriangles.svg	stimuli_target_circletriangles.svg	13	yes	57	0	511
6.6.1	mac	2022-12-28	00:21:48	00:31:27	577592	60fd021e842d3a8a5a139787	365551011	1	main_z	11	main_z	77	stimuli_target_circlediamonds.svg	stimuli_distractor_trianglediamonds.svg	2	yes	44	1	240
6.6.1	mac	2022-12-28	00:21:48	00:31:27	577592	60fd021e842d3a8a5a139787	365551011	1	main_z	11	advance_on_keypress_ZEE	78	stimuli_target_circlediamonds.svg	stimuli_distractor_trianglediamonds.svg	2	yes	57	0	458
6.6.1	mac	2022-12-28	00:21:48	00:31:28	578952	60fd021e842d3a8a5a139787	365551011	1	main_z	11	main_z	79	stimuli_target_trianglecircles.svg	stimuli_distractor_diamondtriangles.svg	21	yes	44	1	284
6.6.1	mac	2022-12-28	00:21:48	00:31:28	578952	60fd021e842d3a8a5a139787	365551011	1	main_z	11	advance_on_keypress_ZEE	80	stimuli_target_trianglecircles.svg	stimuli_distractor_diamondtriangles.svg	21	yes	57	0	479
6.6.1	mac	2022-12-28	00:21:48	00:31:30	580350	60fd021e842d3a8a5a139787	365551011	1	main_z	11	main_z	81	stimuli_target_trianglecircles.svg	stimuli_distractor_trianglediamonds.svg	17	yes	44	1	282
6.6.1	mac	2022-12-28	00:21:48	00:31:30	580350	60fd021e842d3a8a5a139787	365551011	1	main_z	11	advance_on_keypress_ZEE	82	stimuli_target_trianglecircles.svg	stimuli_distractor_trianglediamonds.svg	17	yes	57	0	465
6.6.1	mac	2022-12-28	00:21:48	00:31:31	581673	60fd021e842d3a8a5a139787	365551011	1	main_z	11	main_z	83	stimuli_distractor_diamondtriangles.svg	stimuli_target_squaretriangles.svg	15	yes	44	1	221
6.6.1	mac	2022-12-28	00:21:48	00:31:31	581673	60fd021e842d3a8a5a139787	365551011	1	main_z	11	advance_on_keypress_ZEE	84	stimuli_distractor_diamondtriangles.svg	stimuli_target_squaretriangles.svg	15	yes	57	0	494
6.6.1	mac	2022-12-28	00:21:48	00:31:33	583039	60fd021e842d3a8a5a139787	365551011	1	main_z	11	main_z	85	stimuli_target_trianglesquares.svg	stimuli_distractor_trianglediamonds.svg	18	yes	44	1	254
6.6.1	mac	2022-12-28	00:21:48	00:31:33	583039	60fd021e842d3a8a5a139787	365551011	1	main_z	11	advance_on_keypress_ZEE	86	stimuli_target_trianglesquares.svg	stimuli_distractor_trianglediamonds.svg	18	yes	57	0	391
6.6.1	mac	2022-12-28	00:21:48	00:31:34	584267	60fd021e842d3a8a5a139787	365551011	1	main_z	11	main_z	87	stimuli_distractor_diamondtriangles.svg	stimuli_distractor_trianglediamonds.svg	37	no	44	0	215
6.6.1	mac	2022-12-28	00:21:48	00:31:34	584267	60fd021e842d3a8a5a139787	365551011	1	main_z	11	advance_on_keypress_ZEE	88	stimuli_distractor_diamondtriangles.svg	stimuli_distractor_trianglediamonds.svg	37	no	57	0	488
6.6.1	mac	2022-12-28	00:21:48	00:31:35	585749	60fd021e842d3a8a5a139787	365551011	1	main_z	11	main_z	89	stimuli_distractor_diamondtriangles.svg	stimuli_target_trianglesquares.svg	30	yes	44	1	365
6.6.1	mac	2022-12-28	00:21:48	00:31:35	585749	60fd021e842d3a8a5a139787	365551011	1	main_z	11	advance_on_keypress_ZEE	90	stimuli_distractor_diamondtriangles.svg	stimuli_target_trianglesquares.svg	30	yes	57	0	501
6.6.1	mac	2022-12-28	00:21:48	00:31:37	587246	60fd021e842d3a8a5a139787	365551011	1	main_z	11	main_z	91	stimuli_target_circlediamonds.svg	stimuli_distractor_diamondtriangles.svg	6	yes	44	1	361
6.6.1	mac	2022-12-28	00:21:48	00:31:37	587246	60fd021e842d3a8a5a139787	365551011	1	main_z	11	advance_on_keypress_ZEE	92	stimuli_target_circlediamonds.svg	stimuli_distractor_diamondtriangles.svg	6	yes	57	0	467
6.6.1	mac	2022-12-28	00:21:48	00:31:38	588682	60fd021e842d3a8a5a139787	365551011	1	main_z	11	main_z	93	stimuli_target_squaretriangles.svg	stimuli_distractor_diamondtriangles.svg	7	yes	44	1	347
6.6.1	mac	2022-12-28	00:21:48	00:31:38	588682	60fd021e842d3a8a5a139787	365551011	1	main_z	11	advance_on_keypress_ZEE	94	stimuli_target_squaretriangles.svg	stimuli_distractor_diamondtriangles.svg	7	yes	57	0	742
6.6.1	mac	2022-12-28	00:21:48	00:31:40	590301	60fd021e842d3a8a5a139787	365551011	1	main_z	11	main_z	95	stimuli_distractor_diamondtriangles.svg	stimuli_target_squarediamonds.svg	16	yes	44	1	250
6.6.1	mac	2022-12-28	00:21:48	00:31:40	590301	60fd021e842d3a8a5a139787	365551011	1	main_z	11	advance_on_keypress_ZEE	96	stimuli_distractor_diamondtriangles.svg	stimuli_target_squarediamonds.svg	16	yes	57	0	573
6.6.1	mac	2022-12-28	00:21:48	00:31:41	591734	60fd021e842d3a8a5a139787	365551011	1	main_z	11	main_z	97	stimuli_target_circlediamonds.svg	stimuli_distractor_trianglediamonds.svg	2	yes	44	1	232
6.6.1	mac	2022-12-28	00:21:48	00:31:41	591734	60fd021e842d3a8a5a139787	365551011	1	main_z	11	advance_on_keypress_ZEE	98	stimuli_target_circlediamonds.svg	stimuli_distractor_trianglediamonds.svg	2	yes	57	0	391
6.6.1	mac	2022-12-28	00:21:48	00:31:42	592980	60fd021e842d3a8a5a139787	365551011	1	main_z	11	main_z	99	stimuli_target_squarediamonds.svg	stimuli_distractor_diamondtriangles.svg	8	yes	44	1	228
6.6.1	mac	2022-12-28	00:21:48	00:31:42	592980	60fd021e842d3a8a5a139787	365551011	1	main_z	11	advance_on_keypress_ZEE	100	stimuli_target_squarediamonds.svg	stimuli_distractor_diamondtriangles.svg	8	yes	57	0	459
6.6.1	mac	2022-12-28	00:21:48	00:31:44	594332	60fd021e842d3a8a5a139787	365551011	1	main_z	11	main_z	101	stimuli_distractor_diamondtriangles.svg	stimuli_distractor_trianglediamonds.svg	38	no	44	0	280
6.6.1	mac	2022-12-28	00:21:48	00:31:44	594332	60fd021e842d3a8a5a139787	365551011	1	main_z	11	advance_on_keypress_ZEE	102	stimuli_distractor_diamondtriangles.svg	stimuli_distractor_trianglediamonds.svg	38	no	57	0	417
6.6.1	mac	2022-12-28	00:21:48	00:31:45	595599	60fd021e842d3a8a5a139787	365551011	1	main_z	11	main_z	103	stimuli_target_squaretriangles.svg	stimuli_distractor_trianglediamonds.svg	3	yes	44	1	214
6.6.1	mac	2022-12-28	00:21:48	00:31:45	595599	60fd021e842d3a8a5a139787	365551011	1	main_z	11	advance_on_keypress_ZEE	104	stimuli_target_squaretriangles.svg	stimuli_distractor_trianglediamonds.svg	3	yes	57	0	405
6.6.1	mac	2022-12-28	00:21:48	00:31:48	598633	60fd021e842d3a8a5a139787	365551011	1	main_z	11	main_z	105	stimuli_distractor_trianglediamonds.svg	stimuli_distractor_diamondtriangles.svg	35	no	0	1	2000
6.6.1	mac	2022-12-28	00:21:48	00:31:48	598633	60fd021e842d3a8a5a139787	365551011	1	main_z	11	advance_on_keypress_ZEE	106	stimuli_distractor_trianglediamonds.svg	stimuli_distractor_diamondtriangles.svg	35	no	57	0	258
6.6.1	mac	2022-12-28	00:21:48	00:31:49	599883	60fd021e842d3a8a5a139787	365551011	1	main_z	11	main_z	107	stimuli_target_trianglesquares.svg	stimuli_distractor_diamondtriangles.svg	22	yes	44	1	366
6.6.1	mac	2022-12-28	00:21:48	00:31:49	599883	60fd021e842d3a8a5a139787	365551011	1	main_z	11	advance_on_keypress_ZEE	108	stimuli_target_trianglesquares.svg	stimuli_distractor_diamondtriangles.svg	22	yes	57	0	474
6.6.1	mac	2022-12-28	00:21:48	00:31:51	601285	60fd021e842d3a8a5a139787	365551011	1	main_z	11	main_z	109	stimuli_distractor_trianglediamonds.svg	stimuli_distractor_diamondtriangles.svg	36	no	44	0	300
6.6.1	mac	2022-12-28	00:21:48	00:31:51	601285	60fd021e842d3a8a5a139787	365551011	1	main_z	11	advance_on_keypress_ZEE	110	stimuli_distractor_trianglediamonds.svg	stimuli_distractor_diamondtriangles.svg	36	no	57	0	543
6.6.1	mac	2022-12-28	00:21:48	00:31:52	602689	60fd021e842d3a8a5a139787	365551011	1	main_z	11	main_z	111	stimuli_distractor_trianglediamonds.svg	stimuli_target_circletriangles.svg	9	yes	44	1	238
6.6.1	mac	2022-12-28	00:21:48	00:31:52	602689	60fd021e842d3a8a5a139787	365551011	1	main_z	11	advance_on_keypress_ZEE	112	stimuli_distractor_trianglediamonds.svg	stimuli_target_circletriangles.svg	9	yes	57	0	456
6.6.1	mac	2022-12-28	00:21:48	00:31:53	604007	60fd021e842d3a8a5a139787	365551011	1	main_z	11	main_z	113	stimuli_target_circletriangles.svg	stimuli_distractor_trianglediamonds.svg	1	yes	44	1	240
6.6.1	mac	2022-12-28	00:21:48	00:31:53	604007	60fd021e842d3a8a5a139787	365551011	1	main_z	11	advance_on_keypress_ZEE	114	stimuli_target_circletriangles.svg	stimuli_distractor_trianglediamonds.svg	1	yes	57	0	417
6.6.1	mac	2022-12-28	00:21:48	00:31:55	605280	60fd021e842d3a8a5a139787	365551011	1	main_z	11	main_z	115	stimuli_distractor_diamondtriangles.svg	stimuli_target_circletriangles.svg	13	yes	44	1	229
6.6.1	mac	2022-12-28	00:21:48	00:31:55	605280	60fd021e842d3a8a5a139787	365551011	1	main_z	11	advance_on_keypress_ZEE	116	stimuli_distractor_diamondtriangles.svg	stimuli_target_circletriangles.svg	13	yes	57	0	450
6.6.1	mac	2022-12-28	00:21:48	00:31:56	606575	60fd021e842d3a8a5a139787	365551011	1	main_z	11	main_z	117	stimuli_distractor_trianglediamonds.svg	stimuli_target_diamondsquares.svg	28	yes	44	1	224
6.6.1	mac	2022-12-28	00:21:48	00:31:56	606575	60fd021e842d3a8a5a139787	365551011	1	main_z	11	advance_on_keypress_ZEE	118	stimuli_distractor_trianglediamonds.svg	stimuli_target_diamondsquares.svg	28	yes	57	0	543
6.6.1	mac	2022-12-28	00:21:48	00:31:57	607966	60fd021e842d3a8a5a139787	365551011	1	main_z	11	main_z	119	stimuli_distractor_trianglediamonds.svg	stimuli_target_trianglesquares.svg	26	yes	44	1	231
6.6.1	mac	2022-12-28	00:21:48	00:31:57	607966	60fd021e842d3a8a5a139787	365551011	1	main_z	11	advance_on_keypress_ZEE	120	stimuli_distractor_trianglediamonds.svg	stimuli_target_trianglesquares.svg	26	yes	57	0	466
6.6.1	mac	2022-12-28	00:21:48	00:31:59	609290	60fd021e842d3a8a5a139787	365551011	1	main_z	11	main_z	121	stimuli_distractor_diamondtriangles.svg	stimuli_distractor_diamondtriangles.svg	39	no	44	0	223
6.6.1	mac	2022-12-28	00:21:48	00:31:59	609290	60fd021e842d3a8a5a139787	365551011	1	main_z	11	advance_on_keypress_ZEE	122	stimuli_distractor_diamondtriangles.svg	stimuli_distractor_diamondtriangles.svg	39	no	57	0	470
6.6.1	mac	2022-12-28	00:21:48	00:32:00	610545	60fd021e842d3a8a5a139787	365551011	1	main_z	11	main_z	123	stimuli_distractor_trianglediamonds.svg	stimuli_target_circlediamonds.svg	10	yes	44	1	161
6.6.1	mac	2022-12-28	00:21:48	00:32:00	610545	60fd021e842d3a8a5a139787	365551011	1	main_z	11	advance_on_keypress_ZEE	124	stimuli_distractor_trianglediamonds.svg	stimuli_target_circlediamonds.svg	10	yes	57	0	395
6.6.1	mac	2022-12-28	00:21:48	00:32:01	611631	60fd021e842d3a8a5a139787	365551011	1	main_z	11	main_z	125	stimuli_target_trianglecircles.svg	stimuli_distractor_diamondtriangles.svg	21	yes	44	1	64
6.6.1	mac	2022-12-28	00:21:48	00:32:01	611631	60fd021e842d3a8a5a139787	365551011	1	main_z	11	advance_on_keypress_ZEE	126	stimuli_target_trianglecircles.svg	stimuli_distractor_diamondtriangles.svg	21	yes	57	0	473
6.6.1	mac	2022-12-28	00:21:48	00:32:02	612918	60fd021e842d3a8a5a139787	365551011	1	main_z	11	main_z	127	stimuli_target_diamondsquares.svg	stimuli_distractor_trianglediamonds.svg	20	yes	44	1	184
6.6.1	mac	2022-12-28	00:21:48	00:32:02	612918	60fd021e842d3a8a5a139787	365551011	1	main_z	11	advance_on_keypress_ZEE	128	stimuli_target_diamondsquares.svg	stimuli_distractor_trianglediamonds.svg	20	yes	57	0	479
6.6.1	mac	2022-12-28	00:21:48	00:32:04	614165	60fd021e842d3a8a5a139787	365551011	1	main_z	11	main_z	129	stimuli_distractor_trianglediamonds.svg	stimuli_distractor_trianglediamonds.svg	33	no	44	0	147
6.6.1	mac	2022-12-28	00:21:48	00:32:04	614165	60fd021e842d3a8a5a139787	365551011	1	main_z	11	advance_on_keypress_ZEE	130	stimuli_distractor_trianglediamonds.svg	stimuli_distractor_trianglediamonds.svg	33	no	57	0	416
6.6.1	mac	2022-12-28	00:21:48	00:32:05	615295	60fd021e842d3a8a5a139787	365551011	1	main_z	11	main_z	131	stimuli_distractor_diamondtriangles.svg	stimuli_target_diamondcircles.svg	31	yes	44	1	78
6.6.1	mac	2022-12-28	00:21:48	00:32:05	615295	60fd021e842d3a8a5a139787	365551011	1	main_z	11	advance_on_keypress_ZEE	132	stimuli_distractor_diamondtriangles.svg	stimuli_target_diamondcircles.svg	31	yes	57	0	447
6.6.1	mac	2022-12-28	00:21:48	00:32:06	616607	60fd021e842d3a8a5a139787	365551011	1	main_z	11	main_z	133	stimuli_target_diamondcircles.svg	stimuli_distractor_diamondtriangles.svg	23	yes	44	1	239
6.6.1	mac	2022-12-28	00:21:48	00:32:06	616607	60fd021e842d3a8a5a139787	365551011	1	main_z	11	advance_on_keypress_ZEE	134	stimuli_target_diamondcircles.svg	stimuli_distractor_diamondtriangles.svg	23	yes	57	0	343
6.6.1	mac	2022-12-28	00:21:48	00:32:07	617809	60fd021e842d3a8a5a139787	365551011	1	main_z	11	main_z	135	stimuli_target_circletriangles.svg	stimuli_distractor_diamondtriangles.svg	5	yes	44	1	241
6.6.1	mac	2022-12-28	00:21:48	00:32:07	617809	60fd021e842d3a8a5a139787	365551011	1	main_z	11	advance_on_keypress_ZEE	136	stimuli_target_circletriangles.svg	stimuli_distractor_diamondtriangles.svg	5	yes	57	0	647
6.6.1	mac	2022-12-28	00:21:48	00:32:09	619338	60fd021e842d3a8a5a139787	365551011	1	main_z	11	main_z	137	stimuli_distractor_trianglediamonds.svg	stimuli_distractor_trianglediamonds.svg	34	no	44	0	254
6.6.1	mac	2022-12-28	00:21:48	00:32:09	619338	60fd021e842d3a8a5a139787	365551011	1	main_z	11	advance_on_keypress_ZEE	138	stimuli_distractor_trianglediamonds.svg	stimuli_distractor_trianglediamonds.svg	34	no	57	0	440
6.6.1	mac	2022-12-28	00:21:48	00:32:10	620625	60fd021e842d3a8a5a139787	365551011	1	main_z	11	main_z	139	stimuli_distractor_diamondtriangles.svg	stimuli_distractor_diamondtriangles.svg	40	no	44	0	223
6.6.1	mac	2022-12-28	00:21:48	00:32:10	620625	60fd021e842d3a8a5a139787	365551011	1	main_z	11	advance_on_keypress_ZEE	140	stimuli_distractor_diamondtriangles.svg	stimuli_distractor_diamondtriangles.svg	40	no	57	0	349
6.6.1	mac	2022-12-28	00:21:48	00:32:11	621946	60fd021e842d3a8a5a139787	365551011	1	main_z	11	main_z	141	stimuli_distractor_trianglediamonds.svg	stimuli_target_squaretriangles.svg	11	yes	44	1	344
6.6.1	mac	2022-12-28	00:21:48	00:32:11	621946	60fd021e842d3a8a5a139787	365551011	1	main_z	11	advance_on_keypress_ZEE	142	stimuli_distractor_trianglediamonds.svg	stimuli_target_squaretriangles.svg	11	yes	57	0	428
6.6.1	mac	2022-12-28	00:21:48	00:32:13	623252	60fd021e842d3a8a5a139787	365551011	1	main_z	11	main_z	143	stimuli_distractor_trianglediamonds.svg	stimuli_target_trianglecircles.svg	25	yes	44	1	267
6.6.1	mac	2022-12-28	00:21:48	00:32:13	623252	60fd021e842d3a8a5a139787	365551011	1	main_z	11	advance_on_keypress_ZEE	144	stimuli_distractor_trianglediamonds.svg	stimuli_target_trianglecircles.svg	25	yes	57	0	388
6.6.1	mac	2022-12-28	00:21:48	00:32:14	624606	60fd021e842d3a8a5a139787	365551011	1	main_z	11	main_z	145	stimuli_target_squarediamonds.svg	stimuli_distractor_trianglediamonds.svg	4	yes	44	1	338
6.6.1	mac	2022-12-28	00:21:48	00:32:14	624606	60fd021e842d3a8a5a139787	365551011	1	main_z	11	advance_on_keypress_ZEE	146	stimuli_target_squarediamonds.svg	stimuli_distractor_trianglediamonds.svg	4	yes	57	0	386
6.6.1	mac	2022-12-28	00:21:48	00:32:15	625849	60fd021e842d3a8a5a139787	365551011	1	main_z	11	main_z	147	stimuli_distractor_trianglediamonds.svg	stimuli_target_squarediamonds.svg	12	yes	44	1	231
6.6.1	mac	2022-12-28	00:21:48	00:32:15	625849	60fd021e842d3a8a5a139787	365551011	1	main_z	11	advance_on_keypress_ZEE	148	stimuli_distractor_trianglediamonds.svg	stimuli_target_squarediamonds.svg	12	yes	57	0	667
6.6.1	mac	2022-12-28	00:21:48	00:32:17	627428	60fd021e842d3a8a5a139787	365551011	1	main_z	11	main_z	149	stimuli_distractor_trianglediamonds.svg	stimuli_target_diamondcircles.svg	27	yes	44	1	276
6.6.1	mac	2022-12-28	00:21:48	00:32:17	627428	60fd021e842d3a8a5a139787	365551011	1	main_z	11	advance_on_keypress_ZEE	150	stimuli_distractor_trianglediamonds.svg	stimuli_target_diamondcircles.svg	27	yes	57	0	408
6.6.1	mac	2022-12-28	00:21:48	00:32:18	628687	60fd021e842d3a8a5a139787	365551011	1	main_z	11	main_z	151	stimuli_target_diamondcircles.svg	stimuli_distractor_trianglediamonds.svg	19	yes	44	1	235
6.6.1	mac	2022-12-28	00:21:48	00:32:18	628687	60fd021e842d3a8a5a139787	365551011	1	main_z	11	advance_on_keypress_ZEE	152	stimuli_target_diamondcircles.svg	stimuli_distractor_trianglediamonds.svg	19	yes	57	0	388
6.6.1	mac	2022-12-28	00:21:48	00:32:19	629951	60fd021e842d3a8a5a139787	365551011	1	main_z	11	main_z	153	stimuli_target_diamondsquares.svg	stimuli_distractor_diamondtriangles.svg	24	yes	44	1	249
6.6.1	mac	2022-12-28	00:21:48	00:32:19	629951	60fd021e842d3a8a5a139787	365551011	1	main_z	11	advance_on_keypress_ZEE	154	stimuli_target_diamondsquares.svg	stimuli_distractor_diamondtriangles.svg	24	yes	57	0	417
6.6.1	mac	2022-12-28	00:21:48	00:32:21	631245	60fd021e842d3a8a5a139787	365551011	1	main_z	11	main_z	155	stimuli_distractor_diamondtriangles.svg	stimuli_target_diamondsquares.svg	32	yes	44	1	243
6.6.1	mac	2022-12-28	00:21:48	00:32:21	631245	60fd021e842d3a8a5a139787	365551011	1	main_z	11	advance_on_keypress_ZEE	156	stimuli_distractor_diamondtriangles.svg	stimuli_target_diamondsquares.svg	32	yes	57	0	407
6.6.1	mac	2022-12-28	00:21:48	00:32:22	632563	60fd021e842d3a8a5a139787	365551011	1	main_z	11	main_z	157	stimuli_distractor_diamondtriangles.svg	stimuli_target_circlediamonds.svg	14	yes	44	1	295
6.6.1	mac	2022-12-28	00:21:48	00:32:22	632563	60fd021e842d3a8a5a139787	365551011	1	main_z	11	advance_on_keypress_ZEE	158	stimuli_distractor_diamondtriangles.svg	stimuli_target_circlediamonds.svg	14	yes	57	0	433
6.6.1	mac	2022-12-28	00:21:48	00:32:23	633792	60fd021e842d3a8a5a139787	365551011	1	main_z	11	main_z	159	stimuli_distractor_diamondtriangles.svg	stimuli_target_trianglecircles.svg	29	yes	44	1	175
6.6.1	mac	2022-12-28	00:21:48	00:32:23	633792	60fd021e842d3a8a5a139787	365551011	1	main_z	11	advance_on_keypress_ZEE	160	stimuli_distractor_diamondtriangles.svg	stimuli_target_trianglecircles.svg	29	yes	57	0	334