build	computer.platform	date	time	timestamp	time_elapsed_ms	subject	group	session	blockcode	blocknum	trialcode	trialnum	stimulus_left	stimulus_right	stim_index	target_present	response	correct	latency
6.6.1	win	2022-12-14	19:20:32	19:24:58	263910	630dd0429f7ec338d28e2de1	314521415	1	practice_slash	5	practice_slash	1	stimuli_target_squarediamonds.svg	stimuli_distractor_diamondtriangles.svg	2	yes	0	0	2000
6.6.1	win	2022-12-14	19:20:32	19:24:58	263910	630dd0429f7ec338d28e2de1	314521415	1	practice_slash	5	advance_on_keypress_SLASH	2	stimuli_target_squarediamonds.svg	stimuli_distractor_diamondtriangles.svg	2	yes	57	0	1218
6.6.1	win	2022-12-14	19:20:32	19:25:02	267400	630dd0429f7ec338d28e2de1	314521415	1	practice_slash	5	practice_slash	3	stimuli_target_circlediamonds.svg	stimuli_distractor_trianglediamonds.svg	4	yes	53	1	551
6.6.1	win	2022-12-14	19:20:32	19:25:02	267400	630dd0429f7ec338d28e2de1	314521415	1	practice_slash	5	advance_on_keypress_SLASH	4	stimuli_target_circlediamonds.svg	stimuli_distractor_trianglediamonds.svg	4	yes	57	0	2089
6.6.1	win	2022-12-14	19:20:32	19:25:07	273146	630dd0429f7ec338d28e2de1	314521415	1	practice_slash	5	practice_slash	5	stimuli_distractor_diamondtriangles.svg	stimuli_distractor_trianglediamonds.svg	14	no	0	1	2000
6.6.1	win	2022-12-14	19:20:32	19:25:07	273146	630dd0429f7ec338d28e2de1	314521415	1	practice_slash	5	advance_on_keypress_SLASH	6	stimuli_distractor_diamondtriangles.svg	stimuli_distractor_trianglediamonds.svg	14	no	57	0	956
6.6.1	win	2022-12-14	19:20:32	19:25:11	276518	630dd0429f7ec338d28e2de1	314521415	1	practice_slash	5	practice_slash	7	stimuli_distractor_diamondtriangles.svg	stimuli_target_circletriangles.svg	7	yes	53	1	747
6.6.1	win	2022-12-14	19:20:32	19:25:11	276518	630dd0429f7ec338d28e2de1	314521415	1	practice_slash	5	advance_on_keypress_SLASH	8	stimuli_distractor_diamondtriangles.svg	stimuli_target_circletriangles.svg	7	yes	57	0	1226
6.6.1	win	2022-12-14	19:20:32	19:25:14	280316	630dd0429f7ec338d28e2de1	314521415	1	practice_slash	5	practice_slash	9	stimuli_distractor_trianglediamonds.svg	stimuli_target_circlediamonds.svg	10	yes	53	1	902
6.6.1	win	2022-12-14	19:20:32	19:25:14	280316	630dd0429f7ec338d28e2de1	314521415	1	practice_slash	5	advance_on_keypress_SLASH	10	stimuli_distractor_trianglediamonds.svg	stimuli_target_circlediamonds.svg	10	yes	57	0	1452
6.6.1	win	2022-12-14	19:20:32	19:25:18	284169	630dd0429f7ec338d28e2de1	314521415	1	practice_slash	5	practice_slash	11	stimuli_distractor_diamondtriangles.svg	stimuli_target_trianglecircles.svg	9	yes	53	1	749
6.6.1	win	2022-12-14	19:20:32	19:25:18	284169	630dd0429f7ec338d28e2de1	314521415	1	practice_slash	5	advance_on_keypress_SLASH	12	stimuli_distractor_diamondtriangles.svg	stimuli_target_trianglecircles.svg	9	yes	57	0	1097
6.6.1	win	2022-12-14	19:20:32	19:25:23	288931	630dd0429f7ec338d28e2de1	314521415	1	practice_slash	5	practice_slash	13	stimuli_distractor_trianglediamonds.svg	stimuli_distractor_trianglediamonds.svg	15	no	0	1	2000
6.6.1	win	2022-12-14	19:20:32	19:25:23	288931	630dd0429f7ec338d28e2de1	314521415	1	practice_slash	5	advance_on_keypress_SLASH	14	stimuli_distractor_trianglediamonds.svg	stimuli_distractor_trianglediamonds.svg	15	no	57	0	2253
6.6.1	win	2022-12-14	19:20:32	19:25:29	294843	630dd0429f7ec338d28e2de1	314521415	1	practice_slash	5	practice_slash	15	stimuli_target_diamondsquares.svg	stimuli_distractor_trianglediamonds.svg	6	yes	0	0	2000
6.6.1	win	2022-12-14	19:20:32	19:25:29	294843	630dd0429f7ec338d28e2de1	314521415	1	practice_slash	5	advance_on_keypress_SLASH	16	stimuli_target_diamondsquares.svg	stimuli_distractor_trianglediamonds.svg	6	yes	57	0	2032
6.6.1	win	2022-12-14	19:20:32	19:25:34	299546	630dd0429f7ec338d28e2de1	314521415	1	practice_slash	5	practice_slash	17	stimuli_distractor_trianglediamonds.svg	stimuli_target_squarediamonds.svg	11	yes	53	1	1006
6.6.1	win	2022-12-14	19:20:32	19:25:34	299546	630dd0429f7ec338d28e2de1	314521415	1	practice_slash	5	advance_on_keypress_SLASH	18	stimuli_distractor_trianglediamonds.svg	stimuli_target_squarediamonds.svg	11	yes	57	0	932
6.6.1	win	2022-12-14	19:20:32	19:25:37	302854	630dd0429f7ec338d28e2de1	314521415	1	practice_slash	5	practice_slash	19	stimuli_target_diamondsquares.svg	stimuli_distractor_diamondtriangles.svg	3	yes	53	1	725
6.6.1	win	2022-12-14	19:20:32	19:25:37	302854	630dd0429f7ec338d28e2de1	314521415	1	practice_slash	5	advance_on_keypress_SLASH	20	stimuli_target_diamondsquares.svg	stimuli_distractor_diamondtriangles.svg	3	yes	57	0	683
6.6.1	win	2022-12-14	19:20:32	19:25:40	305812	630dd0429f7ec338d28e2de1	314521415	1	practice_slash	5	practice_slash	21	stimuli_target_circlediamonds.svg	stimuli_distractor_diamondtriangles.svg	1	yes	53	1	626
6.6.1	win	2022-12-14	19:20:32	19:25:40	305812	630dd0429f7ec338d28e2de1	314521415	1	practice_slash	5	advance_on_keypress_SLASH	22	stimuli_target_circlediamonds.svg	stimuli_distractor_diamondtriangles.svg	1	yes	57	0	1653
6.6.1	win	2022-12-14	19:20:32	19:25:44	310054	630dd0429f7ec338d28e2de1	314521415	1	practice_slash	5	practice_slash	23	stimuli_distractor_trianglediamonds.svg	stimuli_distractor_diamondtriangles.svg	16	no	53	0	941
6.6.1	win	2022-12-14	19:20:32	19:25:44	310054	630dd0429f7ec338d28e2de1	314521415	1	practice_slash	5	advance_on_keypress_SLASH	24	stimuli_distractor_trianglediamonds.svg	stimuli_distractor_diamondtriangles.svg	16	no	57	0	793
6.6.1	win	2022-12-14	19:20:32	19:25:47	313039	630dd0429f7ec338d28e2de1	314521415	1	practice_slash	5	practice_slash	25	stimuli_distractor_diamondtriangles.svg	stimuli_target_diamondcircles.svg	8	yes	53	1	538
6.6.1	win	2022-12-14	19:20:32	19:25:47	313039	630dd0429f7ec338d28e2de1	314521415	1	practice_slash	5	advance_on_keypress_SLASH	26	stimuli_distractor_diamondtriangles.svg	stimuli_target_diamondcircles.svg	8	yes	57	0	882
6.6.1	win	2022-12-14	19:20:32	19:25:52	317578	630dd0429f7ec338d28e2de1	314521415	1	practice_slash	5	practice_slash	27	stimuli_distractor_diamondtriangles.svg	stimuli_distractor_diamondtriangles.svg	13	no	0	1	2000
6.6.1	win	2022-12-14	19:20:32	19:25:52	317578	630dd0429f7ec338d28e2de1	314521415	1	practice_slash	5	advance_on_keypress_SLASH	28	stimuli_distractor_diamondtriangles.svg	stimuli_distractor_diamondtriangles.svg	13	no	57	0	13
6.6.1	win	2022-12-14	19:20:32	19:25:54	319934	630dd0429f7ec338d28e2de1	314521415	1	practice_slash	5	practice_slash	29	stimuli_distractor_trianglediamonds.svg	stimuli_target_diamondcircles.svg	12	yes	53	1	685
6.6.1	win	2022-12-14	19:20:32	19:25:54	319934	630dd0429f7ec338d28e2de1	314521415	1	practice_slash	5	advance_on_keypress_SLASH	30	stimuli_distractor_trianglediamonds.svg	stimuli_target_diamondcircles.svg	12	yes	57	0	1302
6.6.1	win	2022-12-14	19:20:32	19:25:58	323437	630dd0429f7ec338d28e2de1	314521415	1	practice_slash	5	practice_slash	31	stimuli_target_squarediamonds.svg	stimuli_distractor_trianglediamonds.svg	5	yes	53	1	546
6.6.1	win	2022-12-14	19:20:32	19:25:58	323437	630dd0429f7ec338d28e2de1	314521415	1	practice_slash	5	advance_on_keypress_SLASH	32	stimuli_target_squarediamonds.svg	stimuli_distractor_trianglediamonds.svg	5	yes	57	0	721
6.6.1	win	2022-12-14	19:20:32	19:27:11	396955	630dd0429f7ec338d28e2de1	314521415	1	main_slash	7	main_slash	1	stimuli_distractor_trianglediamonds.svg	stimuli_target_circlediamonds.svg	10	yes	53	1	320
6.6.1	win	2022-12-14	19:20:32	19:27:11	396955	630dd0429f7ec338d28e2de1	314521415	1	main_slash	7	advance_on_keypress_SLASH	2	stimuli_distractor_trianglediamonds.svg	stimuli_target_circlediamonds.svg	10	yes	57	0	1701
6.6.1	win	2022-12-14	19:20:32	19:27:14	399640	630dd0429f7ec338d28e2de1	314521415	1	main_slash	7	main_slash	3	stimuli_distractor_diamondtriangles.svg	stimuli_target_circlediamonds.svg	14	yes	53	1	332
6.6.1	win	2022-12-14	19:20:32	19:27:14	399640	630dd0429f7ec338d28e2de1	314521415	1	main_slash	7	advance_on_keypress_SLASH	4	stimuli_distractor_diamondtriangles.svg	stimuli_target_circlediamonds.svg	14	yes	57	0	1131
6.6.1	win	2022-12-14	19:20:32	19:27:18	403432	630dd0429f7ec338d28e2de1	314521415	1	main_slash	7	main_slash	5	stimuli_distractor_trianglediamonds.svg	stimuli_distractor_trianglediamonds.svg	34	no	0	1	2000
6.6.1	win	2022-12-14	19:20:32	19:27:18	403432	630dd0429f7ec338d28e2de1	314521415	1	main_slash	7	advance_on_keypress_SLASH	6	stimuli_distractor_trianglediamonds.svg	stimuli_distractor_trianglediamonds.svg	34	no	57	0	529
6.6.1	win	2022-12-14	19:20:32	19:27:20	406204	630dd0429f7ec338d28e2de1	314521415	1	main_slash	7	main_slash	7	stimuli_target_diamondcircles.svg	stimuli_distractor_trianglediamonds.svg	19	yes	53	1	1597
6.6.1	win	2022-12-14	19:20:32	19:27:20	406204	630dd0429f7ec338d28e2de1	314521415	1	main_slash	7	advance_on_keypress_SLASH	8	stimuli_target_diamondcircles.svg	stimuli_distractor_trianglediamonds.svg	19	yes	57	0	874
6.6.1	win	2022-12-14	19:20:32	19:27:22	408349	630dd0429f7ec338d28e2de1	314521415	1	main_slash	7	main_slash	9	stimuli_target_diamondcircles.svg	stimuli_distractor_diamondtriangles.svg	23	yes	53	1	623
6.6.1	win	2022-12-14	19:20:32	19:27:22	408349	630dd0429f7ec338d28e2de1	314521415	1	main_slash	7	advance_on_keypress_SLASH	10	stimuli_target_diamondcircles.svg	stimuli_distractor_diamondtriangles.svg	23	yes	57	0	896
6.6.1	win	2022-12-14	19:20:32	19:27:25	410479	630dd0429f7ec338d28e2de1	314521415	1	main_slash	7	main_slash	11	stimuli_target_squaretriangles.svg	stimuli_distractor_trianglediamonds.svg	3	yes	53	1	581
6.6.1	win	2022-12-14	19:20:32	19:27:25	410479	630dd0429f7ec338d28e2de1	314521415	1	main_slash	7	advance_on_keypress_SLASH	12	stimuli_target_squaretriangles.svg	stimuli_distractor_trianglediamonds.svg	3	yes	57	0	1038
6.6.1	win	2022-12-14	19:20:32	19:27:27	412729	630dd0429f7ec338d28e2de1	314521415	1	main_slash	7	main_slash	13	stimuli_target_diamondsquares.svg	stimuli_distractor_trianglediamonds.svg	20	yes	53	1	561
6.6.1	win	2022-12-14	19:20:32	19:27:27	412729	630dd0429f7ec338d28e2de1	314521415	1	main_slash	7	advance_on_keypress_SLASH	14	stimuli_target_diamondsquares.svg	stimuli_distractor_trianglediamonds.svg	20	yes	57	0	1262
6.6.1	win	2022-12-14	19:20:32	19:27:29	415050	630dd0429f7ec338d28e2de1	314521415	1	main_slash	7	main_slash	15	stimuli_target_trianglecircles.svg	stimuli_distractor_trianglediamonds.svg	17	yes	53	1	410
6.6.1	win	2022-12-14	19:20:32	19:27:29	415050	630dd0429f7ec338d28e2de1	314521415	1	main_slash	7	advance_on_keypress_SLASH	16	stimuli_target_trianglecircles.svg	stimuli_distractor_trianglediamonds.svg	17	yes	57	0	879
6.6.1	win	2022-12-14	19:20:32	19:27:31	417081	630dd0429f7ec338d28e2de1	314521415	1	main_slash	7	main_slash	17	stimuli_target_squarediamonds.svg	stimuli_distractor_trianglediamonds.svg	4	yes	53	1	502
6.6.1	win	2022-12-14	19:20:32	19:27:31	417081	630dd0429f7ec338d28e2de1	314521415	1	main_slash	7	advance_on_keypress_SLASH	18	stimuli_target_squarediamonds.svg	stimuli_distractor_trianglediamonds.svg	4	yes	57	0	1606
6.6.1	win	2022-12-14	19:20:32	19:27:34	419764	630dd0429f7ec338d28e2de1	314521415	1	main_slash	7	main_slash	19	stimuli_distractor_trianglediamonds.svg	stimuli_target_squarediamonds.svg	12	yes	53	1	429
6.6.1	win	2022-12-14	19:20:32	19:27:34	419764	630dd0429f7ec338d28e2de1	314521415	1	main_slash	7	advance_on_keypress_SLASH	20	stimuli_distractor_trianglediamonds.svg	stimuli_target_squarediamonds.svg	12	yes	57	0	1033
6.6.1	win	2022-12-14	19:20:32	19:27:36	421803	630dd0429f7ec338d28e2de1	314521415	1	main_slash	7	main_slash	21	stimuli_distractor_diamondtriangles.svg	stimuli_target_trianglesquares.svg	30	yes	53	1	363
6.6.1	win	2022-12-14	19:20:32	19:27:36	421803	630dd0429f7ec338d28e2de1	314521415	1	main_slash	7	advance_on_keypress_SLASH	22	stimuli_distractor_diamondtriangles.svg	stimuli_target_trianglesquares.svg	30	yes	57	0	1710
6.6.1	win	2022-12-14	19:20:32	19:27:39	424531	630dd0429f7ec338d28e2de1	314521415	1	main_slash	7	main_slash	23	stimuli_target_circletriangles.svg	stimuli_distractor_diamondtriangles.svg	5	yes	53	1	382
6.6.1	win	2022-12-14	19:20:32	19:27:39	424531	630dd0429f7ec338d28e2de1	314521415	1	main_slash	7	advance_on_keypress_SLASH	24	stimuli_target_circletriangles.svg	stimuli_distractor_diamondtriangles.svg	5	yes	57	0	1625
6.6.1	win	2022-12-14	19:20:32	19:27:42	427395	630dd0429f7ec338d28e2de1	314521415	1	main_slash	7	main_slash	25	stimuli_distractor_trianglediamonds.svg	stimuli_target_diamondcircles.svg	27	yes	53	1	593
6.6.1	win	2022-12-14	19:20:32	19:27:42	427395	630dd0429f7ec338d28e2de1	314521415	1	main_slash	7	advance_on_keypress_SLASH	26	stimuli_distractor_trianglediamonds.svg	stimuli_target_diamondcircles.svg	27	yes	57	0	1343
6.6.1	win	2022-12-14	19:20:32	19:27:44	429759	630dd0429f7ec338d28e2de1	314521415	1	main_slash	7	main_slash	27	stimuli_distractor_diamondtriangles.svg	stimuli_target_diamondsquares.svg	32	yes	53	1	382
6.6.1	win	2022-12-14	19:20:32	19:27:44	429759	630dd0429f7ec338d28e2de1	314521415	1	main_slash	7	advance_on_keypress_SLASH	28	stimuli_distractor_diamondtriangles.svg	stimuli_target_diamondsquares.svg	32	yes	57	0	1578
6.6.1	win	2022-12-14	19:20:32	19:27:47	432878	630dd0429f7ec338d28e2de1	314521415	1	main_slash	7	main_slash	29	stimuli_distractor_trianglediamonds.svg	stimuli_distractor_diamondtriangles.svg	35	no	53	0	879
6.6.1	win	2022-12-14	19:20:32	19:27:47	432878	630dd0429f7ec338d28e2de1	314521415	1	main_slash	7	advance_on_keypress_SLASH	30	stimuli_distractor_trianglediamonds.svg	stimuli_distractor_diamondtriangles.svg	35	no	57	0	732
6.6.1	win	2022-12-14	19:20:32	19:27:49	434653	630dd0429f7ec338d28e2de1	314521415	1	main_slash	7	main_slash	31	stimuli_distractor_diamondtriangles.svg	stimuli_distractor_trianglediamonds.svg	38	no	53	0	373
6.6.1	win	2022-12-14	19:20:32	19:27:49	434653	630dd0429f7ec338d28e2de1	314521415	1	main_slash	7	advance_on_keypress_SLASH	32	stimuli_distractor_diamondtriangles.svg	stimuli_distractor_trianglediamonds.svg	38	no	57	0	1404
6.6.1	win	2022-12-14	19:20:32	19:27:53	438709	630dd0429f7ec338d28e2de1	314521415	1	main_slash	7	main_slash	33	stimuli_distractor_diamondtriangles.svg	stimuli_distractor_diamondtriangles.svg	40	no	0	1	2000
6.6.1	win	2022-12-14	19:20:32	19:27:53	438709	630dd0429f7ec338d28e2de1	314521415	1	main_slash	7	advance_on_keypress_SLASH	34	stimuli_distractor_diamondtriangles.svg	stimuli_distractor_diamondtriangles.svg	40	no	57	0	394
6.6.1	win	2022-12-14	19:20:32	19:27:54	440266	630dd0429f7ec338d28e2de1	314521415	1	main_slash	7	main_slash	35	stimuli_distractor_diamondtriangles.svg	stimuli_target_squaretriangles.svg	15	yes	53	1	515
6.6.1	win	2022-12-14	19:20:32	19:27:54	440266	630dd0429f7ec338d28e2de1	314521415	1	main_slash	7	advance_on_keypress_SLASH	36	stimuli_distractor_diamondtriangles.svg	stimuli_target_squaretriangles.svg	15	yes	57	0	717
6.6.1	win	2022-12-14	19:20:32	19:27:58	443638	630dd0429f7ec338d28e2de1	314521415	1	main_slash	7	main_slash	37	stimuli_distractor_trianglediamonds.svg	stimuli_distractor_trianglediamonds.svg	33	no	0	1	2000
6.6.1	win	2022-12-14	19:20:32	19:27:58	443638	630dd0429f7ec338d28e2de1	314521415	1	main_slash	7	advance_on_keypress_SLASH	38	stimuli_distractor_trianglediamonds.svg	stimuli_distractor_trianglediamonds.svg	33	no	57	0	340
6.6.1	win	2022-12-14	19:20:32	19:27:59	445036	630dd0429f7ec338d28e2de1	314521415	1	main_slash	7	main_slash	39	stimuli_target_diamondsquares.svg	stimuli_distractor_diamondtriangles.svg	24	yes	53	1	413
6.6.1	win	2022-12-14	19:20:32	19:27:59	445036	630dd0429f7ec338d28e2de1	314521415	1	main_slash	7	advance_on_keypress_SLASH	40	stimuli_target_diamondsquares.svg	stimuli_distractor_diamondtriangles.svg	24	yes	57	0	1347
6.6.1	win	2022-12-14	19:20:32	19:28:03	449016	630dd0429f7ec338d28e2de1	314521415	1	main_slash	7	main_slash	41	stimuli_distractor_trianglediamonds.svg	stimuli_distractor_diamondtriangles.svg	36	no	0	1	2000
6.6.1	win	2022-12-14	19:20:32	19:28:03	449016	630dd0429f7ec338d28e2de1	314521415	1	main_slash	7	advance_on_keypress_SLASH	42	stimuli_distractor_trianglediamonds.svg	stimuli_distractor_diamondtriangles.svg	36	no	57	0	331
6.6.1	win	2022-12-14	19:20:32	19:28:04	450356	630dd0429f7ec338d28e2de1	314521415	1	main_slash	7	main_slash	43	stimuli_distractor_diamondtriangles.svg	stimuli_target_squarediamonds.svg	16	yes	53	1	353
6.6.1	win	2022-12-14	19:20:32	19:28:04	450356	630dd0429f7ec338d28e2de1	314521415	1	main_slash	7	advance_on_keypress_SLASH	44	stimuli_distractor_diamondtriangles.svg	stimuli_target_squarediamonds.svg	16	yes	57	0	832
6.6.1	win	2022-12-14	19:20:32	19:28:06	452232	630dd0429f7ec338d28e2de1	314521415	1	main_slash	7	main_slash	45	stimuli_distractor_trianglediamonds.svg	stimuli_target_squaretriangles.svg	11	yes	53	1	392
6.6.1	win	2022-12-14	19:20:32	19:28:06	452232	630dd0429f7ec338d28e2de1	314521415	1	main_slash	7	advance_on_keypress_SLASH	46	stimuli_distractor_trianglediamonds.svg	stimuli_target_squaretriangles.svg	11	yes	57	0	616
6.6.1	win	2022-12-14	19:20:32	19:28:08	453979	630dd0429f7ec338d28e2de1	314521415	1	main_slash	7	main_slash	47	stimuli_distractor_trianglediamonds.svg	stimuli_target_trianglecircles.svg	25	yes	53	1	485
6.6.1	win	2022-12-14	19:20:32	19:28:08	453979	630dd0429f7ec338d28e2de1	314521415	1	main_slash	7	advance_on_keypress_SLASH	48	stimuli_distractor_trianglediamonds.svg	stimuli_target_trianglecircles.svg	25	yes	57	0	578
6.6.1	win	2022-12-14	19:20:32	19:28:11	457217	630dd0429f7ec338d28e2de1	314521415	1	main_slash	7	main_slash	49	stimuli_distractor_diamondtriangles.svg	stimuli_distractor_diamondtriangles.svg	39	no	0	1	2000
6.6.1	win	2022-12-14	19:20:32	19:28:11	457217	630dd0429f7ec338d28e2de1	314521415	1	main_slash	7	advance_on_keypress_SLASH	50	stimuli_distractor_diamondtriangles.svg	stimuli_distractor_diamondtriangles.svg	39	no	57	0	427
6.6.1	win	2022-12-14	19:20:32	19:28:13	458652	630dd0429f7ec338d28e2de1	314521415	1	main_slash	7	main_slash	51	stimuli_target_trianglecircles.svg	stimuli_distractor_diamondtriangles.svg	21	yes	53	1	364
6.6.1	win	2022-12-14	19:20:32	19:28:13	458652	630dd0429f7ec338d28e2de1	314521415	1	main_slash	7	advance_on_keypress_SLASH	52	stimuli_target_trianglecircles.svg	stimuli_distractor_diamondtriangles.svg	21	yes	57	0	645
6.6.1	win	2022-12-14	19:20:32	19:28:15	460418	630dd0429f7ec338d28e2de1	314521415	1	main_slash	7	main_slash	53	stimuli_distractor_diamondtriangles.svg	stimuli_target_circletriangles.svg	13	yes	53	1	460
6.6.1	win	2022-12-14	19:20:32	19:28:15	460418	630dd0429f7ec338d28e2de1	314521415	1	main_slash	7	advance_on_keypress_SLASH	54	stimuli_distractor_diamondtriangles.svg	stimuli_target_circletriangles.svg	13	yes	57	0	556
6.6.1	win	2022-12-14	19:20:32	19:28:16	462145	630dd0429f7ec338d28e2de1	314521415	1	main_slash	7	main_slash	55	stimuli_distractor_diamondtriangles.svg	stimuli_target_diamondcircles.svg	31	yes	53	1	532
6.6.1	win	2022-12-14	19:20:32	19:28:16	462145	630dd0429f7ec338d28e2de1	314521415	1	main_slash	7	advance_on_keypress_SLASH	56	stimuli_distractor_diamondtriangles.svg	stimuli_target_diamondcircles.svg	31	yes	57	0	647
6.6.1	win	2022-12-14	19:20:32	19:28:18	463861	630dd0429f7ec338d28e2de1	314521415	1	main_slash	7	main_slash	57	stimuli_distractor_diamondtriangles.svg	stimuli_target_trianglecircles.svg	29	yes	53	1	412
6.6.1	win	2022-12-14	19:20:32	19:28:18	463861	630dd0429f7ec338d28e2de1	314521415	1	main_slash	7	advance_on_keypress_SLASH	58	stimuli_distractor_diamondtriangles.svg	stimuli_target_trianglecircles.svg	29	yes	57	0	487
6.6.1	win	2022-12-14	19:20:32	19:28:20	465425	630dd0429f7ec338d28e2de1	314521415	1	main_slash	7	main_slash	59	stimuli_target_circlediamonds.svg	stimuli_distractor_diamondtriangles.svg	6	yes	53	1	439
6.6.1	win	2022-12-14	19:20:32	19:28:20	465425	630dd0429f7ec338d28e2de1	314521415	1	main_slash	7	advance_on_keypress_SLASH	60	stimuli_target_circlediamonds.svg	stimuli_distractor_diamondtriangles.svg	6	yes	57	0	451
6.6.1	win	2022-12-14	19:20:32	19:28:21	467039	630dd0429f7ec338d28e2de1	314521415	1	main_slash	7	main_slash	61	stimuli_target_squarediamonds.svg	stimuli_distractor_diamondtriangles.svg	8	yes	53	1	516
6.6.1	win	2022-12-14	19:20:32	19:28:21	467039	630dd0429f7ec338d28e2de1	314521415	1	main_slash	7	advance_on_keypress_SLASH	62	stimuli_target_squarediamonds.svg	stimuli_distractor_diamondtriangles.svg	8	yes	57	0	667
6.6.1	win	2022-12-14	19:20:32	19:28:23	468805	630dd0429f7ec338d28e2de1	314521415	1	main_slash	7	main_slash	63	stimuli_target_squaretriangles.svg	stimuli_distractor_diamondtriangles.svg	7	yes	53	1	445
6.6.1	win	2022-12-14	19:20:32	19:28:23	468805	630dd0429f7ec338d28e2de1	314521415	1	main_slash	7	advance_on_keypress_SLASH	64	stimuli_target_squaretriangles.svg	stimuli_distractor_diamondtriangles.svg	7	yes	57	0	620
6.6.1	win	2022-12-14	19:20:32	19:28:25	470855	630dd0429f7ec338d28e2de1	314521415	1	main_slash	7	main_slash	65	stimuli_target_trianglesquares.svg	stimuli_distractor_trianglediamonds.svg	18	yes	53	1	791
6.6.1	win	2022-12-14	19:20:32	19:28:25	470855	630dd0429f7ec338d28e2de1	314521415	1	main_slash	7	advance_on_keypress_SLASH	66	stimuli_target_trianglesquares.svg	stimuli_distractor_trianglediamonds.svg	18	yes	57	0	543
6.6.1	win	2022-12-14	19:20:32	19:28:28	474054	630dd0429f7ec338d28e2de1	314521415	1	main_slash	7	main_slash	67	stimuli_distractor_diamondtriangles.svg	stimuli_distractor_trianglediamonds.svg	37	no	0	1	2000
6.6.1	win	2022-12-14	19:20:32	19:28:28	474054	630dd0429f7ec338d28e2de1	314521415	1	main_slash	7	advance_on_keypress_SLASH	68	stimuli_distractor_diamondtriangles.svg	stimuli_distractor_trianglediamonds.svg	37	no	57	0	354
6.6.1	win	2022-12-14	19:20:32	19:28:29	475356	630dd0429f7ec338d28e2de1	314521415	1	main_slash	7	main_slash	69	stimuli_distractor_trianglediamonds.svg	stimuli_target_diamondsquares.svg	28	yes	53	1	298
6.6.1	win	2022-12-14	19:20:32	19:28:29	475356	630dd0429f7ec338d28e2de1	314521415	1	main_slash	7	advance_on_keypress_SLASH	70	stimuli_distractor_trianglediamonds.svg	stimuli_target_diamondsquares.svg	28	yes	57	0	1624
6.6.1	win	2022-12-14	19:20:32	19:28:32	478081	630dd0429f7ec338d28e2de1	314521415	1	main_slash	7	main_slash	71	stimuli_target_circletriangles.svg	stimuli_distractor_trianglediamonds.svg	1	yes	53	1	451
6.6.1	win	2022-12-14	19:20:32	19:28:32	478081	630dd0429f7ec338d28e2de1	314521415	1	main_slash	7	advance_on_keypress_SLASH	72	stimuli_target_circletriangles.svg	stimuli_distractor_trianglediamonds.svg	1	yes	57	0	475
6.6.1	win	2022-12-14	19:20:32	19:28:34	479848	630dd0429f7ec338d28e2de1	314521415	1	main_slash	7	main_slash	73	stimuli_distractor_trianglediamonds.svg	stimuli_target_trianglesquares.svg	26	yes	53	1	647
6.6.1	win	2022-12-14	19:20:32	19:28:34	479848	630dd0429f7ec338d28e2de1	314521415	1	main_slash	7	advance_on_keypress_SLASH	74	stimuli_distractor_trianglediamonds.svg	stimuli_target_trianglesquares.svg	26	yes	57	0	600
6.6.1	win	2022-12-14	19:20:32	19:28:36	481603	630dd0429f7ec338d28e2de1	314521415	1	main_slash	7	main_slash	75	stimuli_target_circlediamonds.svg	stimuli_distractor_trianglediamonds.svg	2	yes	53	1	516
6.6.1	win	2022-12-14	19:20:32	19:28:36	481603	630dd0429f7ec338d28e2de1	314521415	1	main_slash	7	advance_on_keypress_SLASH	76	stimuli_target_circlediamonds.svg	stimuli_distractor_trianglediamonds.svg	2	yes	57	0	475
6.6.1	win	2022-12-14	19:20:32	19:28:38	483420	630dd0429f7ec338d28e2de1	314521415	1	main_slash	7	main_slash	77	stimuli_target_trianglesquares.svg	stimuli_distractor_diamondtriangles.svg	22	yes	53	1	695
6.6.1	win	2022-12-14	19:20:32	19:28:38	483420	630dd0429f7ec338d28e2de1	314521415	1	main_slash	7	advance_on_keypress_SLASH	78	stimuli_target_trianglesquares.svg	stimuli_distractor_diamondtriangles.svg	22	yes	57	0	638
6.6.1	win	2022-12-14	19:20:32	19:28:39	485247	630dd0429f7ec338d28e2de1	314521415	1	main_slash	7	main_slash	79	stimuli_distractor_trianglediamonds.svg	stimuli_target_circletriangles.svg	9	yes	53	1	551
6.6.1	win	2022-12-14	19:20:32	19:28:39	485247	630dd0429f7ec338d28e2de1	314521415	1	main_slash	7	advance_on_keypress_SLASH	80	stimuli_distractor_trianglediamonds.svg	stimuli_target_circletriangles.svg	9	yes	57	0	486
6.6.1	win	2022-12-14	19:20:32	19:28:41	487013	630dd0429f7ec338d28e2de1	314521415	1	main_slash	7	main_slash	81	stimuli_target_circlediamonds.svg	stimuli_distractor_diamondtriangles.svg	6	yes	53	1	630
6.6.1	win	2022-12-14	19:20:32	19:28:41	487013	630dd0429f7ec338d28e2de1	314521415	1	main_slash	7	advance_on_keypress_SLASH	82	stimuli_target_circlediamonds.svg	stimuli_distractor_diamondtriangles.svg	6	yes	57	0	630
6.6.1	win	2022-12-14	19:20:32	19:28:43	489155	630dd0429f7ec338d28e2de1	314521415	1	main_slash	7	main_slash	83	stimuli_target_circletriangles.svg	stimuli_distractor_diamondtriangles.svg	5	yes	53	1	866
6.6.1	win	2022-12-14	19:20:32	19:28:43	489155	630dd0429f7ec338d28e2de1	314521415	1	main_slash	7	advance_on_keypress_SLASH	84	stimuli_target_circletriangles.svg	stimuli_distractor_diamondtriangles.svg	5	yes	57	0	545
6.6.1	win	2022-12-14	19:20:32	19:28:45	491010	630dd0429f7ec338d28e2de1	314521415	1	main_slash	7	main_slash	85	stimuli_distractor_diamondtriangles.svg	stimuli_target_trianglesquares.svg	30	yes	53	1	651
6.6.1	win	2022-12-14	19:20:32	19:28:45	491010	630dd0429f7ec338d28e2de1	314521415	1	main_slash	7	advance_on_keypress_SLASH	86	stimuli_distractor_diamondtriangles.svg	stimuli_target_trianglesquares.svg	30	yes	57	0	607
6.6.1	win	2022-12-14	19:20:32	19:28:47	492766	630dd0429f7ec338d28e2de1	314521415	1	main_slash	7	main_slash	87	stimuli_target_trianglesquares.svg	stimuli_distractor_trianglediamonds.svg	18	yes	53	1	503
6.6.1	win	2022-12-14	19:20:32	19:28:47	492766	630dd0429f7ec338d28e2de1	314521415	1	main_slash	7	advance_on_keypress_SLASH	88	stimuli_target_trianglesquares.svg	stimuli_distractor_trianglediamonds.svg	18	yes	57	0	660
6.6.1	win	2022-12-14	19:20:32	19:28:49	494469	630dd0429f7ec338d28e2de1	314521415	1	main_slash	7	main_slash	89	stimuli_target_diamondcircles.svg	stimuli_distractor_diamondtriangles.svg	23	yes	53	1	377
6.6.1	win	2022-12-14	19:20:32	19:28:49	494469	630dd0429f7ec338d28e2de1	314521415	1	main_slash	7	advance_on_keypress_SLASH	90	stimuli_target_diamondcircles.svg	stimuli_distractor_diamondtriangles.svg	23	yes	57	0	550
6.6.1	win	2022-12-14	19:20:32	19:28:50	496096	630dd0429f7ec338d28e2de1	314521415	1	main_slash	7	main_slash	91	stimuli_distractor_diamondtriangles.svg	stimuli_target_circlediamonds.svg	14	yes	53	1	426
6.6.1	win	2022-12-14	19:20:32	19:28:50	496096	630dd0429f7ec338d28e2de1	314521415	1	main_slash	7	advance_on_keypress_SLASH	92	stimuli_distractor_diamondtriangles.svg	stimuli_target_circlediamonds.svg	14	yes	57	0	525
6.6.1	win	2022-12-14	19:20:32	19:28:52	497731	630dd0429f7ec338d28e2de1	314521415	1	main_slash	7	main_slash	93	stimuli_target_trianglecircles.svg	stimuli_distractor_trianglediamonds.svg	17	yes	53	1	474
6.6.1	win	2022-12-14	19:20:32	19:28:52	497731	630dd0429f7ec338d28e2de1	314521415	1	main_slash	7	advance_on_keypress_SLASH	94	stimuli_target_trianglecircles.svg	stimuli_distractor_trianglediamonds.svg	17	yes	57	0	624
6.6.1	win	2022-12-14	19:20:32	19:28:54	499379	630dd0429f7ec338d28e2de1	314521415	1	main_slash	7	main_slash	95	stimuli_distractor_trianglediamonds.svg	stimuli_distractor_diamondtriangles.svg	36	no	53	0	382
6.6.1	win	2022-12-14	19:20:32	19:28:54	499379	630dd0429f7ec338d28e2de1	314521415	1	main_slash	7	advance_on_keypress_SLASH	96	stimuli_distractor_trianglediamonds.svg	stimuli_distractor_diamondtriangles.svg	36	no	57	0	827
6.6.1	win	2022-12-14	19:20:32	19:28:56	501626	630dd0429f7ec338d28e2de1	314521415	1	main_slash	7	main_slash	97	stimuli_distractor_trianglediamonds.svg	stimuli_distractor_diamondtriangles.svg	35	no	53	0	761
6.6.1	win	2022-12-14	19:20:32	19:28:56	501626	630dd0429f7ec338d28e2de1	314521415	1	main_slash	7	advance_on_keypress_SLASH	98	stimuli_distractor_trianglediamonds.svg	stimuli_distractor_diamondtriangles.svg	35	no	57	0	817
6.6.1	win	2022-12-14	19:20:32	19:28:58	503665	630dd0429f7ec338d28e2de1	314521415	1	main_slash	7	main_slash	99	stimuli_distractor_trianglediamonds.svg	stimuli_target_circletriangles.svg	9	yes	53	1	578
6.6.1	win	2022-12-14	19:20:32	19:28:58	503665	630dd0429f7ec338d28e2de1	314521415	1	main_slash	7	advance_on_keypress_SLASH	100	stimuli_distractor_trianglediamonds.svg	stimuli_target_circletriangles.svg	9	yes	57	0	688
6.6.1	win	2022-12-14	19:20:32	19:29:00	505451	630dd0429f7ec338d28e2de1	314521415	1	main_slash	7	main_slash	101	stimuli_distractor_trianglediamonds.svg	stimuli_target_squarediamonds.svg	12	yes	53	1	460
6.6.1	win	2022-12-14	19:20:32	19:29:00	505451	630dd0429f7ec338d28e2de1	314521415	1	main_slash	7	advance_on_keypress_SLASH	102	stimuli_distractor_trianglediamonds.svg	stimuli_target_squarediamonds.svg	12	yes	57	0	506
6.6.1	win	2022-12-14	19:20:32	19:29:01	507056	630dd0429f7ec338d28e2de1	314521415	1	main_slash	7	main_slash	103	stimuli_distractor_trianglediamonds.svg	stimuli_target_diamondcircles.svg	27	yes	53	1	461
6.6.1	win	2022-12-14	19:20:32	19:29:01	507056	630dd0429f7ec338d28e2de1	314521415	1	main_slash	7	advance_on_keypress_SLASH	104	stimuli_distractor_trianglediamonds.svg	stimuli_target_diamondcircles.svg	27	yes	57	0	454
6.6.1	win	2022-12-14	19:20:32	19:29:03	508711	630dd0429f7ec338d28e2de1	314521415	1	main_slash	7	main_slash	105	stimuli_target_circlediamonds.svg	stimuli_distractor_trianglediamonds.svg	2	yes	53	1	563
6.6.1	win	2022-12-14	19:20:32	19:29:03	508711	630dd0429f7ec338d28e2de1	314521415	1	main_slash	7	advance_on_keypress_SLASH	106	stimuli_target_circlediamonds.svg	stimuli_distractor_trianglediamonds.svg	2	yes	57	0	923
6.6.1	win	2022-12-14	19:20:32	19:29:05	510608	630dd0429f7ec338d28e2de1	314521415	1	main_slash	7	main_slash	107	stimuli_distractor_diamondtriangles.svg	stimuli_distractor_trianglediamonds.svg	37	no	53	0	338
6.6.1	win	2022-12-14	19:20:32	19:29:05	510608	630dd0429f7ec338d28e2de1	314521415	1	main_slash	7	advance_on_keypress_SLASH	108	stimuli_distractor_diamondtriangles.svg	stimuli_distractor_trianglediamonds.svg	37	no	57	0	621
6.6.1	win	2022-12-14	19:20:32	19:29:07	512455	630dd0429f7ec338d28e2de1	314521415	1	main_slash	7	main_slash	109	stimuli_distractor_trianglediamonds.svg	stimuli_target_trianglecircles.svg	25	yes	53	1	582
6.6.1	win	2022-12-14	19:20:32	19:29:07	512455	630dd0429f7ec338d28e2de1	314521415	1	main_slash	7	advance_on_keypress_SLASH	110	stimuli_distractor_trianglediamonds.svg	stimuli_target_trianglecircles.svg	25	yes	57	0	2290
6.6.1	win	2022-12-14	19:20:32	19:29:10	515926	630dd0429f7ec338d28e2de1	314521415	1	main_slash	7	main_slash	111	stimuli_distractor_trianglediamonds.svg	stimuli_target_squaretriangles.svg	11	yes	53	1	529
6.6.1	win	2022-12-14	19:20:32	19:29:10	515926	630dd0429f7ec338d28e2de1	314521415	1	main_slash	7	advance_on_keypress_SLASH	112	stimuli_distractor_trianglediamonds.svg	stimuli_target_squaretriangles.svg	11	yes	57	0	599
6.6.1	win	2022-12-14	19:20:32	19:29:12	517804	630dd0429f7ec338d28e2de1	314521415	1	main_slash	7	main_slash	113	stimuli_distractor_diamondtriangles.svg	stimuli_target_squarediamonds.svg	16	yes	53	1	636
6.6.1	win	2022-12-14	19:20:32	19:29:12	517804	630dd0429f7ec338d28e2de1	314521415	1	main_slash	7	advance_on_keypress_SLASH	114	stimuli_distractor_diamondtriangles.svg	stimuli_target_squarediamonds.svg	16	yes	57	0	538
6.6.1	win	2022-12-14	19:20:32	19:29:13	519374	630dd0429f7ec338d28e2de1	314521415	1	main_slash	7	main_slash	115	stimuli_distractor_diamondtriangles.svg	stimuli_target_trianglecircles.svg	29	yes	53	1	379
6.6.1	win	2022-12-14	19:20:32	19:29:13	519374	630dd0429f7ec338d28e2de1	314521415	1	main_slash	7	advance_on_keypress_SLASH	116	stimuli_distractor_diamondtriangles.svg	stimuli_target_trianglecircles.svg	29	yes	57	0	552
6.6.1	win	2022-12-14	19:20:32	19:29:15	521063	630dd0429f7ec338d28e2de1	314521415	1	main_slash	7	main_slash	117	stimuli_target_squaretriangles.svg	stimuli_distractor_diamondtriangles.svg	7	yes	53	1	489
6.6.1	win	2022-12-14	19:20:32	19:29:15	521063	630dd0429f7ec338d28e2de1	314521415	1	main_slash	7	advance_on_keypress_SLASH	118	stimuli_target_squaretriangles.svg	stimuli_distractor_diamondtriangles.svg	7	yes	57	0	470
6.6.1	win	2022-12-14	19:20:32	19:29:17	522769	630dd0429f7ec338d28e2de1	314521415	1	main_slash	7	main_slash	119	stimuli_target_circletriangles.svg	stimuli_distractor_trianglediamonds.svg	1	yes	53	1	590
6.6.1	win	2022-12-14	19:20:32	19:29:17	522769	630dd0429f7ec338d28e2de1	314521415	1	main_slash	7	advance_on_keypress_SLASH	120	stimuli_target_circletriangles.svg	stimuli_distractor_trianglediamonds.svg	1	yes	57	0	492
6.6.1	win	2022-12-14	19:20:32	19:29:19	524771	630dd0429f7ec338d28e2de1	314521415	1	main_slash	7	main_slash	121	stimuli_distractor_diamondtriangles.svg	stimuli_target_squaretriangles.svg	15	yes	53	1	868
6.6.1	win	2022-12-14	19:20:32	19:29:19	524771	630dd0429f7ec338d28e2de1	314521415	1	main_slash	7	advance_on_keypress_SLASH	122	stimuli_distractor_diamondtriangles.svg	stimuli_target_squaretriangles.svg	15	yes	57	0	536
6.6.1	win	2022-12-14	19:20:32	19:29:21	526422	630dd0429f7ec338d28e2de1	314521415	1	main_slash	7	main_slash	123	stimuli_target_trianglecircles.svg	stimuli_distractor_diamondtriangles.svg	21	yes	53	1	468
6.6.1	win	2022-12-14	19:20:32	19:29:21	526422	630dd0429f7ec338d28e2de1	314521415	1	main_slash	7	advance_on_keypress_SLASH	124	stimuli_target_trianglecircles.svg	stimuli_distractor_diamondtriangles.svg	21	yes	57	0	416
6.6.1	win	2022-12-14	19:20:32	19:29:22	528027	630dd0429f7ec338d28e2de1	314521415	1	main_slash	7	main_slash	125	stimuli_distractor_diamondtriangles.svg	stimuli_target_diamondcircles.svg	31	yes	53	1	536
6.6.1	win	2022-12-14	19:20:32	19:29:22	528027	630dd0429f7ec338d28e2de1	314521415	1	main_slash	7	advance_on_keypress_SLASH	126	stimuli_distractor_diamondtriangles.svg	stimuli_target_diamondcircles.svg	31	yes	57	0	569
6.6.1	win	2022-12-14	19:20:32	19:29:24	529604	630dd0429f7ec338d28e2de1	314521415	1	main_slash	7	main_slash	127	stimuli_distractor_trianglediamonds.svg	stimuli_target_circlediamonds.svg	10	yes	53	1	356
6.6.1	win	2022-12-14	19:20:32	19:29:24	529604	630dd0429f7ec338d28e2de1	314521415	1	main_slash	7	advance_on_keypress_SLASH	128	stimuli_distractor_trianglediamonds.svg	stimuli_target_circlediamonds.svg	10	yes	57	0	2391
6.6.1	win	2022-12-14	19:20:32	19:29:27	532902	630dd0429f7ec338d28e2de1	314521415	1	main_slash	7	main_slash	129	stimuli_distractor_trianglediamonds.svg	stimuli_distractor_trianglediamonds.svg	33	no	53	0	267
6.6.1	win	2022-12-14	19:20:32	19:29:27	532902	630dd0429f7ec338d28e2de1	314521415	1	main_slash	7	advance_on_keypress_SLASH	130	stimuli_distractor_trianglediamonds.svg	stimuli_distractor_trianglediamonds.svg	33	no	57	0	6238
6.6.1	win	2022-12-14	19:20:32	19:29:34	540127	630dd0429f7ec338d28e2de1	314521415	1	main_slash	7	main_slash	131	stimuli_target_squarediamonds.svg	stimuli_distractor_diamondtriangles.svg	8	yes	53	1	343
6.6.1	win	2022-12-14	19:20:32	19:29:34	540127	630dd0429f7ec338d28e2de1	314521415	1	main_slash	7	advance_on_keypress_SLASH	132	stimuli_target_squarediamonds.svg	stimuli_distractor_diamondtriangles.svg	8	yes	57	0	525
6.6.1	win	2022-12-14	19:20:32	19:29:36	541559	630dd0429f7ec338d28e2de1	314521415	1	main_slash	7	main_slash	133	stimuli_target_squaretriangles.svg	stimuli_distractor_trianglediamonds.svg	3	yes	53	1	272
6.6.1	win	2022-12-14	19:20:32	19:29:36	541559	630dd0429f7ec338d28e2de1	314521415	1	main_slash	7	advance_on_keypress_SLASH	134	stimuli_target_squaretriangles.svg	stimuli_distractor_trianglediamonds.svg	3	yes	57	0	552
6.6.1	win	2022-12-14	19:20:32	19:29:37	543053	630dd0429f7ec338d28e2de1	314521415	1	main_slash	7	main_slash	135	stimuli_target_squarediamonds.svg	stimuli_distractor_trianglediamonds.svg	4	yes	53	1	295
6.6.1	win	2022-12-14	19:20:32	19:29:37	543053	630dd0429f7ec338d28e2de1	314521415	1	main_slash	7	advance_on_keypress_SLASH	136	stimuli_target_squarediamonds.svg	stimuli_distractor_trianglediamonds.svg	4	yes	57	0	578
6.6.1	win	2022-12-14	19:20:32	19:29:39	544516	630dd0429f7ec338d28e2de1	314521415	1	main_slash	7	main_slash	137	stimuli_distractor_trianglediamonds.svg	stimuli_target_trianglesquares.svg	26	yes	53	1	255
6.6.1	win	2022-12-14	19:20:32	19:29:39	544516	630dd0429f7ec338d28e2de1	314521415	1	main_slash	7	advance_on_keypress_SLASH	138	stimuli_distractor_trianglediamonds.svg	stimuli_target_trianglesquares.svg	26	yes	57	0	1208
6.6.1	win	2022-12-14	19:20:32	19:29:41	546666	630dd0429f7ec338d28e2de1	314521415	1	main_slash	7	main_slash	139	stimuli_target_diamondsquares.svg	stimuli_distractor_trianglediamonds.svg	20	yes	53	1	300
6.6.1	win	2022-12-14	19:20:32	19:29:41	546666	630dd0429f7ec338d28e2de1	314521415	1	main_slash	7	advance_on_keypress_SLASH	140	stimuli_target_diamondsquares.svg	stimuli_distractor_trianglediamonds.svg	20	yes	57	0	2395
6.6.1	win	2022-12-14	19:20:32	19:29:45	550440	630dd0429f7ec338d28e2de1	314521415	1	main_slash	7	main_slash	141	stimuli_target_diamondcircles.svg	stimuli_distractor_trianglediamonds.svg	19	yes	53	1	733
6.6.1	win	2022-12-14	19:20:32	19:29:45	550440	630dd0429f7ec338d28e2de1	314521415	1	main_slash	7	advance_on_keypress_SLASH	142	stimuli_target_diamondcircles.svg	stimuli_distractor_trianglediamonds.svg	19	yes	57	0	596
6.6.1	win	2022-12-14	19:20:32	19:29:47	552398	630dd0429f7ec338d28e2de1	314521415	1	main_slash	7	main_slash	143	stimuli_distractor_diamondtriangles.svg	stimuli_distractor_trianglediamonds.svg	38	no	53	0	704
6.6.1	win	2022-12-14	19:20:32	19:29:47	552398	630dd0429f7ec338d28e2de1	314521415	1	main_slash	7	advance_on_keypress_SLASH	144	stimuli_distractor_diamondtriangles.svg	stimuli_distractor_trianglediamonds.svg	38	no	57	0	711
6.6.1	win	2022-12-14	19:20:32	19:29:50	555752	630dd0429f7ec338d28e2de1	314521415	1	main_slash	7	main_slash	145	stimuli_distractor_trianglediamonds.svg	stimuli_distractor_trianglediamonds.svg	34	no	0	1	2000
6.6.1	win	2022-12-14	19:20:32	19:29:50	555752	630dd0429f7ec338d28e2de1	314521415	1	main_slash	7	advance_on_keypress_SLASH	146	stimuli_distractor_trianglediamonds.svg	stimuli_distractor_trianglediamonds.svg	34	no	57	0	362
6.6.1	win	2022-12-14	19:20:32	19:29:53	558758	630dd0429f7ec338d28e2de1	314521415	1	main_slash	7	main_slash	147	stimuli_distractor_diamondtriangles.svg	stimuli_distractor_diamondtriangles.svg	39	no	0	1	2000
6.6.1	win	2022-12-14	19:20:32	19:29:53	558758	630dd0429f7ec338d28e2de1	314521415	1	main_slash	7	advance_on_keypress_SLASH	148	stimuli_distractor_diamondtriangles.svg	stimuli_distractor_diamondtriangles.svg	39	no	57	0	502
6.6.1	win	2022-12-14	19:20:32	19:29:55	560411	630dd0429f7ec338d28e2de1	314521415	1	main_slash	7	main_slash	149	stimuli_distractor_diamondtriangles.svg	stimuli_target_circletriangles.svg	13	yes	53	1	497
6.6.1	win	2022-12-14	19:20:32	19:29:55	560411	630dd0429f7ec338d28e2de1	314521415	1	main_slash	7	advance_on_keypress_SLASH	150	stimuli_distractor_diamondtriangles.svg	stimuli_target_circletriangles.svg	13	yes	57	0	494
6.6.1	win	2022-12-14	19:20:32	19:29:56	562166	630dd0429f7ec338d28e2de1	314521415	1	main_slash	7	main_slash	151	stimuli_target_diamondsquares.svg	stimuli_distractor_diamondtriangles.svg	24	yes	53	1	600
6.6.1	win	2022-12-14	19:20:32	19:29:56	562166	630dd0429f7ec338d28e2de1	314521415	1	main_slash	7	advance_on_keypress_SLASH	152	stimuli_target_diamondsquares.svg	stimuli_distractor_diamondtriangles.svg	24	yes	57	0	515
6.6.1	win	2022-12-14	19:20:32	19:29:59	565339	630dd0429f7ec338d28e2de1	314521415	1	main_slash	7	main_slash	153	stimuli_distractor_diamondtriangles.svg	stimuli_distractor_diamondtriangles.svg	40	no	0	1	2000
6.6.1	win	2022-12-14	19:20:32	19:29:59	565339	630dd0429f7ec338d28e2de1	314521415	1	main_slash	7	advance_on_keypress_SLASH	154	stimuli_distractor_diamondtriangles.svg	stimuli_distractor_diamondtriangles.svg	40	no	57	0	532
6.6.1	win	2022-12-14	19:20:32	19:30:01	567060	630dd0429f7ec338d28e2de1	314521415	1	main_slash	7	main_slash	155	stimuli_target_trianglesquares.svg	stimuli_distractor_diamondtriangles.svg	22	yes	53	1	533
6.6.1	win	2022-12-14	19:20:32	19:30:01	567060	630dd0429f7ec338d28e2de1	314521415	1	main_slash	7	advance_on_keypress_SLASH	156	stimuli_target_trianglesquares.svg	stimuli_distractor_diamondtriangles.svg	22	yes	57	0	556
6.6.1	win	2022-12-14	19:20:32	19:30:03	569142	630dd0429f7ec338d28e2de1	314521415	1	main_slash	7	main_slash	157	stimuli_distractor_trianglediamonds.svg	stimuli_target_diamondsquares.svg	28	yes	53	1	875
6.6.1	win	2022-12-14	19:20:32	19:30:03	569142	630dd0429f7ec338d28e2de1	314521415	1	main_slash	7	advance_on_keypress_SLASH	158	stimuli_distractor_trianglediamonds.svg	stimuli_target_diamondsquares.svg	28	yes	57	0	603
6.6.1	win	2022-12-14	19:20:32	19:30:05	571218	630dd0429f7ec338d28e2de1	314521415	1	main_slash	7	main_slash	159	stimuli_distractor_diamondtriangles.svg	stimuli_target_diamondsquares.svg	32	yes	53	1	833
6.6.1	win	2022-12-14	19:20:32	19:30:05	571218	630dd0429f7ec338d28e2de1	314521415	1	main_slash	7	advance_on_keypress_SLASH	160	stimuli_distractor_diamondtriangles.svg	stimuli_target_diamondsquares.svg	32	yes	57	0	615
6.6.1	win	2022-12-14	19:20:32	19:30:32	598216	630dd0429f7ec338d28e2de1	314521415	1	practice_z	9	practice_z	1	stimuli_distractor_trianglediamonds.svg	stimuli_distractor_diamondtriangles.svg	16	no	0	1	2000
6.6.1	win	2022-12-14	19:20:32	19:30:32	598216	630dd0429f7ec338d28e2de1	314521415	1	practice_z	9	advance_on_keypress_ZEE	2	stimuli_distractor_trianglediamonds.svg	stimuli_distractor_diamondtriangles.svg	16	no	57	0	1044
6.6.1	win	2022-12-14	19:20:32	19:30:36	601409	630dd0429f7ec338d28e2de1	314521415	1	practice_z	9	practice_z	3	stimuli_distractor_trianglediamonds.svg	stimuli_target_squarediamonds.svg	11	yes	44	1	487
6.6.1	win	2022-12-14	19:20:32	19:30:36	601409	630dd0429f7ec338d28e2de1	314521415	1	practice_z	9	advance_on_keypress_ZEE	4	stimuli_distractor_trianglediamonds.svg	stimuli_target_squarediamonds.svg	11	yes	57	0	477
6.6.1	win	2022-12-14	19:20:32	19:30:38	604155	630dd0429f7ec338d28e2de1	314521415	1	practice_z	9	practice_z	5	stimuli_distractor_diamondtriangles.svg	stimuli_target_diamondcircles.svg	8	yes	44	1	611
6.6.1	win	2022-12-14	19:20:32	19:30:38	604155	630dd0429f7ec338d28e2de1	314521415	1	practice_z	9	advance_on_keypress_ZEE	6	stimuli_distractor_diamondtriangles.svg	stimuli_target_diamondcircles.svg	8	yes	57	0	443
6.6.1	win	2022-12-14	19:20:32	19:30:41	607011	630dd0429f7ec338d28e2de1	314521415	1	practice_z	9	practice_z	7	stimuli_target_diamondsquares.svg	stimuli_distractor_trianglediamonds.svg	6	yes	44	1	777
6.6.1	win	2022-12-14	19:20:32	19:30:41	607011	630dd0429f7ec338d28e2de1	314521415	1	practice_z	9	advance_on_keypress_ZEE	8	stimuli_target_diamondsquares.svg	stimuli_distractor_trianglediamonds.svg	6	yes	57	0	452
6.6.1	win	2022-12-14	19:20:32	19:30:44	609646	630dd0429f7ec338d28e2de1	314521415	1	practice_z	9	practice_z	9	stimuli_distractor_diamondtriangles.svg	stimuli_target_trianglecircles.svg	9	yes	44	1	539
6.6.1	win	2022-12-14	19:20:32	19:30:44	609646	630dd0429f7ec338d28e2de1	314521415	1	practice_z	9	advance_on_keypress_ZEE	10	stimuli_distractor_diamondtriangles.svg	stimuli_target_trianglecircles.svg	9	yes	57	0	436
6.6.1	win	2022-12-14	19:20:32	19:30:46	612329	630dd0429f7ec338d28e2de1	314521415	1	practice_z	9	practice_z	11	stimuli_target_squarediamonds.svg	stimuli_distractor_trianglediamonds.svg	5	yes	44	1	601
6.6.1	win	2022-12-14	19:20:32	19:30:46	612329	630dd0429f7ec338d28e2de1	314521415	1	practice_z	9	advance_on_keypress_ZEE	12	stimuli_target_squarediamonds.svg	stimuli_distractor_trianglediamonds.svg	5	yes	57	0	564
6.6.1	win	2022-12-14	19:20:32	19:30:49	615114	630dd0429f7ec338d28e2de1	314521415	1	practice_z	9	practice_z	13	stimuli_target_circlediamonds.svg	stimuli_distractor_diamondtriangles.svg	1	yes	44	1	562
6.6.1	win	2022-12-14	19:20:32	19:30:49	615114	630dd0429f7ec338d28e2de1	314521415	1	practice_z	9	advance_on_keypress_ZEE	14	stimuli_target_circlediamonds.svg	stimuli_distractor_diamondtriangles.svg	1	yes	57	0	478
6.6.1	win	2022-12-14	19:20:32	19:30:53	619260	630dd0429f7ec338d28e2de1	314521415	1	practice_z	9	practice_z	15	stimuli_distractor_trianglediamonds.svg	stimuli_distractor_trianglediamonds.svg	15	no	0	1	2000
6.6.1	win	2022-12-14	19:20:32	19:30:53	619260	630dd0429f7ec338d28e2de1	314521415	1	practice_z	9	advance_on_keypress_ZEE	16	stimuli_distractor_trianglediamonds.svg	stimuli_distractor_trianglediamonds.svg	15	no	57	0	403
6.6.1	win	2022-12-14	19:20:32	19:30:56	621825	630dd0429f7ec338d28e2de1	314521415	1	practice_z	9	practice_z	17	stimuli_distractor_trianglediamonds.svg	stimuli_target_diamondcircles.svg	12	yes	44	1	509
6.6.1	win	2022-12-14	19:20:32	19:30:56	621825	630dd0429f7ec338d28e2de1	314521415	1	practice_z	9	advance_on_keypress_ZEE	18	stimuli_distractor_trianglediamonds.svg	stimuli_target_diamondcircles.svg	12	yes	57	0	854
6.6.1	win	2022-12-14	19:20:32	19:31:00	626322	630dd0429f7ec338d28e2de1	314521415	1	practice_z	9	practice_z	19	stimuli_distractor_diamondtriangles.svg	stimuli_distractor_trianglediamonds.svg	14	no	0	1	2000
6.6.1	win	2022-12-14	19:20:32	19:31:00	626322	630dd0429f7ec338d28e2de1	314521415	1	practice_z	9	advance_on_keypress_ZEE	20	stimuli_distractor_diamondtriangles.svg	stimuli_distractor_trianglediamonds.svg	14	no	57	0	1490
6.6.1	win	2022-12-14	19:20:32	19:31:06	631471	630dd0429f7ec338d28e2de1	314521415	1	practice_z	9	practice_z	21	stimuli_distractor_diamondtriangles.svg	stimuli_distractor_diamondtriangles.svg	13	no	0	1	2000
6.6.1	win	2022-12-14	19:20:32	19:31:06	631471	630dd0429f7ec338d28e2de1	314521415	1	practice_z	9	advance_on_keypress_ZEE	22	stimuli_distractor_diamondtriangles.svg	stimuli_distractor_diamondtriangles.svg	13	no	57	0	102
6.6.1	win	2022-12-14	19:20:32	19:31:08	633682	630dd0429f7ec338d28e2de1	314521415	1	practice_z	9	practice_z	23	stimuli_target_squarediamonds.svg	stimuli_distractor_diamondtriangles.svg	2	yes	44	1	457
6.6.1	win	2022-12-14	19:20:32	19:31:08	633682	630dd0429f7ec338d28e2de1	314521415	1	practice_z	9	advance_on_keypress_ZEE	24	stimuli_target_squarediamonds.svg	stimuli_distractor_diamondtriangles.svg	2	yes	57	0	1358
6.6.1	win	2022-12-14	19:20:32	19:31:11	637144	630dd0429f7ec338d28e2de1	314521415	1	practice_z	9	practice_z	25	stimuli_target_circlediamonds.svg	stimuli_distractor_trianglediamonds.svg	4	yes	44	1	461
6.6.1	win	2022-12-14	19:20:32	19:31:11	637144	630dd0429f7ec338d28e2de1	314521415	1	practice_z	9	advance_on_keypress_ZEE	26	stimuli_target_circlediamonds.svg	stimuli_distractor_trianglediamonds.svg	4	yes	57	0	786
6.6.1	win	2022-12-14	19:20:32	19:31:14	640092	630dd0429f7ec338d28e2de1	314521415	1	practice_z	9	practice_z	27	stimuli_distractor_trianglediamonds.svg	stimuli_target_circlediamonds.svg	10	yes	44	1	518
6.6.1	win	2022-12-14	19:20:32	19:31:14	640092	630dd0429f7ec338d28e2de1	314521415	1	practice_z	9	advance_on_keypress_ZEE	28	stimuli_distractor_trianglediamonds.svg	stimuli_target_circlediamonds.svg	10	yes	57	0	755
6.6.1	win	2022-12-14	19:20:32	19:31:19	644499	630dd0429f7ec338d28e2de1	314521415	1	practice_z	9	practice_z	29	stimuli_target_diamondsquares.svg	stimuli_distractor_diamondtriangles.svg	3	yes	0	0	2000
6.6.1	win	2022-12-14	19:20:32	19:31:19	644499	630dd0429f7ec338d28e2de1	314521415	1	practice_z	9	advance_on_keypress_ZEE	30	stimuli_target_diamondsquares.svg	stimuli_distractor_diamondtriangles.svg	3	yes	57	0	1050
6.6.1	win	2022-12-14	19:20:32	19:31:22	647781	630dd0429f7ec338d28e2de1	314521415	1	practice_z	9	practice_z	31	stimuli_distractor_diamondtriangles.svg	stimuli_target_circletriangles.svg	7	yes	44	1	575
6.6.1	win	2022-12-14	19:20:32	19:31:22	647781	630dd0429f7ec338d28e2de1	314521415	1	practice_z	9	advance_on_keypress_ZEE	32	stimuli_distractor_diamondtriangles.svg	stimuli_target_circletriangles.svg	7	yes	57	0	763
6.6.1	win	2022-12-14	19:20:32	19:31:31	657153	630dd0429f7ec338d28e2de1	314521415	1	main_z	11	main_z	1	stimuli_distractor_trianglediamonds.svg	stimuli_target_trianglecircles.svg	25	yes	44	1	676
6.6.1	win	2022-12-14	19:20:32	19:31:31	657153	630dd0429f7ec338d28e2de1	314521415	1	main_z	11	advance_on_keypress_ZEE	2	stimuli_distractor_trianglediamonds.svg	stimuli_target_trianglecircles.svg	25	yes	57	0	841
6.6.1	win	2022-12-14	19:20:32	19:31:35	660650	630dd0429f7ec338d28e2de1	314521415	1	main_z	11	main_z	3	stimuli_distractor_trianglediamonds.svg	stimuli_distractor_diamondtriangles.svg	36	no	0	1	2000
6.6.1	win	2022-12-14	19:20:32	19:31:35	660650	630dd0429f7ec338d28e2de1	314521415	1	main_z	11	advance_on_keypress_ZEE	4	stimuli_distractor_trianglediamonds.svg	stimuli_distractor_diamondtriangles.svg	36	no	57	0	339
6.6.1	win	2022-12-14	19:20:32	19:31:36	662339	630dd0429f7ec338d28e2de1	314521415	1	main_z	11	main_z	5	stimuli_target_circlediamonds.svg	stimuli_distractor_trianglediamonds.svg	2	yes	44	1	702
6.6.1	win	2022-12-14	19:20:32	19:31:36	662339	630dd0429f7ec338d28e2de1	314521415	1	main_z	11	advance_on_keypress_ZEE	6	stimuli_target_circlediamonds.svg	stimuli_distractor_trianglediamonds.svg	2	yes	57	0	932
6.6.1	win	2022-12-14	19:20:32	19:31:39	664469	630dd0429f7ec338d28e2de1	314521415	1	main_z	11	main_z	7	stimuli_distractor_diamondtriangles.svg	stimuli_target_circletriangles.svg	13	yes	44	1	544
6.6.1	win	2022-12-14	19:20:32	19:31:39	664469	630dd0429f7ec338d28e2de1	314521415	1	main_z	11	advance_on_keypress_ZEE	8	stimuli_distractor_diamondtriangles.svg	stimuli_target_circletriangles.svg	13	yes	57	0	828
6.6.1	win	2022-12-14	19:20:32	19:31:41	666599	630dd0429f7ec338d28e2de1	314521415	1	main_z	11	main_z	9	stimuli_distractor_diamondtriangles.svg	stimuli_target_diamondcircles.svg	31	yes	44	1	653
6.6.1	win	2022-12-14	19:20:32	19:31:41	666599	630dd0429f7ec338d28e2de1	314521415	1	main_z	11	advance_on_keypress_ZEE	10	stimuli_distractor_diamondtriangles.svg	stimuli_target_diamondcircles.svg	31	yes	57	0	850
6.6.1	win	2022-12-14	19:20:32	19:31:43	668688	630dd0429f7ec338d28e2de1	314521415	1	main_z	11	main_z	11	stimuli_distractor_diamondtriangles.svg	stimuli_target_squarediamonds.svg	16	yes	44	1	586
6.6.1	win	2022-12-14	19:20:32	19:31:43	668688	630dd0429f7ec338d28e2de1	314521415	1	main_z	11	advance_on_keypress_ZEE	12	stimuli_distractor_diamondtriangles.svg	stimuli_target_squarediamonds.svg	16	yes	57	0	579
6.6.1	win	2022-12-14	19:20:32	19:31:45	670440	630dd0429f7ec338d28e2de1	314521415	1	main_z	11	main_z	13	stimuli_target_circletriangles.svg	stimuli_distractor_diamondtriangles.svg	5	yes	44	1	511
6.6.1	win	2022-12-14	19:20:32	19:31:45	670440	630dd0429f7ec338d28e2de1	314521415	1	main_z	11	advance_on_keypress_ZEE	14	stimuli_target_circletriangles.svg	stimuli_distractor_diamondtriangles.svg	5	yes	57	0	510
6.6.1	win	2022-12-14	19:20:32	19:31:48	673612	630dd0429f7ec338d28e2de1	314521415	1	main_z	11	main_z	15	stimuli_distractor_diamondtriangles.svg	stimuli_distractor_diamondtriangles.svg	40	no	0	1	2000
6.6.1	win	2022-12-14	19:20:32	19:31:48	673612	630dd0429f7ec338d28e2de1	314521415	1	main_z	11	advance_on_keypress_ZEE	16	stimuli_distractor_diamondtriangles.svg	stimuli_distractor_diamondtriangles.svg	40	no	57	0	396
6.6.1	win	2022-12-14	19:20:32	19:31:49	675227	630dd0429f7ec338d28e2de1	314521415	1	main_z	11	main_z	17	stimuli_distractor_diamondtriangles.svg	stimuli_distractor_trianglediamonds.svg	38	no	44	0	578
6.6.1	win	2022-12-14	19:20:32	19:31:49	675227	630dd0429f7ec338d28e2de1	314521415	1	main_z	11	advance_on_keypress_ZEE	18	stimuli_distractor_diamondtriangles.svg	stimuli_distractor_trianglediamonds.svg	38	no	57	0	890
6.6.1	win	2022-12-14	19:20:32	19:31:52	677386	630dd0429f7ec338d28e2de1	314521415	1	main_z	11	main_z	19	stimuli_target_squaretriangles.svg	stimuli_distractor_trianglediamonds.svg	3	yes	44	1	632
6.6.1	win	2022-12-14	19:20:32	19:31:52	677386	630dd0429f7ec338d28e2de1	314521415	1	main_z	11	advance_on_keypress_ZEE	20	stimuli_target_squaretriangles.svg	stimuli_distractor_trianglediamonds.svg	3	yes	57	0	546
6.6.1	win	2022-12-14	19:20:32	19:31:53	679294	630dd0429f7ec338d28e2de1	314521415	1	main_z	11	main_z	21	stimuli_distractor_diamondtriangles.svg	stimuli_target_circlediamonds.svg	14	yes	44	1	703
6.6.1	win	2022-12-14	19:20:32	19:31:53	679294	630dd0429f7ec338d28e2de1	314521415	1	main_z	11	advance_on_keypress_ZEE	22	stimuli_distractor_diamondtriangles.svg	stimuli_target_circlediamonds.svg	14	yes	57	0	679
6.6.1	win	2022-12-14	19:20:32	19:31:56	681607	630dd0429f7ec338d28e2de1	314521415	1	main_z	11	main_z	23	stimuli_target_diamondcircles.svg	stimuli_distractor_diamondtriangles.svg	23	yes	44	1	975
6.6.1	win	2022-12-14	19:20:32	19:31:56	681607	630dd0429f7ec338d28e2de1	314521415	1	main_z	11	advance_on_keypress_ZEE	24	stimuli_target_diamondcircles.svg	stimuli_distractor_diamondtriangles.svg	23	yes	57	0	604
6.6.1	win	2022-12-14	19:20:32	19:31:59	684853	630dd0429f7ec338d28e2de1	314521415	1	main_z	11	main_z	25	stimuli_distractor_diamondtriangles.svg	stimuli_distractor_trianglediamonds.svg	37	no	0	1	2000
6.6.1	win	2022-12-14	19:20:32	19:31:59	684853	630dd0429f7ec338d28e2de1	314521415	1	main_z	11	advance_on_keypress_ZEE	26	stimuli_distractor_diamondtriangles.svg	stimuli_distractor_trianglediamonds.svg	37	no	57	0	627
6.6.1	win	2022-12-14	19:20:32	19:32:01	686611	630dd0429f7ec338d28e2de1	314521415	1	main_z	11	main_z	27	stimuli_target_circletriangles.svg	stimuli_distractor_trianglediamonds.svg	1	yes	44	1	487
6.6.1	win	2022-12-14	19:20:32	19:32:01	686611	630dd0429f7ec338d28e2de1	314521415	1	main_z	11	advance_on_keypress_ZEE	28	stimuli_target_circletriangles.svg	stimuli_distractor_trianglediamonds.svg	1	yes	57	0	1193
6.6.1	win	2022-12-14	19:20:32	19:32:03	688970	630dd0429f7ec338d28e2de1	314521415	1	main_z	11	main_z	29	stimuli_distractor_trianglediamonds.svg	stimuli_target_diamondcircles.svg	27	yes	44	1	524
6.6.1	win	2022-12-14	19:20:32	19:32:03	688970	630dd0429f7ec338d28e2de1	314521415	1	main_z	11	advance_on_keypress_ZEE	30	stimuli_distractor_trianglediamonds.svg	stimuli_target_diamondcircles.svg	27	yes	57	0	846
6.6.1	win	2022-12-14	19:20:32	19:32:05	691171	630dd0429f7ec338d28e2de1	314521415	1	main_z	11	main_z	31	stimuli_target_trianglesquares.svg	stimuli_distractor_diamondtriangles.svg	22	yes	44	1	704
6.6.1	win	2022-12-14	19:20:32	19:32:05	691171	630dd0429f7ec338d28e2de1	314521415	1	main_z	11	advance_on_keypress_ZEE	32	stimuli_target_trianglesquares.svg	stimuli_distractor_diamondtriangles.svg	22	yes	57	0	599
6.6.1	win	2022-12-14	19:20:32	19:32:07	693229	630dd0429f7ec338d28e2de1	314521415	1	main_z	11	main_z	33	stimuli_distractor_trianglediamonds.svg	stimuli_target_diamondsquares.svg	28	yes	44	1	807
6.6.1	win	2022-12-14	19:20:32	19:32:07	693229	630dd0429f7ec338d28e2de1	314521415	1	main_z	11	advance_on_keypress_ZEE	34	stimuli_distractor_trianglediamonds.svg	stimuli_target_diamondsquares.svg	28	yes	57	0	715
6.6.1	win	2022-12-14	19:20:32	19:32:09	695268	630dd0429f7ec338d28e2de1	314521415	1	main_z	11	main_z	35	stimuli_distractor_diamondtriangles.svg	stimuli_target_squaretriangles.svg	15	yes	44	1	675
6.6.1	win	2022-12-14	19:20:32	19:32:09	695268	630dd0429f7ec338d28e2de1	314521415	1	main_z	11	advance_on_keypress_ZEE	36	stimuli_distractor_diamondtriangles.svg	stimuli_target_squaretriangles.svg	15	yes	57	0	603
6.6.1	win	2022-12-14	19:20:32	19:32:11	696972	630dd0429f7ec338d28e2de1	314521415	1	main_z	11	main_z	37	stimuli_distractor_trianglediamonds.svg	stimuli_target_squaretriangles.svg	11	yes	44	1	459
6.6.1	win	2022-12-14	19:20:32	19:32:11	696972	630dd0429f7ec338d28e2de1	314521415	1	main_z	11	advance_on_keypress_ZEE	38	stimuli_distractor_trianglediamonds.svg	stimuli_target_squaretriangles.svg	11	yes	57	0	545
6.6.1	win	2022-12-14	19:20:32	19:32:13	698749	630dd0429f7ec338d28e2de1	314521415	1	main_z	11	main_z	39	stimuli_target_circlediamonds.svg	stimuli_distractor_diamondtriangles.svg	6	yes	44	1	581
6.6.1	win	2022-12-14	19:20:32	19:32:13	698749	630dd0429f7ec338d28e2de1	314521415	1	main_z	11	advance_on_keypress_ZEE	40	stimuli_target_circlediamonds.svg	stimuli_distractor_diamondtriangles.svg	6	yes	57	0	463
6.6.1	win	2022-12-14	19:20:32	19:32:15	700433	630dd0429f7ec338d28e2de1	314521415	1	main_z	11	main_z	41	stimuli_distractor_diamondtriangles.svg	stimuli_target_trianglesquares.svg	30	yes	44	1	562
6.6.1	win	2022-12-14	19:20:32	19:32:15	700433	630dd0429f7ec338d28e2de1	314521415	1	main_z	11	advance_on_keypress_ZEE	42	stimuli_distractor_diamondtriangles.svg	stimuli_target_trianglesquares.svg	30	yes	57	0	548
6.6.1	win	2022-12-14	19:20:32	19:32:16	702179	630dd0429f7ec338d28e2de1	314521415	1	main_z	11	main_z	43	stimuli_distractor_trianglediamonds.svg	stimuli_target_trianglesquares.svg	26	yes	44	1	554
6.6.1	win	2022-12-14	19:20:32	19:32:16	702179	630dd0429f7ec338d28e2de1	314521415	1	main_z	11	advance_on_keypress_ZEE	44	stimuli_distractor_trianglediamonds.svg	stimuli_target_trianglesquares.svg	26	yes	57	0	460
6.6.1	win	2022-12-14	19:20:32	19:32:18	703814	630dd0429f7ec338d28e2de1	314521415	1	main_z	11	main_z	45	stimuli_target_squaretriangles.svg	stimuli_distractor_diamondtriangles.svg	7	yes	44	1	508
6.6.1	win	2022-12-14	19:20:32	19:32:18	703814	630dd0429f7ec338d28e2de1	314521415	1	main_z	11	advance_on_keypress_ZEE	46	stimuli_target_squaretriangles.svg	stimuli_distractor_diamondtriangles.svg	7	yes	57	0	416
6.6.1	win	2022-12-14	19:20:32	19:32:20	705681	630dd0429f7ec338d28e2de1	314521415	1	main_z	11	main_z	47	stimuli_target_trianglecircles.svg	stimuli_distractor_diamondtriangles.svg	21	yes	44	1	799
6.6.1	win	2022-12-14	19:20:32	19:32:20	705681	630dd0429f7ec338d28e2de1	314521415	1	main_z	11	advance_on_keypress_ZEE	48	stimuli_target_trianglecircles.svg	stimuli_distractor_diamondtriangles.svg	21	yes	57	0	958
6.6.1	win	2022-12-14	19:20:32	19:32:23	709291	630dd0429f7ec338d28e2de1	314521415	1	main_z	11	main_z	49	stimuli_distractor_trianglediamonds.svg	stimuli_distractor_diamondtriangles.svg	35	no	0	1	2000
6.6.1	win	2022-12-14	19:20:32	19:32:23	709291	630dd0429f7ec338d28e2de1	314521415	1	main_z	11	advance_on_keypress_ZEE	50	stimuli_distractor_trianglediamonds.svg	stimuli_distractor_diamondtriangles.svg	35	no	57	0	973
6.6.1	win	2022-12-14	19:20:32	19:32:25	711241	630dd0429f7ec338d28e2de1	314521415	1	main_z	11	main_z	51	stimuli_target_diamondsquares.svg	stimuli_distractor_trianglediamonds.svg	20	yes	44	1	328
6.6.1	win	2022-12-14	19:20:32	19:32:25	711241	630dd0429f7ec338d28e2de1	314521415	1	main_z	11	advance_on_keypress_ZEE	52	stimuli_target_diamondsquares.svg	stimuli_distractor_trianglediamonds.svg	20	yes	57	0	983
6.6.1	win	2022-12-14	19:20:32	19:32:29	714869	630dd0429f7ec338d28e2de1	314521415	1	main_z	11	main_z	53	stimuli_distractor_trianglediamonds.svg	stimuli_distractor_trianglediamonds.svg	34	no	0	1	2000
6.6.1	win	2022-12-14	19:20:32	19:32:29	714869	630dd0429f7ec338d28e2de1	314521415	1	main_z	11	advance_on_keypress_ZEE	54	stimuli_distractor_trianglediamonds.svg	stimuli_distractor_trianglediamonds.svg	34	no	57	0	199
6.6.1	win	2022-12-14	19:20:32	19:32:32	717726	630dd0429f7ec338d28e2de1	314521415	1	main_z	11	main_z	55	stimuli_distractor_trianglediamonds.svg	stimuli_distractor_trianglediamonds.svg	33	no	0	1	2000
6.6.1	win	2022-12-14	19:20:32	19:32:32	717726	630dd0429f7ec338d28e2de1	314521415	1	main_z	11	advance_on_keypress_ZEE	56	stimuli_distractor_trianglediamonds.svg	stimuli_distractor_trianglediamonds.svg	33	no	57	0	389
6.6.1	win	2022-12-14	19:20:32	19:32:34	719447	630dd0429f7ec338d28e2de1	314521415	1	main_z	11	main_z	57	stimuli_target_diamondcircles.svg	stimuli_distractor_trianglediamonds.svg	19	yes	44	1	683
6.6.1	win	2022-12-14	19:20:32	19:32:34	719447	630dd0429f7ec338d28e2de1	314521415	1	main_z	11	advance_on_keypress_ZEE	58	stimuli_target_diamondcircles.svg	stimuli_distractor_trianglediamonds.svg	19	yes	57	0	918
6.6.1	win	2022-12-14	19:20:32	19:32:36	721666	630dd0429f7ec338d28e2de1	314521415	1	main_z	11	main_z	59	stimuli_distractor_trianglediamonds.svg	stimuli_target_squarediamonds.svg	12	yes	44	1	648
6.6.1	win	2022-12-14	19:20:32	19:32:36	721666	630dd0429f7ec338d28e2de1	314521415	1	main_z	11	advance_on_keypress_ZEE	60	stimuli_distractor_trianglediamonds.svg	stimuli_target_squarediamonds.svg	12	yes	57	0	634
6.6.1	win	2022-12-14	19:20:32	19:32:38	723553	630dd0429f7ec338d28e2de1	314521415	1	main_z	11	main_z	61	stimuli_distractor_trianglediamonds.svg	stimuli_target_circletriangles.svg	9	yes	44	1	597
6.6.1	win	2022-12-14	19:20:32	19:32:38	723553	630dd0429f7ec338d28e2de1	314521415	1	main_z	11	advance_on_keypress_ZEE	62	stimuli_distractor_trianglediamonds.svg	stimuli_target_circletriangles.svg	9	yes	57	0	802
6.6.1	win	2022-12-14	19:20:32	19:32:40	725541	630dd0429f7ec338d28e2de1	314521415	1	main_z	11	main_z	63	stimuli_target_trianglesquares.svg	stimuli_distractor_trianglediamonds.svg	18	yes	44	1	547
6.6.1	win	2022-12-14	19:20:32	19:32:40	725541	630dd0429f7ec338d28e2de1	314521415	1	main_z	11	advance_on_keypress_ZEE	64	stimuli_target_trianglesquares.svg	stimuli_distractor_trianglediamonds.svg	18	yes	57	0	621
6.6.1	win	2022-12-14	19:20:32	19:32:41	727368	630dd0429f7ec338d28e2de1	314521415	1	main_z	11	main_z	65	stimuli_distractor_trianglediamonds.svg	stimuli_target_circlediamonds.svg	10	yes	44	1	570
6.6.1	win	2022-12-14	19:20:32	19:32:41	727368	630dd0429f7ec338d28e2de1	314521415	1	main_z	11	advance_on_keypress_ZEE	66	stimuli_distractor_trianglediamonds.svg	stimuli_target_circlediamonds.svg	10	yes	57	0	549
6.6.1	win	2022-12-14	19:20:32	19:32:45	730571	630dd0429f7ec338d28e2de1	314521415	1	main_z	11	main_z	67	stimuli_distractor_diamondtriangles.svg	stimuli_distractor_diamondtriangles.svg	39	no	0	1	2000
6.6.1	win	2022-12-14	19:20:32	19:32:45	730571	630dd0429f7ec338d28e2de1	314521415	1	main_z	11	advance_on_keypress_ZEE	68	stimuli_distractor_diamondtriangles.svg	stimuli_distractor_diamondtriangles.svg	39	no	57	0	542
6.6.1	win	2022-12-14	19:20:32	19:32:46	732180	630dd0429f7ec338d28e2de1	314521415	1	main_z	11	main_z	69	stimuli_distractor_diamondtriangles.svg	stimuli_target_trianglecircles.svg	29	yes	44	1	422
6.6.1	win	2022-12-14	19:20:32	19:32:46	732180	630dd0429f7ec338d28e2de1	314521415	1	main_z	11	advance_on_keypress_ZEE	70	stimuli_distractor_diamondtriangles.svg	stimuli_target_trianglecircles.svg	29	yes	57	0	3064
6.6.1	win	2022-12-14	19:20:32	19:32:50	736237	630dd0429f7ec338d28e2de1	314521415	1	main_z	11	main_z	71	stimuli_target_squarediamonds.svg	stimuli_distractor_trianglediamonds.svg	4	yes	44	1	353
6.6.1	win	2022-12-14	19:20:32	19:32:50	736237	630dd0429f7ec338d28e2de1	314521415	1	main_z	11	advance_on_keypress_ZEE	72	stimuli_target_squarediamonds.svg	stimuli_distractor_trianglediamonds.svg	4	yes	57	0	2083
6.6.1	win	2022-12-14	19:20:32	19:32:54	739485	630dd0429f7ec338d28e2de1	314521415	1	main_z	11	main_z	73	stimuli_target_diamondsquares.svg	stimuli_distractor_diamondtriangles.svg	24	yes	44	1	512
6.6.1	win	2022-12-14	19:20:32	19:32:54	739485	630dd0429f7ec338d28e2de1	314521415	1	main_z	11	advance_on_keypress_ZEE	74	stimuli_target_diamondsquares.svg	stimuli_distractor_diamondtriangles.svg	24	yes	57	0	1334
6.6.1	win	2022-12-14	19:20:32	19:32:56	741962	630dd0429f7ec338d28e2de1	314521415	1	main_z	11	main_z	75	stimuli_target_squarediamonds.svg	stimuli_distractor_diamondtriangles.svg	8	yes	44	1	495
6.6.1	win	2022-12-14	19:20:32	19:32:56	741962	630dd0429f7ec338d28e2de1	314521415	1	main_z	11	advance_on_keypress_ZEE	76	stimuli_target_squarediamonds.svg	stimuli_distractor_diamondtriangles.svg	8	yes	57	0	955
6.6.1	win	2022-12-14	19:20:32	19:32:58	743966	630dd0429f7ec338d28e2de1	314521415	1	main_z	11	main_z	77	stimuli_distractor_diamondtriangles.svg	stimuli_target_diamondsquares.svg	32	yes	44	1	399
6.6.1	win	2022-12-14	19:20:32	19:32:58	743966	630dd0429f7ec338d28e2de1	314521415	1	main_z	11	advance_on_keypress_ZEE	78	stimuli_distractor_diamondtriangles.svg	stimuli_target_diamondsquares.svg	32	yes	57	0	635
6.6.1	win	2022-12-14	19:20:32	19:33:00	745782	630dd0429f7ec338d28e2de1	314521415	1	main_z	11	main_z	79	stimuli_target_trianglecircles.svg	stimuli_distractor_trianglediamonds.svg	17	yes	44	1	528
6.6.1	win	2022-12-14	19:20:32	19:33:00	745782	630dd0429f7ec338d28e2de1	314521415	1	main_z	11	advance_on_keypress_ZEE	80	stimuli_target_trianglecircles.svg	stimuli_distractor_trianglediamonds.svg	17	yes	57	0	577
6.6.1	win	2022-12-14	19:20:32	19:33:02	747579	630dd0429f7ec338d28e2de1	314521415	1	main_z	11	main_z	81	stimuli_distractor_trianglediamonds.svg	stimuli_target_circletriangles.svg	9	yes	44	1	587
6.6.1	win	2022-12-14	19:20:32	19:33:02	747579	630dd0429f7ec338d28e2de1	314521415	1	main_z	11	advance_on_keypress_ZEE	82	stimuli_distractor_trianglediamonds.svg	stimuli_target_circletriangles.svg	9	yes	57	0	620
6.6.1	win	2022-12-14	19:20:32	19:33:04	749426	630dd0429f7ec338d28e2de1	314521415	1	main_z	11	main_z	83	stimuli_distractor_trianglediamonds.svg	stimuli_target_diamondsquares.svg	28	yes	44	1	580
6.6.1	win	2022-12-14	19:20:32	19:33:04	749426	630dd0429f7ec338d28e2de1	314521415	1	main_z	11	advance_on_keypress_ZEE	84	stimuli_distractor_trianglediamonds.svg	stimuli_target_diamondsquares.svg	28	yes	57	0	438
6.6.1	win	2022-12-14	19:20:32	19:33:05	750980	630dd0429f7ec338d28e2de1	314521415	1	main_z	11	main_z	85	stimuli_distractor_diamondtriangles.svg	stimuli_target_trianglecircles.svg	29	yes	44	1	480
6.6.1	win	2022-12-14	19:20:32	19:33:05	750980	630dd0429f7ec338d28e2de1	314521415	1	main_z	11	advance_on_keypress_ZEE	86	stimuli_distractor_diamondtriangles.svg	stimuli_target_trianglecircles.svg	29	yes	57	0	488
6.6.1	win	2022-12-14	19:20:32	19:33:08	754106	630dd0429f7ec338d28e2de1	314521415	1	main_z	11	main_z	87	stimuli_distractor_trianglediamonds.svg	stimuli_distractor_trianglediamonds.svg	34	no	0	1	2000
6.6.1	win	2022-12-14	19:20:32	19:33:08	754106	630dd0429f7ec338d28e2de1	314521415	1	main_z	11	advance_on_keypress_ZEE	88	stimuli_distractor_trianglediamonds.svg	stimuli_distractor_trianglediamonds.svg	34	no	57	0	487
6.6.1	win	2022-12-14	19:20:32	19:33:10	755580	630dd0429f7ec338d28e2de1	314521415	1	main_z	11	main_z	89	stimuli_target_circlediamonds.svg	stimuli_distractor_diamondtriangles.svg	6	yes	44	1	337
6.6.1	win	2022-12-14	19:20:32	19:33:10	755580	630dd0429f7ec338d28e2de1	314521415	1	main_z	11	advance_on_keypress_ZEE	90	stimuli_target_circlediamonds.svg	stimuli_distractor_diamondtriangles.svg	6	yes	57	0	571
6.6.1	win	2022-12-14	19:20:32	19:33:11	757286	630dd0429f7ec338d28e2de1	314521415	1	main_z	11	main_z	91	stimuli_target_squarediamonds.svg	stimuli_distractor_diamondtriangles.svg	8	yes	44	1	490
6.6.1	win	2022-12-14	19:20:32	19:33:11	757286	630dd0429f7ec338d28e2de1	314521415	1	main_z	11	advance_on_keypress_ZEE	92	stimuli_target_squarediamonds.svg	stimuli_distractor_diamondtriangles.svg	8	yes	57	0	774
6.6.1	win	2022-12-14	19:20:32	19:33:13	759032	630dd0429f7ec338d28e2de1	314521415	1	main_z	11	main_z	93	stimuli_distractor_diamondtriangles.svg	stimuli_target_trianglesquares.svg	30	yes	44	1	330
6.6.1	win	2022-12-14	19:20:32	19:33:13	759032	630dd0429f7ec338d28e2de1	314521415	1	main_z	11	advance_on_keypress_ZEE	94	stimuli_distractor_diamondtriangles.svg	stimuli_target_trianglesquares.svg	30	yes	57	0	645
6.6.1	win	2022-12-14	19:20:32	19:33:15	760596	630dd0429f7ec338d28e2de1	314521415	1	main_z	11	main_z	95	stimuli_target_diamondcircles.svg	stimuli_distractor_trianglediamonds.svg	19	yes	44	1	274
6.6.1	win	2022-12-14	19:20:32	19:33:15	760596	630dd0429f7ec338d28e2de1	314521415	1	main_z	11	advance_on_keypress_ZEE	96	stimuli_target_diamondcircles.svg	stimuli_distractor_trianglediamonds.svg	19	yes	57	0	716
6.6.1	win	2022-12-14	19:20:32	19:33:17	762403	630dd0429f7ec338d28e2de1	314521415	1	main_z	11	main_z	97	stimuli_target_squarediamonds.svg	stimuli_distractor_trianglediamonds.svg	4	yes	44	1	445
6.6.1	win	2022-12-14	19:20:32	19:33:17	762403	630dd0429f7ec338d28e2de1	314521415	1	main_z	11	advance_on_keypress_ZEE	98	stimuli_target_squarediamonds.svg	stimuli_distractor_trianglediamonds.svg	4	yes	57	0	617
6.6.1	win	2022-12-14	19:20:32	19:33:18	764128	630dd0429f7ec338d28e2de1	314521415	1	main_z	11	main_z	99	stimuli_distractor_diamondtriangles.svg	stimuli_target_circlediamonds.svg	14	yes	44	1	466
6.6.1	win	2022-12-14	19:20:32	19:33:18	764128	630dd0429f7ec338d28e2de1	314521415	1	main_z	11	advance_on_keypress_ZEE	100	stimuli_distractor_diamondtriangles.svg	stimuli_target_circlediamonds.svg	14	yes	57	0	333
6.6.1	win	2022-12-14	19:20:32	19:33:21	767118	630dd0429f7ec338d28e2de1	314521415	1	main_z	11	main_z	101	stimuli_distractor_diamondtriangles.svg	stimuli_distractor_diamondtriangles.svg	40	no	0	1	2000
6.6.1	win	2022-12-14	19:20:32	19:33:21	767118	630dd0429f7ec338d28e2de1	314521415	1	main_z	11	advance_on_keypress_ZEE	102	stimuli_distractor_diamondtriangles.svg	stimuli_distractor_diamondtriangles.svg	40	no	57	0	593
6.6.1	win	2022-12-14	19:20:32	19:33:23	768669	630dd0429f7ec338d28e2de1	314521415	1	main_z	11	main_z	103	stimuli_distractor_trianglediamonds.svg	stimuli_target_squarediamonds.svg	12	yes	44	1	313
6.6.1	win	2022-12-14	19:20:32	19:33:23	768669	630dd0429f7ec338d28e2de1	314521415	1	main_z	11	advance_on_keypress_ZEE	104	stimuli_distractor_trianglediamonds.svg	stimuli_target_squarediamonds.svg	12	yes	57	0	630
6.6.1	win	2022-12-14	19:20:32	19:33:24	770314	630dd0429f7ec338d28e2de1	314521415	1	main_z	11	main_z	105	stimuli_target_trianglecircles.svg	stimuli_distractor_trianglediamonds.svg	17	yes	44	1	371
6.6.1	win	2022-12-14	19:20:32	19:33:24	770314	630dd0429f7ec338d28e2de1	314521415	1	main_z	11	advance_on_keypress_ZEE	106	stimuli_target_trianglecircles.svg	stimuli_distractor_trianglediamonds.svg	17	yes	57	0	610
6.6.1	win	2022-12-14	19:20:32	19:33:26	771999	630dd0429f7ec338d28e2de1	314521415	1	main_z	11	main_z	107	stimuli_target_circlediamonds.svg	stimuli_distractor_trianglediamonds.svg	2	yes	44	1	419
6.6.1	win	2022-12-14	19:20:32	19:33:26	771999	630dd0429f7ec338d28e2de1	314521415	1	main_z	11	advance_on_keypress_ZEE	108	stimuli_target_circlediamonds.svg	stimuli_distractor_trianglediamonds.svg	2	yes	57	0	457
6.6.1	win	2022-12-14	19:20:32	19:33:28	773715	630dd0429f7ec338d28e2de1	314521415	1	main_z	11	main_z	109	stimuli_distractor_trianglediamonds.svg	stimuli_target_diamondcircles.svg	27	yes	44	1	614
6.6.1	win	2022-12-14	19:20:32	19:33:28	773715	630dd0429f7ec338d28e2de1	314521415	1	main_z	11	advance_on_keypress_ZEE	110	stimuli_distractor_trianglediamonds.svg	stimuli_target_diamondcircles.svg	27	yes	57	0	382
6.6.1	win	2022-12-14	19:20:32	19:33:31	776756	630dd0429f7ec338d28e2de1	314521415	1	main_z	11	main_z	111	stimuli_target_diamondsquares.svg	stimuli_distractor_trianglediamonds.svg	20	yes	0	0	2000
6.6.1	win	2022-12-14	19:20:32	19:33:31	776756	630dd0429f7ec338d28e2de1	314521415	1	main_z	11	advance_on_keypress_ZEE	112	stimuli_target_diamondsquares.svg	stimuli_distractor_trianglediamonds.svg	20	yes	57	0	935
6.6.1	win	2022-12-14	19:20:32	19:33:33	778830	630dd0429f7ec338d28e2de1	314521415	1	main_z	11	main_z	113	stimuli_distractor_trianglediamonds.svg	stimuli_target_squaretriangles.svg	11	yes	44	1	485
6.6.1	win	2022-12-14	19:20:32	19:33:33	778830	630dd0429f7ec338d28e2de1	314521415	1	main_z	11	advance_on_keypress_ZEE	114	stimuli_distractor_trianglediamonds.svg	stimuli_target_squaretriangles.svg	11	yes	57	0	568
6.6.1	win	2022-12-14	19:20:32	19:33:35	780666	630dd0429f7ec338d28e2de1	314521415	1	main_z	11	main_z	115	stimuli_distractor_trianglediamonds.svg	stimuli_target_circlediamonds.svg	10	yes	44	1	617
6.6.1	win	2022-12-14	19:20:32	19:33:35	780666	630dd0429f7ec338d28e2de1	314521415	1	main_z	11	advance_on_keypress_ZEE	116	stimuli_distractor_trianglediamonds.svg	stimuli_target_circlediamonds.svg	10	yes	57	0	547
6.6.1	win	2022-12-14	19:20:32	19:33:37	782423	630dd0429f7ec338d28e2de1	314521415	1	main_z	11	main_z	117	stimuli_target_squaretriangles.svg	stimuli_distractor_trianglediamonds.svg	3	yes	44	1	554
6.6.1	win	2022-12-14	19:20:32	19:33:37	782423	630dd0429f7ec338d28e2de1	314521415	1	main_z	11	advance_on_keypress_ZEE	118	stimuli_target_squaretriangles.svg	stimuli_distractor_trianglediamonds.svg	3	yes	57	0	528
6.6.1	win	2022-12-14	19:20:32	19:33:38	784067	630dd0429f7ec338d28e2de1	314521415	1	main_z	11	main_z	119	stimuli_target_trianglecircles.svg	stimuli_distractor_diamondtriangles.svg	21	yes	44	1	444
6.6.1	win	2022-12-14	19:20:32	19:33:38	784067	630dd0429f7ec338d28e2de1	314521415	1	main_z	11	advance_on_keypress_ZEE	120	stimuli_target_trianglecircles.svg	stimuli_distractor_diamondtriangles.svg	21	yes	57	0	507
6.6.1	win	2022-12-14	19:20:32	19:33:40	785661	630dd0429f7ec338d28e2de1	314521415	1	main_z	11	main_z	121	stimuli_distractor_diamondtriangles.svg	stimuli_target_squaretriangles.svg	15	yes	44	1	451
6.6.1	win	2022-12-14	19:20:32	19:33:40	785661	630dd0429f7ec338d28e2de1	314521415	1	main_z	11	advance_on_keypress_ZEE	122	stimuli_distractor_diamondtriangles.svg	stimuli_target_squaretriangles.svg	15	yes	57	0	376
6.6.1	win	2022-12-14	19:20:32	19:33:42	787417	630dd0429f7ec338d28e2de1	314521415	1	main_z	11	main_z	123	stimuli_distractor_diamondtriangles.svg	stimuli_target_diamondsquares.svg	32	yes	44	1	737
6.6.1	win	2022-12-14	19:20:32	19:33:42	787417	630dd0429f7ec338d28e2de1	314521415	1	main_z	11	advance_on_keypress_ZEE	124	stimuli_distractor_diamondtriangles.svg	stimuli_target_diamondsquares.svg	32	yes	57	0	570
6.6.1	win	2022-12-14	19:20:32	19:33:43	789305	630dd0429f7ec338d28e2de1	314521415	1	main_z	11	main_z	125	stimuli_target_diamondsquares.svg	stimuli_distractor_diamondtriangles.svg	24	yes	44	1	670
6.6.1	win	2022-12-14	19:20:32	19:33:43	789305	630dd0429f7ec338d28e2de1	314521415	1	main_z	11	advance_on_keypress_ZEE	126	stimuli_target_diamondsquares.svg	stimuli_distractor_diamondtriangles.svg	24	yes	57	0	651
6.6.1	win	2022-12-14	19:20:32	19:33:47	792608	630dd0429f7ec338d28e2de1	314521415	1	main_z	11	main_z	127	stimuli_distractor_diamondtriangles.svg	stimuli_distractor_trianglediamonds.svg	38	no	0	1	2000
6.6.1	win	2022-12-14	19:20:32	19:33:47	792608	630dd0429f7ec338d28e2de1	314521415	1	main_z	11	advance_on_keypress_ZEE	128	stimuli_distractor_diamondtriangles.svg	stimuli_distractor_trianglediamonds.svg	38	no	57	0	571
6.6.1	win	2022-12-14	19:20:32	19:33:48	794309	630dd0429f7ec338d28e2de1	314521415	1	main_z	11	main_z	129	stimuli_distractor_diamondtriangles.svg	stimuli_target_squarediamonds.svg	16	yes	44	1	480
6.6.1	win	2022-12-14	19:20:32	19:33:48	794309	630dd0429f7ec338d28e2de1	314521415	1	main_z	11	advance_on_keypress_ZEE	130	stimuli_distractor_diamondtriangles.svg	stimuli_target_squarediamonds.svg	16	yes	57	0	549
6.6.1	win	2022-12-14	19:20:32	19:33:50	796004	630dd0429f7ec338d28e2de1	314521415	1	main_z	11	main_z	131	stimuli_distractor_diamondtriangles.svg	stimuli_target_diamondcircles.svg	31	yes	44	1	505
6.6.1	win	2022-12-14	19:20:32	19:33:50	796004	630dd0429f7ec338d28e2de1	314521415	1	main_z	11	advance_on_keypress_ZEE	132	stimuli_distractor_diamondtriangles.svg	stimuli_target_diamondcircles.svg	31	yes	57	0	572
6.6.1	win	2022-12-14	19:20:32	19:33:53	799223	630dd0429f7ec338d28e2de1	314521415	1	main_z	11	main_z	133	stimuli_distractor_diamondtriangles.svg	stimuli_distractor_trianglediamonds.svg	37	no	0	1	2000
6.6.1	win	2022-12-14	19:20:32	19:33:53	799223	630dd0429f7ec338d28e2de1	314521415	1	main_z	11	advance_on_keypress_ZEE	134	stimuli_distractor_diamondtriangles.svg	stimuli_distractor_trianglediamonds.svg	37	no	57	0	456
6.6.1	win	2022-12-14	19:20:32	19:33:56	802330	630dd0429f7ec338d28e2de1	314521415	1	main_z	11	main_z	135	stimuli_distractor_trianglediamonds.svg	stimuli_distractor_trianglediamonds.svg	33	no	0	1	2000
6.6.1	win	2022-12-14	19:20:32	19:33:56	802330	630dd0429f7ec338d28e2de1	314521415	1	main_z	11	advance_on_keypress_ZEE	136	stimuli_distractor_trianglediamonds.svg	stimuli_distractor_trianglediamonds.svg	33	no	57	0	335
6.6.1	win	2022-12-14	19:20:32	19:33:58	803884	630dd0429f7ec338d28e2de1	314521415	1	main_z	11	main_z	137	stimuli_distractor_diamondtriangles.svg	stimuli_target_circletriangles.svg	13	yes	44	1	569
6.6.1	win	2022-12-14	19:20:32	19:33:58	803884	630dd0429f7ec338d28e2de1	314521415	1	main_z	11	advance_on_keypress_ZEE	138	stimuli_distractor_diamondtriangles.svg	stimuli_target_circletriangles.svg	13	yes	57	0	649
6.6.1	win	2022-12-14	19:20:32	19:34:00	805681	630dd0429f7ec338d28e2de1	314521415	1	main_z	11	main_z	139	stimuli_distractor_trianglediamonds.svg	stimuli_target_trianglecircles.svg	25	yes	44	1	494
6.6.1	win	2022-12-14	19:20:32	19:34:00	805681	630dd0429f7ec338d28e2de1	314521415	1	main_z	11	advance_on_keypress_ZEE	140	stimuli_distractor_trianglediamonds.svg	stimuli_target_trianglecircles.svg	25	yes	57	0	2251
6.6.1	win	2022-12-14	19:20:32	19:34:03	809082	630dd0429f7ec338d28e2de1	314521415	1	main_z	11	main_z	141	stimuli_target_trianglesquares.svg	stimuli_distractor_trianglediamonds.svg	18	yes	44	1	503
6.6.1	win	2022-12-14	19:20:32	19:34:03	809082	630dd0429f7ec338d28e2de1	314521415	1	main_z	11	advance_on_keypress_ZEE	142	stimuli_target_trianglesquares.svg	stimuli_distractor_trianglediamonds.svg	18	yes	57	0	3104
6.6.1	win	2022-12-14	19:20:32	19:34:07	813208	630dd0429f7ec338d28e2de1	314521415	1	main_z	11	main_z	143	stimuli_target_squaretriangles.svg	stimuli_distractor_diamondtriangles.svg	7	yes	44	1	370
6.6.1	win	2022-12-14	19:20:32	19:34:07	813208	630dd0429f7ec338d28e2de1	314521415	1	main_z	11	advance_on_keypress_ZEE	144	stimuli_target_squaretriangles.svg	stimuli_distractor_diamondtriangles.svg	7	yes	57	0	702
6.6.1	win	2022-12-14	19:20:32	19:34:09	814874	630dd0429f7ec338d28e2de1	314521415	1	main_z	11	main_z	145	stimuli_distractor_trianglediamonds.svg	stimuli_distractor_diamondtriangles.svg	35	no	44	0	316
6.6.1	win	2022-12-14	19:20:32	19:34:09	814874	630dd0429f7ec338d28e2de1	314521415	1	main_z	11	advance_on_keypress_ZEE	146	stimuli_distractor_trianglediamonds.svg	stimuli_distractor_diamondtriangles.svg	35	no	57	0	788
6.6.1	win	2022-12-14	19:20:32	19:34:12	818315	630dd0429f7ec338d28e2de1	314521415	1	main_z	11	main_z	147	stimuli_distractor_diamondtriangles.svg	stimuli_distractor_diamondtriangles.svg	39	no	0	1	2000
6.6.1	win	2022-12-14	19:20:32	19:34:12	818315	630dd0429f7ec338d28e2de1	314521415	1	main_z	11	advance_on_keypress_ZEE	148	stimuli_distractor_diamondtriangles.svg	stimuli_distractor_diamondtriangles.svg	39	no	57	0	758
6.6.1	win	2022-12-14	19:20:32	19:34:14	820040	630dd0429f7ec338d28e2de1	314521415	1	main_z	11	main_z	149	stimuli_target_diamondcircles.svg	stimuli_distractor_diamondtriangles.svg	23	yes	44	1	321
6.6.1	win	2022-12-14	19:20:32	19:34:14	820040	630dd0429f7ec338d28e2de1	314521415	1	main_z	11	advance_on_keypress_ZEE	150	stimuli_target_diamondcircles.svg	stimuli_distractor_diamondtriangles.svg	23	yes	57	0	661
6.6.1	win	2022-12-14	19:20:32	19:34:17	823343	630dd0429f7ec338d28e2de1	314521415	1	main_z	11	main_z	151	stimuli_distractor_trianglediamonds.svg	stimuli_distractor_diamondtriangles.svg	36	no	0	1	2000
6.6.1	win	2022-12-14	19:20:32	19:34:17	823343	630dd0429f7ec338d28e2de1	314521415	1	main_z	11	advance_on_keypress_ZEE	152	stimuli_distractor_trianglediamonds.svg	stimuli_distractor_diamondtriangles.svg	36	no	57	0	332
6.6.1	win	2022-12-14	19:20:32	19:34:19	824813	630dd0429f7ec338d28e2de1	314521415	1	main_z	11	main_z	153	stimuli_target_trianglesquares.svg	stimuli_distractor_diamondtriangles.svg	22	yes	44	1	483
6.6.1	win	2022-12-14	19:20:32	19:34:19	824813	630dd0429f7ec338d28e2de1	314521415	1	main_z	11	advance_on_keypress_ZEE	154	stimuli_target_trianglesquares.svg	stimuli_distractor_diamondtriangles.svg	22	yes	57	0	718
6.6.1	win	2022-12-14	19:20:32	19:34:21	826599	630dd0429f7ec338d28e2de1	314521415	1	main_z	11	main_z	155	stimuli_target_circletriangles.svg	stimuli_distractor_trianglediamonds.svg	1	yes	44	1	415
6.6.1	win	2022-12-14	19:20:32	19:34:21	826599	630dd0429f7ec338d28e2de1	314521415	1	main_z	11	advance_on_keypress_ZEE	156	stimuli_target_circletriangles.svg	stimuli_distractor_trianglediamonds.svg	1	yes	57	0	485
6.6.1	win	2022-12-14	19:20:32	19:34:22	828123	630dd0429f7ec338d28e2de1	314521415	1	main_z	11	main_z	157	stimuli_target_circletriangles.svg	stimuli_distractor_diamondtriangles.svg	5	yes	44	1	386
6.6.1	win	2022-12-14	19:20:32	19:34:22	828123	630dd0429f7ec338d28e2de1	314521415	1	main_z	11	advance_on_keypress_ZEE	158	stimuli_target_circletriangles.svg	stimuli_distractor_diamondtriangles.svg	5	yes	57	0	721
6.6.1	win	2022-12-14	19:20:32	19:34:24	829849	630dd0429f7ec338d28e2de1	314521415	1	main_z	11	main_z	159	stimuli_distractor_trianglediamonds.svg	stimuli_target_trianglesquares.svg	26	yes	44	1	358
6.6.1	win	2022-12-14	19:20:32	19:34:24	829849	630dd0429f7ec338d28e2de1	314521415	1	main_z	11	advance_on_keypress_ZEE	160	stimuli_distractor_trianglediamonds.svg	stimuli_target_trianglesquares.svg	26	yes	57	0	564