build	computer.platform	date	time	timestamp	time_elapsed_ms	subject	group	session	blockcode	blocknum	trialcode	trialnum	stimulus_left	stimulus_right	stim_index	target_present	response	correct	latency
6.6.1	win	2022-12-14	15:00:44	15:04:07	201634	56279953ddff3c0005bcdba9	141723665	1	practice_slash	5	practice_slash	1	stimuli_distractor_trianglediamonds.svg	stimuli_target_squarediamonds.svg	11	yes	0	0	2000
6.6.1	win	2022-12-14	15:00:44	15:04:07	201634	56279953ddff3c0005bcdba9	141723665	1	practice_slash	5	advance_on_keypress_SLASH	2	stimuli_distractor_trianglediamonds.svg	stimuli_target_squarediamonds.svg	11	yes	57	0	1181
6.6.1	win	2022-12-14	15:00:44	15:04:10	205096	56279953ddff3c0005bcdba9	141723665	1	practice_slash	5	practice_slash	3	stimuli_target_circlediamonds.svg	stimuli_distractor_trianglediamonds.svg	4	yes	53	1	635
6.6.1	win	2022-12-14	15:00:44	15:04:10	205096	56279953ddff3c0005bcdba9	141723665	1	practice_slash	5	advance_on_keypress_SLASH	4	stimuli_target_circlediamonds.svg	stimuli_distractor_trianglediamonds.svg	4	yes	57	0	749
6.6.1	win	2022-12-14	15:00:44	15:04:13	208167	56279953ddff3c0005bcdba9	141723665	1	practice_slash	5	practice_slash	5	stimuli_target_squarediamonds.svg	stimuli_distractor_diamondtriangles.svg	2	yes	53	1	675
6.6.1	win	2022-12-14	15:00:44	15:04:13	208167	56279953ddff3c0005bcdba9	141723665	1	practice_slash	5	advance_on_keypress_SLASH	6	stimuli_target_squarediamonds.svg	stimuli_distractor_diamondtriangles.svg	2	yes	57	0	731
6.6.1	win	2022-12-14	15:00:44	15:04:16	211084	56279953ddff3c0005bcdba9	141723665	1	practice_slash	5	practice_slash	7	stimuli_target_circlediamonds.svg	stimuli_distractor_diamondtriangles.svg	1	yes	53	1	530
6.6.1	win	2022-12-14	15:00:44	15:04:16	211084	56279953ddff3c0005bcdba9	141723665	1	practice_slash	5	advance_on_keypress_SLASH	8	stimuli_target_circlediamonds.svg	stimuli_distractor_diamondtriangles.svg	1	yes	57	0	651
6.6.1	win	2022-12-14	15:00:44	15:04:21	215383	56279953ddff3c0005bcdba9	141723665	1	practice_slash	5	practice_slash	9	stimuli_distractor_trianglediamonds.svg	stimuli_distractor_trianglediamonds.svg	15	no	0	1	2000
6.6.1	win	2022-12-14	15:00:44	15:04:21	215383	56279953ddff3c0005bcdba9	141723665	1	practice_slash	5	advance_on_keypress_SLASH	10	stimuli_distractor_trianglediamonds.svg	stimuli_distractor_trianglediamonds.svg	15	no	57	0	486
6.6.1	win	2022-12-14	15:00:44	15:04:24	218676	56279953ddff3c0005bcdba9	141723665	1	practice_slash	5	practice_slash	11	stimuli_distractor_trianglediamonds.svg	stimuli_distractor_diamondtriangles.svg	16	no	53	0	1163
6.6.1	win	2022-12-14	15:00:44	15:04:24	218676	56279953ddff3c0005bcdba9	141723665	1	practice_slash	5	advance_on_keypress_SLASH	12	stimuli_distractor_trianglediamonds.svg	stimuli_distractor_diamondtriangles.svg	16	no	57	0	467
6.6.1	win	2022-12-14	15:00:44	15:04:27	221520	56279953ddff3c0005bcdba9	141723665	1	practice_slash	5	practice_slash	13	stimuli_target_diamondsquares.svg	stimuli_distractor_trianglediamonds.svg	6	yes	53	1	728
6.6.1	win	2022-12-14	15:00:44	15:04:27	221520	56279953ddff3c0005bcdba9	141723665	1	practice_slash	5	advance_on_keypress_SLASH	14	stimuli_target_diamondsquares.svg	stimuli_distractor_trianglediamonds.svg	6	yes	57	0	465
6.6.1	win	2022-12-14	15:00:44	15:04:31	225637	56279953ddff3c0005bcdba9	141723665	1	practice_slash	5	practice_slash	15	stimuli_distractor_diamondtriangles.svg	stimuli_distractor_diamondtriangles.svg	13	no	0	1	2000
6.6.1	win	2022-12-14	15:00:44	15:04:31	225637	56279953ddff3c0005bcdba9	141723665	1	practice_slash	5	advance_on_keypress_SLASH	16	stimuli_distractor_diamondtriangles.svg	stimuli_distractor_diamondtriangles.svg	13	no	57	0	618
6.6.1	win	2022-12-14	15:00:44	15:04:34	228669	56279953ddff3c0005bcdba9	141723665	1	practice_slash	5	practice_slash	17	stimuli_distractor_diamondtriangles.svg	stimuli_target_diamondcircles.svg	8	yes	53	1	769
6.6.1	win	2022-12-14	15:00:44	15:04:34	228669	56279953ddff3c0005bcdba9	141723665	1	practice_slash	5	advance_on_keypress_SLASH	18	stimuli_distractor_diamondtriangles.svg	stimuli_target_diamondcircles.svg	8	yes	57	0	567
6.6.1	win	2022-12-14	15:00:44	15:04:37	231750	56279953ddff3c0005bcdba9	141723665	1	practice_slash	5	practice_slash	19	stimuli_distractor_diamondtriangles.svg	stimuli_target_circletriangles.svg	7	yes	53	1	872
6.6.1	win	2022-12-14	15:00:44	15:04:37	231750	56279953ddff3c0005bcdba9	141723665	1	practice_slash	5	advance_on_keypress_SLASH	20	stimuli_distractor_diamondtriangles.svg	stimuli_target_circletriangles.svg	7	yes	57	0	548
6.6.1	win	2022-12-14	15:00:44	15:04:40	235121	56279953ddff3c0005bcdba9	141723665	1	practice_slash	5	practice_slash	21	stimuli_target_squarediamonds.svg	stimuli_distractor_trianglediamonds.svg	5	yes	53	1	1179
6.6.1	win	2022-12-14	15:00:44	15:04:40	235121	56279953ddff3c0005bcdba9	141723665	1	practice_slash	5	advance_on_keypress_SLASH	22	stimuli_target_squarediamonds.svg	stimuli_distractor_trianglediamonds.svg	5	yes	57	0	480
6.6.1	win	2022-12-14	15:00:44	15:04:43	238261	56279953ddff3c0005bcdba9	141723665	1	practice_slash	5	practice_slash	23	stimuli_target_diamondsquares.svg	stimuli_distractor_diamondtriangles.svg	3	yes	53	1	1006
6.6.1	win	2022-12-14	15:00:44	15:04:43	238261	56279953ddff3c0005bcdba9	141723665	1	practice_slash	5	advance_on_keypress_SLASH	24	stimuli_target_diamondsquares.svg	stimuli_distractor_diamondtriangles.svg	3	yes	57	0	537
6.6.1	win	2022-12-14	15:00:44	15:04:48	242433	56279953ddff3c0005bcdba9	141723665	1	practice_slash	5	practice_slash	25	stimuli_distractor_diamondtriangles.svg	stimuli_distractor_trianglediamonds.svg	14	no	0	1	2000
6.6.1	win	2022-12-14	15:00:44	15:04:48	242433	56279953ddff3c0005bcdba9	141723665	1	practice_slash	5	advance_on_keypress_SLASH	26	stimuli_distractor_diamondtriangles.svg	stimuli_distractor_trianglediamonds.svg	14	no	57	0	431
6.6.1	win	2022-12-14	15:00:44	15:04:51	245485	56279953ddff3c0005bcdba9	141723665	1	practice_slash	5	practice_slash	27	stimuli_distractor_diamondtriangles.svg	stimuli_target_trianglecircles.svg	9	yes	53	1	973
6.6.1	win	2022-12-14	15:00:44	15:04:51	245485	56279953ddff3c0005bcdba9	141723665	1	practice_slash	5	advance_on_keypress_SLASH	28	stimuli_distractor_diamondtriangles.svg	stimuli_target_trianglecircles.svg	9	yes	57	0	622
6.6.1	win	2022-12-14	15:00:44	15:04:54	248927	56279953ddff3c0005bcdba9	141723665	1	practice_slash	5	practice_slash	29	stimuli_distractor_trianglediamonds.svg	stimuli_target_diamondcircles.svg	12	yes	53	1	1185
6.6.1	win	2022-12-14	15:00:44	15:04:54	248927	56279953ddff3c0005bcdba9	141723665	1	practice_slash	5	advance_on_keypress_SLASH	30	stimuli_distractor_trianglediamonds.svg	stimuli_target_diamondcircles.svg	12	yes	57	0	468
6.6.1	win	2022-12-14	15:00:44	15:04:57	252172	56279953ddff3c0005bcdba9	141723665	1	practice_slash	5	practice_slash	31	stimuli_distractor_trianglediamonds.svg	stimuli_target_circlediamonds.svg	10	yes	53	1	1135
6.6.1	win	2022-12-14	15:00:44	15:04:57	252172	56279953ddff3c0005bcdba9	141723665	1	practice_slash	5	advance_on_keypress_SLASH	32	stimuli_distractor_trianglediamonds.svg	stimuli_target_circlediamonds.svg	10	yes	57	0	429
6.6.1	win	2022-12-14	15:00:44	15:05:04	258549	56279953ddff3c0005bcdba9	141723665	1	main_slash	7	main_slash	1	stimuli_distractor_diamondtriangles.svg	stimuli_target_circlediamonds.svg	14	yes	53	1	856
6.6.1	win	2022-12-14	15:00:44	15:05:04	258549	56279953ddff3c0005bcdba9	141723665	1	main_slash	7	advance_on_keypress_SLASH	2	stimuli_distractor_diamondtriangles.svg	stimuli_target_circlediamonds.svg	14	yes	57	0	1491
6.6.1	win	2022-12-14	15:00:44	15:05:07	261396	56279953ddff3c0005bcdba9	141723665	1	main_slash	7	main_slash	3	stimuli_distractor_diamondtriangles.svg	stimuli_target_squarediamonds.svg	16	yes	53	1	724
6.6.1	win	2022-12-14	15:00:44	15:05:07	261396	56279953ddff3c0005bcdba9	141723665	1	main_slash	7	advance_on_keypress_SLASH	4	stimuli_distractor_diamondtriangles.svg	stimuli_target_squarediamonds.svg	16	yes	57	0	1249
6.6.1	win	2022-12-14	15:00:44	15:05:10	264418	56279953ddff3c0005bcdba9	141723665	1	main_slash	7	main_slash	5	stimuli_distractor_trianglediamonds.svg	stimuli_target_squarediamonds.svg	12	yes	53	1	1132
6.6.1	win	2022-12-14	15:00:44	15:05:10	264418	56279953ddff3c0005bcdba9	141723665	1	main_slash	7	advance_on_keypress_SLASH	6	stimuli_distractor_trianglediamonds.svg	stimuli_target_squarediamonds.svg	12	yes	57	0	853
6.6.1	win	2022-12-14	15:00:44	15:05:13	267916	56279953ddff3c0005bcdba9	141723665	1	main_slash	7	main_slash	7	stimuli_distractor_trianglediamonds.svg	stimuli_distractor_diamondtriangles.svg	36	no	0	1	2000
6.6.1	win	2022-12-14	15:00:44	15:05:13	267916	56279953ddff3c0005bcdba9	141723665	1	main_slash	7	advance_on_keypress_SLASH	8	stimuli_distractor_trianglediamonds.svg	stimuli_distractor_diamondtriangles.svg	36	no	57	0	603
6.6.1	win	2022-12-14	15:00:44	15:05:16	271162	56279953ddff3c0005bcdba9	141723665	1	main_slash	7	main_slash	9	stimuli_distractor_diamondtriangles.svg	stimuli_distractor_diamondtriangles.svg	40	no	0	1	2000
6.6.1	win	2022-12-14	15:00:44	15:05:16	271162	56279953ddff3c0005bcdba9	141723665	1	main_slash	7	advance_on_keypress_SLASH	10	stimuli_distractor_diamondtriangles.svg	stimuli_distractor_diamondtriangles.svg	40	no	57	0	441
6.6.1	win	2022-12-14	15:00:44	15:05:18	273089	56279953ddff3c0005bcdba9	141723665	1	main_slash	7	main_slash	11	stimuli_target_diamondcircles.svg	stimuli_distractor_diamondtriangles.svg	23	yes	53	1	846
6.6.1	win	2022-12-14	15:00:44	15:05:18	273089	56279953ddff3c0005bcdba9	141723665	1	main_slash	7	advance_on_keypress_SLASH	12	stimuli_target_diamondcircles.svg	stimuli_distractor_diamondtriangles.svg	23	yes	57	0	953
6.6.1	win	2022-12-14	15:00:44	15:05:21	275539	56279953ddff3c0005bcdba9	141723665	1	main_slash	7	main_slash	13	stimuli_target_trianglesquares.svg	stimuli_distractor_trianglediamonds.svg	18	yes	53	1	850
6.6.1	win	2022-12-14	15:00:44	15:05:21	275539	56279953ddff3c0005bcdba9	141723665	1	main_slash	7	advance_on_keypress_SLASH	14	stimuli_target_trianglesquares.svg	stimuli_distractor_trianglediamonds.svg	18	yes	57	0	1059
6.6.1	win	2022-12-14	15:00:44	15:05:23	278078	56279953ddff3c0005bcdba9	141723665	1	main_slash	7	main_slash	15	stimuli_distractor_diamondtriangles.svg	stimuli_target_diamondsquares.svg	32	yes	53	1	843
6.6.1	win	2022-12-14	15:00:44	15:05:23	278078	56279953ddff3c0005bcdba9	141723665	1	main_slash	7	advance_on_keypress_SLASH	16	stimuli_distractor_diamondtriangles.svg	stimuli_target_diamondsquares.svg	32	yes	57	0	1078
6.6.1	win	2022-12-14	15:00:44	15:05:26	280756	56279953ddff3c0005bcdba9	141723665	1	main_slash	7	main_slash	17	stimuli_target_trianglecircles.svg	stimuli_distractor_trianglediamonds.svg	17	yes	53	1	974
6.6.1	win	2022-12-14	15:00:44	15:05:26	280756	56279953ddff3c0005bcdba9	141723665	1	main_slash	7	advance_on_keypress_SLASH	18	stimuli_target_trianglecircles.svg	stimuli_distractor_trianglediamonds.svg	17	yes	57	0	1177
6.6.1	win	2022-12-14	15:00:44	15:05:29	283514	56279953ddff3c0005bcdba9	141723665	1	main_slash	7	main_slash	19	stimuli_distractor_diamondtriangles.svg	stimuli_target_trianglecircles.svg	29	yes	53	1	952
6.6.1	win	2022-12-14	15:00:44	15:05:29	283514	56279953ddff3c0005bcdba9	141723665	1	main_slash	7	advance_on_keypress_SLASH	20	stimuli_distractor_diamondtriangles.svg	stimuli_target_trianglecircles.svg	29	yes	57	0	938
6.6.1	win	2022-12-14	15:00:44	15:05:31	286097	56279953ddff3c0005bcdba9	141723665	1	main_slash	7	main_slash	21	stimuli_distractor_trianglediamonds.svg	stimuli_target_diamondcircles.svg	27	yes	53	1	1004
6.6.1	win	2022-12-14	15:00:44	15:05:31	286097	56279953ddff3c0005bcdba9	141723665	1	main_slash	7	advance_on_keypress_SLASH	22	stimuli_distractor_trianglediamonds.svg	stimuli_target_diamondcircles.svg	27	yes	57	0	871
6.6.1	win	2022-12-14	15:00:44	15:05:34	288672	56279953ddff3c0005bcdba9	141723665	1	main_slash	7	main_slash	23	stimuli_target_circlediamonds.svg	stimuli_distractor_diamondtriangles.svg	6	yes	53	1	1067
6.6.1	win	2022-12-14	15:00:44	15:05:34	288672	56279953ddff3c0005bcdba9	141723665	1	main_slash	7	advance_on_keypress_SLASH	24	stimuli_target_circlediamonds.svg	stimuli_distractor_diamondtriangles.svg	6	yes	57	0	1002
6.6.1	win	2022-12-14	15:00:44	15:05:38	292319	56279953ddff3c0005bcdba9	141723665	1	main_slash	7	main_slash	25	stimuli_distractor_trianglediamonds.svg	stimuli_distractor_trianglediamonds.svg	34	no	0	1	2000
6.6.1	win	2022-12-14	15:00:44	15:05:38	292319	56279953ddff3c0005bcdba9	141723665	1	main_slash	7	advance_on_keypress_SLASH	26	stimuli_distractor_trianglediamonds.svg	stimuli_distractor_trianglediamonds.svg	34	no	57	0	478
6.6.1	win	2022-12-14	15:00:44	15:05:41	295448	56279953ddff3c0005bcdba9	141723665	1	main_slash	7	main_slash	27	stimuli_distractor_trianglediamonds.svg	stimuli_distractor_trianglediamonds.svg	33	no	0	1	2000
6.6.1	win	2022-12-14	15:00:44	15:05:41	295448	56279953ddff3c0005bcdba9	141723665	1	main_slash	7	advance_on_keypress_SLASH	28	stimuli_distractor_trianglediamonds.svg	stimuli_distractor_trianglediamonds.svg	33	no	57	0	499
6.6.1	win	2022-12-14	15:00:44	15:05:44	298594	56279953ddff3c0005bcdba9	141723665	1	main_slash	7	main_slash	29	stimuli_distractor_diamondtriangles.svg	stimuli_distractor_diamondtriangles.svg	39	no	0	1	2000
6.6.1	win	2022-12-14	15:00:44	15:05:44	298594	56279953ddff3c0005bcdba9	141723665	1	main_slash	7	advance_on_keypress_SLASH	30	stimuli_distractor_diamondtriangles.svg	stimuli_distractor_diamondtriangles.svg	39	no	57	0	487
6.6.1	win	2022-12-14	15:00:44	15:05:46	300613	56279953ddff3c0005bcdba9	141723665	1	main_slash	7	main_slash	31	stimuli_distractor_diamondtriangles.svg	stimuli_target_squaretriangles.svg	15	yes	53	1	889
6.6.1	win	2022-12-14	15:00:44	15:05:46	300613	56279953ddff3c0005bcdba9	141723665	1	main_slash	7	advance_on_keypress_SLASH	32	stimuli_distractor_diamondtriangles.svg	stimuli_target_squaretriangles.svg	15	yes	57	0	724
6.6.1	win	2022-12-14	15:00:44	15:05:48	302882	56279953ddff3c0005bcdba9	141723665	1	main_slash	7	main_slash	33	stimuli_target_trianglecircles.svg	stimuli_distractor_diamondtriangles.svg	21	yes	53	1	911
6.6.1	win	2022-12-14	15:00:44	15:05:48	302882	56279953ddff3c0005bcdba9	141723665	1	main_slash	7	advance_on_keypress_SLASH	34	stimuli_target_trianglecircles.svg	stimuli_distractor_diamondtriangles.svg	21	yes	57	0	809
6.6.1	win	2022-12-14	15:00:44	15:05:51	305303	56279953ddff3c0005bcdba9	141723665	1	main_slash	7	main_slash	35	stimuli_distractor_diamondtriangles.svg	stimuli_distractor_trianglediamonds.svg	38	no	53	0	985
6.6.1	win	2022-12-14	15:00:44	15:05:51	305303	56279953ddff3c0005bcdba9	141723665	1	main_slash	7	advance_on_keypress_SLASH	36	stimuli_distractor_diamondtriangles.svg	stimuli_distractor_trianglediamonds.svg	38	no	57	0	768
6.6.1	win	2022-12-14	15:00:44	15:05:53	307677	56279953ddff3c0005bcdba9	141723665	1	main_slash	7	main_slash	37	stimuli_distractor_trianglediamonds.svg	stimuli_target_trianglesquares.svg	26	yes	53	1	960
6.6.1	win	2022-12-14	15:00:44	15:05:53	307677	56279953ddff3c0005bcdba9	141723665	1	main_slash	7	advance_on_keypress_SLASH	38	stimuli_distractor_trianglediamonds.svg	stimuli_target_trianglesquares.svg	26	yes	57	0	811
6.6.1	win	2022-12-14	15:00:44	15:05:55	309961	56279953ddff3c0005bcdba9	141723665	1	main_slash	7	main_slash	39	stimuli_target_diamondcircles.svg	stimuli_distractor_trianglediamonds.svg	19	yes	53	1	832
6.6.1	win	2022-12-14	15:00:44	15:05:55	309961	56279953ddff3c0005bcdba9	141723665	1	main_slash	7	advance_on_keypress_SLASH	40	stimuli_target_diamondcircles.svg	stimuli_distractor_trianglediamonds.svg	19	yes	57	0	759
6.6.1	win	2022-12-14	15:00:44	15:05:58	312291	56279953ddff3c0005bcdba9	141723665	1	main_slash	7	main_slash	41	stimuli_target_circletriangles.svg	stimuli_distractor_diamondtriangles.svg	5	yes	53	1	932
6.6.1	win	2022-12-14	15:00:44	15:05:58	312291	56279953ddff3c0005bcdba9	141723665	1	main_slash	7	advance_on_keypress_SLASH	42	stimuli_target_circletriangles.svg	stimuli_distractor_diamondtriangles.svg	5	yes	57	0	886
6.6.1	win	2022-12-14	15:00:44	15:06:00	314723	56279953ddff3c0005bcdba9	141723665	1	main_slash	7	main_slash	43	stimuli_target_circlediamonds.svg	stimuli_distractor_trianglediamonds.svg	2	yes	53	1	900
6.6.1	win	2022-12-14	15:00:44	15:06:00	314723	56279953ddff3c0005bcdba9	141723665	1	main_slash	7	advance_on_keypress_SLASH	44	stimuli_target_circlediamonds.svg	stimuli_distractor_trianglediamonds.svg	2	yes	57	0	882
6.6.1	win	2022-12-14	15:00:44	15:06:03	317477	56279953ddff3c0005bcdba9	141723665	1	main_slash	7	main_slash	45	stimuli_distractor_trianglediamonds.svg	stimuli_target_trianglecircles.svg	25	yes	53	1	1224
6.6.1	win	2022-12-14	15:00:44	15:06:03	317477	56279953ddff3c0005bcdba9	141723665	1	main_slash	7	advance_on_keypress_SLASH	46	stimuli_distractor_trianglediamonds.svg	stimuli_target_trianglecircles.svg	25	yes	57	0	882
6.6.1	win	2022-12-14	15:00:44	15:06:05	319950	56279953ddff3c0005bcdba9	141723665	1	main_slash	7	main_slash	47	stimuli_target_squaretriangles.svg	stimuli_distractor_trianglediamonds.svg	3	yes	53	1	951
6.6.1	win	2022-12-14	15:00:44	15:06:05	319950	56279953ddff3c0005bcdba9	141723665	1	main_slash	7	advance_on_keypress_SLASH	48	stimuli_target_squaretriangles.svg	stimuli_distractor_trianglediamonds.svg	3	yes	57	0	928
6.6.1	win	2022-12-14	15:00:44	15:06:08	322278	56279953ddff3c0005bcdba9	141723665	1	main_slash	7	main_slash	49	stimuli_distractor_trianglediamonds.svg	stimuli_target_circletriangles.svg	9	yes	53	1	748
6.6.1	win	2022-12-14	15:00:44	15:06:08	322278	56279953ddff3c0005bcdba9	141723665	1	main_slash	7	advance_on_keypress_SLASH	50	stimuli_distractor_trianglediamonds.svg	stimuli_target_circletriangles.svg	9	yes	57	0	1052
6.6.1	win	2022-12-14	15:00:44	15:06:10	324936	56279953ddff3c0005bcdba9	141723665	1	main_slash	7	main_slash	51	stimuli_target_squarediamonds.svg	stimuli_distractor_trianglediamonds.svg	4	yes	53	1	959
6.6.1	win	2022-12-14	15:00:44	15:06:10	324936	56279953ddff3c0005bcdba9	141723665	1	main_slash	7	advance_on_keypress_SLASH	52	stimuli_target_squarediamonds.svg	stimuli_distractor_trianglediamonds.svg	4	yes	57	0	1250
6.6.1	win	2022-12-14	15:00:44	15:06:13	327643	56279953ddff3c0005bcdba9	141723665	1	main_slash	7	main_slash	53	stimuli_distractor_trianglediamonds.svg	stimuli_target_circlediamonds.svg	10	yes	53	1	820
6.6.1	win	2022-12-14	15:00:44	15:06:13	327643	56279953ddff3c0005bcdba9	141723665	1	main_slash	7	advance_on_keypress_SLASH	54	stimuli_distractor_trianglediamonds.svg	stimuli_target_circlediamonds.svg	10	yes	57	0	903
6.6.1	win	2022-12-14	15:00:44	15:06:16	331187	56279953ddff3c0005bcdba9	141723665	1	main_slash	7	main_slash	55	stimuli_distractor_diamondtriangles.svg	stimuli_distractor_trianglediamonds.svg	37	no	0	1	2000
6.6.1	win	2022-12-14	15:00:44	15:06:16	331187	56279953ddff3c0005bcdba9	141723665	1	main_slash	7	advance_on_keypress_SLASH	56	stimuli_distractor_diamondtriangles.svg	stimuli_distractor_trianglediamonds.svg	37	no	57	0	1124
6.6.1	win	2022-12-14	15:00:44	15:06:19	333836	56279953ddff3c0005bcdba9	141723665	1	main_slash	7	main_slash	57	stimuli_target_diamondsquares.svg	stimuli_distractor_trianglediamonds.svg	20	yes	53	1	887
6.6.1	win	2022-12-14	15:00:44	15:06:19	333836	56279953ddff3c0005bcdba9	141723665	1	main_slash	7	advance_on_keypress_SLASH	58	stimuli_target_diamondsquares.svg	stimuli_distractor_trianglediamonds.svg	20	yes	57	0	777
6.6.1	win	2022-12-14	15:00:44	15:06:22	336770	56279953ddff3c0005bcdba9	141723665	1	main_slash	7	main_slash	59	stimuli_distractor_trianglediamonds.svg	stimuli_target_diamondsquares.svg	28	yes	53	1	1523
6.6.1	win	2022-12-14	15:00:44	15:06:22	336770	56279953ddff3c0005bcdba9	141723665	1	main_slash	7	advance_on_keypress_SLASH	60	stimuli_distractor_trianglediamonds.svg	stimuli_target_diamondsquares.svg	28	yes	57	0	732
6.6.1	win	2022-12-14	15:00:44	15:06:24	339058	56279953ddff3c0005bcdba9	141723665	1	main_slash	7	main_slash	61	stimuli_distractor_trianglediamonds.svg	stimuli_distractor_diamondtriangles.svg	35	no	53	0	915
6.6.1	win	2022-12-14	15:00:44	15:06:24	339058	56279953ddff3c0005bcdba9	141723665	1	main_slash	7	advance_on_keypress_SLASH	62	stimuli_distractor_trianglediamonds.svg	stimuli_distractor_diamondtriangles.svg	35	no	57	0	628
6.6.1	win	2022-12-14	15:00:44	15:06:28	342323	56279953ddff3c0005bcdba9	141723665	1	main_slash	7	main_slash	63	stimuli_distractor_diamondtriangles.svg	stimuli_target_diamondcircles.svg	31	yes	0	0	2000
6.6.1	win	2022-12-14	15:00:44	15:06:28	342323	56279953ddff3c0005bcdba9	141723665	1	main_slash	7	advance_on_keypress_SLASH	64	stimuli_distractor_diamondtriangles.svg	stimuli_target_diamondcircles.svg	31	yes	57	0	1545
6.6.1	win	2022-12-14	15:00:44	15:06:30	345217	56279953ddff3c0005bcdba9	141723665	1	main_slash	7	main_slash	65	stimuli_target_circletriangles.svg	stimuli_distractor_trianglediamonds.svg	1	yes	53	1	699
6.6.1	win	2022-12-14	15:00:44	15:06:30	345217	56279953ddff3c0005bcdba9	141723665	1	main_slash	7	advance_on_keypress_SLASH	66	stimuli_target_circletriangles.svg	stimuli_distractor_trianglediamonds.svg	1	yes	57	0	510
6.6.1	win	2022-12-14	15:00:44	15:06:32	347158	56279953ddff3c0005bcdba9	141723665	1	main_slash	7	main_slash	67	stimuli_target_diamondsquares.svg	stimuli_distractor_diamondtriangles.svg	24	yes	53	1	792
6.6.1	win	2022-12-14	15:00:44	15:06:32	347158	56279953ddff3c0005bcdba9	141723665	1	main_slash	7	advance_on_keypress_SLASH	68	stimuli_target_diamondsquares.svg	stimuli_distractor_diamondtriangles.svg	24	yes	57	0	635
6.6.1	win	2022-12-14	15:00:44	15:06:35	349480	56279953ddff3c0005bcdba9	141723665	1	main_slash	7	main_slash	69	stimuli_distractor_diamondtriangles.svg	stimuli_target_trianglesquares.svg	30	yes	53	1	1050
6.6.1	win	2022-12-14	15:00:44	15:06:35	349480	56279953ddff3c0005bcdba9	141723665	1	main_slash	7	advance_on_keypress_SLASH	70	stimuli_distractor_diamondtriangles.svg	stimuli_target_trianglesquares.svg	30	yes	57	0	622
6.6.1	win	2022-12-14	15:00:44	15:06:37	351613	56279953ddff3c0005bcdba9	141723665	1	main_slash	7	main_slash	71	stimuli_distractor_trianglediamonds.svg	stimuli_target_squaretriangles.svg	11	yes	53	1	868
6.6.1	win	2022-12-14	15:00:44	15:06:37	351613	56279953ddff3c0005bcdba9	141723665	1	main_slash	7	advance_on_keypress_SLASH	72	stimuli_distractor_trianglediamonds.svg	stimuli_target_squaretriangles.svg	11	yes	57	0	677
6.6.1	win	2022-12-14	15:00:44	15:06:39	353815	56279953ddff3c0005bcdba9	141723665	1	main_slash	7	main_slash	73	stimuli_target_squarediamonds.svg	stimuli_distractor_diamondtriangles.svg	8	yes	53	1	890
6.6.1	win	2022-12-14	15:00:44	15:06:39	353815	56279953ddff3c0005bcdba9	141723665	1	main_slash	7	advance_on_keypress_SLASH	74	stimuli_target_squarediamonds.svg	stimuli_distractor_diamondtriangles.svg	8	yes	57	0	636
6.6.1	win	2022-12-14	15:00:44	15:06:41	355922	56279953ddff3c0005bcdba9	141723665	1	main_slash	7	main_slash	75	stimuli_distractor_diamondtriangles.svg	stimuli_target_circletriangles.svg	13	yes	53	1	833
6.6.1	win	2022-12-14	15:00:44	15:06:41	355922	56279953ddff3c0005bcdba9	141723665	1	main_slash	7	advance_on_keypress_SLASH	76	stimuli_distractor_diamondtriangles.svg	stimuli_target_circletriangles.svg	13	yes	57	0	575
6.6.1	win	2022-12-14	15:00:44	15:06:43	358076	56279953ddff3c0005bcdba9	141723665	1	main_slash	7	main_slash	77	stimuli_target_squaretriangles.svg	stimuli_distractor_diamondtriangles.svg	7	yes	53	1	939
6.6.1	win	2022-12-14	15:00:44	15:06:43	358076	56279953ddff3c0005bcdba9	141723665	1	main_slash	7	advance_on_keypress_SLASH	78	stimuli_target_squaretriangles.svg	stimuli_distractor_diamondtriangles.svg	7	yes	57	0	688
6.6.1	win	2022-12-14	15:00:44	15:06:46	360508	56279953ddff3c0005bcdba9	141723665	1	main_slash	7	main_slash	79	stimuli_target_trianglesquares.svg	stimuli_distractor_diamondtriangles.svg	22	yes	53	1	1108
6.6.1	win	2022-12-14	15:00:44	15:06:46	360508	56279953ddff3c0005bcdba9	141723665	1	main_slash	7	advance_on_keypress_SLASH	80	stimuli_target_trianglesquares.svg	stimuli_distractor_diamondtriangles.svg	22	yes	57	0	834
6.6.1	win	2022-12-14	15:00:44	15:06:49	363980	56279953ddff3c0005bcdba9	141723665	1	main_slash	7	main_slash	81	stimuli_distractor_trianglediamonds.svg	stimuli_distractor_trianglediamonds.svg	34	no	0	1	2000
6.6.1	win	2022-12-14	15:00:44	15:06:49	363980	56279953ddff3c0005bcdba9	141723665	1	main_slash	7	advance_on_keypress_SLASH	82	stimuli_distractor_trianglediamonds.svg	stimuli_distractor_trianglediamonds.svg	34	no	57	0	557
6.6.1	win	2022-12-14	15:00:44	15:06:51	366030	56279953ddff3c0005bcdba9	141723665	1	main_slash	7	main_slash	83	stimuli_distractor_diamondtriangles.svg	stimuli_target_diamondcircles.svg	31	yes	53	1	853
6.6.1	win	2022-12-14	15:00:44	15:06:51	366030	56279953ddff3c0005bcdba9	141723665	1	main_slash	7	advance_on_keypress_SLASH	84	stimuli_distractor_diamondtriangles.svg	stimuli_target_diamondcircles.svg	31	yes	57	0	727
6.6.1	win	2022-12-14	15:00:44	15:06:54	368333	56279953ddff3c0005bcdba9	141723665	1	main_slash	7	main_slash	85	stimuli_target_diamondsquares.svg	stimuli_distractor_trianglediamonds.svg	20	yes	53	1	943
6.6.1	win	2022-12-14	15:00:44	15:06:54	368333	56279953ddff3c0005bcdba9	141723665	1	main_slash	7	advance_on_keypress_SLASH	86	stimuli_target_diamondsquares.svg	stimuli_distractor_trianglediamonds.svg	20	yes	57	0	697
6.6.1	win	2022-12-14	15:00:44	15:06:56	370571	56279953ddff3c0005bcdba9	141723665	1	main_slash	7	main_slash	87	stimuli_distractor_diamondtriangles.svg	stimuli_target_squarediamonds.svg	16	yes	53	1	902
6.6.1	win	2022-12-14	15:00:44	15:06:56	370571	56279953ddff3c0005bcdba9	141723665	1	main_slash	7	advance_on_keypress_SLASH	88	stimuli_distractor_diamondtriangles.svg	stimuli_target_squarediamonds.svg	16	yes	57	0	833
6.6.1	win	2022-12-14	15:00:44	15:06:58	372838	56279953ddff3c0005bcdba9	141723665	1	main_slash	7	main_slash	89	stimuli_target_squaretriangles.svg	stimuli_distractor_diamondtriangles.svg	7	yes	53	1	786
6.6.1	win	2022-12-14	15:00:44	15:06:58	372838	56279953ddff3c0005bcdba9	141723665	1	main_slash	7	advance_on_keypress_SLASH	90	stimuli_target_squaretriangles.svg	stimuli_distractor_diamondtriangles.svg	7	yes	57	0	539
6.6.1	win	2022-12-14	15:00:44	15:07:01	376014	56279953ddff3c0005bcdba9	141723665	1	main_slash	7	main_slash	91	stimuli_distractor_trianglediamonds.svg	stimuli_target_trianglecircles.svg	25	yes	0	0	2000
6.6.1	win	2022-12-14	15:00:44	15:07:01	376014	56279953ddff3c0005bcdba9	141723665	1	main_slash	7	advance_on_keypress_SLASH	92	stimuli_distractor_trianglediamonds.svg	stimuli_target_trianglecircles.svg	25	yes	57	0	461
6.6.1	win	2022-12-14	15:00:44	15:07:03	377841	56279953ddff3c0005bcdba9	141723665	1	main_slash	7	main_slash	93	stimuli_target_circlediamonds.svg	stimuli_distractor_trianglediamonds.svg	2	yes	53	1	730
6.6.1	win	2022-12-14	15:00:44	15:07:03	377841	56279953ddff3c0005bcdba9	141723665	1	main_slash	7	advance_on_keypress_SLASH	94	stimuli_target_circlediamonds.svg	stimuli_distractor_trianglediamonds.svg	2	yes	57	0	603
6.6.1	win	2022-12-14	15:00:44	15:07:06	380417	56279953ddff3c0005bcdba9	141723665	1	main_slash	7	main_slash	95	stimuli_target_diamondcircles.svg	stimuli_distractor_diamondtriangles.svg	23	yes	53	1	1325
6.6.1	win	2022-12-14	15:00:44	15:07:06	380417	56279953ddff3c0005bcdba9	141723665	1	main_slash	7	advance_on_keypress_SLASH	96	stimuli_target_diamondcircles.svg	stimuli_distractor_diamondtriangles.svg	23	yes	57	0	620
6.6.1	win	2022-12-14	15:00:44	15:07:09	383672	56279953ddff3c0005bcdba9	141723665	1	main_slash	7	main_slash	97	stimuli_distractor_diamondtriangles.svg	stimuli_distractor_trianglediamonds.svg	38	no	0	1	2000
6.6.1	win	2022-12-14	15:00:44	15:07:09	383672	56279953ddff3c0005bcdba9	141723665	1	main_slash	7	advance_on_keypress_SLASH	98	stimuli_distractor_diamondtriangles.svg	stimuli_distractor_trianglediamonds.svg	38	no	57	0	514
6.6.1	win	2022-12-14	15:00:44	15:07:11	385713	56279953ddff3c0005bcdba9	141723665	1	main_slash	7	main_slash	99	stimuli_distractor_trianglediamonds.svg	stimuli_target_squarediamonds.svg	12	yes	53	1	877
6.6.1	win	2022-12-14	15:00:44	15:07:11	385713	56279953ddff3c0005bcdba9	141723665	1	main_slash	7	advance_on_keypress_SLASH	100	stimuli_distractor_trianglediamonds.svg	stimuli_target_squarediamonds.svg	12	yes	57	0	619
6.6.1	win	2022-12-14	15:00:44	15:07:14	388982	56279953ddff3c0005bcdba9	141723665	1	main_slash	7	main_slash	101	stimuli_distractor_trianglediamonds.svg	stimuli_distractor_diamondtriangles.svg	36	no	0	1	2000
6.6.1	win	2022-12-14	15:00:44	15:07:14	388982	56279953ddff3c0005bcdba9	141723665	1	main_slash	7	advance_on_keypress_SLASH	102	stimuli_distractor_trianglediamonds.svg	stimuli_distractor_diamondtriangles.svg	36	no	57	0	482
6.6.1	win	2022-12-14	15:00:44	15:07:16	391138	56279953ddff3c0005bcdba9	141723665	1	main_slash	7	main_slash	103	stimuli_target_trianglecircles.svg	stimuli_distractor_diamondtriangles.svg	21	yes	53	1	1025
6.6.1	win	2022-12-14	15:00:44	15:07:16	391138	56279953ddff3c0005bcdba9	141723665	1	main_slash	7	advance_on_keypress_SLASH	104	stimuli_target_trianglecircles.svg	stimuli_distractor_diamondtriangles.svg	21	yes	57	0	944
6.6.1	win	2022-12-14	15:00:44	15:07:19	393628	56279953ddff3c0005bcdba9	141723665	1	main_slash	7	main_slash	105	stimuli_distractor_trianglediamonds.svg	stimuli_distractor_diamondtriangles.svg	35	no	53	0	920
6.6.1	win	2022-12-14	15:00:44	15:07:19	393628	56279953ddff3c0005bcdba9	141723665	1	main_slash	7	advance_on_keypress_SLASH	106	stimuli_distractor_trianglediamonds.svg	stimuli_distractor_diamondtriangles.svg	35	no	57	0	584
6.6.1	win	2022-12-14	15:00:44	15:07:21	395774	56279953ddff3c0005bcdba9	141723665	1	main_slash	7	main_slash	107	stimuli_distractor_trianglediamonds.svg	stimuli_target_circlediamonds.svg	10	yes	53	1	919
6.6.1	win	2022-12-14	15:00:44	15:07:21	395774	56279953ddff3c0005bcdba9	141723665	1	main_slash	7	advance_on_keypress_SLASH	108	stimuli_distractor_trianglediamonds.svg	stimuli_target_circlediamonds.svg	10	yes	57	0	559
6.6.1	win	2022-12-14	15:00:44	15:07:23	397836	56279953ddff3c0005bcdba9	141723665	1	main_slash	7	main_slash	109	stimuli_target_circletriangles.svg	stimuli_distractor_diamondtriangles.svg	5	yes	53	1	866
6.6.1	win	2022-12-14	15:00:44	15:07:23	397836	56279953ddff3c0005bcdba9	141723665	1	main_slash	7	advance_on_keypress_SLASH	110	stimuli_target_circletriangles.svg	stimuli_distractor_diamondtriangles.svg	5	yes	57	0	478
6.6.1	win	2022-12-14	15:00:44	15:07:25	399789	56279953ddff3c0005bcdba9	141723665	1	main_slash	7	main_slash	111	stimuli_target_diamondsquares.svg	stimuli_distractor_diamondtriangles.svg	24	yes	53	1	838
6.6.1	win	2022-12-14	15:00:44	15:07:25	399789	56279953ddff3c0005bcdba9	141723665	1	main_slash	7	advance_on_keypress_SLASH	112	stimuli_target_diamondsquares.svg	stimuli_distractor_diamondtriangles.svg	24	yes	57	0	519
6.6.1	win	2022-12-14	15:00:44	15:07:27	401776	56279953ddff3c0005bcdba9	141723665	1	main_slash	7	main_slash	113	stimuli_target_squarediamonds.svg	stimuli_distractor_trianglediamonds.svg	4	yes	53	1	828
6.6.1	win	2022-12-14	15:00:44	15:07:27	401776	56279953ddff3c0005bcdba9	141723665	1	main_slash	7	advance_on_keypress_SLASH	114	stimuli_target_squarediamonds.svg	stimuli_distractor_trianglediamonds.svg	4	yes	57	0	489
6.6.1	win	2022-12-14	15:00:44	15:07:29	404183	56279953ddff3c0005bcdba9	141723665	1	main_slash	7	main_slash	115	stimuli_distractor_trianglediamonds.svg	stimuli_target_circletriangles.svg	9	yes	53	1	1271
6.6.1	win	2022-12-14	15:00:44	15:07:29	404183	56279953ddff3c0005bcdba9	141723665	1	main_slash	7	advance_on_keypress_SLASH	116	stimuli_distractor_trianglediamonds.svg	stimuli_target_circletriangles.svg	9	yes	57	0	715
6.6.1	win	2022-12-14	15:00:44	15:07:32	406352	56279953ddff3c0005bcdba9	141723665	1	main_slash	7	main_slash	117	stimuli_target_circlediamonds.svg	stimuli_distractor_diamondtriangles.svg	6	yes	53	1	809
6.6.1	win	2022-12-14	15:00:44	15:07:32	406352	56279953ddff3c0005bcdba9	141723665	1	main_slash	7	advance_on_keypress_SLASH	118	stimuli_target_circlediamonds.svg	stimuli_distractor_diamondtriangles.svg	6	yes	57	0	521
6.6.1	win	2022-12-14	15:00:44	15:07:35	409507	56279953ddff3c0005bcdba9	141723665	1	main_slash	7	main_slash	119	stimuli_distractor_trianglediamonds.svg	stimuli_target_trianglesquares.svg	26	yes	0	0	2000
6.6.1	win	2022-12-14	15:00:44	15:07:35	409507	56279953ddff3c0005bcdba9	141723665	1	main_slash	7	advance_on_keypress_SLASH	120	stimuli_distractor_trianglediamonds.svg	stimuli_target_trianglesquares.svg	26	yes	57	0	928
6.6.1	win	2022-12-14	15:00:44	15:07:37	411995	56279953ddff3c0005bcdba9	141723665	1	main_slash	7	main_slash	121	stimuli_target_trianglesquares.svg	stimuli_distractor_trianglediamonds.svg	18	yes	53	1	926
6.6.1	win	2022-12-14	15:00:44	15:07:37	411995	56279953ddff3c0005bcdba9	141723665	1	main_slash	7	advance_on_keypress_SLASH	122	stimuli_target_trianglesquares.svg	stimuli_distractor_trianglediamonds.svg	18	yes	57	0	600
6.6.1	win	2022-12-14	15:00:44	15:07:39	414216	56279953ddff3c0005bcdba9	141723665	1	main_slash	7	main_slash	123	stimuli_distractor_trianglediamonds.svg	stimuli_target_diamondsquares.svg	28	yes	53	1	983
6.6.1	win	2022-12-14	15:00:44	15:07:39	414216	56279953ddff3c0005bcdba9	141723665	1	main_slash	7	advance_on_keypress_SLASH	124	stimuli_distractor_trianglediamonds.svg	stimuli_target_diamondsquares.svg	28	yes	57	0	989
6.6.1	win	2022-12-14	15:00:44	15:07:43	417846	56279953ddff3c0005bcdba9	141723665	1	main_slash	7	main_slash	125	stimuli_distractor_diamondtriangles.svg	stimuli_target_circlediamonds.svg	14	yes	0	0	2000
6.6.1	win	2022-12-14	15:00:44	15:07:43	417846	56279953ddff3c0005bcdba9	141723665	1	main_slash	7	advance_on_keypress_SLASH	126	stimuli_distractor_diamondtriangles.svg	stimuli_target_circlediamonds.svg	14	yes	57	0	482
6.6.1	win	2022-12-14	15:00:44	15:07:45	419937	56279953ddff3c0005bcdba9	141723665	1	main_slash	7	main_slash	127	stimuli_target_trianglesquares.svg	stimuli_distractor_diamondtriangles.svg	22	yes	53	1	960
6.6.1	win	2022-12-14	15:00:44	15:07:45	419937	56279953ddff3c0005bcdba9	141723665	1	main_slash	7	advance_on_keypress_SLASH	128	stimuli_target_trianglesquares.svg	stimuli_distractor_diamondtriangles.svg	22	yes	57	0	727
6.6.1	win	2022-12-14	15:00:44	15:07:47	422087	56279953ddff3c0005bcdba9	141723665	1	main_slash	7	main_slash	129	stimuli_distractor_diamondtriangles.svg	stimuli_target_trianglecircles.svg	29	yes	53	1	797
6.6.1	win	2022-12-14	15:00:44	15:07:47	422087	56279953ddff3c0005bcdba9	141723665	1	main_slash	7	advance_on_keypress_SLASH	130	stimuli_distractor_diamondtriangles.svg	stimuli_target_trianglecircles.svg	29	yes	57	0	566
6.6.1	win	2022-12-14	15:00:44	15:07:49	424078	56279953ddff3c0005bcdba9	141723665	1	main_slash	7	main_slash	131	stimuli_distractor_diamondtriangles.svg	stimuli_target_squaretriangles.svg	15	yes	53	1	774
6.6.1	win	2022-12-14	15:00:44	15:07:49	424078	56279953ddff3c0005bcdba9	141723665	1	main_slash	7	advance_on_keypress_SLASH	132	stimuli_distractor_diamondtriangles.svg	stimuli_target_squaretriangles.svg	15	yes	57	0	574
6.6.1	win	2022-12-14	15:00:44	15:07:51	425970	56279953ddff3c0005bcdba9	141723665	1	main_slash	7	main_slash	133	stimuli_distractor_diamondtriangles.svg	stimuli_target_diamondsquares.svg	32	yes	53	1	685
6.6.1	win	2022-12-14	15:00:44	15:07:51	425970	56279953ddff3c0005bcdba9	141723665	1	main_slash	7	advance_on_keypress_SLASH	134	stimuli_distractor_diamondtriangles.svg	stimuli_target_diamondsquares.svg	32	yes	57	0	565
6.6.1	win	2022-12-14	15:00:44	15:07:53	428041	56279953ddff3c0005bcdba9	141723665	1	main_slash	7	main_slash	135	stimuli_distractor_trianglediamonds.svg	stimuli_target_squaretriangles.svg	11	yes	53	1	859
6.6.1	win	2022-12-14	15:00:44	15:07:53	428041	56279953ddff3c0005bcdba9	141723665	1	main_slash	7	advance_on_keypress_SLASH	136	stimuli_distractor_trianglediamonds.svg	stimuli_target_squaretriangles.svg	11	yes	57	0	534
6.6.1	win	2022-12-14	15:00:44	15:07:55	429917	56279953ddff3c0005bcdba9	141723665	1	main_slash	7	main_slash	137	stimuli_target_circletriangles.svg	stimuli_distractor_trianglediamonds.svg	1	yes	53	1	704
6.6.1	win	2022-12-14	15:00:44	15:07:55	429917	56279953ddff3c0005bcdba9	141723665	1	main_slash	7	advance_on_keypress_SLASH	138	stimuli_target_circletriangles.svg	stimuli_distractor_trianglediamonds.svg	1	yes	57	0	493
6.6.1	win	2022-12-14	15:00:44	15:07:57	432061	56279953ddff3c0005bcdba9	141723665	1	main_slash	7	main_slash	139	stimuli_distractor_diamondtriangles.svg	stimuli_distractor_diamondtriangles.svg	40	no	53	0	1018
6.6.1	win	2022-12-14	15:00:44	15:07:57	432061	56279953ddff3c0005bcdba9	141723665	1	main_slash	7	advance_on_keypress_SLASH	140	stimuli_distractor_diamondtriangles.svg	stimuli_distractor_diamondtriangles.svg	40	no	57	0	533
6.6.1	win	2022-12-14	15:00:44	15:07:59	434123	56279953ddff3c0005bcdba9	141723665	1	main_slash	7	main_slash	141	stimuli_target_squarediamonds.svg	stimuli_distractor_diamondtriangles.svg	8	yes	53	1	882
6.6.1	win	2022-12-14	15:00:44	15:07:59	434123	56279953ddff3c0005bcdba9	141723665	1	main_slash	7	advance_on_keypress_SLASH	142	stimuli_target_squarediamonds.svg	stimuli_distractor_diamondtriangles.svg	8	yes	57	0	469
6.6.1	win	2022-12-14	15:00:44	15:08:01	435973	56279953ddff3c0005bcdba9	141723665	1	main_slash	7	main_slash	143	stimuli_distractor_trianglediamonds.svg	stimuli_target_diamondcircles.svg	27	yes	53	1	734
6.6.1	win	2022-12-14	15:00:44	15:08:01	435973	56279953ddff3c0005bcdba9	141723665	1	main_slash	7	advance_on_keypress_SLASH	144	stimuli_distractor_trianglediamonds.svg	stimuli_target_diamondcircles.svg	27	yes	57	0	460
6.6.1	win	2022-12-14	15:00:44	15:08:04	439070	56279953ddff3c0005bcdba9	141723665	1	main_slash	7	main_slash	145	stimuli_distractor_trianglediamonds.svg	stimuli_distractor_trianglediamonds.svg	33	no	0	1	2000
6.6.1	win	2022-12-14	15:00:44	15:08:04	439070	56279953ddff3c0005bcdba9	141723665	1	main_slash	7	advance_on_keypress_SLASH	146	stimuli_distractor_trianglediamonds.svg	stimuli_distractor_trianglediamonds.svg	33	no	57	0	599
6.6.1	win	2022-12-14	15:00:44	15:08:08	442316	56279953ddff3c0005bcdba9	141723665	1	main_slash	7	main_slash	147	stimuli_target_diamondcircles.svg	stimuli_distractor_trianglediamonds.svg	19	yes	0	0	2000
6.6.1	win	2022-12-14	15:00:44	15:08:08	442316	56279953ddff3c0005bcdba9	141723665	1	main_slash	7	advance_on_keypress_SLASH	148	stimuli_target_diamondcircles.svg	stimuli_distractor_trianglediamonds.svg	19	yes	57	0	606
6.6.1	win	2022-12-14	15:00:44	15:08:10	444327	56279953ddff3c0005bcdba9	141723665	1	main_slash	7	main_slash	149	stimuli_target_trianglecircles.svg	stimuli_distractor_trianglediamonds.svg	17	yes	53	1	766
6.6.1	win	2022-12-14	15:00:44	15:08:10	444327	56279953ddff3c0005bcdba9	141723665	1	main_slash	7	advance_on_keypress_SLASH	150	stimuli_target_trianglecircles.svg	stimuli_distractor_trianglediamonds.svg	17	yes	57	0	449
6.6.1	win	2022-12-14	15:00:44	15:08:13	447426	56279953ddff3c0005bcdba9	141723665	1	main_slash	7	main_slash	151	stimuli_distractor_diamondtriangles.svg	stimuli_distractor_diamondtriangles.svg	39	no	0	1	2000
6.6.1	win	2022-12-14	15:00:44	15:08:13	447426	56279953ddff3c0005bcdba9	141723665	1	main_slash	7	advance_on_keypress_SLASH	152	stimuli_distractor_diamondtriangles.svg	stimuli_distractor_diamondtriangles.svg	39	no	57	0	427
6.6.1	win	2022-12-14	15:00:44	15:08:14	449192	56279953ddff3c0005bcdba9	141723665	1	main_slash	7	main_slash	153	stimuli_target_squaretriangles.svg	stimuli_distractor_trianglediamonds.svg	3	yes	53	1	703
6.6.1	win	2022-12-14	15:00:44	15:08:14	449192	56279953ddff3c0005bcdba9	141723665	1	main_slash	7	advance_on_keypress_SLASH	154	stimuli_target_squaretriangles.svg	stimuli_distractor_trianglediamonds.svg	3	yes	57	0	428
6.6.1	win	2022-12-14	15:00:44	15:08:16	450995	56279953ddff3c0005bcdba9	141723665	1	main_slash	7	main_slash	155	stimuli_distractor_diamondtriangles.svg	stimuli_target_circletriangles.svg	13	yes	53	1	742
6.6.1	win	2022-12-14	15:00:44	15:08:16	450995	56279953ddff3c0005bcdba9	141723665	1	main_slash	7	advance_on_keypress_SLASH	156	stimuli_distractor_diamondtriangles.svg	stimuli_target_circletriangles.svg	13	yes	57	0	401
6.6.1	win	2022-12-14	15:00:44	15:08:19	454035	56279953ddff3c0005bcdba9	141723665	1	main_slash	7	main_slash	157	stimuli_distractor_diamondtriangles.svg	stimuli_distractor_trianglediamonds.svg	37	no	0	1	2000
6.6.1	win	2022-12-14	15:00:44	15:08:19	454035	56279953ddff3c0005bcdba9	141723665	1	main_slash	7	advance_on_keypress_SLASH	158	stimuli_distractor_diamondtriangles.svg	stimuli_distractor_trianglediamonds.svg	37	no	57	0	473
6.6.1	win	2022-12-14	15:00:44	15:08:21	456000	56279953ddff3c0005bcdba9	141723665	1	main_slash	7	main_slash	159	stimuli_distractor_diamondtriangles.svg	stimuli_target_trianglesquares.svg	30	yes	53	1	853
6.6.1	win	2022-12-14	15:00:44	15:08:21	456000	56279953ddff3c0005bcdba9	141723665	1	main_slash	7	advance_on_keypress_SLASH	160	stimuli_distractor_diamondtriangles.svg	stimuli_target_trianglesquares.svg	30	yes	57	0	463
6.6.1	win	2022-12-14	15:00:44	15:08:44	479104	56279953ddff3c0005bcdba9	141723665	1	practice_z	9	practice_z	1	stimuli_distractor_diamondtriangles.svg	stimuli_target_circletriangles.svg	7	yes	44	1	449
6.6.1	win	2022-12-14	15:00:44	15:08:44	479104	56279953ddff3c0005bcdba9	141723665	1	practice_z	9	advance_on_keypress_ZEE	2	stimuli_distractor_diamondtriangles.svg	stimuli_target_circletriangles.svg	7	yes	57	0	768
6.6.1	win	2022-12-14	15:00:44	15:08:48	482275	56279953ddff3c0005bcdba9	141723665	1	practice_z	9	practice_z	3	stimuli_target_diamondsquares.svg	stimuli_distractor_trianglediamonds.svg	6	yes	44	1	758
6.6.1	win	2022-12-14	15:00:44	15:08:48	482275	56279953ddff3c0005bcdba9	141723665	1	practice_z	9	advance_on_keypress_ZEE	4	stimuli_target_diamondsquares.svg	stimuli_distractor_trianglediamonds.svg	6	yes	57	0	667
6.6.1	win	2022-12-14	15:00:44	15:08:50	485187	56279953ddff3c0005bcdba9	141723665	1	practice_z	9	practice_z	5	stimuli_target_circlediamonds.svg	stimuli_distractor_diamondtriangles.svg	1	yes	44	1	607
6.6.1	win	2022-12-14	15:00:44	15:08:50	485187	56279953ddff3c0005bcdba9	141723665	1	practice_z	9	advance_on_keypress_ZEE	6	stimuli_target_circlediamonds.svg	stimuli_distractor_diamondtriangles.svg	1	yes	57	0	523
6.6.1	win	2022-12-14	15:00:44	15:08:55	489343	56279953ddff3c0005bcdba9	141723665	1	practice_z	9	practice_z	7	stimuli_distractor_trianglediamonds.svg	stimuli_distractor_diamondtriangles.svg	16	no	0	1	2000
6.6.1	win	2022-12-14	15:00:44	15:08:55	489343	56279953ddff3c0005bcdba9	141723665	1	practice_z	9	advance_on_keypress_ZEE	8	stimuli_distractor_trianglediamonds.svg	stimuli_distractor_diamondtriangles.svg	16	no	57	0	416
6.6.1	win	2022-12-14	15:00:44	15:08:57	492267	56279953ddff3c0005bcdba9	141723665	1	practice_z	9	practice_z	9	stimuli_distractor_trianglediamonds.svg	stimuli_target_squarediamonds.svg	11	yes	44	1	861
6.6.1	win	2022-12-14	15:00:44	15:08:57	492267	56279953ddff3c0005bcdba9	141723665	1	practice_z	9	advance_on_keypress_ZEE	10	stimuli_distractor_trianglediamonds.svg	stimuli_target_squarediamonds.svg	11	yes	57	0	526
6.6.1	win	2022-12-14	15:00:44	15:09:00	495169	56279953ddff3c0005bcdba9	141723665	1	practice_z	9	practice_z	11	stimuli_distractor_diamondtriangles.svg	stimuli_target_diamondcircles.svg	8	yes	44	1	735
6.6.1	win	2022-12-14	15:00:44	15:09:00	495169	56279953ddff3c0005bcdba9	141723665	1	practice_z	9	advance_on_keypress_ZEE	12	stimuli_distractor_diamondtriangles.svg	stimuli_target_diamondcircles.svg	8	yes	57	0	406
6.6.1	win	2022-12-14	15:00:44	15:09:04	499215	56279953ddff3c0005bcdba9	141723665	1	practice_z	9	practice_z	13	stimuli_distractor_trianglediamonds.svg	stimuli_distractor_trianglediamonds.svg	15	no	0	1	2000
6.6.1	win	2022-12-14	15:00:44	15:09:04	499215	56279953ddff3c0005bcdba9	141723665	1	practice_z	9	advance_on_keypress_ZEE	14	stimuli_distractor_trianglediamonds.svg	stimuli_distractor_trianglediamonds.svg	15	no	57	0	485
6.6.1	win	2022-12-14	15:00:44	15:09:07	502008	56279953ddff3c0005bcdba9	141723665	1	practice_z	9	practice_z	15	stimuli_target_circlediamonds.svg	stimuli_distractor_trianglediamonds.svg	4	yes	44	1	666
6.6.1	win	2022-12-14	15:00:44	15:09:07	502008	56279953ddff3c0005bcdba9	141723665	1	practice_z	9	advance_on_keypress_ZEE	16	stimuli_target_circlediamonds.svg	stimuli_distractor_trianglediamonds.svg	4	yes	57	0	440
6.6.1	win	2022-12-14	15:00:44	15:09:11	506090	56279953ddff3c0005bcdba9	141723665	1	practice_z	9	practice_z	17	stimuli_distractor_trianglediamonds.svg	stimuli_target_diamondcircles.svg	12	yes	0	0	2000
6.6.1	win	2022-12-14	15:00:44	15:09:11	506090	56279953ddff3c0005bcdba9	141723665	1	practice_z	9	advance_on_keypress_ZEE	18	stimuli_distractor_trianglediamonds.svg	stimuli_target_diamondcircles.svg	12	yes	57	0	495
6.6.1	win	2022-12-14	15:00:44	15:09:14	509037	56279953ddff3c0005bcdba9	141723665	1	practice_z	9	practice_z	19	stimuli_target_squarediamonds.svg	stimuli_distractor_trianglediamonds.svg	5	yes	44	1	802
6.6.1	win	2022-12-14	15:00:44	15:09:14	509037	56279953ddff3c0005bcdba9	141723665	1	practice_z	9	advance_on_keypress_ZEE	20	stimuli_target_squarediamonds.svg	stimuli_distractor_trianglediamonds.svg	5	yes	57	0	496
6.6.1	win	2022-12-14	15:00:44	15:09:17	512025	56279953ddff3c0005bcdba9	141723665	1	practice_z	9	practice_z	21	stimuli_target_squarediamonds.svg	stimuli_distractor_diamondtriangles.svg	2	yes	44	1	843
6.6.1	win	2022-12-14	15:00:44	15:09:17	512025	56279953ddff3c0005bcdba9	141723665	1	practice_z	9	advance_on_keypress_ZEE	22	stimuli_target_squarediamonds.svg	stimuli_distractor_diamondtriangles.svg	2	yes	57	0	465
6.6.1	win	2022-12-14	15:00:44	15:09:21	516143	56279953ddff3c0005bcdba9	141723665	1	practice_z	9	practice_z	23	stimuli_distractor_diamondtriangles.svg	stimuli_distractor_trianglediamonds.svg	14	no	0	1	2000
6.6.1	win	2022-12-14	15:00:44	15:09:21	516143	56279953ddff3c0005bcdba9	141723665	1	practice_z	9	advance_on_keypress_ZEE	24	stimuli_distractor_diamondtriangles.svg	stimuli_distractor_trianglediamonds.svg	14	no	57	0	518
6.6.1	win	2022-12-14	15:00:44	15:09:24	519085	56279953ddff3c0005bcdba9	141723665	1	practice_z	9	practice_z	25	stimuli_distractor_trianglediamonds.svg	stimuli_target_circlediamonds.svg	10	yes	44	1	781
6.6.1	win	2022-12-14	15:00:44	15:09:24	519085	56279953ddff3c0005bcdba9	141723665	1	practice_z	9	advance_on_keypress_ZEE	26	stimuli_distractor_trianglediamonds.svg	stimuli_target_circlediamonds.svg	10	yes	57	0	400
6.6.1	win	2022-12-14	15:00:44	15:09:28	523134	56279953ddff3c0005bcdba9	141723665	1	practice_z	9	practice_z	27	stimuli_distractor_diamondtriangles.svg	stimuli_distractor_diamondtriangles.svg	13	no	0	1	2000
6.6.1	win	2022-12-14	15:00:44	15:09:28	523134	56279953ddff3c0005bcdba9	141723665	1	practice_z	9	advance_on_keypress_ZEE	28	stimuli_distractor_diamondtriangles.svg	stimuli_distractor_diamondtriangles.svg	13	no	57	0	531
6.6.1	win	2022-12-14	15:00:44	15:09:31	526148	56279953ddff3c0005bcdba9	141723665	1	practice_z	9	practice_z	29	stimuli_target_diamondsquares.svg	stimuli_distractor_diamondtriangles.svg	3	yes	44	1	835
6.6.1	win	2022-12-14	15:00:44	15:09:31	526148	56279953ddff3c0005bcdba9	141723665	1	practice_z	9	advance_on_keypress_ZEE	30	stimuli_target_diamondsquares.svg	stimuli_distractor_diamondtriangles.svg	3	yes	57	0	419
6.6.1	win	2022-12-14	15:00:44	15:09:35	530209	56279953ddff3c0005bcdba9	141723665	1	practice_z	9	practice_z	31	stimuli_distractor_diamondtriangles.svg	stimuli_target_trianglecircles.svg	9	yes	0	0	2000
6.6.1	win	2022-12-14	15:00:44	15:09:35	530209	56279953ddff3c0005bcdba9	141723665	1	practice_z	9	advance_on_keypress_ZEE	32	stimuli_distractor_diamondtriangles.svg	stimuli_target_trianglecircles.svg	9	yes	57	0	430
6.6.1	win	2022-12-14	15:00:44	15:09:41	536063	56279953ddff3c0005bcdba9	141723665	1	main_z	11	main_z	1	stimuli_target_squarediamonds.svg	stimuli_distractor_trianglediamonds.svg	4	yes	44	1	596
6.6.1	win	2022-12-14	15:00:44	15:09:41	536063	56279953ddff3c0005bcdba9	141723665	1	main_z	11	advance_on_keypress_ZEE	2	stimuli_target_squarediamonds.svg	stimuli_distractor_trianglediamonds.svg	4	yes	57	0	694
6.6.1	win	2022-12-14	15:00:44	15:09:43	538102	56279953ddff3c0005bcdba9	141723665	1	main_z	11	main_z	3	stimuli_target_trianglesquares.svg	stimuli_distractor_diamondtriangles.svg	22	yes	44	1	706
6.6.1	win	2022-12-14	15:00:44	15:09:43	538102	56279953ddff3c0005bcdba9	141723665	1	main_z	11	advance_on_keypress_ZEE	4	stimuli_target_trianglesquares.svg	stimuli_distractor_diamondtriangles.svg	22	yes	57	0	759
6.6.1	win	2022-12-14	15:00:44	15:09:45	540203	56279953ddff3c0005bcdba9	141723665	1	main_z	11	main_z	5	stimuli_distractor_trianglediamonds.svg	stimuli_target_circlediamonds.svg	10	yes	44	1	710
6.6.1	win	2022-12-14	15:00:44	15:09:45	540203	56279953ddff3c0005bcdba9	141723665	1	main_z	11	advance_on_keypress_ZEE	6	stimuli_distractor_trianglediamonds.svg	stimuli_target_circlediamonds.svg	10	yes	57	0	691
6.6.1	win	2022-12-14	15:00:44	15:09:47	542256	56279953ddff3c0005bcdba9	141723665	1	main_z	11	main_z	7	stimuli_distractor_trianglediamonds.svg	stimuli_target_trianglecircles.svg	25	yes	44	1	732
6.6.1	win	2022-12-14	15:00:44	15:09:47	542256	56279953ddff3c0005bcdba9	141723665	1	main_z	11	advance_on_keypress_ZEE	8	stimuli_distractor_trianglediamonds.svg	stimuli_target_trianglecircles.svg	25	yes	57	0	607
6.6.1	win	2022-12-14	15:00:44	15:09:49	544141	56279953ddff3c0005bcdba9	141723665	1	main_z	11	main_z	9	stimuli_target_circletriangles.svg	stimuli_distractor_diamondtriangles.svg	5	yes	44	1	637
6.6.1	win	2022-12-14	15:00:44	15:09:49	544141	56279953ddff3c0005bcdba9	141723665	1	main_z	11	advance_on_keypress_ZEE	10	stimuli_target_circletriangles.svg	stimuli_distractor_diamondtriangles.svg	5	yes	57	0	612
6.6.1	win	2022-12-14	15:00:44	15:09:52	546599	56279953ddff3c0005bcdba9	141723665	1	main_z	11	main_z	11	stimuli_distractor_diamondtriangles.svg	stimuli_distractor_trianglediamonds.svg	37	no	44	0	1197
6.6.1	win	2022-12-14	15:00:44	15:09:52	546599	56279953ddff3c0005bcdba9	141723665	1	main_z	11	advance_on_keypress_ZEE	12	stimuli_distractor_diamondtriangles.svg	stimuli_distractor_trianglediamonds.svg	37	no	57	0	431
6.6.1	win	2022-12-14	15:00:44	15:09:54	548593	56279953ddff3c0005bcdba9	141723665	1	main_z	11	main_z	13	stimuli_target_diamondsquares.svg	stimuli_distractor_trianglediamonds.svg	20	yes	44	1	910
6.6.1	win	2022-12-14	15:00:44	15:09:54	548593	56279953ddff3c0005bcdba9	141723665	1	main_z	11	advance_on_keypress_ZEE	14	stimuli_target_diamondsquares.svg	stimuli_distractor_trianglediamonds.svg	20	yes	57	0	441
6.6.1	win	2022-12-14	15:00:44	15:09:56	550383	56279953ddff3c0005bcdba9	141723665	1	main_z	11	main_z	15	stimuli_distractor_diamondtriangles.svg	stimuli_target_diamondsquares.svg	32	yes	44	1	703
6.6.1	win	2022-12-14	15:00:44	15:09:56	550383	56279953ddff3c0005bcdba9	141723665	1	main_z	11	advance_on_keypress_ZEE	16	stimuli_distractor_diamondtriangles.svg	stimuli_target_diamondsquares.svg	32	yes	57	0	617
6.6.1	win	2022-12-14	15:00:44	15:09:59	553645	56279953ddff3c0005bcdba9	141723665	1	main_z	11	main_z	17	stimuli_distractor_trianglediamonds.svg	stimuli_distractor_diamondtriangles.svg	36	no	0	1	2000
6.6.1	win	2022-12-14	15:00:44	15:09:59	553645	56279953ddff3c0005bcdba9	141723665	1	main_z	11	advance_on_keypress_ZEE	18	stimuli_distractor_trianglediamonds.svg	stimuli_distractor_diamondtriangles.svg	36	no	57	0	407
6.6.1	win	2022-12-14	15:00:44	15:10:01	555434	56279953ddff3c0005bcdba9	141723665	1	main_z	11	main_z	19	stimuli_target_diamondcircles.svg	stimuli_distractor_trianglediamonds.svg	19	yes	44	1	744
6.6.1	win	2022-12-14	15:00:44	15:10:01	555434	56279953ddff3c0005bcdba9	141723665	1	main_z	11	advance_on_keypress_ZEE	20	stimuli_target_diamondcircles.svg	stimuli_distractor_trianglediamonds.svg	19	yes	57	0	515
6.6.1	win	2022-12-14	15:00:44	15:10:03	557372	56279953ddff3c0005bcdba9	141723665	1	main_z	11	main_z	21	stimuli_distractor_diamondtriangles.svg	stimuli_target_circletriangles.svg	13	yes	44	1	783
6.6.1	win	2022-12-14	15:00:44	15:10:03	557372	56279953ddff3c0005bcdba9	141723665	1	main_z	11	advance_on_keypress_ZEE	22	stimuli_distractor_diamondtriangles.svg	stimuli_target_circletriangles.svg	13	yes	57	0	498
6.6.1	win	2022-12-14	15:00:44	15:10:06	560519	56279953ddff3c0005bcdba9	141723665	1	main_z	11	main_z	23	stimuli_distractor_diamondtriangles.svg	stimuli_distractor_trianglediamonds.svg	38	no	0	1	2000
6.6.1	win	2022-12-14	15:00:44	15:10:06	560519	56279953ddff3c0005bcdba9	141723665	1	main_z	11	advance_on_keypress_ZEE	24	stimuli_distractor_diamondtriangles.svg	stimuli_distractor_trianglediamonds.svg	38	no	57	0	380
6.6.1	win	2022-12-14	15:00:44	15:10:07	562242	56279953ddff3c0005bcdba9	141723665	1	main_z	11	main_z	25	stimuli_distractor_trianglediamonds.svg	stimuli_target_squaretriangles.svg	11	yes	44	1	693
6.6.1	win	2022-12-14	15:00:44	15:10:07	562242	56279953ddff3c0005bcdba9	141723665	1	main_z	11	advance_on_keypress_ZEE	26	stimuli_distractor_trianglediamonds.svg	stimuli_target_squaretriangles.svg	11	yes	57	0	556
6.6.1	win	2022-12-14	15:00:44	15:10:09	564104	56279953ddff3c0005bcdba9	141723665	1	main_z	11	main_z	27	stimuli_target_circletriangles.svg	stimuli_distractor_trianglediamonds.svg	1	yes	44	1	674
6.6.1	win	2022-12-14	15:00:44	15:10:09	564104	56279953ddff3c0005bcdba9	141723665	1	main_z	11	advance_on_keypress_ZEE	28	stimuli_target_circletriangles.svg	stimuli_distractor_trianglediamonds.svg	1	yes	57	0	444
6.6.1	win	2022-12-14	15:00:44	15:10:12	567177	56279953ddff3c0005bcdba9	141723665	1	main_z	11	main_z	29	stimuli_distractor_diamondtriangles.svg	stimuli_distractor_diamondtriangles.svg	40	no	0	1	2000
6.6.1	win	2022-12-14	15:00:44	15:10:12	567177	56279953ddff3c0005bcdba9	141723665	1	main_z	11	advance_on_keypress_ZEE	30	stimuli_distractor_diamondtriangles.svg	stimuli_distractor_diamondtriangles.svg	40	no	57	0	363
6.6.1	win	2022-12-14	15:00:44	15:10:14	568984	56279953ddff3c0005bcdba9	141723665	1	main_z	11	main_z	31	stimuli_target_trianglecircles.svg	stimuli_distractor_trianglediamonds.svg	17	yes	44	1	794
6.6.1	win	2022-12-14	15:00:44	15:10:14	568984	56279953ddff3c0005bcdba9	141723665	1	main_z	11	advance_on_keypress_ZEE	32	stimuli_target_trianglecircles.svg	stimuli_distractor_trianglediamonds.svg	17	yes	57	0	550
6.6.1	win	2022-12-14	15:00:44	15:10:17	571290	56279953ddff3c0005bcdba9	141723665	1	main_z	11	main_z	33	stimuli_distractor_diamondtriangles.svg	stimuli_target_trianglecircles.svg	29	yes	44	1	1119
6.6.1	win	2022-12-14	15:00:44	15:10:17	571290	56279953ddff3c0005bcdba9	141723665	1	main_z	11	advance_on_keypress_ZEE	34	stimuli_distractor_diamondtriangles.svg	stimuli_target_trianglecircles.svg	29	yes	57	0	593
6.6.1	win	2022-12-14	15:00:44	15:10:19	573410	56279953ddff3c0005bcdba9	141723665	1	main_z	11	main_z	35	stimuli_distractor_diamondtriangles.svg	stimuli_target_diamondcircles.svg	31	yes	44	1	892
6.6.1	win	2022-12-14	15:00:44	15:10:19	573410	56279953ddff3c0005bcdba9	141723665	1	main_z	11	advance_on_keypress_ZEE	36	stimuli_distractor_diamondtriangles.svg	stimuli_target_diamondcircles.svg	31	yes	57	0	492
6.6.1	win	2022-12-14	15:00:44	15:10:21	575420	56279953ddff3c0005bcdba9	141723665	1	main_z	11	main_z	37	stimuli_distractor_trianglediamonds.svg	stimuli_target_diamondcircles.svg	27	yes	44	1	887
6.6.1	win	2022-12-14	15:00:44	15:10:21	575420	56279953ddff3c0005bcdba9	141723665	1	main_z	11	advance_on_keypress_ZEE	38	stimuli_distractor_trianglediamonds.svg	stimuli_target_diamondcircles.svg	27	yes	57	0	758
6.6.1	win	2022-12-14	15:00:44	15:10:23	577617	56279953ddff3c0005bcdba9	141723665	1	main_z	11	main_z	39	stimuli_distractor_diamondtriangles.svg	stimuli_target_trianglesquares.svg	30	yes	44	1	804
6.6.1	win	2022-12-14	15:00:44	15:10:23	577617	56279953ddff3c0005bcdba9	141723665	1	main_z	11	advance_on_keypress_ZEE	40	stimuli_distractor_diamondtriangles.svg	stimuli_target_trianglesquares.svg	30	yes	57	0	497
6.6.1	win	2022-12-14	15:00:44	15:10:25	579604	56279953ddff3c0005bcdba9	141723665	1	main_z	11	main_z	41	stimuli_distractor_trianglediamonds.svg	stimuli_target_diamondsquares.svg	28	yes	44	1	842
6.6.1	win	2022-12-14	15:00:44	15:10:25	579604	56279953ddff3c0005bcdba9	141723665	1	main_z	11	advance_on_keypress_ZEE	42	stimuli_distractor_trianglediamonds.svg	stimuli_target_diamondsquares.svg	28	yes	57	0	549
6.6.1	win	2022-12-14	15:00:44	15:10:27	581548	56279953ddff3c0005bcdba9	141723665	1	main_z	11	main_z	43	stimuli_target_squaretriangles.svg	stimuli_distractor_trianglediamonds.svg	3	yes	44	1	755
6.6.1	win	2022-12-14	15:00:44	15:10:27	581548	56279953ddff3c0005bcdba9	141723665	1	main_z	11	advance_on_keypress_ZEE	44	stimuli_target_squaretriangles.svg	stimuli_distractor_trianglediamonds.svg	3	yes	57	0	489
6.6.1	win	2022-12-14	15:00:44	15:10:29	583358	56279953ddff3c0005bcdba9	141723665	1	main_z	11	main_z	45	stimuli_target_trianglesquares.svg	stimuli_distractor_trianglediamonds.svg	18	yes	44	1	686
6.6.1	win	2022-12-14	15:00:44	15:10:29	583358	56279953ddff3c0005bcdba9	141723665	1	main_z	11	advance_on_keypress_ZEE	46	stimuli_target_trianglesquares.svg	stimuli_distractor_trianglediamonds.svg	18	yes	57	0	523
6.6.1	win	2022-12-14	15:00:44	15:10:31	585301	56279953ddff3c0005bcdba9	141723665	1	main_z	11	main_z	47	stimuli_distractor_trianglediamonds.svg	stimuli_target_trianglesquares.svg	26	yes	44	1	780
6.6.1	win	2022-12-14	15:00:44	15:10:31	585301	56279953ddff3c0005bcdba9	141723665	1	main_z	11	advance_on_keypress_ZEE	48	stimuli_distractor_trianglediamonds.svg	stimuli_target_trianglesquares.svg	26	yes	57	0	472
6.6.1	win	2022-12-14	15:00:44	15:10:32	587187	56279953ddff3c0005bcdba9	141723665	1	main_z	11	main_z	49	stimuli_target_circlediamonds.svg	stimuli_distractor_trianglediamonds.svg	2	yes	44	1	769
6.6.1	win	2022-12-14	15:00:44	15:10:32	587187	56279953ddff3c0005bcdba9	141723665	1	main_z	11	advance_on_keypress_ZEE	50	stimuli_target_circlediamonds.svg	stimuli_distractor_trianglediamonds.svg	2	yes	57	0	455
6.6.1	win	2022-12-14	15:00:44	15:10:36	590282	56279953ddff3c0005bcdba9	141723665	1	main_z	11	main_z	51	stimuli_distractor_trianglediamonds.svg	stimuli_distractor_trianglediamonds.svg	34	no	0	1	2000
6.6.1	win	2022-12-14	15:00:44	15:10:36	590282	56279953ddff3c0005bcdba9	141723665	1	main_z	11	advance_on_keypress_ZEE	52	stimuli_distractor_trianglediamonds.svg	stimuli_distractor_trianglediamonds.svg	34	no	57	0	440
6.6.1	win	2022-12-14	15:00:44	15:10:37	592064	56279953ddff3c0005bcdba9	141723665	1	main_z	11	main_z	53	stimuli_distractor_trianglediamonds.svg	stimuli_target_circletriangles.svg	9	yes	44	1	702
6.6.1	win	2022-12-14	15:00:44	15:10:37	592064	56279953ddff3c0005bcdba9	141723665	1	main_z	11	advance_on_keypress_ZEE	54	stimuli_distractor_trianglediamonds.svg	stimuli_target_circletriangles.svg	9	yes	57	0	549
6.6.1	win	2022-12-14	15:00:44	15:10:39	594083	56279953ddff3c0005bcdba9	141723665	1	main_z	11	main_z	55	stimuli_distractor_diamondtriangles.svg	stimuli_target_squaretriangles.svg	15	yes	44	1	824
6.6.1	win	2022-12-14	15:00:44	15:10:39	594083	56279953ddff3c0005bcdba9	141723665	1	main_z	11	advance_on_keypress_ZEE	56	stimuli_distractor_diamondtriangles.svg	stimuli_target_squaretriangles.svg	15	yes	57	0	468
6.6.1	win	2022-12-14	15:00:44	15:10:41	596015	56279953ddff3c0005bcdba9	141723665	1	main_z	11	main_z	57	stimuli_distractor_trianglediamonds.svg	stimuli_distractor_diamondtriangles.svg	35	no	44	0	824
6.6.1	win	2022-12-14	15:00:44	15:10:41	596015	56279953ddff3c0005bcdba9	141723665	1	main_z	11	advance_on_keypress_ZEE	58	stimuli_distractor_trianglediamonds.svg	stimuli_distractor_diamondtriangles.svg	35	no	57	0	491
6.6.1	win	2022-12-14	15:00:44	15:10:43	597921	56279953ddff3c0005bcdba9	141723665	1	main_z	11	main_z	59	stimuli_distractor_trianglediamonds.svg	stimuli_target_squarediamonds.svg	12	yes	44	1	781
6.6.1	win	2022-12-14	15:00:44	15:10:43	597921	56279953ddff3c0005bcdba9	141723665	1	main_z	11	advance_on_keypress_ZEE	60	stimuli_distractor_trianglediamonds.svg	stimuli_target_squarediamonds.svg	12	yes	57	0	487
6.6.1	win	2022-12-14	15:00:44	15:10:45	600058	56279953ddff3c0005bcdba9	141723665	1	main_z	11	main_z	61	stimuli_distractor_diamondtriangles.svg	stimuli_target_circlediamonds.svg	14	yes	44	1	1006
6.6.1	win	2022-12-14	15:00:44	15:10:45	600058	56279953ddff3c0005bcdba9	141723665	1	main_z	11	advance_on_keypress_ZEE	62	stimuli_distractor_diamondtriangles.svg	stimuli_target_circlediamonds.svg	14	yes	57	0	554
6.6.1	win	2022-12-14	15:00:44	15:10:47	602047	56279953ddff3c0005bcdba9	141723665	1	main_z	11	main_z	63	stimuli_target_squarediamonds.svg	stimuli_distractor_diamondtriangles.svg	8	yes	44	1	797
6.6.1	win	2022-12-14	15:00:44	15:10:47	602047	56279953ddff3c0005bcdba9	141723665	1	main_z	11	advance_on_keypress_ZEE	64	stimuli_target_squarediamonds.svg	stimuli_distractor_diamondtriangles.svg	8	yes	57	0	481
6.6.1	win	2022-12-14	15:00:44	15:10:49	603929	56279953ddff3c0005bcdba9	141723665	1	main_z	11	main_z	65	stimuli_target_squaretriangles.svg	stimuli_distractor_diamondtriangles.svg	7	yes	44	1	749
6.6.1	win	2022-12-14	15:00:44	15:10:49	603929	56279953ddff3c0005bcdba9	141723665	1	main_z	11	advance_on_keypress_ZEE	66	stimuli_target_squaretriangles.svg	stimuli_distractor_diamondtriangles.svg	7	yes	57	0	535
6.6.1	win	2022-12-14	15:00:44	15:10:51	605877	56279953ddff3c0005bcdba9	141723665	1	main_z	11	main_z	67	stimuli_target_diamondcircles.svg	stimuli_distractor_diamondtriangles.svg	23	yes	44	1	766
6.6.1	win	2022-12-14	15:00:44	15:10:51	605877	56279953ddff3c0005bcdba9	141723665	1	main_z	11	advance_on_keypress_ZEE	68	stimuli_target_diamondcircles.svg	stimuli_distractor_diamondtriangles.svg	23	yes	57	0	453
6.6.1	win	2022-12-14	15:00:44	15:10:53	607648	56279953ddff3c0005bcdba9	141723665	1	main_z	11	main_z	69	stimuli_target_trianglecircles.svg	stimuli_distractor_diamondtriangles.svg	21	yes	44	1	670
6.6.1	win	2022-12-14	15:00:44	15:10:53	607648	56279953ddff3c0005bcdba9	141723665	1	main_z	11	advance_on_keypress_ZEE	70	stimuli_target_trianglecircles.svg	stimuli_distractor_diamondtriangles.svg	21	yes	57	0	487
6.6.1	win	2022-12-14	15:00:44	15:10:56	610773	56279953ddff3c0005bcdba9	141723665	1	main_z	11	main_z	71	stimuli_distractor_diamondtriangles.svg	stimuli_distractor_diamondtriangles.svg	39	no	0	1	2000
6.6.1	win	2022-12-14	15:00:44	15:10:56	610773	56279953ddff3c0005bcdba9	141723665	1	main_z	11	advance_on_keypress_ZEE	72	stimuli_distractor_diamondtriangles.svg	stimuli_distractor_diamondtriangles.svg	39	no	57	0	421
6.6.1	win	2022-12-14	15:00:44	15:10:58	612748	56279953ddff3c0005bcdba9	141723665	1	main_z	11	main_z	73	stimuli_distractor_diamondtriangles.svg	stimuli_target_squarediamonds.svg	16	yes	44	1	911
6.6.1	win	2022-12-14	15:00:44	15:10:58	612748	56279953ddff3c0005bcdba9	141723665	1	main_z	11	advance_on_keypress_ZEE	74	stimuli_distractor_diamondtriangles.svg	stimuli_target_squarediamonds.svg	16	yes	57	0	481
6.6.1	win	2022-12-14	15:00:44	15:11:00	614649	56279953ddff3c0005bcdba9	141723665	1	main_z	11	main_z	75	stimuli_target_diamondsquares.svg	stimuli_distractor_diamondtriangles.svg	24	yes	44	1	765
6.6.1	win	2022-12-14	15:00:44	15:11:00	614649	56279953ddff3c0005bcdba9	141723665	1	main_z	11	advance_on_keypress_ZEE	76	stimuli_target_diamondsquares.svg	stimuli_distractor_diamondtriangles.svg	24	yes	57	0	412
6.6.1	win	2022-12-14	15:00:44	15:11:03	617698	56279953ddff3c0005bcdba9	141723665	1	main_z	11	main_z	77	stimuli_distractor_trianglediamonds.svg	stimuli_distractor_trianglediamonds.svg	33	no	0	1	2000
6.6.1	win	2022-12-14	15:00:44	15:11:03	617698	56279953ddff3c0005bcdba9	141723665	1	main_z	11	advance_on_keypress_ZEE	78	stimuli_distractor_trianglediamonds.svg	stimuli_distractor_trianglediamonds.svg	33	no	57	0	678
6.6.1	win	2022-12-14	15:00:44	15:11:05	619670	56279953ddff3c0005bcdba9	141723665	1	main_z	11	main_z	79	stimuli_target_circlediamonds.svg	stimuli_distractor_diamondtriangles.svg	6	yes	44	1	661
6.6.1	win	2022-12-14	15:00:44	15:11:05	619670	56279953ddff3c0005bcdba9	141723665	1	main_z	11	advance_on_keypress_ZEE	80	stimuli_target_circlediamonds.svg	stimuli_distractor_diamondtriangles.svg	6	yes	57	0	437
6.6.1	win	2022-12-14	15:00:44	15:11:07	621505	56279953ddff3c0005bcdba9	141723665	1	main_z	11	main_z	81	stimuli_distractor_trianglediamonds.svg	stimuli_target_trianglesquares.svg	26	yes	44	1	763
6.6.1	win	2022-12-14	15:00:44	15:11:07	621505	56279953ddff3c0005bcdba9	141723665	1	main_z	11	advance_on_keypress_ZEE	82	stimuli_distractor_trianglediamonds.svg	stimuli_target_trianglesquares.svg	26	yes	57	0	470
6.6.1	win	2022-12-14	15:00:44	15:11:09	623341	56279953ddff3c0005bcdba9	141723665	1	main_z	11	main_z	83	stimuli_distractor_diamondtriangles.svg	stimuli_target_trianglecircles.svg	29	yes	44	1	718
6.6.1	win	2022-12-14	15:00:44	15:11:09	623341	56279953ddff3c0005bcdba9	141723665	1	main_z	11	advance_on_keypress_ZEE	84	stimuli_distractor_diamondtriangles.svg	stimuli_target_trianglecircles.svg	29	yes	57	0	447
6.6.1	win	2022-12-14	15:00:44	15:11:10	625103	56279953ddff3c0005bcdba9	141723665	1	main_z	11	main_z	85	stimuli_distractor_diamondtriangles.svg	stimuli_target_diamondsquares.svg	32	yes	44	1	665
6.6.1	win	2022-12-14	15:00:44	15:11:10	625103	56279953ddff3c0005bcdba9	141723665	1	main_z	11	advance_on_keypress_ZEE	86	stimuli_distractor_diamondtriangles.svg	stimuli_target_diamondsquares.svg	32	yes	57	0	520
6.6.1	win	2022-12-14	15:00:44	15:11:12	627001	56279953ddff3c0005bcdba9	141723665	1	main_z	11	main_z	87	stimuli_target_squarediamonds.svg	stimuli_distractor_diamondtriangles.svg	8	yes	44	1	733
6.6.1	win	2022-12-14	15:00:44	15:11:12	627001	56279953ddff3c0005bcdba9	141723665	1	main_z	11	advance_on_keypress_ZEE	88	stimuli_target_squarediamonds.svg	stimuli_distractor_diamondtriangles.svg	8	yes	57	0	449
6.6.1	win	2022-12-14	15:00:44	15:11:14	628816	56279953ddff3c0005bcdba9	141723665	1	main_z	11	main_z	89	stimuli_target_diamondcircles.svg	stimuli_distractor_diamondtriangles.svg	23	yes	44	1	717
6.6.1	win	2022-12-14	15:00:44	15:11:14	628816	56279953ddff3c0005bcdba9	141723665	1	main_z	11	advance_on_keypress_ZEE	90	stimuli_target_diamondcircles.svg	stimuli_distractor_diamondtriangles.svg	23	yes	57	0	411
6.6.1	win	2022-12-14	15:00:44	15:11:16	630754	56279953ddff3c0005bcdba9	141723665	1	main_z	11	main_z	91	stimuli_distractor_trianglediamonds.svg	stimuli_distractor_trianglediamonds.svg	33	no	44	0	890
6.6.1	win	2022-12-14	15:00:44	15:11:16	630754	56279953ddff3c0005bcdba9	141723665	1	main_z	11	advance_on_keypress_ZEE	92	stimuli_distractor_trianglediamonds.svg	stimuli_distractor_trianglediamonds.svg	33	no	57	0	525
6.6.1	win	2022-12-14	15:00:44	15:11:18	632828	56279953ddff3c0005bcdba9	141723665	1	main_z	11	main_z	93	stimuli_distractor_diamondtriangles.svg	stimuli_distractor_diamondtriangles.svg	39	no	44	0	917
6.6.1	win	2022-12-14	15:00:44	15:11:18	632828	56279953ddff3c0005bcdba9	141723665	1	main_z	11	advance_on_keypress_ZEE	94	stimuli_distractor_diamondtriangles.svg	stimuli_distractor_diamondtriangles.svg	39	no	57	0	416
6.6.1	win	2022-12-14	15:00:44	15:11:20	634766	56279953ddff3c0005bcdba9	141723665	1	main_z	11	main_z	95	stimuli_target_trianglecircles.svg	stimuli_distractor_diamondtriangles.svg	21	yes	44	1	872
6.6.1	win	2022-12-14	15:00:44	15:11:20	634766	56279953ddff3c0005bcdba9	141723665	1	main_z	11	advance_on_keypress_ZEE	96	stimuli_target_trianglecircles.svg	stimuli_distractor_diamondtriangles.svg	21	yes	57	0	408
6.6.1	win	2022-12-14	15:00:44	15:11:22	636492	56279953ddff3c0005bcdba9	141723665	1	main_z	11	main_z	97	stimuli_distractor_trianglediamonds.svg	stimuli_target_diamondsquares.svg	28	yes	44	1	686
6.6.1	win	2022-12-14	15:00:44	15:11:22	636492	56279953ddff3c0005bcdba9	141723665	1	main_z	11	advance_on_keypress_ZEE	98	stimuli_distractor_trianglediamonds.svg	stimuli_target_diamondsquares.svg	28	yes	57	0	421
6.6.1	win	2022-12-14	15:00:44	15:11:24	638303	56279953ddff3c0005bcdba9	141723665	1	main_z	11	main_z	99	stimuli_distractor_diamondtriangles.svg	stimuli_target_squarediamonds.svg	16	yes	44	1	749
6.6.1	win	2022-12-14	15:00:44	15:11:24	638303	56279953ddff3c0005bcdba9	141723665	1	main_z	11	advance_on_keypress_ZEE	100	stimuli_distractor_diamondtriangles.svg	stimuli_target_squarediamonds.svg	16	yes	57	0	411
6.6.1	win	2022-12-14	15:00:44	15:11:27	641351	56279953ddff3c0005bcdba9	141723665	1	main_z	11	main_z	101	stimuli_distractor_diamondtriangles.svg	stimuli_distractor_trianglediamonds.svg	37	no	0	1	2000
6.6.1	win	2022-12-14	15:00:44	15:11:27	641351	56279953ddff3c0005bcdba9	141723665	1	main_z	11	advance_on_keypress_ZEE	102	stimuli_distractor_diamondtriangles.svg	stimuli_distractor_trianglediamonds.svg	37	no	57	0	688
6.6.1	win	2022-12-14	15:00:44	15:11:30	644426	56279953ddff3c0005bcdba9	141723665	1	main_z	11	main_z	103	stimuli_distractor_trianglediamonds.svg	stimuli_distractor_diamondtriangles.svg	35	no	44	0	1744
6.6.1	win	2022-12-14	15:00:44	15:11:30	644426	56279953ddff3c0005bcdba9	141723665	1	main_z	11	advance_on_keypress_ZEE	104	stimuli_distractor_trianglediamonds.svg	stimuli_distractor_diamondtriangles.svg	35	no	57	0	577
6.6.1	win	2022-12-14	15:00:44	15:11:32	646394	56279953ddff3c0005bcdba9	141723665	1	main_z	11	main_z	105	stimuli_target_squarediamonds.svg	stimuli_distractor_trianglediamonds.svg	4	yes	44	1	751
6.6.1	win	2022-12-14	15:00:44	15:11:32	646394	56279953ddff3c0005bcdba9	141723665	1	main_z	11	advance_on_keypress_ZEE	106	stimuli_target_squarediamonds.svg	stimuli_distractor_trianglediamonds.svg	4	yes	57	0	385
6.6.1	win	2022-12-14	15:00:44	15:11:33	648129	56279953ddff3c0005bcdba9	141723665	1	main_z	11	main_z	107	stimuli_distractor_trianglediamonds.svg	stimuli_target_squarediamonds.svg	12	yes	44	1	704
6.6.1	win	2022-12-14	15:00:44	15:11:33	648129	56279953ddff3c0005bcdba9	141723665	1	main_z	11	advance_on_keypress_ZEE	108	stimuli_distractor_trianglediamonds.svg	stimuli_target_squarediamonds.svg	12	yes	57	0	463
6.6.1	win	2022-12-14	15:00:44	15:11:35	649939	56279953ddff3c0005bcdba9	141723665	1	main_z	11	main_z	109	stimuli_distractor_trianglediamonds.svg	stimuli_target_trianglecircles.svg	25	yes	44	1	716
6.6.1	win	2022-12-14	15:00:44	15:11:35	649939	56279953ddff3c0005bcdba9	141723665	1	main_z	11	advance_on_keypress_ZEE	110	stimuli_distractor_trianglediamonds.svg	stimuli_target_trianglecircles.svg	25	yes	57	0	497
6.6.1	win	2022-12-14	15:00:44	15:11:38	652634	56279953ddff3c0005bcdba9	141723665	1	main_z	11	main_z	111	stimuli_target_diamondcircles.svg	stimuli_distractor_trianglediamonds.svg	19	yes	44	1	1546
6.6.1	win	2022-12-14	15:00:44	15:11:38	652634	56279953ddff3c0005bcdba9	141723665	1	main_z	11	advance_on_keypress_ZEE	112	stimuli_target_diamondcircles.svg	stimuli_distractor_trianglediamonds.svg	19	yes	57	0	633
6.6.1	win	2022-12-14	15:00:44	15:11:40	654786	56279953ddff3c0005bcdba9	141723665	1	main_z	11	main_z	113	stimuli_distractor_diamondtriangles.svg	stimuli_target_squaretriangles.svg	15	yes	44	1	869
6.6.1	win	2022-12-14	15:00:44	15:11:40	654786	56279953ddff3c0005bcdba9	141723665	1	main_z	11	advance_on_keypress_ZEE	114	stimuli_distractor_diamondtriangles.svg	stimuli_target_squaretriangles.svg	15	yes	57	0	448
6.6.1	win	2022-12-14	15:00:44	15:11:43	657881	56279953ddff3c0005bcdba9	141723665	1	main_z	11	main_z	115	stimuli_distractor_diamondtriangles.svg	stimuli_distractor_diamondtriangles.svg	40	no	0	1	2000
6.6.1	win	2022-12-14	15:00:44	15:11:43	657881	56279953ddff3c0005bcdba9	141723665	1	main_z	11	advance_on_keypress_ZEE	116	stimuli_distractor_diamondtriangles.svg	stimuli_distractor_diamondtriangles.svg	40	no	57	0	403
6.6.1	win	2022-12-14	15:00:44	15:11:45	659949	56279953ddff3c0005bcdba9	141723665	1	main_z	11	main_z	117	stimuli_target_trianglesquares.svg	stimuli_distractor_trianglediamonds.svg	18	yes	44	1	1022
6.6.1	win	2022-12-14	15:00:44	15:11:45	659949	56279953ddff3c0005bcdba9	141723665	1	main_z	11	advance_on_keypress_ZEE	118	stimuli_target_trianglesquares.svg	stimuli_distractor_trianglediamonds.svg	18	yes	57	0	477
6.6.1	win	2022-12-14	15:00:44	15:11:47	662193	56279953ddff3c0005bcdba9	141723665	1	main_z	11	main_z	119	stimuli_target_diamondsquares.svg	stimuli_distractor_trianglediamonds.svg	20	yes	44	1	1135
6.6.1	win	2022-12-14	15:00:44	15:11:47	662193	56279953ddff3c0005bcdba9	141723665	1	main_z	11	advance_on_keypress_ZEE	120	stimuli_target_diamondsquares.svg	stimuli_distractor_trianglediamonds.svg	20	yes	57	0	479
6.6.1	win	2022-12-14	15:00:44	15:11:49	664186	56279953ddff3c0005bcdba9	141723665	1	main_z	11	main_z	121	stimuli_target_squaretriangles.svg	stimuli_distractor_trianglediamonds.svg	3	yes	44	1	881
6.6.1	win	2022-12-14	15:00:44	15:11:49	664186	56279953ddff3c0005bcdba9	141723665	1	main_z	11	advance_on_keypress_ZEE	122	stimuli_target_squaretriangles.svg	stimuli_distractor_trianglediamonds.svg	3	yes	57	0	497
6.6.1	win	2022-12-14	15:00:44	15:11:51	666137	56279953ddff3c0005bcdba9	141723665	1	main_z	11	main_z	123	stimuli_target_circlediamonds.svg	stimuli_distractor_trianglediamonds.svg	2	yes	44	1	801
6.6.1	win	2022-12-14	15:00:44	15:11:51	666137	56279953ddff3c0005bcdba9	141723665	1	main_z	11	advance_on_keypress_ZEE	124	stimuli_target_circlediamonds.svg	stimuli_distractor_trianglediamonds.svg	2	yes	57	0	480
6.6.1	win	2022-12-14	15:00:44	15:11:53	667969	56279953ddff3c0005bcdba9	141723665	1	main_z	11	main_z	125	stimuli_distractor_diamondtriangles.svg	stimuli_target_diamondcircles.svg	31	yes	44	1	702
6.6.1	win	2022-12-14	15:00:44	15:11:53	667969	56279953ddff3c0005bcdba9	141723665	1	main_z	11	advance_on_keypress_ZEE	126	stimuli_distractor_diamondtriangles.svg	stimuli_target_diamondcircles.svg	31	yes	57	0	519
6.6.1	win	2022-12-14	15:00:44	15:11:55	669871	56279953ddff3c0005bcdba9	141723665	1	main_z	11	main_z	127	stimuli_target_circletriangles.svg	stimuli_distractor_diamondtriangles.svg	5	yes	44	1	740
6.6.1	win	2022-12-14	15:00:44	15:11:55	669871	56279953ddff3c0005bcdba9	141723665	1	main_z	11	advance_on_keypress_ZEE	128	stimuli_target_circletriangles.svg	stimuli_distractor_diamondtriangles.svg	5	yes	57	0	481
6.6.1	win	2022-12-14	15:00:44	15:11:57	671725	56279953ddff3c0005bcdba9	141723665	1	main_z	11	main_z	129	stimuli_target_trianglecircles.svg	stimuli_distractor_trianglediamonds.svg	17	yes	44	1	728
6.6.1	win	2022-12-14	15:00:44	15:11:57	671725	56279953ddff3c0005bcdba9	141723665	1	main_z	11	advance_on_keypress_ZEE	130	stimuli_target_trianglecircles.svg	stimuli_distractor_trianglediamonds.svg	17	yes	57	0	512
6.6.1	win	2022-12-14	15:00:44	15:11:59	673603	56279953ddff3c0005bcdba9	141723665	1	main_z	11	main_z	131	stimuli_distractor_trianglediamonds.svg	stimuli_target_diamondcircles.svg	27	yes	44	1	726
6.6.1	win	2022-12-14	15:00:44	15:11:59	673603	56279953ddff3c0005bcdba9	141723665	1	main_z	11	advance_on_keypress_ZEE	132	stimuli_distractor_trianglediamonds.svg	stimuli_target_diamondcircles.svg	27	yes	57	0	553
6.6.1	win	2022-12-14	15:00:44	15:12:01	675529	56279953ddff3c0005bcdba9	141723665	1	main_z	11	main_z	133	stimuli_target_circletriangles.svg	stimuli_distractor_trianglediamonds.svg	1	yes	44	1	738
6.6.1	win	2022-12-14	15:00:44	15:12:01	675529	56279953ddff3c0005bcdba9	141723665	1	main_z	11	advance_on_keypress_ZEE	134	stimuli_target_circletriangles.svg	stimuli_distractor_trianglediamonds.svg	1	yes	57	0	444
6.6.1	win	2022-12-14	15:00:44	15:12:03	677570	56279953ddff3c0005bcdba9	141723665	1	main_z	11	main_z	135	stimuli_distractor_trianglediamonds.svg	stimuli_distractor_trianglediamonds.svg	34	no	44	0	964
6.6.1	win	2022-12-14	15:00:44	15:12:03	677570	56279953ddff3c0005bcdba9	141723665	1	main_z	11	advance_on_keypress_ZEE	136	stimuli_distractor_trianglediamonds.svg	stimuli_distractor_trianglediamonds.svg	34	no	57	0	454
6.6.1	win	2022-12-14	15:00:44	15:12:05	679471	56279953ddff3c0005bcdba9	141723665	1	main_z	11	main_z	137	stimuli_target_diamondsquares.svg	stimuli_distractor_diamondtriangles.svg	24	yes	44	1	801
6.6.1	win	2022-12-14	15:00:44	15:12:05	679471	56279953ddff3c0005bcdba9	141723665	1	main_z	11	advance_on_keypress_ZEE	138	stimuli_target_diamondsquares.svg	stimuli_distractor_diamondtriangles.svg	24	yes	57	0	1275
6.6.1	win	2022-12-14	15:00:44	15:12:08	682292	56279953ddff3c0005bcdba9	141723665	1	main_z	11	main_z	139	stimuli_target_squaretriangles.svg	stimuli_distractor_diamondtriangles.svg	7	yes	44	1	909
6.6.1	win	2022-12-14	15:00:44	15:12:08	682292	56279953ddff3c0005bcdba9	141723665	1	main_z	11	advance_on_keypress_ZEE	140	stimuli_target_squaretriangles.svg	stimuli_distractor_diamondtriangles.svg	7	yes	57	0	973
6.6.1	win	2022-12-14	15:00:44	15:12:10	684855	56279953ddff3c0005bcdba9	141723665	1	main_z	11	main_z	141	stimuli_distractor_trianglediamonds.svg	stimuli_target_circlediamonds.svg	10	yes	44	1	958
6.6.1	win	2022-12-14	15:00:44	15:12:10	684855	56279953ddff3c0005bcdba9	141723665	1	main_z	11	advance_on_keypress_ZEE	142	stimuli_distractor_trianglediamonds.svg	stimuli_target_circlediamonds.svg	10	yes	57	0	604
6.6.1	win	2022-12-14	15:00:44	15:12:12	686879	56279953ddff3c0005bcdba9	141723665	1	main_z	11	main_z	143	stimuli_distractor_trianglediamonds.svg	stimuli_target_squaretriangles.svg	11	yes	44	1	785
6.6.1	win	2022-12-14	15:00:44	15:12:12	686879	56279953ddff3c0005bcdba9	141723665	1	main_z	11	advance_on_keypress_ZEE	144	stimuli_distractor_trianglediamonds.svg	stimuli_target_squaretriangles.svg	11	yes	57	0	479
6.6.1	win	2022-12-14	15:00:44	15:12:14	689029	56279953ddff3c0005bcdba9	141723665	1	main_z	11	main_z	145	stimuli_distractor_trianglediamonds.svg	stimuli_target_circletriangles.svg	9	yes	44	1	1020
6.6.1	win	2022-12-14	15:00:44	15:12:14	689029	56279953ddff3c0005bcdba9	141723665	1	main_z	11	advance_on_keypress_ZEE	146	stimuli_distractor_trianglediamonds.svg	stimuli_target_circletriangles.svg	9	yes	57	0	351
6.6.1	win	2022-12-14	15:00:44	15:12:16	690739	56279953ddff3c0005bcdba9	141723665	1	main_z	11	main_z	147	stimuli_distractor_diamondtriangles.svg	stimuli_target_circlediamonds.svg	14	yes	44	1	717
6.6.1	win	2022-12-14	15:00:44	15:12:16	690739	56279953ddff3c0005bcdba9	141723665	1	main_z	11	advance_on_keypress_ZEE	148	stimuli_distractor_diamondtriangles.svg	stimuli_target_circlediamonds.svg	14	yes	57	0	472
6.6.1	win	2022-12-14	15:00:44	15:12:18	692845	56279953ddff3c0005bcdba9	141723665	1	main_z	11	main_z	149	stimuli_target_trianglesquares.svg	stimuli_distractor_diamondtriangles.svg	22	yes	44	1	990
6.6.1	win	2022-12-14	15:00:44	15:12:18	692845	56279953ddff3c0005bcdba9	141723665	1	main_z	11	advance_on_keypress_ZEE	150	stimuli_target_trianglesquares.svg	stimuli_distractor_diamondtriangles.svg	22	yes	57	0	477
6.6.1	win	2022-12-14	15:00:44	15:12:20	694925	56279953ddff3c0005bcdba9	141723665	1	main_z	11	main_z	151	stimuli_distractor_diamondtriangles.svg	stimuli_target_trianglesquares.svg	30	yes	44	1	974
6.6.1	win	2022-12-14	15:00:44	15:12:20	694925	56279953ddff3c0005bcdba9	141723665	1	main_z	11	advance_on_keypress_ZEE	152	stimuli_distractor_diamondtriangles.svg	stimuli_target_trianglesquares.svg	30	yes	57	0	519
6.6.1	win	2022-12-14	15:00:44	15:12:23	698081	56279953ddff3c0005bcdba9	141723665	1	main_z	11	main_z	153	stimuli_distractor_trianglediamonds.svg	stimuli_distractor_diamondtriangles.svg	36	no	0	1	2000
6.6.1	win	2022-12-14	15:00:44	15:12:23	698081	56279953ddff3c0005bcdba9	141723665	1	main_z	11	advance_on_keypress_ZEE	154	stimuli_distractor_trianglediamonds.svg	stimuli_distractor_diamondtriangles.svg	36	no	57	0	384
6.6.1	win	2022-12-14	15:00:44	15:12:25	700142	56279953ddff3c0005bcdba9	141723665	1	main_z	11	main_z	155	stimuli_distractor_diamondtriangles.svg	stimuli_distractor_trianglediamonds.svg	38	no	44	0	1030
6.6.1	win	2022-12-14	15:00:44	15:12:25	700142	56279953ddff3c0005bcdba9	141723665	1	main_z	11	advance_on_keypress_ZEE	156	stimuli_distractor_diamondtriangles.svg	stimuli_distractor_trianglediamonds.svg	38	no	57	0	343
6.6.1	win	2022-12-14	15:00:44	15:12:27	701924	56279953ddff3c0005bcdba9	141723665	1	main_z	11	main_z	157	stimuli_distractor_diamondtriangles.svg	stimuli_target_circletriangles.svg	13	yes	44	1	799
6.6.1	win	2022-12-14	15:00:44	15:12:27	701924	56279953ddff3c0005bcdba9	141723665	1	main_z	11	advance_on_keypress_ZEE	158	stimuli_distractor_diamondtriangles.svg	stimuli_target_circletriangles.svg	13	yes	57	0	398
6.6.1	win	2022-12-14	15:00:44	15:12:29	703889	56279953ddff3c0005bcdba9	141723665	1	main_z	11	main_z	159	stimuli_target_circlediamonds.svg	stimuli_distractor_diamondtriangles.svg	6	yes	44	1	915
6.6.1	win	2022-12-14	15:00:44	15:12:29	703889	56279953ddff3c0005bcdba9	141723665	1	main_z	11	advance_on_keypress_ZEE	160	stimuli_target_circlediamonds.svg	stimuli_distractor_diamondtriangles.svg	6	yes	57	0	841