build	computer.platform	date	time	timestamp	time_elapsed_ms	subject	group	session	blockcode	blocknum	trialcode	trialnum	stimulus_left	stimulus_right	stim_index	target_present	response	correct	latency
6.6.1	win	2022-12-14	22:05:48	22:09:07	195200	5e544727059e3744ccdd4c3b	205395826	1	practice_z	5	practice_z	1	stimuli_distractor_diamondtriangles.svg	stimuli_target_diamondcircles.svg	8	yes	0	0	2000
6.6.1	win	2022-12-14	22:05:48	22:09:07	195200	5e544727059e3744ccdd4c3b	205395826	1	practice_z	5	advance_on_keypress_ZEE	2	stimuli_distractor_diamondtriangles.svg	stimuli_target_diamondcircles.svg	8	yes	57	0	1356
6.6.1	win	2022-12-14	22:05:48	22:09:11	198588	5e544727059e3744ccdd4c3b	205395826	1	practice_z	5	practice_z	3	stimuli_target_circlediamonds.svg	stimuli_distractor_trianglediamonds.svg	4	yes	44	1	370
6.6.1	win	2022-12-14	22:05:48	22:09:11	198588	5e544727059e3744ccdd4c3b	205395826	1	practice_z	5	advance_on_keypress_ZEE	4	stimuli_target_circlediamonds.svg	stimuli_distractor_trianglediamonds.svg	4	yes	57	0	860
6.6.1	win	2022-12-14	22:05:48	22:09:14	201581	5e544727059e3744ccdd4c3b	205395826	1	practice_z	5	practice_z	5	stimuli_distractor_trianglediamonds.svg	stimuli_target_diamondcircles.svg	12	yes	44	1	482
6.6.1	win	2022-12-14	22:05:48	22:09:14	201581	5e544727059e3744ccdd4c3b	205395826	1	practice_z	5	advance_on_keypress_ZEE	6	stimuli_distractor_trianglediamonds.svg	stimuli_target_diamondcircles.svg	12	yes	57	0	1864
6.6.1	win	2022-12-14	22:05:48	22:09:18	205649	5e544727059e3744ccdd4c3b	205395826	1	practice_z	5	practice_z	7	stimuli_target_squarediamonds.svg	stimuli_distractor_trianglediamonds.svg	5	yes	44	1	551
6.6.1	win	2022-12-14	22:05:48	22:09:18	205649	5e544727059e3744ccdd4c3b	205395826	1	practice_z	5	advance_on_keypress_ZEE	8	stimuli_target_squarediamonds.svg	stimuli_distractor_trianglediamonds.svg	5	yes	57	0	659
6.6.1	win	2022-12-14	22:05:48	22:09:20	208401	5e544727059e3744ccdd4c3b	205395826	1	practice_z	5	practice_z	9	stimuli_distractor_diamondtriangles.svg	stimuli_target_circletriangles.svg	7	yes	44	1	436
6.6.1	win	2022-12-14	22:05:48	22:09:20	208401	5e544727059e3744ccdd4c3b	205395826	1	practice_z	5	advance_on_keypress_ZEE	10	stimuli_distractor_diamondtriangles.svg	stimuli_target_circletriangles.svg	7	yes	57	0	468
6.6.1	win	2022-12-14	22:05:48	22:09:23	211023	5e544727059e3744ccdd4c3b	205395826	1	practice_z	5	practice_z	11	stimuli_target_circlediamonds.svg	stimuli_distractor_diamondtriangles.svg	1	yes	44	1	508
6.6.1	win	2022-12-14	22:05:48	22:09:23	211023	5e544727059e3744ccdd4c3b	205395826	1	practice_z	5	advance_on_keypress_ZEE	12	stimuli_target_circlediamonds.svg	stimuli_distractor_diamondtriangles.svg	1	yes	57	0	563
6.6.1	win	2022-12-14	22:05:48	22:09:26	213642	5e544727059e3744ccdd4c3b	205395826	1	practice_z	5	practice_z	13	stimuli_distractor_diamondtriangles.svg	stimuli_target_trianglecircles.svg	9	yes	44	1	410
6.6.1	win	2022-12-14	22:05:48	22:09:26	213642	5e544727059e3744ccdd4c3b	205395826	1	practice_z	5	advance_on_keypress_ZEE	14	stimuli_distractor_diamondtriangles.svg	stimuli_target_trianglecircles.svg	9	yes	57	0	468
6.6.1	win	2022-12-14	22:05:48	22:09:30	217764	5e544727059e3744ccdd4c3b	205395826	1	practice_z	5	practice_z	15	stimuli_distractor_trianglediamonds.svg	stimuli_target_squarediamonds.svg	11	yes	0	0	2000
6.6.1	win	2022-12-14	22:05:48	22:09:30	217764	5e544727059e3744ccdd4c3b	205395826	1	practice_z	5	advance_on_keypress_ZEE	16	stimuli_distractor_trianglediamonds.svg	stimuli_target_squarediamonds.svg	11	yes	57	0	595
6.6.1	win	2022-12-14	22:05:48	22:09:33	221004	5e544727059e3744ccdd4c3b	205395826	1	practice_z	5	practice_z	17	stimuli_distractor_trianglediamonds.svg	stimuli_target_circlediamonds.svg	10	yes	44	1	992
6.6.1	win	2022-12-14	22:05:48	22:09:33	221004	5e544727059e3744ccdd4c3b	205395826	1	practice_z	5	advance_on_keypress_ZEE	18	stimuli_distractor_trianglediamonds.svg	stimuli_target_circlediamonds.svg	10	yes	57	0	508
6.6.1	win	2022-12-14	22:05:48	22:09:37	224799	5e544727059e3744ccdd4c3b	205395826	1	practice_z	5	practice_z	19	stimuli_target_diamondsquares.svg	stimuli_distractor_diamondtriangles.svg	3	yes	44	1	1636
6.6.1	win	2022-12-14	22:05:48	22:09:37	224799	5e544727059e3744ccdd4c3b	205395826	1	practice_z	5	advance_on_keypress_ZEE	20	stimuli_target_diamondsquares.svg	stimuli_distractor_diamondtriangles.svg	3	yes	57	0	648
6.6.1	win	2022-12-14	22:05:48	22:09:40	228129	5e544727059e3744ccdd4c3b	205395826	1	practice_z	5	practice_z	21	stimuli_target_squarediamonds.svg	stimuli_distractor_diamondtriangles.svg	2	yes	44	1	1033
6.6.1	win	2022-12-14	22:05:48	22:09:40	228129	5e544727059e3744ccdd4c3b	205395826	1	practice_z	5	advance_on_keypress_ZEE	22	stimuli_target_squarediamonds.svg	stimuli_distractor_diamondtriangles.svg	2	yes	57	0	544
6.6.1	win	2022-12-14	22:05:48	22:09:43	230941	5e544727059e3744ccdd4c3b	205395826	1	practice_z	5	practice_z	23	stimuli_target_diamondsquares.svg	stimuli_distractor_trianglediamonds.svg	6	yes	44	1	612
6.6.1	win	2022-12-14	22:05:48	22:09:43	230941	5e544727059e3744ccdd4c3b	205395826	1	practice_z	5	advance_on_keypress_ZEE	24	stimuli_target_diamondsquares.svg	stimuli_distractor_trianglediamonds.svg	6	yes	57	0	475
6.6.1	win	2022-12-14	22:05:48	22:09:46	233830	5e544727059e3744ccdd4c3b	205395826	1	practice_z	5	practice_z	25	stimuli_distractor_diamondtriangles.svg	stimuli_distractor_diamondtriangles.svg	13	no	44	0	752
6.6.1	win	2022-12-14	22:05:48	22:09:46	233830	5e544727059e3744ccdd4c3b	205395826	1	practice_z	5	advance_on_keypress_ZEE	26	stimuli_distractor_diamondtriangles.svg	stimuli_distractor_diamondtriangles.svg	13	no	57	0	564
6.6.1	win	2022-12-14	22:05:48	22:09:50	238044	5e544727059e3744ccdd4c3b	205395826	1	practice_z	5	practice_z	27	stimuli_distractor_trianglediamonds.svg	stimuli_distractor_diamondtriangles.svg	16	no	0	1	2000
6.6.1	win	2022-12-14	22:05:48	22:09:50	238044	5e544727059e3744ccdd4c3b	205395826	1	practice_z	5	advance_on_keypress_ZEE	28	stimuli_distractor_trianglediamonds.svg	stimuli_distractor_diamondtriangles.svg	16	no	57	0	610
6.6.1	win	2022-12-14	22:05:48	22:09:54	242310	5e544727059e3744ccdd4c3b	205395826	1	practice_z	5	practice_z	29	stimuli_distractor_trianglediamonds.svg	stimuli_distractor_trianglediamonds.svg	15	no	0	1	2000
6.6.1	win	2022-12-14	22:05:48	22:09:54	242310	5e544727059e3744ccdd4c3b	205395826	1	practice_z	5	advance_on_keypress_ZEE	30	stimuli_distractor_trianglediamonds.svg	stimuli_distractor_trianglediamonds.svg	15	no	57	0	866
6.6.1	win	2022-12-14	22:05:48	22:09:59	246827	5e544727059e3744ccdd4c3b	205395826	1	practice_z	5	practice_z	31	stimuli_distractor_diamondtriangles.svg	stimuli_distractor_trianglediamonds.svg	14	no	0	1	2000
6.6.1	win	2022-12-14	22:05:48	22:09:59	246827	5e544727059e3744ccdd4c3b	205395826	1	practice_z	5	advance_on_keypress_ZEE	32	stimuli_distractor_diamondtriangles.svg	stimuli_distractor_trianglediamonds.svg	14	no	57	0	663
6.6.1	win	2022-12-14	22:05:48	22:10:12	260032	5e544727059e3744ccdd4c3b	205395826	1	main_z	7	main_z	1	stimuli_target_trianglesquares.svg	stimuli_distractor_trianglediamonds.svg	18	yes	44	1	927
6.6.1	win	2022-12-14	22:05:48	22:10:12	260032	5e544727059e3744ccdd4c3b	205395826	1	main_z	7	advance_on_keypress_ZEE	2	stimuli_target_trianglesquares.svg	stimuli_distractor_trianglediamonds.svg	18	yes	57	0	2375
6.6.1	win	2022-12-14	22:05:48	22:10:16	263508	5e544727059e3744ccdd4c3b	205395826	1	main_z	7	main_z	3	stimuli_distractor_trianglediamonds.svg	stimuli_target_circlediamonds.svg	10	yes	44	1	452
6.6.1	win	2022-12-14	22:05:48	22:10:16	263508	5e544727059e3744ccdd4c3b	205395826	1	main_z	7	advance_on_keypress_ZEE	4	stimuli_distractor_trianglediamonds.svg	stimuli_target_circlediamonds.svg	10	yes	57	0	3017
6.6.1	win	2022-12-14	22:05:48	22:10:20	268165	5e544727059e3744ccdd4c3b	205395826	1	main_z	7	main_z	5	stimuli_target_squaretriangles.svg	stimuli_distractor_trianglediamonds.svg	3	yes	44	1	993
6.6.1	win	2022-12-14	22:05:48	22:10:20	268165	5e544727059e3744ccdd4c3b	205395826	1	main_z	7	advance_on_keypress_ZEE	6	stimuli_target_squaretriangles.svg	stimuli_distractor_trianglediamonds.svg	3	yes	57	0	1993
6.6.1	win	2022-12-14	22:05:48	22:10:25	272789	5e544727059e3744ccdd4c3b	205395826	1	main_z	7	main_z	7	stimuli_distractor_diamondtriangles.svg	stimuli_distractor_diamondtriangles.svg	39	no	0	1	2000
6.6.1	win	2022-12-14	22:05:48	22:10:25	272789	5e544727059e3744ccdd4c3b	205395826	1	main_z	7	advance_on_keypress_ZEE	8	stimuli_distractor_diamondtriangles.svg	stimuli_distractor_diamondtriangles.svg	39	no	57	0	491
6.6.1	win	2022-12-14	22:05:48	22:10:27	275240	5e544727059e3744ccdd4c3b	205395826	1	main_z	7	main_z	9	stimuli_distractor_diamondtriangles.svg	stimuli_target_trianglesquares.svg	30	yes	44	1	1319
6.6.1	win	2022-12-14	22:05:48	22:10:27	275240	5e544727059e3744ccdd4c3b	205395826	1	main_z	7	advance_on_keypress_ZEE	10	stimuli_distractor_diamondtriangles.svg	stimuli_target_trianglesquares.svg	30	yes	57	0	2339
6.6.1	win	2022-12-14	22:05:48	22:10:32	280220	5e544727059e3744ccdd4c3b	205395826	1	main_z	7	main_z	11	stimuli_target_squarediamonds.svg	stimuli_distractor_diamondtriangles.svg	8	yes	0	0	2000
6.6.1	win	2022-12-14	22:05:48	22:10:32	280220	5e544727059e3744ccdd4c3b	205395826	1	main_z	7	advance_on_keypress_ZEE	12	stimuli_target_squarediamonds.svg	stimuli_distractor_diamondtriangles.svg	8	yes	57	0	1359
6.6.1	win	2022-12-14	22:05:48	22:10:35	282987	5e544727059e3744ccdd4c3b	205395826	1	main_z	7	main_z	13	stimuli_distractor_diamondtriangles.svg	stimuli_target_trianglecircles.svg	29	yes	44	1	751
6.6.1	win	2022-12-14	22:05:48	22:10:35	282987	5e544727059e3744ccdd4c3b	205395826	1	main_z	7	advance_on_keypress_ZEE	14	stimuli_distractor_diamondtriangles.svg	stimuli_target_trianglecircles.svg	29	yes	57	0	1715
6.6.1	win	2022-12-14	22:05:48	22:10:39	287066	5e544727059e3744ccdd4c3b	205395826	1	main_z	7	main_z	15	stimuli_distractor_trianglediamonds.svg	stimuli_target_circletriangles.svg	9	yes	44	1	1714
6.6.1	win	2022-12-14	22:05:48	22:10:39	287066	5e544727059e3744ccdd4c3b	205395826	1	main_z	7	advance_on_keypress_ZEE	16	stimuli_distractor_trianglediamonds.svg	stimuli_target_circletriangles.svg	9	yes	57	0	3341
6.6.1	win	2022-12-14	22:05:48	22:10:44	291787	5e544727059e3744ccdd4c3b	205395826	1	main_z	7	main_z	17	stimuli_target_circlediamonds.svg	stimuli_distractor_trianglediamonds.svg	2	yes	44	1	735
6.6.1	win	2022-12-14	22:05:48	22:10:44	291787	5e544727059e3744ccdd4c3b	205395826	1	main_z	7	advance_on_keypress_ZEE	18	stimuli_target_circlediamonds.svg	stimuli_distractor_trianglediamonds.svg	2	yes	57	0	1391
6.6.1	win	2022-12-14	22:05:48	22:10:48	295536	5e544727059e3744ccdd4c3b	205395826	1	main_z	7	main_z	19	stimuli_target_squaretriangles.svg	stimuli_distractor_diamondtriangles.svg	7	yes	44	1	1718
6.6.1	win	2022-12-14	22:05:48	22:10:48	295536	5e544727059e3744ccdd4c3b	205395826	1	main_z	7	advance_on_keypress_ZEE	20	stimuli_target_squaretriangles.svg	stimuli_distractor_diamondtriangles.svg	7	yes	57	0	887
6.6.1	win	2022-12-14	22:05:48	22:10:50	297665	5e544727059e3744ccdd4c3b	205395826	1	main_z	7	main_z	21	stimuli_target_trianglesquares.svg	stimuli_distractor_diamondtriangles.svg	22	yes	44	1	598
6.6.1	win	2022-12-14	22:05:48	22:10:50	297665	5e544727059e3744ccdd4c3b	205395826	1	main_z	7	advance_on_keypress_ZEE	22	stimuli_target_trianglesquares.svg	stimuli_distractor_diamondtriangles.svg	22	yes	57	0	743
6.6.1	win	2022-12-14	22:05:48	22:10:52	299908	5e544727059e3744ccdd4c3b	205395826	1	main_z	7	main_z	23	stimuli_distractor_diamondtriangles.svg	stimuli_target_squarediamonds.svg	16	yes	44	1	857
6.6.1	win	2022-12-14	22:05:48	22:10:52	299908	5e544727059e3744ccdd4c3b	205395826	1	main_z	7	advance_on_keypress_ZEE	24	stimuli_distractor_diamondtriangles.svg	stimuli_target_squarediamonds.svg	16	yes	57	0	1093
6.6.1	win	2022-12-14	22:05:48	22:10:55	302959	5e544727059e3744ccdd4c3b	205395826	1	main_z	7	main_z	25	stimuli_target_circletriangles.svg	stimuli_distractor_diamondtriangles.svg	5	yes	44	1	1325
6.6.1	win	2022-12-14	22:05:48	22:10:55	302959	5e544727059e3744ccdd4c3b	205395826	1	main_z	7	advance_on_keypress_ZEE	26	stimuli_target_circletriangles.svg	stimuli_distractor_diamondtriangles.svg	5	yes	57	0	725
6.6.1	win	2022-12-14	22:05:48	22:10:57	304680	5e544727059e3744ccdd4c3b	205395826	1	main_z	7	main_z	27	stimuli_target_diamondsquares.svg	stimuli_distractor_diamondtriangles.svg	24	yes	44	1	347
6.6.1	win	2022-12-14	22:05:48	22:10:57	304680	5e544727059e3744ccdd4c3b	205395826	1	main_z	7	advance_on_keypress_ZEE	28	stimuli_target_diamondsquares.svg	stimuli_distractor_diamondtriangles.svg	24	yes	57	0	607
6.6.1	win	2022-12-14	22:05:48	22:10:58	306334	5e544727059e3744ccdd4c3b	205395826	1	main_z	7	main_z	29	stimuli_distractor_diamondtriangles.svg	stimuli_target_diamondcircles.svg	31	yes	44	1	401
6.6.1	win	2022-12-14	22:05:48	22:10:58	306334	5e544727059e3744ccdd4c3b	205395826	1	main_z	7	advance_on_keypress_ZEE	30	stimuli_distractor_diamondtriangles.svg	stimuli_target_diamondcircles.svg	31	yes	57	0	982
6.6.1	win	2022-12-14	22:05:48	22:11:01	309127	5e544727059e3744ccdd4c3b	205395826	1	main_z	7	main_z	31	stimuli_target_circlediamonds.svg	stimuli_distractor_diamondtriangles.svg	6	yes	44	1	1161
6.6.1	win	2022-12-14	22:05:48	22:11:01	309127	5e544727059e3744ccdd4c3b	205395826	1	main_z	7	advance_on_keypress_ZEE	32	stimuli_target_circlediamonds.svg	stimuli_distractor_diamondtriangles.svg	6	yes	57	0	591
6.6.1	win	2022-12-14	22:05:48	22:11:03	311226	5e544727059e3744ccdd4c3b	205395826	1	main_z	7	main_z	33	stimuli_target_diamondcircles.svg	stimuli_distractor_trianglediamonds.svg	19	yes	44	1	859
6.6.1	win	2022-12-14	22:05:48	22:11:03	311226	5e544727059e3744ccdd4c3b	205395826	1	main_z	7	advance_on_keypress_ZEE	34	stimuli_target_diamondcircles.svg	stimuli_distractor_trianglediamonds.svg	19	yes	57	0	475
6.6.1	win	2022-12-14	22:05:48	22:11:06	314349	5e544727059e3744ccdd4c3b	205395826	1	main_z	7	main_z	35	stimuli_distractor_trianglediamonds.svg	stimuli_distractor_diamondtriangles.svg	35	no	0	1	2000
6.6.1	win	2022-12-14	22:05:48	22:11:06	314349	5e544727059e3744ccdd4c3b	205395826	1	main_z	7	advance_on_keypress_ZEE	36	stimuli_distractor_trianglediamonds.svg	stimuli_distractor_diamondtriangles.svg	35	no	57	0	2568
6.6.1	win	2022-12-14	22:05:48	22:11:10	318090	5e544727059e3744ccdd4c3b	205395826	1	main_z	7	main_z	37	stimuli_target_trianglecircles.svg	stimuli_distractor_trianglediamonds.svg	17	yes	44	1	525
6.6.1	win	2022-12-14	22:05:48	22:11:10	318090	5e544727059e3744ccdd4c3b	205395826	1	main_z	7	advance_on_keypress_ZEE	38	stimuli_target_trianglecircles.svg	stimuli_distractor_trianglediamonds.svg	17	yes	57	0	661
6.6.1	win	2022-12-14	22:05:48	22:11:13	321398	5e544727059e3744ccdd4c3b	205395826	1	main_z	7	main_z	39	stimuli_distractor_diamondtriangles.svg	stimuli_distractor_trianglediamonds.svg	38	no	0	1	2000
6.6.1	win	2022-12-14	22:05:48	22:11:13	321398	5e544727059e3744ccdd4c3b	205395826	1	main_z	7	advance_on_keypress_ZEE	40	stimuli_distractor_diamondtriangles.svg	stimuli_distractor_trianglediamonds.svg	38	no	57	0	689
6.6.1	win	2022-12-14	22:05:48	22:11:16	323534	5e544727059e3744ccdd4c3b	205395826	1	main_z	7	main_z	41	stimuli_distractor_diamondtriangles.svg	stimuli_target_circlediamonds.svg	14	yes	44	1	803
6.6.1	win	2022-12-14	22:05:48	22:11:16	323534	5e544727059e3744ccdd4c3b	205395826	1	main_z	7	advance_on_keypress_ZEE	42	stimuli_distractor_diamondtriangles.svg	stimuli_target_circlediamonds.svg	14	yes	57	0	1070
6.6.1	win	2022-12-14	22:05:48	22:11:19	327247	5e544727059e3744ccdd4c3b	205395826	1	main_z	7	main_z	43	stimuli_distractor_trianglediamonds.svg	stimuli_distractor_diamondtriangles.svg	36	no	0	1	2000
6.6.1	win	2022-12-14	22:05:48	22:11:19	327247	5e544727059e3744ccdd4c3b	205395826	1	main_z	7	advance_on_keypress_ZEE	44	stimuli_distractor_trianglediamonds.svg	stimuli_distractor_diamondtriangles.svg	36	no	57	0	683
6.6.1	win	2022-12-14	22:05:48	22:11:22	329676	5e544727059e3744ccdd4c3b	205395826	1	main_z	7	main_z	45	stimuli_distractor_trianglediamonds.svg	stimuli_target_trianglecircles.svg	25	yes	44	1	1096
6.6.1	win	2022-12-14	22:05:48	22:11:22	329676	5e544727059e3744ccdd4c3b	205395826	1	main_z	7	advance_on_keypress_ZEE	46	stimuli_distractor_trianglediamonds.svg	stimuli_target_trianglecircles.svg	25	yes	57	0	1476
6.6.1	win	2022-12-14	22:05:48	22:11:25	332892	5e544727059e3744ccdd4c3b	205395826	1	main_z	7	main_z	47	stimuli_distractor_diamondtriangles.svg	stimuli_target_squaretriangles.svg	15	yes	44	1	1096
6.6.1	win	2022-12-14	22:05:48	22:11:25	332892	5e544727059e3744ccdd4c3b	205395826	1	main_z	7	advance_on_keypress_ZEE	48	stimuli_distractor_diamondtriangles.svg	stimuli_target_squaretriangles.svg	15	yes	57	0	916
6.6.1	win	2022-12-14	22:05:48	22:11:28	335833	5e544727059e3744ccdd4c3b	205395826	1	main_z	7	main_z	49	stimuli_target_trianglecircles.svg	stimuli_distractor_diamondtriangles.svg	21	yes	44	1	1371
6.6.1	win	2022-12-14	22:05:48	22:11:28	335833	5e544727059e3744ccdd4c3b	205395826	1	main_z	7	advance_on_keypress_ZEE	50	stimuli_target_trianglecircles.svg	stimuli_distractor_diamondtriangles.svg	21	yes	57	0	780
6.6.1	win	2022-12-14	22:05:48	22:11:30	338232	5e544727059e3744ccdd4c3b	205395826	1	main_z	7	main_z	51	stimuli_distractor_trianglediamonds.svg	stimuli_target_trianglesquares.svg	26	yes	44	1	970
6.6.1	win	2022-12-14	22:05:48	22:11:30	338232	5e544727059e3744ccdd4c3b	205395826	1	main_z	7	advance_on_keypress_ZEE	52	stimuli_distractor_trianglediamonds.svg	stimuli_target_trianglesquares.svg	26	yes	57	0	919
6.6.1	win	2022-12-14	22:05:48	22:11:33	340541	5e544727059e3744ccdd4c3b	205395826	1	main_z	7	main_z	53	stimuli_target_diamondcircles.svg	stimuli_distractor_diamondtriangles.svg	23	yes	44	1	746
6.6.1	win	2022-12-14	22:05:48	22:11:33	340541	5e544727059e3744ccdd4c3b	205395826	1	main_z	7	advance_on_keypress_ZEE	54	stimuli_target_diamondcircles.svg	stimuli_distractor_diamondtriangles.svg	23	yes	57	0	501
6.6.1	win	2022-12-14	22:05:48	22:11:36	343695	5e544727059e3744ccdd4c3b	205395826	1	main_z	7	main_z	55	stimuli_distractor_trianglediamonds.svg	stimuli_distractor_trianglediamonds.svg	34	no	0	1	2000
6.6.1	win	2022-12-14	22:05:48	22:11:36	343695	5e544727059e3744ccdd4c3b	205395826	1	main_z	7	advance_on_keypress_ZEE	56	stimuli_distractor_trianglediamonds.svg	stimuli_distractor_trianglediamonds.svg	34	no	57	0	1057
6.6.1	win	2022-12-14	22:05:48	22:11:39	347394	5e544727059e3744ccdd4c3b	205395826	1	main_z	7	main_z	57	stimuli_distractor_trianglediamonds.svg	stimuli_distractor_trianglediamonds.svg	33	no	0	1	2000
6.6.1	win	2022-12-14	22:05:48	22:11:39	347394	5e544727059e3744ccdd4c3b	205395826	1	main_z	7	advance_on_keypress_ZEE	58	stimuli_distractor_trianglediamonds.svg	stimuli_distractor_trianglediamonds.svg	33	no	57	0	478
6.6.1	win	2022-12-14	22:05:48	22:11:42	349619	5e544727059e3744ccdd4c3b	205395826	1	main_z	7	main_z	59	stimuli_distractor_diamondtriangles.svg	stimuli_target_circletriangles.svg	13	yes	44	1	1092
6.6.1	win	2022-12-14	22:05:48	22:11:42	349619	5e544727059e3744ccdd4c3b	205395826	1	main_z	7	advance_on_keypress_ZEE	60	stimuli_distractor_diamondtriangles.svg	stimuli_target_circletriangles.svg	13	yes	57	0	630
6.6.1	win	2022-12-14	22:05:48	22:11:44	351937	5e544727059e3744ccdd4c3b	205395826	1	main_z	7	main_z	61	stimuli_target_circletriangles.svg	stimuli_distractor_trianglediamonds.svg	1	yes	44	1	1043
6.6.1	win	2022-12-14	22:05:48	22:11:44	351937	5e544727059e3744ccdd4c3b	205395826	1	main_z	7	advance_on_keypress_ZEE	62	stimuli_target_circletriangles.svg	stimuli_distractor_trianglediamonds.svg	1	yes	57	0	737
6.6.1	win	2022-12-14	22:05:48	22:11:47	355310	5e544727059e3744ccdd4c3b	205395826	1	main_z	7	main_z	63	stimuli_distractor_trianglediamonds.svg	stimuli_target_diamondsquares.svg	28	yes	0	0	2000
6.6.1	win	2022-12-14	22:05:48	22:11:47	355310	5e544727059e3744ccdd4c3b	205395826	1	main_z	7	advance_on_keypress_ZEE	64	stimuli_distractor_trianglediamonds.svg	stimuli_target_diamondsquares.svg	28	yes	57	0	645
6.6.1	win	2022-12-14	22:05:48	22:11:49	357057	5e544727059e3744ccdd4c3b	205395826	1	main_z	7	main_z	65	stimuli_target_diamondsquares.svg	stimuli_distractor_trianglediamonds.svg	20	yes	44	1	464
6.6.1	win	2022-12-14	22:05:48	22:11:49	357057	5e544727059e3744ccdd4c3b	205395826	1	main_z	7	advance_on_keypress_ZEE	66	stimuli_target_diamondsquares.svg	stimuli_distractor_trianglediamonds.svg	20	yes	57	0	679
6.6.1	win	2022-12-14	22:05:48	22:11:52	360393	5e544727059e3744ccdd4c3b	205395826	1	main_z	7	main_z	67	stimuli_distractor_diamondtriangles.svg	stimuli_distractor_trianglediamonds.svg	37	no	0	1	2000
6.6.1	win	2022-12-14	22:05:48	22:11:52	360393	5e544727059e3744ccdd4c3b	205395826	1	main_z	7	advance_on_keypress_ZEE	68	stimuli_distractor_diamondtriangles.svg	stimuli_distractor_trianglediamonds.svg	37	no	57	0	512
6.6.1	win	2022-12-14	22:05:48	22:11:54	362142	5e544727059e3744ccdd4c3b	205395826	1	main_z	7	main_z	69	stimuli_target_squarediamonds.svg	stimuli_distractor_trianglediamonds.svg	4	yes	44	1	584
6.6.1	win	2022-12-14	22:05:48	22:11:54	362142	5e544727059e3744ccdd4c3b	205395826	1	main_z	7	advance_on_keypress_ZEE	70	stimuli_target_squarediamonds.svg	stimuli_distractor_trianglediamonds.svg	4	yes	57	0	881
6.6.1	win	2022-12-14	22:05:48	22:11:57	364621	5e544727059e3744ccdd4c3b	205395826	1	main_z	7	main_z	71	stimuli_distractor_trianglediamonds.svg	stimuli_target_diamondcircles.svg	27	yes	44	1	946
6.6.1	win	2022-12-14	22:05:48	22:11:57	364621	5e544727059e3744ccdd4c3b	205395826	1	main_z	7	advance_on_keypress_ZEE	72	stimuli_distractor_trianglediamonds.svg	stimuli_target_diamondcircles.svg	27	yes	57	0	671
6.6.1	win	2022-12-14	22:05:48	22:12:00	367942	5e544727059e3744ccdd4c3b	205395826	1	main_z	7	main_z	73	stimuli_distractor_diamondtriangles.svg	stimuli_distractor_diamondtriangles.svg	40	no	0	1	2000
6.6.1	win	2022-12-14	22:05:48	22:12:00	367942	5e544727059e3744ccdd4c3b	205395826	1	main_z	7	advance_on_keypress_ZEE	74	stimuli_distractor_diamondtriangles.svg	stimuli_distractor_diamondtriangles.svg	40	no	57	0	706
6.6.1	win	2022-12-14	22:05:48	22:12:03	371292	5e544727059e3744ccdd4c3b	205395826	1	main_z	7	main_z	75	stimuli_distractor_diamondtriangles.svg	stimuli_target_diamondsquares.svg	32	yes	0	0	2000
6.6.1	win	2022-12-14	22:05:48	22:12:03	371292	5e544727059e3744ccdd4c3b	205395826	1	main_z	7	advance_on_keypress_ZEE	76	stimuli_distractor_diamondtriangles.svg	stimuli_target_diamondsquares.svg	32	yes	57	0	636
6.6.1	win	2022-12-14	22:05:48	22:12:06	374078	5e544727059e3744ccdd4c3b	205395826	1	main_z	7	main_z	77	stimuli_distractor_trianglediamonds.svg	stimuli_target_squaretriangles.svg	11	yes	44	1	1504
6.6.1	win	2022-12-14	22:05:48	22:12:06	374078	5e544727059e3744ccdd4c3b	205395826	1	main_z	7	advance_on_keypress_ZEE	78	stimuli_distractor_trianglediamonds.svg	stimuli_target_squaretriangles.svg	11	yes	57	0	740
6.6.1	win	2022-12-14	22:05:48	22:12:08	376202	5e544727059e3744ccdd4c3b	205395826	1	main_z	7	main_z	79	stimuli_distractor_trianglediamonds.svg	stimuli_target_squarediamonds.svg	12	yes	44	1	745
6.6.1	win	2022-12-14	22:05:48	22:12:08	376202	5e544727059e3744ccdd4c3b	205395826	1	main_z	7	advance_on_keypress_ZEE	80	stimuli_distractor_trianglediamonds.svg	stimuli_target_squarediamonds.svg	12	yes	57	0	576
6.6.1	win	2022-12-14	22:05:48	22:12:11	378570	5e544727059e3744ccdd4c3b	205395826	1	main_z	7	main_z	81	stimuli_target_trianglesquares.svg	stimuli_distractor_diamondtriangles.svg	22	yes	44	1	1146
6.6.1	win	2022-12-14	22:05:48	22:12:11	378570	5e544727059e3744ccdd4c3b	205395826	1	main_z	7	advance_on_keypress_ZEE	82	stimuli_target_trianglesquares.svg	stimuli_distractor_diamondtriangles.svg	22	yes	57	0	598
6.6.1	win	2022-12-14	22:05:48	22:12:14	381823	5e544727059e3744ccdd4c3b	205395826	1	main_z	7	main_z	83	stimuli_distractor_trianglediamonds.svg	stimuli_distractor_diamondtriangles.svg	35	no	0	1	2000
6.6.1	win	2022-12-14	22:05:48	22:12:14	381823	5e544727059e3744ccdd4c3b	205395826	1	main_z	7	advance_on_keypress_ZEE	84	stimuli_distractor_trianglediamonds.svg	stimuli_distractor_diamondtriangles.svg	35	no	57	0	515
6.6.1	win	2022-12-14	22:05:48	22:12:16	383991	5e544727059e3744ccdd4c3b	205395826	1	main_z	7	main_z	85	stimuli_distractor_diamondtriangles.svg	stimuli_target_squaretriangles.svg	15	yes	44	1	1002
6.6.1	win	2022-12-14	22:05:48	22:12:16	383991	5e544727059e3744ccdd4c3b	205395826	1	main_z	7	advance_on_keypress_ZEE	86	stimuli_distractor_diamondtriangles.svg	stimuli_target_squaretriangles.svg	15	yes	57	0	552
6.6.1	win	2022-12-14	22:05:48	22:12:18	385994	5e544727059e3744ccdd4c3b	205395826	1	main_z	7	main_z	87	stimuli_target_diamondcircles.svg	stimuli_distractor_diamondtriangles.svg	23	yes	44	1	805
6.6.1	win	2022-12-14	22:05:48	22:12:18	385994	5e544727059e3744ccdd4c3b	205395826	1	main_z	7	advance_on_keypress_ZEE	88	stimuli_target_diamondcircles.svg	stimuli_distractor_diamondtriangles.svg	23	yes	57	0	412
6.6.1	win	2022-12-14	22:05:48	22:12:20	387938	5e544727059e3744ccdd4c3b	205395826	1	main_z	7	main_z	89	stimuli_target_squaretriangles.svg	stimuli_distractor_trianglediamonds.svg	3	yes	44	1	882
6.6.1	win	2022-12-14	22:05:48	22:12:20	387938	5e544727059e3744ccdd4c3b	205395826	1	main_z	7	advance_on_keypress_ZEE	90	stimuli_target_squaretriangles.svg	stimuli_distractor_trianglediamonds.svg	3	yes	57	0	511
6.6.1	win	2022-12-14	22:05:48	22:12:23	391106	5e544727059e3744ccdd4c3b	205395826	1	main_z	7	main_z	91	stimuli_distractor_diamondtriangles.svg	stimuli_distractor_trianglediamonds.svg	37	no	0	1	2000
6.6.1	win	2022-12-14	22:05:48	22:12:23	391106	5e544727059e3744ccdd4c3b	205395826	1	main_z	7	advance_on_keypress_ZEE	92	stimuli_distractor_diamondtriangles.svg	stimuli_distractor_trianglediamonds.svg	37	no	57	0	760
6.6.1	win	2022-12-14	22:05:48	22:12:27	394505	5e544727059e3744ccdd4c3b	205395826	1	main_z	7	main_z	93	stimuli_distractor_trianglediamonds.svg	stimuli_distractor_diamondtriangles.svg	36	no	0	1	2000
6.6.1	win	2022-12-14	22:05:48	22:12:27	394505	5e544727059e3744ccdd4c3b	205395826	1	main_z	7	advance_on_keypress_ZEE	94	stimuli_distractor_trianglediamonds.svg	stimuli_distractor_diamondtriangles.svg	36	no	57	0	286
6.6.1	win	2022-12-14	22:05:48	22:12:28	396085	5e544727059e3744ccdd4c3b	205395826	1	main_z	7	main_z	95	stimuli_target_squarediamonds.svg	stimuli_distractor_diamondtriangles.svg	8	yes	44	1	647
6.6.1	win	2022-12-14	22:05:48	22:12:28	396085	5e544727059e3744ccdd4c3b	205395826	1	main_z	7	advance_on_keypress_ZEE	96	stimuli_target_squarediamonds.svg	stimuli_distractor_diamondtriangles.svg	8	yes	57	0	942
6.6.1	win	2022-12-14	22:05:48	22:12:31	399330	5e544727059e3744ccdd4c3b	205395826	1	main_z	7	main_z	97	stimuli_target_trianglesquares.svg	stimuli_distractor_trianglediamonds.svg	18	yes	44	1	1659
6.6.1	win	2022-12-14	22:05:48	22:12:31	399330	5e544727059e3744ccdd4c3b	205395826	1	main_z	7	advance_on_keypress_ZEE	98	stimuli_target_trianglesquares.svg	stimuli_distractor_trianglediamonds.svg	18	yes	57	0	507
6.6.1	win	2022-12-14	22:05:48	22:12:33	401005	5e544727059e3744ccdd4c3b	205395826	1	main_z	7	main_z	99	stimuli_target_diamondcircles.svg	stimuli_distractor_trianglediamonds.svg	19	yes	44	1	534
6.6.1	win	2022-12-14	22:05:48	22:12:33	401005	5e544727059e3744ccdd4c3b	205395826	1	main_z	7	advance_on_keypress_ZEE	100	stimuli_target_diamondcircles.svg	stimuli_distractor_trianglediamonds.svg	19	yes	57	0	489
6.6.1	win	2022-12-14	22:05:48	22:12:35	402800	5e544727059e3744ccdd4c3b	205395826	1	main_z	7	main_z	101	stimuli_target_circletriangles.svg	stimuli_distractor_diamondtriangles.svg	5	yes	44	1	663
6.6.1	win	2022-12-14	22:05:48	22:12:35	402800	5e544727059e3744ccdd4c3b	205395826	1	main_z	7	advance_on_keypress_ZEE	102	stimuli_target_circletriangles.svg	stimuli_distractor_diamondtriangles.svg	5	yes	57	0	399
6.6.1	win	2022-12-14	22:05:48	22:12:37	404490	5e544727059e3744ccdd4c3b	205395826	1	main_z	7	main_z	103	stimuli_target_diamondsquares.svg	stimuli_distractor_diamondtriangles.svg	24	yes	44	1	637
6.6.1	win	2022-12-14	22:05:48	22:12:37	404490	5e544727059e3744ccdd4c3b	205395826	1	main_z	7	advance_on_keypress_ZEE	104	stimuli_target_diamondsquares.svg	stimuli_distractor_diamondtriangles.svg	24	yes	57	0	396
6.6.1	win	2022-12-14	22:05:48	22:12:38	406100	5e544727059e3744ccdd4c3b	205395826	1	main_z	7	main_z	105	stimuli_target_squarediamonds.svg	stimuli_distractor_trianglediamonds.svg	4	yes	44	1	563
6.6.1	win	2022-12-14	22:05:48	22:12:38	406100	5e544727059e3744ccdd4c3b	205395826	1	main_z	7	advance_on_keypress_ZEE	106	stimuli_target_squarediamonds.svg	stimuli_distractor_trianglediamonds.svg	4	yes	57	0	256
6.6.1	win	2022-12-14	22:05:48	22:12:40	407601	5e544727059e3744ccdd4c3b	205395826	1	main_z	7	main_z	107	stimuli_distractor_diamondtriangles.svg	stimuli_target_circletriangles.svg	13	yes	44	1	598
6.6.1	win	2022-12-14	22:05:48	22:12:40	407601	5e544727059e3744ccdd4c3b	205395826	1	main_z	7	advance_on_keypress_ZEE	108	stimuli_distractor_diamondtriangles.svg	stimuli_target_circletriangles.svg	13	yes	57	0	256
6.6.1	win	2022-12-14	22:05:48	22:12:41	409022	5e544727059e3744ccdd4c3b	205395826	1	main_z	7	main_z	109	stimuli_target_trianglecircles.svg	stimuli_distractor_diamondtriangles.svg	21	yes	44	1	519
6.6.1	win	2022-12-14	22:05:48	22:12:41	409022	5e544727059e3744ccdd4c3b	205395826	1	main_z	7	advance_on_keypress_ZEE	110	stimuli_target_trianglecircles.svg	stimuli_distractor_diamondtriangles.svg	21	yes	57	0	206
6.6.1	win	2022-12-14	22:05:48	22:12:44	411870	5e544727059e3744ccdd4c3b	205395826	1	main_z	7	main_z	111	stimuli_distractor_diamondtriangles.svg	stimuli_distractor_diamondtriangles.svg	39	no	0	1	2000
6.6.1	win	2022-12-14	22:05:48	22:12:44	411870	5e544727059e3744ccdd4c3b	205395826	1	main_z	7	advance_on_keypress_ZEE	112	stimuli_distractor_diamondtriangles.svg	stimuli_distractor_diamondtriangles.svg	39	no	57	0	551
6.6.1	win	2022-12-14	22:05:48	22:12:46	413749	5e544727059e3744ccdd4c3b	205395826	1	main_z	7	main_z	113	stimuli_distractor_trianglediamonds.svg	stimuli_target_squaretriangles.svg	11	yes	44	1	679
6.6.1	win	2022-12-14	22:05:48	22:12:46	413749	5e544727059e3744ccdd4c3b	205395826	1	main_z	7	advance_on_keypress_ZEE	114	stimuli_distractor_trianglediamonds.svg	stimuli_target_squaretriangles.svg	11	yes	57	0	378
6.6.1	win	2022-12-14	22:05:48	22:12:48	415489	5e544727059e3744ccdd4c3b	205395826	1	main_z	7	main_z	115	stimuli_distractor_trianglediamonds.svg	stimuli_target_squarediamonds.svg	12	yes	44	1	702
6.6.1	win	2022-12-14	22:05:48	22:12:48	415489	5e544727059e3744ccdd4c3b	205395826	1	main_z	7	advance_on_keypress_ZEE	116	stimuli_distractor_trianglediamonds.svg	stimuli_target_squarediamonds.svg	12	yes	57	0	386
6.6.1	win	2022-12-14	22:05:48	22:12:49	417216	5e544727059e3744ccdd4c3b	205395826	1	main_z	7	main_z	117	stimuli_distractor_trianglediamonds.svg	stimuli_target_trianglesquares.svg	26	yes	44	1	696
6.6.1	win	2022-12-14	22:05:48	22:12:49	417216	5e544727059e3744ccdd4c3b	205395826	1	main_z	7	advance_on_keypress_ZEE	118	stimuli_distractor_trianglediamonds.svg	stimuli_target_trianglesquares.svg	26	yes	57	0	263
6.6.1	win	2022-12-14	22:05:48	22:12:51	418719	5e544727059e3744ccdd4c3b	205395826	1	main_z	7	main_z	119	stimuli_target_squaretriangles.svg	stimuli_distractor_diamondtriangles.svg	7	yes	44	1	584
6.6.1	win	2022-12-14	22:05:48	22:12:51	418719	5e544727059e3744ccdd4c3b	205395826	1	main_z	7	advance_on_keypress_ZEE	120	stimuli_target_squaretriangles.svg	stimuli_distractor_diamondtriangles.svg	7	yes	57	0	283
6.6.1	win	2022-12-14	22:05:48	22:12:52	420474	5e544727059e3744ccdd4c3b	205395826	1	main_z	7	main_z	121	stimuli_distractor_diamondtriangles.svg	stimuli_target_squarediamonds.svg	16	yes	44	1	822
6.6.1	win	2022-12-14	22:05:48	22:12:52	420474	5e544727059e3744ccdd4c3b	205395826	1	main_z	7	advance_on_keypress_ZEE	122	stimuli_distractor_diamondtriangles.svg	stimuli_target_squarediamonds.svg	16	yes	57	0	409
6.6.1	win	2022-12-14	22:05:48	22:12:54	422100	5e544727059e3744ccdd4c3b	205395826	1	main_z	7	main_z	123	stimuli_distractor_trianglediamonds.svg	stimuli_target_circlediamonds.svg	10	yes	44	1	582
6.6.1	win	2022-12-14	22:05:48	22:12:54	422100	5e544727059e3744ccdd4c3b	205395826	1	main_z	7	advance_on_keypress_ZEE	124	stimuli_distractor_trianglediamonds.svg	stimuli_target_circlediamonds.svg	10	yes	57	0	271
6.6.1	win	2022-12-14	22:05:48	22:12:56	423610	5e544727059e3744ccdd4c3b	205395826	1	main_z	7	main_z	125	stimuli_distractor_diamondtriangles.svg	stimuli_target_trianglecircles.svg	29	yes	44	1	593
6.6.1	win	2022-12-14	22:05:48	22:12:56	423610	5e544727059e3744ccdd4c3b	205395826	1	main_z	7	advance_on_keypress_ZEE	126	stimuli_distractor_diamondtriangles.svg	stimuli_target_trianglecircles.svg	29	yes	57	0	337
6.6.1	win	2022-12-14	22:05:48	22:12:57	425226	5e544727059e3744ccdd4c3b	205395826	1	main_z	7	main_z	127	stimuli_target_trianglecircles.svg	stimuli_distractor_trianglediamonds.svg	17	yes	44	1	642
6.6.1	win	2022-12-14	22:05:48	22:12:57	425226	5e544727059e3744ccdd4c3b	205395826	1	main_z	7	advance_on_keypress_ZEE	128	stimuli_target_trianglecircles.svg	stimuli_distractor_trianglediamonds.svg	17	yes	57	0	217
6.6.1	win	2022-12-14	22:05:48	22:12:59	426552	5e544727059e3744ccdd4c3b	205395826	1	main_z	7	main_z	129	stimuli_target_diamondsquares.svg	stimuli_distractor_trianglediamonds.svg	20	yes	44	1	468
6.6.1	win	2022-12-14	22:05:48	22:12:59	426552	5e544727059e3744ccdd4c3b	205395826	1	main_z	7	advance_on_keypress_ZEE	130	stimuli_target_diamondsquares.svg	stimuli_distractor_trianglediamonds.svg	20	yes	57	0	199
6.6.1	win	2022-12-14	22:05:48	22:13:00	427958	5e544727059e3744ccdd4c3b	205395826	1	main_z	7	main_z	131	stimuli_distractor_trianglediamonds.svg	stimuli_target_trianglecircles.svg	25	yes	44	1	558
6.6.1	win	2022-12-14	22:05:48	22:13:00	427958	5e544727059e3744ccdd4c3b	205395826	1	main_z	7	advance_on_keypress_ZEE	132	stimuli_distractor_trianglediamonds.svg	stimuli_target_trianglecircles.svg	25	yes	57	0	155
6.6.1	win	2022-12-14	22:05:48	22:13:03	430750	5e544727059e3744ccdd4c3b	205395826	1	main_z	7	main_z	133	stimuli_distractor_diamondtriangles.svg	stimuli_distractor_diamondtriangles.svg	40	no	0	1	2000
6.6.1	win	2022-12-14	22:05:48	22:13:03	430750	5e544727059e3744ccdd4c3b	205395826	1	main_z	7	advance_on_keypress_ZEE	134	stimuli_distractor_diamondtriangles.svg	stimuli_distractor_diamondtriangles.svg	40	no	57	0	417
6.6.1	win	2022-12-14	22:05:48	22:13:04	432360	5e544727059e3744ccdd4c3b	205395826	1	main_z	7	main_z	135	stimuli_distractor_diamondtriangles.svg	stimuli_target_diamondcircles.svg	31	yes	44	1	544
6.6.1	win	2022-12-14	22:05:48	22:13:04	432360	5e544727059e3744ccdd4c3b	205395826	1	main_z	7	advance_on_keypress_ZEE	136	stimuli_distractor_diamondtriangles.svg	stimuli_target_diamondcircles.svg	31	yes	57	0	760
6.6.1	win	2022-12-14	22:05:48	22:13:06	434125	5e544727059e3744ccdd4c3b	205395826	1	main_z	7	main_z	137	stimuli_distractor_trianglediamonds.svg	stimuli_target_circletriangles.svg	9	yes	44	1	359
6.6.1	win	2022-12-14	22:05:48	22:13:06	434125	5e544727059e3744ccdd4c3b	205395826	1	main_z	7	advance_on_keypress_ZEE	138	stimuli_distractor_trianglediamonds.svg	stimuli_target_circletriangles.svg	9	yes	57	0	511
6.6.1	win	2022-12-14	22:05:48	22:13:08	435681	5e544727059e3744ccdd4c3b	205395826	1	main_z	7	main_z	139	stimuli_target_circlediamonds.svg	stimuli_distractor_trianglediamonds.svg	2	yes	44	1	398
6.6.1	win	2022-12-14	22:05:48	22:13:08	435681	5e544727059e3744ccdd4c3b	205395826	1	main_z	7	advance_on_keypress_ZEE	140	stimuli_target_circlediamonds.svg	stimuli_distractor_trianglediamonds.svg	2	yes	57	0	262
6.6.1	win	2022-12-14	22:05:48	22:13:11	438599	5e544727059e3744ccdd4c3b	205395826	1	main_z	7	main_z	141	stimuli_distractor_trianglediamonds.svg	stimuli_distractor_trianglediamonds.svg	34	no	0	1	2000
6.6.1	win	2022-12-14	22:05:48	22:13:11	438599	5e544727059e3744ccdd4c3b	205395826	1	main_z	7	advance_on_keypress_ZEE	142	stimuli_distractor_trianglediamonds.svg	stimuli_distractor_trianglediamonds.svg	34	no	57	0	1673
6.6.1	win	2022-12-14	22:05:48	22:13:13	441256	5e544727059e3744ccdd4c3b	205395826	1	main_z	7	main_z	143	stimuli_distractor_trianglediamonds.svg	stimuli_target_diamondcircles.svg	27	yes	44	1	341
6.6.1	win	2022-12-14	22:05:48	22:13:13	441256	5e544727059e3744ccdd4c3b	205395826	1	main_z	7	advance_on_keypress_ZEE	144	stimuli_distractor_trianglediamonds.svg	stimuli_target_diamondcircles.svg	27	yes	57	0	547
6.6.1	win	2022-12-14	22:05:48	22:13:15	442934	5e544727059e3744ccdd4c3b	205395826	1	main_z	7	main_z	145	stimuli_target_circletriangles.svg	stimuli_distractor_trianglediamonds.svg	1	yes	44	1	485
6.6.1	win	2022-12-14	22:05:48	22:13:15	442934	5e544727059e3744ccdd4c3b	205395826	1	main_z	7	advance_on_keypress_ZEE	146	stimuli_target_circletriangles.svg	stimuli_distractor_trianglediamonds.svg	1	yes	57	0	261
6.6.1	win	2022-12-14	22:05:48	22:13:18	445848	5e544727059e3744ccdd4c3b	205395826	1	main_z	7	main_z	147	stimuli_distractor_trianglediamonds.svg	stimuli_distractor_trianglediamonds.svg	33	no	0	1	2000
6.6.1	win	2022-12-14	22:05:48	22:13:18	445848	5e544727059e3744ccdd4c3b	205395826	1	main_z	7	advance_on_keypress_ZEE	148	stimuli_distractor_trianglediamonds.svg	stimuli_distractor_trianglediamonds.svg	33	no	57	0	924
6.6.1	win	2022-12-14	22:05:48	22:13:20	447790	5e544727059e3744ccdd4c3b	205395826	1	main_z	7	main_z	149	stimuli_distractor_diamondtriangles.svg	stimuli_target_trianglesquares.svg	30	yes	44	1	375
6.6.1	win	2022-12-14	22:05:48	22:13:20	447790	5e544727059e3744ccdd4c3b	205395826	1	main_z	7	advance_on_keypress_ZEE	150	stimuli_distractor_diamondtriangles.svg	stimuli_target_trianglesquares.svg	30	yes	57	0	762
6.6.1	win	2022-12-14	22:05:48	22:13:22	449670	5e544727059e3744ccdd4c3b	205395826	1	main_z	7	main_z	151	stimuli_target_circlediamonds.svg	stimuli_distractor_diamondtriangles.svg	6	yes	44	1	489
6.6.1	win	2022-12-14	22:05:48	22:13:22	449670	5e544727059e3744ccdd4c3b	205395826	1	main_z	7	advance_on_keypress_ZEE	152	stimuli_target_circlediamonds.svg	stimuli_distractor_diamondtriangles.svg	6	yes	57	0	668
6.6.1	win	2022-12-14	22:05:48	22:13:24	451584	5e544727059e3744ccdd4c3b	205395826	1	main_z	7	main_z	153	stimuli_distractor_diamondtriangles.svg	stimuli_target_diamondsquares.svg	32	yes	44	1	605
6.6.1	win	2022-12-14	22:05:48	22:13:24	451584	5e544727059e3744ccdd4c3b	205395826	1	main_z	7	advance_on_keypress_ZEE	154	stimuli_distractor_diamondtriangles.svg	stimuli_target_diamondsquares.svg	32	yes	57	0	446
6.6.1	win	2022-12-14	22:05:48	22:13:25	453309	5e544727059e3744ccdd4c3b	205395826	1	main_z	7	main_z	155	stimuli_distractor_trianglediamonds.svg	stimuli_target_diamondsquares.svg	28	yes	44	1	630
6.6.1	win	2022-12-14	22:05:48	22:13:25	453309	5e544727059e3744ccdd4c3b	205395826	1	main_z	7	advance_on_keypress_ZEE	156	stimuli_distractor_trianglediamonds.svg	stimuli_target_diamondsquares.svg	28	yes	57	0	369
6.6.1	win	2022-12-14	22:05:48	22:13:27	454875	5e544727059e3744ccdd4c3b	205395826	1	main_z	7	main_z	157	stimuli_distractor_diamondtriangles.svg	stimuli_target_circlediamonds.svg	14	yes	44	1	545
6.6.1	win	2022-12-14	22:05:48	22:13:27	454875	5e544727059e3744ccdd4c3b	205395826	1	main_z	7	advance_on_keypress_ZEE	158	stimuli_distractor_diamondtriangles.svg	stimuli_target_circlediamonds.svg	14	yes	57	0	268
6.6.1	win	2022-12-14	22:05:48	22:13:30	457797	5e544727059e3744ccdd4c3b	205395826	1	main_z	7	main_z	159	stimuli_distractor_diamondtriangles.svg	stimuli_distractor_trianglediamonds.svg	38	no	0	1	2000
6.6.1	win	2022-12-14	22:05:48	22:13:30	457797	5e544727059e3744ccdd4c3b	205395826	1	main_z	7	advance_on_keypress_ZEE	160	stimuli_distractor_diamondtriangles.svg	stimuli_distractor_trianglediamonds.svg	38	no	57	0	532
6.6.1	win	2022-12-14	22:05:48	22:14:00	488240	5e544727059e3744ccdd4c3b	205395826	1	practice_slash	9	practice_slash	1	stimuli_distractor_trianglediamonds.svg	stimuli_distractor_diamondtriangles.svg	16	no	53	0	496
6.6.1	win	2022-12-14	22:05:48	22:14:00	488240	5e544727059e3744ccdd4c3b	205395826	1	practice_slash	9	advance_on_keypress_SLASH	2	stimuli_distractor_trianglediamonds.svg	stimuli_distractor_diamondtriangles.svg	16	no	57	0	1511
6.6.1	win	2022-12-14	22:05:48	22:14:04	491804	5e544727059e3744ccdd4c3b	205395826	1	practice_slash	9	practice_slash	3	stimuli_distractor_diamondtriangles.svg	stimuli_target_circletriangles.svg	7	yes	53	1	393
6.6.1	win	2022-12-14	22:05:48	22:14:04	491804	5e544727059e3744ccdd4c3b	205395826	1	practice_slash	9	advance_on_keypress_SLASH	4	stimuli_distractor_diamondtriangles.svg	stimuli_target_circletriangles.svg	7	yes	57	0	597
6.6.1	win	2022-12-14	22:05:48	22:14:07	494681	5e544727059e3744ccdd4c3b	205395826	1	practice_slash	9	practice_slash	5	stimuli_target_diamondsquares.svg	stimuli_distractor_diamondtriangles.svg	3	yes	53	1	620
6.6.1	win	2022-12-14	22:05:48	22:14:07	494681	5e544727059e3744ccdd4c3b	205395826	1	practice_slash	9	advance_on_keypress_SLASH	6	stimuli_target_diamondsquares.svg	stimuli_distractor_diamondtriangles.svg	3	yes	57	0	384
6.6.1	win	2022-12-14	22:05:48	22:14:09	497028	5e544727059e3744ccdd4c3b	205395826	1	practice_slash	9	practice_slash	7	stimuli_distractor_diamondtriangles.svg	stimuli_distractor_diamondtriangles.svg	13	no	53	0	319
6.6.1	win	2022-12-14	22:05:48	22:14:09	497028	5e544727059e3744ccdd4c3b	205395826	1	practice_slash	9	advance_on_keypress_SLASH	8	stimuli_distractor_diamondtriangles.svg	stimuli_distractor_diamondtriangles.svg	13	no	57	0	616
6.6.1	win	2022-12-14	22:05:48	22:14:12	499651	5e544727059e3744ccdd4c3b	205395826	1	practice_slash	9	practice_slash	9	stimuli_target_diamondsquares.svg	stimuli_distractor_trianglediamonds.svg	6	yes	53	1	358
6.6.1	win	2022-12-14	22:05:48	22:14:12	499651	5e544727059e3744ccdd4c3b	205395826	1	practice_slash	9	advance_on_keypress_SLASH	10	stimuli_target_diamondsquares.svg	stimuli_distractor_trianglediamonds.svg	6	yes	57	0	542
6.6.1	win	2022-12-14	22:05:48	22:14:14	502228	5e544727059e3744ccdd4c3b	205395826	1	practice_slash	9	practice_slash	11	stimuli_target_squarediamonds.svg	stimuli_distractor_trianglediamonds.svg	5	yes	53	1	402
6.6.1	win	2022-12-14	22:05:48	22:14:14	502228	5e544727059e3744ccdd4c3b	205395826	1	practice_slash	9	advance_on_keypress_SLASH	12	stimuli_target_squarediamonds.svg	stimuli_distractor_trianglediamonds.svg	5	yes	57	0	522
6.6.1	win	2022-12-14	22:05:48	22:14:17	504826	5e544727059e3744ccdd4c3b	205395826	1	practice_slash	9	practice_slash	13	stimuli_target_squarediamonds.svg	stimuli_distractor_diamondtriangles.svg	2	yes	53	1	434
6.6.1	win	2022-12-14	22:05:48	22:14:17	504826	5e544727059e3744ccdd4c3b	205395826	1	practice_slash	9	advance_on_keypress_SLASH	14	stimuli_target_squarediamonds.svg	stimuli_distractor_diamondtriangles.svg	2	yes	57	0	490
6.6.1	win	2022-12-14	22:05:48	22:14:19	507472	5e544727059e3744ccdd4c3b	205395826	1	practice_slash	9	practice_slash	15	stimuli_distractor_diamondtriangles.svg	stimuli_target_trianglecircles.svg	9	yes	53	1	515
6.6.1	win	2022-12-14	22:05:48	22:14:19	507472	5e544727059e3744ccdd4c3b	205395826	1	practice_slash	9	advance_on_keypress_SLASH	16	stimuli_distractor_diamondtriangles.svg	stimuli_target_trianglecircles.svg	9	yes	57	0	681
6.6.1	win	2022-12-14	22:05:48	22:14:22	510240	5e544727059e3744ccdd4c3b	205395826	1	practice_slash	9	practice_slash	17	stimuli_target_circlediamonds.svg	stimuli_distractor_diamondtriangles.svg	1	yes	53	1	432
6.6.1	win	2022-12-14	22:05:48	22:14:22	510240	5e544727059e3744ccdd4c3b	205395826	1	practice_slash	9	advance_on_keypress_SLASH	18	stimuli_target_circlediamonds.svg	stimuli_distractor_diamondtriangles.svg	1	yes	57	0	478
6.6.1	win	2022-12-14	22:05:48	22:14:25	513461	5e544727059e3744ccdd4c3b	205395826	1	practice_slash	9	practice_slash	19	stimuli_distractor_trianglediamonds.svg	stimuli_target_circlediamonds.svg	10	yes	53	1	1086
6.6.1	win	2022-12-14	22:05:48	22:14:25	513461	5e544727059e3744ccdd4c3b	205395826	1	practice_slash	9	advance_on_keypress_SLASH	20	stimuli_distractor_trianglediamonds.svg	stimuli_target_circlediamonds.svg	10	yes	57	0	1290
6.6.1	win	2022-12-14	22:05:48	22:14:30	517518	5e544727059e3744ccdd4c3b	205395826	1	practice_slash	9	practice_slash	21	stimuli_distractor_trianglediamonds.svg	stimuli_target_diamondcircles.svg	12	yes	53	1	1128
6.6.1	win	2022-12-14	22:05:48	22:14:30	517518	5e544727059e3744ccdd4c3b	205395826	1	practice_slash	9	advance_on_keypress_SLASH	22	stimuli_distractor_trianglediamonds.svg	stimuli_target_diamondcircles.svg	12	yes	57	0	505
6.6.1	win	2022-12-14	22:05:48	22:14:32	520405	5e544727059e3744ccdd4c3b	205395826	1	practice_slash	9	practice_slash	23	stimuli_distractor_diamondtriangles.svg	stimuli_distractor_trianglediamonds.svg	14	no	53	0	732
6.6.1	win	2022-12-14	22:05:48	22:14:32	520405	5e544727059e3744ccdd4c3b	205395826	1	practice_slash	9	advance_on_keypress_SLASH	24	stimuli_distractor_diamondtriangles.svg	stimuli_distractor_trianglediamonds.svg	14	no	57	0	446
6.6.1	win	2022-12-14	22:05:48	22:14:35	523173	5e544727059e3744ccdd4c3b	205395826	1	practice_slash	9	practice_slash	25	stimuli_target_circlediamonds.svg	stimuli_distractor_trianglediamonds.svg	4	yes	53	1	665
6.6.1	win	2022-12-14	22:05:48	22:14:35	523173	5e544727059e3744ccdd4c3b	205395826	1	practice_slash	9	advance_on_keypress_SLASH	26	stimuli_target_circlediamonds.svg	stimuli_distractor_trianglediamonds.svg	4	yes	57	0	519
6.6.1	win	2022-12-14	22:05:48	22:14:39	526587	5e544727059e3744ccdd4c3b	205395826	1	practice_slash	9	practice_slash	27	stimuli_distractor_trianglediamonds.svg	stimuli_target_squarediamonds.svg	11	yes	53	1	1247
6.6.1	win	2022-12-14	22:05:48	22:14:39	526587	5e544727059e3744ccdd4c3b	205395826	1	practice_slash	9	advance_on_keypress_SLASH	28	stimuli_distractor_trianglediamonds.svg	stimuli_target_squarediamonds.svg	11	yes	57	0	482
6.6.1	win	2022-12-14	22:05:48	22:14:43	530722	5e544727059e3744ccdd4c3b	205395826	1	practice_slash	9	practice_slash	29	stimuli_distractor_trianglediamonds.svg	stimuli_distractor_trianglediamonds.svg	15	no	0	1	2000
6.6.1	win	2022-12-14	22:05:48	22:14:43	530722	5e544727059e3744ccdd4c3b	205395826	1	practice_slash	9	advance_on_keypress_SLASH	30	stimuli_distractor_trianglediamonds.svg	stimuli_distractor_trianglediamonds.svg	15	no	57	0	721
6.6.1	win	2022-12-14	22:05:48	22:14:46	533801	5e544727059e3744ccdd4c3b	205395826	1	practice_slash	9	practice_slash	31	stimuli_distractor_diamondtriangles.svg	stimuli_target_diamondcircles.svg	8	yes	53	1	712
6.6.1	win	2022-12-14	22:05:48	22:14:46	533801	5e544727059e3744ccdd4c3b	205395826	1	practice_slash	9	advance_on_keypress_SLASH	32	stimuli_distractor_diamondtriangles.svg	stimuli_target_diamondcircles.svg	8	yes	57	0	465
6.6.1	win	2022-12-14	22:05:48	22:14:52	539829	5e544727059e3744ccdd4c3b	205395826	1	main_slash	11	main_slash	1	stimuli_distractor_diamondtriangles.svg	stimuli_target_trianglesquares.svg	30	yes	53	1	627
6.6.1	win	2022-12-14	22:05:48	22:14:52	539829	5e544727059e3744ccdd4c3b	205395826	1	main_slash	11	advance_on_keypress_SLASH	2	stimuli_distractor_diamondtriangles.svg	stimuli_target_trianglesquares.svg	30	yes	57	0	1936
6.6.1	win	2022-12-14	22:05:48	22:14:55	543323	5e544727059e3744ccdd4c3b	205395826	1	main_slash	11	main_slash	3	stimuli_distractor_trianglediamonds.svg	stimuli_target_circlediamonds.svg	10	yes	53	1	906
6.6.1	win	2022-12-14	22:05:48	22:14:55	543323	5e544727059e3744ccdd4c3b	205395826	1	main_slash	11	advance_on_keypress_SLASH	4	stimuli_distractor_trianglediamonds.svg	stimuli_target_circlediamonds.svg	10	yes	57	0	547
6.6.1	win	2022-12-14	22:05:48	22:14:59	546518	5e544727059e3744ccdd4c3b	205395826	1	main_slash	11	main_slash	5	stimuli_distractor_trianglediamonds.svg	stimuli_distractor_trianglediamonds.svg	34	no	0	1	2000
6.6.1	win	2022-12-14	22:05:48	22:14:59	546518	5e544727059e3744ccdd4c3b	205395826	1	main_slash	11	advance_on_keypress_SLASH	6	stimuli_distractor_trianglediamonds.svg	stimuli_distractor_trianglediamonds.svg	34	no	57	0	728
6.6.1	win	2022-12-14	22:05:48	22:15:00	548329	5e544727059e3744ccdd4c3b	205395826	1	main_slash	11	main_slash	7	stimuli_target_diamondcircles.svg	stimuli_distractor_diamondtriangles.svg	23	yes	53	1	428
6.6.1	win	2022-12-14	22:05:48	22:15:00	548329	5e544727059e3744ccdd4c3b	205395826	1	main_slash	11	advance_on_keypress_SLASH	8	stimuli_target_diamondcircles.svg	stimuli_distractor_diamondtriangles.svg	23	yes	57	0	836
6.6.1	win	2022-12-14	22:05:48	22:15:02	550263	5e544727059e3744ccdd4c3b	205395826	1	main_slash	11	main_slash	9	stimuli_target_circlediamonds.svg	stimuli_distractor_diamondtriangles.svg	6	yes	53	1	446
6.6.1	win	2022-12-14	22:05:48	22:15:02	550263	5e544727059e3744ccdd4c3b	205395826	1	main_slash	11	advance_on_keypress_SLASH	10	stimuli_target_circlediamonds.svg	stimuli_distractor_diamondtriangles.svg	6	yes	57	0	408
6.6.1	win	2022-12-14	22:05:48	22:15:04	551955	5e544727059e3744ccdd4c3b	205395826	1	main_slash	11	main_slash	11	stimuli_distractor_trianglediamonds.svg	stimuli_distractor_diamondtriangles.svg	36	no	53	0	637
6.6.1	win	2022-12-14	22:05:48	22:15:04	551955	5e544727059e3744ccdd4c3b	205395826	1	main_slash	11	advance_on_keypress_SLASH	12	stimuli_distractor_trianglediamonds.svg	stimuli_distractor_diamondtriangles.svg	36	no	57	0	1044
6.6.1	win	2022-12-14	22:05:48	22:15:06	554073	5e544727059e3744ccdd4c3b	205395826	1	main_slash	11	main_slash	13	stimuli_target_diamondsquares.svg	stimuli_distractor_trianglediamonds.svg	20	yes	53	1	440
6.6.1	win	2022-12-14	22:05:48	22:15:06	554073	5e544727059e3744ccdd4c3b	205395826	1	main_slash	11	advance_on_keypress_SLASH	14	stimuli_target_diamondsquares.svg	stimuli_distractor_trianglediamonds.svg	20	yes	57	0	468
6.6.1	win	2022-12-14	22:05:48	22:15:08	555788	5e544727059e3744ccdd4c3b	205395826	1	main_slash	11	main_slash	15	stimuli_distractor_diamondtriangles.svg	stimuli_target_trianglecircles.svg	29	yes	53	1	605
6.6.1	win	2022-12-14	22:05:48	22:15:08	555788	5e544727059e3744ccdd4c3b	205395826	1	main_slash	11	advance_on_keypress_SLASH	16	stimuli_distractor_diamondtriangles.svg	stimuli_target_trianglecircles.svg	29	yes	57	0	496
6.6.1	win	2022-12-14	22:05:48	22:15:11	558933	5e544727059e3744ccdd4c3b	205395826	1	main_slash	11	main_slash	17	stimuli_distractor_diamondtriangles.svg	stimuli_distractor_diamondtriangles.svg	39	no	0	1	2000
6.6.1	win	2022-12-14	22:05:48	22:15:11	558933	5e544727059e3744ccdd4c3b	205395826	1	main_slash	11	advance_on_keypress_SLASH	18	stimuli_distractor_diamondtriangles.svg	stimuli_distractor_diamondtriangles.svg	39	no	57	0	339
6.6.1	win	2022-12-14	22:05:48	22:15:13	560589	5e544727059e3744ccdd4c3b	205395826	1	main_slash	11	main_slash	19	stimuli_distractor_diamondtriangles.svg	stimuli_target_squarediamonds.svg	16	yes	53	1	673
6.6.1	win	2022-12-14	22:05:48	22:15:13	560589	5e544727059e3744ccdd4c3b	205395826	1	main_slash	11	advance_on_keypress_SLASH	20	stimuli_distractor_diamondtriangles.svg	stimuli_target_squarediamonds.svg	16	yes	57	0	572
6.6.1	win	2022-12-14	22:05:48	22:15:15	562538	5e544727059e3744ccdd4c3b	205395826	1	main_slash	11	main_slash	21	stimuli_distractor_trianglediamonds.svg	stimuli_target_diamondsquares.svg	28	yes	53	1	739
6.6.1	win	2022-12-14	22:05:48	22:15:15	562538	5e544727059e3744ccdd4c3b	205395826	1	main_slash	11	advance_on_keypress_SLASH	22	stimuli_distractor_trianglediamonds.svg	stimuli_target_diamondsquares.svg	28	yes	57	0	518
6.6.1	win	2022-12-14	22:05:48	22:15:18	565699	5e544727059e3744ccdd4c3b	205395826	1	main_slash	11	main_slash	23	stimuli_distractor_diamondtriangles.svg	stimuli_distractor_diamondtriangles.svg	40	no	0	1	2000
6.6.1	win	2022-12-14	22:05:48	22:15:18	565699	5e544727059e3744ccdd4c3b	205395826	1	main_slash	11	advance_on_keypress_SLASH	24	stimuli_distractor_diamondtriangles.svg	stimuli_distractor_diamondtriangles.svg	40	no	57	0	463
6.6.1	win	2022-12-14	22:05:48	22:15:19	567365	5e544727059e3744ccdd4c3b	205395826	1	main_slash	11	main_slash	25	stimuli_distractor_diamondtriangles.svg	stimuli_distractor_trianglediamonds.svg	37	no	53	0	550
6.6.1	win	2022-12-14	22:05:48	22:15:19	567365	5e544727059e3744ccdd4c3b	205395826	1	main_slash	11	advance_on_keypress_SLASH	26	stimuli_distractor_diamondtriangles.svg	stimuli_distractor_trianglediamonds.svg	37	no	57	0	810
6.6.1	win	2022-12-14	22:05:48	22:15:21	569424	5e544727059e3744ccdd4c3b	205395826	1	main_slash	11	main_slash	27	stimuli_target_squaretriangles.svg	stimuli_distractor_diamondtriangles.svg	7	yes	53	1	608
6.6.1	win	2022-12-14	22:05:48	22:15:21	569424	5e544727059e3744ccdd4c3b	205395826	1	main_slash	11	advance_on_keypress_SLASH	28	stimuli_target_squaretriangles.svg	stimuli_distractor_diamondtriangles.svg	7	yes	57	0	571
6.6.1	win	2022-12-14	22:05:48	22:15:23	571332	5e544727059e3744ccdd4c3b	205395826	1	main_slash	11	main_slash	29	stimuli_target_squarediamonds.svg	stimuli_distractor_trianglediamonds.svg	4	yes	53	1	702
6.6.1	win	2022-12-14	22:05:48	22:15:23	571332	5e544727059e3744ccdd4c3b	205395826	1	main_slash	11	advance_on_keypress_SLASH	30	stimuli_target_squarediamonds.svg	stimuli_distractor_trianglediamonds.svg	4	yes	57	0	1441
6.6.1	win	2022-12-14	22:05:48	22:15:26	574060	5e544727059e3744ccdd4c3b	205395826	1	main_slash	11	main_slash	31	stimuli_distractor_diamondtriangles.svg	stimuli_target_diamondsquares.svg	32	yes	53	1	645
6.6.1	win	2022-12-14	22:05:48	22:15:26	574060	5e544727059e3744ccdd4c3b	205395826	1	main_slash	11	advance_on_keypress_SLASH	32	stimuli_distractor_diamondtriangles.svg	stimuli_target_diamondsquares.svg	32	yes	57	0	537
6.6.1	win	2022-12-14	22:05:48	22:15:28	575830	5e544727059e3744ccdd4c3b	205395826	1	main_slash	11	main_slash	33	stimuli_target_squaretriangles.svg	stimuli_distractor_trianglediamonds.svg	3	yes	53	1	582
6.6.1	win	2022-12-14	22:05:48	22:15:28	575830	5e544727059e3744ccdd4c3b	205395826	1	main_slash	11	advance_on_keypress_SLASH	34	stimuli_target_squaretriangles.svg	stimuli_distractor_trianglediamonds.svg	3	yes	57	0	551
6.6.1	win	2022-12-14	22:05:48	22:15:30	577669	5e544727059e3744ccdd4c3b	205395826	1	main_slash	11	main_slash	35	stimuli_target_diamondcircles.svg	stimuli_distractor_trianglediamonds.svg	19	yes	53	1	639
6.6.1	win	2022-12-14	22:05:48	22:15:30	577669	5e544727059e3744ccdd4c3b	205395826	1	main_slash	11	advance_on_keypress_SLASH	36	stimuli_target_diamondcircles.svg	stimuli_distractor_trianglediamonds.svg	19	yes	57	0	518
6.6.1	win	2022-12-14	22:05:48	22:15:31	579404	5e544727059e3744ccdd4c3b	205395826	1	main_slash	11	main_slash	37	stimuli_target_circletriangles.svg	stimuli_distractor_diamondtriangles.svg	5	yes	53	1	574
6.6.1	win	2022-12-14	22:05:48	22:15:31	579404	5e544727059e3744ccdd4c3b	205395826	1	main_slash	11	advance_on_keypress_SLASH	38	stimuli_target_circletriangles.svg	stimuli_distractor_diamondtriangles.svg	5	yes	57	0	455
6.6.1	win	2022-12-14	22:05:48	22:15:33	580990	5e544727059e3744ccdd4c3b	205395826	1	main_slash	11	main_slash	39	stimuli_target_circlediamonds.svg	stimuli_distractor_trianglediamonds.svg	2	yes	53	1	493
6.6.1	win	2022-12-14	22:05:48	22:15:33	580990	5e544727059e3744ccdd4c3b	205395826	1	main_slash	11	advance_on_keypress_SLASH	40	stimuli_target_circlediamonds.svg	stimuli_distractor_trianglediamonds.svg	2	yes	57	0	352
6.6.1	win	2022-12-14	22:05:48	22:15:35	582659	5e544727059e3744ccdd4c3b	205395826	1	main_slash	11	main_slash	41	stimuli_target_trianglesquares.svg	stimuli_distractor_diamondtriangles.svg	22	yes	53	1	680
6.6.1	win	2022-12-14	22:05:48	22:15:35	582659	5e544727059e3744ccdd4c3b	205395826	1	main_slash	11	advance_on_keypress_SLASH	42	stimuli_target_trianglesquares.svg	stimuli_distractor_diamondtriangles.svg	22	yes	57	0	533
6.6.1	win	2022-12-14	22:05:48	22:15:36	584425	5e544727059e3744ccdd4c3b	205395826	1	main_slash	11	main_slash	43	stimuli_target_trianglecircles.svg	stimuli_distractor_diamondtriangles.svg	21	yes	53	1	578
6.6.1	win	2022-12-14	22:05:48	22:15:36	584425	5e544727059e3744ccdd4c3b	205395826	1	main_slash	11	advance_on_keypress_SLASH	44	stimuli_target_trianglecircles.svg	stimuli_distractor_diamondtriangles.svg	21	yes	57	0	458
6.6.1	win	2022-12-14	22:05:48	22:15:38	586418	5e544727059e3744ccdd4c3b	205395826	1	main_slash	11	main_slash	45	stimuli_distractor_trianglediamonds.svg	stimuli_target_diamondcircles.svg	27	yes	53	1	890
6.6.1	win	2022-12-14	22:05:48	22:15:38	586418	5e544727059e3744ccdd4c3b	205395826	1	main_slash	11	advance_on_keypress_SLASH	46	stimuli_distractor_trianglediamonds.svg	stimuli_target_diamondcircles.svg	27	yes	57	0	429
6.6.1	win	2022-12-14	22:05:48	22:15:40	588034	5e544727059e3744ccdd4c3b	205395826	1	main_slash	11	main_slash	47	stimuli_distractor_diamondtriangles.svg	stimuli_target_circlediamonds.svg	14	yes	53	1	538
6.6.1	win	2022-12-14	22:05:48	22:15:40	588034	5e544727059e3744ccdd4c3b	205395826	1	main_slash	11	advance_on_keypress_SLASH	48	stimuli_distractor_diamondtriangles.svg	stimuli_target_circlediamonds.svg	14	yes	57	0	427
6.6.1	win	2022-12-14	22:05:48	22:15:42	589644	5e544727059e3744ccdd4c3b	205395826	1	main_slash	11	main_slash	49	stimuli_distractor_trianglediamonds.svg	stimuli_target_squarediamonds.svg	12	yes	53	1	550
6.6.1	win	2022-12-14	22:05:48	22:15:42	589644	5e544727059e3744ccdd4c3b	205395826	1	main_slash	11	advance_on_keypress_SLASH	50	stimuli_distractor_trianglediamonds.svg	stimuli_target_squarediamonds.svg	12	yes	57	0	411
6.6.1	win	2022-12-14	22:05:48	22:15:43	591210	5e544727059e3744ccdd4c3b	205395826	1	main_slash	11	main_slash	51	stimuli_target_trianglesquares.svg	stimuli_distractor_trianglediamonds.svg	18	yes	53	1	515
6.6.1	win	2022-12-14	22:05:48	22:15:43	591210	5e544727059e3744ccdd4c3b	205395826	1	main_slash	11	advance_on_keypress_SLASH	52	stimuli_target_trianglesquares.svg	stimuli_distractor_trianglediamonds.svg	18	yes	57	0	366
6.6.1	win	2022-12-14	22:05:48	22:15:45	592832	5e544727059e3744ccdd4c3b	205395826	1	main_slash	11	main_slash	53	stimuli_target_trianglecircles.svg	stimuli_distractor_trianglediamonds.svg	17	yes	53	1	603
6.6.1	win	2022-12-14	22:05:48	22:15:45	592832	5e544727059e3744ccdd4c3b	205395826	1	main_slash	11	advance_on_keypress_SLASH	54	stimuli_target_trianglecircles.svg	stimuli_distractor_trianglediamonds.svg	17	yes	57	0	369
6.6.1	win	2022-12-14	22:05:48	22:15:47	594520	5e544727059e3744ccdd4c3b	205395826	1	main_slash	11	main_slash	55	stimuli_distractor_diamondtriangles.svg	stimuli_target_circletriangles.svg	13	yes	53	1	675
6.6.1	win	2022-12-14	22:05:48	22:15:47	594520	5e544727059e3744ccdd4c3b	205395826	1	main_slash	11	advance_on_keypress_SLASH	56	stimuli_distractor_diamondtriangles.svg	stimuli_target_circletriangles.svg	13	yes	57	0	297
6.6.1	win	2022-12-14	22:05:48	22:15:49	597462	5e544727059e3744ccdd4c3b	205395826	1	main_slash	11	main_slash	57	stimuli_distractor_diamondtriangles.svg	stimuli_distractor_trianglediamonds.svg	38	no	0	1	2000
6.6.1	win	2022-12-14	22:05:48	22:15:49	597462	5e544727059e3744ccdd4c3b	205395826	1	main_slash	11	advance_on_keypress_SLASH	58	stimuli_distractor_diamondtriangles.svg	stimuli_distractor_trianglediamonds.svg	38	no	57	0	591
6.6.1	win	2022-12-14	22:05:48	22:15:53	600695	5e544727059e3744ccdd4c3b	205395826	1	main_slash	11	main_slash	59	stimuli_distractor_trianglediamonds.svg	stimuli_distractor_trianglediamonds.svg	33	no	0	1	2000
6.6.1	win	2022-12-14	22:05:48	22:15:53	600695	5e544727059e3744ccdd4c3b	205395826	1	main_slash	11	advance_on_keypress_SLASH	60	stimuli_distractor_trianglediamonds.svg	stimuli_distractor_trianglediamonds.svg	33	no	57	0	405
6.6.1	win	2022-12-14	22:05:48	22:15:54	602378	5e544727059e3744ccdd4c3b	205395826	1	main_slash	11	main_slash	61	stimuli_target_diamondsquares.svg	stimuli_distractor_diamondtriangles.svg	24	yes	53	1	634
6.6.1	win	2022-12-14	22:05:48	22:15:54	602378	5e544727059e3744ccdd4c3b	205395826	1	main_slash	11	advance_on_keypress_SLASH	62	stimuli_target_diamondsquares.svg	stimuli_distractor_diamondtriangles.svg	24	yes	57	0	352
6.6.1	win	2022-12-14	22:05:48	22:15:56	604002	5e544727059e3744ccdd4c3b	205395826	1	main_slash	11	main_slash	63	stimuli_distractor_diamondtriangles.svg	stimuli_target_diamondcircles.svg	31	yes	53	1	626
6.6.1	win	2022-12-14	22:05:48	22:15:56	604002	5e544727059e3744ccdd4c3b	205395826	1	main_slash	11	advance_on_keypress_SLASH	64	stimuli_distractor_diamondtriangles.svg	stimuli_target_diamondcircles.svg	31	yes	57	0	267
6.6.1	win	2022-12-14	22:05:48	22:15:58	605584	5e544727059e3744ccdd4c3b	205395826	1	main_slash	11	main_slash	65	stimuli_distractor_diamondtriangles.svg	stimuli_target_squaretriangles.svg	15	yes	53	1	674
6.6.1	win	2022-12-14	22:05:48	22:15:58	605584	5e544727059e3744ccdd4c3b	205395826	1	main_slash	11	advance_on_keypress_SLASH	66	stimuli_distractor_diamondtriangles.svg	stimuli_target_squaretriangles.svg	15	yes	57	0	240
6.6.1	win	2022-12-14	22:05:48	22:16:00	607482	5e544727059e3744ccdd4c3b	205395826	1	main_slash	11	main_slash	67	stimuli_distractor_trianglediamonds.svg	stimuli_target_trianglecircles.svg	25	yes	53	1	1022
6.6.1	win	2022-12-14	22:05:48	22:16:00	607482	5e544727059e3744ccdd4c3b	205395826	1	main_slash	11	advance_on_keypress_SLASH	68	stimuli_distractor_trianglediamonds.svg	stimuli_target_trianglecircles.svg	25	yes	57	0	423
6.6.1	win	2022-12-14	22:05:48	22:16:01	609172	5e544727059e3744ccdd4c3b	205395826	1	main_slash	11	main_slash	69	stimuli_distractor_trianglediamonds.svg	stimuli_target_trianglesquares.svg	26	yes	53	1	629
6.6.1	win	2022-12-14	22:05:48	22:16:01	609172	5e544727059e3744ccdd4c3b	205395826	1	main_slash	11	advance_on_keypress_SLASH	70	stimuli_distractor_trianglediamonds.svg	stimuli_target_trianglesquares.svg	26	yes	57	0	204
6.6.1	win	2022-12-14	22:05:48	22:16:03	610739	5e544727059e3744ccdd4c3b	205395826	1	main_slash	11	main_slash	71	stimuli_distractor_trianglediamonds.svg	stimuli_target_squaretriangles.svg	11	yes	53	1	713
6.6.1	win	2022-12-14	22:05:48	22:16:03	610739	5e544727059e3744ccdd4c3b	205395826	1	main_slash	11	advance_on_keypress_SLASH	72	stimuli_distractor_trianglediamonds.svg	stimuli_target_squaretriangles.svg	11	yes	57	0	343
6.6.1	win	2022-12-14	22:05:48	22:16:06	613726	5e544727059e3744ccdd4c3b	205395826	1	main_slash	11	main_slash	73	stimuli_distractor_trianglediamonds.svg	stimuli_distractor_diamondtriangles.svg	35	no	0	1	2000
6.6.1	win	2022-12-14	22:05:48	22:16:06	613726	5e544727059e3744ccdd4c3b	205395826	1	main_slash	11	advance_on_keypress_SLASH	74	stimuli_distractor_trianglediamonds.svg	stimuli_distractor_diamondtriangles.svg	35	no	57	0	864
6.6.1	win	2022-12-14	22:05:48	22:16:08	615789	5e544727059e3744ccdd4c3b	205395826	1	main_slash	11	main_slash	75	stimuli_target_squarediamonds.svg	stimuli_distractor_diamondtriangles.svg	8	yes	53	1	547
6.6.1	win	2022-12-14	22:05:48	22:16:08	615789	5e544727059e3744ccdd4c3b	205395826	1	main_slash	11	advance_on_keypress_SLASH	76	stimuli_target_squarediamonds.svg	stimuli_distractor_diamondtriangles.svg	8	yes	57	0	338
6.6.1	win	2022-12-14	22:05:48	22:16:09	617385	5e544727059e3744ccdd4c3b	205395826	1	main_slash	11	main_slash	77	stimuli_distractor_trianglediamonds.svg	stimuli_target_circletriangles.svg	9	yes	53	1	610
6.6.1	win	2022-12-14	22:05:48	22:16:09	617385	5e544727059e3744ccdd4c3b	205395826	1	main_slash	11	advance_on_keypress_SLASH	78	stimuli_distractor_trianglediamonds.svg	stimuli_target_circletriangles.svg	9	yes	57	0	244
6.6.1	win	2022-12-14	22:05:48	22:16:11	618844	5e544727059e3744ccdd4c3b	205395826	1	main_slash	11	main_slash	79	stimuli_target_circletriangles.svg	stimuli_distractor_trianglediamonds.svg	1	yes	53	1	569
6.6.1	win	2022-12-14	22:05:48	22:16:11	618844	5e544727059e3744ccdd4c3b	205395826	1	main_slash	11	advance_on_keypress_SLASH	80	stimuli_target_circletriangles.svg	stimuli_distractor_trianglediamonds.svg	1	yes	57	0	136
6.6.1	win	2022-12-14	22:05:48	22:16:12	620275	5e544727059e3744ccdd4c3b	205395826	1	main_slash	11	main_slash	81	stimuli_distractor_trianglediamonds.svg	stimuli_target_circlediamonds.svg	10	yes	53	1	649
6.6.1	win	2022-12-14	22:05:48	22:16:12	620275	5e544727059e3744ccdd4c3b	205395826	1	main_slash	11	advance_on_keypress_SLASH	82	stimuli_distractor_trianglediamonds.svg	stimuli_target_circlediamonds.svg	10	yes	57	0	124
6.6.1	win	2022-12-14	22:05:48	22:16:14	621675	5e544727059e3744ccdd4c3b	205395826	1	main_slash	11	main_slash	83	stimuli_distractor_diamondtriangles.svg	stimuli_target_squaretriangles.svg	15	yes	53	1	635
6.6.1	win	2022-12-14	22:05:48	22:16:14	621675	5e544727059e3744ccdd4c3b	205395826	1	main_slash	11	advance_on_keypress_SLASH	84	stimuli_distractor_diamondtriangles.svg	stimuli_target_squaretriangles.svg	15	yes	57	0	90
6.6.1	win	2022-12-14	22:05:48	22:16:15	622916	5e544727059e3744ccdd4c3b	205395826	1	main_slash	11	main_slash	85	stimuli_distractor_diamondtriangles.svg	stimuli_target_circlediamonds.svg	14	yes	53	1	509
6.6.1	win	2022-12-14	22:05:48	22:16:15	622916	5e544727059e3744ccdd4c3b	205395826	1	main_slash	11	advance_on_keypress_SLASH	86	stimuli_distractor_diamondtriangles.svg	stimuli_target_circlediamonds.svg	14	yes	57	0	168
6.6.1	win	2022-12-14	22:05:48	22:16:18	625724	5e544727059e3744ccdd4c3b	205395826	1	main_slash	11	main_slash	87	stimuli_distractor_diamondtriangles.svg	stimuli_target_diamondsquares.svg	32	yes	0	0	2000
6.6.1	win	2022-12-14	22:05:48	22:16:18	625724	5e544727059e3744ccdd4c3b	205395826	1	main_slash	11	advance_on_keypress_SLASH	88	stimuli_distractor_diamondtriangles.svg	stimuli_target_diamondsquares.svg	32	yes	57	0	905
6.6.1	win	2022-12-14	22:05:48	22:16:21	629274	5e544727059e3744ccdd4c3b	205395826	1	main_slash	11	main_slash	89	stimuli_distractor_trianglediamonds.svg	stimuli_distractor_diamondtriangles.svg	36	no	0	1	2000
6.6.1	win	2022-12-14	22:05:48	22:16:21	629274	5e544727059e3744ccdd4c3b	205395826	1	main_slash	11	advance_on_keypress_SLASH	90	stimuli_distractor_trianglediamonds.svg	stimuli_distractor_diamondtriangles.svg	36	no	57	0	408
6.6.1	win	2022-12-14	22:05:48	22:16:23	630838	5e544727059e3744ccdd4c3b	205395826	1	main_slash	11	main_slash	91	stimuli_target_squarediamonds.svg	stimuli_distractor_trianglediamonds.svg	4	yes	53	1	516
6.6.1	win	2022-12-14	22:05:48	22:16:23	630838	5e544727059e3744ccdd4c3b	205395826	1	main_slash	11	advance_on_keypress_SLASH	92	stimuli_target_squarediamonds.svg	stimuli_distractor_trianglediamonds.svg	4	yes	57	0	400
6.6.1	win	2022-12-14	22:05:48	22:16:24	632399	5e544727059e3744ccdd4c3b	205395826	1	main_slash	11	main_slash	93	stimuli_distractor_trianglediamonds.svg	stimuli_target_squaretriangles.svg	11	yes	53	1	510
6.6.1	win	2022-12-14	22:05:48	22:16:24	632399	5e544727059e3744ccdd4c3b	205395826	1	main_slash	11	advance_on_keypress_SLASH	94	stimuli_distractor_trianglediamonds.svg	stimuli_target_squaretriangles.svg	11	yes	57	0	208
6.6.1	win	2022-12-14	22:05:48	22:16:26	633785	5e544727059e3744ccdd4c3b	205395826	1	main_slash	11	main_slash	95	stimuli_distractor_diamondtriangles.svg	stimuli_target_circletriangles.svg	13	yes	53	1	545
6.6.1	win	2022-12-14	22:05:48	22:16:26	633785	5e544727059e3744ccdd4c3b	205395826	1	main_slash	11	advance_on_keypress_SLASH	96	stimuli_distractor_diamondtriangles.svg	stimuli_target_circletriangles.svg	13	yes	57	0	124
6.6.1	win	2022-12-14	22:05:48	22:16:27	635081	5e544727059e3744ccdd4c3b	205395826	1	main_slash	11	main_slash	97	stimuli_distractor_trianglediamonds.svg	stimuli_target_squarediamonds.svg	12	yes	53	1	525
6.6.1	win	2022-12-14	22:05:48	22:16:27	635081	5e544727059e3744ccdd4c3b	205395826	1	main_slash	11	advance_on_keypress_SLASH	98	stimuli_distractor_trianglediamonds.svg	stimuli_target_squarediamonds.svg	12	yes	57	0	167
6.6.1	win	2022-12-14	22:05:48	22:16:28	636428	5e544727059e3744ccdd4c3b	205395826	1	main_slash	11	main_slash	99	stimuli_target_circletriangles.svg	stimuli_distractor_trianglediamonds.svg	1	yes	53	1	539
6.6.1	win	2022-12-14	22:05:48	22:16:28	636428	5e544727059e3744ccdd4c3b	205395826	1	main_slash	11	advance_on_keypress_SLASH	100	stimuli_target_circletriangles.svg	stimuli_distractor_trianglediamonds.svg	1	yes	57	0	162
6.6.1	win	2022-12-14	22:05:48	22:16:30	637685	5e544727059e3744ccdd4c3b	205395826	1	main_slash	11	main_slash	101	stimuli_target_circlediamonds.svg	stimuli_distractor_trianglediamonds.svg	2	yes	53	1	445
6.6.1	win	2022-12-14	22:05:48	22:16:30	637685	5e544727059e3744ccdd4c3b	205395826	1	main_slash	11	advance_on_keypress_SLASH	102	stimuli_target_circlediamonds.svg	stimuli_distractor_trianglediamonds.svg	2	yes	57	0	192
6.6.1	win	2022-12-14	22:05:48	22:16:31	639115	5e544727059e3744ccdd4c3b	205395826	1	main_slash	11	main_slash	103	stimuli_target_diamondcircles.svg	stimuli_distractor_diamondtriangles.svg	23	yes	53	1	592
6.6.1	win	2022-12-14	22:05:48	22:16:31	639115	5e544727059e3744ccdd4c3b	205395826	1	main_slash	11	advance_on_keypress_SLASH	104	stimuli_target_diamondcircles.svg	stimuli_distractor_diamondtriangles.svg	23	yes	57	0	132
6.6.1	win	2022-12-14	22:05:48	22:16:34	641888	5e544727059e3744ccdd4c3b	205395826	1	main_slash	11	main_slash	105	stimuli_distractor_diamondtriangles.svg	stimuli_distractor_diamondtriangles.svg	40	no	0	1	2000
6.6.1	win	2022-12-14	22:05:48	22:16:34	641888	5e544727059e3744ccdd4c3b	205395826	1	main_slash	11	advance_on_keypress_SLASH	106	stimuli_distractor_diamondtriangles.svg	stimuli_distractor_diamondtriangles.svg	40	no	57	0	554
6.6.1	win	2022-12-14	22:05:48	22:16:36	643593	5e544727059e3744ccdd4c3b	205395826	1	main_slash	11	main_slash	107	stimuli_target_circlediamonds.svg	stimuli_distractor_diamondtriangles.svg	6	yes	53	1	504
6.6.1	win	2022-12-14	22:05:48	22:16:36	643593	5e544727059e3744ccdd4c3b	205395826	1	main_slash	11	advance_on_keypress_SLASH	108	stimuli_target_circlediamonds.svg	stimuli_distractor_diamondtriangles.svg	6	yes	57	0	240
6.6.1	win	2022-12-14	22:05:48	22:16:37	644981	5e544727059e3744ccdd4c3b	205395826	1	main_slash	11	main_slash	109	stimuli_target_squaretriangles.svg	stimuli_distractor_diamondtriangles.svg	7	yes	53	1	511
6.6.1	win	2022-12-14	22:05:48	22:16:37	644981	5e544727059e3744ccdd4c3b	205395826	1	main_slash	11	advance_on_keypress_SLASH	110	stimuli_target_squaretriangles.svg	stimuli_distractor_diamondtriangles.svg	7	yes	57	0	159
6.6.1	win	2022-12-14	22:05:48	22:16:38	646463	5e544727059e3744ccdd4c3b	205395826	1	main_slash	11	main_slash	111	stimuli_target_diamondsquares.svg	stimuli_distractor_diamondtriangles.svg	24	yes	53	1	675
6.6.1	win	2022-12-14	22:05:48	22:16:38	646463	5e544727059e3744ccdd4c3b	205395826	1	main_slash	11	advance_on_keypress_SLASH	112	stimuli_target_diamondsquares.svg	stimuli_distractor_diamondtriangles.svg	24	yes	57	0	1155
6.6.1	win	2022-12-14	22:05:48	22:16:41	648826	5e544727059e3744ccdd4c3b	205395826	1	main_slash	11	main_slash	113	stimuli_distractor_trianglediamonds.svg	stimuli_target_diamondsquares.svg	28	yes	53	1	572
6.6.1	win	2022-12-14	22:05:48	22:16:41	648826	5e544727059e3744ccdd4c3b	205395826	1	main_slash	11	advance_on_keypress_SLASH	114	stimuli_distractor_trianglediamonds.svg	stimuli_target_diamondsquares.svg	28	yes	57	0	188
6.6.1	win	2022-12-14	22:05:48	22:16:42	650078	5e544727059e3744ccdd4c3b	205395826	1	main_slash	11	main_slash	115	stimuli_target_squarediamonds.svg	stimuli_distractor_diamondtriangles.svg	8	yes	53	1	423
6.6.1	win	2022-12-14	22:05:48	22:16:42	650078	5e544727059e3744ccdd4c3b	205395826	1	main_slash	11	advance_on_keypress_SLASH	116	stimuli_target_squarediamonds.svg	stimuli_distractor_diamondtriangles.svg	8	yes	57	0	484
6.6.1	win	2022-12-14	22:05:48	22:16:44	651629	5e544727059e3744ccdd4c3b	205395826	1	main_slash	11	main_slash	117	stimuli_distractor_trianglediamonds.svg	stimuli_target_trianglesquares.svg	26	yes	53	1	424
6.6.1	win	2022-12-14	22:05:48	22:16:44	651629	5e544727059e3744ccdd4c3b	205395826	1	main_slash	11	advance_on_keypress_SLASH	118	stimuli_distractor_trianglediamonds.svg	stimuli_target_trianglesquares.svg	26	yes	57	0	170
6.6.1	win	2022-12-14	22:05:48	22:16:45	652759	5e544727059e3744ccdd4c3b	205395826	1	main_slash	11	main_slash	119	stimuli_distractor_diamondtriangles.svg	stimuli_target_trianglesquares.svg	30	yes	53	1	323
6.6.1	win	2022-12-14	22:05:48	22:16:45	652759	5e544727059e3744ccdd4c3b	205395826	1	main_slash	11	advance_on_keypress_SLASH	120	stimuli_distractor_diamondtriangles.svg	stimuli_target_trianglesquares.svg	30	yes	57	0	173
6.6.1	win	2022-12-14	22:05:48	22:16:46	654031	5e544727059e3744ccdd4c3b	205395826	1	main_slash	11	main_slash	121	stimuli_distractor_trianglediamonds.svg	stimuli_target_trianglecircles.svg	25	yes	53	1	461
6.6.1	win	2022-12-14	22:05:48	22:16:46	654031	5e544727059e3744ccdd4c3b	205395826	1	main_slash	11	advance_on_keypress_SLASH	122	stimuli_distractor_trianglediamonds.svg	stimuli_target_trianglecircles.svg	25	yes	57	0	228
6.6.1	win	2022-12-14	22:05:48	22:16:49	656903	5e544727059e3744ccdd4c3b	205395826	1	main_slash	11	main_slash	123	stimuli_target_circletriangles.svg	stimuli_distractor_diamondtriangles.svg	5	yes	0	0	2000
6.6.1	win	2022-12-14	22:05:48	22:16:49	656903	5e544727059e3744ccdd4c3b	205395826	1	main_slash	11	advance_on_keypress_SLASH	124	stimuli_target_circletriangles.svg	stimuli_distractor_diamondtriangles.svg	5	yes	57	0	845
6.6.1	win	2022-12-14	22:05:48	22:16:52	660403	5e544727059e3744ccdd4c3b	205395826	1	main_slash	11	main_slash	125	stimuli_distractor_trianglediamonds.svg	stimuli_distractor_trianglediamonds.svg	33	no	0	1	2000
6.6.1	win	2022-12-14	22:05:48	22:16:52	660403	5e544727059e3744ccdd4c3b	205395826	1	main_slash	11	advance_on_keypress_SLASH	126	stimuli_distractor_trianglediamonds.svg	stimuli_distractor_trianglediamonds.svg	33	no	57	0	396
6.6.1	win	2022-12-14	22:05:48	22:16:54	661908	5e544727059e3744ccdd4c3b	205395826	1	main_slash	11	main_slash	127	stimuli_target_diamondsquares.svg	stimuli_distractor_trianglediamonds.svg	20	yes	53	1	455
6.6.1	win	2022-12-14	22:05:48	22:16:54	661908	5e544727059e3744ccdd4c3b	205395826	1	main_slash	11	advance_on_keypress_SLASH	128	stimuli_target_diamondsquares.svg	stimuli_distractor_trianglediamonds.svg	20	yes	57	0	353
6.6.1	win	2022-12-14	22:05:48	22:16:55	663308	5e544727059e3744ccdd4c3b	205395826	1	main_slash	11	main_slash	129	stimuli_distractor_diamondtriangles.svg	stimuli_target_diamondcircles.svg	31	yes	53	1	407
6.6.1	win	2022-12-14	22:05:48	22:16:55	663308	5e544727059e3744ccdd4c3b	205395826	1	main_slash	11	advance_on_keypress_SLASH	130	stimuli_distractor_diamondtriangles.svg	stimuli_target_diamondcircles.svg	31	yes	57	0	214
6.6.1	win	2022-12-14	22:05:48	22:16:57	664606	5e544727059e3744ccdd4c3b	205395826	1	main_slash	11	main_slash	131	stimuli_target_trianglecircles.svg	stimuli_distractor_trianglediamonds.svg	17	yes	53	1	437
6.6.1	win	2022-12-14	22:05:48	22:16:57	664606	5e544727059e3744ccdd4c3b	205395826	1	main_slash	11	advance_on_keypress_SLASH	132	stimuli_target_trianglecircles.svg	stimuli_distractor_trianglediamonds.svg	17	yes	57	0	190
6.6.1	win	2022-12-14	22:05:48	22:16:58	665950	5e544727059e3744ccdd4c3b	205395826	1	main_slash	11	main_slash	133	stimuli_distractor_diamondtriangles.svg	stimuli_distractor_trianglediamonds.svg	38	no	53	0	515
6.6.1	win	2022-12-14	22:05:48	22:16:58	665950	5e544727059e3744ccdd4c3b	205395826	1	main_slash	11	advance_on_keypress_SLASH	134	stimuli_distractor_diamondtriangles.svg	stimuli_distractor_trianglediamonds.svg	38	no	57	0	176
6.6.1	win	2022-12-14	22:05:48	22:16:59	667322	5e544727059e3744ccdd4c3b	205395826	1	main_slash	11	main_slash	135	stimuli_target_squaretriangles.svg	stimuli_distractor_trianglediamonds.svg	3	yes	53	1	554
6.6.1	win	2022-12-14	22:05:48	22:16:59	667322	5e544727059e3744ccdd4c3b	205395826	1	main_slash	11	advance_on_keypress_SLASH	136	stimuli_target_squaretriangles.svg	stimuli_distractor_trianglediamonds.svg	3	yes	57	0	176
6.6.1	win	2022-12-14	22:05:48	22:17:02	670135	5e544727059e3744ccdd4c3b	205395826	1	main_slash	11	main_slash	137	stimuli_distractor_diamondtriangles.svg	stimuli_distractor_trianglediamonds.svg	37	no	0	1	2000
6.6.1	win	2022-12-14	22:05:48	22:17:02	670135	5e544727059e3744ccdd4c3b	205395826	1	main_slash	11	advance_on_keypress_SLASH	138	stimuli_distractor_diamondtriangles.svg	stimuli_distractor_trianglediamonds.svg	37	no	57	0	606
6.6.1	win	2022-12-14	22:05:48	22:17:04	671799	5e544727059e3744ccdd4c3b	205395826	1	main_slash	11	main_slash	139	stimuli_distractor_trianglediamonds.svg	stimuli_target_diamondcircles.svg	27	yes	53	1	414
6.6.1	win	2022-12-14	22:05:48	22:17:04	671799	5e544727059e3744ccdd4c3b	205395826	1	main_slash	11	advance_on_keypress_SLASH	140	stimuli_distractor_trianglediamonds.svg	stimuli_target_diamondcircles.svg	27	yes	57	0	250
6.6.1	win	2022-12-14	22:05:48	22:17:05	673050	5e544727059e3744ccdd4c3b	205395826	1	main_slash	11	main_slash	141	stimuli_target_trianglesquares.svg	stimuli_distractor_diamondtriangles.svg	22	yes	53	1	349
6.6.1	win	2022-12-14	22:05:48	22:17:05	673050	5e544727059e3744ccdd4c3b	205395826	1	main_slash	11	advance_on_keypress_SLASH	142	stimuli_target_trianglesquares.svg	stimuli_distractor_diamondtriangles.svg	22	yes	57	0	167
6.6.1	win	2022-12-14	22:05:48	22:17:08	675868	5e544727059e3744ccdd4c3b	205395826	1	main_slash	11	main_slash	143	stimuli_distractor_trianglediamonds.svg	stimuli_distractor_trianglediamonds.svg	34	no	0	1	2000
6.6.1	win	2022-12-14	22:05:48	22:17:08	675868	5e544727059e3744ccdd4c3b	205395826	1	main_slash	11	advance_on_keypress_SLASH	144	stimuli_distractor_trianglediamonds.svg	stimuli_distractor_trianglediamonds.svg	34	no	57	0	406
6.6.1	win	2022-12-14	22:05:48	22:17:09	677477	5e544727059e3744ccdd4c3b	205395826	1	main_slash	11	main_slash	145	stimuli_target_trianglecircles.svg	stimuli_distractor_diamondtriangles.svg	21	yes	53	1	560
6.6.1	win	2022-12-14	22:05:48	22:17:09	677477	5e544727059e3744ccdd4c3b	205395826	1	main_slash	11	advance_on_keypress_SLASH	146	stimuli_target_trianglecircles.svg	stimuli_distractor_diamondtriangles.svg	21	yes	57	0	382
6.6.1	win	2022-12-14	22:05:48	22:17:11	678918	5e544727059e3744ccdd4c3b	205395826	1	main_slash	11	main_slash	147	stimuli_target_trianglesquares.svg	stimuli_distractor_trianglediamonds.svg	18	yes	53	1	418
6.6.1	win	2022-12-14	22:05:48	22:17:11	678918	5e544727059e3744ccdd4c3b	205395826	1	main_slash	11	advance_on_keypress_SLASH	148	stimuli_target_trianglesquares.svg	stimuli_distractor_trianglediamonds.svg	18	yes	57	0	175
6.6.1	win	2022-12-14	22:05:48	22:17:14	681733	5e544727059e3744ccdd4c3b	205395826	1	main_slash	11	main_slash	149	stimuli_distractor_diamondtriangles.svg	stimuli_distractor_diamondtriangles.svg	39	no	0	1	2000
6.6.1	win	2022-12-14	22:05:48	22:17:14	681733	5e544727059e3744ccdd4c3b	205395826	1	main_slash	11	advance_on_keypress_SLASH	150	stimuli_distractor_diamondtriangles.svg	stimuli_distractor_diamondtriangles.svg	39	no	57	0	499
6.6.1	win	2022-12-14	22:05:48	22:17:17	684883	5e544727059e3744ccdd4c3b	205395826	1	main_slash	11	main_slash	151	stimuli_distractor_trianglediamonds.svg	stimuli_distractor_diamondtriangles.svg	35	no	0	1	2000
6.6.1	win	2022-12-14	22:05:48	22:17:17	684883	5e544727059e3744ccdd4c3b	205395826	1	main_slash	11	advance_on_keypress_SLASH	152	stimuli_distractor_trianglediamonds.svg	stimuli_distractor_diamondtriangles.svg	35	no	57	0	366
6.6.1	win	2022-12-14	22:05:48	22:17:19	686502	5e544727059e3744ccdd4c3b	205395826	1	main_slash	11	main_slash	153	stimuli_distractor_diamondtriangles.svg	stimuli_target_squarediamonds.svg	16	yes	53	1	602
6.6.1	win	2022-12-14	22:05:48	22:17:19	686502	5e544727059e3744ccdd4c3b	205395826	1	main_slash	11	advance_on_keypress_SLASH	154	stimuli_distractor_diamondtriangles.svg	stimuli_target_squarediamonds.svg	16	yes	57	0	415
6.6.1	win	2022-12-14	22:05:48	22:17:20	688018	5e544727059e3744ccdd4c3b	205395826	1	main_slash	11	main_slash	155	stimuli_distractor_trianglediamonds.svg	stimuli_target_circletriangles.svg	9	yes	53	1	452
6.6.1	win	2022-12-14	22:05:48	22:17:20	688018	5e544727059e3744ccdd4c3b	205395826	1	main_slash	11	advance_on_keypress_SLASH	156	stimuli_distractor_trianglediamonds.svg	stimuli_target_circletriangles.svg	9	yes	57	0	220
6.6.1	win	2022-12-14	22:05:48	22:17:22	689922	5e544727059e3744ccdd4c3b	205395826	1	main_slash	11	main_slash	157	stimuli_target_diamondcircles.svg	stimuli_distractor_trianglediamonds.svg	19	yes	53	1	1039
6.6.1	win	2022-12-14	22:05:48	22:17:22	689922	5e544727059e3744ccdd4c3b	205395826	1	main_slash	11	advance_on_keypress_SLASH	158	stimuli_target_diamondcircles.svg	stimuli_distractor_trianglediamonds.svg	19	yes	57	0	739
6.6.1	win	2022-12-14	22:05:48	22:17:24	691653	5e544727059e3744ccdd4c3b	205395826	1	main_slash	11	main_slash	159	stimuli_distractor_diamondtriangles.svg	stimuli_target_trianglecircles.svg	29	yes	53	1	354
6.6.1	win	2022-12-14	22:05:48	22:17:24	691653	5e544727059e3744ccdd4c3b	205395826	1	main_slash	11	advance_on_keypress_SLASH	160	stimuli_distractor_diamondtriangles.svg	stimuli_target_trianglecircles.svg	29	yes	57	0	212