build	computer.platform	date	time	timestamp	time_elapsed_ms	subject	group	session	blockcode	blocknum	trialcode	trialnum	stimulus_left	stimulus_right	stim_index	target_present	response	correct	latency
6.6.1	win	2022-12-24	13:06:33	13:08:43	128514	610021722370e2775864eb81	958235686	1	practice_z	5	practice_z	1	stimuli_distractor_diamondtriangles.svg	stimuli_target_trianglecircles.svg	9	yes	0	0	2003
6.6.1	win	2022-12-24	13:06:33	13:08:43	128514	610021722370e2775864eb81	958235686	1	practice_z	5	advance_on_keypress_ZEE	2	stimuli_distractor_diamondtriangles.svg	stimuli_target_trianglecircles.svg	9	yes	57	0	1478
6.6.1	win	2022-12-24	13:06:33	13:08:46	131826	610021722370e2775864eb81	958235686	1	practice_z	5	practice_z	3	stimuli_distractor_trianglediamonds.svg	stimuli_target_squarediamonds.svg	11	yes	44	1	210
6.6.1	win	2022-12-24	13:06:33	13:08:46	131826	610021722370e2775864eb81	958235686	1	practice_z	5	advance_on_keypress_ZEE	4	stimuli_distractor_trianglediamonds.svg	stimuli_target_squarediamonds.svg	11	yes	57	0	673
6.6.1	win	2022-12-24	13:06:33	13:08:49	134307	610021722370e2775864eb81	958235686	1	practice_z	5	practice_z	5	stimuli_target_diamondsquares.svg	stimuli_distractor_diamondtriangles.svg	3	yes	44	1	191
6.6.1	win	2022-12-24	13:06:33	13:08:49	134307	610021722370e2775864eb81	958235686	1	practice_z	5	advance_on_keypress_ZEE	6	stimuli_target_diamondsquares.svg	stimuli_distractor_diamondtriangles.svg	3	yes	57	0	274
6.6.1	win	2022-12-24	13:06:33	13:08:51	136408	610021722370e2775864eb81	958235686	1	practice_z	5	practice_z	7	stimuli_target_squarediamonds.svg	stimuli_distractor_trianglediamonds.svg	5	yes	44	1	208
6.6.1	win	2022-12-24	13:06:33	13:08:51	136408	610021722370e2775864eb81	958235686	1	practice_z	5	advance_on_keypress_ZEE	8	stimuli_target_squarediamonds.svg	stimuli_distractor_trianglediamonds.svg	5	yes	57	0	257
6.6.1	win	2022-12-24	13:06:33	13:08:53	138469	610021722370e2775864eb81	958235686	1	practice_z	5	practice_z	9	stimuli_distractor_diamondtriangles.svg	stimuli_target_diamondcircles.svg	8	yes	44	1	187
6.6.1	win	2022-12-24	13:06:33	13:08:53	138469	610021722370e2775864eb81	958235686	1	practice_z	5	advance_on_keypress_ZEE	10	stimuli_distractor_diamondtriangles.svg	stimuli_target_diamondcircles.svg	8	yes	57	0	279
6.6.1	win	2022-12-24	13:06:33	13:08:55	140550	610021722370e2775864eb81	958235686	1	practice_z	5	practice_z	11	stimuli_distractor_trianglediamonds.svg	stimuli_distractor_trianglediamonds.svg	15	no	44	0	184
6.6.1	win	2022-12-24	13:06:33	13:08:55	140550	610021722370e2775864eb81	958235686	1	practice_z	5	advance_on_keypress_ZEE	12	stimuli_distractor_trianglediamonds.svg	stimuli_distractor_trianglediamonds.svg	15	no	57	0	279
6.6.1	win	2022-12-24	13:06:33	13:08:57	142617	610021722370e2775864eb81	958235686	1	practice_z	5	practice_z	13	stimuli_target_diamondsquares.svg	stimuli_distractor_trianglediamonds.svg	6	yes	44	1	174
6.6.1	win	2022-12-24	13:06:33	13:08:57	142617	610021722370e2775864eb81	958235686	1	practice_z	5	advance_on_keypress_ZEE	14	stimuli_target_diamondsquares.svg	stimuli_distractor_trianglediamonds.svg	6	yes	57	0	277
6.6.1	win	2022-12-24	13:06:33	13:08:59	144670	610021722370e2775864eb81	958235686	1	practice_z	5	practice_z	15	stimuli_distractor_diamondtriangles.svg	stimuli_distractor_diamondtriangles.svg	13	no	44	0	157
6.6.1	win	2022-12-24	13:06:33	13:08:59	144670	610021722370e2775864eb81	958235686	1	practice_z	5	advance_on_keypress_ZEE	16	stimuli_distractor_diamondtriangles.svg	stimuli_distractor_diamondtriangles.svg	13	no	57	0	204
6.6.1	win	2022-12-24	13:06:33	13:09:01	146731	610021722370e2775864eb81	958235686	1	practice_z	5	practice_z	17	stimuli_distractor_trianglediamonds.svg	stimuli_distractor_diamondtriangles.svg	16	no	44	0	247
6.6.1	win	2022-12-24	13:06:33	13:09:01	146731	610021722370e2775864eb81	958235686	1	practice_z	5	advance_on_keypress_ZEE	18	stimuli_distractor_trianglediamonds.svg	stimuli_distractor_diamondtriangles.svg	16	no	57	0	216
6.6.1	win	2022-12-24	13:06:33	13:09:05	150565	610021722370e2775864eb81	958235686	1	practice_z	5	practice_z	19	stimuli_target_squarediamonds.svg	stimuli_distractor_diamondtriangles.svg	2	yes	0	0	2003
6.6.1	win	2022-12-24	13:06:33	13:09:05	150565	610021722370e2775864eb81	958235686	1	practice_z	5	advance_on_keypress_ZEE	20	stimuli_target_squarediamonds.svg	stimuli_distractor_diamondtriangles.svg	2	yes	57	0	333
6.6.1	win	2022-12-24	13:06:33	13:09:09	154517	610021722370e2775864eb81	958235686	1	practice_z	5	practice_z	21	stimuli_distractor_trianglediamonds.svg	stimuli_target_diamondcircles.svg	12	yes	0	0	2003
6.6.1	win	2022-12-24	13:06:33	13:09:09	154517	610021722370e2775864eb81	958235686	1	practice_z	5	advance_on_keypress_ZEE	22	stimuli_distractor_trianglediamonds.svg	stimuli_target_diamondcircles.svg	12	yes	57	0	765
6.6.1	win	2022-12-24	13:06:33	13:09:12	157092	610021722370e2775864eb81	958235686	1	practice_z	5	practice_z	23	stimuli_target_circlediamonds.svg	stimuli_distractor_diamondtriangles.svg	1	yes	44	1	196
6.6.1	win	2022-12-24	13:06:33	13:09:12	157092	610021722370e2775864eb81	958235686	1	practice_z	5	advance_on_keypress_ZEE	24	stimuli_target_circlediamonds.svg	stimuli_distractor_diamondtriangles.svg	1	yes	57	0	267
6.6.1	win	2022-12-24	13:06:33	13:09:14	159157	610021722370e2775864eb81	958235686	1	practice_z	5	practice_z	25	stimuli_target_circlediamonds.svg	stimuli_distractor_trianglediamonds.svg	4	yes	44	1	185
6.6.1	win	2022-12-24	13:06:33	13:09:14	159157	610021722370e2775864eb81	958235686	1	practice_z	5	advance_on_keypress_ZEE	26	stimuli_target_circlediamonds.svg	stimuli_distractor_trianglediamonds.svg	4	yes	57	0	297
6.6.1	win	2022-12-24	13:06:33	13:09:16	161600	610021722370e2775864eb81	958235686	1	practice_z	5	practice_z	27	stimuli_distractor_diamondtriangles.svg	stimuli_target_circletriangles.svg	7	yes	44	1	529
6.6.1	win	2022-12-24	13:06:33	13:09:16	161600	610021722370e2775864eb81	958235686	1	practice_z	5	advance_on_keypress_ZEE	28	stimuli_distractor_diamondtriangles.svg	stimuli_target_circletriangles.svg	7	yes	57	0	477
6.6.1	win	2022-12-24	13:06:33	13:09:20	165699	610021722370e2775864eb81	958235686	1	practice_z	5	practice_z	29	stimuli_distractor_diamondtriangles.svg	stimuli_distractor_trianglediamonds.svg	14	no	0	1	2003
6.6.1	win	2022-12-24	13:06:33	13:09:20	165699	610021722370e2775864eb81	958235686	1	practice_z	5	advance_on_keypress_ZEE	30	stimuli_distractor_diamondtriangles.svg	stimuli_distractor_trianglediamonds.svg	14	no	57	0	277
6.6.1	win	2022-12-24	13:06:33	13:09:22	168005	610021722370e2775864eb81	958235686	1	practice_z	5	practice_z	31	stimuli_distractor_trianglediamonds.svg	stimuli_target_circlediamonds.svg	10	yes	44	1	414
6.6.1	win	2022-12-24	13:06:33	13:09:22	168005	610021722370e2775864eb81	958235686	1	practice_z	5	advance_on_keypress_ZEE	32	stimuli_distractor_trianglediamonds.svg	stimuli_target_circlediamonds.svg	10	yes	57	0	226
6.6.1	win	2022-12-24	13:06:33	13:09:35	180195	610021722370e2775864eb81	958235686	1	main_z	7	main_z	1	stimuli_distractor_diamondtriangles.svg	stimuli_distractor_diamondtriangles.svg	40	no	44	0	865
6.6.1	win	2022-12-24	13:06:33	13:09:35	180195	610021722370e2775864eb81	958235686	1	main_z	7	advance_on_keypress_ZEE	2	stimuli_distractor_diamondtriangles.svg	stimuli_distractor_diamondtriangles.svg	40	no	57	0	1216
6.6.1	win	2022-12-24	13:06:33	13:09:38	183292	610021722370e2775864eb81	958235686	1	main_z	7	main_z	3	stimuli_distractor_trianglediamonds.svg	stimuli_target_diamondcircles.svg	27	yes	44	1	1262
6.6.1	win	2022-12-24	13:06:33	13:09:38	183292	610021722370e2775864eb81	958235686	1	main_z	7	advance_on_keypress_ZEE	4	stimuli_distractor_trianglediamonds.svg	stimuli_target_diamondcircles.svg	27	yes	57	0	562
6.6.1	win	2022-12-24	13:06:33	13:09:41	186472	610021722370e2775864eb81	958235686	1	main_z	7	main_z	5	stimuli_distractor_diamondtriangles.svg	stimuli_distractor_trianglediamonds.svg	38	no	0	1	2003
6.6.1	win	2022-12-24	13:06:33	13:09:41	186472	610021722370e2775864eb81	958235686	1	main_z	7	advance_on_keypress_ZEE	6	stimuli_distractor_diamondtriangles.svg	stimuli_distractor_trianglediamonds.svg	38	no	57	0	472
6.6.1	win	2022-12-24	13:06:33	13:09:44	189563	610021722370e2775864eb81	958235686	1	main_z	7	main_z	7	stimuli_distractor_diamondtriangles.svg	stimuli_distractor_diamondtriangles.svg	39	no	0	1	2003
6.6.1	win	2022-12-24	13:06:33	13:09:44	189563	610021722370e2775864eb81	958235686	1	main_z	7	advance_on_keypress_ZEE	8	stimuli_distractor_diamondtriangles.svg	stimuli_distractor_diamondtriangles.svg	39	no	57	0	401
6.6.1	win	2022-12-24	13:06:33	13:09:46	191146	610021722370e2775864eb81	958235686	1	main_z	7	main_z	9	stimuli_target_squarediamonds.svg	stimuli_distractor_diamondtriangles.svg	8	yes	44	1	573
6.6.1	win	2022-12-24	13:06:33	13:09:46	191146	610021722370e2775864eb81	958235686	1	main_z	7	advance_on_keypress_ZEE	10	stimuli_target_squarediamonds.svg	stimuli_distractor_diamondtriangles.svg	8	yes	57	0	679
6.6.1	win	2022-12-24	13:06:33	13:09:48	193052	610021722370e2775864eb81	958235686	1	main_z	7	main_z	11	stimuli_distractor_diamondtriangles.svg	stimuli_target_trianglecircles.svg	29	yes	44	1	610
6.6.1	win	2022-12-24	13:06:33	13:09:48	193052	610021722370e2775864eb81	958235686	1	main_z	7	advance_on_keypress_ZEE	12	stimuli_distractor_diamondtriangles.svg	stimuli_target_trianglecircles.svg	29	yes	57	0	510
6.6.1	win	2022-12-24	13:06:33	13:09:50	195224	610021722370e2775864eb81	958235686	1	main_z	7	main_z	13	stimuli_distractor_diamondtriangles.svg	stimuli_target_trianglesquares.svg	30	yes	44	1	1045
6.6.1	win	2022-12-24	13:06:33	13:09:50	195224	610021722370e2775864eb81	958235686	1	main_z	7	advance_on_keypress_ZEE	14	stimuli_distractor_diamondtriangles.svg	stimuli_target_trianglesquares.svg	30	yes	57	0	442
6.6.1	win	2022-12-24	13:06:33	13:09:51	196899	610021722370e2775864eb81	958235686	1	main_z	7	main_z	15	stimuli_target_trianglesquares.svg	stimuli_distractor_trianglediamonds.svg	18	yes	44	1	616
6.6.1	win	2022-12-24	13:06:33	13:09:51	196899	610021722370e2775864eb81	958235686	1	main_z	7	advance_on_keypress_ZEE	16	stimuli_target_trianglesquares.svg	stimuli_distractor_trianglediamonds.svg	18	yes	57	0	544
6.6.1	win	2022-12-24	13:06:33	13:09:55	200057	610021722370e2775864eb81	958235686	1	main_z	7	main_z	17	stimuli_distractor_trianglediamonds.svg	stimuli_distractor_trianglediamonds.svg	33	no	0	1	2003
6.6.1	win	2022-12-24	13:06:33	13:09:55	200057	610021722370e2775864eb81	958235686	1	main_z	7	advance_on_keypress_ZEE	18	stimuli_distractor_trianglediamonds.svg	stimuli_distractor_trianglediamonds.svg	33	no	57	0	249
6.6.1	win	2022-12-24	13:06:33	13:09:56	201513	610021722370e2775864eb81	958235686	1	main_z	7	main_z	19	stimuli_target_squaretriangles.svg	stimuli_distractor_trianglediamonds.svg	3	yes	44	1	591
6.6.1	win	2022-12-24	13:06:33	13:09:56	201513	610021722370e2775864eb81	958235686	1	main_z	7	advance_on_keypress_ZEE	20	stimuli_target_squaretriangles.svg	stimuli_distractor_trianglediamonds.svg	3	yes	57	0	623
6.6.1	win	2022-12-24	13:06:33	13:09:58	203353	610021722370e2775864eb81	958235686	1	main_z	7	main_z	21	stimuli_target_squaretriangles.svg	stimuli_distractor_diamondtriangles.svg	7	yes	44	1	597
6.6.1	win	2022-12-24	13:06:33	13:09:58	203353	610021722370e2775864eb81	958235686	1	main_z	7	advance_on_keypress_ZEE	22	stimuli_target_squaretriangles.svg	stimuli_distractor_diamondtriangles.svg	7	yes	57	0	428
6.6.1	win	2022-12-24	13:06:33	13:10:00	205286	610021722370e2775864eb81	958235686	1	main_z	7	main_z	23	stimuli_distractor_trianglediamonds.svg	stimuli_target_trianglesquares.svg	26	yes	44	1	891
6.6.1	win	2022-12-24	13:06:33	13:10:00	205286	610021722370e2775864eb81	958235686	1	main_z	7	advance_on_keypress_ZEE	24	stimuli_distractor_trianglediamonds.svg	stimuli_target_trianglesquares.svg	26	yes	57	0	360
6.6.1	win	2022-12-24	13:06:33	13:10:02	207081	610021722370e2775864eb81	958235686	1	main_z	7	main_z	25	stimuli_distractor_trianglediamonds.svg	stimuli_target_trianglecircles.svg	25	yes	44	1	819
6.6.1	win	2022-12-24	13:06:33	13:10:02	207081	610021722370e2775864eb81	958235686	1	main_z	7	advance_on_keypress_ZEE	26	stimuli_distractor_trianglediamonds.svg	stimuli_target_trianglecircles.svg	25	yes	57	0	471
6.6.1	win	2022-12-24	13:06:33	13:10:03	208870	610021722370e2775864eb81	958235686	1	main_z	7	main_z	27	stimuli_target_diamondsquares.svg	stimuli_distractor_diamondtriangles.svg	24	yes	44	1	697
6.6.1	win	2022-12-24	13:06:33	13:10:03	208870	610021722370e2775864eb81	958235686	1	main_z	7	advance_on_keypress_ZEE	28	stimuli_target_diamondsquares.svg	stimuli_distractor_diamondtriangles.svg	24	yes	57	0	465
6.6.1	win	2022-12-24	13:06:33	13:10:05	210510	610021722370e2775864eb81	958235686	1	main_z	7	main_z	29	stimuli_target_diamondsquares.svg	stimuli_distractor_trianglediamonds.svg	20	yes	44	1	560
6.6.1	win	2022-12-24	13:06:33	13:10:05	210510	610021722370e2775864eb81	958235686	1	main_z	7	advance_on_keypress_ZEE	30	stimuli_target_diamondsquares.svg	stimuli_distractor_trianglediamonds.svg	20	yes	57	0	347
6.6.1	win	2022-12-24	13:06:33	13:10:06	212027	610021722370e2775864eb81	958235686	1	main_z	7	main_z	31	stimuli_distractor_trianglediamonds.svg	stimuli_target_diamondsquares.svg	28	yes	44	1	554
6.6.1	win	2022-12-24	13:06:33	13:10:06	212027	610021722370e2775864eb81	958235686	1	main_z	7	advance_on_keypress_ZEE	32	stimuli_distractor_trianglediamonds.svg	stimuli_target_diamondsquares.svg	28	yes	57	0	309
6.6.1	win	2022-12-24	13:06:33	13:10:08	213801	610021722370e2775864eb81	958235686	1	main_z	7	main_z	33	stimuli_target_diamondcircles.svg	stimuli_distractor_diamondtriangles.svg	23	yes	44	1	849
6.6.1	win	2022-12-24	13:06:33	13:10:08	213801	610021722370e2775864eb81	958235686	1	main_z	7	advance_on_keypress_ZEE	34	stimuli_target_diamondcircles.svg	stimuli_distractor_diamondtriangles.svg	23	yes	57	0	620
6.6.1	win	2022-12-24	13:06:33	13:10:10	215563	610021722370e2775864eb81	958235686	1	main_z	7	main_z	35	stimuli_target_circletriangles.svg	stimuli_distractor_trianglediamonds.svg	1	yes	44	1	525
6.6.1	win	2022-12-24	13:06:33	13:10:10	215563	610021722370e2775864eb81	958235686	1	main_z	7	advance_on_keypress_ZEE	36	stimuli_target_circletriangles.svg	stimuli_distractor_trianglediamonds.svg	1	yes	57	0	466
6.6.1	win	2022-12-24	13:06:33	13:10:12	217333	610021722370e2775864eb81	958235686	1	main_z	7	main_z	37	stimuli_target_diamondcircles.svg	stimuli_distractor_trianglediamonds.svg	19	yes	44	1	687
6.6.1	win	2022-12-24	13:06:33	13:10:12	217333	610021722370e2775864eb81	958235686	1	main_z	7	advance_on_keypress_ZEE	38	stimuli_target_diamondcircles.svg	stimuli_distractor_trianglediamonds.svg	19	yes	57	0	319
6.6.1	win	2022-12-24	13:06:33	13:10:14	219293	610021722370e2775864eb81	958235686	1	main_z	7	main_z	39	stimuli_distractor_diamondtriangles.svg	stimuli_target_circlediamonds.svg	14	yes	44	1	1022
6.6.1	win	2022-12-24	13:06:33	13:10:14	219293	610021722370e2775864eb81	958235686	1	main_z	7	advance_on_keypress_ZEE	40	stimuli_distractor_diamondtriangles.svg	stimuli_target_circlediamonds.svg	14	yes	57	0	398
6.6.1	win	2022-12-24	13:06:33	13:10:17	222309	610021722370e2775864eb81	958235686	1	main_z	7	main_z	41	stimuli_distractor_trianglediamonds.svg	stimuli_distractor_diamondtriangles.svg	36	no	0	1	2003
6.6.1	win	2022-12-24	13:06:33	13:10:17	222309	610021722370e2775864eb81	958235686	1	main_z	7	advance_on_keypress_ZEE	42	stimuli_distractor_trianglediamonds.svg	stimuli_distractor_diamondtriangles.svg	36	no	57	0	246
6.6.1	win	2022-12-24	13:06:33	13:10:18	223679	610021722370e2775864eb81	958235686	1	main_z	7	main_z	43	stimuli_distractor_diamondtriangles.svg	stimuli_target_diamondsquares.svg	32	yes	44	1	511
6.6.1	win	2022-12-24	13:06:33	13:10:18	223679	610021722370e2775864eb81	958235686	1	main_z	7	advance_on_keypress_ZEE	44	stimuli_distractor_diamondtriangles.svg	stimuli_target_diamondsquares.svg	32	yes	57	0	368
6.6.1	win	2022-12-24	13:06:33	13:10:20	225833	610021722370e2775864eb81	958235686	1	main_z	7	main_z	45	stimuli_distractor_trianglediamonds.svg	stimuli_distractor_diamondtriangles.svg	35	no	44	0	1173
6.6.1	win	2022-12-24	13:06:33	13:10:20	225833	610021722370e2775864eb81	958235686	1	main_z	7	advance_on_keypress_ZEE	46	stimuli_distractor_trianglediamonds.svg	stimuli_distractor_diamondtriangles.svg	35	no	57	0	392
6.6.1	win	2022-12-24	13:06:33	13:10:22	227528	610021722370e2775864eb81	958235686	1	main_z	7	main_z	47	stimuli_distractor_diamondtriangles.svg	stimuli_target_diamondcircles.svg	31	yes	44	1	687
6.6.1	win	2022-12-24	13:06:33	13:10:22	227528	610021722370e2775864eb81	958235686	1	main_z	7	advance_on_keypress_ZEE	48	stimuli_distractor_diamondtriangles.svg	stimuli_target_diamondcircles.svg	31	yes	57	0	316
6.6.1	win	2022-12-24	13:06:33	13:10:24	229404	610021722370e2775864eb81	958235686	1	main_z	7	main_z	49	stimuli_distractor_trianglediamonds.svg	stimuli_target_squaretriangles.svg	11	yes	44	1	944
6.6.1	win	2022-12-24	13:06:33	13:10:24	229404	610021722370e2775864eb81	958235686	1	main_z	7	advance_on_keypress_ZEE	50	stimuli_distractor_trianglediamonds.svg	stimuli_target_squaretriangles.svg	11	yes	57	0	334
6.6.1	win	2022-12-24	13:06:33	13:10:26	231239	610021722370e2775864eb81	958235686	1	main_z	7	main_z	51	stimuli_distractor_diamondtriangles.svg	stimuli_target_squarediamonds.svg	16	yes	44	1	882
6.6.1	win	2022-12-24	13:06:33	13:10:26	231239	610021722370e2775864eb81	958235686	1	main_z	7	advance_on_keypress_ZEE	52	stimuli_distractor_diamondtriangles.svg	stimuli_target_squarediamonds.svg	16	yes	57	0	354
6.6.1	win	2022-12-24	13:06:33	13:10:28	233371	610021722370e2775864eb81	958235686	1	main_z	7	main_z	53	stimuli_target_circlediamonds.svg	stimuli_distractor_diamondtriangles.svg	6	yes	44	1	1160
6.6.1	win	2022-12-24	13:06:33	13:10:28	233371	610021722370e2775864eb81	958235686	1	main_z	7	advance_on_keypress_ZEE	54	stimuli_target_circlediamonds.svg	stimuli_distractor_diamondtriangles.svg	6	yes	57	0	403
6.6.1	win	2022-12-24	13:06:33	13:10:31	236394	610021722370e2775864eb81	958235686	1	main_z	7	main_z	55	stimuli_target_circletriangles.svg	stimuli_distractor_diamondtriangles.svg	5	yes	0	0	2003
6.6.1	win	2022-12-24	13:06:33	13:10:31	236394	610021722370e2775864eb81	958235686	1	main_z	7	advance_on_keypress_ZEE	56	stimuli_target_circletriangles.svg	stimuli_distractor_diamondtriangles.svg	5	yes	57	0	244
6.6.1	win	2022-12-24	13:06:33	13:10:33	238399	610021722370e2775864eb81	958235686	1	main_z	7	main_z	57	stimuli_distractor_trianglediamonds.svg	stimuli_distractor_trianglediamonds.svg	34	no	44	0	1147
6.6.1	win	2022-12-24	13:06:33	13:10:33	238399	610021722370e2775864eb81	958235686	1	main_z	7	advance_on_keypress_ZEE	58	stimuli_distractor_trianglediamonds.svg	stimuli_distractor_trianglediamonds.svg	34	no	57	0	290
6.6.1	win	2022-12-24	13:06:33	13:10:35	240613	610021722370e2775864eb81	958235686	1	main_z	7	main_z	59	stimuli_distractor_trianglediamonds.svg	stimuli_target_circletriangles.svg	9	yes	44	1	1304
6.6.1	win	2022-12-24	13:06:33	13:10:35	240613	610021722370e2775864eb81	958235686	1	main_z	7	advance_on_keypress_ZEE	60	stimuli_distractor_trianglediamonds.svg	stimuli_target_circletriangles.svg	9	yes	57	0	378
6.6.1	win	2022-12-24	13:06:33	13:10:37	242283	610021722370e2775864eb81	958235686	1	main_z	7	main_z	61	stimuli_target_squarediamonds.svg	stimuli_distractor_trianglediamonds.svg	4	yes	44	1	676
6.6.1	win	2022-12-24	13:06:33	13:10:37	242283	610021722370e2775864eb81	958235686	1	main_z	7	advance_on_keypress_ZEE	62	stimuli_target_squarediamonds.svg	stimuli_distractor_trianglediamonds.svg	4	yes	57	0	348
6.6.1	win	2022-12-24	13:06:33	13:10:39	244301	610021722370e2775864eb81	958235686	1	main_z	7	main_z	63	stimuli_target_trianglesquares.svg	stimuli_distractor_diamondtriangles.svg	22	yes	44	1	1055
6.6.1	win	2022-12-24	13:06:33	13:10:39	244301	610021722370e2775864eb81	958235686	1	main_z	7	advance_on_keypress_ZEE	64	stimuli_target_trianglesquares.svg	stimuli_distractor_diamondtriangles.svg	22	yes	57	0	209
6.6.1	win	2022-12-24	13:06:33	13:10:40	246015	610021722370e2775864eb81	958235686	1	main_z	7	main_z	65	stimuli_distractor_diamondtriangles.svg	stimuli_distractor_trianglediamonds.svg	37	no	44	0	887
6.6.1	win	2022-12-24	13:06:33	13:10:40	246015	610021722370e2775864eb81	958235686	1	main_z	7	advance_on_keypress_ZEE	66	stimuli_distractor_diamondtriangles.svg	stimuli_distractor_trianglediamonds.svg	37	no	57	0	455
6.6.1	win	2022-12-24	13:06:33	13:10:42	248012	610021722370e2775864eb81	958235686	1	main_z	7	main_z	67	stimuli_distractor_trianglediamonds.svg	stimuli_target_circlediamonds.svg	10	yes	44	1	931
6.6.1	win	2022-12-24	13:06:33	13:10:42	248012	610021722370e2775864eb81	958235686	1	main_z	7	advance_on_keypress_ZEE	68	stimuli_distractor_trianglediamonds.svg	stimuli_target_circlediamonds.svg	10	yes	57	0	638
6.6.1	win	2022-12-24	13:06:33	13:10:45	250141	610021722370e2775864eb81	958235686	1	main_z	7	main_z	69	stimuli_distractor_trianglediamonds.svg	stimuli_target_squarediamonds.svg	12	yes	44	1	872
6.6.1	win	2022-12-24	13:06:33	13:10:45	250141	610021722370e2775864eb81	958235686	1	main_z	7	advance_on_keypress_ZEE	70	stimuli_distractor_trianglediamonds.svg	stimuli_target_squarediamonds.svg	12	yes	57	0	278
6.6.1	win	2022-12-24	13:06:33	13:10:46	251911	610021722370e2775864eb81	958235686	1	main_z	7	main_z	71	stimuli_target_trianglecircles.svg	stimuli_distractor_trianglediamonds.svg	17	yes	44	1	879
6.6.1	win	2022-12-24	13:06:33	13:10:46	251911	610021722370e2775864eb81	958235686	1	main_z	7	advance_on_keypress_ZEE	72	stimuli_target_trianglecircles.svg	stimuli_distractor_trianglediamonds.svg	17	yes	57	0	293
6.6.1	win	2022-12-24	13:06:33	13:10:49	254820	610021722370e2775864eb81	958235686	1	main_z	7	main_z	73	stimuli_distractor_diamondtriangles.svg	stimuli_target_squaretriangles.svg	15	yes	0	0	2003
6.6.1	win	2022-12-24	13:06:33	13:10:49	254820	610021722370e2775864eb81	958235686	1	main_z	7	advance_on_keypress_ZEE	74	stimuli_distractor_diamondtriangles.svg	stimuli_target_squaretriangles.svg	15	yes	57	0	297
6.6.1	win	2022-12-24	13:06:33	13:10:51	256448	610021722370e2775864eb81	958235686	1	main_z	7	main_z	75	stimuli_distractor_diamondtriangles.svg	stimuli_target_circletriangles.svg	13	yes	44	1	713
6.6.1	win	2022-12-24	13:06:33	13:10:51	256448	610021722370e2775864eb81	958235686	1	main_z	7	advance_on_keypress_ZEE	76	stimuli_distractor_diamondtriangles.svg	stimuli_target_circletriangles.svg	13	yes	57	0	316
6.6.1	win	2022-12-24	13:06:33	13:10:54	259383	610021722370e2775864eb81	958235686	1	main_z	7	main_z	77	stimuli_target_trianglecircles.svg	stimuli_distractor_diamondtriangles.svg	21	yes	0	0	2003
6.6.1	win	2022-12-24	13:06:33	13:10:54	259383	610021722370e2775864eb81	958235686	1	main_z	7	advance_on_keypress_ZEE	78	stimuli_target_trianglecircles.svg	stimuli_distractor_diamondtriangles.svg	21	yes	57	0	257
6.6.1	win	2022-12-24	13:06:33	13:10:57	262259	610021722370e2775864eb81	958235686	1	main_z	7	main_z	79	stimuli_target_circlediamonds.svg	stimuli_distractor_trianglediamonds.svg	2	yes	0	0	2003
6.6.1	win	2022-12-24	13:06:33	13:10:57	262259	610021722370e2775864eb81	958235686	1	main_z	7	advance_on_keypress_ZEE	80	stimuli_target_circlediamonds.svg	stimuli_distractor_trianglediamonds.svg	2	yes	57	0	258
6.6.1	win	2022-12-24	13:06:33	13:10:59	264687	610021722370e2775864eb81	958235686	1	main_z	7	main_z	81	stimuli_target_squaretriangles.svg	stimuli_distractor_diamondtriangles.svg	7	yes	44	1	1557
6.6.1	win	2022-12-24	13:06:33	13:10:59	264687	610021722370e2775864eb81	958235686	1	main_z	7	advance_on_keypress_ZEE	82	stimuli_target_squaretriangles.svg	stimuli_distractor_diamondtriangles.svg	7	yes	57	0	270
6.6.1	win	2022-12-24	13:06:33	13:11:01	266466	610021722370e2775864eb81	958235686	1	main_z	7	main_z	83	stimuli_distractor_trianglediamonds.svg	stimuli_target_diamondcircles.svg	27	yes	44	1	890
6.6.1	win	2022-12-24	13:06:33	13:11:01	266466	610021722370e2775864eb81	958235686	1	main_z	7	advance_on_keypress_ZEE	84	stimuli_distractor_trianglediamonds.svg	stimuli_target_diamondcircles.svg	27	yes	57	0	399
6.6.1	win	2022-12-24	13:06:33	13:11:03	268409	610021722370e2775864eb81	958235686	1	main_z	7	main_z	85	stimuli_distractor_diamondtriangles.svg	stimuli_target_squaretriangles.svg	15	yes	44	1	931
6.6.1	win	2022-12-24	13:06:33	13:11:03	268409	610021722370e2775864eb81	958235686	1	main_z	7	advance_on_keypress_ZEE	86	stimuli_distractor_diamondtriangles.svg	stimuli_target_squaretriangles.svg	15	yes	57	0	401
6.6.1	win	2022-12-24	13:06:33	13:11:05	270526	610021722370e2775864eb81	958235686	1	main_z	7	main_z	87	stimuli_target_trianglecircles.svg	stimuli_distractor_trianglediamonds.svg	17	yes	44	1	1096
6.6.1	win	2022-12-24	13:06:33	13:11:05	270526	610021722370e2775864eb81	958235686	1	main_z	7	advance_on_keypress_ZEE	88	stimuli_target_trianglecircles.svg	stimuli_distractor_trianglediamonds.svg	17	yes	57	0	262
6.6.1	win	2022-12-24	13:06:33	13:11:07	272331	610021722370e2775864eb81	958235686	1	main_z	7	main_z	89	stimuli_target_squaretriangles.svg	stimuli_distractor_trianglediamonds.svg	3	yes	44	1	929
6.6.1	win	2022-12-24	13:06:33	13:11:07	272331	610021722370e2775864eb81	958235686	1	main_z	7	advance_on_keypress_ZEE	90	stimuli_target_squaretriangles.svg	stimuli_distractor_trianglediamonds.svg	3	yes	57	0	579
6.6.1	win	2022-12-24	13:06:33	13:11:09	274244	610021722370e2775864eb81	958235686	1	main_z	7	main_z	91	stimuli_distractor_trianglediamonds.svg	stimuli_target_trianglecircles.svg	25	yes	44	1	716
6.6.1	win	2022-12-24	13:06:33	13:11:09	274244	610021722370e2775864eb81	958235686	1	main_z	7	advance_on_keypress_ZEE	92	stimuli_distractor_trianglediamonds.svg	stimuli_target_trianglecircles.svg	25	yes	57	0	372
6.6.1	win	2022-12-24	13:06:33	13:11:10	276026	610021722370e2775864eb81	958235686	1	main_z	7	main_z	93	stimuli_distractor_diamondtriangles.svg	stimuli_target_diamondcircles.svg	31	yes	44	1	796
6.6.1	win	2022-12-24	13:06:33	13:11:10	276026	610021722370e2775864eb81	958235686	1	main_z	7	advance_on_keypress_ZEE	94	stimuli_distractor_diamondtriangles.svg	stimuli_target_diamondcircles.svg	31	yes	57	0	297
6.6.1	win	2022-12-24	13:06:33	13:11:13	278941	610021722370e2775864eb81	958235686	1	main_z	7	main_z	95	stimuli_distractor_diamondtriangles.svg	stimuli_distractor_trianglediamonds.svg	37	no	0	1	2003
6.6.1	win	2022-12-24	13:06:33	13:11:13	278941	610021722370e2775864eb81	958235686	1	main_z	7	advance_on_keypress_ZEE	96	stimuli_distractor_diamondtriangles.svg	stimuli_distractor_trianglediamonds.svg	37	no	57	0	261
6.6.1	win	2022-12-24	13:06:33	13:11:15	280408	610021722370e2775864eb81	958235686	1	main_z	7	main_z	97	stimuli_target_squarediamonds.svg	stimuli_distractor_diamondtriangles.svg	8	yes	44	1	595
6.6.1	win	2022-12-24	13:06:33	13:11:15	280408	610021722370e2775864eb81	958235686	1	main_z	7	advance_on_keypress_ZEE	98	stimuli_target_squarediamonds.svg	stimuli_distractor_diamondtriangles.svg	8	yes	57	0	228
6.6.1	win	2022-12-24	13:06:33	13:11:17	282370	610021722370e2775864eb81	958235686	1	main_z	7	main_z	99	stimuli_distractor_trianglediamonds.svg	stimuli_target_circletriangles.svg	9	yes	44	1	1118
6.6.1	win	2022-12-24	13:06:33	13:11:17	282370	610021722370e2775864eb81	958235686	1	main_z	7	advance_on_keypress_ZEE	100	stimuli_distractor_trianglediamonds.svg	stimuli_target_circletriangles.svg	9	yes	57	0	367
6.6.1	win	2022-12-24	13:06:33	13:11:18	283939	610021722370e2775864eb81	958235686	1	main_z	7	main_z	101	stimuli_distractor_trianglediamonds.svg	stimuli_target_circlediamonds.svg	10	yes	44	1	583
6.6.1	win	2022-12-24	13:06:33	13:11:18	283939	610021722370e2775864eb81	958235686	1	main_z	7	advance_on_keypress_ZEE	102	stimuli_distractor_trianglediamonds.svg	stimuli_target_circlediamonds.svg	10	yes	57	0	197
6.6.1	win	2022-12-24	13:06:33	13:11:20	285409	610021722370e2775864eb81	958235686	1	main_z	7	main_z	103	stimuli_distractor_diamondtriangles.svg	stimuli_target_squarediamonds.svg	16	yes	44	1	658
6.6.1	win	2022-12-24	13:06:33	13:11:20	285409	610021722370e2775864eb81	958235686	1	main_z	7	advance_on_keypress_ZEE	104	stimuli_distractor_diamondtriangles.svg	stimuli_target_squarediamonds.svg	16	yes	57	0	188
6.6.1	win	2022-12-24	13:06:33	13:11:23	288213	610021722370e2775864eb81	958235686	1	main_z	7	main_z	105	stimuli_distractor_trianglediamonds.svg	stimuli_distractor_trianglediamonds.svg	34	no	0	1	2003
6.6.1	win	2022-12-24	13:06:33	13:11:23	288213	610021722370e2775864eb81	958235686	1	main_z	7	advance_on_keypress_ZEE	106	stimuli_distractor_trianglediamonds.svg	stimuli_distractor_trianglediamonds.svg	34	no	57	0	356
6.6.1	win	2022-12-24	13:06:33	13:11:24	289900	610021722370e2775864eb81	958235686	1	main_z	7	main_z	107	stimuli_target_circletriangles.svg	stimuli_distractor_diamondtriangles.svg	5	yes	44	1	718
6.6.1	win	2022-12-24	13:06:33	13:11:24	289900	610021722370e2775864eb81	958235686	1	main_z	7	advance_on_keypress_ZEE	108	stimuli_target_circletriangles.svg	stimuli_distractor_diamondtriangles.svg	5	yes	57	0	259
6.6.1	win	2022-12-24	13:06:33	13:11:27	292776	610021722370e2775864eb81	958235686	1	main_z	7	main_z	109	stimuli_distractor_diamondtriangles.svg	stimuli_distractor_diamondtriangles.svg	39	no	0	1	2003
6.6.1	win	2022-12-24	13:06:33	13:11:27	292776	610021722370e2775864eb81	958235686	1	main_z	7	advance_on_keypress_ZEE	110	stimuli_distractor_diamondtriangles.svg	stimuli_distractor_diamondtriangles.svg	39	no	57	0	240
6.6.1	win	2022-12-24	13:06:33	13:11:30	295630	610021722370e2775864eb81	958235686	1	main_z	7	main_z	111	stimuli_distractor_trianglediamonds.svg	stimuli_distractor_diamondtriangles.svg	35	no	0	1	2003
6.6.1	win	2022-12-24	13:06:33	13:11:30	295630	610021722370e2775864eb81	958235686	1	main_z	7	advance_on_keypress_ZEE	112	stimuli_distractor_trianglediamonds.svg	stimuli_distractor_diamondtriangles.svg	35	no	57	0	275
6.6.1	win	2022-12-24	13:06:33	13:11:32	297493	610021722370e2775864eb81	958235686	1	main_z	7	main_z	113	stimuli_target_circlediamonds.svg	stimuli_distractor_diamondtriangles.svg	6	yes	44	1	977
6.6.1	win	2022-12-24	13:06:33	13:11:32	297493	610021722370e2775864eb81	958235686	1	main_z	7	advance_on_keypress_ZEE	114	stimuli_target_circlediamonds.svg	stimuli_distractor_diamondtriangles.svg	6	yes	57	0	275
6.6.1	win	2022-12-24	13:06:33	13:11:34	299403	610021722370e2775864eb81	958235686	1	main_z	7	main_z	115	stimuli_distractor_diamondtriangles.svg	stimuli_target_trianglecircles.svg	29	yes	44	1	1026
6.6.1	win	2022-12-24	13:06:33	13:11:34	299403	610021722370e2775864eb81	958235686	1	main_z	7	advance_on_keypress_ZEE	116	stimuli_distractor_diamondtriangles.svg	stimuli_target_trianglecircles.svg	29	yes	57	0	257
6.6.1	win	2022-12-24	13:06:33	13:11:36	301096	610021722370e2775864eb81	958235686	1	main_z	7	main_z	117	stimuli_target_diamondsquares.svg	stimuli_distractor_diamondtriangles.svg	24	yes	44	1	821
6.6.1	win	2022-12-24	13:06:33	13:11:36	301096	610021722370e2775864eb81	958235686	1	main_z	7	advance_on_keypress_ZEE	118	stimuli_target_diamondsquares.svg	stimuli_distractor_diamondtriangles.svg	24	yes	57	0	391
6.6.1	win	2022-12-24	13:06:33	13:11:37	302742	610021722370e2775864eb81	958235686	1	main_z	7	main_z	119	stimuli_target_diamondcircles.svg	stimuli_distractor_diamondtriangles.svg	23	yes	44	1	641
6.6.1	win	2022-12-24	13:06:33	13:11:37	302742	610021722370e2775864eb81	958235686	1	main_z	7	advance_on_keypress_ZEE	120	stimuli_target_diamondcircles.svg	stimuli_distractor_diamondtriangles.svg	23	yes	57	0	243
6.6.1	win	2022-12-24	13:06:33	13:11:39	304247	610021722370e2775864eb81	958235686	1	main_z	7	main_z	121	stimuli_distractor_diamondtriangles.svg	stimuli_target_trianglesquares.svg	30	yes	44	1	647
6.6.1	win	2022-12-24	13:06:33	13:11:39	304247	610021722370e2775864eb81	958235686	1	main_z	7	advance_on_keypress_ZEE	122	stimuli_distractor_diamondtriangles.svg	stimuli_target_trianglesquares.svg	30	yes	57	0	378
6.6.1	win	2022-12-24	13:06:33	13:11:40	305826	610021722370e2775864eb81	958235686	1	main_z	7	main_z	123	stimuli_target_trianglesquares.svg	stimuli_distractor_diamondtriangles.svg	22	yes	44	1	587
6.6.1	win	2022-12-24	13:06:33	13:11:40	305826	610021722370e2775864eb81	958235686	1	main_z	7	advance_on_keypress_ZEE	124	stimuli_target_trianglesquares.svg	stimuli_distractor_diamondtriangles.svg	22	yes	57	0	395
6.6.1	win	2022-12-24	13:06:33	13:11:43	308841	610021722370e2775864eb81	958235686	1	main_z	7	main_z	125	stimuli_distractor_trianglediamonds.svg	stimuli_distractor_trianglediamonds.svg	33	no	0	1	2003
6.6.1	win	2022-12-24	13:06:33	13:11:43	308841	610021722370e2775864eb81	958235686	1	main_z	7	advance_on_keypress_ZEE	126	stimuli_distractor_trianglediamonds.svg	stimuli_distractor_trianglediamonds.svg	33	no	57	0	306
6.6.1	win	2022-12-24	13:06:33	13:11:45	310445	610021722370e2775864eb81	958235686	1	main_z	7	main_z	127	stimuli_distractor_trianglediamonds.svg	stimuli_target_squarediamonds.svg	12	yes	44	1	683
6.6.1	win	2022-12-24	13:06:33	13:11:45	310445	610021722370e2775864eb81	958235686	1	main_z	7	advance_on_keypress_ZEE	128	stimuli_distractor_trianglediamonds.svg	stimuli_target_squarediamonds.svg	12	yes	57	0	239
6.6.1	win	2022-12-24	13:06:33	13:11:46	311921	610021722370e2775864eb81	958235686	1	main_z	7	main_z	129	stimuli_distractor_trianglediamonds.svg	stimuli_target_diamondsquares.svg	28	yes	44	1	625
6.6.1	win	2022-12-24	13:06:33	13:11:46	311921	610021722370e2775864eb81	958235686	1	main_z	7	advance_on_keypress_ZEE	130	stimuli_distractor_trianglediamonds.svg	stimuli_target_diamondsquares.svg	28	yes	57	0	211
6.6.1	win	2022-12-24	13:06:33	13:11:48	313595	610021722370e2775864eb81	958235686	1	main_z	7	main_z	131	stimuli_target_circletriangles.svg	stimuli_distractor_trianglediamonds.svg	1	yes	44	1	848
6.6.1	win	2022-12-24	13:06:33	13:11:48	313595	610021722370e2775864eb81	958235686	1	main_z	7	advance_on_keypress_ZEE	132	stimuli_target_circletriangles.svg	stimuli_distractor_trianglediamonds.svg	1	yes	57	0	282
6.6.1	win	2022-12-24	13:06:33	13:11:51	316494	610021722370e2775864eb81	958235686	1	main_z	7	main_z	133	stimuli_distractor_diamondtriangles.svg	stimuli_distractor_diamondtriangles.svg	40	no	0	1	2003
6.6.1	win	2022-12-24	13:06:33	13:11:51	316494	610021722370e2775864eb81	958235686	1	main_z	7	advance_on_keypress_ZEE	134	stimuli_distractor_diamondtriangles.svg	stimuli_distractor_diamondtriangles.svg	40	no	57	0	304
6.6.1	win	2022-12-24	13:06:33	13:11:52	318015	610021722370e2775864eb81	958235686	1	main_z	7	main_z	135	stimuli_distractor_diamondtriangles.svg	stimuli_target_diamondsquares.svg	32	yes	44	1	599
6.6.1	win	2022-12-24	13:06:33	13:11:52	318015	610021722370e2775864eb81	958235686	1	main_z	7	advance_on_keypress_ZEE	136	stimuli_distractor_diamondtriangles.svg	stimuli_target_diamondsquares.svg	32	yes	57	0	230
6.6.1	win	2022-12-24	13:06:33	13:11:54	319650	610021722370e2775864eb81	958235686	1	main_z	7	main_z	137	stimuli_target_circlediamonds.svg	stimuli_distractor_trianglediamonds.svg	2	yes	44	1	790
6.6.1	win	2022-12-24	13:06:33	13:11:54	319650	610021722370e2775864eb81	958235686	1	main_z	7	advance_on_keypress_ZEE	138	stimuli_target_circlediamonds.svg	stimuli_distractor_trianglediamonds.svg	2	yes	57	0	246
6.6.1	win	2022-12-24	13:06:33	13:11:56	321214	610021722370e2775864eb81	958235686	1	main_z	7	main_z	139	stimuli_target_trianglesquares.svg	stimuli_distractor_trianglediamonds.svg	18	yes	44	1	702
6.6.1	win	2022-12-24	13:06:33	13:11:56	321214	610021722370e2775864eb81	958235686	1	main_z	7	advance_on_keypress_ZEE	140	stimuli_target_trianglesquares.svg	stimuli_distractor_trianglediamonds.svg	18	yes	57	0	347
6.6.1	win	2022-12-24	13:06:33	13:11:59	324182	610021722370e2775864eb81	958235686	1	main_z	7	main_z	141	stimuli_distractor_trianglediamonds.svg	stimuli_distractor_diamondtriangles.svg	36	no	0	1	2003
6.6.1	win	2022-12-24	13:06:33	13:11:59	324182	610021722370e2775864eb81	958235686	1	main_z	7	advance_on_keypress_ZEE	142	stimuli_distractor_trianglediamonds.svg	stimuli_distractor_diamondtriangles.svg	36	no	57	0	292
6.6.1	win	2022-12-24	13:06:33	13:12:00	325792	610021722370e2775864eb81	958235686	1	main_z	7	main_z	143	stimuli_distractor_trianglediamonds.svg	stimuli_target_trianglesquares.svg	26	yes	44	1	703
6.6.1	win	2022-12-24	13:06:33	13:12:00	325792	610021722370e2775864eb81	958235686	1	main_z	7	advance_on_keypress_ZEE	144	stimuli_distractor_trianglediamonds.svg	stimuli_target_trianglesquares.svg	26	yes	57	0	301
6.6.1	win	2022-12-24	13:06:33	13:12:02	327295	610021722370e2775864eb81	958235686	1	main_z	7	main_z	145	stimuli_distractor_trianglediamonds.svg	stimuli_target_squaretriangles.svg	11	yes	44	1	587
6.6.1	win	2022-12-24	13:06:33	13:12:02	327295	610021722370e2775864eb81	958235686	1	main_z	7	advance_on_keypress_ZEE	146	stimuli_distractor_trianglediamonds.svg	stimuli_target_squaretriangles.svg	11	yes	57	0	268
6.6.1	win	2022-12-24	13:06:33	13:12:04	329055	610021722370e2775864eb81	958235686	1	main_z	7	main_z	147	stimuli_distractor_diamondtriangles.svg	stimuli_target_circletriangles.svg	13	yes	44	1	874
6.6.1	win	2022-12-24	13:06:33	13:12:04	329055	610021722370e2775864eb81	958235686	1	main_z	7	advance_on_keypress_ZEE	148	stimuli_distractor_diamondtriangles.svg	stimuli_target_circletriangles.svg	13	yes	57	0	333
6.6.1	win	2022-12-24	13:06:33	13:12:06	331697	610021722370e2775864eb81	958235686	1	main_z	7	main_z	149	stimuli_distractor_diamondtriangles.svg	stimuli_distractor_trianglediamonds.svg	38	no	44	0	1691
6.6.1	win	2022-12-24	13:06:33	13:12:06	331697	610021722370e2775864eb81	958235686	1	main_z	7	advance_on_keypress_ZEE	150	stimuli_distractor_diamondtriangles.svg	stimuli_distractor_trianglediamonds.svg	38	no	57	0	335
6.6.1	win	2022-12-24	13:06:33	13:12:09	334649	610021722370e2775864eb81	958235686	1	main_z	7	main_z	151	stimuli_target_diamondcircles.svg	stimuli_distractor_trianglediamonds.svg	19	yes	0	0	2003
6.6.1	win	2022-12-24	13:06:33	13:12:09	334649	610021722370e2775864eb81	958235686	1	main_z	7	advance_on_keypress_ZEE	152	stimuli_target_diamondcircles.svg	stimuli_distractor_trianglediamonds.svg	19	yes	57	0	403
6.6.1	win	2022-12-24	13:06:33	13:12:11	336161	610021722370e2775864eb81	958235686	1	main_z	7	main_z	153	stimuli_target_diamondsquares.svg	stimuli_distractor_trianglediamonds.svg	20	yes	44	1	493
6.6.1	win	2022-12-24	13:06:33	13:12:11	336161	610021722370e2775864eb81	958235686	1	main_z	7	advance_on_keypress_ZEE	154	stimuli_target_diamondsquares.svg	stimuli_distractor_trianglediamonds.svg	20	yes	57	0	219
6.6.1	win	2022-12-24	13:06:33	13:12:12	337498	610021722370e2775864eb81	958235686	1	main_z	7	main_z	155	stimuli_target_trianglecircles.svg	stimuli_distractor_diamondtriangles.svg	21	yes	44	1	504
6.6.1	win	2022-12-24	13:06:33	13:12:12	337498	610021722370e2775864eb81	958235686	1	main_z	7	advance_on_keypress_ZEE	156	stimuli_target_trianglecircles.svg	stimuli_distractor_diamondtriangles.svg	21	yes	57	0	308
6.6.1	win	2022-12-24	13:06:33	13:12:13	338967	610021722370e2775864eb81	958235686	1	main_z	7	main_z	157	stimuli_distractor_diamondtriangles.svg	stimuli_target_circlediamonds.svg	14	yes	44	1	549
6.6.1	win	2022-12-24	13:06:33	13:12:13	338967	610021722370e2775864eb81	958235686	1	main_z	7	advance_on_keypress_ZEE	158	stimuli_distractor_diamondtriangles.svg	stimuli_target_circlediamonds.svg	14	yes	57	0	287
6.6.1	win	2022-12-24	13:06:33	13:12:15	340414	610021722370e2775864eb81	958235686	1	main_z	7	main_z	159	stimuli_target_squarediamonds.svg	stimuli_distractor_trianglediamonds.svg	4	yes	44	1	546
6.6.1	win	2022-12-24	13:06:33	13:12:15	340414	610021722370e2775864eb81	958235686	1	main_z	7	advance_on_keypress_ZEE	160	stimuli_target_squarediamonds.svg	stimuli_distractor_trianglediamonds.svg	4	yes	57	0	267
6.6.1	win	2022-12-24	13:06:33	13:12:37	362534	610021722370e2775864eb81	958235686	1	practice_slash	9	practice_slash	1	stimuli_target_diamondsquares.svg	stimuli_distractor_diamondtriangles.svg	3	yes	53	1	1002
6.6.1	win	2022-12-24	13:06:33	13:12:37	362534	610021722370e2775864eb81	958235686	1	practice_slash	9	advance_on_keypress_SLASH	2	stimuli_target_diamondsquares.svg	stimuli_distractor_diamondtriangles.svg	3	yes	57	0	447
6.6.1	win	2022-12-24	13:06:33	13:12:40	365726	610021722370e2775864eb81	958235686	1	practice_slash	9	practice_slash	3	stimuli_distractor_diamondtriangles.svg	stimuli_distractor_trianglediamonds.svg	14	no	53	0	1125
6.6.1	win	2022-12-24	13:06:33	13:12:40	365726	610021722370e2775864eb81	958235686	1	practice_slash	9	advance_on_keypress_SLASH	4	stimuli_distractor_diamondtriangles.svg	stimuli_distractor_trianglediamonds.svg	14	no	57	0	266
6.6.1	win	2022-12-24	13:06:33	13:12:43	368794	610021722370e2775864eb81	958235686	1	practice_slash	9	practice_slash	5	stimuli_distractor_diamondtriangles.svg	stimuli_target_diamondcircles.svg	8	yes	53	1	1185
6.6.1	win	2022-12-24	13:06:33	13:12:43	368794	610021722370e2775864eb81	958235686	1	practice_slash	9	advance_on_keypress_SLASH	6	stimuli_distractor_diamondtriangles.svg	stimuli_target_diamondcircles.svg	8	yes	57	0	242
6.6.1	win	2022-12-24	13:06:33	13:12:46	371250	610021722370e2775864eb81	958235686	1	practice_slash	9	practice_slash	7	stimuli_distractor_trianglediamonds.svg	stimuli_target_circlediamonds.svg	10	yes	53	1	600
6.6.1	win	2022-12-24	13:06:33	13:12:46	371250	610021722370e2775864eb81	958235686	1	practice_slash	9	advance_on_keypress_SLASH	8	stimuli_distractor_trianglediamonds.svg	stimuli_target_circlediamonds.svg	10	yes	57	0	227
6.6.1	win	2022-12-24	13:06:33	13:12:50	375098	610021722370e2775864eb81	958235686	1	practice_slash	9	practice_slash	9	stimuli_distractor_diamondtriangles.svg	stimuli_distractor_diamondtriangles.svg	13	no	0	1	2003
6.6.1	win	2022-12-24	13:06:33	13:12:50	375098	610021722370e2775864eb81	958235686	1	practice_slash	9	advance_on_keypress_SLASH	10	stimuli_distractor_diamondtriangles.svg	stimuli_distractor_diamondtriangles.svg	13	no	57	0	246
6.6.1	win	2022-12-24	13:06:33	13:12:52	377526	610021722370e2775864eb81	958235686	1	practice_slash	9	practice_slash	11	stimuli_distractor_trianglediamonds.svg	stimuli_target_squarediamonds.svg	11	yes	53	1	563
6.6.1	win	2022-12-24	13:06:33	13:12:52	377526	610021722370e2775864eb81	958235686	1	practice_slash	9	advance_on_keypress_SLASH	12	stimuli_distractor_trianglediamonds.svg	stimuli_target_squarediamonds.svg	11	yes	57	0	366
6.6.1	win	2022-12-24	13:06:33	13:12:55	380232	610021722370e2775864eb81	958235686	1	practice_slash	9	practice_slash	13	stimuli_distractor_diamondtriangles.svg	stimuli_target_trianglecircles.svg	9	yes	53	1	719
6.6.1	win	2022-12-24	13:06:33	13:12:55	380232	610021722370e2775864eb81	958235686	1	practice_slash	9	advance_on_keypress_SLASH	14	stimuli_distractor_diamondtriangles.svg	stimuli_target_trianglecircles.svg	9	yes	57	0	384
6.6.1	win	2022-12-24	13:06:33	13:12:57	382877	610021722370e2775864eb81	958235686	1	practice_slash	9	practice_slash	15	stimuli_target_circlediamonds.svg	stimuli_distractor_trianglediamonds.svg	4	yes	53	1	648
6.6.1	win	2022-12-24	13:06:33	13:12:57	382877	610021722370e2775864eb81	958235686	1	practice_slash	9	advance_on_keypress_SLASH	16	stimuli_target_circlediamonds.svg	stimuli_distractor_trianglediamonds.svg	4	yes	57	0	269
6.6.1	win	2022-12-24	13:06:33	13:13:01	386678	610021722370e2775864eb81	958235686	1	practice_slash	9	practice_slash	17	stimuli_target_circlediamonds.svg	stimuli_distractor_diamondtriangles.svg	1	yes	53	1	1922
6.6.1	win	2022-12-24	13:06:33	13:13:01	386678	610021722370e2775864eb81	958235686	1	practice_slash	9	advance_on_keypress_SLASH	18	stimuli_target_circlediamonds.svg	stimuli_distractor_diamondtriangles.svg	1	yes	57	0	268
6.6.1	win	2022-12-24	13:06:33	13:13:04	389238	610021722370e2775864eb81	958235686	1	practice_slash	9	practice_slash	19	stimuli_target_squarediamonds.svg	stimuli_distractor_trianglediamonds.svg	5	yes	53	1	669
6.6.1	win	2022-12-24	13:06:33	13:13:04	389238	610021722370e2775864eb81	958235686	1	practice_slash	9	advance_on_keypress_SLASH	20	stimuli_target_squarediamonds.svg	stimuli_distractor_trianglediamonds.svg	5	yes	57	0	187
6.6.1	win	2022-12-24	13:06:33	13:13:06	391610	610021722370e2775864eb81	958235686	1	practice_slash	9	practice_slash	21	stimuli_distractor_diamondtriangles.svg	stimuli_target_circletriangles.svg	7	yes	53	1	568
6.6.1	win	2022-12-24	13:06:33	13:13:06	391610	610021722370e2775864eb81	958235686	1	practice_slash	9	advance_on_keypress_SLASH	22	stimuli_distractor_diamondtriangles.svg	stimuli_target_circletriangles.svg	7	yes	57	0	186
6.6.1	win	2022-12-24	13:06:33	13:13:09	394365	610021722370e2775864eb81	958235686	1	practice_slash	9	practice_slash	23	stimuli_distractor_trianglediamonds.svg	stimuli_target_diamondcircles.svg	12	yes	53	1	947
6.6.1	win	2022-12-24	13:06:33	13:13:09	394365	610021722370e2775864eb81	958235686	1	practice_slash	9	advance_on_keypress_SLASH	24	stimuli_distractor_trianglediamonds.svg	stimuli_target_diamondcircles.svg	12	yes	57	0	283
6.6.1	win	2022-12-24	13:06:33	13:13:11	396829	610021722370e2775864eb81	958235686	1	practice_slash	9	practice_slash	25	stimuli_target_squarediamonds.svg	stimuli_distractor_diamondtriangles.svg	2	yes	53	1	564
6.6.1	win	2022-12-24	13:06:33	13:13:11	396829	610021722370e2775864eb81	958235686	1	practice_slash	9	advance_on_keypress_SLASH	26	stimuli_target_squarediamonds.svg	stimuli_distractor_diamondtriangles.svg	2	yes	57	0	203
6.6.1	win	2022-12-24	13:06:33	13:13:14	399168	610021722370e2775864eb81	958235686	1	practice_slash	9	practice_slash	27	stimuli_target_diamondsquares.svg	stimuli_distractor_trianglediamonds.svg	6	yes	53	1	514
6.6.1	win	2022-12-24	13:06:33	13:13:14	399168	610021722370e2775864eb81	958235686	1	practice_slash	9	advance_on_keypress_SLASH	28	stimuli_target_diamondsquares.svg	stimuli_distractor_trianglediamonds.svg	6	yes	57	0	225
6.6.1	win	2022-12-24	13:06:33	13:13:16	401373	610021722370e2775864eb81	958235686	1	practice_slash	9	practice_slash	29	stimuli_distractor_trianglediamonds.svg	stimuli_distractor_diamondtriangles.svg	16	no	53	0	365
6.6.1	win	2022-12-24	13:06:33	13:13:16	401373	610021722370e2775864eb81	958235686	1	practice_slash	9	advance_on_keypress_SLASH	30	stimuli_distractor_trianglediamonds.svg	stimuli_distractor_diamondtriangles.svg	16	no	57	0	240
6.6.1	win	2022-12-24	13:06:33	13:13:20	405227	610021722370e2775864eb81	958235686	1	practice_slash	9	practice_slash	31	stimuli_distractor_trianglediamonds.svg	stimuli_distractor_trianglediamonds.svg	15	no	0	1	2003
6.6.1	win	2022-12-24	13:06:33	13:13:20	405227	610021722370e2775864eb81	958235686	1	practice_slash	9	advance_on_keypress_SLASH	32	stimuli_distractor_trianglediamonds.svg	stimuli_distractor_trianglediamonds.svg	15	no	57	0	229
6.6.1	win	2022-12-24	13:06:33	13:13:27	412652	610021722370e2775864eb81	958235686	1	main_slash	11	main_slash	1	stimuli_target_diamondcircles.svg	stimuli_distractor_diamondtriangles.svg	23	yes	53	1	345
6.6.1	win	2022-12-24	13:06:33	13:13:27	412652	610021722370e2775864eb81	958235686	1	main_slash	11	advance_on_keypress_SLASH	2	stimuli_target_diamondcircles.svg	stimuli_distractor_diamondtriangles.svg	23	yes	57	0	967
6.6.1	win	2022-12-24	13:06:33	13:13:29	414978	610021722370e2775864eb81	958235686	1	main_slash	11	main_slash	3	stimuli_target_circletriangles.svg	stimuli_distractor_trianglediamonds.svg	1	yes	53	1	739
6.6.1	win	2022-12-24	13:06:33	13:13:29	414978	610021722370e2775864eb81	958235686	1	main_slash	11	advance_on_keypress_SLASH	4	stimuli_target_circletriangles.svg	stimuli_distractor_trianglediamonds.svg	1	yes	57	0	343
6.6.1	win	2022-12-24	13:06:33	13:13:31	416436	610021722370e2775864eb81	958235686	1	main_slash	11	main_slash	5	stimuli_distractor_trianglediamonds.svg	stimuli_target_trianglesquares.svg	26	yes	53	1	502
6.6.1	win	2022-12-24	13:06:33	13:13:31	416436	610021722370e2775864eb81	958235686	1	main_slash	11	advance_on_keypress_SLASH	6	stimuli_distractor_trianglediamonds.svg	stimuli_target_trianglesquares.svg	26	yes	57	0	473
6.6.1	win	2022-12-24	13:06:33	13:13:34	419527	610021722370e2775864eb81	958235686	1	main_slash	11	main_slash	7	stimuli_distractor_trianglediamonds.svg	stimuli_distractor_diamondtriangles.svg	36	no	0	1	2003
6.6.1	win	2022-12-24	13:06:33	13:13:34	419527	610021722370e2775864eb81	958235686	1	main_slash	11	advance_on_keypress_SLASH	8	stimuli_distractor_trianglediamonds.svg	stimuli_distractor_diamondtriangles.svg	36	no	57	0	315
6.6.1	win	2022-12-24	13:06:33	13:13:35	421013	610021722370e2775864eb81	958235686	1	main_slash	11	main_slash	9	stimuli_distractor_trianglediamonds.svg	stimuli_target_diamondcircles.svg	27	yes	53	1	559
6.6.1	win	2022-12-24	13:06:33	13:13:35	421013	610021722370e2775864eb81	958235686	1	main_slash	11	advance_on_keypress_SLASH	10	stimuli_distractor_trianglediamonds.svg	stimuli_target_diamondcircles.svg	27	yes	57	0	344
6.6.1	win	2022-12-24	13:06:33	13:13:37	422383	610021722370e2775864eb81	958235686	1	main_slash	11	main_slash	11	stimuli_target_trianglecircles.svg	stimuli_distractor_diamondtriangles.svg	21	yes	53	1	415
6.6.1	win	2022-12-24	13:06:33	13:13:37	422383	610021722370e2775864eb81	958235686	1	main_slash	11	advance_on_keypress_SLASH	12	stimuli_target_trianglecircles.svg	stimuli_distractor_diamondtriangles.svg	21	yes	57	0	312
6.6.1	win	2022-12-24	13:06:33	13:13:40	425313	610021722370e2775864eb81	958235686	1	main_slash	11	main_slash	13	stimuli_distractor_trianglediamonds.svg	stimuli_distractor_trianglediamonds.svg	34	no	0	1	2003
6.6.1	win	2022-12-24	13:06:33	13:13:40	425313	610021722370e2775864eb81	958235686	1	main_slash	11	advance_on_keypress_SLASH	14	stimuli_distractor_trianglediamonds.svg	stimuli_distractor_trianglediamonds.svg	34	no	57	0	223
6.6.1	win	2022-12-24	13:06:33	13:13:41	426613	610021722370e2775864eb81	958235686	1	main_slash	11	main_slash	15	stimuli_target_diamondcircles.svg	stimuli_distractor_trianglediamonds.svg	19	yes	53	1	464
6.6.1	win	2022-12-24	13:06:33	13:13:41	426613	610021722370e2775864eb81	958235686	1	main_slash	11	advance_on_keypress_SLASH	16	stimuli_target_diamondcircles.svg	stimuli_distractor_trianglediamonds.svg	19	yes	57	0	290
6.6.1	win	2022-12-24	13:06:33	13:13:44	429521	610021722370e2775864eb81	958235686	1	main_slash	11	main_slash	17	stimuli_distractor_diamondtriangles.svg	stimuli_distractor_diamondtriangles.svg	39	no	0	1	2003
6.6.1	win	2022-12-24	13:06:33	13:13:44	429521	610021722370e2775864eb81	958235686	1	main_slash	11	advance_on_keypress_SLASH	18	stimuli_distractor_diamondtriangles.svg	stimuli_distractor_diamondtriangles.svg	39	no	57	0	249
6.6.1	win	2022-12-24	13:06:33	13:13:47	432389	610021722370e2775864eb81	958235686	1	main_slash	11	main_slash	19	stimuli_distractor_diamondtriangles.svg	stimuli_distractor_diamondtriangles.svg	40	no	0	1	2003
6.6.1	win	2022-12-24	13:06:33	13:13:47	432389	610021722370e2775864eb81	958235686	1	main_slash	11	advance_on_keypress_SLASH	20	stimuli_distractor_diamondtriangles.svg	stimuli_distractor_diamondtriangles.svg	40	no	57	0	190
6.6.1	win	2022-12-24	13:06:33	13:13:48	433721	610021722370e2775864eb81	958235686	1	main_slash	11	main_slash	21	stimuli_target_squarediamonds.svg	stimuli_distractor_diamondtriangles.svg	8	yes	53	1	522
6.6.1	win	2022-12-24	13:06:33	13:13:48	433721	610021722370e2775864eb81	958235686	1	main_slash	11	advance_on_keypress_SLASH	22	stimuli_target_squarediamonds.svg	stimuli_distractor_diamondtriangles.svg	8	yes	57	0	585
6.6.1	win	2022-12-24	13:06:33	13:13:50	435426	610021722370e2775864eb81	958235686	1	main_slash	11	main_slash	23	stimuli_target_squaretriangles.svg	stimuli_distractor_trianglediamonds.svg	3	yes	53	1	505
6.6.1	win	2022-12-24	13:06:33	13:13:50	435426	610021722370e2775864eb81	958235686	1	main_slash	11	advance_on_keypress_SLASH	24	stimuli_target_squaretriangles.svg	stimuli_distractor_trianglediamonds.svg	3	yes	57	0	308
6.6.1	win	2022-12-24	13:06:33	13:13:52	437707	610021722370e2775864eb81	958235686	1	main_slash	11	main_slash	25	stimuli_distractor_diamondtriangles.svg	stimuli_target_trianglesquares.svg	30	yes	53	1	1361
6.6.1	win	2022-12-24	13:06:33	13:13:52	437707	610021722370e2775864eb81	958235686	1	main_slash	11	advance_on_keypress_SLASH	26	stimuli_distractor_diamondtriangles.svg	stimuli_target_trianglesquares.svg	30	yes	57	0	195
6.6.1	win	2022-12-24	13:06:33	13:13:54	439147	610021722370e2775864eb81	958235686	1	main_slash	11	main_slash	27	stimuli_distractor_trianglediamonds.svg	stimuli_target_trianglecircles.svg	25	yes	53	1	627
6.6.1	win	2022-12-24	13:06:33	13:13:54	439147	610021722370e2775864eb81	958235686	1	main_slash	11	advance_on_keypress_SLASH	28	stimuli_distractor_trianglediamonds.svg	stimuli_target_trianglecircles.svg	25	yes	57	0	302
6.6.1	win	2022-12-24	13:06:33	13:13:55	440638	610021722370e2775864eb81	958235686	1	main_slash	11	main_slash	29	stimuli_target_squaretriangles.svg	stimuli_distractor_diamondtriangles.svg	7	yes	53	1	576
6.6.1	win	2022-12-24	13:06:33	13:13:55	440638	610021722370e2775864eb81	958235686	1	main_slash	11	advance_on_keypress_SLASH	30	stimuli_target_squaretriangles.svg	stimuli_distractor_diamondtriangles.svg	7	yes	57	0	315
6.6.1	win	2022-12-24	13:06:33	13:13:57	442076	610021722370e2775864eb81	958235686	1	main_slash	11	main_slash	31	stimuli_distractor_diamondtriangles.svg	stimuli_target_squaretriangles.svg	15	yes	53	1	507
6.6.1	win	2022-12-24	13:06:33	13:13:57	442076	610021722370e2775864eb81	958235686	1	main_slash	11	advance_on_keypress_SLASH	32	stimuli_distractor_diamondtriangles.svg	stimuli_target_squaretriangles.svg	15	yes	57	0	639
6.6.1	win	2022-12-24	13:06:33	13:13:58	443848	610021722370e2775864eb81	958235686	1	main_slash	11	main_slash	33	stimuli_target_trianglesquares.svg	stimuli_distractor_diamondtriangles.svg	22	yes	53	1	515
6.6.1	win	2022-12-24	13:06:33	13:13:58	443848	610021722370e2775864eb81	958235686	1	main_slash	11	advance_on_keypress_SLASH	34	stimuli_target_trianglesquares.svg	stimuli_distractor_diamondtriangles.svg	22	yes	57	0	375
6.6.1	win	2022-12-24	13:06:33	13:14:00	445270	610021722370e2775864eb81	958235686	1	main_slash	11	main_slash	35	stimuli_target_diamondsquares.svg	stimuli_distractor_diamondtriangles.svg	24	yes	53	1	431
6.6.1	win	2022-12-24	13:06:33	13:14:00	445270	610021722370e2775864eb81	958235686	1	main_slash	11	advance_on_keypress_SLASH	36	stimuli_target_diamondsquares.svg	stimuli_distractor_diamondtriangles.svg	24	yes	57	0	348
6.6.1	win	2022-12-24	13:06:33	13:14:01	446711	610021722370e2775864eb81	958235686	1	main_slash	11	main_slash	37	stimuli_target_trianglecircles.svg	stimuli_distractor_trianglediamonds.svg	17	yes	53	1	476
6.6.1	win	2022-12-24	13:06:33	13:14:01	446711	610021722370e2775864eb81	958235686	1	main_slash	11	advance_on_keypress_SLASH	38	stimuli_target_trianglecircles.svg	stimuli_distractor_trianglediamonds.svg	17	yes	57	0	565
6.6.1	win	2022-12-24	13:06:33	13:14:03	448375	610021722370e2775864eb81	958235686	1	main_slash	11	main_slash	39	stimuli_distractor_trianglediamonds.svg	stimuli_target_squaretriangles.svg	11	yes	53	1	487
6.6.1	win	2022-12-24	13:06:33	13:14:03	448375	610021722370e2775864eb81	958235686	1	main_slash	11	advance_on_keypress_SLASH	40	stimuli_distractor_trianglediamonds.svg	stimuli_target_squaretriangles.svg	11	yes	57	0	263
6.6.1	win	2022-12-24	13:06:33	13:14:06	451260	610021722370e2775864eb81	958235686	1	main_slash	11	main_slash	41	stimuli_distractor_diamondtriangles.svg	stimuli_distractor_trianglediamonds.svg	38	no	0	1	2003
6.6.1	win	2022-12-24	13:06:33	13:14:06	451260	610021722370e2775864eb81	958235686	1	main_slash	11	advance_on_keypress_SLASH	42	stimuli_distractor_diamondtriangles.svg	stimuli_distractor_trianglediamonds.svg	38	no	57	0	371
6.6.1	win	2022-12-24	13:06:33	13:14:07	452755	610021722370e2775864eb81	958235686	1	main_slash	11	main_slash	43	stimuli_distractor_trianglediamonds.svg	stimuli_target_squarediamonds.svg	12	yes	53	1	511
6.6.1	win	2022-12-24	13:06:33	13:14:07	452755	610021722370e2775864eb81	958235686	1	main_slash	11	advance_on_keypress_SLASH	44	stimuli_distractor_trianglediamonds.svg	stimuli_target_squarediamonds.svg	12	yes	57	0	250
6.6.1	win	2022-12-24	13:06:33	13:14:09	454970	610021722370e2775864eb81	958235686	1	main_slash	11	main_slash	45	stimuli_distractor_trianglediamonds.svg	stimuli_distractor_diamondtriangles.svg	35	no	53	0	1352
6.6.1	win	2022-12-24	13:06:33	13:14:09	454970	610021722370e2775864eb81	958235686	1	main_slash	11	advance_on_keypress_SLASH	46	stimuli_distractor_trianglediamonds.svg	stimuli_distractor_diamondtriangles.svg	35	no	57	0	368
6.6.1	win	2022-12-24	13:06:33	13:14:11	456589	610021722370e2775864eb81	958235686	1	main_slash	11	main_slash	47	stimuli_target_circletriangles.svg	stimuli_distractor_diamondtriangles.svg	5	yes	53	1	637
6.6.1	win	2022-12-24	13:06:33	13:14:11	456589	610021722370e2775864eb81	958235686	1	main_slash	11	advance_on_keypress_SLASH	48	stimuli_target_circletriangles.svg	stimuli_distractor_diamondtriangles.svg	5	yes	57	0	277
6.6.1	win	2022-12-24	13:06:33	13:14:13	458076	610021722370e2775864eb81	958235686	1	main_slash	11	main_slash	49	stimuli_distractor_diamondtriangles.svg	stimuli_target_circletriangles.svg	13	yes	53	1	590
6.6.1	win	2022-12-24	13:06:33	13:14:13	458076	610021722370e2775864eb81	958235686	1	main_slash	11	advance_on_keypress_SLASH	50	stimuli_distractor_diamondtriangles.svg	stimuli_target_circletriangles.svg	13	yes	57	0	270
6.6.1	win	2022-12-24	13:06:33	13:14:14	459388	610021722370e2775864eb81	958235686	1	main_slash	11	main_slash	51	stimuli_target_squarediamonds.svg	stimuli_distractor_trianglediamonds.svg	4	yes	53	1	421
6.6.1	win	2022-12-24	13:06:33	13:14:14	459388	610021722370e2775864eb81	958235686	1	main_slash	11	advance_on_keypress_SLASH	52	stimuli_target_squarediamonds.svg	stimuli_distractor_trianglediamonds.svg	4	yes	57	0	372
6.6.1	win	2022-12-24	13:06:33	13:14:15	460981	610021722370e2775864eb81	958235686	1	main_slash	11	main_slash	53	stimuli_distractor_diamondtriangles.svg	stimuli_target_diamondcircles.svg	31	yes	53	1	611
6.6.1	win	2022-12-24	13:06:33	13:14:15	460981	610021722370e2775864eb81	958235686	1	main_slash	11	advance_on_keypress_SLASH	54	stimuli_distractor_diamondtriangles.svg	stimuli_target_diamondcircles.svg	31	yes	57	0	237
6.6.1	win	2022-12-24	13:06:33	13:14:17	462317	610021722370e2775864eb81	958235686	1	main_slash	11	main_slash	55	stimuli_target_trianglesquares.svg	stimuli_distractor_trianglediamonds.svg	18	yes	53	1	483
6.6.1	win	2022-12-24	13:06:33	13:14:17	462317	610021722370e2775864eb81	958235686	1	main_slash	11	advance_on_keypress_SLASH	56	stimuli_target_trianglesquares.svg	stimuli_distractor_trianglediamonds.svg	18	yes	57	0	205
6.6.1	win	2022-12-24	13:06:33	13:14:18	463590	610021722370e2775864eb81	958235686	1	main_slash	11	main_slash	57	stimuli_distractor_trianglediamonds.svg	stimuli_target_circletriangles.svg	9	yes	53	1	457
6.6.1	win	2022-12-24	13:06:33	13:14:18	463590	610021722370e2775864eb81	958235686	1	main_slash	11	advance_on_keypress_SLASH	58	stimuli_distractor_trianglediamonds.svg	stimuli_target_circletriangles.svg	9	yes	57	0	150
6.6.1	win	2022-12-24	13:06:33	13:14:19	464951	610021722370e2775864eb81	958235686	1	main_slash	11	main_slash	59	stimuli_distractor_diamondtriangles.svg	stimuli_target_circlediamonds.svg	14	yes	53	1	596
6.6.1	win	2022-12-24	13:06:33	13:14:19	464951	610021722370e2775864eb81	958235686	1	main_slash	11	advance_on_keypress_SLASH	60	stimuli_distractor_diamondtriangles.svg	stimuli_target_circlediamonds.svg	14	yes	57	0	206
6.6.1	win	2022-12-24	13:06:33	13:14:21	466206	610021722370e2775864eb81	958235686	1	main_slash	11	main_slash	61	stimuli_distractor_diamondtriangles.svg	stimuli_distractor_trianglediamonds.svg	37	no	53	0	434
6.6.1	win	2022-12-24	13:06:33	13:14:21	466206	610021722370e2775864eb81	958235686	1	main_slash	11	advance_on_keypress_SLASH	62	stimuli_distractor_diamondtriangles.svg	stimuli_distractor_trianglediamonds.svg	37	no	57	0	371
6.6.1	win	2022-12-24	13:06:33	13:14:22	467820	610021722370e2775864eb81	958235686	1	main_slash	11	main_slash	63	stimuli_distractor_diamondtriangles.svg	stimuli_target_diamondsquares.svg	32	yes	53	1	630
6.6.1	win	2022-12-24	13:06:33	13:14:22	467820	610021722370e2775864eb81	958235686	1	main_slash	11	advance_on_keypress_SLASH	64	stimuli_distractor_diamondtriangles.svg	stimuli_target_diamondsquares.svg	32	yes	57	0	424
6.6.1	win	2022-12-24	13:06:33	13:14:24	469324	610021722370e2775864eb81	958235686	1	main_slash	11	main_slash	65	stimuli_distractor_diamondtriangles.svg	stimuli_target_squarediamonds.svg	16	yes	53	1	460
6.6.1	win	2022-12-24	13:06:33	13:14:24	469324	610021722370e2775864eb81	958235686	1	main_slash	11	advance_on_keypress_SLASH	66	stimuli_distractor_diamondtriangles.svg	stimuli_target_squarediamonds.svg	16	yes	57	0	307
6.6.1	win	2022-12-24	13:06:33	13:14:25	470818	610021722370e2775864eb81	958235686	1	main_slash	11	main_slash	67	stimuli_distractor_diamondtriangles.svg	stimuli_target_trianglecircles.svg	29	yes	53	1	573
6.6.1	win	2022-12-24	13:06:33	13:14:25	470818	610021722370e2775864eb81	958235686	1	main_slash	11	advance_on_keypress_SLASH	68	stimuli_distractor_diamondtriangles.svg	stimuli_target_trianglecircles.svg	29	yes	57	0	309
6.6.1	win	2022-12-24	13:06:33	13:14:28	473742	610021722370e2775864eb81	958235686	1	main_slash	11	main_slash	69	stimuli_distractor_trianglediamonds.svg	stimuli_distractor_trianglediamonds.svg	33	no	0	1	2003
6.6.1	win	2022-12-24	13:06:33	13:14:28	473742	610021722370e2775864eb81	958235686	1	main_slash	11	advance_on_keypress_SLASH	70	stimuli_distractor_trianglediamonds.svg	stimuli_distractor_trianglediamonds.svg	33	no	57	0	301
6.6.1	win	2022-12-24	13:06:33	13:14:30	475341	610021722370e2775864eb81	958235686	1	main_slash	11	main_slash	71	stimuli_target_circlediamonds.svg	stimuli_distractor_diamondtriangles.svg	6	yes	53	1	685
6.6.1	win	2022-12-24	13:06:33	13:14:30	475341	610021722370e2775864eb81	958235686	1	main_slash	11	advance_on_keypress_SLASH	72	stimuli_target_circlediamonds.svg	stimuli_distractor_diamondtriangles.svg	6	yes	57	0	448
6.6.1	win	2022-12-24	13:06:33	13:14:33	478218	610021722370e2775864eb81	958235686	1	main_slash	11	main_slash	73	stimuli_target_diamondsquares.svg	stimuli_distractor_trianglediamonds.svg	20	yes	53	1	1819
6.6.1	win	2022-12-24	13:06:33	13:14:33	478218	610021722370e2775864eb81	958235686	1	main_slash	11	advance_on_keypress_SLASH	74	stimuli_target_diamondsquares.svg	stimuli_distractor_trianglediamonds.svg	20	yes	57	0	280
6.6.1	win	2022-12-24	13:06:33	13:14:34	479721	610021722370e2775864eb81	958235686	1	main_slash	11	main_slash	75	stimuli_distractor_trianglediamonds.svg	stimuli_target_diamondsquares.svg	28	yes	53	1	607
6.6.1	win	2022-12-24	13:06:33	13:14:34	479721	610021722370e2775864eb81	958235686	1	main_slash	11	advance_on_keypress_SLASH	76	stimuli_distractor_trianglediamonds.svg	stimuli_target_diamondsquares.svg	28	yes	57	0	257
6.6.1	win	2022-12-24	13:06:33	13:14:36	481122	610021722370e2775864eb81	958235686	1	main_slash	11	main_slash	77	stimuli_distractor_trianglediamonds.svg	stimuli_target_circlediamonds.svg	10	yes	53	1	526
6.6.1	win	2022-12-24	13:06:33	13:14:36	481122	610021722370e2775864eb81	958235686	1	main_slash	11	advance_on_keypress_SLASH	78	stimuli_distractor_trianglediamonds.svg	stimuli_target_circlediamonds.svg	10	yes	57	0	224
6.6.1	win	2022-12-24	13:06:33	13:14:37	482646	610021722370e2775864eb81	958235686	1	main_slash	11	main_slash	79	stimuli_target_circlediamonds.svg	stimuli_distractor_trianglediamonds.svg	2	yes	53	1	684
6.6.1	win	2022-12-24	13:06:33	13:14:37	482646	610021722370e2775864eb81	958235686	1	main_slash	11	advance_on_keypress_SLASH	80	stimuli_target_circlediamonds.svg	stimuli_distractor_trianglediamonds.svg	2	yes	57	0	348
6.6.1	win	2022-12-24	13:06:33	13:14:39	484111	610021722370e2775864eb81	958235686	1	main_slash	11	main_slash	81	stimuli_target_squaretriangles.svg	stimuli_distractor_diamondtriangles.svg	7	yes	53	1	503
6.6.1	win	2022-12-24	13:06:33	13:14:39	484111	610021722370e2775864eb81	958235686	1	main_slash	11	advance_on_keypress_SLASH	82	stimuli_target_squaretriangles.svg	stimuli_distractor_diamondtriangles.svg	7	yes	57	0	195
6.6.1	win	2022-12-24	13:06:33	13:14:41	486924	610021722370e2775864eb81	958235686	1	main_slash	11	main_slash	83	stimuli_distractor_trianglediamonds.svg	stimuli_distractor_diamondtriangles.svg	35	no	0	1	2003
6.6.1	win	2022-12-24	13:06:33	13:14:41	486924	610021722370e2775864eb81	958235686	1	main_slash	11	advance_on_keypress_SLASH	84	stimuli_distractor_trianglediamonds.svg	stimuli_distractor_diamondtriangles.svg	35	no	57	0	299
6.6.1	win	2022-12-24	13:06:33	13:14:43	488319	610021722370e2775864eb81	958235686	1	main_slash	11	main_slash	85	stimuli_distractor_trianglediamonds.svg	stimuli_target_squaretriangles.svg	11	yes	53	1	481
6.6.1	win	2022-12-24	13:06:33	13:14:43	488319	610021722370e2775864eb81	958235686	1	main_slash	11	advance_on_keypress_SLASH	86	stimuli_distractor_trianglediamonds.svg	stimuli_target_squaretriangles.svg	11	yes	57	0	220
6.6.1	win	2022-12-24	13:06:33	13:14:44	489608	610021722370e2775864eb81	958235686	1	main_slash	11	main_slash	87	stimuli_distractor_trianglediamonds.svg	stimuli_target_diamondsquares.svg	28	yes	53	1	458
6.6.1	win	2022-12-24	13:06:33	13:14:44	489608	610021722370e2775864eb81	958235686	1	main_slash	11	advance_on_keypress_SLASH	88	stimuli_distractor_trianglediamonds.svg	stimuli_target_diamondsquares.svg	28	yes	57	0	267
6.6.1	win	2022-12-24	13:06:33	13:14:46	491058	610021722370e2775864eb81	958235686	1	main_slash	11	main_slash	89	stimuli_target_diamondsquares.svg	stimuli_distractor_trianglediamonds.svg	20	yes	53	1	568
6.6.1	win	2022-12-24	13:06:33	13:14:46	491058	610021722370e2775864eb81	958235686	1	main_slash	11	advance_on_keypress_SLASH	90	stimuli_target_diamondsquares.svg	stimuli_distractor_trianglediamonds.svg	20	yes	57	0	257
6.6.1	win	2022-12-24	13:06:33	13:14:47	492387	610021722370e2775864eb81	958235686	1	main_slash	11	main_slash	91	stimuli_target_circletriangles.svg	stimuli_distractor_diamondtriangles.svg	5	yes	53	1	458
6.6.1	win	2022-12-24	13:06:33	13:14:47	492387	610021722370e2775864eb81	958235686	1	main_slash	11	advance_on_keypress_SLASH	92	stimuli_target_circletriangles.svg	stimuli_distractor_diamondtriangles.svg	5	yes	57	0	179
6.6.1	win	2022-12-24	13:06:33	13:14:48	493657	610021722370e2775864eb81	958235686	1	main_slash	11	main_slash	93	stimuli_target_circlediamonds.svg	stimuli_distractor_trianglediamonds.svg	2	yes	53	1	471
6.6.1	win	2022-12-24	13:06:33	13:14:48	493657	610021722370e2775864eb81	958235686	1	main_slash	11	advance_on_keypress_SLASH	94	stimuli_target_circlediamonds.svg	stimuli_distractor_trianglediamonds.svg	2	yes	57	0	255
6.6.1	win	2022-12-24	13:06:33	13:14:50	495340	610021722370e2775864eb81	958235686	1	main_slash	11	main_slash	95	stimuli_target_trianglecircles.svg	stimuli_distractor_trianglediamonds.svg	17	yes	53	1	814
6.6.1	win	2022-12-24	13:06:33	13:14:50	495340	610021722370e2775864eb81	958235686	1	main_slash	11	advance_on_keypress_SLASH	96	stimuli_target_trianglecircles.svg	stimuli_distractor_trianglediamonds.svg	17	yes	57	0	255
6.6.1	win	2022-12-24	13:06:33	13:14:51	496681	610021722370e2775864eb81	958235686	1	main_slash	11	main_slash	97	stimuli_target_diamondcircles.svg	stimuli_distractor_diamondtriangles.svg	23	yes	53	1	466
6.6.1	win	2022-12-24	13:06:33	13:14:51	496681	610021722370e2775864eb81	958235686	1	main_slash	11	advance_on_keypress_SLASH	98	stimuli_target_diamondcircles.svg	stimuli_distractor_diamondtriangles.svg	23	yes	57	0	190
6.6.1	win	2022-12-24	13:06:33	13:14:53	498157	610021722370e2775864eb81	958235686	1	main_slash	11	main_slash	99	stimuli_distractor_diamondtriangles.svg	stimuli_distractor_diamondtriangles.svg	39	no	53	0	673
6.6.1	win	2022-12-24	13:06:33	13:14:53	498157	610021722370e2775864eb81	958235686	1	main_slash	11	advance_on_keypress_SLASH	100	stimuli_distractor_diamondtriangles.svg	stimuli_distractor_diamondtriangles.svg	39	no	57	0	514
6.6.1	win	2022-12-24	13:06:33	13:14:54	499774	610021722370e2775864eb81	958235686	1	main_slash	11	main_slash	101	stimuli_target_trianglesquares.svg	stimuli_distractor_diamondtriangles.svg	22	yes	53	1	484
6.6.1	win	2022-12-24	13:06:33	13:14:54	499774	610021722370e2775864eb81	958235686	1	main_slash	11	advance_on_keypress_SLASH	102	stimuli_target_trianglesquares.svg	stimuli_distractor_diamondtriangles.svg	22	yes	57	0	429
6.6.1	win	2022-12-24	13:06:33	13:14:57	502821	610021722370e2775864eb81	958235686	1	main_slash	11	main_slash	103	stimuli_distractor_trianglediamonds.svg	stimuli_distractor_trianglediamonds.svg	33	no	0	1	2003
6.6.1	win	2022-12-24	13:06:33	13:14:57	502821	610021722370e2775864eb81	958235686	1	main_slash	11	advance_on_keypress_SLASH	104	stimuli_distractor_trianglediamonds.svg	stimuli_distractor_trianglediamonds.svg	33	no	57	0	293
6.6.1	win	2022-12-24	13:06:33	13:14:59	504095	610021722370e2775864eb81	958235686	1	main_slash	11	main_slash	105	stimuli_target_circlediamonds.svg	stimuli_distractor_diamondtriangles.svg	6	yes	53	1	366
6.6.1	win	2022-12-24	13:06:33	13:14:59	504095	610021722370e2775864eb81	958235686	1	main_slash	11	advance_on_keypress_SLASH	106	stimuli_target_circlediamonds.svg	stimuli_distractor_diamondtriangles.svg	6	yes	57	0	231
6.6.1	win	2022-12-24	13:06:33	13:15:00	505340	610021722370e2775864eb81	958235686	1	main_slash	11	main_slash	107	stimuli_target_squarediamonds.svg	stimuli_distractor_trianglediamonds.svg	4	yes	53	1	395
6.6.1	win	2022-12-24	13:06:33	13:15:00	505340	610021722370e2775864eb81	958235686	1	main_slash	11	advance_on_keypress_SLASH	108	stimuli_target_squarediamonds.svg	stimuli_distractor_trianglediamonds.svg	4	yes	57	0	238
6.6.1	win	2022-12-24	13:06:33	13:15:03	508197	610021722370e2775864eb81	958235686	1	main_slash	11	main_slash	109	stimuli_distractor_trianglediamonds.svg	stimuli_distractor_trianglediamonds.svg	34	no	0	1	2003
6.6.1	win	2022-12-24	13:06:33	13:15:03	508197	610021722370e2775864eb81	958235686	1	main_slash	11	advance_on_keypress_SLASH	110	stimuli_distractor_trianglediamonds.svg	stimuli_distractor_trianglediamonds.svg	34	no	57	0	286
6.6.1	win	2022-12-24	13:06:33	13:15:04	509461	610021722370e2775864eb81	958235686	1	main_slash	11	main_slash	111	stimuli_distractor_trianglediamonds.svg	stimuli_target_squarediamonds.svg	12	yes	53	1	364
6.6.1	win	2022-12-24	13:06:33	13:15:04	509461	610021722370e2775864eb81	958235686	1	main_slash	11	advance_on_keypress_SLASH	112	stimuli_distractor_trianglediamonds.svg	stimuli_target_squarediamonds.svg	12	yes	57	0	233
6.6.1	win	2022-12-24	13:06:33	13:15:05	510712	610021722370e2775864eb81	958235686	1	main_slash	11	main_slash	113	stimuli_distractor_diamondtriangles.svg	stimuli_target_trianglecircles.svg	29	yes	53	1	406
6.6.1	win	2022-12-24	13:06:33	13:15:05	510712	610021722370e2775864eb81	958235686	1	main_slash	11	advance_on_keypress_SLASH	114	stimuli_distractor_diamondtriangles.svg	stimuli_target_trianglecircles.svg	29	yes	57	0	295
6.6.1	win	2022-12-24	13:06:33	13:15:07	512272	610021722370e2775864eb81	958235686	1	main_slash	11	main_slash	115	stimuli_target_diamondsquares.svg	stimuli_distractor_diamondtriangles.svg	24	yes	53	1	653
6.6.1	win	2022-12-24	13:06:33	13:15:07	512272	610021722370e2775864eb81	958235686	1	main_slash	11	advance_on_keypress_SLASH	116	stimuli_target_diamondsquares.svg	stimuli_distractor_diamondtriangles.svg	24	yes	57	0	285
6.6.1	win	2022-12-24	13:06:33	13:15:08	513593	610021722370e2775864eb81	958235686	1	main_slash	11	main_slash	117	stimuli_target_trianglesquares.svg	stimuli_distractor_trianglediamonds.svg	18	yes	53	1	418
6.6.1	win	2022-12-24	13:06:33	13:15:08	513593	610021722370e2775864eb81	958235686	1	main_slash	11	advance_on_keypress_SLASH	118	stimuli_target_trianglesquares.svg	stimuli_distractor_trianglediamonds.svg	18	yes	57	0	206
6.6.1	win	2022-12-24	13:06:33	13:15:09	514917	610021722370e2775864eb81	958235686	1	main_slash	11	main_slash	119	stimuli_distractor_trianglediamonds.svg	stimuli_target_circlediamonds.svg	10	yes	53	1	507
6.6.1	win	2022-12-24	13:06:33	13:15:09	514917	610021722370e2775864eb81	958235686	1	main_slash	11	advance_on_keypress_SLASH	120	stimuli_distractor_trianglediamonds.svg	stimuli_target_circlediamonds.svg	10	yes	57	0	256
6.6.1	win	2022-12-24	13:06:33	13:15:11	516256	610021722370e2775864eb81	958235686	1	main_slash	11	main_slash	121	stimuli_distractor_diamondtriangles.svg	stimuli_target_diamondcircles.svg	31	yes	53	1	464
6.6.1	win	2022-12-24	13:06:33	13:15:11	516256	610021722370e2775864eb81	958235686	1	main_slash	11	advance_on_keypress_SLASH	122	stimuli_distractor_diamondtriangles.svg	stimuli_target_diamondcircles.svg	31	yes	57	0	285
6.6.1	win	2022-12-24	13:06:33	13:15:12	517693	610021722370e2775864eb81	958235686	1	main_slash	11	main_slash	123	stimuli_target_circletriangles.svg	stimuli_distractor_trianglediamonds.svg	1	yes	53	1	533
6.6.1	win	2022-12-24	13:06:33	13:15:12	517693	610021722370e2775864eb81	958235686	1	main_slash	11	advance_on_keypress_SLASH	124	stimuli_target_circletriangles.svg	stimuli_distractor_trianglediamonds.svg	1	yes	57	0	199
6.6.1	win	2022-12-24	13:06:33	13:15:15	520504	610021722370e2775864eb81	958235686	1	main_slash	11	main_slash	125	stimuli_distractor_diamondtriangles.svg	stimuli_distractor_diamondtriangles.svg	40	no	0	1	2003
6.6.1	win	2022-12-24	13:06:33	13:15:15	520504	610021722370e2775864eb81	958235686	1	main_slash	11	advance_on_keypress_SLASH	126	stimuli_distractor_diamondtriangles.svg	stimuli_distractor_diamondtriangles.svg	40	no	57	0	317
6.6.1	win	2022-12-24	13:06:33	13:15:16	521831	610021722370e2775864eb81	958235686	1	main_slash	11	main_slash	127	stimuli_distractor_diamondtriangles.svg	stimuli_target_squaretriangles.svg	15	yes	53	1	399
6.6.1	win	2022-12-24	13:06:33	13:15:16	521831	610021722370e2775864eb81	958235686	1	main_slash	11	advance_on_keypress_SLASH	128	stimuli_distractor_diamondtriangles.svg	stimuli_target_squaretriangles.svg	15	yes	57	0	171
6.6.1	win	2022-12-24	13:06:33	13:15:19	524616	610021722370e2775864eb81	958235686	1	main_slash	11	main_slash	129	stimuli_distractor_trianglediamonds.svg	stimuli_distractor_diamondtriangles.svg	36	no	0	1	2003
6.6.1	win	2022-12-24	13:06:33	13:15:19	524616	610021722370e2775864eb81	958235686	1	main_slash	11	advance_on_keypress_SLASH	130	stimuli_distractor_trianglediamonds.svg	stimuli_distractor_diamondtriangles.svg	36	no	57	0	283
6.6.1	win	2022-12-24	13:06:33	13:15:22	527512	610021722370e2775864eb81	958235686	1	main_slash	11	main_slash	131	stimuli_distractor_diamondtriangles.svg	stimuli_distractor_trianglediamonds.svg	38	no	0	1	2003
6.6.1	win	2022-12-24	13:06:33	13:15:22	527512	610021722370e2775864eb81	958235686	1	main_slash	11	advance_on_keypress_SLASH	132	stimuli_distractor_diamondtriangles.svg	stimuli_distractor_trianglediamonds.svg	38	no	57	0	102
6.6.1	win	2022-12-24	13:06:33	13:15:23	528606	610021722370e2775864eb81	958235686	1	main_slash	11	main_slash	133	stimuli_target_squarediamonds.svg	stimuli_distractor_diamondtriangles.svg	8	yes	53	1	374
6.6.1	win	2022-12-24	13:06:33	13:15:23	528606	610021722370e2775864eb81	958235686	1	main_slash	11	advance_on_keypress_SLASH	134	stimuli_target_squarediamonds.svg	stimuli_distractor_diamondtriangles.svg	8	yes	57	0	171
6.6.1	win	2022-12-24	13:06:33	13:15:24	529796	610021722370e2775864eb81	958235686	1	main_slash	11	main_slash	135	stimuli_distractor_diamondtriangles.svg	stimuli_target_circletriangles.svg	13	yes	53	1	404
6.6.1	win	2022-12-24	13:06:33	13:15:24	529796	610021722370e2775864eb81	958235686	1	main_slash	11	advance_on_keypress_SLASH	136	stimuli_distractor_diamondtriangles.svg	stimuli_target_circletriangles.svg	13	yes	57	0	186
6.6.1	win	2022-12-24	13:06:33	13:15:26	531407	610021722370e2775864eb81	958235686	1	main_slash	11	main_slash	137	stimuli_distractor_diamondtriangles.svg	stimuli_distractor_trianglediamonds.svg	37	no	53	0	806
6.6.1	win	2022-12-24	13:06:33	13:15:26	531407	610021722370e2775864eb81	958235686	1	main_slash	11	advance_on_keypress_SLASH	138	stimuli_distractor_diamondtriangles.svg	stimuli_distractor_trianglediamonds.svg	37	no	57	0	276
6.6.1	win	2022-12-24	13:06:33	13:15:27	532690	610021722370e2775864eb81	958235686	1	main_slash	11	main_slash	139	stimuli_distractor_trianglediamonds.svg	stimuli_target_trianglesquares.svg	26	yes	53	1	389
6.6.1	win	2022-12-24	13:06:33	13:15:27	532690	610021722370e2775864eb81	958235686	1	main_slash	11	advance_on_keypress_SLASH	140	stimuli_distractor_trianglediamonds.svg	stimuli_target_trianglesquares.svg	26	yes	57	0	225
6.6.1	win	2022-12-24	13:06:33	13:15:28	534014	610021722370e2775864eb81	958235686	1	main_slash	11	main_slash	141	stimuli_distractor_trianglediamonds.svg	stimuli_target_circletriangles.svg	9	yes	53	1	484
6.6.1	win	2022-12-24	13:06:33	13:15:28	534014	610021722370e2775864eb81	958235686	1	main_slash	11	advance_on_keypress_SLASH	142	stimuli_distractor_trianglediamonds.svg	stimuli_target_circletriangles.svg	9	yes	57	0	211
6.6.1	win	2022-12-24	13:06:33	13:15:30	535232	610021722370e2775864eb81	958235686	1	main_slash	11	main_slash	143	stimuli_distractor_diamondtriangles.svg	stimuli_target_trianglesquares.svg	30	yes	53	1	396
6.6.1	win	2022-12-24	13:06:33	13:15:30	535232	610021722370e2775864eb81	958235686	1	main_slash	11	advance_on_keypress_SLASH	144	stimuli_distractor_diamondtriangles.svg	stimuli_target_trianglesquares.svg	30	yes	57	0	219
6.6.1	win	2022-12-24	13:06:33	13:15:31	536533	610021722370e2775864eb81	958235686	1	main_slash	11	main_slash	145	stimuli_target_diamondcircles.svg	stimuli_distractor_trianglediamonds.svg	19	yes	53	1	468
6.6.1	win	2022-12-24	13:06:33	13:15:31	536533	610021722370e2775864eb81	958235686	1	main_slash	11	advance_on_keypress_SLASH	146	stimuli_target_diamondcircles.svg	stimuli_distractor_trianglediamonds.svg	19	yes	57	0	189
6.6.1	win	2022-12-24	13:06:33	13:15:32	537695	610021722370e2775864eb81	958235686	1	main_slash	11	main_slash	147	stimuli_distractor_trianglediamonds.svg	stimuli_target_diamondcircles.svg	27	yes	53	1	358
6.6.1	win	2022-12-24	13:06:33	13:15:32	537695	610021722370e2775864eb81	958235686	1	main_slash	11	advance_on_keypress_SLASH	148	stimuli_distractor_trianglediamonds.svg	stimuli_target_diamondcircles.svg	27	yes	57	0	181
6.6.1	win	2022-12-24	13:06:33	13:15:33	538928	610021722370e2775864eb81	958235686	1	main_slash	11	main_slash	149	stimuli_target_squaretriangles.svg	stimuli_distractor_trianglediamonds.svg	3	yes	53	1	437
6.6.1	win	2022-12-24	13:06:33	13:15:33	538928	610021722370e2775864eb81	958235686	1	main_slash	11	advance_on_keypress_SLASH	150	stimuli_target_squaretriangles.svg	stimuli_distractor_trianglediamonds.svg	3	yes	57	0	125
6.6.1	win	2022-12-24	13:06:33	13:15:34	540032	610021722370e2775864eb81	958235686	1	main_slash	11	main_slash	151	stimuli_distractor_trianglediamonds.svg	stimuli_target_trianglecircles.svg	25	yes	53	1	361
6.6.1	win	2022-12-24	13:06:33	13:15:34	540032	610021722370e2775864eb81	958235686	1	main_slash	11	advance_on_keypress_SLASH	152	stimuli_distractor_trianglediamonds.svg	stimuli_target_trianglecircles.svg	25	yes	57	0	188
6.6.1	win	2022-12-24	13:06:33	13:15:36	541188	610021722370e2775864eb81	958235686	1	main_slash	11	main_slash	153	stimuli_distractor_diamondtriangles.svg	stimuli_target_diamondsquares.svg	32	yes	53	1	352
6.6.1	win	2022-12-24	13:06:33	13:15:36	541188	610021722370e2775864eb81	958235686	1	main_slash	11	advance_on_keypress_SLASH	154	stimuli_distractor_diamondtriangles.svg	stimuli_target_diamondsquares.svg	32	yes	57	0	177
6.6.1	win	2022-12-24	13:06:33	13:15:37	542349	610021722370e2775864eb81	958235686	1	main_slash	11	main_slash	155	stimuli_target_trianglecircles.svg	stimuli_distractor_diamondtriangles.svg	21	yes	53	1	373
6.6.1	win	2022-12-24	13:06:33	13:15:37	542349	610021722370e2775864eb81	958235686	1	main_slash	11	advance_on_keypress_SLASH	156	stimuli_target_trianglecircles.svg	stimuli_distractor_diamondtriangles.svg	21	yes	57	0	390
6.6.1	win	2022-12-24	13:06:33	13:15:38	543820	610021722370e2775864eb81	958235686	1	main_slash	11	main_slash	157	stimuli_distractor_diamondtriangles.svg	stimuli_target_circlediamonds.svg	14	yes	53	1	461
6.6.1	win	2022-12-24	13:06:33	13:15:38	543820	610021722370e2775864eb81	958235686	1	main_slash	11	advance_on_keypress_SLASH	158	stimuli_distractor_diamondtriangles.svg	stimuli_target_circlediamonds.svg	14	yes	57	0	504
6.6.1	win	2022-12-24	13:06:33	13:15:40	545275	610021722370e2775864eb81	958235686	1	main_slash	11	main_slash	159	stimuli_distractor_diamondtriangles.svg	stimuli_target_squarediamonds.svg	16	yes	53	1	341
6.6.1	win	2022-12-24	13:06:33	13:15:40	545275	610021722370e2775864eb81	958235686	1	main_slash	11	advance_on_keypress_SLASH	160	stimuli_distractor_diamondtriangles.svg	stimuli_target_squarediamonds.svg	16	yes	57	0	315