build	computer.platform	date	time	timestamp	time_elapsed_ms	subject	group	session	blockcode	blocknum	trialcode	trialnum	stimulus_left	stimulus_right	stim_index	target_present	response	correct	latency
6.6.1	win	2022-12-14	14:49:54	14:57:28	452498	5a04869ff2e3460001edad2e	726999024	1	practice_z	5	practice_z	1	stimuli_target_squarediamonds.svg	stimuli_distractor_trianglediamonds.svg	5	yes	44	1	714
6.6.1	win	2022-12-14	14:49:54	14:57:28	452498	5a04869ff2e3460001edad2e	726999024	1	practice_z	5	advance_on_keypress_ZEE	2	stimuli_target_squarediamonds.svg	stimuli_distractor_trianglediamonds.svg	5	yes	57	0	820
6.6.1	win	2022-12-14	14:49:54	14:57:32	456026	5a04869ff2e3460001edad2e	726999024	1	practice_z	5	practice_z	3	stimuli_distractor_diamondtriangles.svg	stimuli_target_trianglecircles.svg	9	yes	44	1	1058
6.6.1	win	2022-12-14	14:49:54	14:57:32	456026	5a04869ff2e3460001edad2e	726999024	1	practice_z	5	advance_on_keypress_ZEE	4	stimuli_distractor_diamondtriangles.svg	stimuli_target_trianglecircles.svg	9	yes	57	0	512
6.6.1	win	2022-12-14	14:49:54	14:57:35	459667	5a04869ff2e3460001edad2e	726999024	1	practice_z	5	practice_z	5	stimuli_distractor_trianglediamonds.svg	stimuli_target_circlediamonds.svg	10	yes	44	1	1483
6.6.1	win	2022-12-14	14:49:54	14:57:35	459667	5a04869ff2e3460001edad2e	726999024	1	practice_z	5	advance_on_keypress_ZEE	6	stimuli_distractor_trianglediamonds.svg	stimuli_target_circlediamonds.svg	10	yes	57	0	990
6.6.1	win	2022-12-14	14:49:54	14:57:39	463185	5a04869ff2e3460001edad2e	726999024	1	practice_z	5	practice_z	7	stimuli_target_circlediamonds.svg	stimuli_distractor_diamondtriangles.svg	1	yes	44	1	885
6.6.1	win	2022-12-14	14:49:54	14:57:39	463185	5a04869ff2e3460001edad2e	726999024	1	practice_z	5	advance_on_keypress_ZEE	8	stimuli_target_circlediamonds.svg	stimuli_distractor_diamondtriangles.svg	1	yes	57	0	537
6.6.1	win	2022-12-14	14:49:54	14:57:42	466025	5a04869ff2e3460001edad2e	726999024	1	practice_z	5	practice_z	9	stimuli_distractor_trianglediamonds.svg	stimuli_target_squarediamonds.svg	11	yes	44	1	658
6.6.1	win	2022-12-14	14:49:54	14:57:42	466025	5a04869ff2e3460001edad2e	726999024	1	practice_z	5	advance_on_keypress_ZEE	10	stimuli_distractor_trianglediamonds.svg	stimuli_target_squarediamonds.svg	11	yes	57	0	528
6.6.1	win	2022-12-14	14:49:54	14:57:46	470188	5a04869ff2e3460001edad2e	726999024	1	practice_z	5	practice_z	11	stimuli_distractor_trianglediamonds.svg	stimuli_distractor_diamondtriangles.svg	16	no	0	1	2000
6.6.1	win	2022-12-14	14:49:54	14:57:46	470188	5a04869ff2e3460001edad2e	726999024	1	practice_z	5	advance_on_keypress_ZEE	12	stimuli_distractor_trianglediamonds.svg	stimuli_distractor_diamondtriangles.svg	16	no	57	0	449
6.6.1	win	2022-12-14	14:49:54	14:57:50	474284	5a04869ff2e3460001edad2e	726999024	1	practice_z	5	practice_z	13	stimuli_distractor_diamondtriangles.svg	stimuli_distractor_diamondtriangles.svg	13	no	0	1	2000
6.6.1	win	2022-12-14	14:49:54	14:57:50	474284	5a04869ff2e3460001edad2e	726999024	1	practice_z	5	advance_on_keypress_ZEE	14	stimuli_distractor_diamondtriangles.svg	stimuli_distractor_diamondtriangles.svg	13	no	57	0	493
6.6.1	win	2022-12-14	14:49:54	14:57:53	477914	5a04869ff2e3460001edad2e	726999024	1	practice_z	5	practice_z	15	stimuli_distractor_diamondtriangles.svg	stimuli_distractor_trianglediamonds.svg	14	no	44	0	1496
6.6.1	win	2022-12-14	14:49:54	14:57:53	477914	5a04869ff2e3460001edad2e	726999024	1	practice_z	5	advance_on_keypress_ZEE	16	stimuli_distractor_diamondtriangles.svg	stimuli_distractor_trianglediamonds.svg	14	no	57	0	452
6.6.1	win	2022-12-14	14:49:54	14:57:58	482017	5a04869ff2e3460001edad2e	726999024	1	practice_z	5	practice_z	17	stimuli_distractor_trianglediamonds.svg	stimuli_distractor_trianglediamonds.svg	15	no	0	1	2000
6.6.1	win	2022-12-14	14:49:54	14:57:58	482017	5a04869ff2e3460001edad2e	726999024	1	practice_z	5	advance_on_keypress_ZEE	18	stimuli_distractor_trianglediamonds.svg	stimuli_distractor_trianglediamonds.svg	15	no	57	0	448
6.6.1	win	2022-12-14	14:49:54	14:58:01	485065	5a04869ff2e3460001edad2e	726999024	1	practice_z	5	practice_z	19	stimuli_distractor_diamondtriangles.svg	stimuli_target_diamondcircles.svg	8	yes	44	1	949
6.6.1	win	2022-12-14	14:49:54	14:58:01	485065	5a04869ff2e3460001edad2e	726999024	1	practice_z	5	advance_on_keypress_ZEE	20	stimuli_distractor_diamondtriangles.svg	stimuli_target_diamondcircles.svg	8	yes	57	0	437
6.6.1	win	2022-12-14	14:49:54	14:58:03	487873	5a04869ff2e3460001edad2e	726999024	1	practice_z	5	practice_z	21	stimuli_distractor_diamondtriangles.svg	stimuli_target_circletriangles.svg	7	yes	44	1	723
6.6.1	win	2022-12-14	14:49:54	14:58:03	487873	5a04869ff2e3460001edad2e	726999024	1	practice_z	5	advance_on_keypress_ZEE	22	stimuli_distractor_diamondtriangles.svg	stimuli_target_circletriangles.svg	7	yes	57	0	406
6.6.1	win	2022-12-14	14:49:54	14:58:06	490745	5a04869ff2e3460001edad2e	726999024	1	practice_z	5	practice_z	23	stimuli_target_squarediamonds.svg	stimuli_distractor_diamondtriangles.svg	2	yes	44	1	829
6.6.1	win	2022-12-14	14:49:54	14:58:06	490745	5a04869ff2e3460001edad2e	726999024	1	practice_z	5	advance_on_keypress_ZEE	24	stimuli_target_squarediamonds.svg	stimuli_distractor_diamondtriangles.svg	2	yes	57	0	435
6.6.1	win	2022-12-14	14:49:54	14:58:09	493794	5a04869ff2e3460001edad2e	726999024	1	practice_z	5	practice_z	25	stimuli_target_diamondsquares.svg	stimuli_distractor_diamondtriangles.svg	3	yes	44	1	977
6.6.1	win	2022-12-14	14:49:54	14:58:09	493794	5a04869ff2e3460001edad2e	726999024	1	practice_z	5	advance_on_keypress_ZEE	26	stimuli_target_diamondsquares.svg	stimuli_distractor_diamondtriangles.svg	3	yes	57	0	801
6.6.1	win	2022-12-14	14:49:54	14:58:13	497130	5a04869ff2e3460001edad2e	726999024	1	practice_z	5	practice_z	27	stimuli_target_diamondsquares.svg	stimuli_distractor_trianglediamonds.svg	6	yes	44	1	896
6.6.1	win	2022-12-14	14:49:54	14:58:13	497130	5a04869ff2e3460001edad2e	726999024	1	practice_z	5	advance_on_keypress_ZEE	28	stimuli_target_diamondsquares.svg	stimuli_distractor_trianglediamonds.svg	6	yes	57	0	434
6.6.1	win	2022-12-14	14:49:54	14:58:16	500042	5a04869ff2e3460001edad2e	726999024	1	practice_z	5	practice_z	29	stimuli_distractor_trianglediamonds.svg	stimuli_target_diamondcircles.svg	12	yes	44	1	825
6.6.1	win	2022-12-14	14:49:54	14:58:16	500042	5a04869ff2e3460001edad2e	726999024	1	practice_z	5	advance_on_keypress_ZEE	30	stimuli_distractor_trianglediamonds.svg	stimuli_target_diamondcircles.svg	12	yes	57	0	431
6.6.1	win	2022-12-14	14:49:54	14:58:19	502985	5a04869ff2e3460001edad2e	726999024	1	practice_z	5	practice_z	31	stimuli_target_circlediamonds.svg	stimuli_distractor_trianglediamonds.svg	4	yes	44	1	869
6.6.1	win	2022-12-14	14:49:54	14:58:19	502985	5a04869ff2e3460001edad2e	726999024	1	practice_z	5	advance_on_keypress_ZEE	32	stimuli_target_circlediamonds.svg	stimuli_distractor_trianglediamonds.svg	4	yes	57	0	488
6.6.1	win	2022-12-14	14:49:54	14:58:35	519716	5a04869ff2e3460001edad2e	726999024	1	main_z	7	main_z	1	stimuli_distractor_diamondtriangles.svg	stimuli_distractor_diamondtriangles.svg	39	no	0	1	2000
6.6.1	win	2022-12-14	14:49:54	14:58:35	519716	5a04869ff2e3460001edad2e	726999024	1	main_z	7	advance_on_keypress_ZEE	2	stimuli_distractor_diamondtriangles.svg	stimuli_distractor_diamondtriangles.svg	39	no	57	0	795
6.6.1	win	2022-12-14	14:49:54	14:58:37	521679	5a04869ff2e3460001edad2e	726999024	1	main_z	7	main_z	3	stimuli_target_circlediamonds.svg	stimuli_distractor_trianglediamonds.svg	2	yes	44	1	530
6.6.1	win	2022-12-14	14:49:54	14:58:37	521679	5a04869ff2e3460001edad2e	726999024	1	main_z	7	advance_on_keypress_ZEE	4	stimuli_target_circlediamonds.svg	stimuli_distractor_trianglediamonds.svg	2	yes	57	0	804
6.6.1	win	2022-12-14	14:49:54	14:58:39	523848	5a04869ff2e3460001edad2e	726999024	1	main_z	7	main_z	5	stimuli_target_diamondsquares.svg	stimuli_distractor_diamondtriangles.svg	24	yes	44	1	715
6.6.1	win	2022-12-14	14:49:54	14:58:39	523848	5a04869ff2e3460001edad2e	726999024	1	main_z	7	advance_on_keypress_ZEE	6	stimuli_target_diamondsquares.svg	stimuli_distractor_diamondtriangles.svg	24	yes	57	0	606
6.6.1	win	2022-12-14	14:49:54	14:58:43	527099	5a04869ff2e3460001edad2e	726999024	1	main_z	7	main_z	7	stimuli_distractor_trianglediamonds.svg	stimuli_distractor_diamondtriangles.svg	35	no	0	1	2000
6.6.1	win	2022-12-14	14:49:54	14:58:43	527099	5a04869ff2e3460001edad2e	726999024	1	main_z	7	advance_on_keypress_ZEE	8	stimuli_distractor_trianglediamonds.svg	stimuli_distractor_diamondtriangles.svg	35	no	57	0	540
6.6.1	win	2022-12-14	14:49:54	14:58:45	529056	5a04869ff2e3460001edad2e	726999024	1	main_z	7	main_z	9	stimuli_target_squaretriangles.svg	stimuli_distractor_trianglediamonds.svg	3	yes	44	1	773
6.6.1	win	2022-12-14	14:49:54	14:58:45	529056	5a04869ff2e3460001edad2e	726999024	1	main_z	7	advance_on_keypress_ZEE	10	stimuli_target_squaretriangles.svg	stimuli_distractor_trianglediamonds.svg	3	yes	57	0	542
6.6.1	win	2022-12-14	14:49:54	14:58:47	530976	5a04869ff2e3460001edad2e	726999024	1	main_z	7	main_z	11	stimuli_distractor_diamondtriangles.svg	stimuli_target_squarediamonds.svg	16	yes	44	1	744
6.6.1	win	2022-12-14	14:49:54	14:58:47	530976	5a04869ff2e3460001edad2e	726999024	1	main_z	7	advance_on_keypress_ZEE	12	stimuli_distractor_diamondtriangles.svg	stimuli_target_squarediamonds.svg	16	yes	57	0	377
6.6.1	win	2022-12-14	14:49:54	14:58:48	532840	5a04869ff2e3460001edad2e	726999024	1	main_z	7	main_z	13	stimuli_distractor_diamondtriangles.svg	stimuli_target_trianglesquares.svg	30	yes	44	1	857
6.6.1	win	2022-12-14	14:49:54	14:58:48	532840	5a04869ff2e3460001edad2e	726999024	1	main_z	7	advance_on_keypress_ZEE	14	stimuli_distractor_diamondtriangles.svg	stimuli_target_trianglesquares.svg	30	yes	57	0	446
6.6.1	win	2022-12-14	14:49:54	14:58:50	534800	5a04869ff2e3460001edad2e	726999024	1	main_z	7	main_z	15	stimuli_distractor_trianglediamonds.svg	stimuli_target_trianglesquares.svg	26	yes	44	1	885
6.6.1	win	2022-12-14	14:49:54	14:58:50	534800	5a04869ff2e3460001edad2e	726999024	1	main_z	7	advance_on_keypress_ZEE	16	stimuli_distractor_trianglediamonds.svg	stimuli_target_trianglesquares.svg	26	yes	57	0	432
6.6.1	win	2022-12-14	14:49:54	14:58:53	537882	5a04869ff2e3460001edad2e	726999024	1	main_z	7	main_z	17	stimuli_target_squarediamonds.svg	stimuli_distractor_trianglediamonds.svg	4	yes	0	0	2000
6.6.1	win	2022-12-14	14:49:54	14:58:53	537882	5a04869ff2e3460001edad2e	726999024	1	main_z	7	advance_on_keypress_ZEE	18	stimuli_target_squarediamonds.svg	stimuli_distractor_trianglediamonds.svg	4	yes	57	0	596
6.6.1	win	2022-12-14	14:49:54	14:58:57	541132	5a04869ff2e3460001edad2e	726999024	1	main_z	7	main_z	19	stimuli_distractor_diamondtriangles.svg	stimuli_distractor_diamondtriangles.svg	40	no	0	1	2000
6.6.1	win	2022-12-14	14:49:54	14:58:57	541132	5a04869ff2e3460001edad2e	726999024	1	main_z	7	advance_on_keypress_ZEE	20	stimuli_distractor_diamondtriangles.svg	stimuli_distractor_diamondtriangles.svg	40	no	57	0	410
6.6.1	win	2022-12-14	14:49:54	14:58:59	543088	5a04869ff2e3460001edad2e	726999024	1	main_z	7	main_z	21	stimuli_distractor_trianglediamonds.svg	stimuli_target_diamondcircles.svg	27	yes	44	1	872
6.6.1	win	2022-12-14	14:49:54	14:58:59	543088	5a04869ff2e3460001edad2e	726999024	1	main_z	7	advance_on_keypress_ZEE	22	stimuli_distractor_trianglediamonds.svg	stimuli_target_diamondcircles.svg	27	yes	57	0	364
6.6.1	win	2022-12-14	14:49:54	14:59:01	544984	5a04869ff2e3460001edad2e	726999024	1	main_z	7	main_z	23	stimuli_target_squaretriangles.svg	stimuli_distractor_diamondtriangles.svg	7	yes	44	1	884
6.6.1	win	2022-12-14	14:49:54	14:59:01	544984	5a04869ff2e3460001edad2e	726999024	1	main_z	7	advance_on_keypress_ZEE	24	stimuli_target_squaretriangles.svg	stimuli_distractor_diamondtriangles.svg	7	yes	57	0	368
6.6.1	win	2022-12-14	14:49:54	14:59:02	546848	5a04869ff2e3460001edad2e	726999024	1	main_z	7	main_z	25	stimuli_target_diamondsquares.svg	stimuli_distractor_trianglediamonds.svg	20	yes	44	1	848
6.6.1	win	2022-12-14	14:49:54	14:59:02	546848	5a04869ff2e3460001edad2e	726999024	1	main_z	7	advance_on_keypress_ZEE	26	stimuli_target_diamondsquares.svg	stimuli_distractor_trianglediamonds.svg	20	yes	57	0	278
6.6.1	win	2022-12-14	14:49:54	14:59:04	548552	5a04869ff2e3460001edad2e	726999024	1	main_z	7	main_z	27	stimuli_target_trianglesquares.svg	stimuli_distractor_diamondtriangles.svg	22	yes	44	1	786
6.6.1	win	2022-12-14	14:49:54	14:59:04	548552	5a04869ff2e3460001edad2e	726999024	1	main_z	7	advance_on_keypress_ZEE	28	stimuli_target_trianglesquares.svg	stimuli_distractor_diamondtriangles.svg	22	yes	57	0	250
6.6.1	win	2022-12-14	14:49:54	14:59:06	550287	5a04869ff2e3460001edad2e	726999024	1	main_z	7	main_z	29	stimuli_distractor_diamondtriangles.svg	stimuli_target_trianglecircles.svg	29	yes	44	1	838
6.6.1	win	2022-12-14	14:49:54	14:59:06	550287	5a04869ff2e3460001edad2e	726999024	1	main_z	7	advance_on_keypress_ZEE	30	stimuli_distractor_diamondtriangles.svg	stimuli_target_trianglecircles.svg	29	yes	57	0	244
6.6.1	win	2022-12-14	14:49:54	14:59:07	551936	5a04869ff2e3460001edad2e	726999024	1	main_z	7	main_z	31	stimuli_target_circletriangles.svg	stimuli_distractor_diamondtriangles.svg	5	yes	44	1	770
6.6.1	win	2022-12-14	14:49:54	14:59:07	551936	5a04869ff2e3460001edad2e	726999024	1	main_z	7	advance_on_keypress_ZEE	32	stimuli_target_circletriangles.svg	stimuli_distractor_diamondtriangles.svg	5	yes	57	0	258
6.6.1	win	2022-12-14	14:49:54	14:59:09	553720	5a04869ff2e3460001edad2e	726999024	1	main_z	7	main_z	33	stimuli_target_circletriangles.svg	stimuli_distractor_trianglediamonds.svg	1	yes	44	1	887
6.6.1	win	2022-12-14	14:49:54	14:59:09	553720	5a04869ff2e3460001edad2e	726999024	1	main_z	7	advance_on_keypress_ZEE	34	stimuli_target_circletriangles.svg	stimuli_distractor_trianglediamonds.svg	1	yes	57	0	275
6.6.1	win	2022-12-14	14:49:54	14:59:11	555392	5a04869ff2e3460001edad2e	726999024	1	main_z	7	main_z	35	stimuli_target_squarediamonds.svg	stimuli_distractor_diamondtriangles.svg	8	yes	44	1	759
6.6.1	win	2022-12-14	14:49:54	14:59:11	555392	5a04869ff2e3460001edad2e	726999024	1	main_z	7	advance_on_keypress_ZEE	36	stimuli_target_squarediamonds.svg	stimuli_distractor_diamondtriangles.svg	8	yes	57	0	264
6.6.1	win	2022-12-14	14:49:54	14:59:13	557055	5a04869ff2e3460001edad2e	726999024	1	main_z	7	main_z	37	stimuli_distractor_diamondtriangles.svg	stimuli_target_circlediamonds.svg	14	yes	44	1	756
6.6.1	win	2022-12-14	14:49:54	14:59:13	557055	5a04869ff2e3460001edad2e	726999024	1	main_z	7	advance_on_keypress_ZEE	38	stimuli_distractor_diamondtriangles.svg	stimuli_target_circlediamonds.svg	14	yes	57	0	270
6.6.1	win	2022-12-14	14:49:54	14:59:15	559111	5a04869ff2e3460001edad2e	726999024	1	main_z	7	main_z	39	stimuli_target_trianglesquares.svg	stimuli_distractor_trianglediamonds.svg	18	yes	44	1	1146
6.6.1	win	2022-12-14	14:49:54	14:59:15	559111	5a04869ff2e3460001edad2e	726999024	1	main_z	7	advance_on_keypress_ZEE	40	stimuli_target_trianglesquares.svg	stimuli_distractor_trianglediamonds.svg	18	yes	57	0	269
6.6.1	win	2022-12-14	14:49:54	14:59:17	561351	5a04869ff2e3460001edad2e	726999024	1	main_z	7	main_z	41	stimuli_distractor_diamondtriangles.svg	stimuli_distractor_trianglediamonds.svg	38	no	44	0	1336
6.6.1	win	2022-12-14	14:49:54	14:59:17	561351	5a04869ff2e3460001edad2e	726999024	1	main_z	7	advance_on_keypress_ZEE	42	stimuli_distractor_diamondtriangles.svg	stimuli_distractor_trianglediamonds.svg	38	no	57	0	282
6.6.1	win	2022-12-14	14:49:54	14:59:19	563351	5a04869ff2e3460001edad2e	726999024	1	main_z	7	main_z	43	stimuli_distractor_trianglediamonds.svg	stimuli_target_circlediamonds.svg	10	yes	44	1	1069
6.6.1	win	2022-12-14	14:49:54	14:59:19	563351	5a04869ff2e3460001edad2e	726999024	1	main_z	7	advance_on_keypress_ZEE	44	stimuli_distractor_trianglediamonds.svg	stimuli_target_circlediamonds.svg	10	yes	57	0	250
6.6.1	win	2022-12-14	14:49:54	14:59:21	565560	5a04869ff2e3460001edad2e	726999024	1	main_z	7	main_z	45	stimuli_distractor_trianglediamonds.svg	stimuli_target_diamondsquares.svg	28	yes	44	1	1310
6.6.1	win	2022-12-14	14:49:54	14:59:21	565560	5a04869ff2e3460001edad2e	726999024	1	main_z	7	advance_on_keypress_ZEE	46	stimuli_distractor_trianglediamonds.svg	stimuli_target_diamondsquares.svg	28	yes	57	0	282
6.6.1	win	2022-12-14	14:49:54	14:59:23	567336	5a04869ff2e3460001edad2e	726999024	1	main_z	7	main_z	47	stimuli_target_trianglecircles.svg	stimuli_distractor_diamondtriangles.svg	21	yes	44	1	853
6.6.1	win	2022-12-14	14:49:54	14:59:23	567336	5a04869ff2e3460001edad2e	726999024	1	main_z	7	advance_on_keypress_ZEE	48	stimuli_target_trianglecircles.svg	stimuli_distractor_diamondtriangles.svg	21	yes	57	0	250
6.6.1	win	2022-12-14	14:49:54	14:59:25	569079	5a04869ff2e3460001edad2e	726999024	1	main_z	7	main_z	49	stimuli_distractor_diamondtriangles.svg	stimuli_target_circletriangles.svg	13	yes	44	1	847
6.6.1	win	2022-12-14	14:49:54	14:59:25	569079	5a04869ff2e3460001edad2e	726999024	1	main_z	7	advance_on_keypress_ZEE	50	stimuli_distractor_diamondtriangles.svg	stimuli_target_circletriangles.svg	13	yes	57	0	260
6.6.1	win	2022-12-14	14:49:54	14:59:26	570927	5a04869ff2e3460001edad2e	726999024	1	main_z	7	main_z	51	stimuli_target_diamondcircles.svg	stimuli_distractor_trianglediamonds.svg	19	yes	44	1	945
6.6.1	win	2022-12-14	14:49:54	14:59:26	570927	5a04869ff2e3460001edad2e	726999024	1	main_z	7	advance_on_keypress_ZEE	52	stimuli_target_diamondcircles.svg	stimuli_distractor_trianglediamonds.svg	19	yes	57	0	283
6.6.1	win	2022-12-14	14:49:54	14:59:28	572640	5a04869ff2e3460001edad2e	726999024	1	main_z	7	main_z	53	stimuli_distractor_trianglediamonds.svg	stimuli_target_squarediamonds.svg	12	yes	44	1	791
6.6.1	win	2022-12-14	14:49:54	14:59:28	572640	5a04869ff2e3460001edad2e	726999024	1	main_z	7	advance_on_keypress_ZEE	54	stimuli_distractor_trianglediamonds.svg	stimuli_target_squarediamonds.svg	12	yes	57	0	222
6.6.1	win	2022-12-14	14:49:54	14:59:30	574711	5a04869ff2e3460001edad2e	726999024	1	main_z	7	main_z	55	stimuli_distractor_trianglediamonds.svg	stimuli_distractor_diamondtriangles.svg	36	no	44	0	1212
6.6.1	win	2022-12-14	14:49:54	14:59:30	574711	5a04869ff2e3460001edad2e	726999024	1	main_z	7	advance_on_keypress_ZEE	56	stimuli_distractor_trianglediamonds.svg	stimuli_distractor_diamondtriangles.svg	36	no	57	0	436
6.6.1	win	2022-12-14	14:49:54	14:59:32	576826	5a04869ff2e3460001edad2e	726999024	1	main_z	7	main_z	57	stimuli_distractor_diamondtriangles.svg	stimuli_distractor_trianglediamonds.svg	37	no	44	0	1041
6.6.1	win	2022-12-14	14:49:54	14:59:32	576826	5a04869ff2e3460001edad2e	726999024	1	main_z	7	advance_on_keypress_ZEE	58	stimuli_distractor_diamondtriangles.svg	stimuli_distractor_trianglediamonds.svg	37	no	57	0	391
6.6.1	win	2022-12-14	14:49:54	14:59:34	578855	5a04869ff2e3460001edad2e	726999024	1	main_z	7	main_z	59	stimuli_distractor_trianglediamonds.svg	stimuli_target_trianglecircles.svg	25	yes	44	1	890
6.6.1	win	2022-12-14	14:49:54	14:59:34	578855	5a04869ff2e3460001edad2e	726999024	1	main_z	7	advance_on_keypress_ZEE	60	stimuli_distractor_trianglediamonds.svg	stimuli_target_trianglecircles.svg	25	yes	57	0	238
6.6.1	win	2022-12-14	14:49:54	14:59:36	580568	5a04869ff2e3460001edad2e	726999024	1	main_z	7	main_z	61	stimuli_target_diamondcircles.svg	stimuli_distractor_diamondtriangles.svg	23	yes	44	1	835
6.6.1	win	2022-12-14	14:49:54	14:59:36	580568	5a04869ff2e3460001edad2e	726999024	1	main_z	7	advance_on_keypress_ZEE	62	stimuli_target_diamondcircles.svg	stimuli_distractor_diamondtriangles.svg	23	yes	57	0	241
6.6.1	win	2022-12-14	14:49:54	14:59:39	583449	5a04869ff2e3460001edad2e	726999024	1	main_z	7	main_z	63	stimuli_distractor_trianglediamonds.svg	stimuli_distractor_trianglediamonds.svg	33	no	0	1	2000
6.6.1	win	2022-12-14	14:49:54	14:59:39	583449	5a04869ff2e3460001edad2e	726999024	1	main_z	7	advance_on_keypress_ZEE	64	stimuli_distractor_trianglediamonds.svg	stimuli_distractor_trianglediamonds.svg	33	no	57	0	446
6.6.1	win	2022-12-14	14:49:54	14:59:41	585359	5a04869ff2e3460001edad2e	726999024	1	main_z	7	main_z	65	stimuli_target_circlediamonds.svg	stimuli_distractor_diamondtriangles.svg	6	yes	44	1	827
6.6.1	win	2022-12-14	14:49:54	14:59:41	585359	5a04869ff2e3460001edad2e	726999024	1	main_z	7	advance_on_keypress_ZEE	66	stimuli_target_circlediamonds.svg	stimuli_distractor_diamondtriangles.svg	6	yes	57	0	250
6.6.1	win	2022-12-14	14:49:54	14:59:43	587095	5a04869ff2e3460001edad2e	726999024	1	main_z	7	main_z	67	stimuli_distractor_diamondtriangles.svg	stimuli_target_diamondsquares.svg	32	yes	44	1	844
6.6.1	win	2022-12-14	14:49:54	14:59:43	587095	5a04869ff2e3460001edad2e	726999024	1	main_z	7	advance_on_keypress_ZEE	68	stimuli_distractor_diamondtriangles.svg	stimuli_target_diamondsquares.svg	32	yes	57	0	268
6.6.1	win	2022-12-14	14:49:54	14:59:44	588855	5a04869ff2e3460001edad2e	726999024	1	main_z	7	main_z	69	stimuli_distractor_trianglediamonds.svg	stimuli_target_circletriangles.svg	9	yes	44	1	856
6.6.1	win	2022-12-14	14:49:54	14:59:44	588855	5a04869ff2e3460001edad2e	726999024	1	main_z	7	advance_on_keypress_ZEE	70	stimuli_distractor_trianglediamonds.svg	stimuli_target_circletriangles.svg	9	yes	57	0	286
6.6.1	win	2022-12-14	14:49:54	14:59:46	590791	5a04869ff2e3460001edad2e	726999024	1	main_z	7	main_z	71	stimuli_distractor_trianglediamonds.svg	stimuli_target_squaretriangles.svg	11	yes	44	1	1009
6.6.1	win	2022-12-14	14:49:54	14:59:46	590791	5a04869ff2e3460001edad2e	726999024	1	main_z	7	advance_on_keypress_ZEE	72	stimuli_distractor_trianglediamonds.svg	stimuli_target_squaretriangles.svg	11	yes	57	0	256
6.6.1	win	2022-12-14	14:49:54	14:59:48	592599	5a04869ff2e3460001edad2e	726999024	1	main_z	7	main_z	73	stimuli_distractor_diamondtriangles.svg	stimuli_target_diamondcircles.svg	31	yes	44	1	917
6.6.1	win	2022-12-14	14:49:54	14:59:48	592599	5a04869ff2e3460001edad2e	726999024	1	main_z	7	advance_on_keypress_ZEE	74	stimuli_distractor_diamondtriangles.svg	stimuli_target_diamondcircles.svg	31	yes	57	0	256
6.6.1	win	2022-12-14	14:49:54	14:59:50	594375	5a04869ff2e3460001edad2e	726999024	1	main_z	7	main_z	75	stimuli_target_trianglecircles.svg	stimuli_distractor_trianglediamonds.svg	17	yes	44	1	876
6.6.1	win	2022-12-14	14:49:54	14:59:50	594375	5a04869ff2e3460001edad2e	726999024	1	main_z	7	advance_on_keypress_ZEE	76	stimuli_target_trianglecircles.svg	stimuli_distractor_trianglediamonds.svg	17	yes	57	0	297
6.6.1	win	2022-12-14	14:49:54	14:59:53	597299	5a04869ff2e3460001edad2e	726999024	1	main_z	7	main_z	77	stimuli_distractor_trianglediamonds.svg	stimuli_distractor_trianglediamonds.svg	34	no	0	1	2000
6.6.1	win	2022-12-14	14:49:54	14:59:53	597299	5a04869ff2e3460001edad2e	726999024	1	main_z	7	advance_on_keypress_ZEE	78	stimuli_distractor_trianglediamonds.svg	stimuli_distractor_trianglediamonds.svg	34	no	57	0	548
6.6.1	win	2022-12-14	14:49:54	14:59:55	599247	5a04869ff2e3460001edad2e	726999024	1	main_z	7	main_z	79	stimuli_distractor_diamondtriangles.svg	stimuli_target_squaretriangles.svg	15	yes	44	1	748
6.6.1	win	2022-12-14	14:49:54	14:59:55	599247	5a04869ff2e3460001edad2e	726999024	1	main_z	7	advance_on_keypress_ZEE	80	stimuli_distractor_diamondtriangles.svg	stimuli_target_squaretriangles.svg	15	yes	57	0	294
6.6.1	win	2022-12-14	14:49:54	14:59:57	601056	5a04869ff2e3460001edad2e	726999024	1	main_z	7	main_z	81	stimuli_target_trianglesquares.svg	stimuli_distractor_trianglediamonds.svg	18	yes	44	1	873
6.6.1	win	2022-12-14	14:49:54	14:59:57	601056	5a04869ff2e3460001edad2e	726999024	1	main_z	7	advance_on_keypress_ZEE	82	stimuli_target_trianglesquares.svg	stimuli_distractor_trianglediamonds.svg	18	yes	57	0	270
6.6.1	win	2022-12-14	14:49:54	15:00:00	603965	5a04869ff2e3460001edad2e	726999024	1	main_z	7	main_z	83	stimuli_distractor_diamondtriangles.svg	stimuli_distractor_diamondtriangles.svg	39	no	0	1	2000
6.6.1	win	2022-12-14	14:49:54	15:00:00	603965	5a04869ff2e3460001edad2e	726999024	1	main_z	7	advance_on_keypress_ZEE	84	stimuli_distractor_diamondtriangles.svg	stimuli_distractor_diamondtriangles.svg	39	no	57	0	497
6.6.1	win	2022-12-14	14:49:54	15:00:03	607099	5a04869ff2e3460001edad2e	726999024	1	main_z	7	main_z	85	stimuli_distractor_diamondtriangles.svg	stimuli_distractor_diamondtriangles.svg	40	no	0	1	2000
6.6.1	win	2022-12-14	14:49:54	15:00:03	607099	5a04869ff2e3460001edad2e	726999024	1	main_z	7	advance_on_keypress_ZEE	86	stimuli_distractor_diamondtriangles.svg	stimuli_distractor_diamondtriangles.svg	40	no	57	0	428
6.6.1	win	2022-12-14	14:49:54	15:00:05	609055	5a04869ff2e3460001edad2e	726999024	1	main_z	7	main_z	87	stimuli_target_circlediamonds.svg	stimuli_distractor_trianglediamonds.svg	2	yes	44	1	890
6.6.1	win	2022-12-14	14:49:54	15:00:05	609055	5a04869ff2e3460001edad2e	726999024	1	main_z	7	advance_on_keypress_ZEE	88	stimuli_target_circlediamonds.svg	stimuli_distractor_trianglediamonds.svg	2	yes	57	0	342
6.6.1	win	2022-12-14	14:49:54	15:00:07	610952	5a04869ff2e3460001edad2e	726999024	1	main_z	7	main_z	89	stimuli_target_trianglecircles.svg	stimuli_distractor_diamondtriangles.svg	21	yes	44	1	919
6.6.1	win	2022-12-14	14:49:54	15:00:07	610952	5a04869ff2e3460001edad2e	726999024	1	main_z	7	advance_on_keypress_ZEE	90	stimuli_target_trianglecircles.svg	stimuli_distractor_diamondtriangles.svg	21	yes	57	0	322
6.6.1	win	2022-12-14	14:49:54	15:00:08	612895	5a04869ff2e3460001edad2e	726999024	1	main_z	7	main_z	91	stimuli_distractor_trianglediamonds.svg	stimuli_target_squaretriangles.svg	11	yes	44	1	980
6.6.1	win	2022-12-14	14:49:54	15:00:08	612895	5a04869ff2e3460001edad2e	726999024	1	main_z	7	advance_on_keypress_ZEE	92	stimuli_distractor_trianglediamonds.svg	stimuli_target_squaretriangles.svg	11	yes	57	0	332
6.6.1	win	2022-12-14	14:49:54	15:00:10	614815	5a04869ff2e3460001edad2e	726999024	1	main_z	7	main_z	93	stimuli_distractor_diamondtriangles.svg	stimuli_target_squarediamonds.svg	16	yes	44	1	950
6.6.1	win	2022-12-14	14:49:54	15:00:10	614815	5a04869ff2e3460001edad2e	726999024	1	main_z	7	advance_on_keypress_ZEE	94	stimuli_distractor_diamondtriangles.svg	stimuli_target_squarediamonds.svg	16	yes	57	0	311
6.6.1	win	2022-12-14	14:49:54	15:00:12	616831	5a04869ff2e3460001edad2e	726999024	1	main_z	7	main_z	95	stimuli_target_circletriangles.svg	stimuli_distractor_trianglediamonds.svg	1	yes	44	1	1066
6.6.1	win	2022-12-14	14:49:54	15:00:12	616831	5a04869ff2e3460001edad2e	726999024	1	main_z	7	advance_on_keypress_ZEE	96	stimuli_target_circletriangles.svg	stimuli_distractor_trianglediamonds.svg	1	yes	57	0	294
6.6.1	win	2022-12-14	14:49:54	15:00:14	618711	5a04869ff2e3460001edad2e	726999024	1	main_z	7	main_z	97	stimuli_target_circlediamonds.svg	stimuli_distractor_diamondtriangles.svg	6	yes	44	1	946
6.6.1	win	2022-12-14	14:49:54	15:00:14	618711	5a04869ff2e3460001edad2e	726999024	1	main_z	7	advance_on_keypress_ZEE	98	stimuli_target_circlediamonds.svg	stimuli_distractor_diamondtriangles.svg	6	yes	57	0	316
6.6.1	win	2022-12-14	14:49:54	15:00:16	620631	5a04869ff2e3460001edad2e	726999024	1	main_z	7	main_z	99	stimuli_target_squaretriangles.svg	stimuli_distractor_trianglediamonds.svg	3	yes	44	1	966
6.6.1	win	2022-12-14	14:49:54	15:00:16	620631	5a04869ff2e3460001edad2e	726999024	1	main_z	7	advance_on_keypress_ZEE	100	stimuli_target_squaretriangles.svg	stimuli_distractor_trianglediamonds.svg	3	yes	57	0	278
6.6.1	win	2022-12-14	14:49:54	15:00:18	622583	5a04869ff2e3460001edad2e	726999024	1	main_z	7	main_z	101	stimuli_target_diamondcircles.svg	stimuli_distractor_trianglediamonds.svg	19	yes	44	1	1035
6.6.1	win	2022-12-14	14:49:54	15:00:18	622583	5a04869ff2e3460001edad2e	726999024	1	main_z	7	advance_on_keypress_ZEE	102	stimuli_target_diamondcircles.svg	stimuli_distractor_trianglediamonds.svg	19	yes	57	0	320
6.6.1	win	2022-12-14	14:49:54	15:00:21	625549	5a04869ff2e3460001edad2e	726999024	1	main_z	7	main_z	103	stimuli_distractor_trianglediamonds.svg	stimuli_distractor_trianglediamonds.svg	33	no	0	1	2000
6.6.1	win	2022-12-14	14:49:54	15:00:21	625549	5a04869ff2e3460001edad2e	726999024	1	main_z	7	advance_on_keypress_ZEE	104	stimuli_distractor_trianglediamonds.svg	stimuli_distractor_trianglediamonds.svg	33	no	57	0	490
6.6.1	win	2022-12-14	14:49:54	15:00:24	628682	5a04869ff2e3460001edad2e	726999024	1	main_z	7	main_z	105	stimuli_distractor_diamondtriangles.svg	stimuli_distractor_trianglediamonds.svg	38	no	0	1	2000
6.6.1	win	2022-12-14	14:49:54	15:00:24	628682	5a04869ff2e3460001edad2e	726999024	1	main_z	7	advance_on_keypress_ZEE	106	stimuli_distractor_diamondtriangles.svg	stimuli_distractor_trianglediamonds.svg	38	no	57	0	461
6.6.1	win	2022-12-14	14:49:54	15:00:26	630663	5a04869ff2e3460001edad2e	726999024	1	main_z	7	main_z	107	stimuli_distractor_trianglediamonds.svg	stimuli_target_trianglesquares.svg	26	yes	44	1	881
6.6.1	win	2022-12-14	14:49:54	15:00:26	630663	5a04869ff2e3460001edad2e	726999024	1	main_z	7	advance_on_keypress_ZEE	108	stimuli_distractor_trianglediamonds.svg	stimuli_target_trianglesquares.svg	26	yes	57	0	277
6.6.1	win	2022-12-14	14:49:54	15:00:28	632463	5a04869ff2e3460001edad2e	726999024	1	main_z	7	main_z	109	stimuli_target_squarediamonds.svg	stimuli_distractor_diamondtriangles.svg	8	yes	44	1	881
6.6.1	win	2022-12-14	14:49:54	15:00:28	632463	5a04869ff2e3460001edad2e	726999024	1	main_z	7	advance_on_keypress_ZEE	110	stimuli_target_squarediamonds.svg	stimuli_distractor_diamondtriangles.svg	8	yes	57	0	269
6.6.1	win	2022-12-14	14:49:54	15:00:30	634727	5a04869ff2e3460001edad2e	726999024	1	main_z	7	main_z	111	stimuli_target_trianglesquares.svg	stimuli_distractor_diamondtriangles.svg	22	yes	44	1	1345
6.6.1	win	2022-12-14	14:49:54	15:00:30	634727	5a04869ff2e3460001edad2e	726999024	1	main_z	7	advance_on_keypress_ZEE	112	stimuli_target_trianglesquares.svg	stimuli_distractor_diamondtriangles.svg	22	yes	57	0	354
6.6.1	win	2022-12-14	14:49:54	15:00:32	636815	5a04869ff2e3460001edad2e	726999024	1	main_z	7	main_z	113	stimuli_target_trianglecircles.svg	stimuli_distractor_trianglediamonds.svg	17	yes	44	1	1100
6.6.1	win	2022-12-14	14:49:54	15:00:32	636815	5a04869ff2e3460001edad2e	726999024	1	main_z	7	advance_on_keypress_ZEE	114	stimuli_target_trianglecircles.svg	stimuli_distractor_trianglediamonds.svg	17	yes	57	0	639
6.6.1	win	2022-12-14	14:49:54	15:00:35	639119	5a04869ff2e3460001edad2e	726999024	1	main_z	7	main_z	115	stimuli_distractor_trianglediamonds.svg	stimuli_target_diamondcircles.svg	27	yes	44	1	1021
6.6.1	win	2022-12-14	14:49:54	15:00:35	639119	5a04869ff2e3460001edad2e	726999024	1	main_z	7	advance_on_keypress_ZEE	116	stimuli_distractor_trianglediamonds.svg	stimuli_target_diamondcircles.svg	27	yes	57	0	291
6.6.1	win	2022-12-14	14:49:54	15:00:37	640983	5a04869ff2e3460001edad2e	726999024	1	main_z	7	main_z	117	stimuli_target_squarediamonds.svg	stimuli_distractor_trianglediamonds.svg	4	yes	44	1	935
6.6.1	win	2022-12-14	14:49:54	15:00:37	640983	5a04869ff2e3460001edad2e	726999024	1	main_z	7	advance_on_keypress_ZEE	118	stimuli_target_squarediamonds.svg	stimuli_distractor_trianglediamonds.svg	4	yes	57	0	336
6.6.1	win	2022-12-14	14:49:54	15:00:38	642911	5a04869ff2e3460001edad2e	726999024	1	main_z	7	main_z	119	stimuli_distractor_diamondtriangles.svg	stimuli_target_trianglesquares.svg	30	yes	44	1	946
6.6.1	win	2022-12-14	14:49:54	15:00:38	642911	5a04869ff2e3460001edad2e	726999024	1	main_z	7	advance_on_keypress_ZEE	120	stimuli_distractor_diamondtriangles.svg	stimuli_target_trianglesquares.svg	30	yes	57	0	460
6.6.1	win	2022-12-14	14:49:54	15:00:41	644951	5a04869ff2e3460001edad2e	726999024	1	main_z	7	main_z	121	stimuli_target_diamondsquares.svg	stimuli_distractor_trianglediamonds.svg	20	yes	44	1	952
6.6.1	win	2022-12-14	14:49:54	15:00:41	644951	5a04869ff2e3460001edad2e	726999024	1	main_z	7	advance_on_keypress_ZEE	122	stimuli_target_diamondsquares.svg	stimuli_distractor_trianglediamonds.svg	20	yes	57	0	290
6.6.1	win	2022-12-14	14:49:54	15:00:42	646815	5a04869ff2e3460001edad2e	726999024	1	main_z	7	main_z	123	stimuli_distractor_trianglediamonds.svg	stimuli_target_circletriangles.svg	9	yes	44	1	933
6.6.1	win	2022-12-14	14:49:54	15:00:42	646815	5a04869ff2e3460001edad2e	726999024	1	main_z	7	advance_on_keypress_ZEE	124	stimuli_distractor_trianglediamonds.svg	stimuli_target_circletriangles.svg	9	yes	57	0	223
6.6.1	win	2022-12-14	14:49:54	15:00:44	648591	5a04869ff2e3460001edad2e	726999024	1	main_z	7	main_z	125	stimuli_target_squaretriangles.svg	stimuli_distractor_diamondtriangles.svg	7	yes	44	1	908
6.6.1	win	2022-12-14	14:49:54	15:00:44	648591	5a04869ff2e3460001edad2e	726999024	1	main_z	7	advance_on_keypress_ZEE	126	stimuli_target_squaretriangles.svg	stimuli_distractor_diamondtriangles.svg	7	yes	57	0	209
6.6.1	win	2022-12-14	14:49:54	15:00:46	650327	5a04869ff2e3460001edad2e	726999024	1	main_z	7	main_z	127	stimuli_distractor_diamondtriangles.svg	stimuli_target_circletriangles.svg	13	yes	44	1	894
6.6.1	win	2022-12-14	14:49:54	15:00:46	650327	5a04869ff2e3460001edad2e	726999024	1	main_z	7	advance_on_keypress_ZEE	128	stimuli_distractor_diamondtriangles.svg	stimuli_target_circletriangles.svg	13	yes	57	0	235
6.6.1	win	2022-12-14	14:49:54	15:00:48	652167	5a04869ff2e3460001edad2e	726999024	1	main_z	7	main_z	129	stimuli_distractor_trianglediamonds.svg	stimuli_target_trianglecircles.svg	25	yes	44	1	967
6.6.1	win	2022-12-14	14:49:54	15:00:48	652167	5a04869ff2e3460001edad2e	726999024	1	main_z	7	advance_on_keypress_ZEE	130	stimuli_distractor_trianglediamonds.svg	stimuli_target_trianglecircles.svg	25	yes	57	0	217
6.6.1	win	2022-12-14	14:49:54	15:00:50	653959	5a04869ff2e3460001edad2e	726999024	1	main_z	7	main_z	131	stimuli_distractor_diamondtriangles.svg	stimuli_target_circlediamonds.svg	14	yes	44	1	927
6.6.1	win	2022-12-14	14:49:54	15:00:50	653959	5a04869ff2e3460001edad2e	726999024	1	main_z	7	advance_on_keypress_ZEE	132	stimuli_distractor_diamondtriangles.svg	stimuli_target_circlediamonds.svg	14	yes	57	0	257
6.6.1	win	2022-12-14	14:49:54	15:00:52	656295	5a04869ff2e3460001edad2e	726999024	1	main_z	7	main_z	133	stimuli_distractor_diamondtriangles.svg	stimuli_distractor_trianglediamonds.svg	37	no	44	0	1446
6.6.1	win	2022-12-14	14:49:54	15:00:52	656295	5a04869ff2e3460001edad2e	726999024	1	main_z	7	advance_on_keypress_ZEE	134	stimuli_distractor_diamondtriangles.svg	stimuli_distractor_trianglediamonds.svg	37	no	57	0	252
6.6.1	win	2022-12-14	14:49:54	15:00:54	658295	5a04869ff2e3460001edad2e	726999024	1	main_z	7	main_z	135	stimuli_distractor_trianglediamonds.svg	stimuli_target_squarediamonds.svg	12	yes	44	1	1112
6.6.1	win	2022-12-14	14:49:54	15:00:54	658295	5a04869ff2e3460001edad2e	726999024	1	main_z	7	advance_on_keypress_ZEE	136	stimuli_distractor_trianglediamonds.svg	stimuli_target_squarediamonds.svg	12	yes	57	0	301
6.6.1	win	2022-12-14	14:49:54	15:00:56	660147	5a04869ff2e3460001edad2e	726999024	1	main_z	7	main_z	137	stimuli_distractor_trianglediamonds.svg	stimuli_target_diamondsquares.svg	28	yes	44	1	910
6.6.1	win	2022-12-14	14:49:54	15:00:56	660147	5a04869ff2e3460001edad2e	726999024	1	main_z	7	advance_on_keypress_ZEE	138	stimuli_distractor_trianglediamonds.svg	stimuli_target_diamondsquares.svg	28	yes	57	0	298
6.6.1	win	2022-12-14	14:49:54	15:00:58	662103	5a04869ff2e3460001edad2e	726999024	1	main_z	7	main_z	139	stimuli_target_diamondsquares.svg	stimuli_distractor_diamondtriangles.svg	24	yes	44	1	1004
6.6.1	win	2022-12-14	14:49:54	15:00:58	662103	5a04869ff2e3460001edad2e	726999024	1	main_z	7	advance_on_keypress_ZEE	140	stimuli_target_diamondsquares.svg	stimuli_distractor_diamondtriangles.svg	24	yes	57	0	284
6.6.1	win	2022-12-14	14:49:54	15:01:00	664031	5a04869ff2e3460001edad2e	726999024	1	main_z	7	main_z	141	stimuli_distractor_diamondtriangles.svg	stimuli_target_diamondcircles.svg	31	yes	44	1	998
6.6.1	win	2022-12-14	14:49:54	15:01:00	664031	5a04869ff2e3460001edad2e	726999024	1	main_z	7	advance_on_keypress_ZEE	142	stimuli_distractor_diamondtriangles.svg	stimuli_target_diamondcircles.svg	31	yes	57	0	262
6.6.1	win	2022-12-14	14:49:54	15:01:01	665855	5a04869ff2e3460001edad2e	726999024	1	main_z	7	main_z	143	stimuli_target_diamondcircles.svg	stimuli_distractor_diamondtriangles.svg	23	yes	44	1	923
6.6.1	win	2022-12-14	14:49:54	15:01:01	665855	5a04869ff2e3460001edad2e	726999024	1	main_z	7	advance_on_keypress_ZEE	144	stimuli_target_diamondcircles.svg	stimuli_distractor_diamondtriangles.svg	23	yes	57	0	261
6.6.1	win	2022-12-14	14:49:54	15:01:03	667855	5a04869ff2e3460001edad2e	726999024	1	main_z	7	main_z	145	stimuli_distractor_trianglediamonds.svg	stimuli_target_circlediamonds.svg	10	yes	44	1	1107
6.6.1	win	2022-12-14	14:49:54	15:01:03	667855	5a04869ff2e3460001edad2e	726999024	1	main_z	7	advance_on_keypress_ZEE	146	stimuli_distractor_trianglediamonds.svg	stimuli_target_circlediamonds.svg	10	yes	57	0	246
6.6.1	win	2022-12-14	14:49:54	15:01:05	669703	5a04869ff2e3460001edad2e	726999024	1	main_z	7	main_z	147	stimuli_target_circletriangles.svg	stimuli_distractor_diamondtriangles.svg	5	yes	44	1	971
6.6.1	win	2022-12-14	14:49:54	15:01:05	669703	5a04869ff2e3460001edad2e	726999024	1	main_z	7	advance_on_keypress_ZEE	148	stimuli_target_circletriangles.svg	stimuli_distractor_diamondtriangles.svg	5	yes	57	0	324
6.6.1	win	2022-12-14	14:49:54	15:01:07	671623	5a04869ff2e3460001edad2e	726999024	1	main_z	7	main_z	149	stimuli_distractor_diamondtriangles.svg	stimuli_target_squaretriangles.svg	15	yes	44	1	958
6.6.1	win	2022-12-14	14:49:54	15:01:07	671623	5a04869ff2e3460001edad2e	726999024	1	main_z	7	advance_on_keypress_ZEE	150	stimuli_distractor_diamondtriangles.svg	stimuli_target_squaretriangles.svg	15	yes	57	0	303
6.6.1	win	2022-12-14	14:49:54	15:01:09	673543	5a04869ff2e3460001edad2e	726999024	1	main_z	7	main_z	151	stimuli_distractor_diamondtriangles.svg	stimuli_target_diamondsquares.svg	32	yes	44	1	977
6.6.1	win	2022-12-14	14:49:54	15:01:09	673543	5a04869ff2e3460001edad2e	726999024	1	main_z	7	advance_on_keypress_ZEE	152	stimuli_distractor_diamondtriangles.svg	stimuli_target_diamondsquares.svg	32	yes	57	0	298
6.6.1	win	2022-12-14	14:49:54	15:01:12	676482	5a04869ff2e3460001edad2e	726999024	1	main_z	7	main_z	153	stimuli_distractor_trianglediamonds.svg	stimuli_distractor_diamondtriangles.svg	36	no	0	1	2000
6.6.1	win	2022-12-14	14:49:54	15:01:12	676482	5a04869ff2e3460001edad2e	726999024	1	main_z	7	advance_on_keypress_ZEE	154	stimuli_distractor_trianglediamonds.svg	stimuli_distractor_diamondtriangles.svg	36	no	57	0	532
6.6.1	win	2022-12-14	14:49:54	15:01:15	679665	5a04869ff2e3460001edad2e	726999024	1	main_z	7	main_z	155	stimuli_distractor_trianglediamonds.svg	stimuli_distractor_diamondtriangles.svg	35	no	0	1	2000
6.6.1	win	2022-12-14	14:49:54	15:01:15	679665	5a04869ff2e3460001edad2e	726999024	1	main_z	7	advance_on_keypress_ZEE	156	stimuli_distractor_trianglediamonds.svg	stimuli_distractor_diamondtriangles.svg	35	no	57	0	452
6.6.1	win	2022-12-14	14:49:54	15:01:18	682765	5a04869ff2e3460001edad2e	726999024	1	main_z	7	main_z	157	stimuli_distractor_trianglediamonds.svg	stimuli_distractor_trianglediamonds.svg	34	no	0	1	2000
6.6.1	win	2022-12-14	14:49:54	15:01:18	682765	5a04869ff2e3460001edad2e	726999024	1	main_z	7	advance_on_keypress_ZEE	158	stimuli_distractor_trianglediamonds.svg	stimuli_distractor_trianglediamonds.svg	34	no	57	0	360
6.6.1	win	2022-12-14	14:49:54	15:01:20	684847	5a04869ff2e3460001edad2e	726999024	1	main_z	7	main_z	159	stimuli_distractor_diamondtriangles.svg	stimuli_target_trianglecircles.svg	29	yes	44	1	1065
6.6.1	win	2022-12-14	14:49:54	15:01:20	684847	5a04869ff2e3460001edad2e	726999024	1	main_z	7	advance_on_keypress_ZEE	160	stimuli_distractor_diamondtriangles.svg	stimuli_target_trianglecircles.svg	29	yes	57	0	261
6.6.1	win	2022-12-14	14:49:54	15:01:46	710016	5a04869ff2e3460001edad2e	726999024	1	practice_slash	9	practice_slash	1	stimuli_distractor_diamondtriangles.svg	stimuli_target_circletriangles.svg	7	yes	53	1	616
6.6.1	win	2022-12-14	14:49:54	15:01:46	710016	5a04869ff2e3460001edad2e	726999024	1	practice_slash	9	advance_on_keypress_SLASH	2	stimuli_distractor_diamondtriangles.svg	stimuli_target_circletriangles.svg	7	yes	57	0	1070
6.6.1	win	2022-12-14	14:49:54	15:01:49	713464	5a04869ff2e3460001edad2e	726999024	1	practice_slash	9	practice_slash	3	stimuli_target_circlediamonds.svg	stimuli_distractor_trianglediamonds.svg	4	yes	53	1	730
6.6.1	win	2022-12-14	14:49:54	15:01:49	713464	5a04869ff2e3460001edad2e	726999024	1	practice_slash	9	advance_on_keypress_SLASH	4	stimuli_target_circlediamonds.svg	stimuli_distractor_trianglediamonds.svg	4	yes	57	0	492
6.6.1	win	2022-12-14	14:49:54	15:01:53	717600	5a04869ff2e3460001edad2e	726999024	1	practice_slash	9	practice_slash	5	stimuli_distractor_trianglediamonds.svg	stimuli_distractor_trianglediamonds.svg	15	no	0	1	2000
6.6.1	win	2022-12-14	14:49:54	15:01:53	717600	5a04869ff2e3460001edad2e	726999024	1	practice_slash	9	advance_on_keypress_SLASH	6	stimuli_distractor_trianglediamonds.svg	stimuli_distractor_trianglediamonds.svg	15	no	57	0	471
6.6.1	win	2022-12-14	14:49:54	15:01:56	720377	5a04869ff2e3460001edad2e	726999024	1	practice_slash	9	practice_slash	7	stimuli_target_squarediamonds.svg	stimuli_distractor_diamondtriangles.svg	2	yes	53	1	659
6.6.1	win	2022-12-14	14:49:54	15:01:56	720377	5a04869ff2e3460001edad2e	726999024	1	practice_slash	9	advance_on_keypress_SLASH	8	stimuli_target_squarediamonds.svg	stimuli_distractor_diamondtriangles.svg	2	yes	57	0	536
6.6.1	win	2022-12-14	14:49:54	15:01:59	723425	5a04869ff2e3460001edad2e	726999024	1	practice_slash	9	practice_slash	9	stimuli_distractor_diamondtriangles.svg	stimuli_target_diamondcircles.svg	8	yes	53	1	874
6.6.1	win	2022-12-14	14:49:54	15:01:59	723425	5a04869ff2e3460001edad2e	726999024	1	practice_slash	9	advance_on_keypress_SLASH	10	stimuli_distractor_diamondtriangles.svg	stimuli_target_diamondcircles.svg	8	yes	57	0	534
6.6.1	win	2022-12-14	14:49:54	15:02:02	726833	5a04869ff2e3460001edad2e	726999024	1	practice_slash	9	practice_slash	11	stimuli_distractor_diamondtriangles.svg	stimuli_distractor_trianglediamonds.svg	14	no	53	0	1232
6.6.1	win	2022-12-14	14:49:54	15:02:02	726833	5a04869ff2e3460001edad2e	726999024	1	practice_slash	9	advance_on_keypress_SLASH	12	stimuli_distractor_diamondtriangles.svg	stimuli_distractor_trianglediamonds.svg	14	no	57	0	502
6.6.1	win	2022-12-14	14:49:54	15:02:06	730123	5a04869ff2e3460001edad2e	726999024	1	practice_slash	9	practice_slash	13	stimuli_distractor_diamondtriangles.svg	stimuli_target_trianglecircles.svg	9	yes	53	1	1120
6.6.1	win	2022-12-14	14:49:54	15:02:06	730123	5a04869ff2e3460001edad2e	726999024	1	practice_slash	9	advance_on_keypress_SLASH	14	stimuli_distractor_diamondtriangles.svg	stimuli_target_trianglecircles.svg	9	yes	57	0	498
6.6.1	win	2022-12-14	14:49:54	15:02:09	733217	5a04869ff2e3460001edad2e	726999024	1	practice_slash	9	practice_slash	15	stimuli_target_diamondsquares.svg	stimuli_distractor_trianglediamonds.svg	6	yes	53	1	949
6.6.1	win	2022-12-14	14:49:54	15:02:09	733217	5a04869ff2e3460001edad2e	726999024	1	practice_slash	9	advance_on_keypress_SLASH	16	stimuli_target_diamondsquares.svg	stimuli_distractor_trianglediamonds.svg	6	yes	57	0	526
6.6.1	win	2022-12-14	14:49:54	15:02:12	736514	5a04869ff2e3460001edad2e	726999024	1	practice_slash	9	practice_slash	17	stimuli_target_squarediamonds.svg	stimuli_distractor_trianglediamonds.svg	5	yes	53	1	1128
6.6.1	win	2022-12-14	14:49:54	15:02:12	736514	5a04869ff2e3460001edad2e	726999024	1	practice_slash	9	advance_on_keypress_SLASH	18	stimuli_target_squarediamonds.svg	stimuli_distractor_trianglediamonds.svg	5	yes	57	0	418
6.6.1	win	2022-12-14	14:49:54	15:02:15	739756	5a04869ff2e3460001edad2e	726999024	1	practice_slash	9	practice_slash	19	stimuli_target_diamondsquares.svg	stimuli_distractor_diamondtriangles.svg	3	yes	53	1	1168
6.6.1	win	2022-12-14	14:49:54	15:02:15	739756	5a04869ff2e3460001edad2e	726999024	1	practice_slash	9	advance_on_keypress_SLASH	20	stimuli_target_diamondsquares.svg	stimuli_distractor_diamondtriangles.svg	3	yes	57	0	521
6.6.1	win	2022-12-14	14:49:54	15:02:19	743936	5a04869ff2e3460001edad2e	726999024	1	practice_slash	9	practice_slash	21	stimuli_distractor_diamondtriangles.svg	stimuli_distractor_diamondtriangles.svg	13	no	0	1	2000
6.6.1	win	2022-12-14	14:49:54	15:02:19	743936	5a04869ff2e3460001edad2e	726999024	1	practice_slash	9	advance_on_keypress_SLASH	22	stimuli_distractor_diamondtriangles.svg	stimuli_distractor_diamondtriangles.svg	13	no	57	0	522
6.6.1	win	2022-12-14	14:49:54	15:02:23	747025	5a04869ff2e3460001edad2e	726999024	1	practice_slash	9	practice_slash	23	stimuli_target_circlediamonds.svg	stimuli_distractor_diamondtriangles.svg	1	yes	53	1	924
6.6.1	win	2022-12-14	14:49:54	15:02:23	747025	5a04869ff2e3460001edad2e	726999024	1	practice_slash	9	advance_on_keypress_SLASH	24	stimuli_target_circlediamonds.svg	stimuli_distractor_diamondtriangles.svg	1	yes	57	0	462
6.6.1	win	2022-12-14	14:49:54	15:02:26	750104	5a04869ff2e3460001edad2e	726999024	1	practice_slash	9	practice_slash	25	stimuli_distractor_trianglediamonds.svg	stimuli_target_circlediamonds.svg	10	yes	53	1	970
6.6.1	win	2022-12-14	14:49:54	15:02:26	750104	5a04869ff2e3460001edad2e	726999024	1	practice_slash	9	advance_on_keypress_SLASH	26	stimuli_distractor_trianglediamonds.svg	stimuli_target_circlediamonds.svg	10	yes	57	0	475
6.6.1	win	2022-12-14	14:49:54	15:02:29	753159	5a04869ff2e3460001edad2e	726999024	1	practice_slash	9	practice_slash	27	stimuli_distractor_trianglediamonds.svg	stimuli_target_squarediamonds.svg	11	yes	53	1	943
6.6.1	win	2022-12-14	14:49:54	15:02:29	753159	5a04869ff2e3460001edad2e	726999024	1	practice_slash	9	advance_on_keypress_SLASH	28	stimuli_distractor_trianglediamonds.svg	stimuli_target_squarediamonds.svg	11	yes	57	0	449
6.6.1	win	2022-12-14	14:49:54	15:02:32	756217	5a04869ff2e3460001edad2e	726999024	1	practice_slash	9	practice_slash	29	stimuli_distractor_trianglediamonds.svg	stimuli_target_diamondcircles.svg	12	yes	53	1	950
6.6.1	win	2022-12-14	14:49:54	15:02:32	756217	5a04869ff2e3460001edad2e	726999024	1	practice_slash	9	advance_on_keypress_SLASH	30	stimuli_distractor_trianglediamonds.svg	stimuli_target_diamondcircles.svg	12	yes	57	0	494
6.6.1	win	2022-12-14	14:49:54	15:02:36	760349	5a04869ff2e3460001edad2e	726999024	1	practice_slash	9	practice_slash	31	stimuli_distractor_trianglediamonds.svg	stimuli_distractor_diamondtriangles.svg	16	no	0	1	2000
6.6.1	win	2022-12-14	14:49:54	15:02:36	760349	5a04869ff2e3460001edad2e	726999024	1	practice_slash	9	advance_on_keypress_SLASH	32	stimuli_distractor_trianglediamonds.svg	stimuli_distractor_diamondtriangles.svg	16	no	57	0	417
6.6.1	win	2022-12-14	14:49:54	15:02:42	766230	5a04869ff2e3460001edad2e	726999024	1	main_slash	11	main_slash	1	stimuli_distractor_trianglediamonds.svg	stimuli_distractor_trianglediamonds.svg	33	no	0	1	2000
6.6.1	win	2022-12-14	14:49:54	15:02:42	766230	5a04869ff2e3460001edad2e	726999024	1	main_slash	11	advance_on_keypress_SLASH	2	stimuli_distractor_trianglediamonds.svg	stimuli_distractor_trianglediamonds.svg	33	no	57	0	422
6.6.1	win	2022-12-14	14:49:54	15:02:44	768142	5a04869ff2e3460001edad2e	726999024	1	main_slash	11	main_slash	3	stimuli_target_diamondcircles.svg	stimuli_distractor_trianglediamonds.svg	19	yes	53	1	844
6.6.1	win	2022-12-14	14:49:54	15:02:44	768142	5a04869ff2e3460001edad2e	726999024	1	main_slash	11	advance_on_keypress_SLASH	4	stimuli_target_diamondcircles.svg	stimuli_distractor_trianglediamonds.svg	19	yes	57	0	530
6.6.1	win	2022-12-14	14:49:54	15:02:47	771298	5a04869ff2e3460001edad2e	726999024	1	main_slash	11	main_slash	5	stimuli_distractor_diamondtriangles.svg	stimuli_distractor_diamondtriangles.svg	39	no	0	1	2000
6.6.1	win	2022-12-14	14:49:54	15:02:47	771298	5a04869ff2e3460001edad2e	726999024	1	main_slash	11	advance_on_keypress_SLASH	6	stimuli_distractor_diamondtriangles.svg	stimuli_distractor_diamondtriangles.svg	39	no	57	0	363
6.6.1	win	2022-12-14	14:49:54	15:02:49	772998	5a04869ff2e3460001edad2e	726999024	1	main_slash	11	main_slash	7	stimuli_target_trianglesquares.svg	stimuli_distractor_trianglediamonds.svg	18	yes	53	1	700
6.6.1	win	2022-12-14	14:49:54	15:02:49	772998	5a04869ff2e3460001edad2e	726999024	1	main_slash	11	advance_on_keypress_SLASH	8	stimuli_target_trianglesquares.svg	stimuli_distractor_trianglediamonds.svg	18	yes	57	0	527
6.6.1	win	2022-12-14	14:49:54	15:02:51	775110	5a04869ff2e3460001edad2e	726999024	1	main_slash	11	main_slash	9	stimuli_distractor_diamondtriangles.svg	stimuli_target_trianglesquares.svg	30	yes	53	1	945
6.6.1	win	2022-12-14	14:49:54	15:02:51	775110	5a04869ff2e3460001edad2e	726999024	1	main_slash	11	advance_on_keypress_SLASH	10	stimuli_distractor_diamondtriangles.svg	stimuli_target_trianglesquares.svg	30	yes	57	0	331
6.6.1	win	2022-12-14	14:49:54	15:02:53	777014	5a04869ff2e3460001edad2e	726999024	1	main_slash	11	main_slash	11	stimuli_target_circlediamonds.svg	stimuli_distractor_diamondtriangles.svg	6	yes	53	1	932
6.6.1	win	2022-12-14	14:49:54	15:02:53	777014	5a04869ff2e3460001edad2e	726999024	1	main_slash	11	advance_on_keypress_SLASH	12	stimuli_target_circlediamonds.svg	stimuli_distractor_diamondtriangles.svg	6	yes	57	0	319
6.6.1	win	2022-12-14	14:49:54	15:02:54	778870	5a04869ff2e3460001edad2e	726999024	1	main_slash	11	main_slash	13	stimuli_target_circlediamonds.svg	stimuli_distractor_trianglediamonds.svg	2	yes	53	1	888
6.6.1	win	2022-12-14	14:49:54	15:02:54	778870	5a04869ff2e3460001edad2e	726999024	1	main_slash	11	advance_on_keypress_SLASH	14	stimuli_target_circlediamonds.svg	stimuli_distractor_trianglediamonds.svg	2	yes	57	0	332
6.6.1	win	2022-12-14	14:49:54	15:02:56	780902	5a04869ff2e3460001edad2e	726999024	1	main_slash	11	main_slash	15	stimuli_distractor_diamondtriangles.svg	stimuli_target_trianglecircles.svg	29	yes	53	1	904
6.6.1	win	2022-12-14	14:49:54	15:02:56	780902	5a04869ff2e3460001edad2e	726999024	1	main_slash	11	advance_on_keypress_SLASH	16	stimuli_distractor_diamondtriangles.svg	stimuli_target_trianglecircles.svg	29	yes	57	0	339
6.6.1	win	2022-12-14	14:49:54	15:02:58	782862	5a04869ff2e3460001edad2e	726999024	1	main_slash	11	main_slash	17	stimuli_distractor_trianglediamonds.svg	stimuli_target_trianglesquares.svg	26	yes	53	1	981
6.6.1	win	2022-12-14	14:49:54	15:02:58	782862	5a04869ff2e3460001edad2e	726999024	1	main_slash	11	advance_on_keypress_SLASH	18	stimuli_distractor_trianglediamonds.svg	stimuli_target_trianglesquares.svg	26	yes	57	0	653
6.6.1	win	2022-12-14	14:49:54	15:03:01	785046	5a04869ff2e3460001edad2e	726999024	1	main_slash	11	main_slash	19	stimuli_distractor_trianglediamonds.svg	stimuli_target_diamondsquares.svg	28	yes	53	1	898
6.6.1	win	2022-12-14	14:49:54	15:03:01	785046	5a04869ff2e3460001edad2e	726999024	1	main_slash	11	advance_on_keypress_SLASH	20	stimuli_distractor_trianglediamonds.svg	stimuli_target_diamondsquares.svg	28	yes	57	0	509
6.6.1	win	2022-12-14	14:49:54	15:03:04	788224	5a04869ff2e3460001edad2e	726999024	1	main_slash	11	main_slash	21	stimuli_distractor_diamondtriangles.svg	stimuli_distractor_diamondtriangles.svg	40	no	0	1	2000
6.6.1	win	2022-12-14	14:49:54	15:03:04	788224	5a04869ff2e3460001edad2e	726999024	1	main_slash	11	advance_on_keypress_SLASH	22	stimuli_distractor_diamondtriangles.svg	stimuli_distractor_diamondtriangles.svg	40	no	57	0	391
6.6.1	win	2022-12-14	14:49:54	15:03:06	790030	5a04869ff2e3460001edad2e	726999024	1	main_slash	11	main_slash	23	stimuli_target_diamondsquares.svg	stimuli_distractor_trianglediamonds.svg	20	yes	53	1	782
6.6.1	win	2022-12-14	14:49:54	15:03:06	790030	5a04869ff2e3460001edad2e	726999024	1	main_slash	11	advance_on_keypress_SLASH	24	stimuli_target_diamondsquares.svg	stimuli_distractor_trianglediamonds.svg	20	yes	57	0	582
6.6.1	win	2022-12-14	14:49:54	15:03:08	792134	5a04869ff2e3460001edad2e	726999024	1	main_slash	11	main_slash	25	stimuli_distractor_diamondtriangles.svg	stimuli_target_diamondcircles.svg	31	yes	53	1	869
6.6.1	win	2022-12-14	14:49:54	15:03:08	792134	5a04869ff2e3460001edad2e	726999024	1	main_slash	11	advance_on_keypress_SLASH	26	stimuli_distractor_diamondtriangles.svg	stimuli_target_diamondcircles.svg	31	yes	57	0	402
6.6.1	win	2022-12-14	14:49:54	15:03:10	793990	5a04869ff2e3460001edad2e	726999024	1	main_slash	11	main_slash	27	stimuli_target_circletriangles.svg	stimuli_distractor_trianglediamonds.svg	1	yes	53	1	809
6.6.1	win	2022-12-14	14:49:54	15:03:10	793990	5a04869ff2e3460001edad2e	726999024	1	main_slash	11	advance_on_keypress_SLASH	28	stimuli_target_circletriangles.svg	stimuli_distractor_trianglediamonds.svg	1	yes	57	0	328
6.6.1	win	2022-12-14	14:49:54	15:03:11	795814	5a04869ff2e3460001edad2e	726999024	1	main_slash	11	main_slash	29	stimuli_target_circletriangles.svg	stimuli_distractor_diamondtriangles.svg	5	yes	53	1	866
6.6.1	win	2022-12-14	14:49:54	15:03:11	795814	5a04869ff2e3460001edad2e	726999024	1	main_slash	11	advance_on_keypress_SLASH	30	stimuli_target_circletriangles.svg	stimuli_distractor_diamondtriangles.svg	5	yes	57	0	335
6.6.1	win	2022-12-14	14:49:54	15:03:14	797982	5a04869ff2e3460001edad2e	726999024	1	main_slash	11	main_slash	31	stimuli_distractor_diamondtriangles.svg	stimuli_target_squaretriangles.svg	15	yes	53	1	1184
6.6.1	win	2022-12-14	14:49:54	15:03:14	797982	5a04869ff2e3460001edad2e	726999024	1	main_slash	11	advance_on_keypress_SLASH	32	stimuli_distractor_diamondtriangles.svg	stimuli_target_squaretriangles.svg	15	yes	57	0	392
6.6.1	win	2022-12-14	14:49:54	15:03:15	799910	5a04869ff2e3460001edad2e	726999024	1	main_slash	11	main_slash	33	stimuli_target_trianglecircles.svg	stimuli_distractor_trianglediamonds.svg	17	yes	53	1	895
6.6.1	win	2022-12-14	14:49:54	15:03:15	799910	5a04869ff2e3460001edad2e	726999024	1	main_slash	11	advance_on_keypress_SLASH	34	stimuli_target_trianglecircles.svg	stimuli_distractor_trianglediamonds.svg	17	yes	57	0	355
6.6.1	win	2022-12-14	14:49:54	15:03:17	801814	5a04869ff2e3460001edad2e	726999024	1	main_slash	11	main_slash	35	stimuli_distractor_diamondtriangles.svg	stimuli_target_circlediamonds.svg	14	yes	53	1	916
6.6.1	win	2022-12-14	14:49:54	15:03:17	801814	5a04869ff2e3460001edad2e	726999024	1	main_slash	11	advance_on_keypress_SLASH	36	stimuli_distractor_diamondtriangles.svg	stimuli_target_circlediamonds.svg	14	yes	57	0	343
6.6.1	win	2022-12-14	14:49:54	15:03:19	803694	5a04869ff2e3460001edad2e	726999024	1	main_slash	11	main_slash	37	stimuli_target_squaretriangles.svg	stimuli_distractor_diamondtriangles.svg	7	yes	53	1	896
6.6.1	win	2022-12-14	14:49:54	15:03:19	803694	5a04869ff2e3460001edad2e	726999024	1	main_slash	11	advance_on_keypress_SLASH	38	stimuli_target_squaretriangles.svg	stimuli_distractor_diamondtriangles.svg	7	yes	57	0	316
6.6.1	win	2022-12-14	14:49:54	15:03:21	805550	5a04869ff2e3460001edad2e	726999024	1	main_slash	11	main_slash	39	stimuli_target_trianglesquares.svg	stimuli_distractor_diamondtriangles.svg	22	yes	53	1	901
6.6.1	win	2022-12-14	14:49:54	15:03:21	805550	5a04869ff2e3460001edad2e	726999024	1	main_slash	11	advance_on_keypress_SLASH	40	stimuli_target_trianglesquares.svg	stimuli_distractor_diamondtriangles.svg	22	yes	57	0	353
6.6.1	win	2022-12-14	14:49:54	15:03:23	807582	5a04869ff2e3460001edad2e	726999024	1	main_slash	11	main_slash	41	stimuli_distractor_trianglediamonds.svg	stimuli_target_trianglecircles.svg	25	yes	53	1	1034
6.6.1	win	2022-12-14	14:49:54	15:03:23	807582	5a04869ff2e3460001edad2e	726999024	1	main_slash	11	advance_on_keypress_SLASH	42	stimuli_distractor_trianglediamonds.svg	stimuli_target_trianglecircles.svg	25	yes	57	0	496
6.6.1	win	2022-12-14	14:49:54	15:03:25	809614	5a04869ff2e3460001edad2e	726999024	1	main_slash	11	main_slash	43	stimuli_distractor_trianglediamonds.svg	stimuli_target_squaretriangles.svg	11	yes	53	1	899
6.6.1	win	2022-12-14	14:49:54	15:03:25	809614	5a04869ff2e3460001edad2e	726999024	1	main_slash	11	advance_on_keypress_SLASH	44	stimuli_distractor_trianglediamonds.svg	stimuli_target_squaretriangles.svg	11	yes	57	0	303
6.6.1	win	2022-12-14	14:49:54	15:03:27	811502	5a04869ff2e3460001edad2e	726999024	1	main_slash	11	main_slash	45	stimuli_target_squarediamonds.svg	stimuli_distractor_trianglediamonds.svg	4	yes	53	1	936
6.6.1	win	2022-12-14	14:49:54	15:03:27	811502	5a04869ff2e3460001edad2e	726999024	1	main_slash	11	advance_on_keypress_SLASH	46	stimuli_target_squarediamonds.svg	stimuli_distractor_trianglediamonds.svg	4	yes	57	0	275
6.6.1	win	2022-12-14	14:49:54	15:03:29	813902	5a04869ff2e3460001edad2e	726999024	1	main_slash	11	main_slash	47	stimuli_distractor_diamondtriangles.svg	stimuli_distractor_trianglediamonds.svg	37	no	53	0	1486
6.6.1	win	2022-12-14	14:49:54	15:03:29	813902	5a04869ff2e3460001edad2e	726999024	1	main_slash	11	advance_on_keypress_SLASH	48	stimuli_distractor_diamondtriangles.svg	stimuli_distractor_trianglediamonds.svg	37	no	57	0	451
6.6.1	win	2022-12-14	14:49:54	15:03:32	816006	5a04869ff2e3460001edad2e	726999024	1	main_slash	11	main_slash	49	stimuli_target_squaretriangles.svg	stimuli_distractor_trianglediamonds.svg	3	yes	53	1	1008
6.6.1	win	2022-12-14	14:49:54	15:03:32	816006	5a04869ff2e3460001edad2e	726999024	1	main_slash	11	advance_on_keypress_SLASH	50	stimuli_target_squaretriangles.svg	stimuli_distractor_trianglediamonds.svg	3	yes	57	0	343
6.6.1	win	2022-12-14	14:49:54	15:03:33	817926	5a04869ff2e3460001edad2e	726999024	1	main_slash	11	main_slash	51	stimuli_target_squarediamonds.svg	stimuli_distractor_diamondtriangles.svg	8	yes	53	1	944
6.6.1	win	2022-12-14	14:49:54	15:03:33	817926	5a04869ff2e3460001edad2e	726999024	1	main_slash	11	advance_on_keypress_SLASH	52	stimuli_target_squarediamonds.svg	stimuli_distractor_diamondtriangles.svg	8	yes	57	0	306
6.6.1	win	2022-12-14	14:49:54	15:03:36	820865	5a04869ff2e3460001edad2e	726999024	1	main_slash	11	main_slash	53	stimuli_distractor_trianglediamonds.svg	stimuli_distractor_trianglediamonds.svg	34	no	0	1	2000
6.6.1	win	2022-12-14	14:49:54	15:03:36	820865	5a04869ff2e3460001edad2e	726999024	1	main_slash	11	advance_on_keypress_SLASH	54	stimuli_distractor_trianglediamonds.svg	stimuli_distractor_trianglediamonds.svg	34	no	57	0	364
6.6.1	win	2022-12-14	14:49:54	15:03:38	822758	5a04869ff2e3460001edad2e	726999024	1	main_slash	11	main_slash	55	stimuli_distractor_trianglediamonds.svg	stimuli_target_circletriangles.svg	9	yes	53	1	877
6.6.1	win	2022-12-14	14:49:54	15:03:38	822758	5a04869ff2e3460001edad2e	726999024	1	main_slash	11	advance_on_keypress_SLASH	56	stimuli_distractor_trianglediamonds.svg	stimuli_target_circletriangles.svg	9	yes	57	0	368
6.6.1	win	2022-12-14	14:49:54	15:03:40	824702	5a04869ff2e3460001edad2e	726999024	1	main_slash	11	main_slash	57	stimuli_distractor_trianglediamonds.svg	stimuli_target_circlediamonds.svg	10	yes	53	1	937
6.6.1	win	2022-12-14	14:49:54	15:03:40	824702	5a04869ff2e3460001edad2e	726999024	1	main_slash	11	advance_on_keypress_SLASH	58	stimuli_distractor_trianglediamonds.svg	stimuli_target_circlediamonds.svg	10	yes	57	0	299
6.6.1	win	2022-12-14	14:49:54	15:03:42	826622	5a04869ff2e3460001edad2e	726999024	1	main_slash	11	main_slash	59	stimuli_target_diamondsquares.svg	stimuli_distractor_diamondtriangles.svg	24	yes	53	1	973
6.6.1	win	2022-12-14	14:49:54	15:03:42	826622	5a04869ff2e3460001edad2e	726999024	1	main_slash	11	advance_on_keypress_SLASH	60	stimuli_target_diamondsquares.svg	stimuli_distractor_diamondtriangles.svg	24	yes	57	0	271
6.6.1	win	2022-12-14	14:49:54	15:03:44	828782	5a04869ff2e3460001edad2e	726999024	1	main_slash	11	main_slash	61	stimuli_target_diamondcircles.svg	stimuli_distractor_diamondtriangles.svg	23	yes	53	1	1251
6.6.1	win	2022-12-14	14:49:54	15:03:44	828782	5a04869ff2e3460001edad2e	726999024	1	main_slash	11	advance_on_keypress_SLASH	62	stimuli_target_diamondcircles.svg	stimuli_distractor_diamondtriangles.svg	23	yes	57	0	336
6.6.1	win	2022-12-14	14:49:54	15:03:46	830702	5a04869ff2e3460001edad2e	726999024	1	main_slash	11	main_slash	63	stimuli_distractor_diamondtriangles.svg	stimuli_target_diamondsquares.svg	32	yes	53	1	937
6.6.1	win	2022-12-14	14:49:54	15:03:46	830702	5a04869ff2e3460001edad2e	726999024	1	main_slash	11	advance_on_keypress_SLASH	64	stimuli_distractor_diamondtriangles.svg	stimuli_target_diamondsquares.svg	32	yes	57	0	322
6.6.1	win	2022-12-14	14:49:54	15:03:49	833665	5a04869ff2e3460001edad2e	726999024	1	main_slash	11	main_slash	65	stimuli_distractor_diamondtriangles.svg	stimuli_distractor_trianglediamonds.svg	38	no	0	1	2000
6.6.1	win	2022-12-14	14:49:54	15:03:49	833665	5a04869ff2e3460001edad2e	726999024	1	main_slash	11	advance_on_keypress_SLASH	66	stimuli_distractor_diamondtriangles.svg	stimuli_distractor_trianglediamonds.svg	38	no	57	0	325
6.6.1	win	2022-12-14	14:49:54	15:03:51	835549	5a04869ff2e3460001edad2e	726999024	1	main_slash	11	main_slash	67	stimuli_distractor_diamondtriangles.svg	stimuli_target_squarediamonds.svg	16	yes	53	1	918
6.6.1	win	2022-12-14	14:49:54	15:03:51	835549	5a04869ff2e3460001edad2e	726999024	1	main_slash	11	advance_on_keypress_SLASH	68	stimuli_distractor_diamondtriangles.svg	stimuli_target_squarediamonds.svg	16	yes	57	0	321
6.6.1	win	2022-12-14	14:49:54	15:03:53	837870	5a04869ff2e3460001edad2e	726999024	1	main_slash	11	main_slash	69	stimuli_target_trianglecircles.svg	stimuli_distractor_diamondtriangles.svg	21	yes	53	1	1355
6.6.1	win	2022-12-14	14:49:54	15:03:53	837870	5a04869ff2e3460001edad2e	726999024	1	main_slash	11	advance_on_keypress_SLASH	70	stimuli_target_trianglecircles.svg	stimuli_distractor_diamondtriangles.svg	21	yes	57	0	397
6.6.1	win	2022-12-14	14:49:54	15:03:56	840702	5a04869ff2e3460001edad2e	726999024	1	main_slash	11	main_slash	71	stimuli_distractor_trianglediamonds.svg	stimuli_distractor_diamondtriangles.svg	35	no	53	0	1803
6.6.1	win	2022-12-14	14:49:54	15:03:56	840702	5a04869ff2e3460001edad2e	726999024	1	main_slash	11	advance_on_keypress_SLASH	72	stimuli_distractor_trianglediamonds.svg	stimuli_distractor_diamondtriangles.svg	35	no	57	0	618
6.6.1	win	2022-12-14	14:49:54	15:03:58	842862	5a04869ff2e3460001edad2e	726999024	1	main_slash	11	main_slash	73	stimuli_distractor_trianglediamonds.svg	stimuli_target_squarediamonds.svg	12	yes	53	1	897
6.6.1	win	2022-12-14	14:49:54	15:03:58	842862	5a04869ff2e3460001edad2e	726999024	1	main_slash	11	advance_on_keypress_SLASH	74	stimuli_distractor_trianglediamonds.svg	stimuli_target_squarediamonds.svg	12	yes	57	0	260
6.6.1	win	2022-12-14	14:49:54	15:04:00	844654	5a04869ff2e3460001edad2e	726999024	1	main_slash	11	main_slash	75	stimuli_distractor_diamondtriangles.svg	stimuli_target_circletriangles.svg	13	yes	53	1	888
6.6.1	win	2022-12-14	14:49:54	15:04:00	844654	5a04869ff2e3460001edad2e	726999024	1	main_slash	11	advance_on_keypress_SLASH	76	stimuli_distractor_diamondtriangles.svg	stimuli_target_circletriangles.svg	13	yes	57	0	268
6.6.1	win	2022-12-14	14:49:54	15:04:02	846918	5a04869ff2e3460001edad2e	726999024	1	main_slash	11	main_slash	77	stimuli_distractor_trianglediamonds.svg	stimuli_target_diamondcircles.svg	27	yes	53	1	1353
6.6.1	win	2022-12-14	14:49:54	15:04:02	846918	5a04869ff2e3460001edad2e	726999024	1	main_slash	11	advance_on_keypress_SLASH	78	stimuli_distractor_trianglediamonds.svg	stimuli_target_diamondcircles.svg	27	yes	57	0	290
6.6.1	win	2022-12-14	14:49:54	15:04:05	849848	5a04869ff2e3460001edad2e	726999024	1	main_slash	11	main_slash	79	stimuli_distractor_trianglediamonds.svg	stimuli_distractor_diamondtriangles.svg	36	no	0	1	2000
6.6.1	win	2022-12-14	14:49:54	15:04:05	849848	5a04869ff2e3460001edad2e	726999024	1	main_slash	11	advance_on_keypress_SLASH	80	stimuli_distractor_trianglediamonds.svg	stimuli_distractor_diamondtriangles.svg	36	no	57	0	428
6.6.1	win	2022-12-14	14:49:54	15:04:07	851846	5a04869ff2e3460001edad2e	726999024	1	main_slash	11	main_slash	81	stimuli_target_squarediamonds.svg	stimuli_distractor_trianglediamonds.svg	4	yes	53	1	930
6.6.1	win	2022-12-14	14:49:54	15:04:07	851846	5a04869ff2e3460001edad2e	726999024	1	main_slash	11	advance_on_keypress_SLASH	82	stimuli_target_squarediamonds.svg	stimuli_distractor_trianglediamonds.svg	4	yes	57	0	253
6.6.1	win	2022-12-14	14:49:54	15:04:10	854748	5a04869ff2e3460001edad2e	726999024	1	main_slash	11	main_slash	83	stimuli_distractor_diamondtriangles.svg	stimuli_target_squaretriangles.svg	15	yes	0	0	2000
6.6.1	win	2022-12-14	14:49:54	15:04:10	854748	5a04869ff2e3460001edad2e	726999024	1	main_slash	11	advance_on_keypress_SLASH	84	stimuli_distractor_diamondtriangles.svg	stimuli_target_squaretriangles.svg	15	yes	57	0	592
6.6.1	win	2022-12-14	14:49:54	15:04:12	856854	5a04869ff2e3460001edad2e	726999024	1	main_slash	11	main_slash	85	stimuli_target_circlediamonds.svg	stimuli_distractor_diamondtriangles.svg	6	yes	53	1	873
6.6.1	win	2022-12-14	14:49:54	15:04:12	856854	5a04869ff2e3460001edad2e	726999024	1	main_slash	11	advance_on_keypress_SLASH	86	stimuli_target_circlediamonds.svg	stimuli_distractor_diamondtriangles.svg	6	yes	57	0	284
6.6.1	win	2022-12-14	14:49:54	15:04:15	859782	5a04869ff2e3460001edad2e	726999024	1	main_slash	11	main_slash	87	stimuli_distractor_trianglediamonds.svg	stimuli_distractor_diamondtriangles.svg	36	no	0	1	2000
6.6.1	win	2022-12-14	14:49:54	15:04:15	859782	5a04869ff2e3460001edad2e	726999024	1	main_slash	11	advance_on_keypress_SLASH	88	stimuli_distractor_trianglediamonds.svg	stimuli_distractor_diamondtriangles.svg	36	no	57	0	352
6.6.1	win	2022-12-14	14:49:54	15:04:18	862781	5a04869ff2e3460001edad2e	726999024	1	main_slash	11	main_slash	89	stimuli_distractor_diamondtriangles.svg	stimuli_distractor_trianglediamonds.svg	37	no	0	1	2000
6.6.1	win	2022-12-14	14:49:54	15:04:18	862781	5a04869ff2e3460001edad2e	726999024	1	main_slash	11	advance_on_keypress_SLASH	90	stimuli_distractor_diamondtriangles.svg	stimuli_distractor_trianglediamonds.svg	37	no	57	0	287
6.6.1	win	2022-12-14	14:49:54	15:04:20	864590	5a04869ff2e3460001edad2e	726999024	1	main_slash	11	main_slash	91	stimuli_target_trianglesquares.svg	stimuli_distractor_trianglediamonds.svg	18	yes	53	1	875
6.6.1	win	2022-12-14	14:49:54	15:04:20	864590	5a04869ff2e3460001edad2e	726999024	1	main_slash	11	advance_on_keypress_SLASH	92	stimuli_target_trianglesquares.svg	stimuli_distractor_trianglediamonds.svg	18	yes	57	0	383
6.6.1	win	2022-12-14	14:49:54	15:04:23	867648	5a04869ff2e3460001edad2e	726999024	1	main_slash	11	main_slash	93	stimuli_distractor_trianglediamonds.svg	stimuli_distractor_trianglediamonds.svg	34	no	0	1	2000
6.6.1	win	2022-12-14	14:49:54	15:04:23	867648	5a04869ff2e3460001edad2e	726999024	1	main_slash	11	advance_on_keypress_SLASH	94	stimuli_distractor_trianglediamonds.svg	stimuli_distractor_trianglediamonds.svg	34	no	57	0	341
6.6.1	win	2022-12-14	14:49:54	15:04:26	870632	5a04869ff2e3460001edad2e	726999024	1	main_slash	11	main_slash	95	stimuli_distractor_trianglediamonds.svg	stimuli_distractor_trianglediamonds.svg	33	no	0	1	2000
6.6.1	win	2022-12-14	14:49:54	15:04:26	870632	5a04869ff2e3460001edad2e	726999024	1	main_slash	11	advance_on_keypress_SLASH	96	stimuli_distractor_trianglediamonds.svg	stimuli_distractor_trianglediamonds.svg	33	no	57	0	309
6.6.1	win	2022-12-14	14:49:54	15:04:28	872438	5a04869ff2e3460001edad2e	726999024	1	main_slash	11	main_slash	97	stimuli_distractor_diamondtriangles.svg	stimuli_target_circlediamonds.svg	14	yes	53	1	856
6.6.1	win	2022-12-14	14:49:54	15:04:28	872438	5a04869ff2e3460001edad2e	726999024	1	main_slash	11	advance_on_keypress_SLASH	98	stimuli_distractor_diamondtriangles.svg	stimuli_target_circlediamonds.svg	14	yes	57	0	278
6.6.1	win	2022-12-14	14:49:54	15:04:30	874214	5a04869ff2e3460001edad2e	726999024	1	main_slash	11	main_slash	99	stimuli_distractor_trianglediamonds.svg	stimuli_target_squarediamonds.svg	12	yes	53	1	865
6.6.1	win	2022-12-14	14:49:54	15:04:30	874214	5a04869ff2e3460001edad2e	726999024	1	main_slash	11	advance_on_keypress_SLASH	100	stimuli_distractor_trianglediamonds.svg	stimuli_target_squarediamonds.svg	12	yes	57	0	270
6.6.1	win	2022-12-14	14:49:54	15:04:33	877132	5a04869ff2e3460001edad2e	726999024	1	main_slash	11	main_slash	101	stimuli_distractor_diamondtriangles.svg	stimuli_distractor_diamondtriangles.svg	40	no	0	1	2000
6.6.1	win	2022-12-14	14:49:54	15:04:33	877132	5a04869ff2e3460001edad2e	726999024	1	main_slash	11	advance_on_keypress_SLASH	102	stimuli_distractor_diamondtriangles.svg	stimuli_distractor_diamondtriangles.svg	40	no	57	0	817
6.6.1	win	2022-12-14	14:49:54	15:04:35	879653	5a04869ff2e3460001edad2e	726999024	1	main_slash	11	main_slash	103	stimuli_target_diamondsquares.svg	stimuli_distractor_diamondtriangles.svg	24	yes	53	1	1055
6.6.1	win	2022-12-14	14:49:54	15:04:35	879653	5a04869ff2e3460001edad2e	726999024	1	main_slash	11	advance_on_keypress_SLASH	104	stimuli_target_diamondsquares.svg	stimuli_distractor_diamondtriangles.svg	24	yes	57	0	308
6.6.1	win	2022-12-14	14:49:54	15:04:37	881509	5a04869ff2e3460001edad2e	726999024	1	main_slash	11	main_slash	105	stimuli_distractor_diamondtriangles.svg	stimuli_target_squarediamonds.svg	16	yes	53	1	911
6.6.1	win	2022-12-14	14:49:54	15:04:37	881509	5a04869ff2e3460001edad2e	726999024	1	main_slash	11	advance_on_keypress_SLASH	106	stimuli_distractor_diamondtriangles.svg	stimuli_target_squarediamonds.svg	16	yes	57	0	274
6.6.1	win	2022-12-14	14:49:54	15:04:39	883397	5a04869ff2e3460001edad2e	726999024	1	main_slash	11	main_slash	107	stimuli_distractor_diamondtriangles.svg	stimuli_target_diamondsquares.svg	32	yes	53	1	982
6.6.1	win	2022-12-14	14:49:54	15:04:39	883397	5a04869ff2e3460001edad2e	726999024	1	main_slash	11	advance_on_keypress_SLASH	108	stimuli_distractor_diamondtriangles.svg	stimuli_target_diamondsquares.svg	32	yes	57	0	430
6.6.1	win	2022-12-14	14:49:54	15:04:41	885325	5a04869ff2e3460001edad2e	726999024	1	main_slash	11	main_slash	109	stimuli_target_squaretriangles.svg	stimuli_distractor_diamondtriangles.svg	7	yes	53	1	844
6.6.1	win	2022-12-14	14:49:54	15:04:41	885325	5a04869ff2e3460001edad2e	726999024	1	main_slash	11	advance_on_keypress_SLASH	110	stimuli_target_squaretriangles.svg	stimuli_distractor_diamondtriangles.svg	7	yes	57	0	370
6.6.1	win	2022-12-14	14:49:54	15:04:43	887293	5a04869ff2e3460001edad2e	726999024	1	main_slash	11	main_slash	111	stimuli_target_squarediamonds.svg	stimuli_distractor_diamondtriangles.svg	8	yes	53	1	962
6.6.1	win	2022-12-14	14:49:54	15:04:43	887293	5a04869ff2e3460001edad2e	726999024	1	main_slash	11	advance_on_keypress_SLASH	112	stimuli_target_squarediamonds.svg	stimuli_distractor_diamondtriangles.svg	8	yes	57	0	307
6.6.1	win	2022-12-14	14:49:54	15:04:45	889165	5a04869ff2e3460001edad2e	726999024	1	main_slash	11	main_slash	113	stimuli_target_trianglecircles.svg	stimuli_distractor_trianglediamonds.svg	17	yes	53	1	934
6.6.1	win	2022-12-14	14:49:54	15:04:45	889165	5a04869ff2e3460001edad2e	726999024	1	main_slash	11	advance_on_keypress_SLASH	114	stimuli_target_trianglecircles.svg	stimuli_distractor_trianglediamonds.svg	17	yes	57	0	280
6.6.1	win	2022-12-14	14:49:54	15:04:47	891013	5a04869ff2e3460001edad2e	726999024	1	main_slash	11	main_slash	115	stimuli_target_circletriangles.svg	stimuli_distractor_diamondtriangles.svg	5	yes	53	1	915
6.6.1	win	2022-12-14	14:49:54	15:04:47	891013	5a04869ff2e3460001edad2e	726999024	1	main_slash	11	advance_on_keypress_SLASH	116	stimuli_target_circletriangles.svg	stimuli_distractor_diamondtriangles.svg	5	yes	57	0	278
6.6.1	win	2022-12-14	14:49:54	15:04:49	892958	5a04869ff2e3460001edad2e	726999024	1	main_slash	11	main_slash	117	stimuli_target_squaretriangles.svg	stimuli_distractor_trianglediamonds.svg	3	yes	53	1	1026
6.6.1	win	2022-12-14	14:49:54	15:04:49	892958	5a04869ff2e3460001edad2e	726999024	1	main_slash	11	advance_on_keypress_SLASH	118	stimuli_target_squaretriangles.svg	stimuli_distractor_trianglediamonds.svg	3	yes	57	0	392
6.6.1	win	2022-12-14	14:49:54	15:04:50	894846	5a04869ff2e3460001edad2e	726999024	1	main_slash	11	main_slash	119	stimuli_distractor_trianglediamonds.svg	stimuli_target_squaretriangles.svg	11	yes	53	1	864
6.6.1	win	2022-12-14	14:49:54	15:04:50	894846	5a04869ff2e3460001edad2e	726999024	1	main_slash	11	advance_on_keypress_SLASH	120	stimuli_distractor_trianglediamonds.svg	stimuli_target_squaretriangles.svg	11	yes	57	0	548
6.6.1	win	2022-12-14	14:49:54	15:04:53	897678	5a04869ff2e3460001edad2e	726999024	1	main_slash	11	main_slash	121	stimuli_distractor_diamondtriangles.svg	stimuli_distractor_diamondtriangles.svg	39	no	53	0	1629
6.6.1	win	2022-12-14	14:49:54	15:04:53	897678	5a04869ff2e3460001edad2e	726999024	1	main_slash	11	advance_on_keypress_SLASH	122	stimuli_distractor_diamondtriangles.svg	stimuli_distractor_diamondtriangles.svg	39	no	57	0	1052
6.6.1	win	2022-12-14	14:49:54	15:04:56	900301	5a04869ff2e3460001edad2e	726999024	1	main_slash	11	main_slash	123	stimuli_target_circletriangles.svg	stimuli_distractor_trianglediamonds.svg	1	yes	53	1	936
6.6.1	win	2022-12-14	14:49:54	15:04:56	900301	5a04869ff2e3460001edad2e	726999024	1	main_slash	11	advance_on_keypress_SLASH	124	stimuli_target_circletriangles.svg	stimuli_distractor_trianglediamonds.svg	1	yes	57	0	346
6.6.1	win	2022-12-14	14:49:54	15:04:58	902622	5a04869ff2e3460001edad2e	726999024	1	main_slash	11	main_slash	125	stimuli_target_circlediamonds.svg	stimuli_distractor_trianglediamonds.svg	2	yes	53	1	1340
6.6.1	win	2022-12-14	14:49:54	15:04:58	902622	5a04869ff2e3460001edad2e	726999024	1	main_slash	11	advance_on_keypress_SLASH	126	stimuli_target_circlediamonds.svg	stimuli_distractor_trianglediamonds.svg	2	yes	57	0	334
6.6.1	win	2022-12-14	14:49:54	15:05:00	904445	5a04869ff2e3460001edad2e	726999024	1	main_slash	11	main_slash	127	stimuli_target_trianglecircles.svg	stimuli_distractor_diamondtriangles.svg	21	yes	53	1	847
6.6.1	win	2022-12-14	14:49:54	15:05:00	904445	5a04869ff2e3460001edad2e	726999024	1	main_slash	11	advance_on_keypress_SLASH	128	stimuli_target_trianglecircles.svg	stimuli_distractor_diamondtriangles.svg	21	yes	57	0	276
6.6.1	win	2022-12-14	14:49:54	15:05:02	906197	5a04869ff2e3460001edad2e	726999024	1	main_slash	11	main_slash	129	stimuli_target_trianglesquares.svg	stimuli_distractor_diamondtriangles.svg	22	yes	53	1	832
6.6.1	win	2022-12-14	14:49:54	15:05:02	906197	5a04869ff2e3460001edad2e	726999024	1	main_slash	11	advance_on_keypress_SLASH	130	stimuli_target_trianglesquares.svg	stimuli_distractor_diamondtriangles.svg	22	yes	57	0	287
6.6.1	win	2022-12-14	14:49:54	15:05:04	907997	5a04869ff2e3460001edad2e	726999024	1	main_slash	11	main_slash	131	stimuli_distractor_trianglediamonds.svg	stimuli_target_diamondcircles.svg	27	yes	53	1	866
6.6.1	win	2022-12-14	14:49:54	15:05:04	907997	5a04869ff2e3460001edad2e	726999024	1	main_slash	11	advance_on_keypress_SLASH	132	stimuli_distractor_trianglediamonds.svg	stimuli_target_diamondcircles.svg	27	yes	57	0	278
6.6.1	win	2022-12-14	14:49:54	15:05:05	909814	5a04869ff2e3460001edad2e	726999024	1	main_slash	11	main_slash	133	stimuli_distractor_trianglediamonds.svg	stimuli_target_trianglesquares.svg	26	yes	53	1	899
6.6.1	win	2022-12-14	14:49:54	15:05:05	909814	5a04869ff2e3460001edad2e	726999024	1	main_slash	11	advance_on_keypress_SLASH	134	stimuli_distractor_trianglediamonds.svg	stimuli_target_trianglesquares.svg	26	yes	57	0	262
6.6.1	win	2022-12-14	14:49:54	15:05:07	911589	5a04869ff2e3460001edad2e	726999024	1	main_slash	11	main_slash	135	stimuli_distractor_diamondtriangles.svg	stimuli_target_trianglecircles.svg	29	yes	53	1	874
6.6.1	win	2022-12-14	14:49:54	15:05:07	911589	5a04869ff2e3460001edad2e	726999024	1	main_slash	11	advance_on_keypress_SLASH	136	stimuli_distractor_diamondtriangles.svg	stimuli_target_trianglecircles.svg	29	yes	57	0	287
6.6.1	win	2022-12-14	14:49:54	15:05:10	914515	5a04869ff2e3460001edad2e	726999024	1	main_slash	11	main_slash	137	stimuli_distractor_trianglediamonds.svg	stimuli_distractor_diamondtriangles.svg	35	no	0	1	2000
6.6.1	win	2022-12-14	14:49:54	15:05:10	914515	5a04869ff2e3460001edad2e	726999024	1	main_slash	11	advance_on_keypress_SLASH	138	stimuli_distractor_trianglediamonds.svg	stimuli_distractor_diamondtriangles.svg	35	no	57	0	458
6.6.1	win	2022-12-14	14:49:54	15:05:12	916541	5a04869ff2e3460001edad2e	726999024	1	main_slash	11	main_slash	139	stimuli_distractor_trianglediamonds.svg	stimuli_target_circletriangles.svg	9	yes	53	1	926
6.6.1	win	2022-12-14	14:49:54	15:05:12	916541	5a04869ff2e3460001edad2e	726999024	1	main_slash	11	advance_on_keypress_SLASH	140	stimuli_distractor_trianglediamonds.svg	stimuli_target_circletriangles.svg	9	yes	57	0	354
6.6.1	win	2022-12-14	14:49:54	15:05:14	918485	5a04869ff2e3460001edad2e	726999024	1	main_slash	11	main_slash	141	stimuli_distractor_trianglediamonds.svg	stimuli_target_trianglecircles.svg	25	yes	53	1	954
6.6.1	win	2022-12-14	14:49:54	15:05:14	918485	5a04869ff2e3460001edad2e	726999024	1	main_slash	11	advance_on_keypress_SLASH	142	stimuli_distractor_trianglediamonds.svg	stimuli_target_trianglecircles.svg	25	yes	57	0	339
6.6.1	win	2022-12-14	14:49:54	15:05:16	920614	5a04869ff2e3460001edad2e	726999024	1	main_slash	11	main_slash	143	stimuli_distractor_diamondtriangles.svg	stimuli_distractor_trianglediamonds.svg	38	no	53	0	1148
6.6.1	win	2022-12-14	14:49:54	15:05:16	920614	5a04869ff2e3460001edad2e	726999024	1	main_slash	11	advance_on_keypress_SLASH	144	stimuli_distractor_diamondtriangles.svg	stimuli_distractor_trianglediamonds.svg	38	no	57	0	326
6.6.1	win	2022-12-14	14:49:54	15:05:18	922557	5a04869ff2e3460001edad2e	726999024	1	main_slash	11	main_slash	145	stimuli_target_diamondsquares.svg	stimuli_distractor_trianglediamonds.svg	20	yes	53	1	976
6.6.1	win	2022-12-14	14:49:54	15:05:18	922557	5a04869ff2e3460001edad2e	726999024	1	main_slash	11	advance_on_keypress_SLASH	146	stimuli_target_diamondsquares.svg	stimuli_distractor_trianglediamonds.svg	20	yes	57	0	384
6.6.1	win	2022-12-14	14:49:54	15:05:20	924429	5a04869ff2e3460001edad2e	726999024	1	main_slash	11	main_slash	147	stimuli_distractor_diamondtriangles.svg	stimuli_target_trianglesquares.svg	30	yes	53	1	848
6.6.1	win	2022-12-14	14:49:54	15:05:20	924429	5a04869ff2e3460001edad2e	726999024	1	main_slash	11	advance_on_keypress_SLASH	148	stimuli_distractor_diamondtriangles.svg	stimuli_target_trianglesquares.svg	30	yes	57	0	317
6.6.1	win	2022-12-14	14:49:54	15:05:22	926349	5a04869ff2e3460001edad2e	726999024	1	main_slash	11	main_slash	149	stimuli_distractor_trianglediamonds.svg	stimuli_target_circlediamonds.svg	10	yes	53	1	951
6.6.1	win	2022-12-14	14:49:54	15:05:22	926349	5a04869ff2e3460001edad2e	726999024	1	main_slash	11	advance_on_keypress_SLASH	150	stimuli_distractor_trianglediamonds.svg	stimuli_target_circlediamonds.svg	10	yes	57	0	345
6.6.1	win	2022-12-14	14:49:54	15:05:24	928245	5a04869ff2e3460001edad2e	726999024	1	main_slash	11	main_slash	151	stimuli_distractor_trianglediamonds.svg	stimuli_target_diamondsquares.svg	28	yes	53	1	914
6.6.1	win	2022-12-14	14:49:54	15:05:24	928245	5a04869ff2e3460001edad2e	726999024	1	main_slash	11	advance_on_keypress_SLASH	152	stimuli_distractor_trianglediamonds.svg	stimuli_target_diamondsquares.svg	28	yes	57	0	284
6.6.1	win	2022-12-14	14:49:54	15:05:26	930109	5a04869ff2e3460001edad2e	726999024	1	main_slash	11	main_slash	153	stimuli_distractor_diamondtriangles.svg	stimuli_target_circletriangles.svg	13	yes	53	1	928
6.6.1	win	2022-12-14	14:49:54	15:05:26	930109	5a04869ff2e3460001edad2e	726999024	1	main_slash	11	advance_on_keypress_SLASH	154	stimuli_distractor_diamondtriangles.svg	stimuli_target_circletriangles.svg	13	yes	57	0	363
6.6.1	win	2022-12-14	14:49:54	15:05:28	931974	5a04869ff2e3460001edad2e	726999024	1	main_slash	11	main_slash	155	stimuli_target_diamondcircles.svg	stimuli_distractor_diamondtriangles.svg	23	yes	53	1	875
6.6.1	win	2022-12-14	14:49:54	15:05:28	931974	5a04869ff2e3460001edad2e	726999024	1	main_slash	11	advance_on_keypress_SLASH	156	stimuli_target_diamondcircles.svg	stimuli_distractor_diamondtriangles.svg	23	yes	57	0	368
6.6.1	win	2022-12-14	14:49:54	15:05:29	933861	5a04869ff2e3460001edad2e	726999024	1	main_slash	11	main_slash	157	stimuli_target_diamondcircles.svg	stimuli_distractor_trianglediamonds.svg	19	yes	53	1	880
6.6.1	win	2022-12-14	14:49:54	15:05:29	933861	5a04869ff2e3460001edad2e	726999024	1	main_slash	11	advance_on_keypress_SLASH	158	stimuli_target_diamondcircles.svg	stimuli_distractor_trianglediamonds.svg	19	yes	57	0	357
6.6.1	win	2022-12-14	14:49:54	15:05:31	935733	5a04869ff2e3460001edad2e	726999024	1	main_slash	11	main_slash	159	stimuli_distractor_diamondtriangles.svg	stimuli_target_diamondcircles.svg	31	yes	53	1	885
6.6.1	win	2022-12-14	14:49:54	15:05:31	935733	5a04869ff2e3460001edad2e	726999024	1	main_slash	11	advance_on_keypress_SLASH	160	stimuli_distractor_diamondtriangles.svg	stimuli_target_diamondcircles.svg	31	yes	57	0	305