build	computer.platform	date	time	timestamp	time_elapsed_ms	subject	group	session	blockcode	blocknum	trialcode	trialnum	stimulus_left	stimulus_right	stim_index	target_present	response	correct	latency
6.6.1	mac	2022-12-29	12:18:53	12:21:29	154601	60fe1a1aef4770645874259f	242147157	1	practice_slash	5	practice_slash	1	stimuli_target_circlediamonds.svg	stimuli_distractor_trianglediamonds.svg	4	yes	53	1	1341
6.6.1	mac	2022-12-29	12:18:53	12:21:29	154601	60fe1a1aef4770645874259f	242147157	1	practice_slash	5	advance_on_keypress_SLASH	2	stimuli_target_circlediamonds.svg	stimuli_distractor_trianglediamonds.svg	4	yes	57	0	2771
6.6.1	mac	2022-12-29	12:18:53	12:21:35	159838	60fe1a1aef4770645874259f	242147157	1	practice_slash	5	practice_slash	3	stimuli_distractor_trianglediamonds.svg	stimuli_target_circlediamonds.svg	10	yes	53	1	830
6.6.1	mac	2022-12-29	12:18:53	12:21:35	159838	60fe1a1aef4770645874259f	242147157	1	practice_slash	5	advance_on_keypress_SLASH	4	stimuli_distractor_trianglediamonds.svg	stimuli_target_circlediamonds.svg	10	yes	57	0	1128
6.6.1	mac	2022-12-29	12:18:53	12:21:39	164615	60fe1a1aef4770645874259f	242147157	1	practice_slash	5	practice_slash	5	stimuli_distractor_diamondtriangles.svg	stimuli_target_trianglecircles.svg	9	yes	0	0	2000
6.6.1	mac	2022-12-29	12:18:53	12:21:39	164615	60fe1a1aef4770645874259f	242147157	1	practice_slash	5	advance_on_keypress_SLASH	6	stimuli_distractor_diamondtriangles.svg	stimuli_target_trianglecircles.svg	9	yes	57	0	997
6.6.1	mac	2022-12-29	12:18:53	12:21:43	167992	60fe1a1aef4770645874259f	242147157	1	practice_slash	5	practice_slash	7	stimuli_target_circlediamonds.svg	stimuli_distractor_diamondtriangles.svg	1	yes	53	1	728
6.6.1	mac	2022-12-29	12:18:53	12:21:43	167992	60fe1a1aef4770645874259f	242147157	1	practice_slash	5	advance_on_keypress_SLASH	8	stimuli_target_circlediamonds.svg	stimuli_distractor_diamondtriangles.svg	1	yes	57	0	1161
6.6.1	mac	2022-12-29	12:18:53	12:21:47	171622	60fe1a1aef4770645874259f	242147157	1	practice_slash	5	practice_slash	9	stimuli_distractor_diamondtriangles.svg	stimuli_target_diamondcircles.svg	8	yes	53	1	816
6.6.1	mac	2022-12-29	12:18:53	12:21:47	171622	60fe1a1aef4770645874259f	242147157	1	practice_slash	5	advance_on_keypress_SLASH	10	stimuli_distractor_diamondtriangles.svg	stimuli_target_diamondcircles.svg	8	yes	57	0	482
6.6.1	mac	2022-12-29	12:18:53	12:21:49	174448	60fe1a1aef4770645874259f	242147157	1	practice_slash	5	practice_slash	11	stimuli_target_diamondsquares.svg	stimuli_distractor_diamondtriangles.svg	3	yes	53	1	683
6.6.1	mac	2022-12-29	12:18:53	12:21:49	174448	60fe1a1aef4770645874259f	242147157	1	practice_slash	5	advance_on_keypress_SLASH	12	stimuli_target_diamondsquares.svg	stimuli_distractor_diamondtriangles.svg	3	yes	57	0	400
6.6.1	mac	2022-12-29	12:18:53	12:21:53	178485	60fe1a1aef4770645874259f	242147157	1	practice_slash	5	practice_slash	13	stimuli_distractor_trianglediamonds.svg	stimuli_distractor_trianglediamonds.svg	15	no	0	1	2000
6.6.1	mac	2022-12-29	12:18:53	12:21:53	178485	60fe1a1aef4770645874259f	242147157	1	practice_slash	5	advance_on_keypress_SLASH	14	stimuli_distractor_trianglediamonds.svg	stimuli_distractor_trianglediamonds.svg	15	no	57	0	2423
6.6.1	mac	2022-12-29	12:18:53	12:21:58	183418	60fe1a1aef4770645874259f	242147157	1	practice_slash	5	practice_slash	15	stimuli_target_diamondsquares.svg	stimuli_distractor_trianglediamonds.svg	6	yes	53	1	864
6.6.1	mac	2022-12-29	12:18:53	12:21:58	183418	60fe1a1aef4770645874259f	242147157	1	practice_slash	5	advance_on_keypress_SLASH	16	stimuli_target_diamondsquares.svg	stimuli_distractor_trianglediamonds.svg	6	yes	57	0	1132
6.6.1	mac	2022-12-29	12:18:53	12:22:03	188194	60fe1a1aef4770645874259f	242147157	1	practice_slash	5	practice_slash	17	stimuli_distractor_diamondtriangles.svg	stimuli_distractor_diamondtriangles.svg	13	no	0	1	2000
6.6.1	mac	2022-12-29	12:18:53	12:22:03	188194	60fe1a1aef4770645874259f	242147157	1	practice_slash	5	advance_on_keypress_SLASH	18	stimuli_distractor_diamondtriangles.svg	stimuli_distractor_diamondtriangles.svg	13	no	57	0	734
6.6.1	mac	2022-12-29	12:18:53	12:22:06	191261	60fe1a1aef4770645874259f	242147157	1	practice_slash	5	practice_slash	19	stimuli_target_squarediamonds.svg	stimuli_distractor_trianglediamonds.svg	5	yes	53	1	701
6.6.1	mac	2022-12-29	12:18:53	12:22:06	191261	60fe1a1aef4770645874259f	242147157	1	practice_slash	5	advance_on_keypress_SLASH	20	stimuli_target_squarediamonds.svg	stimuli_distractor_trianglediamonds.svg	5	yes	57	0	573
6.6.1	mac	2022-12-29	12:18:53	12:22:10	195479	60fe1a1aef4770645874259f	242147157	1	practice_slash	5	practice_slash	21	stimuli_distractor_trianglediamonds.svg	stimuli_distractor_diamondtriangles.svg	16	no	0	1	2000
6.6.1	mac	2022-12-29	12:18:53	12:22:10	195479	60fe1a1aef4770645874259f	242147157	1	practice_slash	5	advance_on_keypress_SLASH	22	stimuli_distractor_trianglediamonds.svg	stimuli_distractor_diamondtriangles.svg	16	no	57	0	701
6.6.1	mac	2022-12-29	12:18:53	12:22:13	198588	60fe1a1aef4770645874259f	242147157	1	practice_slash	5	practice_slash	23	stimuli_distractor_diamondtriangles.svg	stimuli_target_circletriangles.svg	7	yes	53	1	775
6.6.1	mac	2022-12-29	12:18:53	12:22:13	198588	60fe1a1aef4770645874259f	242147157	1	practice_slash	5	advance_on_keypress_SLASH	24	stimuli_distractor_diamondtriangles.svg	stimuli_target_circletriangles.svg	7	yes	57	0	405
6.6.1	mac	2022-12-29	12:18:53	12:22:16	201521	60fe1a1aef4770645874259f	242147157	1	practice_slash	5	practice_slash	25	stimuli_distractor_trianglediamonds.svg	stimuli_target_diamondcircles.svg	12	yes	53	1	902
6.6.1	mac	2022-12-29	12:18:53	12:22:16	201521	60fe1a1aef4770645874259f	242147157	1	practice_slash	5	advance_on_keypress_SLASH	26	stimuli_distractor_trianglediamonds.svg	stimuli_target_diamondcircles.svg	12	yes	57	0	655
6.6.1	mac	2022-12-29	12:18:53	12:22:21	205824	60fe1a1aef4770645874259f	242147157	1	practice_slash	5	practice_slash	27	stimuli_distractor_diamondtriangles.svg	stimuli_distractor_trianglediamonds.svg	14	no	0	1	2000
6.6.1	mac	2022-12-29	12:18:53	12:22:21	205824	60fe1a1aef4770645874259f	242147157	1	practice_slash	5	advance_on_keypress_SLASH	28	stimuli_distractor_diamondtriangles.svg	stimuli_distractor_trianglediamonds.svg	14	no	57	0	403
6.6.1	mac	2022-12-29	12:18:53	12:22:23	208540	60fe1a1aef4770645874259f	242147157	1	practice_slash	5	practice_slash	29	stimuli_target_squarediamonds.svg	stimuli_distractor_diamondtriangles.svg	2	yes	53	1	684
6.6.1	mac	2022-12-29	12:18:53	12:22:23	208540	60fe1a1aef4770645874259f	242147157	1	practice_slash	5	advance_on_keypress_SLASH	30	stimuli_target_squarediamonds.svg	stimuli_distractor_diamondtriangles.svg	2	yes	57	0	670
6.6.1	mac	2022-12-29	12:18:53	12:22:26	211559	60fe1a1aef4770645874259f	242147157	1	practice_slash	5	practice_slash	31	stimuli_distractor_trianglediamonds.svg	stimuli_target_squarediamonds.svg	11	yes	53	1	711
6.6.1	mac	2022-12-29	12:18:53	12:22:26	211559	60fe1a1aef4770645874259f	242147157	1	practice_slash	5	advance_on_keypress_SLASH	32	stimuli_distractor_trianglediamonds.svg	stimuli_target_squarediamonds.svg	11	yes	57	0	331
6.6.1	mac	2022-12-29	12:18:53	12:22:38	223574	60fe1a1aef4770645874259f	242147157	1	main_slash	7	main_slash	1	stimuli_distractor_trianglediamonds.svg	stimuli_distractor_trianglediamonds.svg	34	no	0	1	2000
6.6.1	mac	2022-12-29	12:18:53	12:22:38	223574	60fe1a1aef4770645874259f	242147157	1	main_slash	7	advance_on_keypress_SLASH	2	stimuli_distractor_trianglediamonds.svg	stimuli_distractor_trianglediamonds.svg	34	no	57	0	1077
6.6.1	mac	2022-12-29	12:18:53	12:22:41	225847	60fe1a1aef4770645874259f	242147157	1	main_slash	7	main_slash	3	stimuli_distractor_diamondtriangles.svg	stimuli_target_circletriangles.svg	13	yes	53	1	542
6.6.1	mac	2022-12-29	12:18:53	12:22:41	225847	60fe1a1aef4770645874259f	242147157	1	main_slash	7	advance_on_keypress_SLASH	4	stimuli_distractor_diamondtriangles.svg	stimuli_target_circletriangles.svg	13	yes	57	0	1723
6.6.1	mac	2022-12-29	12:18:53	12:22:44	228879	60fe1a1aef4770645874259f	242147157	1	main_slash	7	main_slash	5	stimuli_distractor_trianglediamonds.svg	stimuli_target_circletriangles.svg	9	yes	53	1	667
6.6.1	mac	2022-12-29	12:18:53	12:22:44	228879	60fe1a1aef4770645874259f	242147157	1	main_slash	7	advance_on_keypress_SLASH	6	stimuli_distractor_trianglediamonds.svg	stimuli_target_circletriangles.svg	9	yes	57	0	2062
6.6.1	mac	2022-12-29	12:18:53	12:22:48	233584	60fe1a1aef4770645874259f	242147157	1	main_slash	7	main_slash	7	stimuli_distractor_trianglediamonds.svg	stimuli_distractor_trianglediamonds.svg	33	no	0	1	2000
6.6.1	mac	2022-12-29	12:18:53	12:22:48	233584	60fe1a1aef4770645874259f	242147157	1	main_slash	7	advance_on_keypress_SLASH	8	stimuli_distractor_trianglediamonds.svg	stimuli_distractor_trianglediamonds.svg	33	no	57	0	689
6.6.1	mac	2022-12-29	12:18:53	12:22:50	235611	60fe1a1aef4770645874259f	242147157	1	main_slash	7	main_slash	9	stimuli_distractor_trianglediamonds.svg	stimuli_target_circlediamonds.svg	10	yes	53	1	682
6.6.1	mac	2022-12-29	12:18:53	12:22:50	235611	60fe1a1aef4770645874259f	242147157	1	main_slash	7	advance_on_keypress_SLASH	10	stimuli_distractor_trianglediamonds.svg	stimuli_target_circlediamonds.svg	10	yes	57	0	1554
6.6.1	mac	2022-12-29	12:18:53	12:22:53	238584	60fe1a1aef4770645874259f	242147157	1	main_slash	7	main_slash	11	stimuli_distractor_trianglediamonds.svg	stimuli_target_trianglecircles.svg	25	yes	53	1	781
6.6.1	mac	2022-12-29	12:18:53	12:22:53	238584	60fe1a1aef4770645874259f	242147157	1	main_slash	7	advance_on_keypress_SLASH	12	stimuli_distractor_trianglediamonds.svg	stimuli_target_trianglecircles.svg	25	yes	57	0	1137
6.6.1	mac	2022-12-29	12:18:53	12:22:56	241350	60fe1a1aef4770645874259f	242147157	1	main_slash	7	main_slash	13	stimuli_distractor_trianglediamonds.svg	stimuli_target_diamondcircles.svg	27	yes	53	1	990
6.6.1	mac	2022-12-29	12:18:53	12:22:56	241350	60fe1a1aef4770645874259f	242147157	1	main_slash	7	advance_on_keypress_SLASH	14	stimuli_distractor_trianglediamonds.svg	stimuli_target_diamondcircles.svg	27	yes	57	0	1119
6.6.1	mac	2022-12-29	12:18:53	12:22:59	244101	60fe1a1aef4770645874259f	242147157	1	main_slash	7	main_slash	15	stimuli_distractor_trianglediamonds.svg	stimuli_target_squaretriangles.svg	11	yes	53	1	1001
6.6.1	mac	2022-12-29	12:18:53	12:22:59	244101	60fe1a1aef4770645874259f	242147157	1	main_slash	7	advance_on_keypress_SLASH	16	stimuli_distractor_trianglediamonds.svg	stimuli_target_squaretriangles.svg	11	yes	57	0	2178
6.6.1	mac	2022-12-29	12:18:53	12:23:03	247637	60fe1a1aef4770645874259f	242147157	1	main_slash	7	main_slash	17	stimuli_target_trianglesquares.svg	stimuli_distractor_trianglediamonds.svg	18	yes	53	1	708
6.6.1	mac	2022-12-29	12:18:53	12:23:03	247637	60fe1a1aef4770645874259f	242147157	1	main_slash	7	advance_on_keypress_SLASH	18	stimuli_target_trianglesquares.svg	stimuli_distractor_trianglediamonds.svg	18	yes	57	0	1144
6.6.1	mac	2022-12-29	12:18:53	12:23:05	250314	60fe1a1aef4770645874259f	242147157	1	main_slash	7	main_slash	19	stimuli_target_diamondcircles.svg	stimuli_distractor_trianglediamonds.svg	19	yes	53	1	880
6.6.1	mac	2022-12-29	12:18:53	12:23:05	250314	60fe1a1aef4770645874259f	242147157	1	main_slash	7	advance_on_keypress_SLASH	20	stimuli_target_diamondcircles.svg	stimuli_distractor_trianglediamonds.svg	19	yes	57	0	763
6.6.1	mac	2022-12-29	12:18:53	12:23:07	252593	60fe1a1aef4770645874259f	242147157	1	main_slash	7	main_slash	21	stimuli_target_trianglecircles.svg	stimuli_distractor_trianglediamonds.svg	17	yes	53	1	867
6.6.1	mac	2022-12-29	12:18:53	12:23:07	252593	60fe1a1aef4770645874259f	242147157	1	main_slash	7	advance_on_keypress_SLASH	22	stimuli_target_trianglecircles.svg	stimuli_distractor_trianglediamonds.svg	17	yes	57	0	835
6.6.1	mac	2022-12-29	12:18:53	12:23:11	256060	60fe1a1aef4770645874259f	242147157	1	main_slash	7	main_slash	23	stimuli_distractor_diamondtriangles.svg	stimuli_distractor_trianglediamonds.svg	37	no	0	1	2000
6.6.1	mac	2022-12-29	12:18:53	12:23:11	256060	60fe1a1aef4770645874259f	242147157	1	main_slash	7	advance_on_keypress_SLASH	24	stimuli_distractor_diamondtriangles.svg	stimuli_distractor_trianglediamonds.svg	37	no	57	0	509
6.6.1	mac	2022-12-29	12:18:53	12:23:13	258187	60fe1a1aef4770645874259f	242147157	1	main_slash	7	main_slash	25	stimuli_distractor_diamondtriangles.svg	stimuli_target_squaretriangles.svg	15	yes	53	1	965
6.6.1	mac	2022-12-29	12:18:53	12:23:13	258187	60fe1a1aef4770645874259f	242147157	1	main_slash	7	advance_on_keypress_SLASH	26	stimuli_distractor_diamondtriangles.svg	stimuli_target_squaretriangles.svg	15	yes	57	0	1239
6.6.1	mac	2022-12-29	12:18:53	12:23:17	262059	60fe1a1aef4770645874259f	242147157	1	main_slash	7	main_slash	27	stimuli_distractor_diamondtriangles.svg	stimuli_distractor_trianglediamonds.svg	38	no	0	1	2000
6.6.1	mac	2022-12-29	12:18:53	12:23:17	262059	60fe1a1aef4770645874259f	242147157	1	main_slash	7	advance_on_keypress_SLASH	28	stimuli_distractor_diamondtriangles.svg	stimuli_distractor_trianglediamonds.svg	38	no	57	0	1060
6.6.1	mac	2022-12-29	12:18:53	12:23:20	264681	60fe1a1aef4770645874259f	242147157	1	main_slash	7	main_slash	29	stimuli_target_circletriangles.svg	stimuli_distractor_trianglediamonds.svg	1	yes	53	1	909
6.6.1	mac	2022-12-29	12:18:53	12:23:20	264681	60fe1a1aef4770645874259f	242147157	1	main_slash	7	advance_on_keypress_SLASH	30	stimuli_target_circletriangles.svg	stimuli_distractor_trianglediamonds.svg	1	yes	57	0	1605
6.6.1	mac	2022-12-29	12:18:53	12:23:24	268911	60fe1a1aef4770645874259f	242147157	1	main_slash	7	main_slash	31	stimuli_distractor_diamondtriangles.svg	stimuli_distractor_diamondtriangles.svg	39	no	0	1	2000
6.6.1	mac	2022-12-29	12:18:53	12:23:24	268911	60fe1a1aef4770645874259f	242147157	1	main_slash	7	advance_on_keypress_SLASH	32	stimuli_distractor_diamondtriangles.svg	stimuli_distractor_diamondtriangles.svg	39	no	57	0	430
6.6.1	mac	2022-12-29	12:18:53	12:23:27	271986	60fe1a1aef4770645874259f	242147157	1	main_slash	7	main_slash	33	stimuli_distractor_trianglediamonds.svg	stimuli_distractor_diamondtriangles.svg	36	no	0	1	2000
6.6.1	mac	2022-12-29	12:18:53	12:23:27	271986	60fe1a1aef4770645874259f	242147157	1	main_slash	7	advance_on_keypress_SLASH	34	stimuli_distractor_trianglediamonds.svg	stimuli_distractor_diamondtriangles.svg	36	no	57	0	383
6.6.1	mac	2022-12-29	12:18:53	12:23:29	273670	60fe1a1aef4770645874259f	242147157	1	main_slash	7	main_slash	35	stimuli_target_squarediamonds.svg	stimuli_distractor_diamondtriangles.svg	8	yes	53	1	655
6.6.1	mac	2022-12-29	12:18:53	12:23:29	273670	60fe1a1aef4770645874259f	242147157	1	main_slash	7	advance_on_keypress_SLASH	36	stimuli_target_squarediamonds.svg	stimuli_distractor_diamondtriangles.svg	8	yes	57	0	1553
6.6.1	mac	2022-12-29	12:18:53	12:23:31	276587	60fe1a1aef4770645874259f	242147157	1	main_slash	7	main_slash	37	stimuli_distractor_diamondtriangles.svg	stimuli_target_diamondsquares.svg	32	yes	53	1	732
6.6.1	mac	2022-12-29	12:18:53	12:23:31	276587	60fe1a1aef4770645874259f	242147157	1	main_slash	7	advance_on_keypress_SLASH	38	stimuli_distractor_diamondtriangles.svg	stimuli_target_diamondsquares.svg	32	yes	57	0	853
6.6.1	mac	2022-12-29	12:18:53	12:23:34	278808	60fe1a1aef4770645874259f	242147157	1	main_slash	7	main_slash	39	stimuli_distractor_trianglediamonds.svg	stimuli_target_diamondsquares.svg	28	yes	53	1	731
6.6.1	mac	2022-12-29	12:18:53	12:23:34	278808	60fe1a1aef4770645874259f	242147157	1	main_slash	7	advance_on_keypress_SLASH	40	stimuli_distractor_trianglediamonds.svg	stimuli_target_diamondsquares.svg	28	yes	57	0	756
6.6.1	mac	2022-12-29	12:18:53	12:23:36	281299	60fe1a1aef4770645874259f	242147157	1	main_slash	7	main_slash	41	stimuli_distractor_diamondtriangles.svg	stimuli_target_diamondcircles.svg	31	yes	53	1	1097
6.6.1	mac	2022-12-29	12:18:53	12:23:36	281299	60fe1a1aef4770645874259f	242147157	1	main_slash	7	advance_on_keypress_SLASH	42	stimuli_distractor_diamondtriangles.svg	stimuli_target_diamondcircles.svg	31	yes	57	0	573
6.6.1	mac	2022-12-29	12:18:53	12:23:38	283381	60fe1a1aef4770645874259f	242147157	1	main_slash	7	main_slash	43	stimuli_distractor_trianglediamonds.svg	stimuli_target_squarediamonds.svg	12	yes	53	1	856
6.6.1	mac	2022-12-29	12:18:53	12:23:38	283381	60fe1a1aef4770645874259f	242147157	1	main_slash	7	advance_on_keypress_SLASH	44	stimuli_distractor_trianglediamonds.svg	stimuli_target_squarediamonds.svg	12	yes	57	0	405
6.6.1	mac	2022-12-29	12:18:53	12:23:40	285192	60fe1a1aef4770645874259f	242147157	1	main_slash	7	main_slash	45	stimuli_target_diamondcircles.svg	stimuli_distractor_diamondtriangles.svg	23	yes	53	1	779
6.6.1	mac	2022-12-29	12:18:53	12:23:40	285192	60fe1a1aef4770645874259f	242147157	1	main_slash	7	advance_on_keypress_SLASH	46	stimuli_target_diamondcircles.svg	stimuli_distractor_diamondtriangles.svg	23	yes	57	0	650
6.6.1	mac	2022-12-29	12:18:53	12:23:42	287297	60fe1a1aef4770645874259f	242147157	1	main_slash	7	main_slash	47	stimuli_distractor_diamondtriangles.svg	stimuli_target_trianglecircles.svg	29	yes	53	1	812
6.6.1	mac	2022-12-29	12:18:53	12:23:42	287297	60fe1a1aef4770645874259f	242147157	1	main_slash	7	advance_on_keypress_SLASH	48	stimuli_distractor_diamondtriangles.svg	stimuli_target_trianglecircles.svg	29	yes	57	0	515
6.6.1	mac	2022-12-29	12:18:53	12:23:44	289341	60fe1a1aef4770645874259f	242147157	1	main_slash	7	main_slash	49	stimuli_target_diamondsquares.svg	stimuli_distractor_diamondtriangles.svg	24	yes	53	1	885
6.6.1	mac	2022-12-29	12:18:53	12:23:44	289341	60fe1a1aef4770645874259f	242147157	1	main_slash	7	advance_on_keypress_SLASH	50	stimuli_target_diamondsquares.svg	stimuli_distractor_diamondtriangles.svg	24	yes	57	0	446
6.6.1	mac	2022-12-29	12:18:53	12:23:47	292423	60fe1a1aef4770645874259f	242147157	1	main_slash	7	main_slash	51	stimuli_distractor_diamondtriangles.svg	stimuli_distractor_diamondtriangles.svg	40	no	0	1	2000
6.6.1	mac	2022-12-29	12:18:53	12:23:47	292423	60fe1a1aef4770645874259f	242147157	1	main_slash	7	advance_on_keypress_SLASH	52	stimuli_distractor_diamondtriangles.svg	stimuli_distractor_diamondtriangles.svg	40	no	57	0	1091
6.6.1	mac	2022-12-29	12:18:53	12:23:50	295083	60fe1a1aef4770645874259f	242147157	1	main_slash	7	main_slash	53	stimuli_target_diamondsquares.svg	stimuli_distractor_trianglediamonds.svg	20	yes	53	1	913
6.6.1	mac	2022-12-29	12:18:53	12:23:50	295083	60fe1a1aef4770645874259f	242147157	1	main_slash	7	advance_on_keypress_SLASH	54	stimuli_target_diamondsquares.svg	stimuli_distractor_trianglediamonds.svg	20	yes	57	0	520
6.6.1	mac	2022-12-29	12:18:53	12:23:52	297088	60fe1a1aef4770645874259f	242147157	1	main_slash	7	main_slash	55	stimuli_target_circletriangles.svg	stimuli_distractor_diamondtriangles.svg	5	yes	53	1	844
6.6.1	mac	2022-12-29	12:18:53	12:23:52	297088	60fe1a1aef4770645874259f	242147157	1	main_slash	7	advance_on_keypress_SLASH	56	stimuli_target_circletriangles.svg	stimuli_distractor_diamondtriangles.svg	5	yes	57	0	381
6.6.1	mac	2022-12-29	12:18:53	12:23:54	299019	60fe1a1aef4770645874259f	242147157	1	main_slash	7	main_slash	57	stimuli_target_squarediamonds.svg	stimuli_distractor_trianglediamonds.svg	4	yes	53	1	905
6.6.1	mac	2022-12-29	12:18:53	12:23:54	299019	60fe1a1aef4770645874259f	242147157	1	main_slash	7	advance_on_keypress_SLASH	58	stimuli_target_squarediamonds.svg	stimuli_distractor_trianglediamonds.svg	4	yes	57	0	503
6.6.1	mac	2022-12-29	12:18:53	12:23:56	300955	60fe1a1aef4770645874259f	242147157	1	main_slash	7	main_slash	59	stimuli_distractor_diamondtriangles.svg	stimuli_target_circlediamonds.svg	14	yes	53	1	802
6.6.1	mac	2022-12-29	12:18:53	12:23:56	300955	60fe1a1aef4770645874259f	242147157	1	main_slash	7	advance_on_keypress_SLASH	60	stimuli_distractor_diamondtriangles.svg	stimuli_target_circlediamonds.svg	14	yes	57	0	597
6.6.1	mac	2022-12-29	12:18:53	12:23:58	303024	60fe1a1aef4770645874259f	242147157	1	main_slash	7	main_slash	61	stimuli_target_circlediamonds.svg	stimuli_distractor_trianglediamonds.svg	2	yes	53	1	832
6.6.1	mac	2022-12-29	12:18:53	12:23:58	303024	60fe1a1aef4770645874259f	242147157	1	main_slash	7	advance_on_keypress_SLASH	62	stimuli_target_circlediamonds.svg	stimuli_distractor_trianglediamonds.svg	2	yes	57	0	391
6.6.1	mac	2022-12-29	12:18:53	12:24:00	304917	60fe1a1aef4770645874259f	242147157	1	main_slash	7	main_slash	63	stimuli_distractor_diamondtriangles.svg	stimuli_target_squarediamonds.svg	16	yes	53	1	853
6.6.1	mac	2022-12-29	12:18:53	12:24:00	304917	60fe1a1aef4770645874259f	242147157	1	main_slash	7	advance_on_keypress_SLASH	64	stimuli_distractor_diamondtriangles.svg	stimuli_target_squarediamonds.svg	16	yes	57	0	470
6.6.1	mac	2022-12-29	12:18:53	12:24:02	306805	60fe1a1aef4770645874259f	242147157	1	main_slash	7	main_slash	65	stimuli_target_trianglecircles.svg	stimuli_distractor_diamondtriangles.svg	21	yes	53	1	786
6.6.1	mac	2022-12-29	12:18:53	12:24:02	306805	60fe1a1aef4770645874259f	242147157	1	main_slash	7	advance_on_keypress_SLASH	66	stimuli_target_trianglecircles.svg	stimuli_distractor_diamondtriangles.svg	21	yes	57	0	542
6.6.1	mac	2022-12-29	12:18:53	12:24:04	308860	60fe1a1aef4770645874259f	242147157	1	main_slash	7	main_slash	67	stimuli_target_squaretriangles.svg	stimuli_distractor_diamondtriangles.svg	7	yes	53	1	869
6.6.1	mac	2022-12-29	12:18:53	12:24:04	308860	60fe1a1aef4770645874259f	242147157	1	main_slash	7	advance_on_keypress_SLASH	68	stimuli_target_squaretriangles.svg	stimuli_distractor_diamondtriangles.svg	7	yes	57	0	644
6.6.1	mac	2022-12-29	12:18:53	12:24:06	310927	60fe1a1aef4770645874259f	242147157	1	main_slash	7	main_slash	69	stimuli_target_squaretriangles.svg	stimuli_distractor_trianglediamonds.svg	3	yes	53	1	780
6.6.1	mac	2022-12-29	12:18:53	12:24:06	310927	60fe1a1aef4770645874259f	242147157	1	main_slash	7	advance_on_keypress_SLASH	70	stimuli_target_squaretriangles.svg	stimuli_distractor_trianglediamonds.svg	3	yes	57	0	484
6.6.1	mac	2022-12-29	12:18:53	12:24:08	312942	60fe1a1aef4770645874259f	242147157	1	main_slash	7	main_slash	71	stimuli_target_circlediamonds.svg	stimuli_distractor_diamondtriangles.svg	6	yes	53	1	890
6.6.1	mac	2022-12-29	12:18:53	12:24:08	312942	60fe1a1aef4770645874259f	242147157	1	main_slash	7	advance_on_keypress_SLASH	72	stimuli_target_circlediamonds.svg	stimuli_distractor_diamondtriangles.svg	6	yes	57	0	425
6.6.1	mac	2022-12-29	12:18:53	12:24:11	316003	60fe1a1aef4770645874259f	242147157	1	main_slash	7	main_slash	73	stimuli_distractor_trianglediamonds.svg	stimuli_distractor_diamondtriangles.svg	35	no	0	1	2000
6.6.1	mac	2022-12-29	12:18:53	12:24:11	316003	60fe1a1aef4770645874259f	242147157	1	main_slash	7	advance_on_keypress_SLASH	74	stimuli_distractor_trianglediamonds.svg	stimuli_distractor_diamondtriangles.svg	35	no	57	0	1389
6.6.1	mac	2022-12-29	12:18:53	12:24:14	318891	60fe1a1aef4770645874259f	242147157	1	main_slash	7	main_slash	75	stimuli_distractor_trianglediamonds.svg	stimuli_target_trianglesquares.svg	26	yes	53	1	872
6.6.1	mac	2022-12-29	12:18:53	12:24:14	318891	60fe1a1aef4770645874259f	242147157	1	main_slash	7	advance_on_keypress_SLASH	76	stimuli_distractor_trianglediamonds.svg	stimuli_target_trianglesquares.svg	26	yes	57	0	409
6.6.1	mac	2022-12-29	12:18:53	12:24:16	320808	60fe1a1aef4770645874259f	242147157	1	main_slash	7	main_slash	77	stimuli_distractor_diamondtriangles.svg	stimuli_target_trianglesquares.svg	30	yes	53	1	868
6.6.1	mac	2022-12-29	12:18:53	12:24:16	320808	60fe1a1aef4770645874259f	242147157	1	main_slash	7	advance_on_keypress_SLASH	78	stimuli_distractor_diamondtriangles.svg	stimuli_target_trianglesquares.svg	30	yes	57	0	468
6.6.1	mac	2022-12-29	12:18:53	12:24:18	322824	60fe1a1aef4770645874259f	242147157	1	main_slash	7	main_slash	79	stimuli_target_trianglesquares.svg	stimuli_distractor_diamondtriangles.svg	22	yes	53	1	913
6.6.1	mac	2022-12-29	12:18:53	12:24:18	322824	60fe1a1aef4770645874259f	242147157	1	main_slash	7	advance_on_keypress_SLASH	80	stimuli_target_trianglesquares.svg	stimuli_distractor_diamondtriangles.svg	22	yes	57	0	397
6.6.1	mac	2022-12-29	12:18:53	12:24:20	324794	60fe1a1aef4770645874259f	242147157	1	main_slash	7	main_slash	81	stimuli_target_diamondcircles.svg	stimuli_distractor_trianglediamonds.svg	19	yes	53	1	926
6.6.1	mac	2022-12-29	12:18:53	12:24:20	324794	60fe1a1aef4770645874259f	242147157	1	main_slash	7	advance_on_keypress_SLASH	82	stimuli_target_diamondcircles.svg	stimuli_distractor_trianglediamonds.svg	19	yes	57	0	450
6.6.1	mac	2022-12-29	12:18:53	12:24:23	327885	60fe1a1aef4770645874259f	242147157	1	main_slash	7	main_slash	83	stimuli_distractor_trianglediamonds.svg	stimuli_distractor_trianglediamonds.svg	34	no	0	1	2000
6.6.1	mac	2022-12-29	12:18:53	12:24:23	327885	60fe1a1aef4770645874259f	242147157	1	main_slash	7	advance_on_keypress_SLASH	84	stimuli_distractor_trianglediamonds.svg	stimuli_distractor_trianglediamonds.svg	34	no	57	0	515
6.6.1	mac	2022-12-29	12:18:53	12:24:25	329851	60fe1a1aef4770645874259f	242147157	1	main_slash	7	main_slash	85	stimuli_distractor_diamondtriangles.svg	stimuli_target_squarediamonds.svg	16	yes	53	1	802
6.6.1	mac	2022-12-29	12:18:53	12:24:25	329851	60fe1a1aef4770645874259f	242147157	1	main_slash	7	advance_on_keypress_SLASH	86	stimuli_distractor_diamondtriangles.svg	stimuli_target_squarediamonds.svg	16	yes	57	0	485
6.6.1	mac	2022-12-29	12:18:53	12:24:27	331781	60fe1a1aef4770645874259f	242147157	1	main_slash	7	main_slash	87	stimuli_distractor_diamondtriangles.svg	stimuli_target_trianglecircles.svg	29	yes	53	1	813
6.6.1	mac	2022-12-29	12:18:53	12:24:27	331781	60fe1a1aef4770645874259f	242147157	1	main_slash	7	advance_on_keypress_SLASH	88	stimuli_distractor_diamondtriangles.svg	stimuli_target_trianglecircles.svg	29	yes	57	0	456
6.6.1	mac	2022-12-29	12:18:53	12:24:29	333713	60fe1a1aef4770645874259f	242147157	1	main_slash	7	main_slash	89	stimuli_target_squaretriangles.svg	stimuli_distractor_diamondtriangles.svg	7	yes	53	1	820
6.6.1	mac	2022-12-29	12:18:53	12:24:29	333713	60fe1a1aef4770645874259f	242147157	1	main_slash	7	advance_on_keypress_SLASH	90	stimuli_target_squaretriangles.svg	stimuli_distractor_diamondtriangles.svg	7	yes	57	0	509
6.6.1	mac	2022-12-29	12:18:53	12:24:31	335792	60fe1a1aef4770645874259f	242147157	1	main_slash	7	main_slash	91	stimuli_target_diamondsquares.svg	stimuli_distractor_trianglediamonds.svg	20	yes	53	1	928
6.6.1	mac	2022-12-29	12:18:53	12:24:31	335792	60fe1a1aef4770645874259f	242147157	1	main_slash	7	advance_on_keypress_SLASH	92	stimuli_target_diamondsquares.svg	stimuli_distractor_trianglediamonds.svg	20	yes	57	0	402
6.6.1	mac	2022-12-29	12:18:53	12:24:34	338831	60fe1a1aef4770645874259f	242147157	1	main_slash	7	main_slash	93	stimuli_distractor_trianglediamonds.svg	stimuli_distractor_trianglediamonds.svg	33	no	0	1	2000
6.6.1	mac	2022-12-29	12:18:53	12:24:34	338831	60fe1a1aef4770645874259f	242147157	1	main_slash	7	advance_on_keypress_SLASH	94	stimuli_distractor_trianglediamonds.svg	stimuli_distractor_trianglediamonds.svg	33	no	57	0	359
6.6.1	mac	2022-12-29	12:18:53	12:24:35	340542	60fe1a1aef4770645874259f	242147157	1	main_slash	7	main_slash	95	stimuli_distractor_trianglediamonds.svg	stimuli_target_circlediamonds.svg	10	yes	53	1	715
6.6.1	mac	2022-12-29	12:18:53	12:24:35	340542	60fe1a1aef4770645874259f	242147157	1	main_slash	7	advance_on_keypress_SLASH	96	stimuli_distractor_trianglediamonds.svg	stimuli_target_circlediamonds.svg	10	yes	57	0	905
6.6.1	mac	2022-12-29	12:18:53	12:24:38	342810	60fe1a1aef4770645874259f	242147157	1	main_slash	7	main_slash	97	stimuli_distractor_diamondtriangles.svg	stimuli_target_circlediamonds.svg	14	yes	53	1	728
6.6.1	mac	2022-12-29	12:18:53	12:24:38	342810	60fe1a1aef4770645874259f	242147157	1	main_slash	7	advance_on_keypress_SLASH	98	stimuli_distractor_diamondtriangles.svg	stimuli_target_circlediamonds.svg	14	yes	57	0	411
6.6.1	mac	2022-12-29	12:18:53	12:24:39	344356	60fe1a1aef4770645874259f	242147157	1	main_slash	7	main_slash	99	stimuli_target_circletriangles.svg	stimuli_distractor_diamondtriangles.svg	5	yes	53	1	485
6.6.1	mac	2022-12-29	12:18:53	12:24:39	344356	60fe1a1aef4770645874259f	242147157	1	main_slash	7	advance_on_keypress_SLASH	100	stimuli_target_circletriangles.svg	stimuli_distractor_diamondtriangles.svg	5	yes	57	0	524
6.6.1	mac	2022-12-29	12:18:53	12:24:42	347521	60fe1a1aef4770645874259f	242147157	1	main_slash	7	main_slash	101	stimuli_distractor_trianglediamonds.svg	stimuli_distractor_diamondtriangles.svg	35	no	0	1	2000
6.6.1	mac	2022-12-29	12:18:53	12:24:42	347521	60fe1a1aef4770645874259f	242147157	1	main_slash	7	advance_on_keypress_SLASH	102	stimuli_distractor_trianglediamonds.svg	stimuli_distractor_diamondtriangles.svg	35	no	57	0	412
6.6.1	mac	2022-12-29	12:18:53	12:24:46	350562	60fe1a1aef4770645874259f	242147157	1	main_slash	7	main_slash	103	stimuli_distractor_diamondtriangles.svg	stimuli_distractor_diamondtriangles.svg	39	no	0	1	2000
6.6.1	mac	2022-12-29	12:18:53	12:24:46	350562	60fe1a1aef4770645874259f	242147157	1	main_slash	7	advance_on_keypress_SLASH	104	stimuli_distractor_diamondtriangles.svg	stimuli_distractor_diamondtriangles.svg	39	no	57	0	295
6.6.1	mac	2022-12-29	12:18:53	12:24:47	352126	60fe1a1aef4770645874259f	242147157	1	main_slash	7	main_slash	105	stimuli_target_trianglecircles.svg	stimuli_distractor_diamondtriangles.svg	21	yes	53	1	618
6.6.1	mac	2022-12-29	12:18:53	12:24:47	352126	60fe1a1aef4770645874259f	242147157	1	main_slash	7	advance_on_keypress_SLASH	106	stimuli_target_trianglecircles.svg	stimuli_distractor_diamondtriangles.svg	21	yes	57	0	573
6.6.1	mac	2022-12-29	12:18:53	12:24:49	353822	60fe1a1aef4770645874259f	242147157	1	main_slash	7	main_slash	107	stimuli_target_diamondcircles.svg	stimuli_distractor_diamondtriangles.svg	23	yes	53	1	493
6.6.1	mac	2022-12-29	12:18:53	12:24:49	353822	60fe1a1aef4770645874259f	242147157	1	main_slash	7	advance_on_keypress_SLASH	108	stimuli_target_diamondcircles.svg	stimuli_distractor_diamondtriangles.svg	23	yes	57	0	431
6.6.1	mac	2022-12-29	12:18:53	12:24:50	355441	60fe1a1aef4770645874259f	242147157	1	main_slash	7	main_slash	109	stimuli_distractor_diamondtriangles.svg	stimuli_target_trianglesquares.svg	30	yes	53	1	541
6.6.1	mac	2022-12-29	12:18:53	12:24:50	355441	60fe1a1aef4770645874259f	242147157	1	main_slash	7	advance_on_keypress_SLASH	110	stimuli_distractor_diamondtriangles.svg	stimuli_target_trianglesquares.svg	30	yes	57	0	560
6.6.1	mac	2022-12-29	12:18:53	12:24:52	357216	60fe1a1aef4770645874259f	242147157	1	main_slash	7	main_slash	111	stimuli_target_squarediamonds.svg	stimuli_distractor_trianglediamonds.svg	4	yes	53	1	579
6.6.1	mac	2022-12-29	12:18:53	12:24:52	357216	60fe1a1aef4770645874259f	242147157	1	main_slash	7	advance_on_keypress_SLASH	112	stimuli_target_squarediamonds.svg	stimuli_distractor_trianglediamonds.svg	4	yes	57	0	415
6.6.1	mac	2022-12-29	12:18:53	12:24:54	358898	60fe1a1aef4770645874259f	242147157	1	main_slash	7	main_slash	113	stimuli_target_diamondsquares.svg	stimuli_distractor_diamondtriangles.svg	24	yes	53	1	621
6.6.1	mac	2022-12-29	12:18:53	12:24:54	358898	60fe1a1aef4770645874259f	242147157	1	main_slash	7	advance_on_keypress_SLASH	114	stimuli_target_diamondsquares.svg	stimuli_distractor_diamondtriangles.svg	24	yes	57	0	484
6.6.1	mac	2022-12-29	12:18:53	12:24:56	360651	60fe1a1aef4770645874259f	242147157	1	main_slash	7	main_slash	115	stimuli_distractor_trianglediamonds.svg	stimuli_target_diamondsquares.svg	28	yes	53	1	637
6.6.1	mac	2022-12-29	12:18:53	12:24:56	360651	60fe1a1aef4770645874259f	242147157	1	main_slash	7	advance_on_keypress_SLASH	116	stimuli_distractor_trianglediamonds.svg	stimuli_target_diamondsquares.svg	28	yes	57	0	531
6.6.1	mac	2022-12-29	12:18:53	12:24:59	363814	60fe1a1aef4770645874259f	242147157	1	main_slash	7	main_slash	117	stimuli_distractor_diamondtriangles.svg	stimuli_distractor_trianglediamonds.svg	37	no	0	1	2000
6.6.1	mac	2022-12-29	12:18:53	12:24:59	363814	60fe1a1aef4770645874259f	242147157	1	main_slash	7	advance_on_keypress_SLASH	118	stimuli_distractor_diamondtriangles.svg	stimuli_distractor_trianglediamonds.svg	37	no	57	0	435
6.6.1	mac	2022-12-29	12:18:53	12:25:01	365618	60fe1a1aef4770645874259f	242147157	1	main_slash	7	main_slash	119	stimuli_distractor_diamondtriangles.svg	stimuli_target_diamondsquares.svg	32	yes	53	1	741
6.6.1	mac	2022-12-29	12:18:53	12:25:01	365618	60fe1a1aef4770645874259f	242147157	1	main_slash	7	advance_on_keypress_SLASH	120	stimuli_distractor_diamondtriangles.svg	stimuli_target_diamondsquares.svg	32	yes	57	0	572
6.6.1	mac	2022-12-29	12:18:53	12:25:02	367465	60fe1a1aef4770645874259f	242147157	1	main_slash	7	main_slash	121	stimuli_distractor_trianglediamonds.svg	stimuli_target_diamondcircles.svg	27	yes	53	1	650
6.6.1	mac	2022-12-29	12:18:53	12:25:02	367465	60fe1a1aef4770645874259f	242147157	1	main_slash	7	advance_on_keypress_SLASH	122	stimuli_distractor_trianglediamonds.svg	stimuli_target_diamondcircles.svg	27	yes	57	0	353
6.6.1	mac	2022-12-29	12:18:53	12:25:04	368982	60fe1a1aef4770645874259f	242147157	1	main_slash	7	main_slash	123	stimuli_distractor_diamondtriangles.svg	stimuli_target_diamondcircles.svg	31	yes	53	1	528
6.6.1	mac	2022-12-29	12:18:53	12:25:04	368982	60fe1a1aef4770645874259f	242147157	1	main_slash	7	advance_on_keypress_SLASH	124	stimuli_distractor_diamondtriangles.svg	stimuli_target_diamondcircles.svg	31	yes	57	0	375
6.6.1	mac	2022-12-29	12:18:53	12:25:06	370762	60fe1a1aef4770645874259f	242147157	1	main_slash	7	main_slash	125	stimuli_target_trianglesquares.svg	stimuli_distractor_diamondtriangles.svg	22	yes	53	1	755
6.6.1	mac	2022-12-29	12:18:53	12:25:06	370762	60fe1a1aef4770645874259f	242147157	1	main_slash	7	advance_on_keypress_SLASH	126	stimuli_target_trianglesquares.svg	stimuli_distractor_diamondtriangles.svg	22	yes	57	0	363
6.6.1	mac	2022-12-29	12:18:53	12:25:07	372439	60fe1a1aef4770645874259f	242147157	1	main_slash	7	main_slash	127	stimuli_distractor_diamondtriangles.svg	stimuli_target_circletriangles.svg	13	yes	53	1	679
6.6.1	mac	2022-12-29	12:18:53	12:25:07	372439	60fe1a1aef4770645874259f	242147157	1	main_slash	7	advance_on_keypress_SLASH	128	stimuli_distractor_diamondtriangles.svg	stimuli_target_circletriangles.svg	13	yes	57	0	558
6.6.1	mac	2022-12-29	12:18:53	12:25:09	374346	60fe1a1aef4770645874259f	242147157	1	main_slash	7	main_slash	129	stimuli_target_circlediamonds.svg	stimuli_distractor_trianglediamonds.svg	2	yes	53	1	695
6.6.1	mac	2022-12-29	12:18:53	12:25:09	374346	60fe1a1aef4770645874259f	242147157	1	main_slash	7	advance_on_keypress_SLASH	130	stimuli_target_circlediamonds.svg	stimuli_distractor_trianglediamonds.svg	2	yes	57	0	314
6.6.1	mac	2022-12-29	12:18:53	12:25:11	375931	60fe1a1aef4770645874259f	242147157	1	main_slash	7	main_slash	131	stimuli_target_circlediamonds.svg	stimuli_distractor_diamondtriangles.svg	6	yes	53	1	626
6.6.1	mac	2022-12-29	12:18:53	12:25:11	375931	60fe1a1aef4770645874259f	242147157	1	main_slash	7	advance_on_keypress_SLASH	132	stimuli_target_circlediamonds.svg	stimuli_distractor_diamondtriangles.svg	6	yes	57	0	518
6.6.1	mac	2022-12-29	12:18:53	12:25:13	377605	60fe1a1aef4770645874259f	242147157	1	main_slash	7	main_slash	133	stimuli_target_circletriangles.svg	stimuli_distractor_trianglediamonds.svg	1	yes	53	1	510
6.6.1	mac	2022-12-29	12:18:53	12:25:13	377605	60fe1a1aef4770645874259f	242147157	1	main_slash	7	advance_on_keypress_SLASH	134	stimuli_target_circletriangles.svg	stimuli_distractor_trianglediamonds.svg	1	yes	57	0	459
6.6.1	mac	2022-12-29	12:18:53	12:25:16	380710	60fe1a1aef4770645874259f	242147157	1	main_slash	7	main_slash	135	stimuli_distractor_diamondtriangles.svg	stimuli_distractor_diamondtriangles.svg	40	no	0	1	2000
6.6.1	mac	2022-12-29	12:18:53	12:25:16	380710	60fe1a1aef4770645874259f	242147157	1	main_slash	7	advance_on_keypress_SLASH	136	stimuli_distractor_diamondtriangles.svg	stimuli_distractor_diamondtriangles.svg	40	no	57	0	805
6.6.1	mac	2022-12-29	12:18:53	12:25:18	382750	60fe1a1aef4770645874259f	242147157	1	main_slash	7	main_slash	137	stimuli_distractor_trianglediamonds.svg	stimuli_target_squarediamonds.svg	12	yes	53	1	577
6.6.1	mac	2022-12-29	12:18:53	12:25:18	382750	60fe1a1aef4770645874259f	242147157	1	main_slash	7	advance_on_keypress_SLASH	138	stimuli_distractor_trianglediamonds.svg	stimuli_target_squarediamonds.svg	12	yes	57	0	926
6.6.1	mac	2022-12-29	12:18:53	12:25:20	384898	60fe1a1aef4770645874259f	242147157	1	main_slash	7	main_slash	139	stimuli_distractor_trianglediamonds.svg	stimuli_target_trianglesquares.svg	26	yes	53	1	569
6.6.1	mac	2022-12-29	12:18:53	12:25:20	384898	60fe1a1aef4770645874259f	242147157	1	main_slash	7	advance_on_keypress_SLASH	140	stimuli_distractor_trianglediamonds.svg	stimuli_target_trianglesquares.svg	26	yes	57	0	481
6.6.1	mac	2022-12-29	12:18:53	12:25:22	386602	60fe1a1aef4770645874259f	242147157	1	main_slash	7	main_slash	141	stimuli_target_trianglesquares.svg	stimuli_distractor_trianglediamonds.svg	18	yes	53	1	568
6.6.1	mac	2022-12-29	12:18:53	12:25:22	386602	60fe1a1aef4770645874259f	242147157	1	main_slash	7	advance_on_keypress_SLASH	142	stimuli_target_trianglesquares.svg	stimuli_distractor_trianglediamonds.svg	18	yes	57	0	505
6.6.1	mac	2022-12-29	12:18:53	12:25:23	388455	60fe1a1aef4770645874259f	242147157	1	main_slash	7	main_slash	143	stimuli_distractor_diamondtriangles.svg	stimuli_target_squaretriangles.svg	15	yes	53	1	716
6.6.1	mac	2022-12-29	12:18:53	12:25:23	388455	60fe1a1aef4770645874259f	242147157	1	main_slash	7	advance_on_keypress_SLASH	144	stimuli_distractor_diamondtriangles.svg	stimuli_target_squaretriangles.svg	15	yes	57	0	452
6.6.1	mac	2022-12-29	12:18:53	12:25:26	391538	60fe1a1aef4770645874259f	242147157	1	main_slash	7	main_slash	145	stimuli_distractor_trianglediamonds.svg	stimuli_distractor_diamondtriangles.svg	36	no	0	1	2000
6.6.1	mac	2022-12-29	12:18:53	12:25:26	391538	60fe1a1aef4770645874259f	242147157	1	main_slash	7	advance_on_keypress_SLASH	146	stimuli_distractor_trianglediamonds.svg	stimuli_distractor_diamondtriangles.svg	36	no	57	0	339
6.6.1	mac	2022-12-29	12:18:53	12:25:28	393136	60fe1a1aef4770645874259f	242147157	1	main_slash	7	main_slash	147	stimuli_distractor_trianglediamonds.svg	stimuli_target_squaretriangles.svg	11	yes	53	1	602
6.6.1	mac	2022-12-29	12:18:53	12:25:28	393136	60fe1a1aef4770645874259f	242147157	1	main_slash	7	advance_on_keypress_SLASH	148	stimuli_distractor_trianglediamonds.svg	stimuli_target_squaretriangles.svg	11	yes	57	0	1133
6.6.1	mac	2022-12-29	12:18:53	12:25:30	395524	60fe1a1aef4770645874259f	242147157	1	main_slash	7	main_slash	149	stimuli_target_trianglecircles.svg	stimuli_distractor_trianglediamonds.svg	17	yes	53	1	619
6.6.1	mac	2022-12-29	12:18:53	12:25:30	395524	60fe1a1aef4770645874259f	242147157	1	main_slash	7	advance_on_keypress_SLASH	150	stimuli_target_trianglecircles.svg	stimuli_distractor_trianglediamonds.svg	17	yes	57	0	542
6.6.1	mac	2022-12-29	12:18:53	12:25:32	397422	60fe1a1aef4770645874259f	242147157	1	main_slash	7	main_slash	151	stimuli_distractor_trianglediamonds.svg	stimuli_target_circletriangles.svg	9	yes	53	1	711
6.6.1	mac	2022-12-29	12:18:53	12:25:32	397422	60fe1a1aef4770645874259f	242147157	1	main_slash	7	advance_on_keypress_SLASH	152	stimuli_distractor_trianglediamonds.svg	stimuli_target_circletriangles.svg	9	yes	57	0	426
6.6.1	mac	2022-12-29	12:18:53	12:25:34	399172	60fe1a1aef4770645874259f	242147157	1	main_slash	7	main_slash	153	stimuli_distractor_trianglediamonds.svg	stimuli_target_trianglecircles.svg	25	yes	53	1	673
6.6.1	mac	2022-12-29	12:18:53	12:25:34	399172	60fe1a1aef4770645874259f	242147157	1	main_slash	7	advance_on_keypress_SLASH	154	stimuli_distractor_trianglediamonds.svg	stimuli_target_trianglecircles.svg	25	yes	57	0	499
6.6.1	mac	2022-12-29	12:18:53	12:25:36	400940	60fe1a1aef4770645874259f	242147157	1	main_slash	7	main_slash	155	stimuli_target_squarediamonds.svg	stimuli_distractor_diamondtriangles.svg	8	yes	53	1	635
6.6.1	mac	2022-12-29	12:18:53	12:25:36	400940	60fe1a1aef4770645874259f	242147157	1	main_slash	7	advance_on_keypress_SLASH	156	stimuli_target_squarediamonds.svg	stimuli_distractor_diamondtriangles.svg	8	yes	57	0	512
6.6.1	mac	2022-12-29	12:18:53	12:25:39	404088	60fe1a1aef4770645874259f	242147157	1	main_slash	7	main_slash	157	stimuli_distractor_diamondtriangles.svg	stimuli_distractor_trianglediamonds.svg	38	no	0	1	2000
6.6.1	mac	2022-12-29	12:18:53	12:25:39	404088	60fe1a1aef4770645874259f	242147157	1	main_slash	7	advance_on_keypress_SLASH	158	stimuli_distractor_diamondtriangles.svg	stimuli_distractor_trianglediamonds.svg	38	no	57	0	474
6.6.1	mac	2022-12-29	12:18:53	12:25:41	405832	60fe1a1aef4770645874259f	242147157	1	main_slash	7	main_slash	159	stimuli_target_squaretriangles.svg	stimuli_distractor_trianglediamonds.svg	3	yes	53	1	613
6.6.1	mac	2022-12-29	12:18:53	12:25:41	405832	60fe1a1aef4770645874259f	242147157	1	main_slash	7	advance_on_keypress_SLASH	160	stimuli_target_squaretriangles.svg	stimuli_distractor_trianglediamonds.svg	3	yes	57	0	544
6.6.1	mac	2022-12-29	12:18:53	12:26:00	424916	60fe1a1aef4770645874259f	242147157	1	practice_z	9	practice_z	1	stimuli_distractor_trianglediamonds.svg	stimuli_target_circlediamonds.svg	10	yes	44	1	481
6.6.1	mac	2022-12-29	12:18:53	12:26:00	424916	60fe1a1aef4770645874259f	242147157	1	practice_z	9	advance_on_keypress_ZEE	2	stimuli_distractor_trianglediamonds.svg	stimuli_target_circlediamonds.svg	10	yes	57	0	666
6.6.1	mac	2022-12-29	12:18:53	12:26:04	429221	60fe1a1aef4770645874259f	242147157	1	practice_z	9	practice_z	3	stimuli_distractor_diamondtriangles.svg	stimuli_distractor_trianglediamonds.svg	14	no	0	1	2000
6.6.1	mac	2022-12-29	12:18:53	12:26:04	429221	60fe1a1aef4770645874259f	242147157	1	practice_z	9	advance_on_keypress_ZEE	4	stimuli_distractor_diamondtriangles.svg	stimuli_distractor_trianglediamonds.svg	14	no	57	0	385
6.6.1	mac	2022-12-29	12:18:53	12:26:07	431660	60fe1a1aef4770645874259f	242147157	1	practice_z	9	practice_z	5	stimuli_target_circlediamonds.svg	stimuli_distractor_trianglediamonds.svg	4	yes	44	1	425
6.6.1	mac	2022-12-29	12:18:53	12:26:07	431660	60fe1a1aef4770645874259f	242147157	1	practice_z	9	advance_on_keypress_ZEE	6	stimuli_target_circlediamonds.svg	stimuli_distractor_trianglediamonds.svg	4	yes	57	0	333
6.6.1	mac	2022-12-29	12:18:53	12:26:09	434089	60fe1a1aef4770645874259f	242147157	1	practice_z	9	practice_z	7	stimuli_distractor_diamondtriangles.svg	stimuli_target_trianglecircles.svg	9	yes	44	1	465
6.6.1	mac	2022-12-29	12:18:53	12:26:09	434089	60fe1a1aef4770645874259f	242147157	1	practice_z	9	advance_on_keypress_ZEE	8	stimuli_distractor_diamondtriangles.svg	stimuli_target_trianglecircles.svg	9	yes	57	0	1700
6.6.1	mac	2022-12-29	12:18:53	12:26:14	439431	60fe1a1aef4770645874259f	242147157	1	practice_z	9	practice_z	9	stimuli_distractor_trianglediamonds.svg	stimuli_distractor_diamondtriangles.svg	16	no	0	1	2000
6.6.1	mac	2022-12-29	12:18:53	12:26:14	439431	60fe1a1aef4770645874259f	242147157	1	practice_z	9	advance_on_keypress_ZEE	10	stimuli_distractor_trianglediamonds.svg	stimuli_distractor_diamondtriangles.svg	16	no	57	0	406
6.6.1	mac	2022-12-29	12:18:53	12:26:17	441883	60fe1a1aef4770645874259f	242147157	1	practice_z	9	practice_z	11	stimuli_distractor_trianglediamonds.svg	stimuli_target_squarediamonds.svg	11	yes	44	1	404
6.6.1	mac	2022-12-29	12:18:53	12:26:17	441883	60fe1a1aef4770645874259f	242147157	1	practice_z	9	advance_on_keypress_ZEE	12	stimuli_distractor_trianglediamonds.svg	stimuli_target_squarediamonds.svg	11	yes	57	0	284
6.6.1	mac	2022-12-29	12:18:53	12:26:21	445798	60fe1a1aef4770645874259f	242147157	1	practice_z	9	practice_z	13	stimuli_distractor_trianglediamonds.svg	stimuli_distractor_trianglediamonds.svg	15	no	0	1	2000
6.6.1	mac	2022-12-29	12:18:53	12:26:21	445798	60fe1a1aef4770645874259f	242147157	1	practice_z	9	advance_on_keypress_ZEE	14	stimuli_distractor_trianglediamonds.svg	stimuli_distractor_trianglediamonds.svg	15	no	57	0	471
6.6.1	mac	2022-12-29	12:18:53	12:26:23	448347	60fe1a1aef4770645874259f	242147157	1	practice_z	9	practice_z	15	stimuli_distractor_trianglediamonds.svg	stimuli_target_diamondcircles.svg	12	yes	44	1	452
6.6.1	mac	2022-12-29	12:18:53	12:26:23	448347	60fe1a1aef4770645874259f	242147157	1	practice_z	9	advance_on_keypress_ZEE	16	stimuli_distractor_trianglediamonds.svg	stimuli_target_diamondcircles.svg	12	yes	57	0	608
6.6.1	mac	2022-12-29	12:18:53	12:26:26	451184	60fe1a1aef4770645874259f	242147157	1	practice_z	9	practice_z	17	stimuli_target_squarediamonds.svg	stimuli_distractor_diamondtriangles.svg	2	yes	44	1	579
6.6.1	mac	2022-12-29	12:18:53	12:26:26	451184	60fe1a1aef4770645874259f	242147157	1	practice_z	9	advance_on_keypress_ZEE	18	stimuli_target_squarediamonds.svg	stimuli_distractor_diamondtriangles.svg	2	yes	57	0	386
6.6.1	mac	2022-12-29	12:18:53	12:26:29	453648	60fe1a1aef4770645874259f	242147157	1	practice_z	9	practice_z	19	stimuli_distractor_diamondtriangles.svg	stimuli_target_diamondcircles.svg	8	yes	44	1	437
6.6.1	mac	2022-12-29	12:18:53	12:26:29	453648	60fe1a1aef4770645874259f	242147157	1	practice_z	9	advance_on_keypress_ZEE	20	stimuli_distractor_diamondtriangles.svg	stimuli_target_diamondcircles.svg	8	yes	57	0	355
6.6.1	mac	2022-12-29	12:18:53	12:26:31	456086	60fe1a1aef4770645874259f	242147157	1	practice_z	9	practice_z	21	stimuli_target_circlediamonds.svg	stimuli_distractor_diamondtriangles.svg	1	yes	44	1	436
6.6.1	mac	2022-12-29	12:18:53	12:26:31	456086	60fe1a1aef4770645874259f	242147157	1	practice_z	9	advance_on_keypress_ZEE	22	stimuli_target_circlediamonds.svg	stimuli_distractor_diamondtriangles.svg	1	yes	57	0	263
6.6.1	mac	2022-12-29	12:18:53	12:26:34	459143	60fe1a1aef4770645874259f	242147157	1	practice_z	9	practice_z	23	stimuli_target_diamondsquares.svg	stimuli_distractor_trianglediamonds.svg	6	yes	44	1	1153
6.6.1	mac	2022-12-29	12:18:53	12:26:34	459143	60fe1a1aef4770645874259f	242147157	1	practice_z	9	advance_on_keypress_ZEE	24	stimuli_target_diamondsquares.svg	stimuli_distractor_trianglediamonds.svg	6	yes	57	0	477
6.6.1	mac	2022-12-29	12:18:53	12:26:37	462015	60fe1a1aef4770645874259f	242147157	1	practice_z	9	practice_z	25	stimuli_distractor_diamondtriangles.svg	stimuli_target_circletriangles.svg	7	yes	44	1	750
6.6.1	mac	2022-12-29	12:18:53	12:26:37	462015	60fe1a1aef4770645874259f	242147157	1	practice_z	9	advance_on_keypress_ZEE	26	stimuli_distractor_diamondtriangles.svg	stimuli_target_circletriangles.svg	7	yes	57	0	324
6.6.1	mac	2022-12-29	12:18:53	12:26:40	464716	60fe1a1aef4770645874259f	242147157	1	practice_z	9	practice_z	27	stimuli_target_squarediamonds.svg	stimuli_distractor_trianglediamonds.svg	5	yes	44	1	728
6.6.1	mac	2022-12-29	12:18:53	12:26:40	464716	60fe1a1aef4770645874259f	242147157	1	practice_z	9	advance_on_keypress_ZEE	28	stimuli_target_squarediamonds.svg	stimuli_distractor_trianglediamonds.svg	5	yes	57	0	366
6.6.1	mac	2022-12-29	12:18:53	12:26:42	467361	60fe1a1aef4770645874259f	242147157	1	practice_z	9	practice_z	29	stimuli_target_diamondsquares.svg	stimuli_distractor_diamondtriangles.svg	3	yes	44	1	630
6.6.1	mac	2022-12-29	12:18:53	12:26:42	467361	60fe1a1aef4770645874259f	242147157	1	practice_z	9	advance_on_keypress_ZEE	30	stimuli_target_diamondsquares.svg	stimuli_distractor_diamondtriangles.svg	3	yes	57	0	393
6.6.1	mac	2022-12-29	12:18:53	12:26:46	471400	60fe1a1aef4770645874259f	242147157	1	practice_z	9	practice_z	31	stimuli_distractor_diamondtriangles.svg	stimuli_distractor_diamondtriangles.svg	13	no	0	1	2000
6.6.1	mac	2022-12-29	12:18:53	12:26:46	471400	60fe1a1aef4770645874259f	242147157	1	practice_z	9	advance_on_keypress_ZEE	32	stimuli_distractor_diamondtriangles.svg	stimuli_distractor_diamondtriangles.svg	13	no	57	0	625
6.6.1	mac	2022-12-29	12:18:53	12:26:50	474972	60fe1a1aef4770645874259f	242147157	1	main_z	11	main_z	1	stimuli_target_diamondsquares.svg	stimuli_distractor_trianglediamonds.svg	20	yes	44	1	703
6.6.1	mac	2022-12-29	12:18:53	12:26:50	474972	60fe1a1aef4770645874259f	242147157	1	main_z	11	advance_on_keypress_ZEE	2	stimuli_target_diamondsquares.svg	stimuli_distractor_trianglediamonds.svg	20	yes	57	0	825
6.6.1	mac	2022-12-29	12:18:53	12:26:52	477207	60fe1a1aef4770645874259f	242147157	1	main_z	11	main_z	3	stimuli_target_diamondcircles.svg	stimuli_distractor_trianglediamonds.svg	19	yes	44	1	766
6.6.1	mac	2022-12-29	12:18:53	12:26:52	477207	60fe1a1aef4770645874259f	242147157	1	main_z	11	advance_on_keypress_ZEE	4	stimuli_target_diamondcircles.svg	stimuli_distractor_trianglediamonds.svg	19	yes	57	0	1357
6.6.1	mac	2022-12-29	12:18:53	12:26:55	480012	60fe1a1aef4770645874259f	242147157	1	main_z	11	main_z	5	stimuli_distractor_diamondtriangles.svg	stimuli_target_squaretriangles.svg	15	yes	44	1	813
6.6.1	mac	2022-12-29	12:18:53	12:26:55	480012	60fe1a1aef4770645874259f	242147157	1	main_z	11	advance_on_keypress_ZEE	6	stimuli_distractor_diamondtriangles.svg	stimuli_target_squaretriangles.svg	15	yes	57	0	674
6.6.1	mac	2022-12-29	12:18:53	12:26:57	482197	60fe1a1aef4770645874259f	242147157	1	main_z	11	main_z	7	stimuli_distractor_trianglediamonds.svg	stimuli_target_trianglecircles.svg	25	yes	44	1	860
6.6.1	mac	2022-12-29	12:18:53	12:26:57	482197	60fe1a1aef4770645874259f	242147157	1	main_z	11	advance_on_keypress_ZEE	8	stimuli_distractor_trianglediamonds.svg	stimuli_target_trianglecircles.svg	25	yes	57	0	459
6.6.1	mac	2022-12-29	12:18:53	12:26:59	484133	60fe1a1aef4770645874259f	242147157	1	main_z	11	main_z	9	stimuli_distractor_trianglediamonds.svg	stimuli_target_diamondsquares.svg	28	yes	44	1	823
6.6.1	mac	2022-12-29	12:18:53	12:26:59	484133	60fe1a1aef4770645874259f	242147157	1	main_z	11	advance_on_keypress_ZEE	10	stimuli_distractor_trianglediamonds.svg	stimuli_target_diamondsquares.svg	28	yes	57	0	929
6.6.1	mac	2022-12-29	12:18:53	12:27:03	487696	60fe1a1aef4770645874259f	242147157	1	main_z	11	main_z	11	stimuli_distractor_diamondtriangles.svg	stimuli_distractor_diamondtriangles.svg	39	no	0	1	2000
6.6.1	mac	2022-12-29	12:18:53	12:27:03	487696	60fe1a1aef4770645874259f	242147157	1	main_z	11	advance_on_keypress_ZEE	12	stimuli_distractor_diamondtriangles.svg	stimuli_distractor_diamondtriangles.svg	39	no	57	0	398
6.6.1	mac	2022-12-29	12:18:53	12:27:05	489559	60fe1a1aef4770645874259f	242147157	1	main_z	11	main_z	13	stimuli_distractor_diamondtriangles.svg	stimuli_target_trianglesquares.svg	30	yes	44	1	819
6.6.1	mac	2022-12-29	12:18:53	12:27:05	489559	60fe1a1aef4770645874259f	242147157	1	main_z	11	advance_on_keypress_ZEE	14	stimuli_distractor_diamondtriangles.svg	stimuli_target_trianglesquares.svg	30	yes	57	0	1255
6.6.1	mac	2022-12-29	12:18:53	12:27:07	492376	60fe1a1aef4770645874259f	242147157	1	main_z	11	main_z	15	stimuli_distractor_trianglediamonds.svg	stimuli_target_trianglesquares.svg	26	yes	44	1	930
6.6.1	mac	2022-12-29	12:18:53	12:27:07	492376	60fe1a1aef4770645874259f	242147157	1	main_z	11	advance_on_keypress_ZEE	16	stimuli_distractor_trianglediamonds.svg	stimuli_target_trianglesquares.svg	26	yes	57	0	773
6.6.1	mac	2022-12-29	12:18:53	12:27:09	494245	60fe1a1aef4770645874259f	242147157	1	main_z	11	main_z	17	stimuli_target_circlediamonds.svg	stimuli_distractor_diamondtriangles.svg	6	yes	44	1	441
6.6.1	mac	2022-12-29	12:18:53	12:27:09	494245	60fe1a1aef4770645874259f	242147157	1	main_z	11	advance_on_keypress_ZEE	18	stimuli_target_circlediamonds.svg	stimuli_distractor_diamondtriangles.svg	6	yes	57	0	1066
6.6.1	mac	2022-12-29	12:18:53	12:27:12	496847	60fe1a1aef4770645874259f	242147157	1	main_z	11	main_z	19	stimuli_distractor_diamondtriangles.svg	stimuli_target_squarediamonds.svg	16	yes	44	1	886
6.6.1	mac	2022-12-29	12:18:53	12:27:12	496847	60fe1a1aef4770645874259f	242147157	1	main_z	11	advance_on_keypress_ZEE	20	stimuli_distractor_diamondtriangles.svg	stimuli_target_squarediamonds.svg	16	yes	57	0	746
6.6.1	mac	2022-12-29	12:18:53	12:27:14	499209	60fe1a1aef4770645874259f	242147157	1	main_z	11	main_z	21	stimuli_target_trianglesquares.svg	stimuli_distractor_diamondtriangles.svg	22	yes	44	1	976
6.6.1	mac	2022-12-29	12:18:53	12:27:14	499209	60fe1a1aef4770645874259f	242147157	1	main_z	11	advance_on_keypress_ZEE	22	stimuli_target_trianglesquares.svg	stimuli_distractor_diamondtriangles.svg	22	yes	57	0	588
6.6.1	mac	2022-12-29	12:18:53	12:27:16	501330	60fe1a1aef4770645874259f	242147157	1	main_z	11	main_z	23	stimuli_target_circletriangles.svg	stimuli_distractor_trianglediamonds.svg	1	yes	44	1	892
6.6.1	mac	2022-12-29	12:18:53	12:27:16	501330	60fe1a1aef4770645874259f	242147157	1	main_z	11	advance_on_keypress_ZEE	24	stimuli_target_circletriangles.svg	stimuli_distractor_trianglediamonds.svg	1	yes	57	0	633
6.6.1	mac	2022-12-29	12:18:53	12:27:18	503372	60fe1a1aef4770645874259f	242147157	1	main_z	11	main_z	25	stimuli_target_squaretriangles.svg	stimuli_distractor_trianglediamonds.svg	3	yes	44	1	778
6.6.1	mac	2022-12-29	12:18:53	12:27:18	503372	60fe1a1aef4770645874259f	242147157	1	main_z	11	advance_on_keypress_ZEE	26	stimuli_target_squaretriangles.svg	stimuli_distractor_trianglediamonds.svg	3	yes	57	0	816
6.6.1	mac	2022-12-29	12:18:53	12:27:21	505550	60fe1a1aef4770645874259f	242147157	1	main_z	11	main_z	27	stimuli_distractor_diamondtriangles.svg	stimuli_target_trianglecircles.svg	29	yes	44	1	716
6.6.1	mac	2022-12-29	12:18:53	12:27:21	505550	60fe1a1aef4770645874259f	242147157	1	main_z	11	advance_on_keypress_ZEE	28	stimuli_distractor_diamondtriangles.svg	stimuli_target_trianglecircles.svg	29	yes	57	0	453
6.6.1	mac	2022-12-29	12:18:53	12:27:24	508634	60fe1a1aef4770645874259f	242147157	1	main_z	11	main_z	29	stimuli_distractor_trianglediamonds.svg	stimuli_distractor_diamondtriangles.svg	36	no	0	1	2000
6.6.1	mac	2022-12-29	12:18:53	12:27:24	508634	60fe1a1aef4770645874259f	242147157	1	main_z	11	advance_on_keypress_ZEE	30	stimuli_distractor_trianglediamonds.svg	stimuli_distractor_diamondtriangles.svg	36	no	57	0	397
6.6.1	mac	2022-12-29	12:18:53	12:27:25	510276	60fe1a1aef4770645874259f	242147157	1	main_z	11	main_z	31	stimuli_distractor_diamondtriangles.svg	stimuli_target_circletriangles.svg	13	yes	44	1	597
6.6.1	mac	2022-12-29	12:18:53	12:27:25	510276	60fe1a1aef4770645874259f	242147157	1	main_z	11	advance_on_keypress_ZEE	32	stimuli_distractor_diamondtriangles.svg	stimuli_target_circletriangles.svg	13	yes	57	0	1493
6.6.1	mac	2022-12-29	12:18:53	12:27:29	514416	60fe1a1aef4770645874259f	242147157	1	main_z	11	main_z	33	stimuli_distractor_diamondtriangles.svg	stimuli_distractor_diamondtriangles.svg	40	no	0	1	2000
6.6.1	mac	2022-12-29	12:18:53	12:27:29	514416	60fe1a1aef4770645874259f	242147157	1	main_z	11	advance_on_keypress_ZEE	34	stimuli_distractor_diamondtriangles.svg	stimuli_distractor_diamondtriangles.svg	40	no	57	0	877
6.6.1	mac	2022-12-29	12:18:53	12:27:31	516491	60fe1a1aef4770645874259f	242147157	1	main_z	11	main_z	35	stimuli_target_squaretriangles.svg	stimuli_distractor_diamondtriangles.svg	7	yes	44	1	545
6.6.1	mac	2022-12-29	12:18:53	12:27:31	516491	60fe1a1aef4770645874259f	242147157	1	main_z	11	advance_on_keypress_ZEE	36	stimuli_target_squaretriangles.svg	stimuli_distractor_diamondtriangles.svg	7	yes	57	0	827
6.6.1	mac	2022-12-29	12:18:53	12:27:34	518675	60fe1a1aef4770645874259f	242147157	1	main_z	11	main_z	37	stimuli_target_squarediamonds.svg	stimuli_distractor_trianglediamonds.svg	4	yes	44	1	706
6.6.1	mac	2022-12-29	12:18:53	12:27:34	518675	60fe1a1aef4770645874259f	242147157	1	main_z	11	advance_on_keypress_ZEE	38	stimuli_target_squarediamonds.svg	stimuli_distractor_trianglediamonds.svg	4	yes	57	0	579
6.6.1	mac	2022-12-29	12:18:53	12:27:37	521887	60fe1a1aef4770645874259f	242147157	1	main_z	11	main_z	39	stimuli_distractor_trianglediamonds.svg	stimuli_distractor_trianglediamonds.svg	33	no	0	1	2000
6.6.1	mac	2022-12-29	12:18:53	12:27:37	521887	60fe1a1aef4770645874259f	242147157	1	main_z	11	advance_on_keypress_ZEE	40	stimuli_distractor_trianglediamonds.svg	stimuli_distractor_trianglediamonds.svg	33	no	57	0	775
6.6.1	mac	2022-12-29	12:18:53	12:27:39	523957	60fe1a1aef4770645874259f	242147157	1	main_z	11	main_z	41	stimuli_target_diamondcircles.svg	stimuli_distractor_diamondtriangles.svg	23	yes	44	1	640
6.6.1	mac	2022-12-29	12:18:53	12:27:39	523957	60fe1a1aef4770645874259f	242147157	1	main_z	11	advance_on_keypress_ZEE	42	stimuli_target_diamondcircles.svg	stimuli_distractor_diamondtriangles.svg	23	yes	57	0	766
6.6.1	mac	2022-12-29	12:18:53	12:27:41	525960	60fe1a1aef4770645874259f	242147157	1	main_z	11	main_z	43	stimuli_distractor_trianglediamonds.svg	stimuli_target_circletriangles.svg	9	yes	44	1	605
6.6.1	mac	2022-12-29	12:18:53	12:27:41	525960	60fe1a1aef4770645874259f	242147157	1	main_z	11	advance_on_keypress_ZEE	44	stimuli_distractor_trianglediamonds.svg	stimuli_target_circletriangles.svg	9	yes	57	0	643
6.6.1	mac	2022-12-29	12:18:53	12:27:43	527902	60fe1a1aef4770645874259f	242147157	1	main_z	11	main_z	45	stimuli_target_diamondsquares.svg	stimuli_distractor_diamondtriangles.svg	24	yes	44	1	658
6.6.1	mac	2022-12-29	12:18:53	12:27:43	527902	60fe1a1aef4770645874259f	242147157	1	main_z	11	advance_on_keypress_ZEE	46	stimuli_target_diamondsquares.svg	stimuli_distractor_diamondtriangles.svg	24	yes	57	0	693
6.6.1	mac	2022-12-29	12:18:53	12:27:45	529874	60fe1a1aef4770645874259f	242147157	1	main_z	11	main_z	47	stimuli_distractor_trianglediamonds.svg	stimuli_target_circlediamonds.svg	10	yes	44	1	642
6.6.1	mac	2022-12-29	12:18:53	12:27:45	529874	60fe1a1aef4770645874259f	242147157	1	main_z	11	advance_on_keypress_ZEE	48	stimuli_distractor_trianglediamonds.svg	stimuli_target_circlediamonds.svg	10	yes	57	0	576
6.6.1	mac	2022-12-29	12:18:53	12:27:47	531776	60fe1a1aef4770645874259f	242147157	1	main_z	11	main_z	49	stimuli_target_squarediamonds.svg	stimuli_distractor_diamondtriangles.svg	8	yes	44	1	671
6.6.1	mac	2022-12-29	12:18:53	12:27:47	531776	60fe1a1aef4770645874259f	242147157	1	main_z	11	advance_on_keypress_ZEE	50	stimuli_target_squarediamonds.svg	stimuli_distractor_diamondtriangles.svg	8	yes	57	0	707
6.6.1	mac	2022-12-29	12:18:53	12:27:49	533910	60fe1a1aef4770645874259f	242147157	1	main_z	11	main_z	51	stimuli_distractor_trianglediamonds.svg	stimuli_target_squaretriangles.svg	11	yes	44	1	784
6.6.1	mac	2022-12-29	12:18:53	12:27:49	533910	60fe1a1aef4770645874259f	242147157	1	main_z	11	advance_on_keypress_ZEE	52	stimuli_distractor_trianglediamonds.svg	stimuli_target_squaretriangles.svg	11	yes	57	0	701
6.6.1	mac	2022-12-29	12:18:53	12:27:51	535877	60fe1a1aef4770645874259f	242147157	1	main_z	11	main_z	53	stimuli_target_circlediamonds.svg	stimuli_distractor_trianglediamonds.svg	2	yes	44	1	628
6.6.1	mac	2022-12-29	12:18:53	12:27:51	535877	60fe1a1aef4770645874259f	242147157	1	main_z	11	advance_on_keypress_ZEE	54	stimuli_target_circlediamonds.svg	stimuli_distractor_trianglediamonds.svg	2	yes	57	0	592
6.6.1	mac	2022-12-29	12:18:53	12:27:54	539116	60fe1a1aef4770645874259f	242147157	1	main_z	11	main_z	55	stimuli_distractor_trianglediamonds.svg	stimuli_distractor_diamondtriangles.svg	35	no	0	1	2000
6.6.1	mac	2022-12-29	12:18:53	12:27:54	539116	60fe1a1aef4770645874259f	242147157	1	main_z	11	advance_on_keypress_ZEE	56	stimuli_distractor_trianglediamonds.svg	stimuli_distractor_diamondtriangles.svg	35	no	57	0	768
6.6.1	mac	2022-12-29	12:18:53	12:27:56	541057	60fe1a1aef4770645874259f	242147157	1	main_z	11	main_z	57	stimuli_target_trianglesquares.svg	stimuli_distractor_trianglediamonds.svg	18	yes	44	1	544
6.6.1	mac	2022-12-29	12:18:53	12:27:56	541057	60fe1a1aef4770645874259f	242147157	1	main_z	11	advance_on_keypress_ZEE	58	stimuli_target_trianglesquares.svg	stimuli_distractor_trianglediamonds.svg	18	yes	57	0	539
6.6.1	mac	2022-12-29	12:18:53	12:27:59	544247	60fe1a1aef4770645874259f	242147157	1	main_z	11	main_z	59	stimuli_distractor_diamondtriangles.svg	stimuli_distractor_trianglediamonds.svg	38	no	0	1	2000
6.6.1	mac	2022-12-29	12:18:53	12:27:59	544247	60fe1a1aef4770645874259f	242147157	1	main_z	11	advance_on_keypress_ZEE	60	stimuli_distractor_diamondtriangles.svg	stimuli_distractor_trianglediamonds.svg	38	no	57	0	427
6.6.1	mac	2022-12-29	12:18:53	12:28:01	545862	60fe1a1aef4770645874259f	242147157	1	main_z	11	main_z	61	stimuli_distractor_diamondtriangles.svg	stimuli_target_circlediamonds.svg	14	yes	44	1	536
6.6.1	mac	2022-12-29	12:18:53	12:28:01	545862	60fe1a1aef4770645874259f	242147157	1	main_z	11	advance_on_keypress_ZEE	62	stimuli_distractor_diamondtriangles.svg	stimuli_target_circlediamonds.svg	14	yes	57	0	493
6.6.1	mac	2022-12-29	12:18:53	12:28:03	547583	60fe1a1aef4770645874259f	242147157	1	main_z	11	main_z	63	stimuli_distractor_trianglediamonds.svg	stimuli_target_squarediamonds.svg	12	yes	44	1	586
6.6.1	mac	2022-12-29	12:18:53	12:28:03	547583	60fe1a1aef4770645874259f	242147157	1	main_z	11	advance_on_keypress_ZEE	64	stimuli_distractor_trianglediamonds.svg	stimuli_target_squarediamonds.svg	12	yes	57	0	654
6.6.1	mac	2022-12-29	12:18:53	12:28:05	549598	60fe1a1aef4770645874259f	242147157	1	main_z	11	main_z	65	stimuli_distractor_diamondtriangles.svg	stimuli_target_diamondsquares.svg	32	yes	44	1	730
6.6.1	mac	2022-12-29	12:18:53	12:28:05	549598	60fe1a1aef4770645874259f	242147157	1	main_z	11	advance_on_keypress_ZEE	66	stimuli_distractor_diamondtriangles.svg	stimuli_target_diamondsquares.svg	32	yes	57	0	775
6.6.1	mac	2022-12-29	12:18:53	12:28:06	551541	60fe1a1aef4770645874259f	242147157	1	main_z	11	main_z	67	stimuli_distractor_diamondtriangles.svg	stimuli_target_diamondcircles.svg	31	yes	44	1	518
6.6.1	mac	2022-12-29	12:18:53	12:28:06	551541	60fe1a1aef4770645874259f	242147157	1	main_z	11	advance_on_keypress_ZEE	68	stimuli_distractor_diamondtriangles.svg	stimuli_target_diamondcircles.svg	31	yes	57	0	452
6.6.1	mac	2022-12-29	12:18:53	12:28:08	553229	60fe1a1aef4770645874259f	242147157	1	main_z	11	main_z	69	stimuli_target_circletriangles.svg	stimuli_distractor_diamondtriangles.svg	5	yes	44	1	602
6.6.1	mac	2022-12-29	12:18:53	12:28:08	553229	60fe1a1aef4770645874259f	242147157	1	main_z	11	advance_on_keypress_ZEE	70	stimuli_target_circletriangles.svg	stimuli_distractor_diamondtriangles.svg	5	yes	57	0	463
6.6.1	mac	2022-12-29	12:18:53	12:28:11	556329	60fe1a1aef4770645874259f	242147157	1	main_z	11	main_z	71	stimuli_distractor_trianglediamonds.svg	stimuli_distractor_trianglediamonds.svg	34	no	0	1	2000
6.6.1	mac	2022-12-29	12:18:53	12:28:11	556329	60fe1a1aef4770645874259f	242147157	1	main_z	11	advance_on_keypress_ZEE	72	stimuli_distractor_trianglediamonds.svg	stimuli_distractor_trianglediamonds.svg	34	no	57	0	647
6.6.1	mac	2022-12-29	12:18:53	12:28:15	559621	60fe1a1aef4770645874259f	242147157	1	main_z	11	main_z	73	stimuli_distractor_diamondtriangles.svg	stimuli_distractor_trianglediamonds.svg	37	no	0	1	2000
6.6.1	mac	2022-12-29	12:18:53	12:28:15	559621	60fe1a1aef4770645874259f	242147157	1	main_z	11	advance_on_keypress_ZEE	74	stimuli_distractor_diamondtriangles.svg	stimuli_distractor_trianglediamonds.svg	37	no	57	0	412
6.6.1	mac	2022-12-29	12:18:53	12:28:16	561096	60fe1a1aef4770645874259f	242147157	1	main_z	11	main_z	75	stimuli_target_trianglecircles.svg	stimuli_distractor_diamondtriangles.svg	21	yes	44	1	414
6.6.1	mac	2022-12-29	12:18:53	12:28:16	561096	60fe1a1aef4770645874259f	242147157	1	main_z	11	advance_on_keypress_ZEE	76	stimuli_target_trianglecircles.svg	stimuli_distractor_diamondtriangles.svg	21	yes	57	0	537
6.6.1	mac	2022-12-29	12:18:53	12:28:18	562698	60fe1a1aef4770645874259f	242147157	1	main_z	11	main_z	77	stimuli_target_trianglecircles.svg	stimuli_distractor_trianglediamonds.svg	17	yes	44	1	427
6.6.1	mac	2022-12-29	12:18:53	12:28:18	562698	60fe1a1aef4770645874259f	242147157	1	main_z	11	advance_on_keypress_ZEE	78	stimuli_target_trianglecircles.svg	stimuli_distractor_trianglediamonds.svg	17	yes	57	0	623
6.6.1	mac	2022-12-29	12:18:53	12:28:19	564486	60fe1a1aef4770645874259f	242147157	1	main_z	11	main_z	79	stimuli_distractor_trianglediamonds.svg	stimuli_target_diamondcircles.svg	27	yes	44	1	509
6.6.1	mac	2022-12-29	12:18:53	12:28:19	564486	60fe1a1aef4770645874259f	242147157	1	main_z	11	advance_on_keypress_ZEE	80	stimuli_distractor_trianglediamonds.svg	stimuli_target_diamondcircles.svg	27	yes	57	0	1350
6.6.1	mac	2022-12-29	12:18:53	12:28:22	567011	60fe1a1aef4770645874259f	242147157	1	main_z	11	main_z	81	stimuli_distractor_diamondtriangles.svg	stimuli_target_circletriangles.svg	13	yes	44	1	528
6.6.1	mac	2022-12-29	12:18:53	12:28:22	567011	60fe1a1aef4770645874259f	242147157	1	main_z	11	advance_on_keypress_ZEE	82	stimuli_distractor_diamondtriangles.svg	stimuli_target_circletriangles.svg	13	yes	57	0	517
6.6.1	mac	2022-12-29	12:18:53	12:28:25	570167	60fe1a1aef4770645874259f	242147157	1	main_z	11	main_z	83	stimuli_distractor_diamondtriangles.svg	stimuli_distractor_trianglediamonds.svg	37	no	0	1	2000
6.6.1	mac	2022-12-29	12:18:53	12:28:25	570167	60fe1a1aef4770645874259f	242147157	1	main_z	11	advance_on_keypress_ZEE	84	stimuli_distractor_diamondtriangles.svg	stimuli_distractor_trianglediamonds.svg	37	no	57	0	410
6.6.1	mac	2022-12-29	12:18:53	12:28:27	571666	60fe1a1aef4770645874259f	242147157	1	main_z	11	main_z	85	stimuli_target_diamondcircles.svg	stimuli_distractor_trianglediamonds.svg	19	yes	44	1	440
6.6.1	mac	2022-12-29	12:18:53	12:28:27	571666	60fe1a1aef4770645874259f	242147157	1	main_z	11	advance_on_keypress_ZEE	86	stimuli_target_diamondcircles.svg	stimuli_distractor_trianglediamonds.svg	19	yes	57	0	465
6.6.1	mac	2022-12-29	12:18:53	12:28:28	573251	60fe1a1aef4770645874259f	242147157	1	main_z	11	main_z	87	stimuli_target_trianglecircles.svg	stimuli_distractor_trianglediamonds.svg	17	yes	44	1	469
6.6.1	mac	2022-12-29	12:18:53	12:28:28	573251	60fe1a1aef4770645874259f	242147157	1	main_z	11	advance_on_keypress_ZEE	88	stimuli_target_trianglecircles.svg	stimuli_distractor_trianglediamonds.svg	17	yes	57	0	374
6.6.1	mac	2022-12-29	12:18:53	12:28:30	574785	60fe1a1aef4770645874259f	242147157	1	main_z	11	main_z	89	stimuli_target_diamondsquares.svg	stimuli_distractor_diamondtriangles.svg	24	yes	44	1	518
6.6.1	mac	2022-12-29	12:18:53	12:28:30	574785	60fe1a1aef4770645874259f	242147157	1	main_z	11	advance_on_keypress_ZEE	90	stimuli_target_diamondsquares.svg	stimuli_distractor_diamondtriangles.svg	24	yes	57	0	507
6.6.1	mac	2022-12-29	12:18:53	12:28:31	576508	60fe1a1aef4770645874259f	242147157	1	main_z	11	main_z	91	stimuli_distractor_diamondtriangles.svg	stimuli_target_diamondcircles.svg	31	yes	44	1	566
6.6.1	mac	2022-12-29	12:18:53	12:28:31	576508	60fe1a1aef4770645874259f	242147157	1	main_z	11	advance_on_keypress_ZEE	92	stimuli_distractor_diamondtriangles.svg	stimuli_target_diamondcircles.svg	31	yes	57	0	456
6.6.1	mac	2022-12-29	12:18:53	12:28:35	579591	60fe1a1aef4770645874259f	242147157	1	main_z	11	main_z	93	stimuli_distractor_trianglediamonds.svg	stimuli_distractor_trianglediamonds.svg	33	no	0	1	2000
6.6.1	mac	2022-12-29	12:18:53	12:28:35	579591	60fe1a1aef4770645874259f	242147157	1	main_z	11	advance_on_keypress_ZEE	94	stimuli_distractor_trianglediamonds.svg	stimuli_distractor_trianglediamonds.svg	33	no	57	0	593
6.6.1	mac	2022-12-29	12:18:53	12:28:36	581442	60fe1a1aef4770645874259f	242147157	1	main_z	11	main_z	95	stimuli_target_circlediamonds.svg	stimuli_distractor_trianglediamonds.svg	2	yes	44	1	621
6.6.1	mac	2022-12-29	12:18:53	12:28:36	581442	60fe1a1aef4770645874259f	242147157	1	main_z	11	advance_on_keypress_ZEE	96	stimuli_target_circlediamonds.svg	stimuli_distractor_trianglediamonds.svg	2	yes	57	0	443
6.6.1	mac	2022-12-29	12:18:53	12:28:38	582954	60fe1a1aef4770645874259f	242147157	1	main_z	11	main_z	97	stimuli_target_circlediamonds.svg	stimuli_distractor_diamondtriangles.svg	6	yes	44	1	429
6.6.1	mac	2022-12-29	12:18:53	12:28:38	582954	60fe1a1aef4770645874259f	242147157	1	main_z	11	advance_on_keypress_ZEE	98	stimuli_target_circlediamonds.svg	stimuli_distractor_diamondtriangles.svg	6	yes	57	0	821
6.6.1	mac	2022-12-29	12:18:53	12:28:40	584962	60fe1a1aef4770645874259f	242147157	1	main_z	11	main_z	99	stimuli_distractor_diamondtriangles.svg	stimuli_target_squaretriangles.svg	15	yes	44	1	548
6.6.1	mac	2022-12-29	12:18:53	12:28:40	584962	60fe1a1aef4770645874259f	242147157	1	main_z	11	advance_on_keypress_ZEE	100	stimuli_distractor_diamondtriangles.svg	stimuli_target_squaretriangles.svg	15	yes	57	0	499
6.6.1	mac	2022-12-29	12:18:53	12:28:41	586514	60fe1a1aef4770645874259f	242147157	1	main_z	11	main_z	101	stimuli_target_trianglecircles.svg	stimuli_distractor_diamondtriangles.svg	21	yes	44	1	414
6.6.1	mac	2022-12-29	12:18:53	12:28:41	586514	60fe1a1aef4770645874259f	242147157	1	main_z	11	advance_on_keypress_ZEE	102	stimuli_target_trianglecircles.svg	stimuli_distractor_diamondtriangles.svg	21	yes	57	0	563
6.6.1	mac	2022-12-29	12:18:53	12:28:44	588860	60fe1a1aef4770645874259f	242147157	1	main_z	11	main_z	103	stimuli_distractor_trianglediamonds.svg	stimuli_target_squarediamonds.svg	12	yes	44	1	1139
6.6.1	mac	2022-12-29	12:18:53	12:28:44	588860	60fe1a1aef4770645874259f	242147157	1	main_z	11	advance_on_keypress_ZEE	104	stimuli_distractor_trianglediamonds.svg	stimuli_target_squarediamonds.svg	12	yes	57	0	1315
6.6.1	mac	2022-12-29	12:18:53	12:28:46	591330	60fe1a1aef4770645874259f	242147157	1	main_z	11	main_z	105	stimuli_distractor_trianglediamonds.svg	stimuli_target_circlediamonds.svg	10	yes	44	1	518
6.6.1	mac	2022-12-29	12:18:53	12:28:46	591330	60fe1a1aef4770645874259f	242147157	1	main_z	11	advance_on_keypress_ZEE	106	stimuli_distractor_trianglediamonds.svg	stimuli_target_circlediamonds.svg	10	yes	57	0	418
6.6.1	mac	2022-12-29	12:18:53	12:28:48	593033	60fe1a1aef4770645874259f	242147157	1	main_z	11	main_z	107	stimuli_distractor_diamondtriangles.svg	stimuli_target_diamondsquares.svg	32	yes	44	1	647
6.6.1	mac	2022-12-29	12:18:53	12:28:48	593033	60fe1a1aef4770645874259f	242147157	1	main_z	11	advance_on_keypress_ZEE	108	stimuli_distractor_diamondtriangles.svg	stimuli_target_diamondsquares.svg	32	yes	57	0	803
6.6.1	mac	2022-12-29	12:18:53	12:28:50	594958	60fe1a1aef4770645874259f	242147157	1	main_z	11	main_z	109	stimuli_target_trianglesquares.svg	stimuli_distractor_diamondtriangles.svg	22	yes	44	1	484
6.6.1	mac	2022-12-29	12:18:53	12:28:50	594958	60fe1a1aef4770645874259f	242147157	1	main_z	11	advance_on_keypress_ZEE	110	stimuli_target_trianglesquares.svg	stimuli_distractor_diamondtriangles.svg	22	yes	57	0	881
6.6.1	mac	2022-12-29	12:18:53	12:28:52	596922	60fe1a1aef4770645874259f	242147157	1	main_z	11	main_z	111	stimuli_target_squaretriangles.svg	stimuli_distractor_trianglediamonds.svg	3	yes	44	1	443
6.6.1	mac	2022-12-29	12:18:53	12:28:52	596922	60fe1a1aef4770645874259f	242147157	1	main_z	11	advance_on_keypress_ZEE	112	stimuli_target_squaretriangles.svg	stimuli_distractor_trianglediamonds.svg	3	yes	57	0	529
6.6.1	mac	2022-12-29	12:18:53	12:28:55	600096	60fe1a1aef4770645874259f	242147157	1	main_z	11	main_z	113	stimuli_distractor_diamondtriangles.svg	stimuli_distractor_trianglediamonds.svg	38	no	0	1	2000
6.6.1	mac	2022-12-29	12:18:53	12:28:55	600096	60fe1a1aef4770645874259f	242147157	1	main_z	11	advance_on_keypress_ZEE	114	stimuli_distractor_diamondtriangles.svg	stimuli_distractor_trianglediamonds.svg	38	no	57	0	589
6.6.1	mac	2022-12-29	12:18:53	12:28:57	601839	60fe1a1aef4770645874259f	242147157	1	main_z	11	main_z	115	stimuli_distractor_diamondtriangles.svg	stimuli_target_trianglesquares.svg	30	yes	44	1	514
6.6.1	mac	2022-12-29	12:18:53	12:28:57	601839	60fe1a1aef4770645874259f	242147157	1	main_z	11	advance_on_keypress_ZEE	116	stimuli_distractor_diamondtriangles.svg	stimuli_target_trianglesquares.svg	30	yes	57	0	417
6.6.1	mac	2022-12-29	12:18:53	12:29:00	604892	60fe1a1aef4770645874259f	242147157	1	main_z	11	main_z	117	stimuli_distractor_trianglediamonds.svg	stimuli_distractor_trianglediamonds.svg	34	no	0	1	2000
6.6.1	mac	2022-12-29	12:18:53	12:29:00	604892	60fe1a1aef4770645874259f	242147157	1	main_z	11	advance_on_keypress_ZEE	118	stimuli_distractor_trianglediamonds.svg	stimuli_distractor_trianglediamonds.svg	34	no	57	0	536
6.6.1	mac	2022-12-29	12:18:53	12:29:02	606600	60fe1a1aef4770645874259f	242147157	1	main_z	11	main_z	119	stimuli_target_squarediamonds.svg	stimuli_distractor_diamondtriangles.svg	8	yes	44	1	530
6.6.1	mac	2022-12-29	12:18:53	12:29:02	606600	60fe1a1aef4770645874259f	242147157	1	main_z	11	advance_on_keypress_ZEE	120	stimuli_target_squarediamonds.svg	stimuli_distractor_diamondtriangles.svg	8	yes	57	0	433
6.6.1	mac	2022-12-29	12:18:53	12:29:05	609671	60fe1a1aef4770645874259f	242147157	1	main_z	11	main_z	121	stimuli_distractor_trianglediamonds.svg	stimuli_distractor_diamondtriangles.svg	36	no	0	1	2000
6.6.1	mac	2022-12-29	12:18:53	12:29:05	609671	60fe1a1aef4770645874259f	242147157	1	main_z	11	advance_on_keypress_ZEE	122	stimuli_distractor_trianglediamonds.svg	stimuli_distractor_diamondtriangles.svg	36	no	57	0	498
6.6.1	mac	2022-12-29	12:18:53	12:29:06	611341	60fe1a1aef4770645874259f	242147157	1	main_z	11	main_z	123	stimuli_target_squaretriangles.svg	stimuli_distractor_diamondtriangles.svg	7	yes	44	1	523
6.6.1	mac	2022-12-29	12:18:53	12:29:06	611341	60fe1a1aef4770645874259f	242147157	1	main_z	11	advance_on_keypress_ZEE	124	stimuli_target_squaretriangles.svg	stimuli_distractor_diamondtriangles.svg	7	yes	57	0	624
6.6.1	mac	2022-12-29	12:18:53	12:29:10	614618	60fe1a1aef4770645874259f	242147157	1	main_z	11	main_z	125	stimuli_distractor_diamondtriangles.svg	stimuli_distractor_diamondtriangles.svg	40	no	0	1	2000
6.6.1	mac	2022-12-29	12:18:53	12:29:10	614618	60fe1a1aef4770645874259f	242147157	1	main_z	11	advance_on_keypress_ZEE	126	stimuli_distractor_diamondtriangles.svg	stimuli_distractor_diamondtriangles.svg	40	no	57	0	447
6.6.1	mac	2022-12-29	12:18:53	12:29:11	616240	60fe1a1aef4770645874259f	242147157	1	main_z	11	main_z	127	stimuli_distractor_trianglediamonds.svg	stimuli_target_trianglesquares.svg	26	yes	44	1	525
6.6.1	mac	2022-12-29	12:18:53	12:29:11	616240	60fe1a1aef4770645874259f	242147157	1	main_z	11	advance_on_keypress_ZEE	128	stimuli_distractor_trianglediamonds.svg	stimuli_target_trianglesquares.svg	26	yes	57	0	388
6.6.1	mac	2022-12-29	12:18:53	12:29:14	619263	60fe1a1aef4770645874259f	242147157	1	main_z	11	main_z	129	stimuli_distractor_trianglediamonds.svg	stimuli_distractor_diamondtriangles.svg	35	no	0	1	2000
6.6.1	mac	2022-12-29	12:18:53	12:29:14	619263	60fe1a1aef4770645874259f	242147157	1	main_z	11	advance_on_keypress_ZEE	130	stimuli_distractor_trianglediamonds.svg	stimuli_distractor_diamondtriangles.svg	35	no	57	0	347
6.6.1	mac	2022-12-29	12:18:53	12:29:16	620695	60fe1a1aef4770645874259f	242147157	1	main_z	11	main_z	131	stimuli_distractor_trianglediamonds.svg	stimuli_target_trianglecircles.svg	25	yes	44	1	437
6.6.1	mac	2022-12-29	12:18:53	12:29:16	620695	60fe1a1aef4770645874259f	242147157	1	main_z	11	advance_on_keypress_ZEE	132	stimuli_distractor_trianglediamonds.svg	stimuli_target_trianglecircles.svg	25	yes	57	0	453
6.6.1	mac	2022-12-29	12:18:53	12:29:17	622206	60fe1a1aef4770645874259f	242147157	1	main_z	11	main_z	133	stimuli_target_trianglesquares.svg	stimuli_distractor_trianglediamonds.svg	18	yes	44	1	410
6.6.1	mac	2022-12-29	12:18:53	12:29:17	622206	60fe1a1aef4770645874259f	242147157	1	main_z	11	advance_on_keypress_ZEE	134	stimuli_target_trianglesquares.svg	stimuli_distractor_trianglediamonds.svg	18	yes	57	0	483
6.6.1	mac	2022-12-29	12:18:53	12:29:19	623851	60fe1a1aef4770645874259f	242147157	1	main_z	11	main_z	135	stimuli_target_squarediamonds.svg	stimuli_distractor_trianglediamonds.svg	4	yes	44	1	519
6.6.1	mac	2022-12-29	12:18:53	12:29:19	623851	60fe1a1aef4770645874259f	242147157	1	main_z	11	advance_on_keypress_ZEE	136	stimuli_target_squarediamonds.svg	stimuli_distractor_trianglediamonds.svg	4	yes	57	0	459
6.6.1	mac	2022-12-29	12:18:53	12:29:20	625356	60fe1a1aef4770645874259f	242147157	1	main_z	11	main_z	137	stimuli_distractor_diamondtriangles.svg	stimuli_target_trianglecircles.svg	29	yes	44	1	401
6.6.1	mac	2022-12-29	12:18:53	12:29:20	625356	60fe1a1aef4770645874259f	242147157	1	main_z	11	advance_on_keypress_ZEE	138	stimuli_distractor_diamondtriangles.svg	stimuli_target_trianglecircles.svg	29	yes	57	0	477
6.6.1	mac	2022-12-29	12:18:53	12:29:22	626810	60fe1a1aef4770645874259f	242147157	1	main_z	11	main_z	139	stimuli_distractor_diamondtriangles.svg	stimuli_target_circlediamonds.svg	14	yes	44	1	335
6.6.1	mac	2022-12-29	12:18:53	12:29:22	626810	60fe1a1aef4770645874259f	242147157	1	main_z	11	advance_on_keypress_ZEE	140	stimuli_distractor_diamondtriangles.svg	stimuli_target_circlediamonds.svg	14	yes	57	0	409
6.6.1	mac	2022-12-29	12:18:53	12:29:24	628751	60fe1a1aef4770645874259f	242147157	1	main_z	11	main_z	141	stimuli_target_diamondsquares.svg	stimuli_distractor_trianglediamonds.svg	20	yes	44	1	888
6.6.1	mac	2022-12-29	12:18:53	12:29:24	628751	60fe1a1aef4770645874259f	242147157	1	main_z	11	advance_on_keypress_ZEE	142	stimuli_target_diamondsquares.svg	stimuli_distractor_trianglediamonds.svg	20	yes	57	0	840
6.6.1	mac	2022-12-29	12:18:53	12:29:26	630705	60fe1a1aef4770645874259f	242147157	1	main_z	11	main_z	143	stimuli_distractor_trianglediamonds.svg	stimuli_target_diamondcircles.svg	27	yes	44	1	486
6.6.1	mac	2022-12-29	12:18:53	12:29:26	630705	60fe1a1aef4770645874259f	242147157	1	main_z	11	advance_on_keypress_ZEE	144	stimuli_distractor_trianglediamonds.svg	stimuli_target_diamondcircles.svg	27	yes	57	0	409
6.6.1	mac	2022-12-29	12:18:53	12:29:27	632140	60fe1a1aef4770645874259f	242147157	1	main_z	11	main_z	145	stimuli_distractor_trianglediamonds.svg	stimuli_target_circletriangles.svg	9	yes	44	1	385
6.6.1	mac	2022-12-29	12:18:53	12:29:27	632140	60fe1a1aef4770645874259f	242147157	1	main_z	11	advance_on_keypress_ZEE	146	stimuli_distractor_trianglediamonds.svg	stimuli_target_circletriangles.svg	9	yes	57	0	382
6.6.1	mac	2022-12-29	12:18:53	12:29:29	633600	60fe1a1aef4770645874259f	242147157	1	main_z	11	main_z	147	stimuli_target_circletriangles.svg	stimuli_distractor_diamondtriangles.svg	5	yes	44	1	440
6.6.1	mac	2022-12-29	12:18:53	12:29:29	633600	60fe1a1aef4770645874259f	242147157	1	main_z	11	advance_on_keypress_ZEE	148	stimuli_target_circletriangles.svg	stimuli_distractor_diamondtriangles.svg	5	yes	57	0	782
6.6.1	mac	2022-12-29	12:18:53	12:29:30	635441	60fe1a1aef4770645874259f	242147157	1	main_z	11	main_z	149	stimuli_target_diamondcircles.svg	stimuli_distractor_diamondtriangles.svg	23	yes	44	1	426
6.6.1	mac	2022-12-29	12:18:53	12:29:30	635441	60fe1a1aef4770645874259f	242147157	1	main_z	11	advance_on_keypress_ZEE	150	stimuli_target_diamondcircles.svg	stimuli_distractor_diamondtriangles.svg	23	yes	57	0	496
6.6.1	mac	2022-12-29	12:18:53	12:29:32	636927	60fe1a1aef4770645874259f	242147157	1	main_z	11	main_z	151	stimuli_distractor_diamondtriangles.svg	stimuli_distractor_diamondtriangles.svg	39	no	44	0	342
6.6.1	mac	2022-12-29	12:18:53	12:29:32	636927	60fe1a1aef4770645874259f	242147157	1	main_z	11	advance_on_keypress_ZEE	152	stimuli_distractor_diamondtriangles.svg	stimuli_distractor_diamondtriangles.svg	39	no	57	0	1175
6.6.1	mac	2022-12-29	12:18:53	12:29:34	639335	60fe1a1aef4770645874259f	242147157	1	main_z	11	main_z	153	stimuli_distractor_diamondtriangles.svg	stimuli_target_squarediamonds.svg	16	yes	44	1	577
6.6.1	mac	2022-12-29	12:18:53	12:29:34	639335	60fe1a1aef4770645874259f	242147157	1	main_z	11	advance_on_keypress_ZEE	154	stimuli_distractor_diamondtriangles.svg	stimuli_target_squarediamonds.svg	16	yes	57	0	467
6.6.1	mac	2022-12-29	12:18:53	12:29:36	640859	60fe1a1aef4770645874259f	242147157	1	main_z	11	main_z	155	stimuli_target_circletriangles.svg	stimuli_distractor_trianglediamonds.svg	1	yes	44	1	413
6.6.1	mac	2022-12-29	12:18:53	12:29:36	640859	60fe1a1aef4770645874259f	242147157	1	main_z	11	advance_on_keypress_ZEE	156	stimuli_target_circletriangles.svg	stimuli_distractor_trianglediamonds.svg	1	yes	57	0	473
6.6.1	mac	2022-12-29	12:18:53	12:29:39	643980	60fe1a1aef4770645874259f	242147157	1	main_z	11	main_z	157	stimuli_distractor_trianglediamonds.svg	stimuli_target_diamondsquares.svg	28	yes	0	0	2000
6.6.1	mac	2022-12-29	12:18:53	12:29:39	643980	60fe1a1aef4770645874259f	242147157	1	main_z	11	advance_on_keypress_ZEE	158	stimuli_distractor_trianglediamonds.svg	stimuli_target_diamondsquares.svg	28	yes	57	0	1762
6.6.1	mac	2022-12-29	12:18:53	12:29:42	646808	60fe1a1aef4770645874259f	242147157	1	main_z	11	main_z	159	stimuli_distractor_trianglediamonds.svg	stimuli_target_squaretriangles.svg	11	yes	44	1	413
6.6.1	mac	2022-12-29	12:18:53	12:29:42	646808	60fe1a1aef4770645874259f	242147157	1	main_z	11	advance_on_keypress_ZEE	160	stimuli_distractor_trianglediamonds.svg	stimuli_target_squaretriangles.svg	11	yes	57	0	394