build	computer.platform	date	time	timestamp	time_elapsed_ms	subject	group	session	blockcode	blocknum	trialcode	trialnum	stimulus_left	stimulus_right	stim_index	target_present	response	correct	latency
6.6.1	win	2022-12-22	22:42:21	22:45:02	158770	613ea8344b072de7f3ccb5dc	289182324	1	practice_z	5	practice_z	1	stimuli_distractor_trianglediamonds.svg	stimuli_target_circlediamonds.svg	10	yes	0	0	2000
6.6.1	win	2022-12-22	22:42:21	22:45:02	158770	613ea8344b072de7f3ccb5dc	289182324	1	practice_z	5	advance_on_keypress_ZEE	2	stimuli_distractor_trianglediamonds.svg	stimuli_target_circlediamonds.svg	10	yes	57	0	738
6.6.1	win	2022-12-22	22:42:21	22:45:05	161980	613ea8344b072de7f3ccb5dc	289182324	1	practice_z	5	practice_z	3	stimuli_target_circlediamonds.svg	stimuli_distractor_diamondtriangles.svg	1	yes	44	1	794
6.6.1	win	2022-12-22	22:42:21	22:45:05	161980	613ea8344b072de7f3ccb5dc	289182324	1	practice_z	5	advance_on_keypress_ZEE	4	stimuli_target_circlediamonds.svg	stimuli_distractor_diamondtriangles.svg	1	yes	57	0	599
6.6.1	win	2022-12-22	22:42:21	22:45:08	164970	613ea8344b072de7f3ccb5dc	289182324	1	practice_z	5	practice_z	5	stimuli_target_squarediamonds.svg	stimuli_distractor_trianglediamonds.svg	5	yes	44	1	718
6.6.1	win	2022-12-22	22:42:21	22:45:08	164970	613ea8344b072de7f3ccb5dc	289182324	1	practice_z	5	advance_on_keypress_ZEE	6	stimuli_target_squarediamonds.svg	stimuli_distractor_trianglediamonds.svg	5	yes	57	0	717
6.6.1	win	2022-12-22	22:42:21	22:45:13	169353	613ea8344b072de7f3ccb5dc	289182324	1	practice_z	5	practice_z	7	stimuli_target_diamondsquares.svg	stimuli_distractor_trianglediamonds.svg	6	yes	0	0	2000
6.6.1	win	2022-12-22	22:42:21	22:45:13	169353	613ea8344b072de7f3ccb5dc	289182324	1	practice_z	5	advance_on_keypress_ZEE	8	stimuli_target_diamondsquares.svg	stimuli_distractor_trianglediamonds.svg	6	yes	57	0	547
6.6.1	win	2022-12-22	22:42:21	22:45:15	172152	613ea8344b072de7f3ccb5dc	289182324	1	practice_z	5	practice_z	9	stimuli_target_squarediamonds.svg	stimuli_distractor_diamondtriangles.svg	2	yes	44	1	600
6.6.1	win	2022-12-22	22:42:21	22:45:15	172152	613ea8344b072de7f3ccb5dc	289182324	1	practice_z	5	advance_on_keypress_ZEE	10	stimuli_target_squarediamonds.svg	stimuli_distractor_diamondtriangles.svg	2	yes	57	0	514
6.6.1	win	2022-12-22	22:42:21	22:45:18	175257	613ea8344b072de7f3ccb5dc	289182324	1	practice_z	5	practice_z	11	stimuli_distractor_diamondtriangles.svg	stimuli_target_trianglecircles.svg	9	yes	44	1	922
6.6.1	win	2022-12-22	22:42:21	22:45:18	175257	613ea8344b072de7f3ccb5dc	289182324	1	practice_z	5	advance_on_keypress_ZEE	12	stimuli_distractor_diamondtriangles.svg	stimuli_target_trianglecircles.svg	9	yes	57	0	496
6.6.1	win	2022-12-22	22:42:21	22:45:23	179402	613ea8344b072de7f3ccb5dc	289182324	1	practice_z	5	practice_z	13	stimuli_distractor_trianglediamonds.svg	stimuli_distractor_trianglediamonds.svg	15	no	0	1	2000
6.6.1	win	2022-12-22	22:42:21	22:45:23	179402	613ea8344b072de7f3ccb5dc	289182324	1	practice_z	5	advance_on_keypress_ZEE	14	stimuli_distractor_trianglediamonds.svg	stimuli_distractor_trianglediamonds.svg	15	no	57	0	532
6.6.1	win	2022-12-22	22:42:21	22:45:25	182199	613ea8344b072de7f3ccb5dc	289182324	1	practice_z	5	practice_z	15	stimuli_target_circlediamonds.svg	stimuli_distractor_trianglediamonds.svg	4	yes	44	1	598
6.6.1	win	2022-12-22	22:42:21	22:45:25	182199	613ea8344b072de7f3ccb5dc	289182324	1	practice_z	5	advance_on_keypress_ZEE	16	stimuli_target_circlediamonds.svg	stimuli_distractor_trianglediamonds.svg	4	yes	57	0	480
6.6.1	win	2022-12-22	22:42:21	22:45:29	185485	613ea8344b072de7f3ccb5dc	289182324	1	practice_z	5	practice_z	17	stimuli_target_diamondsquares.svg	stimuli_distractor_diamondtriangles.svg	3	yes	44	1	1152
6.6.1	win	2022-12-22	22:42:21	22:45:29	185485	613ea8344b072de7f3ccb5dc	289182324	1	practice_z	5	advance_on_keypress_ZEE	18	stimuli_target_diamondsquares.svg	stimuli_distractor_diamondtriangles.svg	3	yes	57	0	494
6.6.1	win	2022-12-22	22:42:21	22:45:31	188190	613ea8344b072de7f3ccb5dc	289182324	1	practice_z	5	practice_z	19	stimuli_distractor_diamondtriangles.svg	stimuli_target_circletriangles.svg	7	yes	44	1	555
6.6.1	win	2022-12-22	22:42:21	22:45:31	188190	613ea8344b072de7f3ccb5dc	289182324	1	practice_z	5	advance_on_keypress_ZEE	20	stimuli_distractor_diamondtriangles.svg	stimuli_target_circletriangles.svg	7	yes	57	0	9
6.6.1	win	2022-12-22	22:42:21	22:45:34	190555	613ea8344b072de7f3ccb5dc	289182324	1	practice_z	5	practice_z	21	stimuli_distractor_trianglediamonds.svg	stimuli_target_diamondcircles.svg	12	yes	44	1	671
6.6.1	win	2022-12-22	22:42:21	22:45:34	190555	613ea8344b072de7f3ccb5dc	289182324	1	practice_z	5	advance_on_keypress_ZEE	22	stimuli_distractor_trianglediamonds.svg	stimuli_target_diamondcircles.svg	12	yes	57	0	1216
6.6.1	win	2022-12-22	22:42:21	22:45:37	193983	613ea8344b072de7f3ccb5dc	289182324	1	practice_z	5	practice_z	23	stimuli_distractor_diamondtriangles.svg	stimuli_target_diamondcircles.svg	8	yes	44	1	550
6.6.1	win	2022-12-22	22:42:21	22:45:37	193983	613ea8344b072de7f3ccb5dc	289182324	1	practice_z	5	advance_on_keypress_ZEE	24	stimuli_distractor_diamondtriangles.svg	stimuli_target_diamondcircles.svg	8	yes	57	0	1292
6.6.1	win	2022-12-22	22:42:21	22:45:41	197790	613ea8344b072de7f3ccb5dc	289182324	1	practice_z	5	practice_z	25	stimuli_distractor_trianglediamonds.svg	stimuli_target_squarediamonds.svg	11	yes	44	1	856
6.6.1	win	2022-12-22	22:42:21	22:45:41	197790	613ea8344b072de7f3ccb5dc	289182324	1	practice_z	5	advance_on_keypress_ZEE	26	stimuli_distractor_trianglediamonds.svg	stimuli_target_squarediamonds.svg	11	yes	57	0	539
6.6.1	win	2022-12-22	22:42:21	22:45:44	200514	613ea8344b072de7f3ccb5dc	289182324	1	practice_z	5	practice_z	27	stimuli_distractor_trianglediamonds.svg	stimuli_distractor_diamondtriangles.svg	16	no	44	0	509
6.6.1	win	2022-12-22	22:42:21	22:45:44	200514	613ea8344b072de7f3ccb5dc	289182324	1	practice_z	5	advance_on_keypress_ZEE	28	stimuli_distractor_trianglediamonds.svg	stimuli_distractor_diamondtriangles.svg	16	no	57	0	424
6.6.1	win	2022-12-22	22:42:21	22:45:48	204600	613ea8344b072de7f3ccb5dc	289182324	1	practice_z	5	practice_z	29	stimuli_distractor_diamondtriangles.svg	stimuli_distractor_diamondtriangles.svg	13	no	0	1	2000
6.6.1	win	2022-12-22	22:42:21	22:45:48	204600	613ea8344b072de7f3ccb5dc	289182324	1	practice_z	5	advance_on_keypress_ZEE	30	stimuli_distractor_diamondtriangles.svg	stimuli_distractor_diamondtriangles.svg	13	no	57	0	612
6.6.1	win	2022-12-22	22:42:21	22:45:52	208866	613ea8344b072de7f3ccb5dc	289182324	1	practice_z	5	practice_z	31	stimuli_distractor_diamondtriangles.svg	stimuli_distractor_trianglediamonds.svg	14	no	0	1	2000
6.6.1	win	2022-12-22	22:42:21	22:45:52	208866	613ea8344b072de7f3ccb5dc	289182324	1	practice_z	5	advance_on_keypress_ZEE	32	stimuli_distractor_diamondtriangles.svg	stimuli_distractor_trianglediamonds.svg	14	no	57	0	514
6.6.1	win	2022-12-22	22:42:21	22:45:57	214068	613ea8344b072de7f3ccb5dc	289182324	1	main_z	7	main_z	1	stimuli_target_squaretriangles.svg	stimuli_distractor_diamondtriangles.svg	7	yes	44	1	656
6.6.1	win	2022-12-22	22:42:21	22:45:57	214068	613ea8344b072de7f3ccb5dc	289182324	1	main_z	7	advance_on_keypress_ZEE	2	stimuli_target_squaretriangles.svg	stimuli_distractor_diamondtriangles.svg	7	yes	57	0	854
6.6.1	win	2022-12-22	22:42:21	22:45:59	216268	613ea8344b072de7f3ccb5dc	289182324	1	main_z	7	main_z	3	stimuli_target_circlediamonds.svg	stimuli_distractor_trianglediamonds.svg	2	yes	44	1	707
6.6.1	win	2022-12-22	22:42:21	22:45:59	216268	613ea8344b072de7f3ccb5dc	289182324	1	main_z	7	advance_on_keypress_ZEE	4	stimuli_target_circlediamonds.svg	stimuli_distractor_trianglediamonds.svg	2	yes	57	0	400
6.6.1	win	2022-12-22	22:42:21	22:46:01	218058	613ea8344b072de7f3ccb5dc	289182324	1	main_z	7	main_z	5	stimuli_target_trianglesquares.svg	stimuli_distractor_trianglediamonds.svg	18	yes	44	1	746
6.6.1	win	2022-12-22	22:42:21	22:46:01	218058	613ea8344b072de7f3ccb5dc	289182324	1	main_z	7	advance_on_keypress_ZEE	6	stimuli_target_trianglesquares.svg	stimuli_distractor_trianglediamonds.svg	18	yes	57	0	584
6.6.1	win	2022-12-22	22:42:21	22:46:03	219995	613ea8344b072de7f3ccb5dc	289182324	1	main_z	7	main_z	7	stimuli_distractor_diamondtriangles.svg	stimuli_target_diamondcircles.svg	31	yes	44	1	701
6.6.1	win	2022-12-22	22:42:21	22:46:03	219995	613ea8344b072de7f3ccb5dc	289182324	1	main_z	7	advance_on_keypress_ZEE	8	stimuli_distractor_diamondtriangles.svg	stimuli_target_diamondcircles.svg	31	yes	57	0	660
6.6.1	win	2022-12-22	22:42:21	22:46:05	222152	613ea8344b072de7f3ccb5dc	289182324	1	main_z	7	main_z	9	stimuli_target_circletriangles.svg	stimuli_distractor_trianglediamonds.svg	1	yes	44	1	841
6.6.1	win	2022-12-22	22:42:21	22:46:05	222152	613ea8344b072de7f3ccb5dc	289182324	1	main_z	7	advance_on_keypress_ZEE	10	stimuli_target_circletriangles.svg	stimuli_distractor_trianglediamonds.svg	1	yes	57	0	524
6.6.1	win	2022-12-22	22:42:21	22:46:07	223955	613ea8344b072de7f3ccb5dc	289182324	1	main_z	7	main_z	11	stimuli_distractor_diamondtriangles.svg	stimuli_target_squarediamonds.svg	16	yes	44	1	644
6.6.1	win	2022-12-22	22:42:21	22:46:07	223955	613ea8344b072de7f3ccb5dc	289182324	1	main_z	7	advance_on_keypress_ZEE	12	stimuli_distractor_diamondtriangles.svg	stimuli_target_squarediamonds.svg	16	yes	57	0	412
6.6.1	win	2022-12-22	22:42:21	22:46:10	227027	613ea8344b072de7f3ccb5dc	289182324	1	main_z	7	main_z	13	stimuli_target_circletriangles.svg	stimuli_distractor_diamondtriangles.svg	5	yes	0	0	2000
6.6.1	win	2022-12-22	22:42:21	22:46:10	227027	613ea8344b072de7f3ccb5dc	289182324	1	main_z	7	advance_on_keypress_ZEE	14	stimuli_target_circletriangles.svg	stimuli_distractor_diamondtriangles.svg	5	yes	57	0	502
6.6.1	win	2022-12-22	22:42:21	22:46:12	228635	613ea8344b072de7f3ccb5dc	289182324	1	main_z	7	main_z	15	stimuli_distractor_trianglediamonds.svg	stimuli_target_trianglesquares.svg	26	yes	44	1	459
6.6.1	win	2022-12-22	22:42:21	22:46:12	228635	613ea8344b072de7f3ccb5dc	289182324	1	main_z	7	advance_on_keypress_ZEE	16	stimuli_distractor_trianglediamonds.svg	stimuli_target_trianglesquares.svg	26	yes	57	0	424
6.6.1	win	2022-12-22	22:42:21	22:46:13	230239	613ea8344b072de7f3ccb5dc	289182324	1	main_z	7	main_z	17	stimuli_distractor_trianglediamonds.svg	stimuli_target_diamondcircles.svg	27	yes	44	1	545
6.6.1	win	2022-12-22	22:42:21	22:46:13	230239	613ea8344b072de7f3ccb5dc	289182324	1	main_z	7	advance_on_keypress_ZEE	18	stimuli_distractor_trianglediamonds.svg	stimuli_target_diamondcircles.svg	27	yes	57	0	358
6.6.1	win	2022-12-22	22:42:21	22:46:15	232044	613ea8344b072de7f3ccb5dc	289182324	1	main_z	7	main_z	19	stimuli_distractor_diamondtriangles.svg	stimuli_target_circletriangles.svg	13	yes	44	1	801
6.6.1	win	2022-12-22	22:42:21	22:46:15	232044	613ea8344b072de7f3ccb5dc	289182324	1	main_z	7	advance_on_keypress_ZEE	20	stimuli_distractor_diamondtriangles.svg	stimuli_target_circletriangles.svg	13	yes	57	0	533
6.6.1	win	2022-12-22	22:42:21	22:46:17	233904	613ea8344b072de7f3ccb5dc	289182324	1	main_z	7	main_z	21	stimuli_distractor_diamondtriangles.svg	stimuli_target_circlediamonds.svg	14	yes	44	1	677
6.6.1	win	2022-12-22	22:42:21	22:46:17	233904	613ea8344b072de7f3ccb5dc	289182324	1	main_z	7	advance_on_keypress_ZEE	22	stimuli_distractor_diamondtriangles.svg	stimuli_target_circlediamonds.svg	14	yes	57	0	463
6.6.1	win	2022-12-22	22:42:21	22:46:19	235901	613ea8344b072de7f3ccb5dc	289182324	1	main_z	7	main_z	23	stimuli_distractor_diamondtriangles.svg	stimuli_target_diamondsquares.svg	32	yes	44	1	874
6.6.1	win	2022-12-22	22:42:21	22:46:19	235901	613ea8344b072de7f3ccb5dc	289182324	1	main_z	7	advance_on_keypress_ZEE	24	stimuli_distractor_diamondtriangles.svg	stimuli_target_diamondsquares.svg	32	yes	57	0	357
6.6.1	win	2022-12-22	22:42:21	22:46:22	238893	613ea8344b072de7f3ccb5dc	289182324	1	main_z	7	main_z	25	stimuli_distractor_trianglediamonds.svg	stimuli_distractor_trianglediamonds.svg	33	no	0	1	2000
6.6.1	win	2022-12-22	22:42:21	22:46:22	238893	613ea8344b072de7f3ccb5dc	289182324	1	main_z	7	advance_on_keypress_ZEE	26	stimuli_distractor_trianglediamonds.svg	stimuli_distractor_trianglediamonds.svg	33	no	57	0	155
6.6.1	win	2022-12-22	22:42:21	22:46:23	240214	613ea8344b072de7f3ccb5dc	289182324	1	main_z	7	main_z	27	stimuli_distractor_diamondtriangles.svg	stimuli_target_trianglecircles.svg	29	yes	44	1	521
6.6.1	win	2022-12-22	22:42:21	22:46:23	240214	613ea8344b072de7f3ccb5dc	289182324	1	main_z	7	advance_on_keypress_ZEE	28	stimuli_distractor_diamondtriangles.svg	stimuli_target_trianglecircles.svg	29	yes	57	0	389
6.6.1	win	2022-12-22	22:42:21	22:46:26	243243	613ea8344b072de7f3ccb5dc	289182324	1	main_z	7	main_z	29	stimuli_distractor_trianglediamonds.svg	stimuli_distractor_trianglediamonds.svg	34	no	0	1	2000
6.6.1	win	2022-12-22	22:42:21	22:46:26	243243	613ea8344b072de7f3ccb5dc	289182324	1	main_z	7	advance_on_keypress_ZEE	30	stimuli_distractor_trianglediamonds.svg	stimuli_distractor_trianglediamonds.svg	34	no	57	0	501
6.6.1	win	2022-12-22	22:42:21	22:46:30	246393	613ea8344b072de7f3ccb5dc	289182324	1	main_z	7	main_z	31	stimuli_distractor_diamondtriangles.svg	stimuli_distractor_trianglediamonds.svg	37	no	0	1	2000
6.6.1	win	2022-12-22	22:42:21	22:46:30	246393	613ea8344b072de7f3ccb5dc	289182324	1	main_z	7	advance_on_keypress_ZEE	32	stimuli_distractor_diamondtriangles.svg	stimuli_distractor_trianglediamonds.svg	37	no	57	0	403
6.6.1	win	2022-12-22	22:42:21	22:46:31	248002	613ea8344b072de7f3ccb5dc	289182324	1	main_z	7	main_z	33	stimuli_target_circlediamonds.svg	stimuli_distractor_diamondtriangles.svg	6	yes	44	1	559
6.6.1	win	2022-12-22	22:42:21	22:46:31	248002	613ea8344b072de7f3ccb5dc	289182324	1	main_z	7	advance_on_keypress_ZEE	34	stimuli_target_circlediamonds.svg	stimuli_distractor_diamondtriangles.svg	6	yes	57	0	1281
6.6.1	win	2022-12-22	22:42:21	22:46:34	250419	613ea8344b072de7f3ccb5dc	289182324	1	main_z	7	main_z	35	stimuli_distractor_trianglediamonds.svg	stimuli_target_circletriangles.svg	9	yes	44	1	493
6.6.1	win	2022-12-22	22:42:21	22:46:34	250419	613ea8344b072de7f3ccb5dc	289182324	1	main_z	7	advance_on_keypress_ZEE	36	stimuli_distractor_trianglediamonds.svg	stimuli_target_circletriangles.svg	9	yes	57	0	728
6.6.1	win	2022-12-22	22:42:21	22:46:36	252497	613ea8344b072de7f3ccb5dc	289182324	1	main_z	7	main_z	37	stimuli_distractor_trianglediamonds.svg	stimuli_target_circlediamonds.svg	10	yes	44	1	705
6.6.1	win	2022-12-22	22:42:21	22:46:36	252497	613ea8344b072de7f3ccb5dc	289182324	1	main_z	7	advance_on_keypress_ZEE	38	stimuli_distractor_trianglediamonds.svg	stimuli_target_circlediamonds.svg	10	yes	57	0	711
6.6.1	win	2022-12-22	22:42:21	22:46:38	254670	613ea8344b072de7f3ccb5dc	289182324	1	main_z	7	main_z	39	stimuli_target_diamondcircles.svg	stimuli_distractor_diamondtriangles.svg	23	yes	44	1	811
6.6.1	win	2022-12-22	22:42:21	22:46:38	254670	613ea8344b072de7f3ccb5dc	289182324	1	main_z	7	advance_on_keypress_ZEE	40	stimuli_target_diamondcircles.svg	stimuli_distractor_diamondtriangles.svg	23	yes	57	0	499
6.6.1	win	2022-12-22	22:42:21	22:46:41	257825	613ea8344b072de7f3ccb5dc	289182324	1	main_z	7	main_z	41	stimuli_distractor_diamondtriangles.svg	stimuli_target_squaretriangles.svg	15	yes	0	0	2000
6.6.1	win	2022-12-22	22:42:21	22:46:41	257825	613ea8344b072de7f3ccb5dc	289182324	1	main_z	7	advance_on_keypress_ZEE	42	stimuli_distractor_diamondtriangles.svg	stimuli_target_squaretriangles.svg	15	yes	57	0	330
6.6.1	win	2022-12-22	22:42:21	22:46:44	260808	613ea8344b072de7f3ccb5dc	289182324	1	main_z	7	main_z	43	stimuli_target_diamondsquares.svg	stimuli_distractor_trianglediamonds.svg	20	yes	0	0	2000
6.6.1	win	2022-12-22	22:42:21	22:46:44	260808	613ea8344b072de7f3ccb5dc	289182324	1	main_z	7	advance_on_keypress_ZEE	44	stimuli_target_diamondsquares.svg	stimuli_distractor_trianglediamonds.svg	20	yes	57	0	288
6.6.1	win	2022-12-22	22:42:21	22:46:47	263741	613ea8344b072de7f3ccb5dc	289182324	1	main_z	7	main_z	45	stimuli_distractor_diamondtriangles.svg	stimuli_distractor_diamondtriangles.svg	39	no	0	1	2000
6.6.1	win	2022-12-22	22:42:21	22:46:47	263741	613ea8344b072de7f3ccb5dc	289182324	1	main_z	7	advance_on_keypress_ZEE	46	stimuli_distractor_diamondtriangles.svg	stimuli_distractor_diamondtriangles.svg	39	no	57	0	334
6.6.1	win	2022-12-22	22:42:21	22:46:50	266724	613ea8344b072de7f3ccb5dc	289182324	1	main_z	7	main_z	47	stimuli_distractor_trianglediamonds.svg	stimuli_distractor_diamondtriangles.svg	36	no	0	1	2000
6.6.1	win	2022-12-22	22:42:21	22:46:50	266724	613ea8344b072de7f3ccb5dc	289182324	1	main_z	7	advance_on_keypress_ZEE	48	stimuli_distractor_trianglediamonds.svg	stimuli_distractor_diamondtriangles.svg	36	no	57	0	319
6.6.1	win	2022-12-22	22:42:21	22:46:51	268331	613ea8344b072de7f3ccb5dc	289182324	1	main_z	7	main_z	49	stimuli_target_squarediamonds.svg	stimuli_distractor_trianglediamonds.svg	4	yes	44	1	641
6.6.1	win	2022-12-22	22:42:21	22:46:51	268331	613ea8344b072de7f3ccb5dc	289182324	1	main_z	7	advance_on_keypress_ZEE	50	stimuli_target_squarediamonds.svg	stimuli_distractor_trianglediamonds.svg	4	yes	57	0	493
6.6.1	win	2022-12-22	22:42:21	22:46:55	271457	613ea8344b072de7f3ccb5dc	289182324	1	main_z	7	main_z	51	stimuli_distractor_trianglediamonds.svg	stimuli_distractor_diamondtriangles.svg	35	no	0	1	2000
6.6.1	win	2022-12-22	22:42:21	22:46:55	271457	613ea8344b072de7f3ccb5dc	289182324	1	main_z	7	advance_on_keypress_ZEE	52	stimuli_distractor_trianglediamonds.svg	stimuli_distractor_diamondtriangles.svg	35	no	57	0	320
6.6.1	win	2022-12-22	22:42:21	22:46:56	272885	613ea8344b072de7f3ccb5dc	289182324	1	main_z	7	main_z	53	stimuli_target_squarediamonds.svg	stimuli_distractor_diamondtriangles.svg	8	yes	44	1	462
6.6.1	win	2022-12-22	22:42:21	22:46:56	272885	613ea8344b072de7f3ccb5dc	289182324	1	main_z	7	advance_on_keypress_ZEE	54	stimuli_target_squarediamonds.svg	stimuli_distractor_diamondtriangles.svg	8	yes	57	0	612
6.6.1	win	2022-12-22	22:42:21	22:46:58	274955	613ea8344b072de7f3ccb5dc	289182324	1	main_z	7	main_z	55	stimuli_target_trianglecircles.svg	stimuli_distractor_diamondtriangles.svg	21	yes	44	1	798
6.6.1	win	2022-12-22	22:42:21	22:46:58	274955	613ea8344b072de7f3ccb5dc	289182324	1	main_z	7	advance_on_keypress_ZEE	56	stimuli_target_trianglecircles.svg	stimuli_distractor_diamondtriangles.svg	21	yes	57	0	1747
6.6.1	win	2022-12-22	22:42:21	22:47:01	278037	613ea8344b072de7f3ccb5dc	289182324	1	main_z	7	main_z	57	stimuli_distractor_trianglediamonds.svg	stimuli_target_trianglecircles.svg	25	yes	44	1	680
6.6.1	win	2022-12-22	22:42:21	22:47:01	278037	613ea8344b072de7f3ccb5dc	289182324	1	main_z	7	advance_on_keypress_ZEE	58	stimuli_distractor_trianglediamonds.svg	stimuli_target_trianglecircles.svg	25	yes	57	0	770
6.6.1	win	2022-12-22	22:42:21	22:47:05	281457	613ea8344b072de7f3ccb5dc	289182324	1	main_z	7	main_z	59	stimuli_distractor_diamondtriangles.svg	stimuli_distractor_diamondtriangles.svg	40	no	0	1	2000
6.6.1	win	2022-12-22	22:42:21	22:47:05	281457	613ea8344b072de7f3ccb5dc	289182324	1	main_z	7	advance_on_keypress_ZEE	60	stimuli_distractor_diamondtriangles.svg	stimuli_distractor_diamondtriangles.svg	40	no	57	0	323
6.6.1	win	2022-12-22	22:42:21	22:47:06	283255	613ea8344b072de7f3ccb5dc	289182324	1	main_z	7	main_z	61	stimuli_target_diamondsquares.svg	stimuli_distractor_diamondtriangles.svg	24	yes	44	1	832
6.6.1	win	2022-12-22	22:42:21	22:47:06	283255	613ea8344b072de7f3ccb5dc	289182324	1	main_z	7	advance_on_keypress_ZEE	62	stimuli_target_diamondsquares.svg	stimuli_distractor_diamondtriangles.svg	24	yes	57	0	472
6.6.1	win	2022-12-22	22:42:21	22:47:08	285098	613ea8344b072de7f3ccb5dc	289182324	1	main_z	7	main_z	63	stimuli_target_trianglecircles.svg	stimuli_distractor_trianglediamonds.svg	17	yes	44	1	724
6.6.1	win	2022-12-22	22:42:21	22:47:08	285098	613ea8344b072de7f3ccb5dc	289182324	1	main_z	7	advance_on_keypress_ZEE	64	stimuli_target_trianglecircles.svg	stimuli_distractor_trianglediamonds.svg	17	yes	57	0	535
6.6.1	win	2022-12-22	22:42:21	22:47:11	288273	613ea8344b072de7f3ccb5dc	289182324	1	main_z	7	main_z	65	stimuli_distractor_diamondtriangles.svg	stimuli_distractor_trianglediamonds.svg	38	no	0	1	2000
6.6.1	win	2022-12-22	22:42:21	22:47:11	288273	613ea8344b072de7f3ccb5dc	289182324	1	main_z	7	advance_on_keypress_ZEE	66	stimuli_distractor_diamondtriangles.svg	stimuli_distractor_trianglediamonds.svg	38	no	57	0	318
6.6.1	win	2022-12-22	22:42:21	22:47:13	290317	613ea8344b072de7f3ccb5dc	289182324	1	main_z	7	main_z	67	stimuli_distractor_trianglediamonds.svg	stimuli_target_diamondsquares.svg	28	yes	44	1	1078
6.6.1	win	2022-12-22	22:42:21	22:47:13	290317	613ea8344b072de7f3ccb5dc	289182324	1	main_z	7	advance_on_keypress_ZEE	68	stimuli_distractor_trianglediamonds.svg	stimuli_target_diamondsquares.svg	28	yes	57	0	403
6.6.1	win	2022-12-22	22:42:21	22:47:16	292815	613ea8344b072de7f3ccb5dc	289182324	1	main_z	7	main_z	69	stimuli_distractor_trianglediamonds.svg	stimuli_target_squaretriangles.svg	11	yes	44	1	1442
6.6.1	win	2022-12-22	22:42:21	22:47:16	292815	613ea8344b072de7f3ccb5dc	289182324	1	main_z	7	advance_on_keypress_ZEE	70	stimuli_distractor_trianglediamonds.svg	stimuli_target_squaretriangles.svg	11	yes	57	0	433
6.6.1	win	2022-12-22	22:42:21	22:47:18	294871	613ea8344b072de7f3ccb5dc	289182324	1	main_z	7	main_z	71	stimuli_distractor_trianglediamonds.svg	stimuli_target_squarediamonds.svg	12	yes	44	1	982
6.6.1	win	2022-12-22	22:42:21	22:47:18	294871	613ea8344b072de7f3ccb5dc	289182324	1	main_z	7	advance_on_keypress_ZEE	72	stimuli_distractor_trianglediamonds.svg	stimuli_target_squarediamonds.svg	12	yes	57	0	514
6.6.1	win	2022-12-22	22:42:21	22:47:20	296759	613ea8344b072de7f3ccb5dc	289182324	1	main_z	7	main_z	73	stimuli_distractor_diamondtriangles.svg	stimuli_target_trianglesquares.svg	30	yes	44	1	720
6.6.1	win	2022-12-22	22:42:21	22:47:20	296759	613ea8344b072de7f3ccb5dc	289182324	1	main_z	7	advance_on_keypress_ZEE	74	stimuli_distractor_diamondtriangles.svg	stimuli_target_trianglesquares.svg	30	yes	57	0	451
6.6.1	win	2022-12-22	22:42:21	22:47:22	298556	613ea8344b072de7f3ccb5dc	289182324	1	main_z	7	main_z	75	stimuli_target_trianglesquares.svg	stimuli_distractor_diamondtriangles.svg	22	yes	44	1	701
6.6.1	win	2022-12-22	22:42:21	22:47:22	298556	613ea8344b072de7f3ccb5dc	289182324	1	main_z	7	advance_on_keypress_ZEE	76	stimuli_target_trianglesquares.svg	stimuli_distractor_diamondtriangles.svg	22	yes	57	0	570
6.6.1	win	2022-12-22	22:42:21	22:47:24	300623	613ea8344b072de7f3ccb5dc	289182324	1	main_z	7	main_z	77	stimuli_target_diamondcircles.svg	stimuli_distractor_trianglediamonds.svg	19	yes	44	1	850
6.6.1	win	2022-12-22	22:42:21	22:47:24	300623	613ea8344b072de7f3ccb5dc	289182324	1	main_z	7	advance_on_keypress_ZEE	78	stimuli_target_diamondcircles.svg	stimuli_distractor_trianglediamonds.svg	19	yes	57	0	517
6.6.1	win	2022-12-22	22:42:21	22:47:26	302595	613ea8344b072de7f3ccb5dc	289182324	1	main_z	7	main_z	79	stimuli_target_squaretriangles.svg	stimuli_distractor_trianglediamonds.svg	3	yes	44	1	805
6.6.1	win	2022-12-22	22:42:21	22:47:26	302595	613ea8344b072de7f3ccb5dc	289182324	1	main_z	7	advance_on_keypress_ZEE	80	stimuli_target_squaretriangles.svg	stimuli_distractor_trianglediamonds.svg	3	yes	57	0	586
6.6.1	win	2022-12-22	22:42:21	22:47:29	305822	613ea8344b072de7f3ccb5dc	289182324	1	main_z	7	main_z	81	stimuli_distractor_trianglediamonds.svg	stimuli_distractor_trianglediamonds.svg	34	no	0	1	2000
6.6.1	win	2022-12-22	22:42:21	22:47:29	305822	613ea8344b072de7f3ccb5dc	289182324	1	main_z	7	advance_on_keypress_ZEE	82	stimuli_distractor_trianglediamonds.svg	stimuli_distractor_trianglediamonds.svg	34	no	57	0	390
6.6.1	win	2022-12-22	22:42:21	22:47:31	307712	613ea8344b072de7f3ccb5dc	289182324	1	main_z	7	main_z	83	stimuli_target_squarediamonds.svg	stimuli_distractor_trianglediamonds.svg	4	yes	44	1	857
6.6.1	win	2022-12-22	22:42:21	22:47:31	307712	613ea8344b072de7f3ccb5dc	289182324	1	main_z	7	advance_on_keypress_ZEE	84	stimuli_target_squarediamonds.svg	stimuli_distractor_trianglediamonds.svg	4	yes	57	0	560
6.6.1	win	2022-12-22	22:42:21	22:47:34	310922	613ea8344b072de7f3ccb5dc	289182324	1	main_z	7	main_z	85	stimuli_distractor_diamondtriangles.svg	stimuli_distractor_diamondtriangles.svg	40	no	0	1	2000
6.6.1	win	2022-12-22	22:42:21	22:47:34	310922	613ea8344b072de7f3ccb5dc	289182324	1	main_z	7	advance_on_keypress_ZEE	86	stimuli_distractor_diamondtriangles.svg	stimuli_distractor_diamondtriangles.svg	40	no	57	0	282
6.6.1	win	2022-12-22	22:42:21	22:47:36	312644	613ea8344b072de7f3ccb5dc	289182324	1	main_z	7	main_z	87	stimuli_distractor_diamondtriangles.svg	stimuli_target_circlediamonds.svg	14	yes	44	1	790
6.6.1	win	2022-12-22	22:42:21	22:47:36	312644	613ea8344b072de7f3ccb5dc	289182324	1	main_z	7	advance_on_keypress_ZEE	88	stimuli_distractor_diamondtriangles.svg	stimuli_target_circlediamonds.svg	14	yes	57	0	524
6.6.1	win	2022-12-22	22:42:21	22:47:39	315804	613ea8344b072de7f3ccb5dc	289182324	1	main_z	7	main_z	89	stimuli_distractor_trianglediamonds.svg	stimuli_distractor_trianglediamonds.svg	33	no	0	1	2000
6.6.1	win	2022-12-22	22:42:21	22:47:39	315804	613ea8344b072de7f3ccb5dc	289182324	1	main_z	7	advance_on_keypress_ZEE	90	stimuli_distractor_trianglediamonds.svg	stimuli_distractor_trianglediamonds.svg	33	no	57	0	2096
6.6.1	win	2022-12-22	22:42:21	22:47:42	319245	613ea8344b072de7f3ccb5dc	289182324	1	main_z	7	main_z	91	stimuli_target_squaretriangles.svg	stimuli_distractor_diamondtriangles.svg	7	yes	44	1	692
6.6.1	win	2022-12-22	22:42:21	22:47:42	319245	613ea8344b072de7f3ccb5dc	289182324	1	main_z	7	advance_on_keypress_ZEE	92	stimuli_target_squaretriangles.svg	stimuli_distractor_diamondtriangles.svg	7	yes	57	0	623
6.6.1	win	2022-12-22	22:42:21	22:47:44	321226	613ea8344b072de7f3ccb5dc	289182324	1	main_z	7	main_z	93	stimuli_target_trianglesquares.svg	stimuli_distractor_diamondtriangles.svg	22	yes	44	1	722
6.6.1	win	2022-12-22	22:42:21	22:47:44	321226	613ea8344b072de7f3ccb5dc	289182324	1	main_z	7	advance_on_keypress_ZEE	94	stimuli_target_trianglesquares.svg	stimuli_distractor_diamondtriangles.svg	22	yes	57	0	516
6.6.1	win	2022-12-22	22:42:21	22:47:46	323062	613ea8344b072de7f3ccb5dc	289182324	1	main_z	7	main_z	95	stimuli_distractor_trianglediamonds.svg	stimuli_target_squaretriangles.svg	11	yes	44	1	675
6.6.1	win	2022-12-22	22:42:21	22:47:46	323062	613ea8344b072de7f3ccb5dc	289182324	1	main_z	7	advance_on_keypress_ZEE	96	stimuli_distractor_trianglediamonds.svg	stimuli_target_squaretriangles.svg	11	yes	57	0	467
6.6.1	win	2022-12-22	22:42:21	22:47:49	326170	613ea8344b072de7f3ccb5dc	289182324	1	main_z	7	main_z	97	stimuli_distractor_trianglediamonds.svg	stimuli_distractor_diamondtriangles.svg	35	no	0	1	2000
6.6.1	win	2022-12-22	22:42:21	22:47:49	326170	613ea8344b072de7f3ccb5dc	289182324	1	main_z	7	advance_on_keypress_ZEE	98	stimuli_distractor_trianglediamonds.svg	stimuli_distractor_diamondtriangles.svg	35	no	57	0	457
6.6.1	win	2022-12-22	22:42:21	22:47:52	328367	613ea8344b072de7f3ccb5dc	289182324	1	main_z	7	main_z	99	stimuli_distractor_trianglediamonds.svg	stimuli_distractor_diamondtriangles.svg	36	no	44	0	1097
6.6.1	win	2022-12-22	22:42:21	22:47:52	328367	613ea8344b072de7f3ccb5dc	289182324	1	main_z	7	advance_on_keypress_ZEE	100	stimuli_distractor_trianglediamonds.svg	stimuli_distractor_diamondtriangles.svg	36	no	57	0	539
6.6.1	win	2022-12-22	22:42:21	22:47:54	330647	613ea8344b072de7f3ccb5dc	289182324	1	main_z	7	main_z	101	stimuli_distractor_trianglediamonds.svg	stimuli_target_circletriangles.svg	9	yes	44	1	1095
6.6.1	win	2022-12-22	22:42:21	22:47:54	330647	613ea8344b072de7f3ccb5dc	289182324	1	main_z	7	advance_on_keypress_ZEE	102	stimuli_distractor_trianglediamonds.svg	stimuli_target_circletriangles.svg	9	yes	57	0	543
6.6.1	win	2022-12-22	22:42:21	22:47:56	332600	613ea8344b072de7f3ccb5dc	289182324	1	main_z	7	main_z	103	stimuli_target_circlediamonds.svg	stimuli_distractor_diamondtriangles.svg	6	yes	44	1	747
6.6.1	win	2022-12-22	22:42:21	22:47:56	332600	613ea8344b072de7f3ccb5dc	289182324	1	main_z	7	advance_on_keypress_ZEE	104	stimuli_target_circlediamonds.svg	stimuli_distractor_diamondtriangles.svg	6	yes	57	0	465
6.6.1	win	2022-12-22	22:42:21	22:47:58	334432	613ea8344b072de7f3ccb5dc	289182324	1	main_z	7	main_z	105	stimuli_distractor_diamondtriangles.svg	stimuli_target_circletriangles.svg	13	yes	44	1	713
6.6.1	win	2022-12-22	22:42:21	22:47:58	334432	613ea8344b072de7f3ccb5dc	289182324	1	main_z	7	advance_on_keypress_ZEE	106	stimuli_distractor_diamondtriangles.svg	stimuli_target_circletriangles.svg	13	yes	57	0	364
6.6.1	win	2022-12-22	22:42:21	22:48:01	337453	613ea8344b072de7f3ccb5dc	289182324	1	main_z	7	main_z	107	stimuli_distractor_diamondtriangles.svg	stimuli_distractor_diamondtriangles.svg	39	no	0	1	2000
6.6.1	win	2022-12-22	22:42:21	22:48:01	337453	613ea8344b072de7f3ccb5dc	289182324	1	main_z	7	advance_on_keypress_ZEE	108	stimuli_distractor_diamondtriangles.svg	stimuli_distractor_diamondtriangles.svg	39	no	57	0	417
6.6.1	win	2022-12-22	22:42:21	22:48:02	339186	613ea8344b072de7f3ccb5dc	289182324	1	main_z	7	main_z	109	stimuli_target_circletriangles.svg	stimuli_distractor_diamondtriangles.svg	5	yes	44	1	667
6.6.1	win	2022-12-22	22:42:21	22:48:02	339186	613ea8344b072de7f3ccb5dc	289182324	1	main_z	7	advance_on_keypress_ZEE	110	stimuli_target_circletriangles.svg	stimuli_distractor_diamondtriangles.svg	5	yes	57	0	462
6.6.1	win	2022-12-22	22:42:21	22:48:04	340998	613ea8344b072de7f3ccb5dc	289182324	1	main_z	7	main_z	111	stimuli_target_circlediamonds.svg	stimuli_distractor_trianglediamonds.svg	2	yes	44	1	696
6.6.1	win	2022-12-22	22:42:21	22:48:04	340998	613ea8344b072de7f3ccb5dc	289182324	1	main_z	7	advance_on_keypress_ZEE	112	stimuli_target_circlediamonds.svg	stimuli_distractor_trianglediamonds.svg	2	yes	57	0	487
6.6.1	win	2022-12-22	22:42:21	22:48:06	342994	613ea8344b072de7f3ccb5dc	289182324	1	main_z	7	main_z	113	stimuli_distractor_diamondtriangles.svg	stimuli_target_diamondcircles.svg	31	yes	44	1	859
6.6.1	win	2022-12-22	22:42:21	22:48:06	342994	613ea8344b072de7f3ccb5dc	289182324	1	main_z	7	advance_on_keypress_ZEE	114	stimuli_distractor_diamondtriangles.svg	stimuli_target_diamondcircles.svg	31	yes	57	0	438
6.6.1	win	2022-12-22	22:42:21	22:48:08	344817	613ea8344b072de7f3ccb5dc	289182324	1	main_z	7	main_z	115	stimuli_distractor_trianglediamonds.svg	stimuli_target_circlediamonds.svg	10	yes	44	1	748
6.6.1	win	2022-12-22	22:42:21	22:48:08	344817	613ea8344b072de7f3ccb5dc	289182324	1	main_z	7	advance_on_keypress_ZEE	116	stimuli_distractor_trianglediamonds.svg	stimuli_target_circlediamonds.svg	10	yes	57	0	395
6.6.1	win	2022-12-22	22:42:21	22:48:10	346600	613ea8344b072de7f3ccb5dc	289182324	1	main_z	7	main_z	117	stimuli_distractor_trianglediamonds.svg	stimuli_target_trianglecircles.svg	25	yes	44	1	731
6.6.1	win	2022-12-22	22:42:21	22:48:10	346600	613ea8344b072de7f3ccb5dc	289182324	1	main_z	7	advance_on_keypress_ZEE	118	stimuli_distractor_trianglediamonds.svg	stimuli_target_trianglecircles.svg	25	yes	57	0	439
6.6.1	win	2022-12-22	22:42:21	22:48:12	348797	613ea8344b072de7f3ccb5dc	289182324	1	main_z	7	main_z	119	stimuli_distractor_diamondtriangles.svg	stimuli_target_diamondsquares.svg	32	yes	44	1	1112
6.6.1	win	2022-12-22	22:42:21	22:48:12	348797	613ea8344b072de7f3ccb5dc	289182324	1	main_z	7	advance_on_keypress_ZEE	120	stimuli_distractor_diamondtriangles.svg	stimuli_target_diamondsquares.svg	32	yes	57	0	341
6.6.1	win	2022-12-22	22:42:21	22:48:15	351785	613ea8344b072de7f3ccb5dc	289182324	1	main_z	7	main_z	121	stimuli_target_diamondsquares.svg	stimuli_distractor_diamondtriangles.svg	24	yes	0	0	2000
6.6.1	win	2022-12-22	22:42:21	22:48:15	351785	613ea8344b072de7f3ccb5dc	289182324	1	main_z	7	advance_on_keypress_ZEE	122	stimuli_target_diamondsquares.svg	stimuli_distractor_diamondtriangles.svg	24	yes	57	0	326
6.6.1	win	2022-12-22	22:42:21	22:48:17	353442	613ea8344b072de7f3ccb5dc	289182324	1	main_z	7	main_z	123	stimuli_distractor_diamondtriangles.svg	stimuli_target_squaretriangles.svg	15	yes	44	1	691
6.6.1	win	2022-12-22	22:42:21	22:48:17	353442	613ea8344b072de7f3ccb5dc	289182324	1	main_z	7	advance_on_keypress_ZEE	124	stimuli_distractor_diamondtriangles.svg	stimuli_target_squaretriangles.svg	15	yes	57	0	477
6.6.1	win	2022-12-22	22:42:21	22:48:18	355235	613ea8344b072de7f3ccb5dc	289182324	1	main_z	7	main_z	125	stimuli_target_squaretriangles.svg	stimuli_distractor_trianglediamonds.svg	3	yes	44	1	684
6.6.1	win	2022-12-22	22:42:21	22:48:18	355235	613ea8344b072de7f3ccb5dc	289182324	1	main_z	7	advance_on_keypress_ZEE	126	stimuli_target_squaretriangles.svg	stimuli_distractor_trianglediamonds.svg	3	yes	57	0	362
6.6.1	win	2022-12-22	22:42:21	22:48:20	356943	613ea8344b072de7f3ccb5dc	289182324	1	main_z	7	main_z	127	stimuli_target_circletriangles.svg	stimuli_distractor_trianglediamonds.svg	1	yes	44	1	691
6.6.1	win	2022-12-22	22:42:21	22:48:20	356943	613ea8344b072de7f3ccb5dc	289182324	1	main_z	7	advance_on_keypress_ZEE	128	stimuli_target_circletriangles.svg	stimuli_distractor_trianglediamonds.svg	1	yes	57	0	441
6.6.1	win	2022-12-22	22:42:21	22:48:23	360017	613ea8344b072de7f3ccb5dc	289182324	1	main_z	7	main_z	129	stimuli_distractor_diamondtriangles.svg	stimuli_distractor_trianglediamonds.svg	37	no	0	1	2000
6.6.1	win	2022-12-22	22:42:21	22:48:23	360017	613ea8344b072de7f3ccb5dc	289182324	1	main_z	7	advance_on_keypress_ZEE	130	stimuli_distractor_diamondtriangles.svg	stimuli_distractor_trianglediamonds.svg	37	no	57	0	384
6.6.1	win	2022-12-22	22:42:21	22:48:26	363050	613ea8344b072de7f3ccb5dc	289182324	1	main_z	7	main_z	131	stimuli_distractor_diamondtriangles.svg	stimuli_distractor_trianglediamonds.svg	38	no	0	1	2000
6.6.1	win	2022-12-22	22:42:21	22:48:26	363050	613ea8344b072de7f3ccb5dc	289182324	1	main_z	7	advance_on_keypress_ZEE	132	stimuli_distractor_diamondtriangles.svg	stimuli_distractor_trianglediamonds.svg	38	no	57	0	978
6.6.1	win	2022-12-22	22:42:21	22:48:28	365335	613ea8344b072de7f3ccb5dc	289182324	1	main_z	7	main_z	133	stimuli_distractor_diamondtriangles.svg	stimuli_target_trianglesquares.svg	30	yes	44	1	651
6.6.1	win	2022-12-22	22:42:21	22:48:28	365335	613ea8344b072de7f3ccb5dc	289182324	1	main_z	7	advance_on_keypress_ZEE	134	stimuli_distractor_diamondtriangles.svg	stimuli_target_trianglesquares.svg	30	yes	57	0	391
6.6.1	win	2022-12-22	22:42:21	22:48:30	367037	613ea8344b072de7f3ccb5dc	289182324	1	main_z	7	main_z	135	stimuli_distractor_trianglediamonds.svg	stimuli_target_squarediamonds.svg	12	yes	44	1	670
6.6.1	win	2022-12-22	22:42:21	22:48:30	367037	613ea8344b072de7f3ccb5dc	289182324	1	main_z	7	advance_on_keypress_ZEE	136	stimuli_distractor_trianglediamonds.svg	stimuli_target_squarediamonds.svg	12	yes	57	0	393
6.6.1	win	2022-12-22	22:42:21	22:48:32	368677	613ea8344b072de7f3ccb5dc	289182324	1	main_z	7	main_z	137	stimuli_target_diamondcircles.svg	stimuli_distractor_trianglediamonds.svg	19	yes	44	1	610
6.6.1	win	2022-12-22	22:42:21	22:48:32	368677	613ea8344b072de7f3ccb5dc	289182324	1	main_z	7	advance_on_keypress_ZEE	138	stimuli_target_diamondcircles.svg	stimuli_distractor_trianglediamonds.svg	19	yes	57	0	392
6.6.1	win	2022-12-22	22:42:21	22:48:34	370430	613ea8344b072de7f3ccb5dc	289182324	1	main_z	7	main_z	139	stimuli_target_trianglecircles.svg	stimuli_distractor_diamondtriangles.svg	21	yes	44	1	730
6.6.1	win	2022-12-22	22:42:21	22:48:34	370430	613ea8344b072de7f3ccb5dc	289182324	1	main_z	7	advance_on_keypress_ZEE	140	stimuli_target_trianglecircles.svg	stimuli_distractor_diamondtriangles.svg	21	yes	57	0	424
6.6.1	win	2022-12-22	22:42:21	22:48:37	373500	613ea8344b072de7f3ccb5dc	289182324	1	main_z	7	main_z	141	stimuli_target_squarediamonds.svg	stimuli_distractor_diamondtriangles.svg	8	yes	0	0	2000
6.6.1	win	2022-12-22	22:42:21	22:48:37	373500	613ea8344b072de7f3ccb5dc	289182324	1	main_z	7	advance_on_keypress_ZEE	142	stimuli_target_squarediamonds.svg	stimuli_distractor_diamondtriangles.svg	8	yes	57	0	337
6.6.1	win	2022-12-22	22:42:21	22:48:38	375004	613ea8344b072de7f3ccb5dc	289182324	1	main_z	7	main_z	143	stimuli_distractor_trianglediamonds.svg	stimuli_target_diamondcircles.svg	27	yes	44	1	521
6.6.1	win	2022-12-22	22:42:21	22:48:38	375004	613ea8344b072de7f3ccb5dc	289182324	1	main_z	7	advance_on_keypress_ZEE	144	stimuli_distractor_trianglediamonds.svg	stimuli_target_diamondcircles.svg	27	yes	57	0	423
6.6.1	win	2022-12-22	22:42:21	22:48:40	376740	613ea8344b072de7f3ccb5dc	289182324	1	main_z	7	main_z	145	stimuli_target_diamondcircles.svg	stimuli_distractor_diamondtriangles.svg	23	yes	44	1	674
6.6.1	win	2022-12-22	22:42:21	22:48:40	376740	613ea8344b072de7f3ccb5dc	289182324	1	main_z	7	advance_on_keypress_ZEE	146	stimuli_target_diamondcircles.svg	stimuli_distractor_diamondtriangles.svg	23	yes	57	0	467
6.6.1	win	2022-12-22	22:42:21	22:48:42	378636	613ea8344b072de7f3ccb5dc	289182324	1	main_z	7	main_z	147	stimuli_target_diamondsquares.svg	stimuli_distractor_trianglediamonds.svg	20	yes	44	1	787
6.6.1	win	2022-12-22	22:42:21	22:48:42	378636	613ea8344b072de7f3ccb5dc	289182324	1	main_z	7	advance_on_keypress_ZEE	148	stimuli_target_diamondsquares.svg	stimuli_distractor_trianglediamonds.svg	20	yes	57	0	322
6.6.1	win	2022-12-22	22:42:21	22:48:44	380362	613ea8344b072de7f3ccb5dc	289182324	1	main_z	7	main_z	149	stimuli_distractor_trianglediamonds.svg	stimuli_target_diamondsquares.svg	28	yes	44	1	763
6.6.1	win	2022-12-22	22:42:21	22:48:44	380362	613ea8344b072de7f3ccb5dc	289182324	1	main_z	7	advance_on_keypress_ZEE	150	stimuli_distractor_trianglediamonds.svg	stimuli_target_diamondsquares.svg	28	yes	57	0	327
6.6.1	win	2022-12-22	22:42:21	22:48:45	382049	613ea8344b072de7f3ccb5dc	289182324	1	main_z	7	main_z	151	stimuli_distractor_trianglediamonds.svg	stimuli_target_trianglesquares.svg	26	yes	44	1	701
6.6.1	win	2022-12-22	22:42:21	22:48:45	382049	613ea8344b072de7f3ccb5dc	289182324	1	main_z	7	advance_on_keypress_ZEE	152	stimuli_distractor_trianglediamonds.svg	stimuli_target_trianglesquares.svg	26	yes	57	0	362
6.6.1	win	2022-12-22	22:42:21	22:48:47	383709	613ea8344b072de7f3ccb5dc	289182324	1	main_z	7	main_z	153	stimuli_target_trianglesquares.svg	stimuli_distractor_trianglediamonds.svg	18	yes	44	1	643
6.6.1	win	2022-12-22	22:42:21	22:48:47	383709	613ea8344b072de7f3ccb5dc	289182324	1	main_z	7	advance_on_keypress_ZEE	154	stimuli_target_trianglesquares.svg	stimuli_distractor_trianglediamonds.svg	18	yes	57	0	316
6.6.1	win	2022-12-22	22:42:21	22:48:48	385309	613ea8344b072de7f3ccb5dc	289182324	1	main_z	7	main_z	155	stimuli_target_trianglecircles.svg	stimuli_distractor_trianglediamonds.svg	17	yes	44	1	643
6.6.1	win	2022-12-22	22:42:21	22:48:48	385309	613ea8344b072de7f3ccb5dc	289182324	1	main_z	7	advance_on_keypress_ZEE	156	stimuli_target_trianglecircles.svg	stimuli_distractor_trianglediamonds.svg	17	yes	57	0	342
6.6.1	win	2022-12-22	22:42:21	22:48:50	387006	613ea8344b072de7f3ccb5dc	289182324	1	main_z	7	main_z	157	stimuli_distractor_diamondtriangles.svg	stimuli_target_squarediamonds.svg	16	yes	44	1	724
6.6.1	win	2022-12-22	22:42:21	22:48:50	387006	613ea8344b072de7f3ccb5dc	289182324	1	main_z	7	advance_on_keypress_ZEE	158	stimuli_distractor_diamondtriangles.svg	stimuli_target_squarediamonds.svg	16	yes	57	0	274
6.6.1	win	2022-12-22	22:42:21	22:48:52	388656	613ea8344b072de7f3ccb5dc	289182324	1	main_z	7	main_z	159	stimuli_distractor_diamondtriangles.svg	stimuli_target_trianglecircles.svg	29	yes	44	1	742
6.6.1	win	2022-12-22	22:42:21	22:48:52	388656	613ea8344b072de7f3ccb5dc	289182324	1	main_z	7	advance_on_keypress_ZEE	160	stimuli_distractor_diamondtriangles.svg	stimuli_target_trianglecircles.svg	29	yes	57	0	484
6.6.1	win	2022-12-22	22:42:21	22:53:18	654499	613ea8344b072de7f3ccb5dc	289182324	1	practice_slash	9	practice_slash	1	stimuli_distractor_diamondtriangles.svg	stimuli_distractor_diamondtriangles.svg	13	no	0	1	2000
6.6.1	win	2022-12-22	22:42:21	22:53:18	654499	613ea8344b072de7f3ccb5dc	289182324	1	practice_slash	9	advance_on_keypress_SLASH	2	stimuli_distractor_diamondtriangles.svg	stimuli_distractor_diamondtriangles.svg	13	no	57	0	860
6.6.1	win	2022-12-22	22:42:21	22:53:20	657294	613ea8344b072de7f3ccb5dc	289182324	1	practice_slash	9	practice_slash	3	stimuli_distractor_diamondtriangles.svg	stimuli_target_trianglecircles.svg	9	yes	53	1	263
6.6.1	win	2022-12-22	22:42:21	22:53:20	657294	613ea8344b072de7f3ccb5dc	289182324	1	practice_slash	9	advance_on_keypress_SLASH	4	stimuli_distractor_diamondtriangles.svg	stimuli_target_trianglecircles.svg	9	yes	57	0	444
6.6.1	win	2022-12-22	22:42:21	22:53:25	661398	613ea8344b072de7f3ccb5dc	289182324	1	practice_slash	9	practice_slash	5	stimuli_distractor_diamondtriangles.svg	stimuli_distractor_trianglediamonds.svg	14	no	0	1	2000
6.6.1	win	2022-12-22	22:42:21	22:53:25	661398	613ea8344b072de7f3ccb5dc	289182324	1	practice_slash	9	advance_on_keypress_SLASH	6	stimuli_distractor_diamondtriangles.svg	stimuli_distractor_trianglediamonds.svg	14	no	57	0	497
6.6.1	win	2022-12-22	22:42:21	22:53:28	664434	613ea8344b072de7f3ccb5dc	289182324	1	practice_slash	9	practice_slash	7	stimuli_target_circlediamonds.svg	stimuli_distractor_diamondtriangles.svg	1	yes	53	1	886
6.6.1	win	2022-12-22	22:42:21	22:53:28	664434	613ea8344b072de7f3ccb5dc	289182324	1	practice_slash	9	advance_on_keypress_SLASH	8	stimuli_target_circlediamonds.svg	stimuli_distractor_diamondtriangles.svg	1	yes	57	0	901
6.6.1	win	2022-12-22	22:42:21	22:53:32	668998	613ea8344b072de7f3ccb5dc	289182324	1	practice_slash	9	practice_slash	9	stimuli_target_diamondsquares.svg	stimuli_distractor_trianglediamonds.svg	6	yes	0	0	2000
6.6.1	win	2022-12-22	22:42:21	22:53:32	668998	613ea8344b072de7f3ccb5dc	289182324	1	practice_slash	9	advance_on_keypress_SLASH	10	stimuli_target_diamondsquares.svg	stimuli_distractor_trianglediamonds.svg	6	yes	57	0	558
6.6.1	win	2022-12-22	22:42:21	22:53:35	672135	613ea8344b072de7f3ccb5dc	289182324	1	practice_slash	9	practice_slash	11	stimuli_distractor_diamondtriangles.svg	stimuli_target_circletriangles.svg	7	yes	53	1	921
6.6.1	win	2022-12-22	22:42:21	22:53:35	672135	613ea8344b072de7f3ccb5dc	289182324	1	practice_slash	9	advance_on_keypress_SLASH	12	stimuli_distractor_diamondtriangles.svg	stimuli_target_circletriangles.svg	7	yes	57	0	741
6.6.1	win	2022-12-22	22:42:21	22:53:38	675064	613ea8344b072de7f3ccb5dc	289182324	1	practice_slash	9	practice_slash	13	stimuli_distractor_diamondtriangles.svg	stimuli_target_diamondcircles.svg	8	yes	53	1	533
6.6.1	win	2022-12-22	22:42:21	22:53:38	675064	613ea8344b072de7f3ccb5dc	289182324	1	practice_slash	9	advance_on_keypress_SLASH	14	stimuli_distractor_diamondtriangles.svg	stimuli_target_diamondcircles.svg	8	yes	57	0	552
6.6.1	win	2022-12-22	22:42:21	22:53:41	677766	613ea8344b072de7f3ccb5dc	289182324	1	practice_slash	9	practice_slash	15	stimuli_distractor_trianglediamonds.svg	stimuli_target_circlediamonds.svg	10	yes	53	1	486
6.6.1	win	2022-12-22	22:42:21	22:53:41	677766	613ea8344b072de7f3ccb5dc	289182324	1	practice_slash	9	advance_on_keypress_SLASH	16	stimuli_distractor_trianglediamonds.svg	stimuli_target_circlediamonds.svg	10	yes	57	0	481
6.6.1	win	2022-12-22	22:42:21	22:53:43	680324	613ea8344b072de7f3ccb5dc	289182324	1	practice_slash	9	practice_slash	17	stimuli_distractor_trianglediamonds.svg	stimuli_target_diamondcircles.svg	12	yes	53	1	428
6.6.1	win	2022-12-22	22:42:21	22:53:43	680324	613ea8344b072de7f3ccb5dc	289182324	1	practice_slash	9	advance_on_keypress_SLASH	18	stimuli_distractor_trianglediamonds.svg	stimuli_target_diamondcircles.svg	12	yes	57	0	412
6.6.1	win	2022-12-22	22:42:21	22:53:48	684397	613ea8344b072de7f3ccb5dc	289182324	1	practice_slash	9	practice_slash	19	stimuli_distractor_trianglediamonds.svg	stimuli_distractor_trianglediamonds.svg	15	no	0	1	2000
6.6.1	win	2022-12-22	22:42:21	22:53:48	684397	613ea8344b072de7f3ccb5dc	289182324	1	practice_slash	9	advance_on_keypress_SLASH	20	stimuli_distractor_trianglediamonds.svg	stimuli_distractor_trianglediamonds.svg	15	no	57	0	419
6.6.1	win	2022-12-22	22:42:21	22:53:50	687115	613ea8344b072de7f3ccb5dc	289182324	1	practice_slash	9	practice_slash	21	stimuli_target_squarediamonds.svg	stimuli_distractor_diamondtriangles.svg	2	yes	53	1	635
6.6.1	win	2022-12-22	22:42:21	22:53:50	687115	613ea8344b072de7f3ccb5dc	289182324	1	practice_slash	9	advance_on_keypress_SLASH	22	stimuli_target_squarediamonds.svg	stimuli_distractor_diamondtriangles.svg	2	yes	57	0	523
6.6.1	win	2022-12-22	22:42:21	22:53:53	689734	613ea8344b072de7f3ccb5dc	289182324	1	practice_slash	9	practice_slash	23	stimuli_target_squarediamonds.svg	stimuli_distractor_trianglediamonds.svg	5	yes	53	1	438
6.6.1	win	2022-12-22	22:42:21	22:53:53	689734	613ea8344b072de7f3ccb5dc	289182324	1	practice_slash	9	advance_on_keypress_SLASH	24	stimuli_target_squarediamonds.svg	stimuli_distractor_trianglediamonds.svg	5	yes	57	0	863
6.6.1	win	2022-12-22	22:42:21	22:53:56	693102	613ea8344b072de7f3ccb5dc	289182324	1	practice_slash	9	practice_slash	25	stimuli_target_diamondsquares.svg	stimuli_distractor_diamondtriangles.svg	3	yes	53	1	839
6.6.1	win	2022-12-22	22:42:21	22:53:56	693102	613ea8344b072de7f3ccb5dc	289182324	1	practice_slash	9	advance_on_keypress_SLASH	26	stimuli_target_diamondsquares.svg	stimuli_distractor_diamondtriangles.svg	3	yes	57	0	498
6.6.1	win	2022-12-22	22:42:21	22:53:59	695767	613ea8344b072de7f3ccb5dc	289182324	1	practice_slash	9	practice_slash	27	stimuli_target_circlediamonds.svg	stimuli_distractor_trianglediamonds.svg	4	yes	53	1	521
6.6.1	win	2022-12-22	22:42:21	22:53:59	695767	613ea8344b072de7f3ccb5dc	289182324	1	practice_slash	9	advance_on_keypress_SLASH	28	stimuli_target_circlediamonds.svg	stimuli_distractor_trianglediamonds.svg	4	yes	57	0	770
6.6.1	win	2022-12-22	22:42:21	22:54:03	700196	613ea8344b072de7f3ccb5dc	289182324	1	practice_slash	9	practice_slash	29	stimuli_distractor_trianglediamonds.svg	stimuli_distractor_diamondtriangles.svg	16	no	0	1	2000
6.6.1	win	2022-12-22	22:42:21	22:54:03	700196	613ea8344b072de7f3ccb5dc	289182324	1	practice_slash	9	advance_on_keypress_SLASH	30	stimuli_distractor_trianglediamonds.svg	stimuli_distractor_diamondtriangles.svg	16	no	57	0	561
6.6.1	win	2022-12-22	22:42:21	22:54:06	702837	613ea8344b072de7f3ccb5dc	289182324	1	practice_slash	9	practice_slash	31	stimuli_distractor_trianglediamonds.svg	stimuli_target_squarediamonds.svg	11	yes	53	1	425
6.6.1	win	2022-12-22	22:42:21	22:54:06	702837	613ea8344b072de7f3ccb5dc	289182324	1	practice_slash	9	advance_on_keypress_SLASH	32	stimuli_distractor_trianglediamonds.svg	stimuli_target_squarediamonds.svg	11	yes	57	0	402
6.6.1	win	2022-12-22	22:42:21	22:54:20	716790	613ea8344b072de7f3ccb5dc	289182324	1	main_slash	11	main_slash	1	stimuli_distractor_trianglediamonds.svg	stimuli_target_diamondsquares.svg	28	yes	0	0	2000
6.6.1	win	2022-12-22	22:42:21	22:54:20	716790	613ea8344b072de7f3ccb5dc	289182324	1	main_slash	11	advance_on_keypress_SLASH	2	stimuli_distractor_trianglediamonds.svg	stimuli_target_diamondsquares.svg	28	yes	57	0	453
6.6.1	win	2022-12-22	22:42:21	22:54:22	718486	613ea8344b072de7f3ccb5dc	289182324	1	main_slash	11	main_slash	3	stimuli_distractor_trianglediamonds.svg	stimuli_distractor_diamondtriangles.svg	36	no	53	0	596
6.6.1	win	2022-12-22	22:42:21	22:54:22	718486	613ea8344b072de7f3ccb5dc	289182324	1	main_slash	11	advance_on_keypress_SLASH	4	stimuli_distractor_trianglediamonds.svg	stimuli_distractor_diamondtriangles.svg	36	no	57	0	485
6.6.1	win	2022-12-22	22:42:21	22:54:25	721623	613ea8344b072de7f3ccb5dc	289182324	1	main_slash	11	main_slash	5	stimuli_distractor_diamondtriangles.svg	stimuli_distractor_trianglediamonds.svg	38	no	0	1	2000
6.6.1	win	2022-12-22	22:42:21	22:54:25	721623	613ea8344b072de7f3ccb5dc	289182324	1	main_slash	11	advance_on_keypress_SLASH	6	stimuli_distractor_diamondtriangles.svg	stimuli_distractor_trianglediamonds.svg	38	no	57	0	340
6.6.1	win	2022-12-22	22:42:21	22:54:26	723064	613ea8344b072de7f3ccb5dc	289182324	1	main_slash	11	main_slash	7	stimuli_distractor_diamondtriangles.svg	stimuli_target_circlediamonds.svg	14	yes	53	1	457
6.6.1	win	2022-12-22	22:42:21	22:54:26	723064	613ea8344b072de7f3ccb5dc	289182324	1	main_slash	11	advance_on_keypress_SLASH	8	stimuli_distractor_diamondtriangles.svg	stimuli_target_circlediamonds.svg	14	yes	57	0	784
6.6.1	win	2022-12-22	22:42:21	22:54:28	725004	613ea8344b072de7f3ccb5dc	289182324	1	main_slash	11	main_slash	9	stimuli_distractor_trianglediamonds.svg	stimuli_target_trianglecircles.svg	25	yes	53	1	515
6.6.1	win	2022-12-22	22:42:21	22:54:28	725004	613ea8344b072de7f3ccb5dc	289182324	1	main_slash	11	advance_on_keypress_SLASH	10	stimuli_distractor_trianglediamonds.svg	stimuli_target_trianglecircles.svg	25	yes	57	0	531
6.6.1	win	2022-12-22	22:42:21	22:54:31	728190	613ea8344b072de7f3ccb5dc	289182324	1	main_slash	11	main_slash	11	stimuli_distractor_trianglediamonds.svg	stimuli_distractor_diamondtriangles.svg	35	no	0	1	2000
6.6.1	win	2022-12-22	22:42:21	22:54:31	728190	613ea8344b072de7f3ccb5dc	289182324	1	main_slash	11	advance_on_keypress_SLASH	12	stimuli_distractor_trianglediamonds.svg	stimuli_distractor_diamondtriangles.svg	35	no	57	0	412
6.6.1	win	2022-12-22	22:42:21	22:54:33	729936	613ea8344b072de7f3ccb5dc	289182324	1	main_slash	11	main_slash	13	stimuli_distractor_trianglediamonds.svg	stimuli_target_squaretriangles.svg	11	yes	53	1	680
6.6.1	win	2022-12-22	22:42:21	22:54:33	729936	613ea8344b072de7f3ccb5dc	289182324	1	main_slash	11	advance_on_keypress_SLASH	14	stimuli_distractor_trianglediamonds.svg	stimuli_target_squaretriangles.svg	11	yes	57	0	1595
6.6.1	win	2022-12-22	22:42:21	22:54:36	732656	613ea8344b072de7f3ccb5dc	289182324	1	main_slash	11	main_slash	15	stimuli_target_squaretriangles.svg	stimuli_distractor_trianglediamonds.svg	3	yes	53	1	467
6.6.1	win	2022-12-22	22:42:21	22:54:36	732656	613ea8344b072de7f3ccb5dc	289182324	1	main_slash	11	advance_on_keypress_SLASH	16	stimuli_target_squaretriangles.svg	stimuli_distractor_trianglediamonds.svg	3	yes	57	0	515
6.6.1	win	2022-12-22	22:42:21	22:54:38	734421	613ea8344b072de7f3ccb5dc	289182324	1	main_slash	11	main_slash	17	stimuli_target_circlediamonds.svg	stimuli_distractor_diamondtriangles.svg	6	yes	53	1	599
6.6.1	win	2022-12-22	22:42:21	22:54:38	734421	613ea8344b072de7f3ccb5dc	289182324	1	main_slash	11	advance_on_keypress_SLASH	18	stimuli_target_circlediamonds.svg	stimuli_distractor_diamondtriangles.svg	6	yes	57	0	514
6.6.1	win	2022-12-22	22:42:21	22:54:39	736109	613ea8344b072de7f3ccb5dc	289182324	1	main_slash	11	main_slash	19	stimuli_distractor_trianglediamonds.svg	stimuli_target_circletriangles.svg	9	yes	53	1	520
6.6.1	win	2022-12-22	22:42:21	22:54:39	736109	613ea8344b072de7f3ccb5dc	289182324	1	main_slash	11	advance_on_keypress_SLASH	20	stimuli_distractor_trianglediamonds.svg	stimuli_target_circletriangles.svg	9	yes	57	0	634
6.6.1	win	2022-12-22	22:42:21	22:54:43	739389	613ea8344b072de7f3ccb5dc	289182324	1	main_slash	11	main_slash	21	stimuli_target_trianglesquares.svg	stimuli_distractor_diamondtriangles.svg	22	yes	0	0	2000
6.6.1	win	2022-12-22	22:42:21	22:54:43	739389	613ea8344b072de7f3ccb5dc	289182324	1	main_slash	11	advance_on_keypress_SLASH	22	stimuli_target_trianglesquares.svg	stimuli_distractor_diamondtriangles.svg	22	yes	57	0	654
6.6.1	win	2022-12-22	22:42:21	22:54:44	741073	613ea8344b072de7f3ccb5dc	289182324	1	main_slash	11	main_slash	23	stimuli_target_trianglecircles.svg	stimuli_distractor_diamondtriangles.svg	21	yes	53	1	383
6.6.1	win	2022-12-22	22:42:21	22:54:44	741073	613ea8344b072de7f3ccb5dc	289182324	1	main_slash	11	advance_on_keypress_SLASH	24	stimuli_target_trianglecircles.svg	stimuli_distractor_diamondtriangles.svg	21	yes	57	0	666
6.6.1	win	2022-12-22	22:42:21	22:54:48	744388	613ea8344b072de7f3ccb5dc	289182324	1	main_slash	11	main_slash	25	stimuli_target_circletriangles.svg	stimuli_distractor_diamondtriangles.svg	5	yes	0	0	2000
6.6.1	win	2022-12-22	22:42:21	22:54:48	744388	613ea8344b072de7f3ccb5dc	289182324	1	main_slash	11	advance_on_keypress_SLASH	26	stimuli_target_circletriangles.svg	stimuli_distractor_diamondtriangles.svg	5	yes	57	0	370
6.6.1	win	2022-12-22	22:42:21	22:54:49	745851	613ea8344b072de7f3ccb5dc	289182324	1	main_slash	11	main_slash	27	stimuli_distractor_trianglediamonds.svg	stimuli_target_squarediamonds.svg	12	yes	53	1	446
6.6.1	win	2022-12-22	22:42:21	22:54:49	745851	613ea8344b072de7f3ccb5dc	289182324	1	main_slash	11	advance_on_keypress_SLASH	28	stimuli_distractor_trianglediamonds.svg	stimuli_target_squarediamonds.svg	12	yes	57	0	1011
6.6.1	win	2022-12-22	22:42:21	22:54:51	747964	613ea8344b072de7f3ccb5dc	289182324	1	main_slash	11	main_slash	29	stimuli_distractor_diamondtriangles.svg	stimuli_target_trianglesquares.svg	30	yes	53	1	443
6.6.1	win	2022-12-22	22:42:21	22:54:51	747964	613ea8344b072de7f3ccb5dc	289182324	1	main_slash	11	advance_on_keypress_SLASH	30	stimuli_distractor_diamondtriangles.svg	stimuli_target_trianglesquares.svg	30	yes	57	0	603
6.6.1	win	2022-12-22	22:42:21	22:54:53	749662	613ea8344b072de7f3ccb5dc	289182324	1	main_slash	11	main_slash	31	stimuli_distractor_diamondtriangles.svg	stimuli_target_circletriangles.svg	13	yes	53	1	457
6.6.1	win	2022-12-22	22:42:21	22:54:53	749662	613ea8344b072de7f3ccb5dc	289182324	1	main_slash	11	advance_on_keypress_SLASH	32	stimuli_distractor_diamondtriangles.svg	stimuli_target_circletriangles.svg	13	yes	57	0	492
6.6.1	win	2022-12-22	22:42:21	22:54:54	751308	613ea8344b072de7f3ccb5dc	289182324	1	main_slash	11	main_slash	33	stimuli_distractor_diamondtriangles.svg	stimuli_target_trianglecircles.svg	29	yes	53	1	521
6.6.1	win	2022-12-22	22:42:21	22:54:54	751308	613ea8344b072de7f3ccb5dc	289182324	1	main_slash	11	advance_on_keypress_SLASH	34	stimuli_distractor_diamondtriangles.svg	stimuli_target_trianglecircles.svg	29	yes	57	0	441
6.6.1	win	2022-12-22	22:42:21	22:54:57	753837	613ea8344b072de7f3ccb5dc	289182324	1	main_slash	11	main_slash	35	stimuli_target_circlediamonds.svg	stimuli_distractor_trianglediamonds.svg	2	yes	53	1	1450
6.6.1	win	2022-12-22	22:42:21	22:54:57	753837	613ea8344b072de7f3ccb5dc	289182324	1	main_slash	11	advance_on_keypress_SLASH	36	stimuli_target_circlediamonds.svg	stimuli_distractor_trianglediamonds.svg	2	yes	57	0	508
6.6.1	win	2022-12-22	22:42:21	22:54:59	755500	613ea8344b072de7f3ccb5dc	289182324	1	main_slash	11	main_slash	37	stimuli_target_trianglesquares.svg	stimuli_distractor_trianglediamonds.svg	18	yes	53	1	511
6.6.1	win	2022-12-22	22:42:21	22:54:59	755500	613ea8344b072de7f3ccb5dc	289182324	1	main_slash	11	advance_on_keypress_SLASH	38	stimuli_target_trianglesquares.svg	stimuli_distractor_trianglediamonds.svg	18	yes	57	0	638
6.6.1	win	2022-12-22	22:42:21	22:55:02	758787	613ea8344b072de7f3ccb5dc	289182324	1	main_slash	11	main_slash	39	stimuli_distractor_trianglediamonds.svg	stimuli_distractor_trianglediamonds.svg	34	no	0	1	2000
6.6.1	win	2022-12-22	22:42:21	22:55:02	758787	613ea8344b072de7f3ccb5dc	289182324	1	main_slash	11	advance_on_keypress_SLASH	40	stimuli_distractor_trianglediamonds.svg	stimuli_distractor_trianglediamonds.svg	34	no	57	0	351
6.6.1	win	2022-12-22	22:42:21	22:55:04	760495	613ea8344b072de7f3ccb5dc	289182324	1	main_slash	11	main_slash	41	stimuli_target_trianglecircles.svg	stimuli_distractor_trianglediamonds.svg	17	yes	53	1	708
6.6.1	win	2022-12-22	22:42:21	22:55:04	760495	613ea8344b072de7f3ccb5dc	289182324	1	main_slash	11	advance_on_keypress_SLASH	42	stimuli_target_trianglecircles.svg	stimuli_distractor_trianglediamonds.svg	17	yes	57	0	487
6.6.1	win	2022-12-22	22:42:21	22:55:06	763238	613ea8344b072de7f3ccb5dc	289182324	1	main_slash	11	main_slash	43	stimuli_target_diamondsquares.svg	stimuli_distractor_diamondtriangles.svg	24	yes	53	1	1618
6.6.1	win	2022-12-22	22:42:21	22:55:06	763238	613ea8344b072de7f3ccb5dc	289182324	1	main_slash	11	advance_on_keypress_SLASH	44	stimuli_target_diamondsquares.svg	stimuli_distractor_diamondtriangles.svg	24	yes	57	0	430
6.6.1	win	2022-12-22	22:42:21	22:55:09	766320	613ea8344b072de7f3ccb5dc	289182324	1	main_slash	11	main_slash	45	stimuli_distractor_trianglediamonds.svg	stimuli_distractor_trianglediamonds.svg	33	no	0	1	2000
6.6.1	win	2022-12-22	22:42:21	22:55:09	766320	613ea8344b072de7f3ccb5dc	289182324	1	main_slash	11	advance_on_keypress_SLASH	46	stimuli_distractor_trianglediamonds.svg	stimuli_distractor_trianglediamonds.svg	33	no	57	0	366
6.6.1	win	2022-12-22	22:42:21	22:55:12	769336	613ea8344b072de7f3ccb5dc	289182324	1	main_slash	11	main_slash	47	stimuli_target_diamondcircles.svg	stimuli_distractor_trianglediamonds.svg	19	yes	0	0	2000
6.6.1	win	2022-12-22	22:42:21	22:55:12	769336	613ea8344b072de7f3ccb5dc	289182324	1	main_slash	11	advance_on_keypress_SLASH	48	stimuli_target_diamondcircles.svg	stimuli_distractor_trianglediamonds.svg	19	yes	57	0	342
6.6.1	win	2022-12-22	22:42:21	22:55:14	770752	613ea8344b072de7f3ccb5dc	289182324	1	main_slash	11	main_slash	49	stimuli_distractor_diamondtriangles.svg	stimuli_target_squarediamonds.svg	16	yes	53	1	432
6.6.1	win	2022-12-22	22:42:21	22:55:14	770752	613ea8344b072de7f3ccb5dc	289182324	1	main_slash	11	advance_on_keypress_SLASH	50	stimuli_distractor_diamondtriangles.svg	stimuli_target_squarediamonds.svg	16	yes	57	0	478
6.6.1	win	2022-12-22	22:42:21	22:55:17	773886	613ea8344b072de7f3ccb5dc	289182324	1	main_slash	11	main_slash	51	stimuli_target_circletriangles.svg	stimuli_distractor_trianglediamonds.svg	1	yes	0	0	2000
6.6.1	win	2022-12-22	22:42:21	22:55:17	773886	613ea8344b072de7f3ccb5dc	289182324	1	main_slash	11	advance_on_keypress_SLASH	52	stimuli_target_circletriangles.svg	stimuli_distractor_trianglediamonds.svg	1	yes	57	0	322
6.6.1	win	2022-12-22	22:42:21	22:55:20	776852	613ea8344b072de7f3ccb5dc	289182324	1	main_slash	11	main_slash	53	stimuli_distractor_diamondtriangles.svg	stimuli_distractor_diamondtriangles.svg	39	no	0	1	2000
6.6.1	win	2022-12-22	22:42:21	22:55:20	776852	613ea8344b072de7f3ccb5dc	289182324	1	main_slash	11	advance_on_keypress_SLASH	54	stimuli_distractor_diamondtriangles.svg	stimuli_distractor_diamondtriangles.svg	39	no	57	0	346
6.6.1	win	2022-12-22	22:42:21	22:55:22	778366	613ea8344b072de7f3ccb5dc	289182324	1	main_slash	11	main_slash	55	stimuli_distractor_diamondtriangles.svg	stimuli_target_squaretriangles.svg	15	yes	53	1	504
6.6.1	win	2022-12-22	22:42:21	22:55:22	778366	613ea8344b072de7f3ccb5dc	289182324	1	main_slash	11	advance_on_keypress_SLASH	56	stimuli_distractor_diamondtriangles.svg	stimuli_target_squaretriangles.svg	15	yes	57	0	472
6.6.1	win	2022-12-22	22:42:21	22:55:25	781485	613ea8344b072de7f3ccb5dc	289182324	1	main_slash	11	main_slash	57	stimuli_distractor_diamondtriangles.svg	stimuli_distractor_diamondtriangles.svg	40	no	0	1	2000
6.6.1	win	2022-12-22	22:42:21	22:55:25	781485	613ea8344b072de7f3ccb5dc	289182324	1	main_slash	11	advance_on_keypress_SLASH	58	stimuli_distractor_diamondtriangles.svg	stimuli_distractor_diamondtriangles.svg	40	no	57	0	309
6.6.1	win	2022-12-22	22:42:21	22:55:26	783285	613ea8344b072de7f3ccb5dc	289182324	1	main_slash	11	main_slash	59	stimuli_target_diamondsquares.svg	stimuli_distractor_trianglediamonds.svg	20	yes	53	1	850
6.6.1	win	2022-12-22	22:42:21	22:55:26	783285	613ea8344b072de7f3ccb5dc	289182324	1	main_slash	11	advance_on_keypress_SLASH	60	stimuli_target_diamondsquares.svg	stimuli_distractor_trianglediamonds.svg	20	yes	57	0	393
6.6.1	win	2022-12-22	22:42:21	22:55:28	784814	613ea8344b072de7f3ccb5dc	289182324	1	main_slash	11	main_slash	61	stimuli_target_squarediamonds.svg	stimuli_distractor_diamondtriangles.svg	8	yes	53	1	494
6.6.1	win	2022-12-22	22:42:21	22:55:28	784814	613ea8344b072de7f3ccb5dc	289182324	1	main_slash	11	advance_on_keypress_SLASH	62	stimuli_target_squarediamonds.svg	stimuli_distractor_diamondtriangles.svg	8	yes	57	0	405
6.6.1	win	2022-12-22	22:42:21	22:55:29	786321	613ea8344b072de7f3ccb5dc	289182324	1	main_slash	11	main_slash	63	stimuli_distractor_trianglediamonds.svg	stimuli_target_diamondcircles.svg	27	yes	53	1	453
6.6.1	win	2022-12-22	22:42:21	22:55:29	786321	613ea8344b072de7f3ccb5dc	289182324	1	main_slash	11	advance_on_keypress_SLASH	64	stimuli_distractor_trianglediamonds.svg	stimuli_target_diamondcircles.svg	27	yes	57	0	408
6.6.1	win	2022-12-22	22:42:21	22:55:31	787836	613ea8344b072de7f3ccb5dc	289182324	1	main_slash	11	main_slash	65	stimuli_distractor_trianglediamonds.svg	stimuli_target_circlediamonds.svg	10	yes	53	1	467
6.6.1	win	2022-12-22	22:42:21	22:55:31	787836	613ea8344b072de7f3ccb5dc	289182324	1	main_slash	11	advance_on_keypress_SLASH	66	stimuli_distractor_trianglediamonds.svg	stimuli_target_circlediamonds.svg	10	yes	57	0	365
6.6.1	win	2022-12-22	22:42:21	22:55:32	789270	613ea8344b072de7f3ccb5dc	289182324	1	main_slash	11	main_slash	67	stimuli_distractor_diamondtriangles.svg	stimuli_target_diamondcircles.svg	31	yes	53	1	418
6.6.1	win	2022-12-22	22:42:21	22:55:32	789270	613ea8344b072de7f3ccb5dc	289182324	1	main_slash	11	advance_on_keypress_SLASH	68	stimuli_distractor_diamondtriangles.svg	stimuli_target_diamondcircles.svg	31	yes	57	0	360
6.6.1	win	2022-12-22	22:42:21	22:55:34	790797	613ea8344b072de7f3ccb5dc	289182324	1	main_slash	11	main_slash	69	stimuli_distractor_trianglediamonds.svg	stimuli_target_trianglesquares.svg	26	yes	53	1	511
6.6.1	win	2022-12-22	22:42:21	22:55:34	790797	613ea8344b072de7f3ccb5dc	289182324	1	main_slash	11	advance_on_keypress_SLASH	70	stimuli_distractor_trianglediamonds.svg	stimuli_target_trianglesquares.svg	26	yes	57	0	345
6.6.1	win	2022-12-22	22:42:21	22:55:35	792323	613ea8344b072de7f3ccb5dc	289182324	1	main_slash	11	main_slash	71	stimuli_target_diamondcircles.svg	stimuli_distractor_diamondtriangles.svg	23	yes	53	1	523
6.6.1	win	2022-12-22	22:42:21	22:55:35	792323	613ea8344b072de7f3ccb5dc	289182324	1	main_slash	11	advance_on_keypress_SLASH	72	stimuli_target_diamondcircles.svg	stimuli_distractor_diamondtriangles.svg	23	yes	57	0	425
6.6.1	win	2022-12-22	22:42:21	22:55:37	793962	613ea8344b072de7f3ccb5dc	289182324	1	main_slash	11	main_slash	73	stimuli_target_squarediamonds.svg	stimuli_distractor_trianglediamonds.svg	4	yes	53	1	578
6.6.1	win	2022-12-22	22:42:21	22:55:37	793962	613ea8344b072de7f3ccb5dc	289182324	1	main_slash	11	advance_on_keypress_SLASH	74	stimuli_target_squarediamonds.svg	stimuli_distractor_trianglediamonds.svg	4	yes	57	0	378
6.6.1	win	2022-12-22	22:42:21	22:55:39	795521	613ea8344b072de7f3ccb5dc	289182324	1	main_slash	11	main_slash	75	stimuli_target_squaretriangles.svg	stimuli_distractor_diamondtriangles.svg	7	yes	53	1	520
6.6.1	win	2022-12-22	22:42:21	22:55:39	795521	613ea8344b072de7f3ccb5dc	289182324	1	main_slash	11	advance_on_keypress_SLASH	76	stimuli_target_squaretriangles.svg	stimuli_distractor_diamondtriangles.svg	7	yes	57	0	355
6.6.1	win	2022-12-22	22:42:21	22:55:40	796938	613ea8344b072de7f3ccb5dc	289182324	1	main_slash	11	main_slash	77	stimuli_distractor_diamondtriangles.svg	stimuli_distractor_trianglediamonds.svg	37	no	53	0	420
6.6.1	win	2022-12-22	22:42:21	22:55:40	796938	613ea8344b072de7f3ccb5dc	289182324	1	main_slash	11	advance_on_keypress_SLASH	78	stimuli_distractor_diamondtriangles.svg	stimuli_distractor_trianglediamonds.svg	37	no	57	0	499
6.6.1	win	2022-12-22	22:42:21	22:55:42	798612	613ea8344b072de7f3ccb5dc	289182324	1	main_slash	11	main_slash	79	stimuli_distractor_diamondtriangles.svg	stimuli_target_diamondsquares.svg	32	yes	53	1	528
6.6.1	win	2022-12-22	22:42:21	22:55:42	798612	613ea8344b072de7f3ccb5dc	289182324	1	main_slash	11	advance_on_keypress_SLASH	80	stimuli_distractor_diamondtriangles.svg	stimuli_target_diamondsquares.svg	32	yes	57	0	431
6.6.1	win	2022-12-22	22:42:21	22:55:43	800130	613ea8344b072de7f3ccb5dc	289182324	1	main_slash	11	main_slash	81	stimuli_distractor_diamondtriangles.svg	stimuli_target_squarediamonds.svg	16	yes	53	1	429
6.6.1	win	2022-12-22	22:42:21	22:55:43	800130	613ea8344b072de7f3ccb5dc	289182324	1	main_slash	11	advance_on_keypress_SLASH	82	stimuli_distractor_diamondtriangles.svg	stimuli_target_squarediamonds.svg	16	yes	57	0	364
6.6.1	win	2022-12-22	22:42:21	22:55:45	801704	613ea8344b072de7f3ccb5dc	289182324	1	main_slash	11	main_slash	83	stimuli_target_squaretriangles.svg	stimuli_distractor_trianglediamonds.svg	3	yes	53	1	553
6.6.1	win	2022-12-22	22:42:21	22:55:45	801704	613ea8344b072de7f3ccb5dc	289182324	1	main_slash	11	advance_on_keypress_SLASH	84	stimuli_target_squaretriangles.svg	stimuli_distractor_trianglediamonds.svg	3	yes	57	0	304
6.6.1	win	2022-12-22	22:42:21	22:55:46	803313	613ea8344b072de7f3ccb5dc	289182324	1	main_slash	11	main_slash	85	stimuli_distractor_trianglediamonds.svg	stimuli_target_diamondsquares.svg	28	yes	53	1	662
6.6.1	win	2022-12-22	22:42:21	22:55:46	803313	613ea8344b072de7f3ccb5dc	289182324	1	main_slash	11	advance_on_keypress_SLASH	86	stimuli_distractor_trianglediamonds.svg	stimuli_target_diamondsquares.svg	28	yes	57	0	254
6.6.1	win	2022-12-22	22:42:21	22:55:49	806217	613ea8344b072de7f3ccb5dc	289182324	1	main_slash	11	main_slash	87	stimuli_distractor_trianglediamonds.svg	stimuli_distractor_diamondtriangles.svg	35	no	0	1	2000
6.6.1	win	2022-12-22	22:42:21	22:55:49	806217	613ea8344b072de7f3ccb5dc	289182324	1	main_slash	11	advance_on_keypress_SLASH	88	stimuli_distractor_trianglediamonds.svg	stimuli_distractor_diamondtriangles.svg	35	no	57	0	388
6.6.1	win	2022-12-22	22:42:21	22:55:51	807665	613ea8344b072de7f3ccb5dc	289182324	1	main_slash	11	main_slash	89	stimuli_distractor_diamondtriangles.svg	stimuli_target_trianglecircles.svg	29	yes	53	1	416
6.6.1	win	2022-12-22	22:42:21	22:55:51	807665	613ea8344b072de7f3ccb5dc	289182324	1	main_slash	11	advance_on_keypress_SLASH	90	stimuli_distractor_diamondtriangles.svg	stimuli_target_trianglecircles.svg	29	yes	57	0	324
6.6.1	win	2022-12-22	22:42:21	22:55:52	809295	613ea8344b072de7f3ccb5dc	289182324	1	main_slash	11	main_slash	91	stimuli_target_circlediamonds.svg	stimuli_distractor_trianglediamonds.svg	2	yes	53	1	662
6.6.1	win	2022-12-22	22:42:21	22:55:52	809295	613ea8344b072de7f3ccb5dc	289182324	1	main_slash	11	advance_on_keypress_SLASH	92	stimuli_target_circlediamonds.svg	stimuli_distractor_trianglediamonds.svg	2	yes	57	0	345
6.6.1	win	2022-12-22	22:42:21	22:55:54	811210	613ea8344b072de7f3ccb5dc	289182324	1	main_slash	11	main_slash	93	stimuli_target_trianglesquares.svg	stimuli_distractor_trianglediamonds.svg	18	yes	53	1	910
6.6.1	win	2022-12-22	22:42:21	22:55:54	811210	613ea8344b072de7f3ccb5dc	289182324	1	main_slash	11	advance_on_keypress_SLASH	94	stimuli_target_trianglesquares.svg	stimuli_distractor_trianglediamonds.svg	18	yes	57	0	374
6.6.1	win	2022-12-22	22:42:21	22:55:56	812746	613ea8344b072de7f3ccb5dc	289182324	1	main_slash	11	main_slash	95	stimuli_distractor_diamondtriangles.svg	stimuli_target_circlediamonds.svg	14	yes	53	1	511
6.6.1	win	2022-12-22	22:42:21	22:55:56	812746	613ea8344b072de7f3ccb5dc	289182324	1	main_slash	11	advance_on_keypress_SLASH	96	stimuli_distractor_diamondtriangles.svg	stimuli_target_circlediamonds.svg	14	yes	57	0	463
6.6.1	win	2022-12-22	22:42:21	22:55:57	814252	613ea8344b072de7f3ccb5dc	289182324	1	main_slash	11	main_slash	97	stimuli_target_trianglecircles.svg	stimuli_distractor_trianglediamonds.svg	17	yes	53	1	386
6.6.1	win	2022-12-22	22:42:21	22:55:57	814252	613ea8344b072de7f3ccb5dc	289182324	1	main_slash	11	advance_on_keypress_SLASH	98	stimuli_target_trianglecircles.svg	stimuli_distractor_trianglediamonds.svg	17	yes	57	0	703
6.6.1	win	2022-12-22	22:42:21	22:56:01	817600	613ea8344b072de7f3ccb5dc	289182324	1	main_slash	11	main_slash	99	stimuli_distractor_diamondtriangles.svg	stimuli_distractor_trianglediamonds.svg	37	no	0	1	2000
6.6.1	win	2022-12-22	22:42:21	22:56:01	817600	613ea8344b072de7f3ccb5dc	289182324	1	main_slash	11	advance_on_keypress_SLASH	100	stimuli_distractor_diamondtriangles.svg	stimuli_distractor_trianglediamonds.svg	37	no	57	0	312
6.6.1	win	2022-12-22	22:42:21	22:56:04	820566	613ea8344b072de7f3ccb5dc	289182324	1	main_slash	11	main_slash	101	stimuli_distractor_trianglediamonds.svg	stimuli_distractor_trianglediamonds.svg	34	no	0	1	2000
6.6.1	win	2022-12-22	22:42:21	22:56:04	820566	613ea8344b072de7f3ccb5dc	289182324	1	main_slash	11	advance_on_keypress_SLASH	102	stimuli_distractor_trianglediamonds.svg	stimuli_distractor_trianglediamonds.svg	34	no	57	0	310
6.6.1	win	2022-12-22	22:42:21	22:56:05	822045	613ea8344b072de7f3ccb5dc	289182324	1	main_slash	11	main_slash	103	stimuli_target_squarediamonds.svg	stimuli_distractor_diamondtriangles.svg	8	yes	53	1	514
6.6.1	win	2022-12-22	22:42:21	22:56:05	822045	613ea8344b072de7f3ccb5dc	289182324	1	main_slash	11	advance_on_keypress_SLASH	104	stimuli_target_squarediamonds.svg	stimuli_distractor_diamondtriangles.svg	8	yes	57	0	391
6.6.1	win	2022-12-22	22:42:21	22:56:07	823629	613ea8344b072de7f3ccb5dc	289182324	1	main_slash	11	main_slash	105	stimuli_target_circletriangles.svg	stimuli_distractor_trianglediamonds.svg	1	yes	53	1	547
6.6.1	win	2022-12-22	22:42:21	22:56:07	823629	613ea8344b072de7f3ccb5dc	289182324	1	main_slash	11	advance_on_keypress_SLASH	106	stimuli_target_circletriangles.svg	stimuli_distractor_trianglediamonds.svg	1	yes	57	0	359
6.6.1	win	2022-12-22	22:42:21	22:56:10	826632	613ea8344b072de7f3ccb5dc	289182324	1	main_slash	11	main_slash	107	stimuli_distractor_trianglediamonds.svg	stimuli_distractor_trianglediamonds.svg	33	no	0	1	2000
6.6.1	win	2022-12-22	22:42:21	22:56:10	826632	613ea8344b072de7f3ccb5dc	289182324	1	main_slash	11	advance_on_keypress_SLASH	108	stimuli_distractor_trianglediamonds.svg	stimuli_distractor_trianglediamonds.svg	33	no	57	0	319
6.6.1	win	2022-12-22	22:42:21	22:56:11	827978	613ea8344b072de7f3ccb5dc	289182324	1	main_slash	11	main_slash	109	stimuli_distractor_trianglediamonds.svg	stimuli_target_diamondcircles.svg	27	yes	53	1	375
6.6.1	win	2022-12-22	22:42:21	22:56:11	827978	613ea8344b072de7f3ccb5dc	289182324	1	main_slash	11	advance_on_keypress_SLASH	110	stimuli_distractor_trianglediamonds.svg	stimuli_target_diamondcircles.svg	27	yes	57	0	452
6.6.1	win	2022-12-22	22:42:21	22:56:13	829700	613ea8344b072de7f3ccb5dc	289182324	1	main_slash	11	main_slash	111	stimuli_target_squarediamonds.svg	stimuli_distractor_trianglediamonds.svg	4	yes	53	1	618
6.6.1	win	2022-12-22	22:42:21	22:56:13	829700	613ea8344b072de7f3ccb5dc	289182324	1	main_slash	11	advance_on_keypress_SLASH	112	stimuli_target_squarediamonds.svg	stimuli_distractor_trianglediamonds.svg	4	yes	57	0	320
6.6.1	win	2022-12-22	22:42:21	22:56:14	831144	613ea8344b072de7f3ccb5dc	289182324	1	main_slash	11	main_slash	113	stimuli_target_trianglesquares.svg	stimuli_distractor_diamondtriangles.svg	22	yes	53	1	478
6.6.1	win	2022-12-22	22:42:21	22:56:14	831144	613ea8344b072de7f3ccb5dc	289182324	1	main_slash	11	advance_on_keypress_SLASH	114	stimuli_target_trianglesquares.svg	stimuli_distractor_diamondtriangles.svg	22	yes	57	0	356
6.6.1	win	2022-12-22	22:42:21	22:56:16	832577	613ea8344b072de7f3ccb5dc	289182324	1	main_slash	11	main_slash	115	stimuli_target_diamondcircles.svg	stimuli_distractor_trianglediamonds.svg	19	yes	53	1	429
6.6.1	win	2022-12-22	22:42:21	22:56:16	832577	613ea8344b072de7f3ccb5dc	289182324	1	main_slash	11	advance_on_keypress_SLASH	116	stimuli_target_diamondcircles.svg	stimuli_distractor_trianglediamonds.svg	19	yes	57	0	333
6.6.1	win	2022-12-22	22:42:21	22:56:17	833969	613ea8344b072de7f3ccb5dc	289182324	1	main_slash	11	main_slash	117	stimuli_target_diamondcircles.svg	stimuli_distractor_diamondtriangles.svg	23	yes	53	1	404
6.6.1	win	2022-12-22	22:42:21	22:56:17	833969	613ea8344b072de7f3ccb5dc	289182324	1	main_slash	11	advance_on_keypress_SLASH	118	stimuli_target_diamondcircles.svg	stimuli_distractor_diamondtriangles.svg	23	yes	57	0	422
6.6.1	win	2022-12-22	22:42:21	22:56:20	837031	613ea8344b072de7f3ccb5dc	289182324	1	main_slash	11	main_slash	119	stimuli_distractor_diamondtriangles.svg	stimuli_distractor_trianglediamonds.svg	38	no	0	1	2000
6.6.1	win	2022-12-22	22:42:21	22:56:20	837031	613ea8344b072de7f3ccb5dc	289182324	1	main_slash	11	advance_on_keypress_SLASH	120	stimuli_distractor_diamondtriangles.svg	stimuli_distractor_trianglediamonds.svg	38	no	57	0	292
6.6.1	win	2022-12-22	22:42:21	22:56:22	838390	613ea8344b072de7f3ccb5dc	289182324	1	main_slash	11	main_slash	121	stimuli_distractor_trianglediamonds.svg	stimuli_target_trianglesquares.svg	26	yes	53	1	425
6.6.1	win	2022-12-22	22:42:21	22:56:22	838390	613ea8344b072de7f3ccb5dc	289182324	1	main_slash	11	advance_on_keypress_SLASH	122	stimuli_distractor_trianglediamonds.svg	stimuli_target_trianglesquares.svg	26	yes	57	0	378
6.6.1	win	2022-12-22	22:42:21	22:56:23	840060	613ea8344b072de7f3ccb5dc	289182324	1	main_slash	11	main_slash	123	stimuli_distractor_diamondtriangles.svg	stimuli_target_diamondsquares.svg	32	yes	53	1	646
6.6.1	win	2022-12-22	22:42:21	22:56:23	840060	613ea8344b072de7f3ccb5dc	289182324	1	main_slash	11	advance_on_keypress_SLASH	124	stimuli_distractor_diamondtriangles.svg	stimuli_target_diamondsquares.svg	32	yes	57	0	288
6.6.1	win	2022-12-22	22:42:21	22:56:26	842997	613ea8344b072de7f3ccb5dc	289182324	1	main_slash	11	main_slash	125	stimuli_distractor_diamondtriangles.svg	stimuli_distractor_diamondtriangles.svg	40	no	0	1	2000
6.6.1	win	2022-12-22	22:42:21	22:56:26	842997	613ea8344b072de7f3ccb5dc	289182324	1	main_slash	11	advance_on_keypress_SLASH	126	stimuli_distractor_diamondtriangles.svg	stimuli_distractor_diamondtriangles.svg	40	no	57	0	335
6.6.1	win	2022-12-22	22:42:21	22:56:28	844395	613ea8344b072de7f3ccb5dc	289182324	1	main_slash	11	main_slash	127	stimuli_distractor_trianglediamonds.svg	stimuli_target_circlediamonds.svg	10	yes	53	1	414
6.6.1	win	2022-12-22	22:42:21	22:56:28	844395	613ea8344b072de7f3ccb5dc	289182324	1	main_slash	11	advance_on_keypress_SLASH	128	stimuli_distractor_trianglediamonds.svg	stimuli_target_circlediamonds.svg	10	yes	57	0	362
6.6.1	win	2022-12-22	22:42:21	22:56:29	845888	613ea8344b072de7f3ccb5dc	289182324	1	main_slash	11	main_slash	129	stimuli_distractor_trianglediamonds.svg	stimuli_target_squaretriangles.svg	11	yes	53	1	474
6.6.1	win	2022-12-22	22:42:21	22:56:29	845888	613ea8344b072de7f3ccb5dc	289182324	1	main_slash	11	advance_on_keypress_SLASH	130	stimuli_distractor_trianglediamonds.svg	stimuli_target_squaretriangles.svg	11	yes	57	0	382
6.6.1	win	2022-12-22	22:42:21	22:56:31	847445	613ea8344b072de7f3ccb5dc	289182324	1	main_slash	11	main_slash	131	stimuli_target_circlediamonds.svg	stimuli_distractor_diamondtriangles.svg	6	yes	53	1	530
6.6.1	win	2022-12-22	22:42:21	22:56:31	847445	613ea8344b072de7f3ccb5dc	289182324	1	main_slash	11	advance_on_keypress_SLASH	132	stimuli_target_circlediamonds.svg	stimuli_distractor_diamondtriangles.svg	6	yes	57	0	378
6.6.1	win	2022-12-22	22:42:21	22:56:32	848920	613ea8344b072de7f3ccb5dc	289182324	1	main_slash	11	main_slash	133	stimuli_distractor_diamondtriangles.svg	stimuli_target_trianglesquares.svg	30	yes	53	1	440
6.6.1	win	2022-12-22	22:42:21	22:56:32	848920	613ea8344b072de7f3ccb5dc	289182324	1	main_slash	11	advance_on_keypress_SLASH	134	stimuli_distractor_diamondtriangles.svg	stimuli_target_trianglesquares.svg	30	yes	57	0	387
6.6.1	win	2022-12-22	22:42:21	22:56:34	850466	613ea8344b072de7f3ccb5dc	289182324	1	main_slash	11	main_slash	135	stimuli_distractor_diamondtriangles.svg	stimuli_target_squaretriangles.svg	15	yes	53	1	517
6.6.1	win	2022-12-22	22:42:21	22:56:34	850466	613ea8344b072de7f3ccb5dc	289182324	1	main_slash	11	advance_on_keypress_SLASH	136	stimuli_distractor_diamondtriangles.svg	stimuli_target_squaretriangles.svg	15	yes	57	0	370
6.6.1	win	2022-12-22	22:42:21	22:56:35	852106	613ea8344b072de7f3ccb5dc	289182324	1	main_slash	11	main_slash	137	stimuli_distractor_diamondtriangles.svg	stimuli_target_circletriangles.svg	13	yes	53	1	626
6.6.1	win	2022-12-22	22:42:21	22:56:35	852106	613ea8344b072de7f3ccb5dc	289182324	1	main_slash	11	advance_on_keypress_SLASH	138	stimuli_distractor_diamondtriangles.svg	stimuli_target_circletriangles.svg	13	yes	57	0	359
6.6.1	win	2022-12-22	22:42:21	22:56:37	853963	613ea8344b072de7f3ccb5dc	289182324	1	main_slash	11	main_slash	139	stimuli_target_diamondsquares.svg	stimuli_distractor_diamondtriangles.svg	24	yes	53	1	866
6.6.1	win	2022-12-22	22:42:21	22:56:37	853963	613ea8344b072de7f3ccb5dc	289182324	1	main_slash	11	advance_on_keypress_SLASH	140	stimuli_target_diamondsquares.svg	stimuli_distractor_diamondtriangles.svg	24	yes	57	0	330
6.6.1	win	2022-12-22	22:42:21	22:56:39	855885	613ea8344b072de7f3ccb5dc	289182324	1	main_slash	11	main_slash	141	stimuli_target_circletriangles.svg	stimuli_distractor_diamondtriangles.svg	5	yes	53	1	938
6.6.1	win	2022-12-22	22:42:21	22:56:39	855885	613ea8344b072de7f3ccb5dc	289182324	1	main_slash	11	advance_on_keypress_SLASH	142	stimuli_target_circletriangles.svg	stimuli_distractor_diamondtriangles.svg	5	yes	57	0	338
6.6.1	win	2022-12-22	22:42:21	22:56:40	857273	613ea8344b072de7f3ccb5dc	289182324	1	main_slash	11	main_slash	143	stimuli_distractor_trianglediamonds.svg	stimuli_target_circletriangles.svg	9	yes	53	1	410
6.6.1	win	2022-12-22	22:42:21	22:56:40	857273	613ea8344b072de7f3ccb5dc	289182324	1	main_slash	11	advance_on_keypress_SLASH	144	stimuli_distractor_trianglediamonds.svg	stimuli_target_circletriangles.svg	9	yes	57	0	396
6.6.1	win	2022-12-22	22:42:21	22:56:43	860313	613ea8344b072de7f3ccb5dc	289182324	1	main_slash	11	main_slash	145	stimuli_distractor_diamondtriangles.svg	stimuli_distractor_diamondtriangles.svg	39	no	0	1	2000
6.6.1	win	2022-12-22	22:42:21	22:56:43	860313	613ea8344b072de7f3ccb5dc	289182324	1	main_slash	11	advance_on_keypress_SLASH	146	stimuli_distractor_diamondtriangles.svg	stimuli_distractor_diamondtriangles.svg	39	no	57	0	334
6.6.1	win	2022-12-22	22:42:21	22:56:46	862572	613ea8344b072de7f3ccb5dc	289182324	1	main_slash	11	main_slash	147	stimuli_target_diamondsquares.svg	stimuli_distractor_trianglediamonds.svg	20	yes	53	1	1276
6.6.1	win	2022-12-22	22:42:21	22:56:46	862572	613ea8344b072de7f3ccb5dc	289182324	1	main_slash	11	advance_on_keypress_SLASH	148	stimuli_target_diamondsquares.svg	stimuli_distractor_trianglediamonds.svg	20	yes	57	0	493
6.6.1	win	2022-12-22	22:42:21	22:56:49	865696	613ea8344b072de7f3ccb5dc	289182324	1	main_slash	11	main_slash	149	stimuli_distractor_trianglediamonds.svg	stimuli_distractor_diamondtriangles.svg	36	no	0	1	2000
6.6.1	win	2022-12-22	22:42:21	22:56:49	865696	613ea8344b072de7f3ccb5dc	289182324	1	main_slash	11	advance_on_keypress_SLASH	150	stimuli_distractor_trianglediamonds.svg	stimuli_distractor_diamondtriangles.svg	36	no	57	0	320
6.6.1	win	2022-12-22	22:42:21	22:56:50	867217	613ea8344b072de7f3ccb5dc	289182324	1	main_slash	11	main_slash	151	stimuli_distractor_diamondtriangles.svg	stimuli_target_diamondcircles.svg	31	yes	53	1	555
6.6.1	win	2022-12-22	22:42:21	22:56:50	867217	613ea8344b072de7f3ccb5dc	289182324	1	main_slash	11	advance_on_keypress_SLASH	152	stimuli_distractor_diamondtriangles.svg	stimuli_target_diamondcircles.svg	31	yes	57	0	312
6.6.1	win	2022-12-22	22:42:21	22:56:52	868671	613ea8344b072de7f3ccb5dc	289182324	1	main_slash	11	main_slash	153	stimuli_target_squaretriangles.svg	stimuli_distractor_diamondtriangles.svg	7	yes	53	1	492
6.6.1	win	2022-12-22	22:42:21	22:56:52	868671	613ea8344b072de7f3ccb5dc	289182324	1	main_slash	11	advance_on_keypress_SLASH	154	stimuli_target_squaretriangles.svg	stimuli_distractor_diamondtriangles.svg	7	yes	57	0	338
6.6.1	win	2022-12-22	22:42:21	22:56:55	871645	613ea8344b072de7f3ccb5dc	289182324	1	main_slash	11	main_slash	155	stimuli_distractor_trianglediamonds.svg	stimuli_target_squarediamonds.svg	12	yes	0	0	2000
6.6.1	win	2022-12-22	22:42:21	22:56:55	871645	613ea8344b072de7f3ccb5dc	289182324	1	main_slash	11	advance_on_keypress_SLASH	156	stimuli_distractor_trianglediamonds.svg	stimuli_target_squarediamonds.svg	12	yes	57	0	379
6.6.1	win	2022-12-22	22:42:21	22:56:56	873177	613ea8344b072de7f3ccb5dc	289182324	1	main_slash	11	main_slash	157	stimuli_distractor_trianglediamonds.svg	stimuli_target_trianglecircles.svg	25	yes	53	1	499
6.6.1	win	2022-12-22	22:42:21	22:56:56	873177	613ea8344b072de7f3ccb5dc	289182324	1	main_slash	11	advance_on_keypress_SLASH	158	stimuli_distractor_trianglediamonds.svg	stimuli_target_trianglecircles.svg	25	yes	57	0	208
6.6.1	win	2022-12-22	22:42:21	22:56:58	874527	613ea8344b072de7f3ccb5dc	289182324	1	main_slash	11	main_slash	159	stimuli_target_trianglecircles.svg	stimuli_distractor_diamondtriangles.svg	21	yes	53	1	499
6.6.1	win	2022-12-22	22:42:21	22:56:58	874527	613ea8344b072de7f3ccb5dc	289182324	1	main_slash	11	advance_on_keypress_SLASH	160	stimuli_target_trianglecircles.svg	stimuli_distractor_diamondtriangles.svg	21	yes	57	0	293