build	computer.platform	date	time	timestamp	time_elapsed_ms	subject	group	session	blockcode	blocknum	trialcode	trialnum	stimulus_left	stimulus_right	stim_index	target_present	response	correct	latency
6.6.1	win	2022-12-14	12:35:44	12:38:33	168158	5a78dbb9ae9a0b0001a97212	213184778	1	practice_z	5	practice_z	1	stimuli_distractor_trianglediamonds.svg	stimuli_target_diamondcircles.svg	12	yes	0	0	2000
6.6.1	win	2022-12-14	12:35:44	12:38:33	168158	5a78dbb9ae9a0b0001a97212	213184778	1	practice_z	5	advance_on_keypress_ZEE	2	stimuli_distractor_trianglediamonds.svg	stimuli_target_diamondcircles.svg	12	yes	57	0	818
6.6.1	win	2022-12-14	12:35:44	12:38:38	172626	5a78dbb9ae9a0b0001a97212	213184778	1	practice_z	5	practice_z	3	stimuli_distractor_trianglediamonds.svg	stimuli_distractor_diamondtriangles.svg	16	no	0	1	2000
6.6.1	win	2022-12-14	12:35:44	12:38:38	172626	5a78dbb9ae9a0b0001a97212	213184778	1	practice_z	5	advance_on_keypress_ZEE	4	stimuli_distractor_trianglediamonds.svg	stimuli_distractor_diamondtriangles.svg	16	no	57	0	2096
6.6.1	win	2022-12-14	12:35:44	12:38:44	178359	5a78dbb9ae9a0b0001a97212	213184778	1	practice_z	5	practice_z	5	stimuli_distractor_trianglediamonds.svg	stimuli_distractor_trianglediamonds.svg	15	no	0	1	2000
6.6.1	win	2022-12-14	12:35:44	12:38:44	178359	5a78dbb9ae9a0b0001a97212	213184778	1	practice_z	5	advance_on_keypress_ZEE	6	stimuli_distractor_trianglediamonds.svg	stimuli_distractor_trianglediamonds.svg	15	no	57	0	603
6.6.1	win	2022-12-14	12:35:44	12:38:47	181369	5a78dbb9ae9a0b0001a97212	213184778	1	practice_z	5	practice_z	7	stimuli_distractor_trianglediamonds.svg	stimuli_target_circlediamonds.svg	10	yes	44	1	761
6.6.1	win	2022-12-14	12:35:44	12:38:47	181369	5a78dbb9ae9a0b0001a97212	213184778	1	practice_z	5	advance_on_keypress_ZEE	8	stimuli_distractor_trianglediamonds.svg	stimuli_target_circlediamonds.svg	10	yes	57	0	755
6.6.1	win	2022-12-14	12:35:44	12:38:51	185760	5a78dbb9ae9a0b0001a97212	213184778	1	practice_z	5	practice_z	9	stimuli_distractor_diamondtriangles.svg	stimuli_distractor_diamondtriangles.svg	13	no	0	1	2000
6.6.1	win	2022-12-14	12:35:44	12:38:51	185760	5a78dbb9ae9a0b0001a97212	213184778	1	practice_z	5	advance_on_keypress_ZEE	10	stimuli_distractor_diamondtriangles.svg	stimuli_distractor_diamondtriangles.svg	13	no	57	0	987
6.6.1	win	2022-12-14	12:35:44	12:38:54	189227	5a78dbb9ae9a0b0001a97212	213184778	1	practice_z	5	practice_z	11	stimuli_distractor_diamondtriangles.svg	stimuli_target_diamondcircles.svg	8	yes	44	1	834
6.6.1	win	2022-12-14	12:35:44	12:38:54	189227	5a78dbb9ae9a0b0001a97212	213184778	1	practice_z	5	advance_on_keypress_ZEE	12	stimuli_distractor_diamondtriangles.svg	stimuli_target_diamondcircles.svg	8	yes	57	0	1232
6.6.1	win	2022-12-14	12:35:44	12:38:58	193012	5a78dbb9ae9a0b0001a97212	213184778	1	practice_z	5	practice_z	13	stimuli_distractor_diamondtriangles.svg	stimuli_target_trianglecircles.svg	9	yes	44	1	902
6.6.1	win	2022-12-14	12:35:44	12:38:58	193012	5a78dbb9ae9a0b0001a97212	213184778	1	practice_z	5	advance_on_keypress_ZEE	14	stimuli_distractor_diamondtriangles.svg	stimuli_target_trianglecircles.svg	9	yes	57	0	913
6.6.1	win	2022-12-14	12:35:44	12:39:03	197575	5a78dbb9ae9a0b0001a97212	213184778	1	practice_z	5	practice_z	15	stimuli_target_circlediamonds.svg	stimuli_distractor_trianglediamonds.svg	4	yes	0	0	2000
6.6.1	win	2022-12-14	12:35:44	12:39:03	197575	5a78dbb9ae9a0b0001a97212	213184778	1	practice_z	5	advance_on_keypress_ZEE	16	stimuli_target_circlediamonds.svg	stimuli_distractor_trianglediamonds.svg	4	yes	57	0	547
6.6.1	win	2022-12-14	12:35:44	12:39:06	201273	5a78dbb9ae9a0b0001a97212	213184778	1	practice_z	5	practice_z	17	stimuli_target_diamondsquares.svg	stimuli_distractor_diamondtriangles.svg	3	yes	44	1	1499
6.6.1	win	2022-12-14	12:35:44	12:39:06	201273	5a78dbb9ae9a0b0001a97212	213184778	1	practice_z	5	advance_on_keypress_ZEE	18	stimuli_target_diamondsquares.svg	stimuli_distractor_diamondtriangles.svg	3	yes	57	0	775
6.6.1	win	2022-12-14	12:35:44	12:39:10	205146	5a78dbb9ae9a0b0001a97212	213184778	1	practice_z	5	practice_z	19	stimuli_distractor_trianglediamonds.svg	stimuli_target_squarediamonds.svg	11	yes	44	1	1454
6.6.1	win	2022-12-14	12:35:44	12:39:10	205146	5a78dbb9ae9a0b0001a97212	213184778	1	practice_z	5	advance_on_keypress_ZEE	20	stimuli_distractor_trianglediamonds.svg	stimuli_target_squarediamonds.svg	11	yes	57	0	363
6.6.1	win	2022-12-14	12:35:44	12:39:13	208113	5a78dbb9ae9a0b0001a97212	213184778	1	practice_z	5	practice_z	21	stimuli_target_circlediamonds.svg	stimuli_distractor_diamondtriangles.svg	1	yes	44	1	956
6.6.1	win	2022-12-14	12:35:44	12:39:13	208113	5a78dbb9ae9a0b0001a97212	213184778	1	practice_z	5	advance_on_keypress_ZEE	22	stimuli_target_circlediamonds.svg	stimuli_distractor_diamondtriangles.svg	1	yes	57	0	302
6.6.1	win	2022-12-14	12:35:44	12:39:16	210889	5a78dbb9ae9a0b0001a97212	213184778	1	practice_z	5	practice_z	23	stimuli_distractor_diamondtriangles.svg	stimuli_target_circletriangles.svg	7	yes	44	1	831
6.6.1	win	2022-12-14	12:35:44	12:39:16	210889	5a78dbb9ae9a0b0001a97212	213184778	1	practice_z	5	advance_on_keypress_ZEE	24	stimuli_distractor_diamondtriangles.svg	stimuli_target_circletriangles.svg	7	yes	57	0	349
6.6.1	win	2022-12-14	12:35:44	12:39:19	213745	5a78dbb9ae9a0b0001a97212	213184778	1	practice_z	5	practice_z	25	stimuli_target_squarediamonds.svg	stimuli_distractor_diamondtriangles.svg	2	yes	44	1	854
6.6.1	win	2022-12-14	12:35:44	12:39:19	213745	5a78dbb9ae9a0b0001a97212	213184778	1	practice_z	5	advance_on_keypress_ZEE	26	stimuli_target_squarediamonds.svg	stimuli_distractor_diamondtriangles.svg	2	yes	57	0	572
6.6.1	win	2022-12-14	12:35:44	12:39:22	216737	5a78dbb9ae9a0b0001a97212	213184778	1	practice_z	5	practice_z	27	stimuli_target_squarediamonds.svg	stimuli_distractor_trianglediamonds.svg	5	yes	44	1	779
6.6.1	win	2022-12-14	12:35:44	12:39:22	216737	5a78dbb9ae9a0b0001a97212	213184778	1	practice_z	5	advance_on_keypress_ZEE	28	stimuli_target_squarediamonds.svg	stimuli_distractor_trianglediamonds.svg	5	yes	57	0	660
6.6.1	win	2022-12-14	12:35:44	12:39:26	221042	5a78dbb9ae9a0b0001a97212	213184778	1	practice_z	5	practice_z	29	stimuli_distractor_diamondtriangles.svg	stimuli_distractor_trianglediamonds.svg	14	no	0	1	2000
6.6.1	win	2022-12-14	12:35:44	12:39:26	221042	5a78dbb9ae9a0b0001a97212	213184778	1	practice_z	5	advance_on_keypress_ZEE	30	stimuli_distractor_diamondtriangles.svg	stimuli_distractor_trianglediamonds.svg	14	no	57	0	392
6.6.1	win	2022-12-14	12:35:44	12:39:30	225077	5a78dbb9ae9a0b0001a97212	213184778	1	practice_z	5	practice_z	31	stimuli_target_diamondsquares.svg	stimuli_distractor_trianglediamonds.svg	6	yes	0	0	2000
6.6.1	win	2022-12-14	12:35:44	12:39:30	225077	5a78dbb9ae9a0b0001a97212	213184778	1	practice_z	5	advance_on_keypress_ZEE	32	stimuli_target_diamondsquares.svg	stimuli_distractor_trianglediamonds.svg	6	yes	57	0	286
6.6.1	win	2022-12-14	12:35:44	12:39:35	229758	5a78dbb9ae9a0b0001a97212	213184778	1	main_z	7	main_z	1	stimuli_distractor_diamondtriangles.svg	stimuli_target_circlediamonds.svg	14	yes	44	1	621
6.6.1	win	2022-12-14	12:35:44	12:39:35	229758	5a78dbb9ae9a0b0001a97212	213184778	1	main_z	7	advance_on_keypress_ZEE	2	stimuli_distractor_diamondtriangles.svg	stimuli_target_circlediamonds.svg	14	yes	57	0	723
6.6.1	win	2022-12-14	12:35:44	12:39:37	231839	5a78dbb9ae9a0b0001a97212	213184778	1	main_z	7	main_z	3	stimuli_distractor_trianglediamonds.svg	stimuli_target_circlediamonds.svg	10	yes	44	1	717
6.6.1	win	2022-12-14	12:35:44	12:39:37	231839	5a78dbb9ae9a0b0001a97212	213184778	1	main_z	7	advance_on_keypress_ZEE	4	stimuli_distractor_trianglediamonds.svg	stimuli_target_circlediamonds.svg	10	yes	57	0	848
6.6.1	win	2022-12-14	12:35:44	12:39:40	234694	5a78dbb9ae9a0b0001a97212	213184778	1	main_z	7	main_z	5	stimuli_target_trianglecircles.svg	stimuli_distractor_trianglediamonds.svg	17	yes	44	1	1357
6.6.1	win	2022-12-14	12:35:44	12:39:40	234694	5a78dbb9ae9a0b0001a97212	213184778	1	main_z	7	advance_on_keypress_ZEE	6	stimuli_target_trianglecircles.svg	stimuli_distractor_trianglediamonds.svg	17	yes	57	0	574
6.6.1	win	2022-12-14	12:35:44	12:39:43	237904	5a78dbb9ae9a0b0001a97212	213184778	1	main_z	7	main_z	7	stimuli_distractor_diamondtriangles.svg	stimuli_target_squaretriangles.svg	15	yes	0	0	2000
6.6.1	win	2022-12-14	12:35:44	12:39:43	237904	5a78dbb9ae9a0b0001a97212	213184778	1	main_z	7	advance_on_keypress_ZEE	8	stimuli_distractor_diamondtriangles.svg	stimuli_target_squaretriangles.svg	15	yes	57	0	502
6.6.1	win	2022-12-14	12:35:44	12:39:45	239823	5a78dbb9ae9a0b0001a97212	213184778	1	main_z	7	main_z	9	stimuli_distractor_diamondtriangles.svg	stimuli_target_squarediamonds.svg	16	yes	44	1	768
6.6.1	win	2022-12-14	12:35:44	12:39:45	239823	5a78dbb9ae9a0b0001a97212	213184778	1	main_z	7	advance_on_keypress_ZEE	10	stimuli_distractor_diamondtriangles.svg	stimuli_target_squarediamonds.svg	16	yes	57	0	521
6.6.1	win	2022-12-14	12:35:44	12:39:48	242987	5a78dbb9ae9a0b0001a97212	213184778	1	main_z	7	main_z	11	stimuli_distractor_diamondtriangles.svg	stimuli_distractor_diamondtriangles.svg	39	no	0	1	2000
6.6.1	win	2022-12-14	12:35:44	12:39:48	242987	5a78dbb9ae9a0b0001a97212	213184778	1	main_z	7	advance_on_keypress_ZEE	12	stimuli_distractor_diamondtriangles.svg	stimuli_distractor_diamondtriangles.svg	39	no	57	0	1114
6.6.1	win	2022-12-14	12:35:44	12:39:51	245678	5a78dbb9ae9a0b0001a97212	213184778	1	main_z	7	main_z	13	stimuli_distractor_diamondtriangles.svg	stimuli_target_diamondsquares.svg	32	yes	44	1	941
6.6.1	win	2022-12-14	12:35:44	12:39:51	245678	5a78dbb9ae9a0b0001a97212	213184778	1	main_z	7	advance_on_keypress_ZEE	14	stimuli_distractor_diamondtriangles.svg	stimuli_target_diamondsquares.svg	32	yes	57	0	879
6.6.1	win	2022-12-14	12:35:44	12:39:53	248210	5a78dbb9ae9a0b0001a97212	213184778	1	main_z	7	main_z	15	stimuli_target_circlediamonds.svg	stimuli_distractor_trianglediamonds.svg	2	yes	44	1	987
6.6.1	win	2022-12-14	12:35:44	12:39:53	248210	5a78dbb9ae9a0b0001a97212	213184778	1	main_z	7	advance_on_keypress_ZEE	16	stimuli_target_circlediamonds.svg	stimuli_distractor_trianglediamonds.svg	2	yes	57	0	682
6.6.1	win	2022-12-14	12:35:44	12:39:56	250430	5a78dbb9ae9a0b0001a97212	213184778	1	main_z	7	main_z	17	stimuli_target_circletriangles.svg	stimuli_distractor_diamondtriangles.svg	5	yes	44	1	893
6.6.1	win	2022-12-14	12:35:44	12:39:56	250430	5a78dbb9ae9a0b0001a97212	213184778	1	main_z	7	advance_on_keypress_ZEE	18	stimuli_target_circletriangles.svg	stimuli_distractor_diamondtriangles.svg	5	yes	57	0	521
6.6.1	win	2022-12-14	12:35:44	12:39:59	253587	5a78dbb9ae9a0b0001a97212	213184778	1	main_z	7	main_z	19	stimuli_distractor_trianglediamonds.svg	stimuli_distractor_trianglediamonds.svg	33	no	0	1	2000
6.6.1	win	2022-12-14	12:35:44	12:39:59	253587	5a78dbb9ae9a0b0001a97212	213184778	1	main_z	7	advance_on_keypress_ZEE	20	stimuli_distractor_trianglediamonds.svg	stimuli_distractor_trianglediamonds.svg	33	no	57	0	291
6.6.1	win	2022-12-14	12:35:44	12:40:01	255471	5a78dbb9ae9a0b0001a97212	213184778	1	main_z	7	main_z	21	stimuli_target_trianglesquares.svg	stimuli_distractor_diamondtriangles.svg	22	yes	44	1	950
6.6.1	win	2022-12-14	12:35:44	12:40:01	255471	5a78dbb9ae9a0b0001a97212	213184778	1	main_z	7	advance_on_keypress_ZEE	22	stimuli_target_trianglesquares.svg	stimuli_distractor_diamondtriangles.svg	22	yes	57	0	583
6.6.1	win	2022-12-14	12:35:44	12:40:04	258390	5a78dbb9ae9a0b0001a97212	213184778	1	main_z	7	main_z	23	stimuli_target_diamondsquares.svg	stimuli_distractor_trianglediamonds.svg	20	yes	44	1	1687
6.6.1	win	2022-12-14	12:35:44	12:40:04	258390	5a78dbb9ae9a0b0001a97212	213184778	1	main_z	7	advance_on_keypress_ZEE	24	stimuli_target_diamondsquares.svg	stimuli_distractor_trianglediamonds.svg	20	yes	57	0	467
6.6.1	win	2022-12-14	12:35:44	12:40:07	261504	5a78dbb9ae9a0b0001a97212	213184778	1	main_z	7	main_z	25	stimuli_target_diamondsquares.svg	stimuli_distractor_diamondtriangles.svg	24	yes	0	0	2000
6.6.1	win	2022-12-14	12:35:44	12:40:07	261504	5a78dbb9ae9a0b0001a97212	213184778	1	main_z	7	advance_on_keypress_ZEE	26	stimuli_target_diamondsquares.svg	stimuli_distractor_diamondtriangles.svg	24	yes	57	0	278
6.6.1	win	2022-12-14	12:35:44	12:40:08	263158	5a78dbb9ae9a0b0001a97212	213184778	1	main_z	7	main_z	27	stimuli_distractor_diamondtriangles.svg	stimuli_target_trianglecircles.svg	29	yes	44	1	738
6.6.1	win	2022-12-14	12:35:44	12:40:08	263158	5a78dbb9ae9a0b0001a97212	213184778	1	main_z	7	advance_on_keypress_ZEE	28	stimuli_distractor_diamondtriangles.svg	stimuli_target_trianglecircles.svg	29	yes	57	0	388
6.6.1	win	2022-12-14	12:35:44	12:40:10	265006	5a78dbb9ae9a0b0001a97212	213184778	1	main_z	7	main_z	29	stimuli_target_diamondcircles.svg	stimuli_distractor_diamondtriangles.svg	23	yes	44	1	820
6.6.1	win	2022-12-14	12:35:44	12:40:10	265006	5a78dbb9ae9a0b0001a97212	213184778	1	main_z	7	advance_on_keypress_ZEE	30	stimuli_target_diamondcircles.svg	stimuli_distractor_diamondtriangles.svg	23	yes	57	0	314
6.6.1	win	2022-12-14	12:35:44	12:40:13	267954	5a78dbb9ae9a0b0001a97212	213184778	1	main_z	7	main_z	31	stimuli_distractor_diamondtriangles.svg	stimuli_distractor_trianglediamonds.svg	38	no	0	1	2000
6.6.1	win	2022-12-14	12:35:44	12:40:13	267954	5a78dbb9ae9a0b0001a97212	213184778	1	main_z	7	advance_on_keypress_ZEE	32	stimuli_distractor_diamondtriangles.svg	stimuli_distractor_trianglediamonds.svg	38	no	57	0	468
6.6.1	win	2022-12-14	12:35:44	12:40:15	269902	5a78dbb9ae9a0b0001a97212	213184778	1	main_z	7	main_z	33	stimuli_target_circletriangles.svg	stimuli_distractor_trianglediamonds.svg	1	yes	44	1	832
6.6.1	win	2022-12-14	12:35:44	12:40:15	269902	5a78dbb9ae9a0b0001a97212	213184778	1	main_z	7	advance_on_keypress_ZEE	34	stimuli_target_circletriangles.svg	stimuli_distractor_trianglediamonds.svg	1	yes	57	0	430
6.6.1	win	2022-12-14	12:35:44	12:40:18	272438	5a78dbb9ae9a0b0001a97212	213184778	1	main_z	7	main_z	35	stimuli_target_trianglesquares.svg	stimuli_distractor_trianglediamonds.svg	18	yes	44	1	1468
6.6.1	win	2022-12-14	12:35:44	12:40:18	272438	5a78dbb9ae9a0b0001a97212	213184778	1	main_z	7	advance_on_keypress_ZEE	36	stimuli_target_trianglesquares.svg	stimuli_distractor_trianglediamonds.svg	18	yes	57	0	665
6.6.1	win	2022-12-14	12:35:44	12:40:20	274566	5a78dbb9ae9a0b0001a97212	213184778	1	main_z	7	main_z	37	stimuli_distractor_trianglediamonds.svg	stimuli_target_trianglesquares.svg	26	yes	44	1	813
6.6.1	win	2022-12-14	12:35:44	12:40:20	274566	5a78dbb9ae9a0b0001a97212	213184778	1	main_z	7	advance_on_keypress_ZEE	38	stimuli_distractor_trianglediamonds.svg	stimuli_target_trianglesquares.svg	26	yes	57	0	613
6.6.1	win	2022-12-14	12:35:44	12:40:22	276702	5a78dbb9ae9a0b0001a97212	213184778	1	main_z	7	main_z	39	stimuli_target_squaretriangles.svg	stimuli_distractor_diamondtriangles.svg	7	yes	44	1	899
6.6.1	win	2022-12-14	12:35:44	12:40:22	276702	5a78dbb9ae9a0b0001a97212	213184778	1	main_z	7	advance_on_keypress_ZEE	40	stimuli_target_squaretriangles.svg	stimuli_distractor_diamondtriangles.svg	7	yes	57	0	567
6.6.1	win	2022-12-14	12:35:44	12:40:24	278966	5a78dbb9ae9a0b0001a97212	213184778	1	main_z	7	main_z	41	stimuli_distractor_trianglediamonds.svg	stimuli_target_squarediamonds.svg	12	yes	44	1	1047
6.6.1	win	2022-12-14	12:35:44	12:40:24	278966	5a78dbb9ae9a0b0001a97212	213184778	1	main_z	7	advance_on_keypress_ZEE	42	stimuli_distractor_trianglediamonds.svg	stimuli_target_squarediamonds.svg	12	yes	57	0	613
6.6.1	win	2022-12-14	12:35:44	12:40:26	281015	5a78dbb9ae9a0b0001a97212	213184778	1	main_z	7	main_z	43	stimuli_target_squarediamonds.svg	stimuli_distractor_diamondtriangles.svg	8	yes	44	1	811
6.6.1	win	2022-12-14	12:35:44	12:40:26	281015	5a78dbb9ae9a0b0001a97212	213184778	1	main_z	7	advance_on_keypress_ZEE	44	stimuli_target_squarediamonds.svg	stimuli_distractor_diamondtriangles.svg	8	yes	57	0	547
6.6.1	win	2022-12-14	12:35:44	12:40:28	282960	5a78dbb9ae9a0b0001a97212	213184778	1	main_z	7	main_z	45	stimuli_target_squarediamonds.svg	stimuli_distractor_trianglediamonds.svg	4	yes	44	1	772
6.6.1	win	2022-12-14	12:35:44	12:40:28	282960	5a78dbb9ae9a0b0001a97212	213184778	1	main_z	7	advance_on_keypress_ZEE	46	stimuli_target_squarediamonds.svg	stimuli_distractor_trianglediamonds.svg	4	yes	57	0	493
6.6.1	win	2022-12-14	12:35:44	12:40:30	284807	5a78dbb9ae9a0b0001a97212	213184778	1	main_z	7	main_z	47	stimuli_target_circlediamonds.svg	stimuli_distractor_diamondtriangles.svg	6	yes	44	1	720
6.6.1	win	2022-12-14	12:35:44	12:40:30	284807	5a78dbb9ae9a0b0001a97212	213184778	1	main_z	7	advance_on_keypress_ZEE	48	stimuli_target_circlediamonds.svg	stimuli_distractor_diamondtriangles.svg	6	yes	57	0	451
6.6.1	win	2022-12-14	12:35:44	12:40:32	286903	5a78dbb9ae9a0b0001a97212	213184778	1	main_z	7	main_z	49	stimuli_distractor_diamondtriangles.svg	stimuli_target_trianglesquares.svg	30	yes	44	1	1000
6.6.1	win	2022-12-14	12:35:44	12:40:32	286903	5a78dbb9ae9a0b0001a97212	213184778	1	main_z	7	advance_on_keypress_ZEE	50	stimuli_distractor_diamondtriangles.svg	stimuli_target_trianglesquares.svg	30	yes	57	0	383
6.6.1	win	2022-12-14	12:35:44	12:40:35	289937	5a78dbb9ae9a0b0001a97212	213184778	1	main_z	7	main_z	51	stimuli_distractor_trianglediamonds.svg	stimuli_distractor_trianglediamonds.svg	34	no	0	1	2000
6.6.1	win	2022-12-14	12:35:44	12:40:35	289937	5a78dbb9ae9a0b0001a97212	213184778	1	main_z	7	advance_on_keypress_ZEE	52	stimuli_distractor_trianglediamonds.svg	stimuli_distractor_trianglediamonds.svg	34	no	57	0	430
6.6.1	win	2022-12-14	12:35:44	12:40:37	291775	5a78dbb9ae9a0b0001a97212	213184778	1	main_z	7	main_z	53	stimuli_distractor_trianglediamonds.svg	stimuli_target_circletriangles.svg	9	yes	44	1	772
6.6.1	win	2022-12-14	12:35:44	12:40:37	291775	5a78dbb9ae9a0b0001a97212	213184778	1	main_z	7	advance_on_keypress_ZEE	54	stimuli_distractor_trianglediamonds.svg	stimuli_target_circletriangles.svg	9	yes	57	0	588
6.6.1	win	2022-12-14	12:35:44	12:40:39	293719	5a78dbb9ae9a0b0001a97212	213184778	1	main_z	7	main_z	55	stimuli_distractor_diamondtriangles.svg	stimuli_target_circletriangles.svg	13	yes	44	1	716
6.6.1	win	2022-12-14	12:35:44	12:40:39	293719	5a78dbb9ae9a0b0001a97212	213184778	1	main_z	7	advance_on_keypress_ZEE	56	stimuli_distractor_diamondtriangles.svg	stimuli_target_circletriangles.svg	13	yes	57	0	415
6.6.1	win	2022-12-14	12:35:44	12:40:41	295535	5a78dbb9ae9a0b0001a97212	213184778	1	main_z	7	main_z	57	stimuli_distractor_trianglediamonds.svg	stimuli_target_squaretriangles.svg	11	yes	44	1	748
6.6.1	win	2022-12-14	12:35:44	12:40:41	295535	5a78dbb9ae9a0b0001a97212	213184778	1	main_z	7	advance_on_keypress_ZEE	58	stimuli_distractor_trianglediamonds.svg	stimuli_target_squaretriangles.svg	11	yes	57	0	382
6.6.1	win	2022-12-14	12:35:44	12:40:43	297408	5a78dbb9ae9a0b0001a97212	213184778	1	main_z	7	main_z	59	stimuli_distractor_trianglediamonds.svg	stimuli_target_trianglecircles.svg	25	yes	44	1	837
6.6.1	win	2022-12-14	12:35:44	12:40:43	297408	5a78dbb9ae9a0b0001a97212	213184778	1	main_z	7	advance_on_keypress_ZEE	60	stimuli_distractor_trianglediamonds.svg	stimuli_target_trianglecircles.svg	25	yes	57	0	571
6.6.1	win	2022-12-14	12:35:44	12:40:46	300620	5a78dbb9ae9a0b0001a97212	213184778	1	main_z	7	main_z	61	stimuli_distractor_trianglediamonds.svg	stimuli_distractor_diamondtriangles.svg	35	no	0	1	2000
6.6.1	win	2022-12-14	12:35:44	12:40:46	300620	5a78dbb9ae9a0b0001a97212	213184778	1	main_z	7	advance_on_keypress_ZEE	62	stimuli_distractor_trianglediamonds.svg	stimuli_distractor_diamondtriangles.svg	35	no	57	0	427
6.6.1	win	2022-12-14	12:35:44	12:40:49	303687	5a78dbb9ae9a0b0001a97212	213184778	1	main_z	7	main_z	63	stimuli_target_diamondcircles.svg	stimuli_distractor_trianglediamonds.svg	19	yes	0	0	2000
6.6.1	win	2022-12-14	12:35:44	12:40:49	303687	5a78dbb9ae9a0b0001a97212	213184778	1	main_z	7	advance_on_keypress_ZEE	64	stimuli_target_diamondcircles.svg	stimuli_distractor_trianglediamonds.svg	19	yes	57	0	432
6.6.1	win	2022-12-14	12:35:44	12:40:51	305535	5a78dbb9ae9a0b0001a97212	213184778	1	main_z	7	main_z	65	stimuli_distractor_trianglediamonds.svg	stimuli_target_diamondcircles.svg	27	yes	44	1	765
6.6.1	win	2022-12-14	12:35:44	12:40:51	305535	5a78dbb9ae9a0b0001a97212	213184778	1	main_z	7	advance_on_keypress_ZEE	66	stimuli_distractor_trianglediamonds.svg	stimuli_target_diamondcircles.svg	27	yes	57	0	518
6.6.1	win	2022-12-14	12:35:44	12:40:54	308706	5a78dbb9ae9a0b0001a97212	213184778	1	main_z	7	main_z	67	stimuli_distractor_diamondtriangles.svg	stimuli_distractor_trianglediamonds.svg	37	no	0	1	2000
6.6.1	win	2022-12-14	12:35:44	12:40:54	308706	5a78dbb9ae9a0b0001a97212	213184778	1	main_z	7	advance_on_keypress_ZEE	68	stimuli_distractor_diamondtriangles.svg	stimuli_distractor_trianglediamonds.svg	37	no	57	0	896
6.6.1	win	2022-12-14	12:35:44	12:40:56	311103	5a78dbb9ae9a0b0001a97212	213184778	1	main_z	7	main_z	69	stimuli_distractor_trianglediamonds.svg	stimuli_target_diamondsquares.svg	28	yes	44	1	867
6.6.1	win	2022-12-14	12:35:44	12:40:56	311103	5a78dbb9ae9a0b0001a97212	213184778	1	main_z	7	advance_on_keypress_ZEE	70	stimuli_distractor_trianglediamonds.svg	stimuli_target_diamondsquares.svg	28	yes	57	0	568
6.6.1	win	2022-12-14	12:35:44	12:41:00	314319	5a78dbb9ae9a0b0001a97212	213184778	1	main_z	7	main_z	71	stimuli_distractor_diamondtriangles.svg	stimuli_distractor_diamondtriangles.svg	40	no	0	1	2000
6.6.1	win	2022-12-14	12:35:44	12:41:00	314319	5a78dbb9ae9a0b0001a97212	213184778	1	main_z	7	advance_on_keypress_ZEE	72	stimuli_distractor_diamondtriangles.svg	stimuli_distractor_diamondtriangles.svg	40	no	57	0	399
6.6.1	win	2022-12-14	12:35:44	12:41:03	317370	5a78dbb9ae9a0b0001a97212	213184778	1	main_z	7	main_z	73	stimuli_distractor_trianglediamonds.svg	stimuli_distractor_diamondtriangles.svg	36	no	0	1	2000
6.6.1	win	2022-12-14	12:35:44	12:41:03	317370	5a78dbb9ae9a0b0001a97212	213184778	1	main_z	7	advance_on_keypress_ZEE	74	stimuli_distractor_trianglediamonds.svg	stimuli_distractor_diamondtriangles.svg	36	no	57	0	301
6.6.1	win	2022-12-14	12:35:44	12:41:04	319167	5a78dbb9ae9a0b0001a97212	213184778	1	main_z	7	main_z	75	stimuli_distractor_diamondtriangles.svg	stimuli_target_diamondcircles.svg	31	yes	44	1	848
6.6.1	win	2022-12-14	12:35:44	12:41:04	319167	5a78dbb9ae9a0b0001a97212	213184778	1	main_z	7	advance_on_keypress_ZEE	76	stimuli_distractor_diamondtriangles.svg	stimuli_target_diamondcircles.svg	31	yes	57	0	741
6.6.1	win	2022-12-14	12:35:44	12:41:07	321407	5a78dbb9ae9a0b0001a97212	213184778	1	main_z	7	main_z	77	stimuli_target_squaretriangles.svg	stimuli_distractor_trianglediamonds.svg	3	yes	44	1	855
6.6.1	win	2022-12-14	12:35:44	12:41:07	321407	5a78dbb9ae9a0b0001a97212	213184778	1	main_z	7	advance_on_keypress_ZEE	78	stimuli_target_squaretriangles.svg	stimuli_distractor_trianglediamonds.svg	3	yes	57	0	652
6.6.1	win	2022-12-14	12:35:44	12:41:09	323662	5a78dbb9ae9a0b0001a97212	213184778	1	main_z	7	main_z	79	stimuli_target_trianglecircles.svg	stimuli_distractor_diamondtriangles.svg	21	yes	44	1	961
6.6.1	win	2022-12-14	12:35:44	12:41:09	323662	5a78dbb9ae9a0b0001a97212	213184778	1	main_z	7	advance_on_keypress_ZEE	80	stimuli_target_trianglecircles.svg	stimuli_distractor_diamondtriangles.svg	21	yes	57	0	658
6.6.1	win	2022-12-14	12:35:44	12:41:11	325792	5a78dbb9ae9a0b0001a97212	213184778	1	main_z	7	main_z	81	stimuli_target_circletriangles.svg	stimuli_distractor_diamondtriangles.svg	5	yes	44	1	826
6.6.1	win	2022-12-14	12:35:44	12:41:11	325792	5a78dbb9ae9a0b0001a97212	213184778	1	main_z	7	advance_on_keypress_ZEE	82	stimuli_target_circletriangles.svg	stimuli_distractor_diamondtriangles.svg	5	yes	57	0	612
6.6.1	win	2022-12-14	12:35:44	12:41:13	327856	5a78dbb9ae9a0b0001a97212	213184778	1	main_z	7	main_z	83	stimuli_distractor_diamondtriangles.svg	stimuli_target_squaretriangles.svg	15	yes	44	1	819
6.6.1	win	2022-12-14	12:35:44	12:41:13	327856	5a78dbb9ae9a0b0001a97212	213184778	1	main_z	7	advance_on_keypress_ZEE	84	stimuli_distractor_diamondtriangles.svg	stimuli_target_squaretriangles.svg	15	yes	57	0	538
6.6.1	win	2022-12-14	12:35:44	12:41:15	330047	5a78dbb9ae9a0b0001a97212	213184778	1	main_z	7	main_z	85	stimuli_distractor_diamondtriangles.svg	stimuli_target_diamondcircles.svg	31	yes	44	1	1011
6.6.1	win	2022-12-14	12:35:44	12:41:15	330047	5a78dbb9ae9a0b0001a97212	213184778	1	main_z	7	advance_on_keypress_ZEE	86	stimuli_distractor_diamondtriangles.svg	stimuli_target_diamondcircles.svg	31	yes	57	0	530
6.6.1	win	2022-12-14	12:35:44	12:41:18	332489	5a78dbb9ae9a0b0001a97212	213184778	1	main_z	7	main_z	87	stimuli_distractor_diamondtriangles.svg	stimuli_target_trianglesquares.svg	30	yes	44	1	1285
6.6.1	win	2022-12-14	12:35:44	12:41:18	332489	5a78dbb9ae9a0b0001a97212	213184778	1	main_z	7	advance_on_keypress_ZEE	88	stimuli_distractor_diamondtriangles.svg	stimuli_target_trianglesquares.svg	30	yes	57	0	432
6.6.1	win	2022-12-14	12:35:44	12:41:21	335569	5a78dbb9ae9a0b0001a97212	213184778	1	main_z	7	main_z	89	stimuli_distractor_trianglediamonds.svg	stimuli_distractor_diamondtriangles.svg	35	no	0	1	2000
6.6.1	win	2022-12-14	12:35:44	12:41:21	335569	5a78dbb9ae9a0b0001a97212	213184778	1	main_z	7	advance_on_keypress_ZEE	90	stimuli_distractor_trianglediamonds.svg	stimuli_distractor_diamondtriangles.svg	35	no	57	0	518
6.6.1	win	2022-12-14	12:35:44	12:41:24	338736	5a78dbb9ae9a0b0001a97212	213184778	1	main_z	7	main_z	91	stimuli_distractor_diamondtriangles.svg	stimuli_distractor_trianglediamonds.svg	37	no	0	1	2000
6.6.1	win	2022-12-14	12:35:44	12:41:24	338736	5a78dbb9ae9a0b0001a97212	213184778	1	main_z	7	advance_on_keypress_ZEE	92	stimuli_distractor_diamondtriangles.svg	stimuli_distractor_trianglediamonds.svg	37	no	57	0	358
6.6.1	win	2022-12-14	12:35:44	12:41:27	341735	5a78dbb9ae9a0b0001a97212	213184778	1	main_z	7	main_z	93	stimuli_distractor_diamondtriangles.svg	stimuli_distractor_trianglediamonds.svg	38	no	0	1	2000
6.6.1	win	2022-12-14	12:35:44	12:41:27	341735	5a78dbb9ae9a0b0001a97212	213184778	1	main_z	7	advance_on_keypress_ZEE	94	stimuli_distractor_diamondtriangles.svg	stimuli_distractor_trianglediamonds.svg	38	no	57	0	294
6.6.1	win	2022-12-14	12:35:44	12:41:29	343889	5a78dbb9ae9a0b0001a97212	213184778	1	main_z	7	main_z	95	stimuli_target_trianglecircles.svg	stimuli_distractor_diamondtriangles.svg	21	yes	44	1	1219
6.6.1	win	2022-12-14	12:35:44	12:41:29	343889	5a78dbb9ae9a0b0001a97212	213184778	1	main_z	7	advance_on_keypress_ZEE	96	stimuli_target_trianglecircles.svg	stimuli_distractor_diamondtriangles.svg	21	yes	57	0	576
6.6.1	win	2022-12-14	12:35:44	12:41:31	346151	5a78dbb9ae9a0b0001a97212	213184778	1	main_z	7	main_z	97	stimuli_target_diamondcircles.svg	stimuli_distractor_trianglediamonds.svg	19	yes	44	1	1048
6.6.1	win	2022-12-14	12:35:44	12:41:31	346151	5a78dbb9ae9a0b0001a97212	213184778	1	main_z	7	advance_on_keypress_ZEE	98	stimuli_target_diamondcircles.svg	stimuli_distractor_trianglediamonds.svg	19	yes	57	0	334
6.6.1	win	2022-12-14	12:35:44	12:41:33	348240	5a78dbb9ae9a0b0001a97212	213184778	1	main_z	7	main_z	99	stimuli_distractor_diamondtriangles.svg	stimuli_target_squarediamonds.svg	16	yes	44	1	1103
6.6.1	win	2022-12-14	12:35:44	12:41:33	348240	5a78dbb9ae9a0b0001a97212	213184778	1	main_z	7	advance_on_keypress_ZEE	100	stimuli_distractor_diamondtriangles.svg	stimuli_target_squarediamonds.svg	16	yes	57	0	698
6.6.1	win	2022-12-14	12:35:44	12:41:35	350255	5a78dbb9ae9a0b0001a97212	213184778	1	main_z	7	main_z	101	stimuli_target_trianglecircles.svg	stimuli_distractor_trianglediamonds.svg	17	yes	44	1	669
6.6.1	win	2022-12-14	12:35:44	12:41:35	350255	5a78dbb9ae9a0b0001a97212	213184778	1	main_z	7	advance_on_keypress_ZEE	102	stimuli_target_trianglecircles.svg	stimuli_distractor_trianglediamonds.svg	17	yes	57	0	330
6.6.1	win	2022-12-14	12:35:44	12:41:38	353218	5a78dbb9ae9a0b0001a97212	213184778	1	main_z	7	main_z	103	stimuli_target_diamondsquares.svg	stimuli_distractor_diamondtriangles.svg	24	yes	0	0	2000
6.6.1	win	2022-12-14	12:35:44	12:41:38	353218	5a78dbb9ae9a0b0001a97212	213184778	1	main_z	7	advance_on_keypress_ZEE	104	stimuli_target_diamondsquares.svg	stimuli_distractor_diamondtriangles.svg	24	yes	57	0	2339
6.6.1	win	2022-12-14	12:35:44	12:41:42	357135	5a78dbb9ae9a0b0001a97212	213184778	1	main_z	7	main_z	105	stimuli_target_squaretriangles.svg	stimuli_distractor_diamondtriangles.svg	7	yes	44	1	933
6.6.1	win	2022-12-14	12:35:44	12:41:42	357135	5a78dbb9ae9a0b0001a97212	213184778	1	main_z	7	advance_on_keypress_ZEE	106	stimuli_target_squaretriangles.svg	stimuli_distractor_diamondtriangles.svg	7	yes	57	0	2055
6.6.1	win	2022-12-14	12:35:44	12:41:46	360566	5a78dbb9ae9a0b0001a97212	213184778	1	main_z	7	main_z	107	stimuli_distractor_trianglediamonds.svg	stimuli_target_trianglesquares.svg	26	yes	44	1	731
6.6.1	win	2022-12-14	12:35:44	12:41:46	360566	5a78dbb9ae9a0b0001a97212	213184778	1	main_z	7	advance_on_keypress_ZEE	108	stimuli_distractor_trianglediamonds.svg	stimuli_target_trianglesquares.svg	26	yes	57	0	613
6.6.1	win	2022-12-14	12:35:44	12:41:48	362566	5a78dbb9ae9a0b0001a97212	213184778	1	main_z	7	main_z	109	stimuli_distractor_diamondtriangles.svg	stimuli_target_trianglecircles.svg	29	yes	44	1	732
6.6.1	win	2022-12-14	12:35:44	12:41:48	362566	5a78dbb9ae9a0b0001a97212	213184778	1	main_z	7	advance_on_keypress_ZEE	110	stimuli_distractor_diamondtriangles.svg	stimuli_target_trianglecircles.svg	29	yes	57	0	446
6.6.1	win	2022-12-14	12:35:44	12:41:50	364584	5a78dbb9ae9a0b0001a97212	213184778	1	main_z	7	main_z	111	stimuli_target_trianglesquares.svg	stimuli_distractor_diamondtriangles.svg	22	yes	44	1	931
6.6.1	win	2022-12-14	12:35:44	12:41:50	364584	5a78dbb9ae9a0b0001a97212	213184778	1	main_z	7	advance_on_keypress_ZEE	112	stimuli_target_trianglesquares.svg	stimuli_distractor_diamondtriangles.svg	22	yes	57	0	389
6.6.1	win	2022-12-14	12:35:44	12:41:52	367088	5a78dbb9ae9a0b0001a97212	213184778	1	main_z	7	main_z	113	stimuli_distractor_trianglediamonds.svg	stimuli_target_squaretriangles.svg	11	yes	44	1	1468
6.6.1	win	2022-12-14	12:35:44	12:41:52	367088	5a78dbb9ae9a0b0001a97212	213184778	1	main_z	7	advance_on_keypress_ZEE	114	stimuli_distractor_trianglediamonds.svg	stimuli_target_squaretriangles.svg	11	yes	57	0	369
6.6.1	win	2022-12-14	12:35:44	12:41:55	369358	5a78dbb9ae9a0b0001a97212	213184778	1	main_z	7	main_z	115	stimuli_distractor_trianglediamonds.svg	stimuli_target_diamondcircles.svg	27	yes	44	1	1257
6.6.1	win	2022-12-14	12:35:44	12:41:55	369358	5a78dbb9ae9a0b0001a97212	213184778	1	main_z	7	advance_on_keypress_ZEE	116	stimuli_distractor_trianglediamonds.svg	stimuli_target_diamondcircles.svg	27	yes	57	0	230
6.6.1	win	2022-12-14	12:35:44	12:41:57	372218	5a78dbb9ae9a0b0001a97212	213184778	1	main_z	7	main_z	117	stimuli_distractor_trianglediamonds.svg	stimuli_distractor_trianglediamonds.svg	34	no	0	1	2000
6.6.1	win	2022-12-14	12:35:44	12:41:57	372218	5a78dbb9ae9a0b0001a97212	213184778	1	main_z	7	advance_on_keypress_ZEE	118	stimuli_distractor_trianglediamonds.svg	stimuli_distractor_trianglediamonds.svg	34	no	57	0	396
6.6.1	win	2022-12-14	12:35:44	12:41:59	374072	5a78dbb9ae9a0b0001a97212	213184778	1	main_z	7	main_z	119	stimuli_distractor_diamondtriangles.svg	stimuli_target_diamondsquares.svg	32	yes	44	1	819
6.6.1	win	2022-12-14	12:35:44	12:41:59	374072	5a78dbb9ae9a0b0001a97212	213184778	1	main_z	7	advance_on_keypress_ZEE	120	stimuli_distractor_diamondtriangles.svg	stimuli_target_diamondsquares.svg	32	yes	57	0	402
6.6.1	win	2022-12-14	12:35:44	12:42:02	377118	5a78dbb9ae9a0b0001a97212	213184778	1	main_z	7	main_z	121	stimuli_distractor_trianglediamonds.svg	stimuli_distractor_diamondtriangles.svg	36	no	0	1	2000
6.6.1	win	2022-12-14	12:35:44	12:42:02	377118	5a78dbb9ae9a0b0001a97212	213184778	1	main_z	7	advance_on_keypress_ZEE	122	stimuli_distractor_trianglediamonds.svg	stimuli_distractor_diamondtriangles.svg	36	no	57	0	385
6.6.1	win	2022-12-14	12:35:44	12:42:05	380151	5a78dbb9ae9a0b0001a97212	213184778	1	main_z	7	main_z	123	stimuli_distractor_trianglediamonds.svg	stimuli_target_circletriangles.svg	9	yes	0	0	2000
6.6.1	win	2022-12-14	12:35:44	12:42:05	380151	5a78dbb9ae9a0b0001a97212	213184778	1	main_z	7	advance_on_keypress_ZEE	124	stimuli_distractor_trianglediamonds.svg	stimuli_target_circletriangles.svg	9	yes	57	0	511
6.6.1	win	2022-12-14	12:35:44	12:42:08	382590	5a78dbb9ae9a0b0001a97212	213184778	1	main_z	7	main_z	125	stimuli_distractor_diamondtriangles.svg	stimuli_distractor_diamondtriangles.svg	39	no	44	0	1289
6.6.1	win	2022-12-14	12:35:44	12:42:08	382590	5a78dbb9ae9a0b0001a97212	213184778	1	main_z	7	advance_on_keypress_ZEE	126	stimuli_distractor_diamondtriangles.svg	stimuli_distractor_diamondtriangles.svg	39	no	57	0	494
6.6.1	win	2022-12-14	12:35:44	12:42:11	385717	5a78dbb9ae9a0b0001a97212	213184778	1	main_z	7	main_z	127	stimuli_distractor_diamondtriangles.svg	stimuli_distractor_diamondtriangles.svg	40	no	0	1	2000
6.6.1	win	2022-12-14	12:35:44	12:42:11	385717	5a78dbb9ae9a0b0001a97212	213184778	1	main_z	7	advance_on_keypress_ZEE	128	stimuli_distractor_diamondtriangles.svg	stimuli_distractor_diamondtriangles.svg	40	no	57	0	1584
6.6.1	win	2022-12-14	12:35:44	12:42:14	388726	5a78dbb9ae9a0b0001a97212	213184778	1	main_z	7	main_z	129	stimuli_target_trianglesquares.svg	stimuli_distractor_trianglediamonds.svg	18	yes	44	1	776
6.6.1	win	2022-12-14	12:35:44	12:42:14	388726	5a78dbb9ae9a0b0001a97212	213184778	1	main_z	7	advance_on_keypress_ZEE	130	stimuli_target_trianglesquares.svg	stimuli_distractor_trianglediamonds.svg	18	yes	57	0	544
6.6.1	win	2022-12-14	12:35:44	12:42:16	391037	5a78dbb9ae9a0b0001a97212	213184778	1	main_z	7	main_z	131	stimuli_target_squarediamonds.svg	stimuli_distractor_diamondtriangles.svg	8	yes	44	1	1114
6.6.1	win	2022-12-14	12:35:44	12:42:16	391037	5a78dbb9ae9a0b0001a97212	213184778	1	main_z	7	advance_on_keypress_ZEE	132	stimuli_target_squarediamonds.svg	stimuli_distractor_diamondtriangles.svg	8	yes	57	0	268
6.6.1	win	2022-12-14	12:35:44	12:42:18	392656	5a78dbb9ae9a0b0001a97212	213184778	1	main_z	7	main_z	133	stimuli_distractor_diamondtriangles.svg	stimuli_target_circletriangles.svg	13	yes	44	1	704
6.6.1	win	2022-12-14	12:35:44	12:42:18	392656	5a78dbb9ae9a0b0001a97212	213184778	1	main_z	7	advance_on_keypress_ZEE	134	stimuli_distractor_diamondtriangles.svg	stimuli_target_circletriangles.svg	13	yes	57	0	387
6.6.1	win	2022-12-14	12:35:44	12:42:20	394336	5a78dbb9ae9a0b0001a97212	213184778	1	main_z	7	main_z	135	stimuli_target_squaretriangles.svg	stimuli_distractor_trianglediamonds.svg	3	yes	44	1	650
6.6.1	win	2022-12-14	12:35:44	12:42:20	394336	5a78dbb9ae9a0b0001a97212	213184778	1	main_z	7	advance_on_keypress_ZEE	136	stimuli_target_squaretriangles.svg	stimuli_distractor_trianglediamonds.svg	3	yes	57	0	288
6.6.1	win	2022-12-14	12:35:44	12:42:21	396142	5a78dbb9ae9a0b0001a97212	213184778	1	main_z	7	main_z	137	stimuli_distractor_trianglediamonds.svg	stimuli_target_trianglecircles.svg	25	yes	44	1	875
6.6.1	win	2022-12-14	12:35:44	12:42:21	396142	5a78dbb9ae9a0b0001a97212	213184778	1	main_z	7	advance_on_keypress_ZEE	138	stimuli_distractor_trianglediamonds.svg	stimuli_target_trianglecircles.svg	25	yes	57	0	296
6.6.1	win	2022-12-14	12:35:44	12:42:23	397775	5a78dbb9ae9a0b0001a97212	213184778	1	main_z	7	main_z	139	stimuli_target_circlediamonds.svg	stimuli_distractor_trianglediamonds.svg	2	yes	44	1	707
6.6.1	win	2022-12-14	12:35:44	12:42:23	397775	5a78dbb9ae9a0b0001a97212	213184778	1	main_z	7	advance_on_keypress_ZEE	140	stimuli_target_circlediamonds.svg	stimuli_distractor_trianglediamonds.svg	2	yes	57	0	375
6.6.1	win	2022-12-14	12:35:44	12:42:25	399558	5a78dbb9ae9a0b0001a97212	213184778	1	main_z	7	main_z	141	stimuli_target_diamondcircles.svg	stimuli_distractor_diamondtriangles.svg	23	yes	44	1	775
6.6.1	win	2022-12-14	12:35:44	12:42:25	399558	5a78dbb9ae9a0b0001a97212	213184778	1	main_z	7	advance_on_keypress_ZEE	142	stimuli_target_diamondcircles.svg	stimuli_distractor_diamondtriangles.svg	23	yes	57	0	287
6.6.1	win	2022-12-14	12:35:44	12:42:27	401487	5a78dbb9ae9a0b0001a97212	213184778	1	main_z	7	main_z	143	stimuli_target_circlediamonds.svg	stimuli_distractor_diamondtriangles.svg	6	yes	44	1	1003
6.6.1	win	2022-12-14	12:35:44	12:42:27	401487	5a78dbb9ae9a0b0001a97212	213184778	1	main_z	7	advance_on_keypress_ZEE	144	stimuli_target_circlediamonds.svg	stimuli_distractor_diamondtriangles.svg	6	yes	57	0	258
6.6.1	win	2022-12-14	12:35:44	12:42:30	404384	5a78dbb9ae9a0b0001a97212	213184778	1	main_z	7	main_z	145	stimuli_distractor_trianglediamonds.svg	stimuli_distractor_trianglediamonds.svg	33	no	0	1	2000
6.6.1	win	2022-12-14	12:35:44	12:42:30	404384	5a78dbb9ae9a0b0001a97212	213184778	1	main_z	7	advance_on_keypress_ZEE	146	stimuli_distractor_trianglediamonds.svg	stimuli_distractor_trianglediamonds.svg	33	no	57	0	318
6.6.1	win	2022-12-14	12:35:44	12:42:31	406182	5a78dbb9ae9a0b0001a97212	213184778	1	main_z	7	main_z	147	stimuli_distractor_trianglediamonds.svg	stimuli_target_diamondsquares.svg	28	yes	44	1	832
6.6.1	win	2022-12-14	12:35:44	12:42:31	406182	5a78dbb9ae9a0b0001a97212	213184778	1	main_z	7	advance_on_keypress_ZEE	148	stimuli_distractor_trianglediamonds.svg	stimuli_target_diamondsquares.svg	28	yes	57	0	390
6.6.1	win	2022-12-14	12:35:44	12:42:33	408182	5a78dbb9ae9a0b0001a97212	213184778	1	main_z	7	main_z	149	stimuli_distractor_trianglediamonds.svg	stimuli_target_squarediamonds.svg	12	yes	44	1	965
6.6.1	win	2022-12-14	12:35:44	12:42:33	408182	5a78dbb9ae9a0b0001a97212	213184778	1	main_z	7	advance_on_keypress_ZEE	150	stimuli_distractor_trianglediamonds.svg	stimuli_target_squarediamonds.svg	12	yes	57	0	278
6.6.1	win	2022-12-14	12:35:44	12:42:35	410150	5a78dbb9ae9a0b0001a97212	213184778	1	main_z	7	main_z	151	stimuli_distractor_diamondtriangles.svg	stimuli_target_circlediamonds.svg	14	yes	44	1	1050
6.6.1	win	2022-12-14	12:35:44	12:42:35	410150	5a78dbb9ae9a0b0001a97212	213184778	1	main_z	7	advance_on_keypress_ZEE	152	stimuli_distractor_diamondtriangles.svg	stimuli_target_circlediamonds.svg	14	yes	57	0	248
6.6.1	win	2022-12-14	12:35:44	12:42:37	411854	5a78dbb9ae9a0b0001a97212	213184778	1	main_z	7	main_z	153	stimuli_distractor_trianglediamonds.svg	stimuli_target_circlediamonds.svg	10	yes	44	1	804
6.6.1	win	2022-12-14	12:35:44	12:42:37	411854	5a78dbb9ae9a0b0001a97212	213184778	1	main_z	7	advance_on_keypress_ZEE	154	stimuli_distractor_trianglediamonds.svg	stimuli_target_circlediamonds.svg	10	yes	57	0	268
6.6.1	win	2022-12-14	12:35:44	12:42:39	413487	5a78dbb9ae9a0b0001a97212	213184778	1	main_z	7	main_z	155	stimuli_target_circletriangles.svg	stimuli_distractor_trianglediamonds.svg	1	yes	44	1	719
6.6.1	win	2022-12-14	12:35:44	12:42:39	413487	5a78dbb9ae9a0b0001a97212	213184778	1	main_z	7	advance_on_keypress_ZEE	156	stimuli_target_circletriangles.svg	stimuli_distractor_trianglediamonds.svg	1	yes	57	0	218
6.6.1	win	2022-12-14	12:35:44	12:42:42	416350	5a78dbb9ae9a0b0001a97212	213184778	1	main_z	7	main_z	157	stimuli_target_diamondsquares.svg	stimuli_distractor_trianglediamonds.svg	20	yes	0	0	2000
6.6.1	win	2022-12-14	12:35:44	12:42:42	416350	5a78dbb9ae9a0b0001a97212	213184778	1	main_z	7	advance_on_keypress_ZEE	158	stimuli_target_diamondsquares.svg	stimuli_distractor_trianglediamonds.svg	20	yes	57	0	272
6.6.1	win	2022-12-14	12:35:44	12:42:43	418022	5a78dbb9ae9a0b0001a97212	213184778	1	main_z	7	main_z	159	stimuli_target_squarediamonds.svg	stimuli_distractor_trianglediamonds.svg	4	yes	44	1	756
6.6.1	win	2022-12-14	12:35:44	12:42:43	418022	5a78dbb9ae9a0b0001a97212	213184778	1	main_z	7	advance_on_keypress_ZEE	160	stimuli_target_squarediamonds.svg	stimuli_distractor_trianglediamonds.svg	4	yes	57	0	325
6.6.1	win	2022-12-14	12:35:44	12:43:04	438373	5a78dbb9ae9a0b0001a97212	213184778	1	practice_slash	9	practice_slash	1	stimuli_target_diamondsquares.svg	stimuli_distractor_trianglediamonds.svg	6	yes	53	1	925
6.6.1	win	2022-12-14	12:35:44	12:43:04	438373	5a78dbb9ae9a0b0001a97212	213184778	1	practice_slash	9	advance_on_keypress_SLASH	2	stimuli_target_diamondsquares.svg	stimuli_distractor_trianglediamonds.svg	6	yes	57	0	464
6.6.1	win	2022-12-14	12:35:44	12:43:07	441510	5a78dbb9ae9a0b0001a97212	213184778	1	practice_slash	9	practice_slash	3	stimuli_distractor_trianglediamonds.svg	stimuli_distractor_trianglediamonds.svg	15	no	53	0	1045
6.6.1	win	2022-12-14	12:35:44	12:43:07	441510	5a78dbb9ae9a0b0001a97212	213184778	1	practice_slash	9	advance_on_keypress_SLASH	4	stimuli_distractor_trianglediamonds.svg	stimuli_distractor_trianglediamonds.svg	15	no	57	0	331
6.6.1	win	2022-12-14	12:35:44	12:43:09	444205	5a78dbb9ae9a0b0001a97212	213184778	1	practice_slash	9	practice_slash	5	stimuli_distractor_diamondtriangles.svg	stimuli_target_diamondcircles.svg	8	yes	53	1	741
6.6.1	win	2022-12-14	12:35:44	12:43:09	444205	5a78dbb9ae9a0b0001a97212	213184778	1	practice_slash	9	advance_on_keypress_SLASH	6	stimuli_distractor_diamondtriangles.svg	stimuli_target_diamondcircles.svg	8	yes	57	0	351
6.6.1	win	2022-12-14	12:35:44	12:43:13	448198	5a78dbb9ae9a0b0001a97212	213184778	1	practice_slash	9	practice_slash	7	stimuli_distractor_diamondtriangles.svg	stimuli_distractor_trianglediamonds.svg	14	no	0	1	2000
6.6.1	win	2022-12-14	12:35:44	12:43:13	448198	5a78dbb9ae9a0b0001a97212	213184778	1	practice_slash	9	advance_on_keypress_SLASH	8	stimuli_distractor_diamondtriangles.svg	stimuli_distractor_trianglediamonds.svg	14	no	57	0	279
6.6.1	win	2022-12-14	12:35:44	12:43:16	450909	5a78dbb9ae9a0b0001a97212	213184778	1	practice_slash	9	practice_slash	9	stimuli_target_squarediamonds.svg	stimuli_distractor_diamondtriangles.svg	2	yes	53	1	794
6.6.1	win	2022-12-14	12:35:44	12:43:16	450909	5a78dbb9ae9a0b0001a97212	213184778	1	practice_slash	9	advance_on_keypress_SLASH	10	stimuli_target_squarediamonds.svg	stimuli_distractor_diamondtriangles.svg	2	yes	57	0	387
6.6.1	win	2022-12-14	12:35:44	12:43:19	453781	5a78dbb9ae9a0b0001a97212	213184778	1	practice_slash	9	practice_slash	11	stimuli_distractor_diamondtriangles.svg	stimuli_target_trianglecircles.svg	9	yes	53	1	849
6.6.1	win	2022-12-14	12:35:44	12:43:19	453781	5a78dbb9ae9a0b0001a97212	213184778	1	practice_slash	9	advance_on_keypress_SLASH	12	stimuli_distractor_diamondtriangles.svg	stimuli_target_trianglecircles.svg	9	yes	57	0	271
6.6.1	win	2022-12-14	12:35:44	12:43:22	457166	5a78dbb9ae9a0b0001a97212	213184778	1	practice_slash	9	practice_slash	13	stimuli_distractor_diamondtriangles.svg	stimuli_target_circletriangles.svg	7	yes	53	1	1468
6.6.1	win	2022-12-14	12:35:44	12:43:22	457166	5a78dbb9ae9a0b0001a97212	213184778	1	practice_slash	9	advance_on_keypress_SLASH	14	stimuli_distractor_diamondtriangles.svg	stimuli_target_circletriangles.svg	7	yes	57	0	391
6.6.1	win	2022-12-14	12:35:44	12:43:25	460053	5a78dbb9ae9a0b0001a97212	213184778	1	practice_slash	9	practice_slash	15	stimuli_distractor_trianglediamonds.svg	stimuli_target_diamondcircles.svg	12	yes	53	1	855
6.6.1	win	2022-12-14	12:35:44	12:43:25	460053	5a78dbb9ae9a0b0001a97212	213184778	1	practice_slash	9	advance_on_keypress_SLASH	16	stimuli_distractor_trianglediamonds.svg	stimuli_target_diamondcircles.svg	12	yes	57	0	285
6.6.1	win	2022-12-14	12:35:44	12:43:28	462685	5a78dbb9ae9a0b0001a97212	213184778	1	practice_slash	9	practice_slash	17	stimuli_target_circlediamonds.svg	stimuli_distractor_diamondtriangles.svg	1	yes	53	1	703
6.6.1	win	2022-12-14	12:35:44	12:43:28	462685	5a78dbb9ae9a0b0001a97212	213184778	1	practice_slash	9	advance_on_keypress_SLASH	18	stimuli_target_circlediamonds.svg	stimuli_distractor_diamondtriangles.svg	1	yes	57	0	252
6.6.1	win	2022-12-14	12:35:44	12:43:31	465429	5a78dbb9ae9a0b0001a97212	213184778	1	practice_slash	9	practice_slash	19	stimuli_distractor_trianglediamonds.svg	stimuli_target_squarediamonds.svg	11	yes	53	1	848
6.6.1	win	2022-12-14	12:35:44	12:43:31	465429	5a78dbb9ae9a0b0001a97212	213184778	1	practice_slash	9	advance_on_keypress_SLASH	20	stimuli_distractor_trianglediamonds.svg	stimuli_target_squarediamonds.svg	11	yes	57	0	373
6.6.1	win	2022-12-14	12:35:44	12:43:35	469448	5a78dbb9ae9a0b0001a97212	213184778	1	practice_slash	9	practice_slash	21	stimuli_distractor_diamondtriangles.svg	stimuli_distractor_diamondtriangles.svg	13	no	0	1	2000
6.6.1	win	2022-12-14	12:35:44	12:43:35	469448	5a78dbb9ae9a0b0001a97212	213184778	1	practice_slash	9	advance_on_keypress_SLASH	22	stimuli_distractor_diamondtriangles.svg	stimuli_distractor_diamondtriangles.svg	13	no	57	0	316
6.6.1	win	2022-12-14	12:35:44	12:43:38	472669	5a78dbb9ae9a0b0001a97212	213184778	1	practice_slash	9	practice_slash	23	stimuli_target_diamondsquares.svg	stimuli_distractor_diamondtriangles.svg	3	yes	53	1	1254
6.6.1	win	2022-12-14	12:35:44	12:43:38	472669	5a78dbb9ae9a0b0001a97212	213184778	1	practice_slash	9	advance_on_keypress_SLASH	24	stimuli_target_diamondsquares.svg	stimuli_distractor_diamondtriangles.svg	3	yes	57	0	468
6.6.1	win	2022-12-14	12:35:44	12:43:42	476303	5a78dbb9ae9a0b0001a97212	213184778	1	practice_slash	9	practice_slash	25	stimuli_target_circlediamonds.svg	stimuli_distractor_trianglediamonds.svg	4	yes	53	1	1520
6.6.1	win	2022-12-14	12:35:44	12:43:42	476303	5a78dbb9ae9a0b0001a97212	213184778	1	practice_slash	9	advance_on_keypress_SLASH	26	stimuli_target_circlediamonds.svg	stimuli_distractor_trianglediamonds.svg	4	yes	57	0	4147
6.6.1	win	2022-12-14	12:35:44	12:43:48	482920	5a78dbb9ae9a0b0001a97212	213184778	1	practice_slash	9	practice_slash	27	stimuli_distractor_trianglediamonds.svg	stimuli_target_circlediamonds.svg	10	yes	53	1	819
6.6.1	win	2022-12-14	12:35:44	12:43:48	482920	5a78dbb9ae9a0b0001a97212	213184778	1	practice_slash	9	advance_on_keypress_SLASH	28	stimuli_distractor_trianglediamonds.svg	stimuli_target_circlediamonds.svg	10	yes	57	0	434
6.6.1	win	2022-12-14	12:35:44	12:43:51	485807	5a78dbb9ae9a0b0001a97212	213184778	1	practice_slash	9	practice_slash	29	stimuli_target_squarediamonds.svg	stimuli_distractor_trianglediamonds.svg	5	yes	53	1	808
6.6.1	win	2022-12-14	12:35:44	12:43:51	485807	5a78dbb9ae9a0b0001a97212	213184778	1	practice_slash	9	advance_on_keypress_SLASH	30	stimuli_target_squarediamonds.svg	stimuli_distractor_trianglediamonds.svg	5	yes	57	0	367
6.6.1	win	2022-12-14	12:35:44	12:43:55	489817	5a78dbb9ae9a0b0001a97212	213184778	1	practice_slash	9	practice_slash	31	stimuli_distractor_trianglediamonds.svg	stimuli_distractor_diamondtriangles.svg	16	no	0	1	2000
6.6.1	win	2022-12-14	12:35:44	12:43:55	489817	5a78dbb9ae9a0b0001a97212	213184778	1	practice_slash	9	advance_on_keypress_SLASH	32	stimuli_distractor_trianglediamonds.svg	stimuli_distractor_diamondtriangles.svg	16	no	57	0	534
6.6.1	win	2022-12-14	12:35:44	12:44:00	494525	5a78dbb9ae9a0b0001a97212	213184778	1	main_slash	11	main_slash	1	stimuli_distractor_trianglediamonds.svg	stimuli_target_squaretriangles.svg	11	yes	53	1	828
6.6.1	win	2022-12-14	12:35:44	12:44:00	494525	5a78dbb9ae9a0b0001a97212	213184778	1	main_slash	11	advance_on_keypress_SLASH	2	stimuli_distractor_trianglediamonds.svg	stimuli_target_squaretriangles.svg	11	yes	57	0	722
6.6.1	win	2022-12-14	12:35:44	12:44:02	496709	5a78dbb9ae9a0b0001a97212	213184778	1	main_slash	11	main_slash	3	stimuli_distractor_diamondtriangles.svg	stimuli_target_squaretriangles.svg	15	yes	53	1	812
6.6.1	win	2022-12-14	12:35:44	12:44:02	496709	5a78dbb9ae9a0b0001a97212	213184778	1	main_slash	11	advance_on_keypress_SLASH	4	stimuli_distractor_diamondtriangles.svg	stimuli_target_squaretriangles.svg	15	yes	57	0	1299
6.6.1	win	2022-12-14	12:35:44	12:44:06	500647	5a78dbb9ae9a0b0001a97212	213184778	1	main_slash	11	main_slash	5	stimuli_distractor_trianglediamonds.svg	stimuli_distractor_diamondtriangles.svg	35	no	0	1	2000
6.6.1	win	2022-12-14	12:35:44	12:44:06	500647	5a78dbb9ae9a0b0001a97212	213184778	1	main_slash	11	advance_on_keypress_SLASH	6	stimuli_distractor_trianglediamonds.svg	stimuli_distractor_diamondtriangles.svg	35	no	57	0	541
6.6.1	win	2022-12-14	12:35:44	12:44:08	502748	5a78dbb9ae9a0b0001a97212	213184778	1	main_slash	11	main_slash	7	stimuli_distractor_diamondtriangles.svg	stimuli_target_circletriangles.svg	13	yes	53	1	919
6.6.1	win	2022-12-14	12:35:44	12:44:08	502748	5a78dbb9ae9a0b0001a97212	213184778	1	main_slash	11	advance_on_keypress_SLASH	8	stimuli_distractor_diamondtriangles.svg	stimuli_target_circletriangles.svg	13	yes	57	0	737
6.6.1	win	2022-12-14	12:35:44	12:44:10	505004	5a78dbb9ae9a0b0001a97212	213184778	1	main_slash	11	main_slash	9	stimuli_target_squaretriangles.svg	stimuli_distractor_trianglediamonds.svg	3	yes	53	1	875
6.6.1	win	2022-12-14	12:35:44	12:44:10	505004	5a78dbb9ae9a0b0001a97212	213184778	1	main_slash	11	advance_on_keypress_SLASH	10	stimuli_target_squaretriangles.svg	stimuli_distractor_trianglediamonds.svg	3	yes	57	0	927
6.6.1	win	2022-12-14	12:35:44	12:44:14	508563	5a78dbb9ae9a0b0001a97212	213184778	1	main_slash	11	main_slash	11	stimuli_distractor_diamondtriangles.svg	stimuli_distractor_trianglediamonds.svg	37	no	0	1	2000
6.6.1	win	2022-12-14	12:35:44	12:44:14	508563	5a78dbb9ae9a0b0001a97212	213184778	1	main_slash	11	advance_on_keypress_SLASH	12	stimuli_distractor_diamondtriangles.svg	stimuli_distractor_trianglediamonds.svg	37	no	57	0	377
6.6.1	win	2022-12-14	12:35:44	12:44:17	511579	5a78dbb9ae9a0b0001a97212	213184778	1	main_slash	11	main_slash	13	stimuli_target_diamondsquares.svg	stimuli_distractor_trianglediamonds.svg	20	yes	0	0	2000
6.6.1	win	2022-12-14	12:35:44	12:44:17	511579	5a78dbb9ae9a0b0001a97212	213184778	1	main_slash	11	advance_on_keypress_SLASH	14	stimuli_target_diamondsquares.svg	stimuli_distractor_trianglediamonds.svg	20	yes	57	0	296
6.6.1	win	2022-12-14	12:35:44	12:44:19	513404	5a78dbb9ae9a0b0001a97212	213184778	1	main_slash	11	main_slash	15	stimuli_target_circletriangles.svg	stimuli_distractor_trianglediamonds.svg	1	yes	53	1	892
6.6.1	win	2022-12-14	12:35:44	12:44:19	513404	5a78dbb9ae9a0b0001a97212	213184778	1	main_slash	11	advance_on_keypress_SLASH	16	stimuli_target_circletriangles.svg	stimuli_distractor_trianglediamonds.svg	1	yes	57	0	728
6.6.1	win	2022-12-14	12:35:44	12:44:21	515620	5a78dbb9ae9a0b0001a97212	213184778	1	main_slash	11	main_slash	17	stimuli_target_squaretriangles.svg	stimuli_distractor_diamondtriangles.svg	7	yes	53	1	858
6.6.1	win	2022-12-14	12:35:44	12:44:21	515620	5a78dbb9ae9a0b0001a97212	213184778	1	main_slash	11	advance_on_keypress_SLASH	18	stimuli_target_squaretriangles.svg	stimuli_distractor_diamondtriangles.svg	7	yes	57	0	575
6.6.1	win	2022-12-14	12:35:44	12:44:23	517660	5a78dbb9ae9a0b0001a97212	213184778	1	main_slash	11	main_slash	19	stimuli_target_circlediamonds.svg	stimuli_distractor_trianglediamonds.svg	2	yes	53	1	831
6.6.1	win	2022-12-14	12:35:44	12:44:23	517660	5a78dbb9ae9a0b0001a97212	213184778	1	main_slash	11	advance_on_keypress_SLASH	20	stimuli_target_circlediamonds.svg	stimuli_distractor_trianglediamonds.svg	2	yes	57	0	534
6.6.1	win	2022-12-14	12:35:44	12:44:25	519692	5a78dbb9ae9a0b0001a97212	213184778	1	main_slash	11	main_slash	21	stimuli_target_circletriangles.svg	stimuli_distractor_diamondtriangles.svg	5	yes	53	1	863
6.6.1	win	2022-12-14	12:35:44	12:44:25	519692	5a78dbb9ae9a0b0001a97212	213184778	1	main_slash	11	advance_on_keypress_SLASH	22	stimuli_target_circletriangles.svg	stimuli_distractor_diamondtriangles.svg	5	yes	57	0	565
6.6.1	win	2022-12-14	12:35:44	12:44:28	522364	5a78dbb9ae9a0b0001a97212	213184778	1	main_slash	11	main_slash	23	stimuli_distractor_trianglediamonds.svg	stimuli_target_trianglesquares.svg	26	yes	53	1	1485
6.6.1	win	2022-12-14	12:35:44	12:44:28	522364	5a78dbb9ae9a0b0001a97212	213184778	1	main_slash	11	advance_on_keypress_SLASH	24	stimuli_distractor_trianglediamonds.svg	stimuli_target_trianglesquares.svg	26	yes	57	0	457
6.6.1	win	2022-12-14	12:35:44	12:44:31	525462	5a78dbb9ae9a0b0001a97212	213184778	1	main_slash	11	main_slash	25	stimuli_distractor_diamondtriangles.svg	stimuli_distractor_diamondtriangles.svg	39	no	0	1	2000
6.6.1	win	2022-12-14	12:35:44	12:44:31	525462	5a78dbb9ae9a0b0001a97212	213184778	1	main_slash	11	advance_on_keypress_SLASH	26	stimuli_distractor_diamondtriangles.svg	stimuli_distractor_diamondtriangles.svg	39	no	57	0	477
6.6.1	win	2022-12-14	12:35:44	12:44:34	528579	5a78dbb9ae9a0b0001a97212	213184778	1	main_slash	11	main_slash	27	stimuli_target_diamondsquares.svg	stimuli_distractor_diamondtriangles.svg	24	yes	0	0	2000
6.6.1	win	2022-12-14	12:35:44	12:44:34	528579	5a78dbb9ae9a0b0001a97212	213184778	1	main_slash	11	advance_on_keypress_SLASH	28	stimuli_target_diamondsquares.svg	stimuli_distractor_diamondtriangles.svg	24	yes	57	0	737
6.6.1	win	2022-12-14	12:35:44	12:44:37	531962	5a78dbb9ae9a0b0001a97212	213184778	1	main_slash	11	main_slash	29	stimuli_distractor_trianglediamonds.svg	stimuli_distractor_trianglediamonds.svg	33	no	0	1	2000
6.6.1	win	2022-12-14	12:35:44	12:44:37	531962	5a78dbb9ae9a0b0001a97212	213184778	1	main_slash	11	advance_on_keypress_SLASH	30	stimuli_distractor_trianglediamonds.svg	stimuli_distractor_trianglediamonds.svg	33	no	57	0	306
6.6.1	win	2022-12-14	12:35:44	12:44:39	533772	5a78dbb9ae9a0b0001a97212	213184778	1	main_slash	11	main_slash	31	stimuli_distractor_trianglediamonds.svg	stimuli_target_squarediamonds.svg	12	yes	53	1	860
6.6.1	win	2022-12-14	12:35:44	12:44:39	533772	5a78dbb9ae9a0b0001a97212	213184778	1	main_slash	11	advance_on_keypress_SLASH	32	stimuli_distractor_trianglediamonds.svg	stimuli_target_squarediamonds.svg	12	yes	57	0	610
6.6.1	win	2022-12-14	12:35:44	12:44:41	535997	5a78dbb9ae9a0b0001a97212	213184778	1	main_slash	11	main_slash	33	stimuli_distractor_trianglediamonds.svg	stimuli_target_diamondsquares.svg	28	yes	53	1	984
6.6.1	win	2022-12-14	12:35:44	12:44:41	535997	5a78dbb9ae9a0b0001a97212	213184778	1	main_slash	11	advance_on_keypress_SLASH	34	stimuli_distractor_trianglediamonds.svg	stimuli_target_diamondsquares.svg	28	yes	57	0	536
6.6.1	win	2022-12-14	12:35:44	12:44:44	539179	5a78dbb9ae9a0b0001a97212	213184778	1	main_slash	11	main_slash	35	stimuli_distractor_diamondtriangles.svg	stimuli_distractor_trianglediamonds.svg	38	no	0	1	2000
6.6.1	win	2022-12-14	12:35:44	12:44:44	539179	5a78dbb9ae9a0b0001a97212	213184778	1	main_slash	11	advance_on_keypress_SLASH	36	stimuli_distractor_diamondtriangles.svg	stimuli_distractor_trianglediamonds.svg	38	no	57	0	457
6.6.1	win	2022-12-14	12:35:44	12:44:46	541068	5a78dbb9ae9a0b0001a97212	213184778	1	main_slash	11	main_slash	37	stimuli_distractor_trianglediamonds.svg	stimuli_target_circlediamonds.svg	10	yes	53	1	790
6.6.1	win	2022-12-14	12:35:44	12:44:46	541068	5a78dbb9ae9a0b0001a97212	213184778	1	main_slash	11	advance_on_keypress_SLASH	38	stimuli_distractor_trianglediamonds.svg	stimuli_target_circlediamonds.svg	10	yes	57	0	734
6.6.1	win	2022-12-14	12:35:44	12:44:49	543372	5a78dbb9ae9a0b0001a97212	213184778	1	main_slash	11	main_slash	39	stimuli_target_trianglecircles.svg	stimuli_distractor_trianglediamonds.svg	17	yes	53	1	927
6.6.1	win	2022-12-14	12:35:44	12:44:49	543372	5a78dbb9ae9a0b0001a97212	213184778	1	main_slash	11	advance_on_keypress_SLASH	40	stimuli_target_trianglecircles.svg	stimuli_distractor_trianglediamonds.svg	17	yes	57	0	578
6.6.1	win	2022-12-14	12:35:44	12:44:51	545517	5a78dbb9ae9a0b0001a97212	213184778	1	main_slash	11	main_slash	41	stimuli_target_diamondcircles.svg	stimuli_distractor_trianglediamonds.svg	19	yes	53	1	938
6.6.1	win	2022-12-14	12:35:44	12:44:51	545517	5a78dbb9ae9a0b0001a97212	213184778	1	main_slash	11	advance_on_keypress_SLASH	42	stimuli_target_diamondcircles.svg	stimuli_distractor_trianglediamonds.svg	19	yes	57	0	508
6.6.1	win	2022-12-14	12:35:44	12:44:54	548662	5a78dbb9ae9a0b0001a97212	213184778	1	main_slash	11	main_slash	43	stimuli_distractor_trianglediamonds.svg	stimuli_distractor_trianglediamonds.svg	34	no	0	1	2000
6.6.1	win	2022-12-14	12:35:44	12:44:54	548662	5a78dbb9ae9a0b0001a97212	213184778	1	main_slash	11	advance_on_keypress_SLASH	44	stimuli_distractor_trianglediamonds.svg	stimuli_distractor_trianglediamonds.svg	34	no	57	0	550
6.6.1	win	2022-12-14	12:35:44	12:44:56	550653	5a78dbb9ae9a0b0001a97212	213184778	1	main_slash	11	main_slash	45	stimuli_distractor_diamondtriangles.svg	stimuli_target_squarediamonds.svg	16	yes	53	1	791
6.6.1	win	2022-12-14	12:35:44	12:44:56	550653	5a78dbb9ae9a0b0001a97212	213184778	1	main_slash	11	advance_on_keypress_SLASH	46	stimuli_distractor_diamondtriangles.svg	stimuli_target_squarediamonds.svg	16	yes	57	0	559
6.6.1	win	2022-12-14	12:35:44	12:44:59	553848	5a78dbb9ae9a0b0001a97212	213184778	1	main_slash	11	main_slash	47	stimuli_distractor_diamondtriangles.svg	stimuli_distractor_diamondtriangles.svg	40	no	0	1	2000
6.6.1	win	2022-12-14	12:35:44	12:44:59	553848	5a78dbb9ae9a0b0001a97212	213184778	1	main_slash	11	advance_on_keypress_SLASH	48	stimuli_distractor_diamondtriangles.svg	stimuli_distractor_diamondtriangles.svg	40	no	57	0	343
6.6.1	win	2022-12-14	12:35:44	12:45:01	555661	5a78dbb9ae9a0b0001a97212	213184778	1	main_slash	11	main_slash	49	stimuli_distractor_diamondtriangles.svg	stimuli_target_trianglecircles.svg	29	yes	53	1	832
6.6.1	win	2022-12-14	12:35:44	12:45:01	555661	5a78dbb9ae9a0b0001a97212	213184778	1	main_slash	11	advance_on_keypress_SLASH	50	stimuli_distractor_diamondtriangles.svg	stimuli_target_trianglecircles.svg	29	yes	57	0	542
6.6.1	win	2022-12-14	12:35:44	12:45:03	557685	5a78dbb9ae9a0b0001a97212	213184778	1	main_slash	11	main_slash	51	stimuli_distractor_trianglediamonds.svg	stimuli_target_diamondcircles.svg	27	yes	53	1	840
6.6.1	win	2022-12-14	12:35:44	12:45:03	557685	5a78dbb9ae9a0b0001a97212	213184778	1	main_slash	11	advance_on_keypress_SLASH	52	stimuli_distractor_trianglediamonds.svg	stimuli_target_diamondcircles.svg	27	yes	57	0	438
6.6.1	win	2022-12-14	12:35:44	12:45:05	559661	5a78dbb9ae9a0b0001a97212	213184778	1	main_slash	11	main_slash	53	stimuli_distractor_diamondtriangles.svg	stimuli_target_circlediamonds.svg	14	yes	53	1	899
6.6.1	win	2022-12-14	12:35:44	12:45:05	559661	5a78dbb9ae9a0b0001a97212	213184778	1	main_slash	11	advance_on_keypress_SLASH	54	stimuli_distractor_diamondtriangles.svg	stimuli_target_circlediamonds.svg	14	yes	57	0	566
6.6.1	win	2022-12-14	12:35:44	12:45:07	561789	5a78dbb9ae9a0b0001a97212	213184778	1	main_slash	11	main_slash	55	stimuli_target_trianglecircles.svg	stimuli_distractor_diamondtriangles.svg	21	yes	53	1	910
6.6.1	win	2022-12-14	12:35:44	12:45:07	561789	5a78dbb9ae9a0b0001a97212	213184778	1	main_slash	11	advance_on_keypress_SLASH	56	stimuli_target_trianglecircles.svg	stimuli_distractor_diamondtriangles.svg	21	yes	57	0	642
6.6.1	win	2022-12-14	12:35:44	12:45:09	564117	5a78dbb9ae9a0b0001a97212	213184778	1	main_slash	11	main_slash	57	stimuli_distractor_diamondtriangles.svg	stimuli_target_trianglesquares.svg	30	yes	53	1	1055
6.6.1	win	2022-12-14	12:35:44	12:45:09	564117	5a78dbb9ae9a0b0001a97212	213184778	1	main_slash	11	advance_on_keypress_SLASH	58	stimuli_distractor_diamondtriangles.svg	stimuli_target_trianglesquares.svg	30	yes	57	0	597
6.6.1	win	2022-12-14	12:35:44	12:45:11	566205	5a78dbb9ae9a0b0001a97212	213184778	1	main_slash	11	main_slash	59	stimuli_target_squarediamonds.svg	stimuli_distractor_trianglediamonds.svg	4	yes	53	1	860
6.6.1	win	2022-12-14	12:35:44	12:45:11	566205	5a78dbb9ae9a0b0001a97212	213184778	1	main_slash	11	advance_on_keypress_SLASH	60	stimuli_target_squarediamonds.svg	stimuli_distractor_trianglediamonds.svg	4	yes	57	0	529
6.6.1	win	2022-12-14	12:35:44	12:45:13	568230	5a78dbb9ae9a0b0001a97212	213184778	1	main_slash	11	main_slash	61	stimuli_distractor_trianglediamonds.svg	stimuli_target_trianglecircles.svg	25	yes	53	1	867
6.6.1	win	2022-12-14	12:35:44	12:45:13	568230	5a78dbb9ae9a0b0001a97212	213184778	1	main_slash	11	advance_on_keypress_SLASH	62	stimuli_distractor_trianglediamonds.svg	stimuli_target_trianglecircles.svg	25	yes	57	0	520
6.6.1	win	2022-12-14	12:35:44	12:45:16	570389	5a78dbb9ae9a0b0001a97212	213184778	1	main_slash	11	main_slash	63	stimuli_target_squarediamonds.svg	stimuli_distractor_diamondtriangles.svg	8	yes	53	1	994
6.6.1	win	2022-12-14	12:35:44	12:45:16	570389	5a78dbb9ae9a0b0001a97212	213184778	1	main_slash	11	advance_on_keypress_SLASH	64	stimuli_target_squarediamonds.svg	stimuli_distractor_diamondtriangles.svg	8	yes	57	0	530
6.6.1	win	2022-12-14	12:35:44	12:45:18	572318	5a78dbb9ae9a0b0001a97212	213184778	1	main_slash	11	main_slash	65	stimuli_distractor_trianglediamonds.svg	stimuli_target_circletriangles.svg	9	yes	53	1	772
6.6.1	win	2022-12-14	12:35:44	12:45:18	572318	5a78dbb9ae9a0b0001a97212	213184778	1	main_slash	11	advance_on_keypress_SLASH	66	stimuli_distractor_trianglediamonds.svg	stimuli_target_circletriangles.svg	9	yes	57	0	380
6.6.1	win	2022-12-14	12:35:44	12:45:21	575329	5a78dbb9ae9a0b0001a97212	213184778	1	main_slash	11	main_slash	67	stimuli_distractor_trianglediamonds.svg	stimuli_distractor_diamondtriangles.svg	36	no	0	1	2000
6.6.1	win	2022-12-14	12:35:44	12:45:21	575329	5a78dbb9ae9a0b0001a97212	213184778	1	main_slash	11	advance_on_keypress_SLASH	68	stimuli_distractor_trianglediamonds.svg	stimuli_distractor_diamondtriangles.svg	36	no	57	0	268
6.6.1	win	2022-12-14	12:35:44	12:45:22	577037	5a78dbb9ae9a0b0001a97212	213184778	1	main_slash	11	main_slash	69	stimuli_distractor_diamondtriangles.svg	stimuli_target_diamondcircles.svg	31	yes	53	1	791
6.6.1	win	2022-12-14	12:35:44	12:45:22	577037	5a78dbb9ae9a0b0001a97212	213184778	1	main_slash	11	advance_on_keypress_SLASH	70	stimuli_distractor_diamondtriangles.svg	stimuli_target_diamondcircles.svg	31	yes	57	0	575
6.6.1	win	2022-12-14	12:35:44	12:45:24	579165	5a78dbb9ae9a0b0001a97212	213184778	1	main_slash	11	main_slash	71	stimuli_target_diamondcircles.svg	stimuli_distractor_diamondtriangles.svg	23	yes	53	1	920
6.6.1	win	2022-12-14	12:35:44	12:45:24	579165	5a78dbb9ae9a0b0001a97212	213184778	1	main_slash	11	advance_on_keypress_SLASH	72	stimuli_target_diamondcircles.svg	stimuli_distractor_diamondtriangles.svg	23	yes	57	0	514
6.6.1	win	2022-12-14	12:35:44	12:45:26	581253	5a78dbb9ae9a0b0001a97212	213184778	1	main_slash	11	main_slash	73	stimuli_distractor_diamondtriangles.svg	stimuli_target_diamondsquares.svg	32	yes	53	1	924
6.6.1	win	2022-12-14	12:35:44	12:45:26	581253	5a78dbb9ae9a0b0001a97212	213184778	1	main_slash	11	advance_on_keypress_SLASH	74	stimuli_distractor_diamondtriangles.svg	stimuli_target_diamondsquares.svg	32	yes	57	0	455
6.6.1	win	2022-12-14	12:35:44	12:45:29	583445	5a78dbb9ae9a0b0001a97212	213184778	1	main_slash	11	main_slash	75	stimuli_target_trianglesquares.svg	stimuli_distractor_diamondtriangles.svg	22	yes	53	1	1099
6.6.1	win	2022-12-14	12:35:44	12:45:29	583445	5a78dbb9ae9a0b0001a97212	213184778	1	main_slash	11	advance_on_keypress_SLASH	76	stimuli_target_trianglesquares.svg	stimuli_distractor_diamondtriangles.svg	22	yes	57	0	463
6.6.1	win	2022-12-14	12:35:44	12:45:31	585381	5a78dbb9ae9a0b0001a97212	213184778	1	main_slash	11	main_slash	77	stimuli_target_trianglesquares.svg	stimuli_distractor_trianglediamonds.svg	18	yes	53	1	819
6.6.1	win	2022-12-14	12:35:44	12:45:31	585381	5a78dbb9ae9a0b0001a97212	213184778	1	main_slash	11	advance_on_keypress_SLASH	78	stimuli_target_trianglesquares.svg	stimuli_distractor_trianglediamonds.svg	18	yes	57	0	346
6.6.1	win	2022-12-14	12:35:44	12:45:32	587101	5a78dbb9ae9a0b0001a97212	213184778	1	main_slash	11	main_slash	79	stimuli_target_circlediamonds.svg	stimuli_distractor_diamondtriangles.svg	6	yes	53	1	739
6.6.1	win	2022-12-14	12:35:44	12:45:32	587101	5a78dbb9ae9a0b0001a97212	213184778	1	main_slash	11	advance_on_keypress_SLASH	80	stimuli_target_circlediamonds.svg	stimuli_distractor_diamondtriangles.svg	6	yes	57	0	357
6.6.1	win	2022-12-14	12:35:44	12:45:35	590095	5a78dbb9ae9a0b0001a97212	213184778	1	main_slash	11	main_slash	81	stimuli_distractor_trianglediamonds.svg	stimuli_distractor_diamondtriangles.svg	36	no	0	1	2000
6.6.1	win	2022-12-14	12:35:44	12:45:35	590095	5a78dbb9ae9a0b0001a97212	213184778	1	main_slash	11	advance_on_keypress_SLASH	82	stimuli_distractor_trianglediamonds.svg	stimuli_distractor_diamondtriangles.svg	36	no	57	0	317
6.6.1	win	2022-12-14	12:35:44	12:45:37	591941	5a78dbb9ae9a0b0001a97212	213184778	1	main_slash	11	main_slash	83	stimuli_distractor_trianglediamonds.svg	stimuli_target_diamondsquares.svg	28	yes	53	1	879
6.6.1	win	2022-12-14	12:35:44	12:45:37	591941	5a78dbb9ae9a0b0001a97212	213184778	1	main_slash	11	advance_on_keypress_SLASH	84	stimuli_distractor_trianglediamonds.svg	stimuli_target_diamondsquares.svg	28	yes	57	0	532
6.6.1	win	2022-12-14	12:35:44	12:45:39	594031	5a78dbb9ae9a0b0001a97212	213184778	1	main_slash	11	main_slash	85	stimuli_distractor_trianglediamonds.svg	stimuli_target_trianglecircles.svg	25	yes	53	1	917
6.6.1	win	2022-12-14	12:35:44	12:45:39	594031	5a78dbb9ae9a0b0001a97212	213184778	1	main_slash	11	advance_on_keypress_SLASH	86	stimuli_distractor_trianglediamonds.svg	stimuli_target_trianglecircles.svg	25	yes	57	0	520
6.6.1	win	2022-12-14	12:35:44	12:45:41	596056	5a78dbb9ae9a0b0001a97212	213184778	1	main_slash	11	main_slash	87	stimuli_distractor_diamondtriangles.svg	stimuli_target_circletriangles.svg	13	yes	53	1	842
6.6.1	win	2022-12-14	12:35:44	12:45:41	596056	5a78dbb9ae9a0b0001a97212	213184778	1	main_slash	11	advance_on_keypress_SLASH	88	stimuli_distractor_diamondtriangles.svg	stimuli_target_circletriangles.svg	13	yes	57	0	447
6.6.1	win	2022-12-14	12:35:44	12:45:44	599144	5a78dbb9ae9a0b0001a97212	213184778	1	main_slash	11	main_slash	89	stimuli_distractor_diamondtriangles.svg	stimuli_distractor_diamondtriangles.svg	39	no	0	1	2000
6.6.1	win	2022-12-14	12:35:44	12:45:44	599144	5a78dbb9ae9a0b0001a97212	213184778	1	main_slash	11	advance_on_keypress_SLASH	90	stimuli_distractor_diamondtriangles.svg	stimuli_distractor_diamondtriangles.svg	39	no	57	0	252
6.6.1	win	2022-12-14	12:35:44	12:45:46	600884	5a78dbb9ae9a0b0001a97212	213184778	1	main_slash	11	main_slash	91	stimuli_distractor_diamondtriangles.svg	stimuli_target_squaretriangles.svg	15	yes	53	1	840
6.6.1	win	2022-12-14	12:35:44	12:45:46	600884	5a78dbb9ae9a0b0001a97212	213184778	1	main_slash	11	advance_on_keypress_SLASH	92	stimuli_distractor_diamondtriangles.svg	stimuli_target_squaretriangles.svg	15	yes	57	0	590
6.6.1	win	2022-12-14	12:35:44	12:45:48	602950	5a78dbb9ae9a0b0001a97212	213184778	1	main_slash	11	main_slash	93	stimuli_target_trianglesquares.svg	stimuli_distractor_trianglediamonds.svg	18	yes	53	1	837
6.6.1	win	2022-12-14	12:35:44	12:45:48	602950	5a78dbb9ae9a0b0001a97212	213184778	1	main_slash	11	advance_on_keypress_SLASH	94	stimuli_target_trianglesquares.svg	stimuli_distractor_trianglediamonds.svg	18	yes	57	0	467
6.6.1	win	2022-12-14	12:35:44	12:45:51	606061	5a78dbb9ae9a0b0001a97212	213184778	1	main_slash	11	main_slash	95	stimuli_distractor_diamondtriangles.svg	stimuli_target_trianglesquares.svg	30	yes	0	0	2000
6.6.1	win	2022-12-14	12:35:44	12:45:51	606061	5a78dbb9ae9a0b0001a97212	213184778	1	main_slash	11	advance_on_keypress_SLASH	96	stimuli_distractor_diamondtriangles.svg	stimuli_target_trianglesquares.svg	30	yes	57	0	295
6.6.1	win	2022-12-14	12:35:44	12:45:54	608994	5a78dbb9ae9a0b0001a97212	213184778	1	main_slash	11	main_slash	97	stimuli_distractor_trianglediamonds.svg	stimuli_distractor_trianglediamonds.svg	33	no	0	1	2000
6.6.1	win	2022-12-14	12:35:44	12:45:54	608994	5a78dbb9ae9a0b0001a97212	213184778	1	main_slash	11	advance_on_keypress_SLASH	98	stimuli_distractor_trianglediamonds.svg	stimuli_distractor_trianglediamonds.svg	33	no	57	0	354
6.6.1	win	2022-12-14	12:35:44	12:45:56	610797	5a78dbb9ae9a0b0001a97212	213184778	1	main_slash	11	main_slash	99	stimuli_distractor_trianglediamonds.svg	stimuli_target_squaretriangles.svg	11	yes	53	1	802
6.6.1	win	2022-12-14	12:35:44	12:45:56	610797	5a78dbb9ae9a0b0001a97212	213184778	1	main_slash	11	advance_on_keypress_SLASH	100	stimuli_distractor_trianglediamonds.svg	stimuli_target_squaretriangles.svg	11	yes	57	0	634
6.6.1	win	2022-12-14	12:35:44	12:45:58	612901	5a78dbb9ae9a0b0001a97212	213184778	1	main_slash	11	main_slash	101	stimuli_distractor_diamondtriangles.svg	stimuli_target_diamondcircles.svg	31	yes	53	1	823
6.6.1	win	2022-12-14	12:35:44	12:45:58	612901	5a78dbb9ae9a0b0001a97212	213184778	1	main_slash	11	advance_on_keypress_SLASH	102	stimuli_distractor_diamondtriangles.svg	stimuli_target_diamondcircles.svg	31	yes	57	0	486
6.6.1	win	2022-12-14	12:35:44	12:46:00	614924	5a78dbb9ae9a0b0001a97212	213184778	1	main_slash	11	main_slash	103	stimuli_distractor_diamondtriangles.svg	stimuli_target_diamondsquares.svg	32	yes	53	1	897
6.6.1	win	2022-12-14	12:35:44	12:46:00	614924	5a78dbb9ae9a0b0001a97212	213184778	1	main_slash	11	advance_on_keypress_SLASH	104	stimuli_distractor_diamondtriangles.svg	stimuli_target_diamondsquares.svg	32	yes	57	0	477
6.6.1	win	2022-12-14	12:35:44	12:46:02	616836	5a78dbb9ae9a0b0001a97212	213184778	1	main_slash	11	main_slash	105	stimuli_target_squarediamonds.svg	stimuli_distractor_trianglediamonds.svg	4	yes	53	1	809
6.6.1	win	2022-12-14	12:35:44	12:46:02	616836	5a78dbb9ae9a0b0001a97212	213184778	1	main_slash	11	advance_on_keypress_SLASH	106	stimuli_target_squarediamonds.svg	stimuli_distractor_trianglediamonds.svg	4	yes	57	0	529
6.6.1	win	2022-12-14	12:35:44	12:46:04	618846	5a78dbb9ae9a0b0001a97212	213184778	1	main_slash	11	main_slash	107	stimuli_target_diamondcircles.svg	stimuli_distractor_diamondtriangles.svg	23	yes	53	1	851
6.6.1	win	2022-12-14	12:35:44	12:46:04	618846	5a78dbb9ae9a0b0001a97212	213184778	1	main_slash	11	advance_on_keypress_SLASH	108	stimuli_target_diamondcircles.svg	stimuli_distractor_diamondtriangles.svg	23	yes	57	0	696
6.6.1	win	2022-12-14	12:35:44	12:46:06	621014	5a78dbb9ae9a0b0001a97212	213184778	1	main_slash	11	main_slash	109	stimuli_distractor_diamondtriangles.svg	stimuli_target_squarediamonds.svg	16	yes	53	1	835
6.6.1	win	2022-12-14	12:35:44	12:46:06	621014	5a78dbb9ae9a0b0001a97212	213184778	1	main_slash	11	advance_on_keypress_SLASH	110	stimuli_distractor_diamondtriangles.svg	stimuli_target_squarediamonds.svg	16	yes	57	0	497
6.6.1	win	2022-12-14	12:35:44	12:46:09	624161	5a78dbb9ae9a0b0001a97212	213184778	1	main_slash	11	main_slash	111	stimuli_target_squaretriangles.svg	stimuli_distractor_diamondtriangles.svg	7	yes	0	0	2000
6.6.1	win	2022-12-14	12:35:44	12:46:09	624161	5a78dbb9ae9a0b0001a97212	213184778	1	main_slash	11	advance_on_keypress_SLASH	112	stimuli_target_squaretriangles.svg	stimuli_distractor_diamondtriangles.svg	7	yes	57	0	347
6.6.1	win	2022-12-14	12:35:44	12:46:12	627160	5a78dbb9ae9a0b0001a97212	213184778	1	main_slash	11	main_slash	113	stimuli_distractor_diamondtriangles.svg	stimuli_distractor_diamondtriangles.svg	40	no	0	1	2000
6.6.1	win	2022-12-14	12:35:44	12:46:12	627160	5a78dbb9ae9a0b0001a97212	213184778	1	main_slash	11	advance_on_keypress_SLASH	114	stimuli_distractor_diamondtriangles.svg	stimuli_distractor_diamondtriangles.svg	40	no	57	0	35
6.6.1	win	2022-12-14	12:35:44	12:46:15	629843	5a78dbb9ae9a0b0001a97212	213184778	1	main_slash	11	main_slash	115	stimuli_distractor_trianglediamonds.svg	stimuli_distractor_trianglediamonds.svg	34	no	0	1	2000
6.6.1	win	2022-12-14	12:35:44	12:46:15	629843	5a78dbb9ae9a0b0001a97212	213184778	1	main_slash	11	advance_on_keypress_SLASH	116	stimuli_distractor_trianglediamonds.svg	stimuli_distractor_trianglediamonds.svg	34	no	57	0	272
6.6.1	win	2022-12-14	12:35:44	12:46:17	631756	5a78dbb9ae9a0b0001a97212	213184778	1	main_slash	11	main_slash	117	stimuli_target_diamondsquares.svg	stimuli_distractor_diamondtriangles.svg	24	yes	53	1	996
6.6.1	win	2022-12-14	12:35:44	12:46:17	631756	5a78dbb9ae9a0b0001a97212	213184778	1	main_slash	11	advance_on_keypress_SLASH	118	stimuli_target_diamondsquares.svg	stimuli_distractor_diamondtriangles.svg	24	yes	57	0	660
6.6.1	win	2022-12-14	12:35:44	12:46:19	633820	5a78dbb9ae9a0b0001a97212	213184778	1	main_slash	11	main_slash	119	stimuli_target_trianglecircles.svg	stimuli_distractor_trianglediamonds.svg	17	yes	53	1	777
6.6.1	win	2022-12-14	12:35:44	12:46:19	633820	5a78dbb9ae9a0b0001a97212	213184778	1	main_slash	11	advance_on_keypress_SLASH	120	stimuli_target_trianglecircles.svg	stimuli_distractor_trianglediamonds.svg	17	yes	57	0	458
6.6.1	win	2022-12-14	12:35:44	12:46:21	635788	5a78dbb9ae9a0b0001a97212	213184778	1	main_slash	11	main_slash	121	stimuli_distractor_trianglediamonds.svg	stimuli_distractor_diamondtriangles.svg	35	no	53	0	878
6.6.1	win	2022-12-14	12:35:44	12:46:21	635788	5a78dbb9ae9a0b0001a97212	213184778	1	main_slash	11	advance_on_keypress_SLASH	122	stimuli_distractor_trianglediamonds.svg	stimuli_distractor_diamondtriangles.svg	35	no	57	0	563
6.6.1	win	2022-12-14	12:35:44	12:46:23	637836	5a78dbb9ae9a0b0001a97212	213184778	1	main_slash	11	main_slash	123	stimuli_distractor_trianglediamonds.svg	stimuli_target_circletriangles.svg	9	yes	53	1	860
6.6.1	win	2022-12-14	12:35:44	12:46:23	637836	5a78dbb9ae9a0b0001a97212	213184778	1	main_slash	11	advance_on_keypress_SLASH	124	stimuli_distractor_trianglediamonds.svg	stimuli_target_circletriangles.svg	9	yes	57	0	537
6.6.1	win	2022-12-14	12:35:44	12:46:25	639797	5a78dbb9ae9a0b0001a97212	213184778	1	main_slash	11	main_slash	125	stimuli_distractor_trianglediamonds.svg	stimuli_target_diamondcircles.svg	27	yes	53	1	786
6.6.1	win	2022-12-14	12:35:44	12:46:25	639797	5a78dbb9ae9a0b0001a97212	213184778	1	main_slash	11	advance_on_keypress_SLASH	126	stimuli_distractor_trianglediamonds.svg	stimuli_target_diamondcircles.svg	27	yes	57	0	610
6.6.1	win	2022-12-14	12:35:44	12:46:27	641845	5a78dbb9ae9a0b0001a97212	213184778	1	main_slash	11	main_slash	127	stimuli_distractor_trianglediamonds.svg	stimuli_target_circlediamonds.svg	10	yes	53	1	801
6.6.1	win	2022-12-14	12:35:44	12:46:27	641845	5a78dbb9ae9a0b0001a97212	213184778	1	main_slash	11	advance_on_keypress_SLASH	128	stimuli_distractor_trianglediamonds.svg	stimuli_target_circlediamonds.svg	10	yes	57	0	681
6.6.1	win	2022-12-14	12:35:44	12:46:29	644004	5a78dbb9ae9a0b0001a97212	213184778	1	main_slash	11	main_slash	129	stimuli_distractor_trianglediamonds.svg	stimuli_target_squarediamonds.svg	12	yes	53	1	828
6.6.1	win	2022-12-14	12:35:44	12:46:29	644004	5a78dbb9ae9a0b0001a97212	213184778	1	main_slash	11	advance_on_keypress_SLASH	130	stimuli_distractor_trianglediamonds.svg	stimuli_target_squarediamonds.svg	12	yes	57	0	675
6.6.1	win	2022-12-14	12:35:44	12:46:31	646172	5a78dbb9ae9a0b0001a97212	213184778	1	main_slash	11	main_slash	131	stimuli_target_trianglesquares.svg	stimuli_distractor_diamondtriangles.svg	22	yes	53	1	863
6.6.1	win	2022-12-14	12:35:44	12:46:31	646172	5a78dbb9ae9a0b0001a97212	213184778	1	main_slash	11	advance_on_keypress_SLASH	132	stimuli_target_trianglesquares.svg	stimuli_distractor_diamondtriangles.svg	22	yes	57	0	532
6.6.1	win	2022-12-14	12:35:44	12:46:33	648188	5a78dbb9ae9a0b0001a97212	213184778	1	main_slash	11	main_slash	133	stimuli_target_squarediamonds.svg	stimuli_distractor_diamondtriangles.svg	8	yes	53	1	845
6.6.1	win	2022-12-14	12:35:44	12:46:33	648188	5a78dbb9ae9a0b0001a97212	213184778	1	main_slash	11	advance_on_keypress_SLASH	134	stimuli_target_squarediamonds.svg	stimuli_distractor_diamondtriangles.svg	8	yes	57	0	523
6.6.1	win	2022-12-14	12:35:44	12:46:37	651343	5a78dbb9ae9a0b0001a97212	213184778	1	main_slash	11	main_slash	135	stimuli_distractor_diamondtriangles.svg	stimuli_distractor_trianglediamonds.svg	37	no	0	1	2000
6.6.1	win	2022-12-14	12:35:44	12:46:37	651343	5a78dbb9ae9a0b0001a97212	213184778	1	main_slash	11	advance_on_keypress_SLASH	136	stimuli_distractor_diamondtriangles.svg	stimuli_distractor_trianglediamonds.svg	37	no	57	0	69
6.6.1	win	2022-12-14	12:35:44	12:46:38	652878	5a78dbb9ae9a0b0001a97212	213184778	1	main_slash	11	main_slash	137	stimuli_distractor_trianglediamonds.svg	stimuli_target_trianglesquares.svg	26	yes	53	1	817
6.6.1	win	2022-12-14	12:35:44	12:46:38	652878	5a78dbb9ae9a0b0001a97212	213184778	1	main_slash	11	advance_on_keypress_SLASH	138	stimuli_distractor_trianglediamonds.svg	stimuli_target_trianglesquares.svg	26	yes	57	0	584
6.6.1	win	2022-12-14	12:35:44	12:46:40	654956	5a78dbb9ae9a0b0001a97212	213184778	1	main_slash	11	main_slash	139	stimuli_target_squaretriangles.svg	stimuli_distractor_trianglediamonds.svg	3	yes	53	1	847
6.6.1	win	2022-12-14	12:35:44	12:46:40	654956	5a78dbb9ae9a0b0001a97212	213184778	1	main_slash	11	advance_on_keypress_SLASH	140	stimuli_target_squaretriangles.svg	stimuli_distractor_trianglediamonds.svg	3	yes	57	0	525
6.6.1	win	2022-12-14	12:35:44	12:46:42	656908	5a78dbb9ae9a0b0001a97212	213184778	1	main_slash	11	main_slash	141	stimuli_target_circletriangles.svg	stimuli_distractor_diamondtriangles.svg	5	yes	53	1	799
6.6.1	win	2022-12-14	12:35:44	12:46:42	656908	5a78dbb9ae9a0b0001a97212	213184778	1	main_slash	11	advance_on_keypress_SLASH	142	stimuli_target_circletriangles.svg	stimuli_distractor_diamondtriangles.svg	5	yes	57	0	646
6.6.1	win	2022-12-14	12:35:44	12:46:44	659013	5a78dbb9ae9a0b0001a97212	213184778	1	main_slash	11	main_slash	143	stimuli_target_diamondcircles.svg	stimuli_distractor_trianglediamonds.svg	19	yes	53	1	820
6.6.1	win	2022-12-14	12:35:44	12:46:44	659013	5a78dbb9ae9a0b0001a97212	213184778	1	main_slash	11	advance_on_keypress_SLASH	144	stimuli_target_diamondcircles.svg	stimuli_distractor_trianglediamonds.svg	19	yes	57	0	627
6.6.1	win	2022-12-14	12:35:44	12:46:46	661046	5a78dbb9ae9a0b0001a97212	213184778	1	main_slash	11	main_slash	145	stimuli_distractor_diamondtriangles.svg	stimuli_target_circlediamonds.svg	14	yes	53	1	768
6.6.1	win	2022-12-14	12:35:44	12:46:46	661046	5a78dbb9ae9a0b0001a97212	213184778	1	main_slash	11	advance_on_keypress_SLASH	146	stimuli_distractor_diamondtriangles.svg	stimuli_target_circlediamonds.svg	14	yes	57	0	569
6.6.1	win	2022-12-14	12:35:44	12:46:48	663078	5a78dbb9ae9a0b0001a97212	213184778	1	main_slash	11	main_slash	147	stimuli_target_circlediamonds.svg	stimuli_distractor_trianglediamonds.svg	2	yes	53	1	817
6.6.1	win	2022-12-14	12:35:44	12:46:48	663078	5a78dbb9ae9a0b0001a97212	213184778	1	main_slash	11	advance_on_keypress_SLASH	148	stimuli_target_circlediamonds.svg	stimuli_distractor_trianglediamonds.svg	2	yes	57	0	632
6.6.1	win	2022-12-14	12:35:44	12:46:50	665172	5a78dbb9ae9a0b0001a97212	213184778	1	main_slash	11	main_slash	149	stimuli_target_circletriangles.svg	stimuli_distractor_trianglediamonds.svg	1	yes	53	1	813
6.6.1	win	2022-12-14	12:35:44	12:46:50	665172	5a78dbb9ae9a0b0001a97212	213184778	1	main_slash	11	advance_on_keypress_SLASH	150	stimuli_target_circletriangles.svg	stimuli_distractor_trianglediamonds.svg	1	yes	57	0	525
6.6.1	win	2022-12-14	12:35:44	12:46:52	667140	5a78dbb9ae9a0b0001a97212	213184778	1	main_slash	11	main_slash	151	stimuli_distractor_diamondtriangles.svg	stimuli_target_trianglecircles.svg	29	yes	53	1	815
6.6.1	win	2022-12-14	12:35:44	12:46:52	667140	5a78dbb9ae9a0b0001a97212	213184778	1	main_slash	11	advance_on_keypress_SLASH	152	stimuli_distractor_diamondtriangles.svg	stimuli_target_trianglecircles.svg	29	yes	57	0	533
6.6.1	win	2022-12-14	12:35:44	12:46:56	670326	5a78dbb9ae9a0b0001a97212	213184778	1	main_slash	11	main_slash	153	stimuli_distractor_diamondtriangles.svg	stimuli_distractor_trianglediamonds.svg	38	no	0	1	2000
6.6.1	win	2022-12-14	12:35:44	12:46:56	670326	5a78dbb9ae9a0b0001a97212	213184778	1	main_slash	11	advance_on_keypress_SLASH	154	stimuli_distractor_diamondtriangles.svg	stimuli_distractor_trianglediamonds.svg	38	no	57	0	230
6.6.1	win	2022-12-14	12:35:44	12:46:57	672084	5a78dbb9ae9a0b0001a97212	213184778	1	main_slash	11	main_slash	155	stimuli_target_circlediamonds.svg	stimuli_distractor_diamondtriangles.svg	6	yes	53	1	892
6.6.1	win	2022-12-14	12:35:44	12:46:57	672084	5a78dbb9ae9a0b0001a97212	213184778	1	main_slash	11	advance_on_keypress_SLASH	156	stimuli_target_circlediamonds.svg	stimuli_distractor_diamondtriangles.svg	6	yes	57	0	736
6.6.1	win	2022-12-14	12:35:44	12:47:00	674428	5a78dbb9ae9a0b0001a97212	213184778	1	main_slash	11	main_slash	157	stimuli_target_diamondsquares.svg	stimuli_distractor_trianglediamonds.svg	20	yes	53	1	970
6.6.1	win	2022-12-14	12:35:44	12:47:00	674428	5a78dbb9ae9a0b0001a97212	213184778	1	main_slash	11	advance_on_keypress_SLASH	158	stimuli_target_diamondsquares.svg	stimuli_distractor_trianglediamonds.svg	20	yes	57	0	570
6.6.1	win	2022-12-14	12:35:44	12:47:03	677646	5a78dbb9ae9a0b0001a97212	213184778	1	main_slash	11	main_slash	159	stimuli_target_trianglecircles.svg	stimuli_distractor_diamondtriangles.svg	21	yes	0	0	2000
6.6.1	win	2022-12-14	12:35:44	12:47:03	677646	5a78dbb9ae9a0b0001a97212	213184778	1	main_slash	11	advance_on_keypress_SLASH	160	stimuli_target_trianglecircles.svg	stimuli_distractor_diamondtriangles.svg	21	yes	57	0	202