build	computer.platform	date	time	timestamp	time_elapsed_ms	subject	group	session	blockcode	blocknum	trialcode	trialnum	stimulus_left	stimulus_right	stim_index	target_present	response	correct	latency
6.6.1	win	2022-12-20	16:45:15	16:50:42	324869	62da4563028fbcadf46412bc	512348560	1	practice_z	5	practice_z	1	stimuli_distractor_trianglediamonds.svg	stimuli_target_squarediamonds.svg	11	yes	0	0	2000
6.6.1	win	2022-12-20	16:45:15	16:50:42	324869	62da4563028fbcadf46412bc	512348560	1	practice_z	5	advance_on_keypress_ZEE	2	stimuli_distractor_trianglediamonds.svg	stimuli_target_squarediamonds.svg	11	yes	57	0	3453
6.6.1	win	2022-12-20	16:45:15	16:50:48	330844	62da4563028fbcadf46412bc	512348560	1	practice_z	5	practice_z	3	stimuli_distractor_diamondtriangles.svg	stimuli_target_trianglecircles.svg	9	yes	44	1	856
6.6.1	win	2022-12-20	16:45:15	16:50:48	330844	62da4563028fbcadf46412bc	512348560	1	practice_z	5	advance_on_keypress_ZEE	4	stimuli_distractor_diamondtriangles.svg	stimuli_target_trianglecircles.svg	9	yes	57	0	1431
6.6.1	win	2022-12-20	16:45:15	16:50:53	335921	62da4563028fbcadf46412bc	512348560	1	practice_z	5	practice_z	5	stimuli_distractor_trianglediamonds.svg	stimuli_target_diamondcircles.svg	12	yes	0	0	2000
6.6.1	win	2022-12-20	16:45:15	16:50:53	335921	62da4563028fbcadf46412bc	512348560	1	practice_z	5	advance_on_keypress_ZEE	6	stimuli_distractor_trianglediamonds.svg	stimuli_target_diamondcircles.svg	12	yes	57	0	772
6.6.1	win	2022-12-20	16:45:15	16:50:56	339172	62da4563028fbcadf46412bc	512348560	1	practice_z	5	practice_z	7	stimuli_target_circlediamonds.svg	stimuli_distractor_trianglediamonds.svg	4	yes	44	1	832
6.6.1	win	2022-12-20	16:45:15	16:50:56	339172	62da4563028fbcadf46412bc	512348560	1	practice_z	5	advance_on_keypress_ZEE	8	stimuli_target_circlediamonds.svg	stimuli_distractor_trianglediamonds.svg	4	yes	57	0	777
6.6.1	win	2022-12-20	16:45:15	16:51:01	343587	62da4563028fbcadf46412bc	512348560	1	practice_z	5	practice_z	9	stimuli_distractor_diamondtriangles.svg	stimuli_target_diamondcircles.svg	8	yes	0	0	2000
6.6.1	win	2022-12-20	16:45:15	16:51:01	343587	62da4563028fbcadf46412bc	512348560	1	practice_z	5	advance_on_keypress_ZEE	10	stimuli_distractor_diamondtriangles.svg	stimuli_target_diamondcircles.svg	8	yes	57	0	840
6.6.1	win	2022-12-20	16:45:15	16:51:04	346740	62da4563028fbcadf46412bc	512348560	1	practice_z	5	practice_z	11	stimuli_distractor_diamondtriangles.svg	stimuli_target_circletriangles.svg	7	yes	44	1	664
6.6.1	win	2022-12-20	16:45:15	16:51:04	346740	62da4563028fbcadf46412bc	512348560	1	practice_z	5	advance_on_keypress_ZEE	12	stimuli_distractor_diamondtriangles.svg	stimuli_target_circletriangles.svg	7	yes	57	0	1266
6.6.1	win	2022-12-20	16:45:15	16:51:09	351654	62da4563028fbcadf46412bc	512348560	1	practice_z	5	practice_z	13	stimuli_distractor_trianglediamonds.svg	stimuli_distractor_trianglediamonds.svg	15	no	0	1	2000
6.6.1	win	2022-12-20	16:45:15	16:51:09	351654	62da4563028fbcadf46412bc	512348560	1	practice_z	5	advance_on_keypress_ZEE	14	stimuli_distractor_trianglediamonds.svg	stimuli_distractor_trianglediamonds.svg	15	no	57	0	2181
6.6.1	win	2022-12-20	16:45:15	16:51:15	357487	62da4563028fbcadf46412bc	512348560	1	practice_z	5	practice_z	15	stimuli_target_diamondsquares.svg	stimuli_distractor_diamondtriangles.svg	3	yes	0	0	2000
6.6.1	win	2022-12-20	16:45:15	16:51:15	357487	62da4563028fbcadf46412bc	512348560	1	practice_z	5	advance_on_keypress_ZEE	16	stimuli_target_diamondsquares.svg	stimuli_distractor_diamondtriangles.svg	3	yes	57	0	1563
6.6.1	win	2022-12-20	16:45:15	16:51:19	361660	62da4563028fbcadf46412bc	512348560	1	practice_z	5	practice_z	17	stimuli_target_squarediamonds.svg	stimuli_distractor_diamondtriangles.svg	2	yes	44	1	955
6.6.1	win	2022-12-20	16:45:15	16:51:19	361660	62da4563028fbcadf46412bc	512348560	1	practice_z	5	advance_on_keypress_ZEE	18	stimuli_target_squarediamonds.svg	stimuli_distractor_diamondtriangles.svg	2	yes	57	0	709
6.6.1	win	2022-12-20	16:45:15	16:51:23	366004	62da4563028fbcadf46412bc	512348560	1	practice_z	5	practice_z	19	stimuli_distractor_diamondtriangles.svg	stimuli_distractor_diamondtriangles.svg	13	no	0	1	2000
6.6.1	win	2022-12-20	16:45:15	16:51:23	366004	62da4563028fbcadf46412bc	512348560	1	practice_z	5	advance_on_keypress_ZEE	20	stimuli_distractor_diamondtriangles.svg	stimuli_distractor_diamondtriangles.svg	13	no	57	0	631
6.6.1	win	2022-12-20	16:45:15	16:51:27	369427	62da4563028fbcadf46412bc	512348560	1	practice_z	5	practice_z	21	stimuli_distractor_trianglediamonds.svg	stimuli_target_circlediamonds.svg	10	yes	44	1	1140
6.6.1	win	2022-12-20	16:45:15	16:51:27	369427	62da4563028fbcadf46412bc	512348560	1	practice_z	5	advance_on_keypress_ZEE	22	stimuli_distractor_trianglediamonds.svg	stimuli_target_circlediamonds.svg	10	yes	57	0	790
6.6.1	win	2022-12-20	16:45:15	16:51:31	373858	62da4563028fbcadf46412bc	512348560	1	practice_z	5	practice_z	23	stimuli_distractor_trianglediamonds.svg	stimuli_distractor_diamondtriangles.svg	16	no	0	1	2000
6.6.1	win	2022-12-20	16:45:15	16:51:31	373858	62da4563028fbcadf46412bc	512348560	1	practice_z	5	advance_on_keypress_ZEE	24	stimuli_distractor_trianglediamonds.svg	stimuli_distractor_diamondtriangles.svg	16	no	57	0	1276
6.6.1	win	2022-12-20	16:45:15	16:51:36	378771	62da4563028fbcadf46412bc	512348560	1	practice_z	5	practice_z	25	stimuli_target_diamondsquares.svg	stimuli_distractor_trianglediamonds.svg	6	yes	0	0	2000
6.6.1	win	2022-12-20	16:45:15	16:51:36	378771	62da4563028fbcadf46412bc	512348560	1	practice_z	5	advance_on_keypress_ZEE	26	stimuli_target_diamondsquares.svg	stimuli_distractor_trianglediamonds.svg	6	yes	57	0	496
6.6.1	win	2022-12-20	16:45:15	16:51:39	382131	62da4563028fbcadf46412bc	512348560	1	practice_z	5	practice_z	27	stimuli_distractor_diamondtriangles.svg	stimuli_distractor_trianglediamonds.svg	14	no	44	0	1210
6.6.1	win	2022-12-20	16:45:15	16:51:39	382131	62da4563028fbcadf46412bc	512348560	1	practice_z	5	advance_on_keypress_ZEE	28	stimuli_distractor_diamondtriangles.svg	stimuli_distractor_trianglediamonds.svg	14	no	57	0	738
6.6.1	win	2022-12-20	16:45:15	16:51:43	385428	62da4563028fbcadf46412bc	512348560	1	practice_z	5	practice_z	29	stimuli_target_circlediamonds.svg	stimuli_distractor_diamondtriangles.svg	1	yes	44	1	923
6.6.1	win	2022-12-20	16:45:15	16:51:43	385428	62da4563028fbcadf46412bc	512348560	1	practice_z	5	advance_on_keypress_ZEE	30	stimuli_target_circlediamonds.svg	stimuli_distractor_diamondtriangles.svg	1	yes	57	0	702
6.6.1	win	2022-12-20	16:45:15	16:51:46	388515	62da4563028fbcadf46412bc	512348560	1	practice_z	5	practice_z	31	stimuli_target_squarediamonds.svg	stimuli_distractor_trianglediamonds.svg	5	yes	44	1	744
6.6.1	win	2022-12-20	16:45:15	16:51:46	388515	62da4563028fbcadf46412bc	512348560	1	practice_z	5	advance_on_keypress_ZEE	32	stimuli_target_squarediamonds.svg	stimuli_distractor_trianglediamonds.svg	5	yes	57	0	602
6.6.1	win	2022-12-20	16:45:15	16:52:06	408522	62da4563028fbcadf46412bc	512348560	1	main_z	7	main_z	1	stimuli_distractor_diamondtriangles.svg	stimuli_target_squarediamonds.svg	16	yes	44	1	834
6.6.1	win	2022-12-20	16:45:15	16:52:06	408522	62da4563028fbcadf46412bc	512348560	1	main_z	7	advance_on_keypress_ZEE	2	stimuli_distractor_diamondtriangles.svg	stimuli_target_squarediamonds.svg	16	yes	57	0	1600
6.6.1	win	2022-12-20	16:45:15	16:52:10	412771	62da4563028fbcadf46412bc	512348560	1	main_z	7	main_z	3	stimuli_distractor_trianglediamonds.svg	stimuli_target_diamondcircles.svg	27	yes	0	0	2000
6.6.1	win	2022-12-20	16:45:15	16:52:10	412771	62da4563028fbcadf46412bc	512348560	1	main_z	7	advance_on_keypress_ZEE	4	stimuli_distractor_trianglediamonds.svg	stimuli_target_diamondcircles.svg	27	yes	57	0	766
6.6.1	win	2022-12-20	16:45:15	16:52:13	416187	62da4563028fbcadf46412bc	512348560	1	main_z	7	main_z	5	stimuli_distractor_diamondtriangles.svg	stimuli_distractor_diamondtriangles.svg	39	no	0	1	2000
6.6.1	win	2022-12-20	16:45:15	16:52:13	416187	62da4563028fbcadf46412bc	512348560	1	main_z	7	advance_on_keypress_ZEE	6	stimuli_distractor_diamondtriangles.svg	stimuli_distractor_diamondtriangles.svg	39	no	57	0	445
6.6.1	win	2022-12-20	16:45:15	16:52:15	417841	62da4563028fbcadf46412bc	512348560	1	main_z	7	main_z	7	stimuli_distractor_trianglediamonds.svg	stimuli_target_squaretriangles.svg	11	yes	44	1	554
6.6.1	win	2022-12-20	16:45:15	16:52:15	417841	62da4563028fbcadf46412bc	512348560	1	main_z	7	advance_on_keypress_ZEE	8	stimuli_distractor_trianglediamonds.svg	stimuli_target_squaretriangles.svg	11	yes	57	0	1611
6.6.1	win	2022-12-20	16:45:15	16:52:19	422087	62da4563028fbcadf46412bc	512348560	1	main_z	7	main_z	9	stimuli_target_diamondsquares.svg	stimuli_distractor_diamondtriangles.svg	24	yes	0	0	2000
6.6.1	win	2022-12-20	16:45:15	16:52:19	422087	62da4563028fbcadf46412bc	512348560	1	main_z	7	advance_on_keypress_ZEE	10	stimuli_target_diamondsquares.svg	stimuli_distractor_diamondtriangles.svg	24	yes	57	0	569
6.6.1	win	2022-12-20	16:45:15	16:52:21	424105	62da4563028fbcadf46412bc	512348560	1	main_z	7	main_z	11	stimuli_distractor_diamondtriangles.svg	stimuli_target_diamondsquares.svg	32	yes	44	1	801
6.6.1	win	2022-12-20	16:45:15	16:52:21	424105	62da4563028fbcadf46412bc	512348560	1	main_z	7	advance_on_keypress_ZEE	12	stimuli_distractor_diamondtriangles.svg	stimuli_target_diamondsquares.svg	32	yes	57	0	881
6.6.1	win	2022-12-20	16:45:15	16:52:25	427637	62da4563028fbcadf46412bc	512348560	1	main_z	7	main_z	13	stimuli_target_diamondcircles.svg	stimuli_distractor_trianglediamonds.svg	19	yes	0	0	2000
6.6.1	win	2022-12-20	16:45:15	16:52:25	427637	62da4563028fbcadf46412bc	512348560	1	main_z	7	advance_on_keypress_ZEE	14	stimuli_target_diamondcircles.svg	stimuli_distractor_trianglediamonds.svg	19	yes	57	0	659
6.6.1	win	2022-12-20	16:45:15	16:52:28	430938	62da4563028fbcadf46412bc	512348560	1	main_z	7	main_z	15	stimuli_distractor_trianglediamonds.svg	stimuli_distractor_diamondtriangles.svg	35	no	0	1	2000
6.6.1	win	2022-12-20	16:45:15	16:52:28	430938	62da4563028fbcadf46412bc	512348560	1	main_z	7	advance_on_keypress_ZEE	16	stimuli_distractor_trianglediamonds.svg	stimuli_distractor_diamondtriangles.svg	35	no	57	0	623
6.6.1	win	2022-12-20	16:45:15	16:52:30	432745	62da4563028fbcadf46412bc	512348560	1	main_z	7	main_z	17	stimuli_target_squaretriangles.svg	stimuli_distractor_trianglediamonds.svg	3	yes	44	1	541
6.6.1	win	2022-12-20	16:45:15	16:52:30	432745	62da4563028fbcadf46412bc	512348560	1	main_z	7	advance_on_keypress_ZEE	18	stimuli_target_squaretriangles.svg	stimuli_distractor_trianglediamonds.svg	3	yes	57	0	1279
6.6.1	win	2022-12-20	16:45:15	16:52:34	436654	62da4563028fbcadf46412bc	512348560	1	main_z	7	main_z	19	stimuli_distractor_trianglediamonds.svg	stimuli_target_circletriangles.svg	9	yes	0	0	2000
6.6.1	win	2022-12-20	16:45:15	16:52:34	436654	62da4563028fbcadf46412bc	512348560	1	main_z	7	advance_on_keypress_ZEE	20	stimuli_distractor_trianglediamonds.svg	stimuli_target_circletriangles.svg	9	yes	57	0	778
6.6.1	win	2022-12-20	16:45:15	16:52:36	438705	62da4563028fbcadf46412bc	512348560	1	main_z	7	main_z	21	stimuli_target_squarediamonds.svg	stimuli_distractor_trianglediamonds.svg	4	yes	44	1	634
6.6.1	win	2022-12-20	16:45:15	16:52:36	438705	62da4563028fbcadf46412bc	512348560	1	main_z	7	advance_on_keypress_ZEE	22	stimuli_target_squarediamonds.svg	stimuli_distractor_trianglediamonds.svg	4	yes	57	0	1048
6.6.1	win	2022-12-20	16:45:15	16:52:39	441905	62da4563028fbcadf46412bc	512348560	1	main_z	7	main_z	23	stimuli_target_trianglecircles.svg	stimuli_distractor_diamondtriangles.svg	21	yes	44	1	1501
6.6.1	win	2022-12-20	16:45:15	16:52:39	441905	62da4563028fbcadf46412bc	512348560	1	main_z	7	advance_on_keypress_ZEE	24	stimuli_target_trianglecircles.svg	stimuli_distractor_diamondtriangles.svg	21	yes	57	0	1352
6.6.1	win	2022-12-20	16:45:15	16:52:42	444817	62da4563028fbcadf46412bc	512348560	1	main_z	7	main_z	25	stimuli_target_diamondcircles.svg	stimuli_distractor_diamondtriangles.svg	23	yes	44	1	913
6.6.1	win	2022-12-20	16:45:15	16:52:42	444817	62da4563028fbcadf46412bc	512348560	1	main_z	7	advance_on_keypress_ZEE	26	stimuli_target_diamondcircles.svg	stimuli_distractor_diamondtriangles.svg	23	yes	57	0	1004
6.6.1	win	2022-12-20	16:45:15	16:52:45	447801	62da4563028fbcadf46412bc	512348560	1	main_z	7	main_z	27	stimuli_target_circletriangles.svg	stimuli_distractor_diamondtriangles.svg	5	yes	44	1	1347
6.6.1	win	2022-12-20	16:45:15	16:52:45	447801	62da4563028fbcadf46412bc	512348560	1	main_z	7	advance_on_keypress_ZEE	28	stimuli_target_circletriangles.svg	stimuli_distractor_diamondtriangles.svg	5	yes	57	0	644
6.6.1	win	2022-12-20	16:45:15	16:52:47	449689	62da4563028fbcadf46412bc	512348560	1	main_z	7	main_z	29	stimuli_distractor_diamondtriangles.svg	stimuli_target_circlediamonds.svg	14	yes	44	1	617
6.6.1	win	2022-12-20	16:45:15	16:52:47	449689	62da4563028fbcadf46412bc	512348560	1	main_z	7	advance_on_keypress_ZEE	30	stimuli_distractor_diamondtriangles.svg	stimuli_target_circlediamonds.svg	14	yes	57	0	696
6.6.1	win	2022-12-20	16:45:15	16:52:49	452145	62da4563028fbcadf46412bc	512348560	1	main_z	7	main_z	31	stimuli_target_trianglecircles.svg	stimuli_distractor_trianglediamonds.svg	17	yes	44	1	1107
6.6.1	win	2022-12-20	16:45:15	16:52:49	452145	62da4563028fbcadf46412bc	512348560	1	main_z	7	advance_on_keypress_ZEE	32	stimuli_target_trianglecircles.svg	stimuli_distractor_trianglediamonds.svg	17	yes	57	0	534
6.6.1	win	2022-12-20	16:45:15	16:52:52	455321	62da4563028fbcadf46412bc	512348560	1	main_z	7	main_z	33	stimuli_distractor_diamondtriangles.svg	stimuli_target_circletriangles.svg	13	yes	0	0	2000
6.6.1	win	2022-12-20	16:45:15	16:52:52	455321	62da4563028fbcadf46412bc	512348560	1	main_z	7	advance_on_keypress_ZEE	34	stimuli_distractor_diamondtriangles.svg	stimuli_target_circletriangles.svg	13	yes	57	0	582
6.6.1	win	2022-12-20	16:45:15	16:52:56	458555	62da4563028fbcadf46412bc	512348560	1	main_z	7	main_z	35	stimuli_target_diamondsquares.svg	stimuli_distractor_trianglediamonds.svg	20	yes	0	0	2000
6.6.1	win	2022-12-20	16:45:15	16:52:56	458555	62da4563028fbcadf46412bc	512348560	1	main_z	7	advance_on_keypress_ZEE	36	stimuli_target_diamondsquares.svg	stimuli_distractor_trianglediamonds.svg	20	yes	57	0	637
6.6.1	win	2022-12-20	16:45:15	16:52:58	460480	62da4563028fbcadf46412bc	512348560	1	main_z	7	main_z	37	stimuli_distractor_diamondtriangles.svg	stimuli_target_trianglesquares.svg	30	yes	44	1	642
6.6.1	win	2022-12-20	16:45:15	16:52:58	460480	62da4563028fbcadf46412bc	512348560	1	main_z	7	advance_on_keypress_ZEE	38	stimuli_distractor_diamondtriangles.svg	stimuli_target_trianglesquares.svg	30	yes	57	0	752
6.6.1	win	2022-12-20	16:45:15	16:53:01	463871	62da4563028fbcadf46412bc	512348560	1	main_z	7	main_z	39	stimuli_distractor_trianglediamonds.svg	stimuli_distractor_trianglediamonds.svg	33	no	0	1	2000
6.6.1	win	2022-12-20	16:45:15	16:53:01	463871	62da4563028fbcadf46412bc	512348560	1	main_z	7	advance_on_keypress_ZEE	40	stimuli_distractor_trianglediamonds.svg	stimuli_distractor_trianglediamonds.svg	33	no	57	0	792
6.6.1	win	2022-12-20	16:45:15	16:53:03	466200	62da4563028fbcadf46412bc	512348560	1	main_z	7	main_z	41	stimuli_distractor_diamondtriangles.svg	stimuli_distractor_trianglediamonds.svg	38	no	44	0	895
6.6.1	win	2022-12-20	16:45:15	16:53:03	466200	62da4563028fbcadf46412bc	512348560	1	main_z	7	advance_on_keypress_ZEE	42	stimuli_distractor_diamondtriangles.svg	stimuli_distractor_trianglediamonds.svg	38	no	57	0	563
6.6.1	win	2022-12-20	16:45:15	16:53:07	469405	62da4563028fbcadf46412bc	512348560	1	main_z	7	main_z	43	stimuli_distractor_diamondtriangles.svg	stimuli_distractor_trianglediamonds.svg	37	no	0	1	2000
6.6.1	win	2022-12-20	16:45:15	16:53:07	469405	62da4563028fbcadf46412bc	512348560	1	main_z	7	advance_on_keypress_ZEE	44	stimuli_distractor_diamondtriangles.svg	stimuli_distractor_trianglediamonds.svg	37	no	57	0	675
6.6.1	win	2022-12-20	16:45:15	16:53:10	472722	62da4563028fbcadf46412bc	512348560	1	main_z	7	main_z	45	stimuli_distractor_trianglediamonds.svg	stimuli_distractor_trianglediamonds.svg	34	no	0	1	2000
6.6.1	win	2022-12-20	16:45:15	16:53:10	472722	62da4563028fbcadf46412bc	512348560	1	main_z	7	advance_on_keypress_ZEE	46	stimuli_distractor_trianglediamonds.svg	stimuli_distractor_trianglediamonds.svg	34	no	57	0	766
6.6.1	win	2022-12-20	16:45:15	16:53:12	474872	62da4563028fbcadf46412bc	512348560	1	main_z	7	main_z	47	stimuli_distractor_trianglediamonds.svg	stimuli_target_trianglecircles.svg	25	yes	44	1	734
6.6.1	win	2022-12-20	16:45:15	16:53:12	474872	62da4563028fbcadf46412bc	512348560	1	main_z	7	advance_on_keypress_ZEE	48	stimuli_distractor_trianglediamonds.svg	stimuli_target_trianglecircles.svg	25	yes	57	0	1352
6.6.1	win	2022-12-20	16:45:15	16:53:15	477744	62da4563028fbcadf46412bc	512348560	1	main_z	7	main_z	49	stimuli_distractor_trianglediamonds.svg	stimuli_target_circlediamonds.svg	10	yes	44	1	872
6.6.1	win	2022-12-20	16:45:15	16:53:15	477744	62da4563028fbcadf46412bc	512348560	1	main_z	7	advance_on_keypress_ZEE	50	stimuli_distractor_trianglediamonds.svg	stimuli_target_circlediamonds.svg	10	yes	57	0	933
6.6.1	win	2022-12-20	16:45:15	16:53:18	480384	62da4563028fbcadf46412bc	512348560	1	main_z	7	main_z	51	stimuli_distractor_diamondtriangles.svg	stimuli_target_trianglecircles.svg	29	yes	44	1	1062
6.6.1	win	2022-12-20	16:45:15	16:53:18	480384	62da4563028fbcadf46412bc	512348560	1	main_z	7	advance_on_keypress_ZEE	52	stimuli_distractor_diamondtriangles.svg	stimuli_target_trianglecircles.svg	29	yes	57	0	932
6.6.1	win	2022-12-20	16:45:15	16:53:20	482904	62da4563028fbcadf46412bc	512348560	1	main_z	7	main_z	53	stimuli_distractor_diamondtriangles.svg	stimuli_target_diamondcircles.svg	31	yes	44	1	949
6.6.1	win	2022-12-20	16:45:15	16:53:20	482904	62da4563028fbcadf46412bc	512348560	1	main_z	7	advance_on_keypress_ZEE	54	stimuli_distractor_diamondtriangles.svg	stimuli_target_diamondcircles.svg	31	yes	57	0	710
6.6.1	win	2022-12-20	16:45:15	16:53:22	485056	62da4563028fbcadf46412bc	512348560	1	main_z	7	main_z	55	stimuli_target_squaretriangles.svg	stimuli_distractor_diamondtriangles.svg	7	yes	44	1	801
6.6.1	win	2022-12-20	16:45:15	16:53:22	485056	62da4563028fbcadf46412bc	512348560	1	main_z	7	advance_on_keypress_ZEE	56	stimuli_target_squaretriangles.svg	stimuli_distractor_diamondtriangles.svg	7	yes	57	0	688
6.6.1	win	2022-12-20	16:45:15	16:53:24	486904	62da4563028fbcadf46412bc	512348560	1	main_z	7	main_z	57	stimuli_target_circlediamonds.svg	stimuli_distractor_trianglediamonds.svg	2	yes	44	1	516
6.6.1	win	2022-12-20	16:45:15	16:53:24	486904	62da4563028fbcadf46412bc	512348560	1	main_z	7	advance_on_keypress_ZEE	58	stimuli_target_circlediamonds.svg	stimuli_distractor_trianglediamonds.svg	2	yes	57	0	702
6.6.1	win	2022-12-20	16:45:15	16:53:26	488856	62da4563028fbcadf46412bc	512348560	1	main_z	7	main_z	59	stimuli_target_circletriangles.svg	stimuli_distractor_trianglediamonds.svg	1	yes	44	1	601
6.6.1	win	2022-12-20	16:45:15	16:53:26	488856	62da4563028fbcadf46412bc	512348560	1	main_z	7	advance_on_keypress_ZEE	60	stimuli_target_circletriangles.svg	stimuli_distractor_trianglediamonds.svg	1	yes	57	0	808
6.6.1	win	2022-12-20	16:45:15	16:53:29	492305	62da4563028fbcadf46412bc	512348560	1	main_z	7	main_z	61	stimuli_target_trianglesquares.svg	stimuli_distractor_diamondtriangles.svg	22	yes	0	0	2000
6.6.1	win	2022-12-20	16:45:15	16:53:29	492305	62da4563028fbcadf46412bc	512348560	1	main_z	7	advance_on_keypress_ZEE	62	stimuli_target_trianglesquares.svg	stimuli_distractor_diamondtriangles.svg	22	yes	57	0	910
6.6.1	win	2022-12-20	16:45:15	16:53:33	495856	62da4563028fbcadf46412bc	512348560	1	main_z	7	main_z	63	stimuli_distractor_trianglediamonds.svg	stimuli_target_trianglesquares.svg	26	yes	0	0	2000
6.6.1	win	2022-12-20	16:45:15	16:53:33	495856	62da4563028fbcadf46412bc	512348560	1	main_z	7	advance_on_keypress_ZEE	64	stimuli_distractor_trianglediamonds.svg	stimuli_target_trianglesquares.svg	26	yes	57	0	520
6.6.1	win	2022-12-20	16:45:15	16:53:35	498168	62da4563028fbcadf46412bc	512348560	1	main_z	7	main_z	65	stimuli_distractor_trianglediamonds.svg	stimuli_target_diamondsquares.svg	28	yes	44	1	1146
6.6.1	win	2022-12-20	16:45:15	16:53:35	498168	62da4563028fbcadf46412bc	512348560	1	main_z	7	advance_on_keypress_ZEE	66	stimuli_distractor_trianglediamonds.svg	stimuli_target_diamondsquares.svg	28	yes	57	0	644
6.6.1	win	2022-12-20	16:45:15	16:53:39	501439	62da4563028fbcadf46412bc	512348560	1	main_z	7	main_z	67	stimuli_target_trianglesquares.svg	stimuli_distractor_trianglediamonds.svg	18	yes	0	0	2000
6.6.1	win	2022-12-20	16:45:15	16:53:39	501439	62da4563028fbcadf46412bc	512348560	1	main_z	7	advance_on_keypress_ZEE	68	stimuli_target_trianglesquares.svg	stimuli_distractor_trianglediamonds.svg	18	yes	57	0	880
6.6.1	win	2022-12-20	16:45:15	16:53:42	504972	62da4563028fbcadf46412bc	512348560	1	main_z	7	main_z	69	stimuli_distractor_trianglediamonds.svg	stimuli_distractor_diamondtriangles.svg	36	no	0	1	2000
6.6.1	win	2022-12-20	16:45:15	16:53:42	504972	62da4563028fbcadf46412bc	512348560	1	main_z	7	advance_on_keypress_ZEE	70	stimuli_distractor_trianglediamonds.svg	stimuli_distractor_diamondtriangles.svg	36	no	57	0	506
6.6.1	win	2022-12-20	16:45:15	16:53:44	506608	62da4563028fbcadf46412bc	512348560	1	main_z	7	main_z	71	stimuli_target_circlediamonds.svg	stimuli_distractor_diamondtriangles.svg	6	yes	44	1	485
6.6.1	win	2022-12-20	16:45:15	16:53:44	506608	62da4563028fbcadf46412bc	512348560	1	main_z	7	advance_on_keypress_ZEE	72	stimuli_target_circlediamonds.svg	stimuli_distractor_diamondtriangles.svg	6	yes	57	0	1041
6.6.1	win	2022-12-20	16:45:15	16:53:46	508847	62da4563028fbcadf46412bc	512348560	1	main_z	7	main_z	73	stimuli_target_squarediamonds.svg	stimuli_distractor_diamondtriangles.svg	8	yes	44	1	558
6.6.1	win	2022-12-20	16:45:15	16:53:46	508847	62da4563028fbcadf46412bc	512348560	1	main_z	7	advance_on_keypress_ZEE	74	stimuli_target_squarediamonds.svg	stimuli_distractor_diamondtriangles.svg	8	yes	57	0	648
6.6.1	win	2022-12-20	16:45:15	16:53:48	510735	62da4563028fbcadf46412bc	512348560	1	main_z	7	main_z	75	stimuli_distractor_diamondtriangles.svg	stimuli_target_squaretriangles.svg	15	yes	44	1	596
6.6.1	win	2022-12-20	16:45:15	16:53:48	510735	62da4563028fbcadf46412bc	512348560	1	main_z	7	advance_on_keypress_ZEE	76	stimuli_distractor_diamondtriangles.svg	stimuli_target_squaretriangles.svg	15	yes	57	0	2100
6.6.1	win	2022-12-20	16:45:15	16:53:53	515472	62da4563028fbcadf46412bc	512348560	1	main_z	7	main_z	77	stimuli_distractor_diamondtriangles.svg	stimuli_distractor_diamondtriangles.svg	40	no	0	1	2000
6.6.1	win	2022-12-20	16:45:15	16:53:53	515472	62da4563028fbcadf46412bc	512348560	1	main_z	7	advance_on_keypress_ZEE	78	stimuli_distractor_diamondtriangles.svg	stimuli_distractor_diamondtriangles.svg	40	no	57	0	646
6.6.1	win	2022-12-20	16:45:15	16:53:54	517247	62da4563028fbcadf46412bc	512348560	1	main_z	7	main_z	79	stimuli_distractor_trianglediamonds.svg	stimuli_target_squarediamonds.svg	12	yes	44	1	475
6.6.1	win	2022-12-20	16:45:15	16:53:54	517247	62da4563028fbcadf46412bc	512348560	1	main_z	7	advance_on_keypress_ZEE	80	stimuli_distractor_trianglediamonds.svg	stimuli_target_squarediamonds.svg	12	yes	57	0	615
6.6.1	win	2022-12-20	16:45:15	16:53:56	518999	62da4563028fbcadf46412bc	512348560	1	main_z	7	main_z	81	stimuli_distractor_diamondtriangles.svg	stimuli_target_trianglecircles.svg	29	yes	44	1	493
6.6.1	win	2022-12-20	16:45:15	16:53:56	518999	62da4563028fbcadf46412bc	512348560	1	main_z	7	advance_on_keypress_ZEE	82	stimuli_distractor_diamondtriangles.svg	stimuli_target_trianglecircles.svg	29	yes	57	0	825
6.6.1	win	2022-12-20	16:45:15	16:54:00	522456	62da4563028fbcadf46412bc	512348560	1	main_z	7	main_z	83	stimuli_distractor_trianglediamonds.svg	stimuli_target_trianglesquares.svg	26	yes	0	0	2000
6.6.1	win	2022-12-20	16:45:15	16:54:00	522456	62da4563028fbcadf46412bc	512348560	1	main_z	7	advance_on_keypress_ZEE	84	stimuli_distractor_trianglediamonds.svg	stimuli_target_trianglesquares.svg	26	yes	57	0	695
6.6.1	win	2022-12-20	16:45:15	16:54:03	525789	62da4563028fbcadf46412bc	512348560	1	main_z	7	main_z	85	stimuli_distractor_diamondtriangles.svg	stimuli_distractor_trianglediamonds.svg	37	no	0	1	2000
6.6.1	win	2022-12-20	16:45:15	16:54:03	525789	62da4563028fbcadf46412bc	512348560	1	main_z	7	advance_on_keypress_ZEE	86	stimuli_distractor_diamondtriangles.svg	stimuli_distractor_trianglediamonds.svg	37	no	57	0	505
6.6.1	win	2022-12-20	16:45:15	16:54:06	528940	62da4563028fbcadf46412bc	512348560	1	main_z	7	main_z	87	stimuli_target_trianglesquares.svg	stimuli_distractor_diamondtriangles.svg	22	yes	0	0	2000
6.6.1	win	2022-12-20	16:45:15	16:54:06	528940	62da4563028fbcadf46412bc	512348560	1	main_z	7	advance_on_keypress_ZEE	88	stimuli_target_trianglesquares.svg	stimuli_distractor_diamondtriangles.svg	22	yes	57	0	611
6.6.1	win	2022-12-20	16:45:15	16:54:08	530831	62da4563028fbcadf46412bc	512348560	1	main_z	7	main_z	89	stimuli_distractor_diamondtriangles.svg	stimuli_target_squarediamonds.svg	16	yes	44	1	642
6.6.1	win	2022-12-20	16:45:15	16:54:08	530831	62da4563028fbcadf46412bc	512348560	1	main_z	7	advance_on_keypress_ZEE	90	stimuli_distractor_diamondtriangles.svg	stimuli_target_squarediamonds.svg	16	yes	57	0	776
6.6.1	win	2022-12-20	16:45:15	16:54:10	532703	62da4563028fbcadf46412bc	512348560	1	main_z	7	main_z	91	stimuli_target_circletriangles.svg	stimuli_distractor_diamondtriangles.svg	5	yes	44	1	464
6.6.1	win	2022-12-20	16:45:15	16:54:10	532703	62da4563028fbcadf46412bc	512348560	1	main_z	7	advance_on_keypress_ZEE	92	stimuli_target_circletriangles.svg	stimuli_distractor_diamondtriangles.svg	5	yes	57	0	660
6.6.1	win	2022-12-20	16:45:15	16:54:13	536006	62da4563028fbcadf46412bc	512348560	1	main_z	7	main_z	93	stimuli_distractor_trianglediamonds.svg	stimuli_distractor_trianglediamonds.svg	33	no	0	1	2000
6.6.1	win	2022-12-20	16:45:15	16:54:13	536006	62da4563028fbcadf46412bc	512348560	1	main_z	7	advance_on_keypress_ZEE	94	stimuli_distractor_trianglediamonds.svg	stimuli_distractor_trianglediamonds.svg	33	no	57	0	496
6.6.1	win	2022-12-20	16:45:15	16:54:15	537687	62da4563028fbcadf46412bc	512348560	1	main_z	7	main_z	95	stimuli_distractor_trianglediamonds.svg	stimuli_target_trianglecircles.svg	25	yes	44	1	548
6.6.1	win	2022-12-20	16:45:15	16:54:15	537687	62da4563028fbcadf46412bc	512348560	1	main_z	7	advance_on_keypress_ZEE	96	stimuli_distractor_trianglediamonds.svg	stimuli_target_trianglecircles.svg	25	yes	57	0	621
6.6.1	win	2022-12-20	16:45:15	16:54:17	539551	62da4563028fbcadf46412bc	512348560	1	main_z	7	main_z	97	stimuli_target_circletriangles.svg	stimuli_distractor_trianglediamonds.svg	1	yes	44	1	595
6.6.1	win	2022-12-20	16:45:15	16:54:17	539551	62da4563028fbcadf46412bc	512348560	1	main_z	7	advance_on_keypress_ZEE	98	stimuli_target_circletriangles.svg	stimuli_distractor_trianglediamonds.svg	1	yes	57	0	619
6.6.1	win	2022-12-20	16:45:15	16:54:19	541519	62da4563028fbcadf46412bc	512348560	1	main_z	7	main_z	99	stimuli_distractor_trianglediamonds.svg	stimuli_target_squaretriangles.svg	11	yes	44	1	713
6.6.1	win	2022-12-20	16:45:15	16:54:19	541519	62da4563028fbcadf46412bc	512348560	1	main_z	7	advance_on_keypress_ZEE	100	stimuli_distractor_trianglediamonds.svg	stimuli_target_squaretriangles.svg	11	yes	57	0	772
6.6.1	win	2022-12-20	16:45:15	16:54:21	543391	62da4563028fbcadf46412bc	512348560	1	main_z	7	main_z	101	stimuli_target_squarediamonds.svg	stimuli_distractor_trianglediamonds.svg	4	yes	44	1	468
6.6.1	win	2022-12-20	16:45:15	16:54:21	543391	62da4563028fbcadf46412bc	512348560	1	main_z	7	advance_on_keypress_ZEE	102	stimuli_target_squarediamonds.svg	stimuli_distractor_trianglediamonds.svg	4	yes	57	0	609
6.6.1	win	2022-12-20	16:45:15	16:54:22	545155	62da4563028fbcadf46412bc	512348560	1	main_z	7	main_z	103	stimuli_distractor_diamondtriangles.svg	stimuli_distractor_diamondtriangles.svg	40	no	44	0	504
6.6.1	win	2022-12-20	16:45:15	16:54:22	545155	62da4563028fbcadf46412bc	512348560	1	main_z	7	advance_on_keypress_ZEE	104	stimuli_distractor_diamondtriangles.svg	stimuli_distractor_diamondtriangles.svg	40	no	57	0	626
6.6.1	win	2022-12-20	16:45:15	16:54:26	548423	62da4563028fbcadf46412bc	512348560	1	main_z	7	main_z	105	stimuli_distractor_diamondtriangles.svg	stimuli_distractor_diamondtriangles.svg	39	no	0	1	2000
6.6.1	win	2022-12-20	16:45:15	16:54:26	548423	62da4563028fbcadf46412bc	512348560	1	main_z	7	advance_on_keypress_ZEE	106	stimuli_distractor_diamondtriangles.svg	stimuli_distractor_diamondtriangles.svg	39	no	57	0	639
6.6.1	win	2022-12-20	16:45:15	16:54:27	550191	62da4563028fbcadf46412bc	512348560	1	main_z	7	main_z	107	stimuli_distractor_trianglediamonds.svg	stimuli_target_diamondcircles.svg	27	yes	44	1	485
6.6.1	win	2022-12-20	16:45:15	16:54:27	550191	62da4563028fbcadf46412bc	512348560	1	main_z	7	advance_on_keypress_ZEE	108	stimuli_distractor_trianglediamonds.svg	stimuli_target_diamondcircles.svg	27	yes	57	0	569
6.6.1	win	2022-12-20	16:45:15	16:54:29	551927	62da4563028fbcadf46412bc	512348560	1	main_z	7	main_z	109	stimuli_target_trianglecircles.svg	stimuli_distractor_diamondtriangles.svg	21	yes	44	1	521
6.6.1	win	2022-12-20	16:45:15	16:54:29	551927	62da4563028fbcadf46412bc	512348560	1	main_z	7	advance_on_keypress_ZEE	110	stimuli_target_trianglecircles.svg	stimuli_distractor_diamondtriangles.svg	21	yes	57	0	603
6.6.1	win	2022-12-20	16:45:15	16:54:31	553783	62da4563028fbcadf46412bc	512348560	1	main_z	7	main_z	111	stimuli_target_squaretriangles.svg	stimuli_distractor_trianglediamonds.svg	3	yes	44	1	609
6.6.1	win	2022-12-20	16:45:15	16:54:31	553783	62da4563028fbcadf46412bc	512348560	1	main_z	7	advance_on_keypress_ZEE	112	stimuli_target_squaretriangles.svg	stimuli_distractor_trianglediamonds.svg	3	yes	57	0	640
6.6.1	win	2022-12-20	16:45:15	16:54:33	555551	62da4563028fbcadf46412bc	512348560	1	main_z	7	main_z	113	stimuli_distractor_diamondtriangles.svg	stimuli_distractor_trianglediamonds.svg	38	no	44	0	494
6.6.1	win	2022-12-20	16:45:15	16:54:33	555551	62da4563028fbcadf46412bc	512348560	1	main_z	7	advance_on_keypress_ZEE	114	stimuli_distractor_diamondtriangles.svg	stimuli_distractor_trianglediamonds.svg	38	no	57	0	482
6.6.1	win	2022-12-20	16:45:15	16:54:36	558673	62da4563028fbcadf46412bc	512348560	1	main_z	7	main_z	115	stimuli_target_diamondsquares.svg	stimuli_distractor_diamondtriangles.svg	24	yes	0	0	2000
6.6.1	win	2022-12-20	16:45:15	16:54:36	558673	62da4563028fbcadf46412bc	512348560	1	main_z	7	advance_on_keypress_ZEE	116	stimuli_target_diamondsquares.svg	stimuli_distractor_diamondtriangles.svg	24	yes	57	0	612
6.6.1	win	2022-12-20	16:45:15	16:54:38	560526	62da4563028fbcadf46412bc	512348560	1	main_z	7	main_z	117	stimuli_distractor_diamondtriangles.svg	stimuli_target_diamondsquares.svg	32	yes	44	1	586
6.6.1	win	2022-12-20	16:45:15	16:54:38	560526	62da4563028fbcadf46412bc	512348560	1	main_z	7	advance_on_keypress_ZEE	118	stimuli_distractor_diamondtriangles.svg	stimuli_target_diamondsquares.svg	32	yes	57	0	450
6.6.1	win	2022-12-20	16:45:15	16:54:40	562335	62da4563028fbcadf46412bc	512348560	1	main_z	7	main_z	119	stimuli_target_trianglecircles.svg	stimuli_distractor_trianglediamonds.svg	17	yes	44	1	711
6.6.1	win	2022-12-20	16:45:15	16:54:40	562335	62da4563028fbcadf46412bc	512348560	1	main_z	7	advance_on_keypress_ZEE	120	stimuli_target_trianglecircles.svg	stimuli_distractor_trianglediamonds.svg	17	yes	57	0	738
6.6.1	win	2022-12-20	16:45:15	16:54:42	564374	62da4563028fbcadf46412bc	512348560	1	main_z	7	main_z	121	stimuli_target_squaretriangles.svg	stimuli_distractor_diamondtriangles.svg	7	yes	44	1	667
6.6.1	win	2022-12-20	16:45:15	16:54:42	564374	62da4563028fbcadf46412bc	512348560	1	main_z	7	advance_on_keypress_ZEE	122	stimuli_target_squaretriangles.svg	stimuli_distractor_diamondtriangles.svg	7	yes	57	0	592
6.6.1	win	2022-12-20	16:45:15	16:54:45	567607	62da4563028fbcadf46412bc	512348560	1	main_z	7	main_z	123	stimuli_distractor_trianglediamonds.svg	stimuli_distractor_trianglediamonds.svg	34	no	0	1	2000
6.6.1	win	2022-12-20	16:45:15	16:54:45	567607	62da4563028fbcadf46412bc	512348560	1	main_z	7	advance_on_keypress_ZEE	124	stimuli_distractor_trianglediamonds.svg	stimuli_distractor_trianglediamonds.svg	34	no	57	0	4119
6.6.1	win	2022-12-20	16:45:15	16:54:50	572903	62da4563028fbcadf46412bc	512348560	1	main_z	7	main_z	125	stimuli_target_diamondcircles.svg	stimuli_distractor_diamondtriangles.svg	23	yes	44	1	529
6.6.1	win	2022-12-20	16:45:15	16:54:50	572903	62da4563028fbcadf46412bc	512348560	1	main_z	7	advance_on_keypress_ZEE	126	stimuli_target_diamondcircles.svg	stimuli_distractor_diamondtriangles.svg	23	yes	57	0	1147
6.6.1	win	2022-12-20	16:45:15	16:54:52	575294	62da4563028fbcadf46412bc	512348560	1	main_z	7	main_z	127	stimuli_distractor_trianglediamonds.svg	stimuli_target_circlediamonds.svg	10	yes	44	1	604
6.6.1	win	2022-12-20	16:45:15	16:54:52	575294	62da4563028fbcadf46412bc	512348560	1	main_z	7	advance_on_keypress_ZEE	128	stimuli_distractor_trianglediamonds.svg	stimuli_target_circlediamonds.svg	10	yes	57	0	1067
6.6.1	win	2022-12-20	16:45:15	16:54:55	577902	62da4563028fbcadf46412bc	512348560	1	main_z	7	main_z	129	stimuli_distractor_trianglediamonds.svg	stimuli_target_circletriangles.svg	9	yes	44	1	895
6.6.1	win	2022-12-20	16:45:15	16:54:55	577902	62da4563028fbcadf46412bc	512348560	1	main_z	7	advance_on_keypress_ZEE	130	stimuli_distractor_trianglediamonds.svg	stimuli_target_circletriangles.svg	9	yes	57	0	507
6.6.1	win	2022-12-20	16:45:15	16:54:57	579742	62da4563028fbcadf46412bc	512348560	1	main_z	7	main_z	131	stimuli_distractor_diamondtriangles.svg	stimuli_target_squaretriangles.svg	15	yes	44	1	702
6.6.1	win	2022-12-20	16:45:15	16:54:57	579742	62da4563028fbcadf46412bc	512348560	1	main_z	7	advance_on_keypress_ZEE	132	stimuli_distractor_diamondtriangles.svg	stimuli_target_squaretriangles.svg	15	yes	57	0	529
6.6.1	win	2022-12-20	16:45:15	16:54:59	581398	62da4563028fbcadf46412bc	512348560	1	main_z	7	main_z	133	stimuli_target_circlediamonds.svg	stimuli_distractor_trianglediamonds.svg	2	yes	44	1	491
6.6.1	win	2022-12-20	16:45:15	16:54:59	581398	62da4563028fbcadf46412bc	512348560	1	main_z	7	advance_on_keypress_ZEE	134	stimuli_target_circlediamonds.svg	stimuli_distractor_trianglediamonds.svg	2	yes	57	0	527
6.6.1	win	2022-12-20	16:45:15	16:55:00	583206	62da4563028fbcadf46412bc	512348560	1	main_z	7	main_z	135	stimuli_distractor_diamondtriangles.svg	stimuli_target_diamondcircles.svg	31	yes	44	1	649
6.6.1	win	2022-12-20	16:45:15	16:55:00	583206	62da4563028fbcadf46412bc	512348560	1	main_z	7	advance_on_keypress_ZEE	136	stimuli_distractor_diamondtriangles.svg	stimuli_target_diamondcircles.svg	31	yes	57	0	422
6.6.1	win	2022-12-20	16:45:15	16:55:02	584814	62da4563028fbcadf46412bc	512348560	1	main_z	7	main_z	137	stimuli_distractor_trianglediamonds.svg	stimuli_target_squarediamonds.svg	12	yes	44	1	540
6.6.1	win	2022-12-20	16:45:15	16:55:02	584814	62da4563028fbcadf46412bc	512348560	1	main_z	7	advance_on_keypress_ZEE	138	stimuli_distractor_trianglediamonds.svg	stimuli_target_squarediamonds.svg	12	yes	57	0	526
6.6.1	win	2022-12-20	16:45:15	16:55:04	586950	62da4563028fbcadf46412bc	512348560	1	main_z	7	main_z	139	stimuli_distractor_trianglediamonds.svg	stimuli_distractor_diamondtriangles.svg	36	no	44	0	976
6.6.1	win	2022-12-20	16:45:15	16:55:04	586950	62da4563028fbcadf46412bc	512348560	1	main_z	7	advance_on_keypress_ZEE	140	stimuli_distractor_trianglediamonds.svg	stimuli_distractor_diamondtriangles.svg	36	no	57	0	489
6.6.1	win	2022-12-20	16:45:15	16:55:07	590074	62da4563028fbcadf46412bc	512348560	1	main_z	7	main_z	141	stimuli_distractor_trianglediamonds.svg	stimuli_target_diamondsquares.svg	28	yes	0	0	2000
6.6.1	win	2022-12-20	16:45:15	16:55:07	590074	62da4563028fbcadf46412bc	512348560	1	main_z	7	advance_on_keypress_ZEE	142	stimuli_distractor_trianglediamonds.svg	stimuli_target_diamondsquares.svg	28	yes	57	0	444
6.6.1	win	2022-12-20	16:45:15	16:55:09	591622	62da4563028fbcadf46412bc	512348560	1	main_z	7	main_z	143	stimuli_target_squarediamonds.svg	stimuli_distractor_diamondtriangles.svg	8	yes	44	1	465
6.6.1	win	2022-12-20	16:45:15	16:55:09	591622	62da4563028fbcadf46412bc	512348560	1	main_z	7	advance_on_keypress_ZEE	144	stimuli_target_squarediamonds.svg	stimuli_distractor_diamondtriangles.svg	8	yes	57	0	470
6.6.1	win	2022-12-20	16:45:15	16:55:11	593630	62da4563028fbcadf46412bc	512348560	1	main_z	7	main_z	145	stimuli_target_diamondcircles.svg	stimuli_distractor_trianglediamonds.svg	19	yes	44	1	890
6.6.1	win	2022-12-20	16:45:15	16:55:11	593630	62da4563028fbcadf46412bc	512348560	1	main_z	7	advance_on_keypress_ZEE	146	stimuli_target_diamondcircles.svg	stimuli_distractor_trianglediamonds.svg	19	yes	57	0	574
6.6.1	win	2022-12-20	16:45:15	16:55:13	595398	62da4563028fbcadf46412bc	512348560	1	main_z	7	main_z	147	stimuli_target_circlediamonds.svg	stimuli_distractor_diamondtriangles.svg	6	yes	44	1	558
6.6.1	win	2022-12-20	16:45:15	16:55:13	595398	62da4563028fbcadf46412bc	512348560	1	main_z	7	advance_on_keypress_ZEE	148	stimuli_target_circlediamonds.svg	stimuli_distractor_diamondtriangles.svg	6	yes	57	0	527
6.6.1	win	2022-12-20	16:45:15	16:55:14	597073	62da4563028fbcadf46412bc	512348560	1	main_z	7	main_z	149	stimuli_distractor_diamondtriangles.svg	stimuli_target_circletriangles.svg	13	yes	44	1	513
6.6.1	win	2022-12-20	16:45:15	16:55:14	597073	62da4563028fbcadf46412bc	512348560	1	main_z	7	advance_on_keypress_ZEE	150	stimuli_distractor_diamondtriangles.svg	stimuli_target_circletriangles.svg	13	yes	57	0	492
6.6.1	win	2022-12-20	16:45:15	16:55:17	600207	62da4563028fbcadf46412bc	512348560	1	main_z	7	main_z	151	stimuli_target_trianglesquares.svg	stimuli_distractor_trianglediamonds.svg	18	yes	0	0	2000
6.6.1	win	2022-12-20	16:45:15	16:55:17	600207	62da4563028fbcadf46412bc	512348560	1	main_z	7	advance_on_keypress_ZEE	152	stimuli_target_trianglesquares.svg	stimuli_distractor_trianglediamonds.svg	18	yes	57	0	854
6.6.1	win	2022-12-20	16:45:15	16:55:19	602190	62da4563028fbcadf46412bc	512348560	1	main_z	7	main_z	153	stimuli_distractor_trianglediamonds.svg	stimuli_distractor_diamondtriangles.svg	35	no	44	0	483
6.6.1	win	2022-12-20	16:45:15	16:55:19	602190	62da4563028fbcadf46412bc	512348560	1	main_z	7	advance_on_keypress_ZEE	154	stimuli_distractor_trianglediamonds.svg	stimuli_distractor_diamondtriangles.svg	35	no	57	0	487
6.6.1	win	2022-12-20	16:45:15	16:55:22	605324	62da4563028fbcadf46412bc	512348560	1	main_z	7	main_z	155	stimuli_target_diamondsquares.svg	stimuli_distractor_trianglediamonds.svg	20	yes	0	0	2000
6.6.1	win	2022-12-20	16:45:15	16:55:22	605324	62da4563028fbcadf46412bc	512348560	1	main_z	7	advance_on_keypress_ZEE	156	stimuli_target_diamondsquares.svg	stimuli_distractor_trianglediamonds.svg	20	yes	57	0	409
6.6.1	win	2022-12-20	16:45:15	16:55:24	606966	62da4563028fbcadf46412bc	512348560	1	main_z	7	main_z	157	stimuli_distractor_diamondtriangles.svg	stimuli_target_trianglesquares.svg	30	yes	44	1	591
6.6.1	win	2022-12-20	16:45:15	16:55:24	606966	62da4563028fbcadf46412bc	512348560	1	main_z	7	advance_on_keypress_ZEE	158	stimuli_distractor_diamondtriangles.svg	stimuli_target_trianglesquares.svg	30	yes	57	0	447
6.6.1	win	2022-12-20	16:45:15	16:55:27	610058	62da4563028fbcadf46412bc	512348560	1	main_z	7	main_z	159	stimuli_distractor_diamondtriangles.svg	stimuli_target_circlediamonds.svg	14	yes	0	0	2000
6.6.1	win	2022-12-20	16:45:15	16:55:27	610058	62da4563028fbcadf46412bc	512348560	1	main_z	7	advance_on_keypress_ZEE	160	stimuli_distractor_diamondtriangles.svg	stimuli_target_circlediamonds.svg	14	yes	57	0	395
6.6.1	win	2022-12-20	16:45:15	16:56:39	681594	62da4563028fbcadf46412bc	512348560	1	practice_slash	9	practice_slash	1	stimuli_distractor_trianglediamonds.svg	stimuli_distractor_diamondtriangles.svg	16	no	0	1	2000
6.6.1	win	2022-12-20	16:45:15	16:56:39	681594	62da4563028fbcadf46412bc	512348560	1	practice_slash	9	advance_on_keypress_SLASH	2	stimuli_distractor_trianglediamonds.svg	stimuli_distractor_diamondtriangles.svg	16	no	57	0	899
6.6.1	win	2022-12-20	16:45:15	16:56:43	686144	62da4563028fbcadf46412bc	512348560	1	practice_slash	9	practice_slash	3	stimuli_distractor_diamondtriangles.svg	stimuli_distractor_diamondtriangles.svg	13	no	0	1	2000
6.6.1	win	2022-12-20	16:45:15	16:56:43	686144	62da4563028fbcadf46412bc	512348560	1	practice_slash	9	advance_on_keypress_SLASH	4	stimuli_distractor_diamondtriangles.svg	stimuli_distractor_diamondtriangles.svg	13	no	57	0	653
6.6.1	win	2022-12-20	16:45:15	16:56:48	690444	62da4563028fbcadf46412bc	512348560	1	practice_slash	9	practice_slash	5	stimuli_target_diamondsquares.svg	stimuli_distractor_diamondtriangles.svg	3	yes	0	0	2000
6.6.1	win	2022-12-20	16:45:15	16:56:48	690444	62da4563028fbcadf46412bc	512348560	1	practice_slash	9	advance_on_keypress_SLASH	6	stimuli_target_diamondsquares.svg	stimuli_distractor_diamondtriangles.svg	3	yes	57	0	4937
6.6.1	win	2022-12-20	16:45:15	16:56:55	697518	62da4563028fbcadf46412bc	512348560	1	practice_slash	9	practice_slash	7	stimuli_target_circlediamonds.svg	stimuli_distractor_trianglediamonds.svg	4	yes	53	1	490
6.6.1	win	2022-12-20	16:45:15	16:56:55	697518	62da4563028fbcadf46412bc	512348560	1	practice_slash	9	advance_on_keypress_SLASH	8	stimuli_target_circlediamonds.svg	stimuli_distractor_trianglediamonds.svg	4	yes	57	0	646
6.6.1	win	2022-12-20	16:45:15	16:56:58	700382	62da4563028fbcadf46412bc	512348560	1	practice_slash	9	practice_slash	9	stimuli_distractor_trianglediamonds.svg	stimuli_target_circlediamonds.svg	10	yes	53	1	571
6.6.1	win	2022-12-20	16:45:15	16:56:58	700382	62da4563028fbcadf46412bc	512348560	1	practice_slash	9	advance_on_keypress_SLASH	10	stimuli_distractor_trianglediamonds.svg	stimuli_target_circlediamonds.svg	10	yes	57	0	372
6.6.1	win	2022-12-20	16:45:15	16:57:00	702973	62da4563028fbcadf46412bc	512348560	1	practice_slash	9	practice_slash	11	stimuli_distractor_diamondtriangles.svg	stimuli_target_trianglecircles.svg	9	yes	53	1	578
6.6.1	win	2022-12-20	16:45:15	16:57:00	702973	62da4563028fbcadf46412bc	512348560	1	practice_slash	9	advance_on_keypress_SLASH	12	stimuli_distractor_diamondtriangles.svg	stimuli_target_trianglecircles.svg	9	yes	57	0	1099
6.6.1	win	2022-12-20	16:45:15	16:57:03	706205	62da4563028fbcadf46412bc	512348560	1	practice_slash	9	practice_slash	13	stimuli_distractor_trianglediamonds.svg	stimuli_target_diamondcircles.svg	12	yes	53	1	478
6.6.1	win	2022-12-20	16:45:15	16:57:03	706205	62da4563028fbcadf46412bc	512348560	1	practice_slash	9	advance_on_keypress_SLASH	14	stimuli_distractor_trianglediamonds.svg	stimuli_target_diamondcircles.svg	12	yes	57	0	355
6.6.1	win	2022-12-20	16:45:15	16:57:06	708965	62da4563028fbcadf46412bc	512348560	1	practice_slash	9	practice_slash	15	stimuli_distractor_trianglediamonds.svg	stimuli_distractor_trianglediamonds.svg	15	no	53	0	771
6.6.1	win	2022-12-20	16:45:15	16:57:06	708965	62da4563028fbcadf46412bc	512348560	1	practice_slash	9	advance_on_keypress_SLASH	16	stimuli_distractor_trianglediamonds.svg	stimuli_distractor_trianglediamonds.svg	15	no	57	0	396
6.6.1	win	2022-12-20	16:45:15	16:57:09	711493	62da4563028fbcadf46412bc	512348560	1	practice_slash	9	practice_slash	17	stimuli_target_squarediamonds.svg	stimuli_distractor_trianglediamonds.svg	5	yes	53	1	481
6.6.1	win	2022-12-20	16:45:15	16:57:09	711493	62da4563028fbcadf46412bc	512348560	1	practice_slash	9	advance_on_keypress_SLASH	18	stimuli_target_squarediamonds.svg	stimuli_distractor_trianglediamonds.svg	5	yes	57	0	454
6.6.1	win	2022-12-20	16:45:15	16:57:11	714053	62da4563028fbcadf46412bc	512348560	1	practice_slash	9	practice_slash	19	stimuli_distractor_trianglediamonds.svg	stimuli_target_squarediamonds.svg	11	yes	53	1	458
6.6.1	win	2022-12-20	16:45:15	16:57:11	714053	62da4563028fbcadf46412bc	512348560	1	practice_slash	9	advance_on_keypress_SLASH	20	stimuli_distractor_trianglediamonds.svg	stimuli_target_squarediamonds.svg	11	yes	57	0	392
6.6.1	win	2022-12-20	16:45:15	16:57:14	716741	62da4563028fbcadf46412bc	512348560	1	practice_slash	9	practice_slash	21	stimuli_distractor_diamondtriangles.svg	stimuli_distractor_trianglediamonds.svg	14	no	53	0	657
6.6.1	win	2022-12-20	16:45:15	16:57:14	716741	62da4563028fbcadf46412bc	512348560	1	practice_slash	9	advance_on_keypress_SLASH	22	stimuli_distractor_diamondtriangles.svg	stimuli_distractor_trianglediamonds.svg	14	no	57	0	468
6.6.1	win	2022-12-20	16:45:15	16:57:18	720861	62da4563028fbcadf46412bc	512348560	1	practice_slash	9	practice_slash	23	stimuli_target_diamondsquares.svg	stimuli_distractor_trianglediamonds.svg	6	yes	0	0	2000
6.6.1	win	2022-12-20	16:45:15	16:57:18	720861	62da4563028fbcadf46412bc	512348560	1	practice_slash	9	advance_on_keypress_SLASH	24	stimuli_target_diamondsquares.svg	stimuli_distractor_trianglediamonds.svg	6	yes	57	0	391
6.6.1	win	2022-12-20	16:45:15	16:57:21	723356	62da4563028fbcadf46412bc	512348560	1	practice_slash	9	practice_slash	25	stimuli_target_circlediamonds.svg	stimuli_distractor_diamondtriangles.svg	1	yes	53	1	458
6.6.1	win	2022-12-20	16:45:15	16:57:21	723356	62da4563028fbcadf46412bc	512348560	1	practice_slash	9	advance_on_keypress_SLASH	26	stimuli_target_circlediamonds.svg	stimuli_distractor_diamondtriangles.svg	1	yes	57	0	451
6.6.1	win	2022-12-20	16:45:15	16:57:23	725909	62da4563028fbcadf46412bc	512348560	1	practice_slash	9	practice_slash	27	stimuli_target_squarediamonds.svg	stimuli_distractor_diamondtriangles.svg	2	yes	53	1	447
6.6.1	win	2022-12-20	16:45:15	16:57:23	725909	62da4563028fbcadf46412bc	512348560	1	practice_slash	9	advance_on_keypress_SLASH	28	stimuli_target_squarediamonds.svg	stimuli_distractor_diamondtriangles.svg	2	yes	57	0	373
6.6.1	win	2022-12-20	16:45:15	16:57:26	728757	62da4563028fbcadf46412bc	512348560	1	practice_slash	9	practice_slash	29	stimuli_distractor_diamondtriangles.svg	stimuli_target_circletriangles.svg	7	yes	53	1	825
6.6.1	win	2022-12-20	16:45:15	16:57:26	728757	62da4563028fbcadf46412bc	512348560	1	practice_slash	9	advance_on_keypress_SLASH	30	stimuli_distractor_diamondtriangles.svg	stimuli_target_circletriangles.svg	7	yes	57	0	331
6.6.1	win	2022-12-20	16:45:15	16:57:29	731492	62da4563028fbcadf46412bc	512348560	1	practice_slash	9	practice_slash	31	stimuli_distractor_diamondtriangles.svg	stimuli_target_diamondcircles.svg	8	yes	53	1	748
6.6.1	win	2022-12-20	16:45:15	16:57:29	731492	62da4563028fbcadf46412bc	512348560	1	practice_slash	9	advance_on_keypress_SLASH	32	stimuli_distractor_diamondtriangles.svg	stimuli_target_diamondcircles.svg	8	yes	57	0	397
6.6.1	win	2022-12-20	16:45:15	16:57:39	741355	62da4563028fbcadf46412bc	512348560	1	main_slash	11	main_slash	1	stimuli_target_squarediamonds.svg	stimuli_distractor_trianglediamonds.svg	4	yes	53	1	456
6.6.1	win	2022-12-20	16:45:15	16:57:39	741355	62da4563028fbcadf46412bc	512348560	1	main_slash	11	advance_on_keypress_SLASH	2	stimuli_target_squarediamonds.svg	stimuli_distractor_trianglediamonds.svg	4	yes	57	0	706
6.6.1	win	2022-12-20	16:45:15	16:57:42	744710	62da4563028fbcadf46412bc	512348560	1	main_slash	11	main_slash	3	stimuli_target_trianglesquares.svg	stimuli_distractor_trianglediamonds.svg	18	yes	0	0	2000
6.6.1	win	2022-12-20	16:45:15	16:57:42	744710	62da4563028fbcadf46412bc	512348560	1	main_slash	11	advance_on_keypress_SLASH	4	stimuli_target_trianglesquares.svg	stimuli_distractor_trianglediamonds.svg	18	yes	57	0	524
6.6.1	win	2022-12-20	16:45:15	16:57:44	746427	62da4563028fbcadf46412bc	512348560	1	main_slash	11	main_slash	5	stimuli_distractor_diamondtriangles.svg	stimuli_target_trianglesquares.svg	30	yes	53	1	550
6.6.1	win	2022-12-20	16:45:15	16:57:44	746427	62da4563028fbcadf46412bc	512348560	1	main_slash	11	advance_on_keypress_SLASH	6	stimuli_distractor_diamondtriangles.svg	stimuli_target_trianglesquares.svg	30	yes	57	0	496
6.6.1	win	2022-12-20	16:45:15	16:57:45	748123	62da4563028fbcadf46412bc	512348560	1	main_slash	11	main_slash	7	stimuli_distractor_diamondtriangles.svg	stimuli_target_squarediamonds.svg	16	yes	53	1	563
6.6.1	win	2022-12-20	16:45:15	16:57:45	748123	62da4563028fbcadf46412bc	512348560	1	main_slash	11	advance_on_keypress_SLASH	8	stimuli_distractor_diamondtriangles.svg	stimuli_target_squarediamonds.svg	16	yes	57	0	516
6.6.1	win	2022-12-20	16:45:15	16:57:47	750179	62da4563028fbcadf46412bc	512348560	1	main_slash	11	main_slash	9	stimuli_distractor_diamondtriangles.svg	stimuli_distractor_trianglediamonds.svg	38	no	53	0	902
6.6.1	win	2022-12-20	16:45:15	16:57:47	750179	62da4563028fbcadf46412bc	512348560	1	main_slash	11	advance_on_keypress_SLASH	10	stimuli_distractor_diamondtriangles.svg	stimuli_distractor_trianglediamonds.svg	38	no	57	0	290
6.6.1	win	2022-12-20	16:45:15	16:57:50	753110	62da4563028fbcadf46412bc	512348560	1	main_slash	11	main_slash	11	stimuli_distractor_diamondtriangles.svg	stimuli_distractor_diamondtriangles.svg	39	no	0	1	2000
6.6.1	win	2022-12-20	16:45:15	16:57:50	753110	62da4563028fbcadf46412bc	512348560	1	main_slash	11	advance_on_keypress_SLASH	12	stimuli_distractor_diamondtriangles.svg	stimuli_distractor_diamondtriangles.svg	39	no	57	0	420
6.6.1	win	2022-12-20	16:45:15	16:57:52	754675	62da4563028fbcadf46412bc	512348560	1	main_slash	11	main_slash	13	stimuli_target_trianglecircles.svg	stimuli_distractor_trianglediamonds.svg	17	yes	53	1	498
6.6.1	win	2022-12-20	16:45:15	16:57:52	754675	62da4563028fbcadf46412bc	512348560	1	main_slash	11	advance_on_keypress_SLASH	14	stimuli_target_trianglecircles.svg	stimuli_distractor_trianglediamonds.svg	17	yes	57	0	486
6.6.1	win	2022-12-20	16:45:15	16:57:55	757810	62da4563028fbcadf46412bc	512348560	1	main_slash	11	main_slash	15	stimuli_distractor_diamondtriangles.svg	stimuli_distractor_trianglediamonds.svg	37	no	0	1	2000
6.6.1	win	2022-12-20	16:45:15	16:57:55	757810	62da4563028fbcadf46412bc	512348560	1	main_slash	11	advance_on_keypress_SLASH	16	stimuli_distractor_diamondtriangles.svg	stimuli_distractor_trianglediamonds.svg	37	no	57	0	312
6.6.1	win	2022-12-20	16:45:15	16:57:58	760760	62da4563028fbcadf46412bc	512348560	1	main_slash	11	main_slash	17	stimuli_distractor_trianglediamonds.svg	stimuli_target_circletriangles.svg	9	yes	0	0	2000
6.6.1	win	2022-12-20	16:45:15	16:57:58	760760	62da4563028fbcadf46412bc	512348560	1	main_slash	11	advance_on_keypress_SLASH	18	stimuli_distractor_trianglediamonds.svg	stimuli_target_circletriangles.svg	9	yes	57	0	330
6.6.1	win	2022-12-20	16:45:15	16:58:01	763727	62da4563028fbcadf46412bc	512348560	1	main_slash	11	main_slash	19	stimuli_distractor_trianglediamonds.svg	stimuli_target_circlediamonds.svg	10	yes	0	0	2000
6.6.1	win	2022-12-20	16:45:15	16:58:01	763727	62da4563028fbcadf46412bc	512348560	1	main_slash	11	advance_on_keypress_SLASH	20	stimuli_distractor_trianglediamonds.svg	stimuli_target_circlediamonds.svg	10	yes	57	0	346
6.6.1	win	2022-12-20	16:45:15	16:58:03	765387	62da4563028fbcadf46412bc	512348560	1	main_slash	11	main_slash	21	stimuli_distractor_diamondtriangles.svg	stimuli_target_circletriangles.svg	13	yes	53	1	659
6.6.1	win	2022-12-20	16:45:15	16:58:03	765387	62da4563028fbcadf46412bc	512348560	1	main_slash	11	advance_on_keypress_SLASH	22	stimuli_distractor_diamondtriangles.svg	stimuli_target_circletriangles.svg	13	yes	57	0	680
6.6.1	win	2022-12-20	16:45:15	16:58:04	767226	62da4563028fbcadf46412bc	512348560	1	main_slash	11	main_slash	23	stimuli_target_trianglecircles.svg	stimuli_distractor_diamondtriangles.svg	21	yes	53	1	508
6.6.1	win	2022-12-20	16:45:15	16:58:04	767226	62da4563028fbcadf46412bc	512348560	1	main_slash	11	advance_on_keypress_SLASH	24	stimuli_target_trianglecircles.svg	stimuli_distractor_diamondtriangles.svg	21	yes	57	0	526
6.6.1	win	2022-12-20	16:45:15	16:58:06	768947	62da4563028fbcadf46412bc	512348560	1	main_slash	11	main_slash	25	stimuli_target_diamondcircles.svg	stimuli_distractor_trianglediamonds.svg	19	yes	53	1	552
6.6.1	win	2022-12-20	16:45:15	16:58:06	768947	62da4563028fbcadf46412bc	512348560	1	main_slash	11	advance_on_keypress_SLASH	26	stimuli_target_diamondcircles.svg	stimuli_distractor_trianglediamonds.svg	19	yes	57	0	522
6.6.1	win	2022-12-20	16:45:15	16:58:08	770779	62da4563028fbcadf46412bc	512348560	1	main_slash	11	main_slash	27	stimuli_target_squaretriangles.svg	stimuli_distractor_diamondtriangles.svg	7	yes	53	1	668
6.6.1	win	2022-12-20	16:45:15	16:58:08	770779	62da4563028fbcadf46412bc	512348560	1	main_slash	11	advance_on_keypress_SLASH	28	stimuli_target_squaretriangles.svg	stimuli_distractor_diamondtriangles.svg	7	yes	57	0	432
6.6.1	win	2022-12-20	16:45:15	16:58:10	772466	62da4563028fbcadf46412bc	512348560	1	main_slash	11	main_slash	29	stimuli_target_circletriangles.svg	stimuli_distractor_trianglediamonds.svg	1	yes	53	1	605
6.6.1	win	2022-12-20	16:45:15	16:58:10	772466	62da4563028fbcadf46412bc	512348560	1	main_slash	11	advance_on_keypress_SLASH	30	stimuli_target_circletriangles.svg	stimuli_distractor_trianglediamonds.svg	1	yes	57	0	349
6.6.1	win	2022-12-20	16:45:15	16:58:13	775461	62da4563028fbcadf46412bc	512348560	1	main_slash	11	main_slash	31	stimuli_target_trianglesquares.svg	stimuli_distractor_diamondtriangles.svg	22	yes	0	0	2000
6.6.1	win	2022-12-20	16:45:15	16:58:13	775461	62da4563028fbcadf46412bc	512348560	1	main_slash	11	advance_on_keypress_SLASH	32	stimuli_target_trianglesquares.svg	stimuli_distractor_diamondtriangles.svg	22	yes	57	0	373
6.6.1	win	2022-12-20	16:45:15	16:58:14	776954	62da4563028fbcadf46412bc	512348560	1	main_slash	11	main_slash	33	stimuli_target_squaretriangles.svg	stimuli_distractor_trianglediamonds.svg	3	yes	53	1	477
6.6.1	win	2022-12-20	16:45:15	16:58:14	776954	62da4563028fbcadf46412bc	512348560	1	main_slash	11	advance_on_keypress_SLASH	34	stimuli_target_squaretriangles.svg	stimuli_distractor_trianglediamonds.svg	3	yes	57	0	401
6.6.1	win	2022-12-20	16:45:15	16:58:16	778698	62da4563028fbcadf46412bc	512348560	1	main_slash	11	main_slash	35	stimuli_target_diamondsquares.svg	stimuli_distractor_diamondtriangles.svg	24	yes	53	1	704
6.6.1	win	2022-12-20	16:45:15	16:58:16	778698	62da4563028fbcadf46412bc	512348560	1	main_slash	11	advance_on_keypress_SLASH	36	stimuli_target_diamondsquares.svg	stimuli_distractor_diamondtriangles.svg	24	yes	57	0	323
6.6.1	win	2022-12-20	16:45:15	16:58:19	781661	62da4563028fbcadf46412bc	512348560	1	main_slash	11	main_slash	37	stimuli_distractor_trianglediamonds.svg	stimuli_target_diamondsquares.svg	28	yes	0	0	2000
6.6.1	win	2022-12-20	16:45:15	16:58:19	781661	62da4563028fbcadf46412bc	512348560	1	main_slash	11	advance_on_keypress_SLASH	38	stimuli_distractor_trianglediamonds.svg	stimuli_target_diamondsquares.svg	28	yes	57	0	325
6.6.1	win	2022-12-20	16:45:15	16:58:21	783778	62da4563028fbcadf46412bc	512348560	1	main_slash	11	main_slash	39	stimuli_distractor_trianglediamonds.svg	stimuli_target_diamondcircles.svg	27	yes	53	1	1151
6.6.1	win	2022-12-20	16:45:15	16:58:21	783778	62da4563028fbcadf46412bc	512348560	1	main_slash	11	advance_on_keypress_SLASH	40	stimuli_distractor_trianglediamonds.svg	stimuli_target_diamondcircles.svg	27	yes	57	0	528
6.6.1	win	2022-12-20	16:45:15	16:58:23	785460	62da4563028fbcadf46412bc	512348560	1	main_slash	11	main_slash	41	stimuli_distractor_diamondtriangles.svg	stimuli_target_diamondcircles.svg	31	yes	53	1	514
6.6.1	win	2022-12-20	16:45:15	16:58:23	785460	62da4563028fbcadf46412bc	512348560	1	main_slash	11	advance_on_keypress_SLASH	42	stimuli_distractor_diamondtriangles.svg	stimuli_target_diamondcircles.svg	31	yes	57	0	405
6.6.1	win	2022-12-20	16:45:15	16:58:26	788511	62da4563028fbcadf46412bc	512348560	1	main_slash	11	main_slash	43	stimuli_distractor_trianglediamonds.svg	stimuli_distractor_diamondtriangles.svg	36	no	0	1	2000
6.6.1	win	2022-12-20	16:45:15	16:58:26	788511	62da4563028fbcadf46412bc	512348560	1	main_slash	11	advance_on_keypress_SLASH	44	stimuli_distractor_trianglediamonds.svg	stimuli_distractor_diamondtriangles.svg	36	no	57	0	347
6.6.1	win	2022-12-20	16:45:15	16:58:29	791511	62da4563028fbcadf46412bc	512348560	1	main_slash	11	main_slash	45	stimuli_target_diamondsquares.svg	stimuli_distractor_trianglediamonds.svg	20	yes	0	0	2000
6.6.1	win	2022-12-20	16:45:15	16:58:29	791511	62da4563028fbcadf46412bc	512348560	1	main_slash	11	advance_on_keypress_SLASH	46	stimuli_target_diamondsquares.svg	stimuli_distractor_trianglediamonds.svg	20	yes	57	0	378
6.6.1	win	2022-12-20	16:45:15	16:58:30	793114	62da4563028fbcadf46412bc	512348560	1	main_slash	11	main_slash	47	stimuli_distractor_diamondtriangles.svg	stimuli_target_circlediamonds.svg	14	yes	53	1	586
6.6.1	win	2022-12-20	16:45:15	16:58:30	793114	62da4563028fbcadf46412bc	512348560	1	main_slash	11	advance_on_keypress_SLASH	48	stimuli_distractor_diamondtriangles.svg	stimuli_target_circlediamonds.svg	14	yes	57	0	538
6.6.1	win	2022-12-20	16:45:15	16:58:33	796295	62da4563028fbcadf46412bc	512348560	1	main_slash	11	main_slash	49	stimuli_distractor_trianglediamonds.svg	stimuli_distractor_trianglediamonds.svg	34	no	0	1	2000
6.6.1	win	2022-12-20	16:45:15	16:58:33	796295	62da4563028fbcadf46412bc	512348560	1	main_slash	11	advance_on_keypress_SLASH	50	stimuli_distractor_trianglediamonds.svg	stimuli_distractor_trianglediamonds.svg	34	no	57	0	523
6.6.1	win	2022-12-20	16:45:15	16:58:35	797930	62da4563028fbcadf46412bc	512348560	1	main_slash	11	main_slash	51	stimuli_distractor_diamondtriangles.svg	stimuli_target_trianglecircles.svg	29	yes	53	1	469
6.6.1	win	2022-12-20	16:45:15	16:58:35	797930	62da4563028fbcadf46412bc	512348560	1	main_slash	11	advance_on_keypress_SLASH	52	stimuli_distractor_diamondtriangles.svg	stimuli_target_trianglecircles.svg	29	yes	57	0	426
6.6.1	win	2022-12-20	16:45:15	16:58:37	799570	62da4563028fbcadf46412bc	512348560	1	main_slash	11	main_slash	53	stimuli_target_diamondcircles.svg	stimuli_distractor_diamondtriangles.svg	23	yes	53	1	576
6.6.1	win	2022-12-20	16:45:15	16:58:37	799570	62da4563028fbcadf46412bc	512348560	1	main_slash	11	advance_on_keypress_SLASH	54	stimuli_target_diamondcircles.svg	stimuli_distractor_diamondtriangles.svg	23	yes	57	0	336
6.6.1	win	2022-12-20	16:45:15	16:58:39	801346	62da4563028fbcadf46412bc	512348560	1	main_slash	11	main_slash	55	stimuli_distractor_diamondtriangles.svg	stimuli_target_squaretriangles.svg	15	yes	53	1	802
6.6.1	win	2022-12-20	16:45:15	16:58:39	801346	62da4563028fbcadf46412bc	512348560	1	main_slash	11	advance_on_keypress_SLASH	56	stimuli_distractor_diamondtriangles.svg	stimuli_target_squaretriangles.svg	15	yes	57	0	561
6.6.1	win	2022-12-20	16:45:15	16:58:40	803114	62da4563028fbcadf46412bc	512348560	1	main_slash	11	main_slash	57	stimuli_distractor_trianglediamonds.svg	stimuli_target_squarediamonds.svg	12	yes	53	1	570
6.6.1	win	2022-12-20	16:45:15	16:58:40	803114	62da4563028fbcadf46412bc	512348560	1	main_slash	11	advance_on_keypress_SLASH	58	stimuli_distractor_trianglediamonds.svg	stimuli_target_squarediamonds.svg	12	yes	57	0	602
6.6.1	win	2022-12-20	16:45:15	16:58:42	805202	62da4563028fbcadf46412bc	512348560	1	main_slash	11	main_slash	59	stimuli_distractor_diamondtriangles.svg	stimuli_target_diamondsquares.svg	32	yes	53	1	841
6.6.1	win	2022-12-20	16:45:15	16:58:42	805202	62da4563028fbcadf46412bc	512348560	1	main_slash	11	advance_on_keypress_SLASH	60	stimuli_distractor_diamondtriangles.svg	stimuli_target_diamondsquares.svg	32	yes	57	0	375
6.6.1	win	2022-12-20	16:45:15	16:58:44	806882	62da4563028fbcadf46412bc	512348560	1	main_slash	11	main_slash	61	stimuli_distractor_trianglediamonds.svg	stimuli_target_trianglecircles.svg	25	yes	53	1	671
6.6.1	win	2022-12-20	16:45:15	16:58:44	806882	62da4563028fbcadf46412bc	512348560	1	main_slash	11	advance_on_keypress_SLASH	62	stimuli_distractor_trianglediamonds.svg	stimuli_target_trianglecircles.svg	25	yes	57	0	356
6.6.1	win	2022-12-20	16:45:15	16:58:47	809878	62da4563028fbcadf46412bc	512348560	1	main_slash	11	main_slash	63	stimuli_distractor_diamondtriangles.svg	stimuli_distractor_diamondtriangles.svg	40	no	0	1	2000
6.6.1	win	2022-12-20	16:45:15	16:58:47	809878	62da4563028fbcadf46412bc	512348560	1	main_slash	11	advance_on_keypress_SLASH	64	stimuli_distractor_diamondtriangles.svg	stimuli_distractor_diamondtriangles.svg	40	no	57	0	523
6.6.1	win	2022-12-20	16:45:15	16:58:49	811538	62da4563028fbcadf46412bc	512348560	1	main_slash	11	main_slash	65	stimuli_target_circletriangles.svg	stimuli_distractor_diamondtriangles.svg	5	yes	53	1	493
6.6.1	win	2022-12-20	16:45:15	16:58:49	811538	62da4563028fbcadf46412bc	512348560	1	main_slash	11	advance_on_keypress_SLASH	66	stimuli_target_circletriangles.svg	stimuli_distractor_diamondtriangles.svg	5	yes	57	0	441
6.6.1	win	2022-12-20	16:45:15	16:58:50	813186	62da4563028fbcadf46412bc	512348560	1	main_slash	11	main_slash	67	stimuli_target_circlediamonds.svg	stimuli_distractor_diamondtriangles.svg	6	yes	53	1	575
6.6.1	win	2022-12-20	16:45:15	16:58:50	813186	62da4563028fbcadf46412bc	512348560	1	main_slash	11	advance_on_keypress_SLASH	68	stimuli_target_circlediamonds.svg	stimuli_distractor_diamondtriangles.svg	6	yes	57	0	343
6.6.1	win	2022-12-20	16:45:15	16:58:53	816162	62da4563028fbcadf46412bc	512348560	1	main_slash	11	main_slash	69	stimuli_distractor_trianglediamonds.svg	stimuli_distractor_trianglediamonds.svg	33	no	0	1	2000
6.6.1	win	2022-12-20	16:45:15	16:58:53	816162	62da4563028fbcadf46412bc	512348560	1	main_slash	11	advance_on_keypress_SLASH	70	stimuli_distractor_trianglediamonds.svg	stimuli_distractor_trianglediamonds.svg	33	no	57	0	367
6.6.1	win	2022-12-20	16:45:15	16:58:55	817874	62da4563028fbcadf46412bc	512348560	1	main_slash	11	main_slash	71	stimuli_distractor_trianglediamonds.svg	stimuli_distractor_diamondtriangles.svg	35	no	53	0	695
6.6.1	win	2022-12-20	16:45:15	16:58:55	817874	62da4563028fbcadf46412bc	512348560	1	main_slash	11	advance_on_keypress_SLASH	72	stimuli_distractor_trianglediamonds.svg	stimuli_distractor_diamondtriangles.svg	35	no	57	0	435
6.6.1	win	2022-12-20	16:45:15	16:58:57	819481	62da4563028fbcadf46412bc	512348560	1	main_slash	11	main_slash	73	stimuli_distractor_trianglediamonds.svg	stimuli_target_squaretriangles.svg	11	yes	53	1	536
6.6.1	win	2022-12-20	16:45:15	16:58:57	819481	62da4563028fbcadf46412bc	512348560	1	main_slash	11	advance_on_keypress_SLASH	74	stimuli_distractor_trianglediamonds.svg	stimuli_target_squaretriangles.svg	11	yes	57	0	362
6.6.1	win	2022-12-20	16:45:15	16:58:58	821018	62da4563028fbcadf46412bc	512348560	1	main_slash	11	main_slash	75	stimuli_distractor_trianglediamonds.svg	stimuli_target_trianglesquares.svg	26	yes	53	1	539
6.6.1	win	2022-12-20	16:45:15	16:58:58	821018	62da4563028fbcadf46412bc	512348560	1	main_slash	11	advance_on_keypress_SLASH	76	stimuli_distractor_trianglediamonds.svg	stimuli_target_trianglesquares.svg	26	yes	57	0	413
6.6.1	win	2022-12-20	16:45:15	16:59:00	822609	62da4563028fbcadf46412bc	512348560	1	main_slash	11	main_slash	77	stimuli_target_squarediamonds.svg	stimuli_distractor_diamondtriangles.svg	8	yes	53	1	531
6.6.1	win	2022-12-20	16:45:15	16:59:00	822609	62da4563028fbcadf46412bc	512348560	1	main_slash	11	advance_on_keypress_SLASH	78	stimuli_target_squarediamonds.svg	stimuli_distractor_diamondtriangles.svg	8	yes	57	0	293
6.6.1	win	2022-12-20	16:45:15	16:59:01	824002	62da4563028fbcadf46412bc	512348560	1	main_slash	11	main_slash	79	stimuli_target_circlediamonds.svg	stimuli_distractor_trianglediamonds.svg	2	yes	53	1	456
6.6.1	win	2022-12-20	16:45:15	16:59:01	824002	62da4563028fbcadf46412bc	512348560	1	main_slash	11	advance_on_keypress_SLASH	80	stimuli_target_circlediamonds.svg	stimuli_distractor_trianglediamonds.svg	2	yes	57	0	277
6.6.1	win	2022-12-20	16:45:15	16:59:04	826912	62da4563028fbcadf46412bc	512348560	1	main_slash	11	main_slash	81	stimuli_distractor_diamondtriangles.svg	stimuli_distractor_diamondtriangles.svg	40	no	0	1	2000
6.6.1	win	2022-12-20	16:45:15	16:59:04	826912	62da4563028fbcadf46412bc	512348560	1	main_slash	11	advance_on_keypress_SLASH	82	stimuli_distractor_diamondtriangles.svg	stimuli_distractor_diamondtriangles.svg	40	no	57	0	577
6.6.1	win	2022-12-20	16:45:15	16:59:07	830128	62da4563028fbcadf46412bc	512348560	1	main_slash	11	main_slash	83	stimuli_distractor_diamondtriangles.svg	stimuli_distractor_diamondtriangles.svg	39	no	0	1	2000
6.6.1	win	2022-12-20	16:45:15	16:59:07	830128	62da4563028fbcadf46412bc	512348560	1	main_slash	11	advance_on_keypress_SLASH	84	stimuli_distractor_diamondtriangles.svg	stimuli_distractor_diamondtriangles.svg	39	no	57	0	440
6.6.1	win	2022-12-20	16:45:15	16:59:09	831689	62da4563028fbcadf46412bc	512348560	1	main_slash	11	main_slash	85	stimuli_distractor_diamondtriangles.svg	stimuli_target_squaretriangles.svg	15	yes	53	1	477
6.6.1	win	2022-12-20	16:45:15	16:59:09	831689	62da4563028fbcadf46412bc	512348560	1	main_slash	11	advance_on_keypress_SLASH	86	stimuli_distractor_diamondtriangles.svg	stimuli_target_squaretriangles.svg	15	yes	57	0	426
6.6.1	win	2022-12-20	16:45:15	16:59:10	833281	62da4563028fbcadf46412bc	512348560	1	main_slash	11	main_slash	87	stimuli_distractor_diamondtriangles.svg	stimuli_target_squarediamonds.svg	16	yes	53	1	536
6.6.1	win	2022-12-20	16:45:15	16:59:10	833281	62da4563028fbcadf46412bc	512348560	1	main_slash	11	advance_on_keypress_SLASH	88	stimuli_distractor_diamondtriangles.svg	stimuli_target_squarediamonds.svg	16	yes	57	0	402
6.6.1	win	2022-12-20	16:45:15	16:59:12	834745	62da4563028fbcadf46412bc	512348560	1	main_slash	11	main_slash	89	stimuli_distractor_trianglediamonds.svg	stimuli_target_squaretriangles.svg	11	yes	53	1	417
6.6.1	win	2022-12-20	16:45:15	16:59:12	834745	62da4563028fbcadf46412bc	512348560	1	main_slash	11	advance_on_keypress_SLASH	90	stimuli_distractor_trianglediamonds.svg	stimuli_target_squaretriangles.svg	11	yes	57	0	367
6.6.1	win	2022-12-20	16:45:15	16:59:13	836313	62da4563028fbcadf46412bc	512348560	1	main_slash	11	main_slash	91	stimuli_distractor_diamondtriangles.svg	stimuli_distractor_trianglediamonds.svg	38	no	53	0	551
6.6.1	win	2022-12-20	16:45:15	16:59:13	836313	62da4563028fbcadf46412bc	512348560	1	main_slash	11	advance_on_keypress_SLASH	92	stimuli_distractor_diamondtriangles.svg	stimuli_distractor_trianglediamonds.svg	38	no	57	0	313
6.6.1	win	2022-12-20	16:45:15	16:59:15	837681	62da4563028fbcadf46412bc	512348560	1	main_slash	11	main_slash	93	stimuli_distractor_trianglediamonds.svg	stimuli_target_squarediamonds.svg	12	yes	53	1	403
6.6.1	win	2022-12-20	16:45:15	16:59:15	837681	62da4563028fbcadf46412bc	512348560	1	main_slash	11	advance_on_keypress_SLASH	94	stimuli_distractor_trianglediamonds.svg	stimuli_target_squarediamonds.svg	12	yes	57	0	330
6.6.1	win	2022-12-20	16:45:15	16:59:16	839057	62da4563028fbcadf46412bc	512348560	1	main_slash	11	main_slash	95	stimuli_target_trianglecircles.svg	stimuli_distractor_diamondtriangles.svg	21	yes	53	1	395
6.6.1	win	2022-12-20	16:45:15	16:59:16	839057	62da4563028fbcadf46412bc	512348560	1	main_slash	11	advance_on_keypress_SLASH	96	stimuli_target_trianglecircles.svg	stimuli_distractor_diamondtriangles.svg	21	yes	57	0	219
6.6.1	win	2022-12-20	16:45:15	16:59:18	840345	62da4563028fbcadf46412bc	512348560	1	main_slash	11	main_slash	97	stimuli_target_squarediamonds.svg	stimuli_distractor_diamondtriangles.svg	8	yes	53	1	433
6.6.1	win	2022-12-20	16:45:15	16:59:18	840345	62da4563028fbcadf46412bc	512348560	1	main_slash	11	advance_on_keypress_SLASH	98	stimuli_target_squarediamonds.svg	stimuli_distractor_diamondtriangles.svg	8	yes	57	0	271
6.6.1	win	2022-12-20	16:45:15	16:59:20	843262	62da4563028fbcadf46412bc	512348560	1	main_slash	11	main_slash	99	stimuli_distractor_diamondtriangles.svg	stimuli_target_diamondcircles.svg	31	yes	0	0	2000
6.6.1	win	2022-12-20	16:45:15	16:59:20	843262	62da4563028fbcadf46412bc	512348560	1	main_slash	11	advance_on_keypress_SLASH	100	stimuli_distractor_diamondtriangles.svg	stimuli_target_diamondcircles.svg	31	yes	57	0	858
6.6.1	win	2022-12-20	16:45:15	16:59:22	845297	62da4563028fbcadf46412bc	512348560	1	main_slash	11	main_slash	101	stimuli_target_circlediamonds.svg	stimuli_distractor_diamondtriangles.svg	6	yes	53	1	535
6.6.1	win	2022-12-20	16:45:15	16:59:22	845297	62da4563028fbcadf46412bc	512348560	1	main_slash	11	advance_on_keypress_SLASH	102	stimuli_target_circlediamonds.svg	stimuli_distractor_diamondtriangles.svg	6	yes	57	0	361
6.6.1	win	2022-12-20	16:45:15	16:59:24	846921	62da4563028fbcadf46412bc	512348560	1	main_slash	11	main_slash	103	stimuli_distractor_trianglediamonds.svg	stimuli_target_trianglecircles.svg	25	yes	53	1	626
6.6.1	win	2022-12-20	16:45:15	16:59:24	846921	62da4563028fbcadf46412bc	512348560	1	main_slash	11	advance_on_keypress_SLASH	104	stimuli_distractor_trianglediamonds.svg	stimuli_target_trianglecircles.svg	25	yes	57	0	344
6.6.1	win	2022-12-20	16:45:15	16:59:26	848393	62da4563028fbcadf46412bc	512348560	1	main_slash	11	main_slash	105	stimuli_target_circletriangles.svg	stimuli_distractor_trianglediamonds.svg	1	yes	53	1	498
6.6.1	win	2022-12-20	16:45:15	16:59:26	848393	62da4563028fbcadf46412bc	512348560	1	main_slash	11	advance_on_keypress_SLASH	106	stimuli_target_circletriangles.svg	stimuli_distractor_trianglediamonds.svg	1	yes	57	0	341
6.6.1	win	2022-12-20	16:45:15	16:59:27	849801	62da4563028fbcadf46412bc	512348560	1	main_slash	11	main_slash	107	stimuli_distractor_trianglediamonds.svg	stimuli_distractor_trianglediamonds.svg	33	no	53	0	422
6.6.1	win	2022-12-20	16:45:15	16:59:27	849801	62da4563028fbcadf46412bc	512348560	1	main_slash	11	advance_on_keypress_SLASH	108	stimuli_distractor_trianglediamonds.svg	stimuli_distractor_trianglediamonds.svg	33	no	57	0	461
6.6.1	win	2022-12-20	16:45:15	16:59:29	851537	62da4563028fbcadf46412bc	512348560	1	main_slash	11	main_slash	109	stimuli_target_trianglecircles.svg	stimuli_distractor_trianglediamonds.svg	17	yes	53	1	642
6.6.1	win	2022-12-20	16:45:15	16:59:29	851537	62da4563028fbcadf46412bc	512348560	1	main_slash	11	advance_on_keypress_SLASH	110	stimuli_target_trianglecircles.svg	stimuli_distractor_trianglediamonds.svg	17	yes	57	0	304
6.6.1	win	2022-12-20	16:45:15	16:59:32	854479	62da4563028fbcadf46412bc	512348560	1	main_slash	11	main_slash	111	stimuli_target_diamondcircles.svg	stimuli_distractor_trianglediamonds.svg	19	yes	0	0	2000
6.6.1	win	2022-12-20	16:45:15	16:59:32	854479	62da4563028fbcadf46412bc	512348560	1	main_slash	11	advance_on_keypress_SLASH	112	stimuli_target_diamondcircles.svg	stimuli_distractor_trianglediamonds.svg	19	yes	57	0	1762
6.6.1	win	2022-12-20	16:45:15	16:59:36	858879	62da4563028fbcadf46412bc	512348560	1	main_slash	11	main_slash	113	stimuli_distractor_diamondtriangles.svg	stimuli_distractor_trianglediamonds.svg	37	no	0	1	2000
6.6.1	win	2022-12-20	16:45:15	16:59:36	858879	62da4563028fbcadf46412bc	512348560	1	main_slash	11	advance_on_keypress_SLASH	114	stimuli_distractor_diamondtriangles.svg	stimuli_distractor_trianglediamonds.svg	37	no	57	0	577
6.6.1	win	2022-12-20	16:45:15	16:59:38	860481	62da4563028fbcadf46412bc	512348560	1	main_slash	11	main_slash	115	stimuli_target_diamondcircles.svg	stimuli_distractor_diamondtriangles.svg	23	yes	53	1	385
6.6.1	win	2022-12-20	16:45:15	16:59:38	860481	62da4563028fbcadf46412bc	512348560	1	main_slash	11	advance_on_keypress_SLASH	116	stimuli_target_diamondcircles.svg	stimuli_distractor_diamondtriangles.svg	23	yes	57	0	257
6.6.1	win	2022-12-20	16:45:15	16:59:39	861929	62da4563028fbcadf46412bc	512348560	1	main_slash	11	main_slash	117	stimuli_distractor_diamondtriangles.svg	stimuli_target_circletriangles.svg	13	yes	53	1	550
6.6.1	win	2022-12-20	16:45:15	16:59:39	861929	62da4563028fbcadf46412bc	512348560	1	main_slash	11	advance_on_keypress_SLASH	118	stimuli_distractor_diamondtriangles.svg	stimuli_target_circletriangles.svg	13	yes	57	0	247
6.6.1	win	2022-12-20	16:45:15	16:59:42	864829	62da4563028fbcadf46412bc	512348560	1	main_slash	11	main_slash	119	stimuli_distractor_trianglediamonds.svg	stimuli_distractor_diamondtriangles.svg	35	no	0	1	2000
6.6.1	win	2022-12-20	16:45:15	16:59:42	864829	62da4563028fbcadf46412bc	512348560	1	main_slash	11	advance_on_keypress_SLASH	120	stimuli_distractor_trianglediamonds.svg	stimuli_distractor_diamondtriangles.svg	35	no	57	0	843
6.6.1	win	2022-12-20	16:45:15	16:59:45	868313	62da4563028fbcadf46412bc	512348560	1	main_slash	11	main_slash	121	stimuli_distractor_trianglediamonds.svg	stimuli_distractor_trianglediamonds.svg	34	no	0	1	2000
6.6.1	win	2022-12-20	16:45:15	16:59:45	868313	62da4563028fbcadf46412bc	512348560	1	main_slash	11	advance_on_keypress_SLASH	122	stimuli_distractor_trianglediamonds.svg	stimuli_distractor_trianglediamonds.svg	34	no	57	0	639
6.6.1	win	2022-12-20	16:45:15	16:59:49	871596	62da4563028fbcadf46412bc	512348560	1	main_slash	11	main_slash	123	stimuli_target_trianglesquares.svg	stimuli_distractor_trianglediamonds.svg	18	yes	0	0	2000
6.6.1	win	2022-12-20	16:45:15	16:59:49	871596	62da4563028fbcadf46412bc	512348560	1	main_slash	11	advance_on_keypress_SLASH	124	stimuli_target_trianglesquares.svg	stimuli_distractor_trianglediamonds.svg	18	yes	57	0	372
6.6.1	win	2022-12-20	16:45:15	16:59:51	873737	62da4563028fbcadf46412bc	512348560	1	main_slash	11	main_slash	125	stimuli_distractor_diamondtriangles.svg	stimuli_target_trianglesquares.svg	30	yes	53	1	1124
6.6.1	win	2022-12-20	16:45:15	16:59:51	873737	62da4563028fbcadf46412bc	512348560	1	main_slash	11	advance_on_keypress_SLASH	126	stimuli_distractor_diamondtriangles.svg	stimuli_target_trianglesquares.svg	30	yes	57	0	326
6.6.1	win	2022-12-20	16:45:15	16:59:52	875248	62da4563028fbcadf46412bc	512348560	1	main_slash	11	main_slash	127	stimuli_distractor_trianglediamonds.svg	stimuli_target_circlediamonds.svg	10	yes	53	1	552
6.6.1	win	2022-12-20	16:45:15	16:59:52	875248	62da4563028fbcadf46412bc	512348560	1	main_slash	11	advance_on_keypress_SLASH	128	stimuli_distractor_trianglediamonds.svg	stimuli_target_circlediamonds.svg	10	yes	57	0	321
6.6.1	win	2022-12-20	16:45:15	16:59:54	876768	62da4563028fbcadf46412bc	512348560	1	main_slash	11	main_slash	129	stimuli_target_circlediamonds.svg	stimuli_distractor_trianglediamonds.svg	2	yes	53	1	555
6.6.1	win	2022-12-20	16:45:15	16:59:54	876768	62da4563028fbcadf46412bc	512348560	1	main_slash	11	advance_on_keypress_SLASH	130	stimuli_target_circlediamonds.svg	stimuli_distractor_trianglediamonds.svg	2	yes	57	0	333
6.6.1	win	2022-12-20	16:45:15	16:59:57	879746	62da4563028fbcadf46412bc	512348560	1	main_slash	11	main_slash	131	stimuli_target_diamondsquares.svg	stimuli_distractor_diamondtriangles.svg	24	yes	0	0	2000
6.6.1	win	2022-12-20	16:45:15	16:59:57	879746	62da4563028fbcadf46412bc	512348560	1	main_slash	11	advance_on_keypress_SLASH	132	stimuli_target_diamondsquares.svg	stimuli_distractor_diamondtriangles.svg	24	yes	57	0	613
6.6.1	win	2022-12-20	16:45:15	16:59:59	881592	62da4563028fbcadf46412bc	512348560	1	main_slash	11	main_slash	133	stimuli_distractor_trianglediamonds.svg	stimuli_target_diamondsquares.svg	28	yes	53	1	579
6.6.1	win	2022-12-20	16:45:15	16:59:59	881592	62da4563028fbcadf46412bc	512348560	1	main_slash	11	advance_on_keypress_SLASH	134	stimuli_distractor_trianglediamonds.svg	stimuli_target_diamondsquares.svg	28	yes	57	0	372
6.6.1	win	2022-12-20	16:45:15	17:00:00	883200	62da4563028fbcadf46412bc	512348560	1	main_slash	11	main_slash	135	stimuli_distractor_trianglediamonds.svg	stimuli_target_diamondcircles.svg	27	yes	53	1	604
6.6.1	win	2022-12-20	16:45:15	17:00:00	883200	62da4563028fbcadf46412bc	512348560	1	main_slash	11	advance_on_keypress_SLASH	136	stimuli_distractor_trianglediamonds.svg	stimuli_target_diamondcircles.svg	27	yes	57	0	291
6.6.1	win	2022-12-20	16:45:15	17:00:02	884672	62da4563028fbcadf46412bc	512348560	1	main_slash	11	main_slash	137	stimuli_target_squarediamonds.svg	stimuli_distractor_trianglediamonds.svg	4	yes	53	1	543
6.6.1	win	2022-12-20	16:45:15	17:00:02	884672	62da4563028fbcadf46412bc	512348560	1	main_slash	11	advance_on_keypress_SLASH	138	stimuli_target_squarediamonds.svg	stimuli_distractor_trianglediamonds.svg	4	yes	57	0	249
6.6.1	win	2022-12-20	16:45:15	17:00:03	886040	62da4563028fbcadf46412bc	512348560	1	main_slash	11	main_slash	139	stimuli_target_squaretriangles.svg	stimuli_distractor_trianglediamonds.svg	3	yes	53	1	477
6.6.1	win	2022-12-20	16:45:15	17:00:03	886040	62da4563028fbcadf46412bc	512348560	1	main_slash	11	advance_on_keypress_SLASH	140	stimuli_target_squaretriangles.svg	stimuli_distractor_trianglediamonds.svg	3	yes	57	0	250
6.6.1	win	2022-12-20	16:45:15	17:00:05	887576	62da4563028fbcadf46412bc	512348560	1	main_slash	11	main_slash	141	stimuli_distractor_diamondtriangles.svg	stimuli_target_trianglecircles.svg	29	yes	53	1	647
6.6.1	win	2022-12-20	16:45:15	17:00:05	887576	62da4563028fbcadf46412bc	512348560	1	main_slash	11	advance_on_keypress_SLASH	142	stimuli_distractor_diamondtriangles.svg	stimuli_target_trianglecircles.svg	29	yes	57	0	276
6.6.1	win	2022-12-20	16:45:15	17:00:08	890496	62da4563028fbcadf46412bc	512348560	1	main_slash	11	main_slash	143	stimuli_target_circletriangles.svg	stimuli_distractor_diamondtriangles.svg	5	yes	0	0	2000
6.6.1	win	2022-12-20	16:45:15	17:00:08	890496	62da4563028fbcadf46412bc	512348560	1	main_slash	11	advance_on_keypress_SLASH	144	stimuli_target_circletriangles.svg	stimuli_distractor_diamondtriangles.svg	5	yes	57	0	623
6.6.1	win	2022-12-20	16:45:15	17:00:09	892304	62da4563028fbcadf46412bc	512348560	1	main_slash	11	main_slash	145	stimuli_distractor_diamondtriangles.svg	stimuli_target_circlediamonds.svg	14	yes	53	1	541
6.6.1	win	2022-12-20	16:45:15	17:00:09	892304	62da4563028fbcadf46412bc	512348560	1	main_slash	11	advance_on_keypress_SLASH	146	stimuli_distractor_diamondtriangles.svg	stimuli_target_circlediamonds.svg	14	yes	57	0	447
6.6.1	win	2022-12-20	16:45:15	17:00:13	895396	62da4563028fbcadf46412bc	512348560	1	main_slash	11	main_slash	147	stimuli_target_trianglesquares.svg	stimuli_distractor_diamondtriangles.svg	22	yes	0	0	2000
6.6.1	win	2022-12-20	16:45:15	17:00:13	895396	62da4563028fbcadf46412bc	512348560	1	main_slash	11	advance_on_keypress_SLASH	148	stimuli_target_trianglesquares.svg	stimuli_distractor_diamondtriangles.svg	22	yes	57	0	411
6.6.1	win	2022-12-20	16:45:15	17:00:16	898446	62da4563028fbcadf46412bc	512348560	1	main_slash	11	main_slash	149	stimuli_distractor_diamondtriangles.svg	stimuli_target_diamondsquares.svg	32	yes	0	0	2000
6.6.1	win	2022-12-20	16:45:15	17:00:16	898446	62da4563028fbcadf46412bc	512348560	1	main_slash	11	advance_on_keypress_SLASH	150	stimuli_distractor_diamondtriangles.svg	stimuli_target_diamondsquares.svg	32	yes	57	0	321
6.6.1	win	2022-12-20	16:45:15	17:00:17	899936	62da4563028fbcadf46412bc	512348560	1	main_slash	11	main_slash	151	stimuli_distractor_trianglediamonds.svg	stimuli_distractor_diamondtriangles.svg	36	no	53	0	523
6.6.1	win	2022-12-20	16:45:15	17:00:17	899936	62da4563028fbcadf46412bc	512348560	1	main_slash	11	advance_on_keypress_SLASH	152	stimuli_distractor_trianglediamonds.svg	stimuli_distractor_diamondtriangles.svg	36	no	57	0	430
6.6.1	win	2022-12-20	16:45:15	17:00:20	903013	62da4563028fbcadf46412bc	512348560	1	main_slash	11	main_slash	153	stimuli_target_diamondsquares.svg	stimuli_distractor_trianglediamonds.svg	20	yes	0	0	2000
6.6.1	win	2022-12-20	16:45:15	17:00:20	903013	62da4563028fbcadf46412bc	512348560	1	main_slash	11	advance_on_keypress_SLASH	154	stimuli_target_diamondsquares.svg	stimuli_distractor_trianglediamonds.svg	20	yes	57	0	410
6.6.1	win	2022-12-20	16:45:15	17:00:22	904536	62da4563028fbcadf46412bc	512348560	1	main_slash	11	main_slash	155	stimuli_target_squaretriangles.svg	stimuli_distractor_diamondtriangles.svg	7	yes	53	1	473
6.6.1	win	2022-12-20	16:45:15	17:00:22	904536	62da4563028fbcadf46412bc	512348560	1	main_slash	11	advance_on_keypress_SLASH	156	stimuli_target_squaretriangles.svg	stimuli_distractor_diamondtriangles.svg	7	yes	57	0	366
6.6.1	win	2022-12-20	16:45:15	17:00:23	906024	62da4563028fbcadf46412bc	512348560	1	main_slash	11	main_slash	157	stimuli_distractor_trianglediamonds.svg	stimuli_target_circletriangles.svg	9	yes	53	1	478
6.6.1	win	2022-12-20	16:45:15	17:00:23	906024	62da4563028fbcadf46412bc	512348560	1	main_slash	11	advance_on_keypress_SLASH	158	stimuli_distractor_trianglediamonds.svg	stimuli_target_circletriangles.svg	9	yes	57	0	322
6.6.1	win	2022-12-20	16:45:15	17:00:25	907600	62da4563028fbcadf46412bc	512348560	1	main_slash	11	main_slash	159	stimuli_distractor_trianglediamonds.svg	stimuli_target_trianglesquares.svg	26	yes	53	1	620
6.6.1	win	2022-12-20	16:45:15	17:00:25	907600	62da4563028fbcadf46412bc	512348560	1	main_slash	11	advance_on_keypress_SLASH	160	stimuli_distractor_trianglediamonds.svg	stimuli_target_trianglesquares.svg	26	yes	57	0	267