build	computer.platform	date	time	timestamp	time_elapsed_ms	subject	group	session	blockcode	blocknum	trialcode	trialnum	stimulus_left	stimulus_right	stim_index	target_present	response	correct	latency
6.6.1	win	2022-12-28	18:39:14	18:45:01	345316	5ce203d24cf9960001797537	571603153	1	practice_slash	5	practice_slash	1	stimuli_distractor_trianglediamonds.svg	stimuli_target_squarediamonds.svg	11	yes	53	1	1657
6.6.1	win	2022-12-28	18:39:14	18:45:01	345316	5ce203d24cf9960001797537	571603153	1	practice_slash	5	advance_on_keypress_SLASH	2	stimuli_distractor_trianglediamonds.svg	stimuli_target_squarediamonds.svg	11	yes	57	0	5475
6.6.1	win	2022-12-28	18:39:14	18:45:09	353083	5ce203d24cf9960001797537	571603153	1	practice_slash	5	practice_slash	3	stimuli_target_diamondsquares.svg	stimuli_distractor_diamondtriangles.svg	3	yes	53	1	622
6.6.1	win	2022-12-28	18:39:14	18:45:09	353083	5ce203d24cf9960001797537	571603153	1	practice_slash	5	advance_on_keypress_SLASH	4	stimuli_target_diamondsquares.svg	stimuli_distractor_diamondtriangles.svg	3	yes	57	0	2749
6.6.1	win	2022-12-28	18:39:14	18:45:15	359476	5ce203d24cf9960001797537	571603153	1	practice_slash	5	practice_slash	5	stimuli_distractor_trianglediamonds.svg	stimuli_distractor_diamondtriangles.svg	16	no	0	1	2000
6.6.1	win	2022-12-28	18:39:14	18:45:15	359476	5ce203d24cf9960001797537	571603153	1	practice_slash	5	advance_on_keypress_SLASH	6	stimuli_distractor_trianglediamonds.svg	stimuli_distractor_diamondtriangles.svg	16	no	57	0	1480
6.6.1	win	2022-12-28	18:39:14	18:45:19	363347	5ce203d24cf9960001797537	571603153	1	practice_slash	5	practice_slash	7	stimuli_distractor_diamondtriangles.svg	stimuli_target_diamondcircles.svg	8	yes	53	1	749
6.6.1	win	2022-12-28	18:39:14	18:45:19	363347	5ce203d24cf9960001797537	571603153	1	practice_slash	5	advance_on_keypress_SLASH	8	stimuli_distractor_diamondtriangles.svg	stimuli_target_diamondcircles.svg	8	yes	57	0	1172
6.6.1	win	2022-12-28	18:39:14	18:45:22	366772	5ce203d24cf9960001797537	571603153	1	practice_slash	5	practice_slash	9	stimuli_distractor_trianglediamonds.svg	stimuli_target_diamondcircles.svg	12	yes	53	1	611
6.6.1	win	2022-12-28	18:39:14	18:45:22	366772	5ce203d24cf9960001797537	571603153	1	practice_slash	5	advance_on_keypress_SLASH	10	stimuli_distractor_trianglediamonds.svg	stimuli_target_diamondcircles.svg	12	yes	57	0	1648
6.6.1	win	2022-12-28	18:39:14	18:45:28	372068	5ce203d24cf9960001797537	571603153	1	practice_slash	5	practice_slash	11	stimuli_distractor_trianglediamonds.svg	stimuli_distractor_trianglediamonds.svg	15	no	0	1	2000
6.6.1	win	2022-12-28	18:39:14	18:45:28	372068	5ce203d24cf9960001797537	571603153	1	practice_slash	5	advance_on_keypress_SLASH	12	stimuli_distractor_trianglediamonds.svg	stimuli_distractor_trianglediamonds.svg	15	no	57	0	2072
6.6.1	win	2022-12-28	18:39:14	18:45:33	377791	5ce203d24cf9960001797537	571603153	1	practice_slash	5	practice_slash	13	stimuli_distractor_diamondtriangles.svg	stimuli_distractor_diamondtriangles.svg	13	no	0	1	2000
6.6.1	win	2022-12-28	18:39:14	18:45:33	377791	5ce203d24cf9960001797537	571603153	1	practice_slash	5	advance_on_keypress_SLASH	14	stimuli_distractor_diamondtriangles.svg	stimuli_distractor_diamondtriangles.svg	13	no	57	0	886
6.6.1	win	2022-12-28	18:39:14	18:45:37	381131	5ce203d24cf9960001797537	571603153	1	practice_slash	5	practice_slash	15	stimuli_target_squarediamonds.svg	stimuli_distractor_diamondtriangles.svg	2	yes	53	1	806
6.6.1	win	2022-12-28	18:39:14	18:45:37	381131	5ce203d24cf9960001797537	571603153	1	practice_slash	5	advance_on_keypress_SLASH	16	stimuli_target_squarediamonds.svg	stimuli_distractor_diamondtriangles.svg	2	yes	57	0	1450
6.6.1	win	2022-12-28	18:39:14	18:45:40	385043	5ce203d24cf9960001797537	571603153	1	practice_slash	5	practice_slash	17	stimuli_distractor_diamondtriangles.svg	stimuli_target_trianglecircles.svg	9	yes	53	1	810
6.6.1	win	2022-12-28	18:39:14	18:45:40	385043	5ce203d24cf9960001797537	571603153	1	practice_slash	5	advance_on_keypress_SLASH	18	stimuli_distractor_diamondtriangles.svg	stimuli_target_trianglecircles.svg	9	yes	57	0	2406
6.6.1	win	2022-12-28	18:39:14	18:45:45	389627	5ce203d24cf9960001797537	571603153	1	practice_slash	5	practice_slash	19	stimuli_target_diamondsquares.svg	stimuli_distractor_trianglediamonds.svg	6	yes	53	1	525
6.6.1	win	2022-12-28	18:39:14	18:45:45	389627	5ce203d24cf9960001797537	571603153	1	practice_slash	5	advance_on_keypress_SLASH	20	stimuli_target_diamondsquares.svg	stimuli_distractor_trianglediamonds.svg	6	yes	57	0	1113
6.6.1	win	2022-12-28	18:39:14	18:45:48	392812	5ce203d24cf9960001797537	571603153	1	practice_slash	5	practice_slash	21	stimuli_distractor_diamondtriangles.svg	stimuli_target_circletriangles.svg	7	yes	53	1	414
6.6.1	win	2022-12-28	18:39:14	18:45:48	392812	5ce203d24cf9960001797537	571603153	1	practice_slash	5	advance_on_keypress_SLASH	22	stimuli_distractor_diamondtriangles.svg	stimuli_target_circletriangles.svg	7	yes	57	0	715
6.6.1	win	2022-12-28	18:39:14	18:45:53	397171	5ce203d24cf9960001797537	571603153	1	practice_slash	5	practice_slash	23	stimuli_distractor_diamondtriangles.svg	stimuli_distractor_trianglediamonds.svg	14	no	0	1	2000
6.6.1	win	2022-12-28	18:39:14	18:45:53	397171	5ce203d24cf9960001797537	571603153	1	practice_slash	5	advance_on_keypress_SLASH	24	stimuli_distractor_diamondtriangles.svg	stimuli_distractor_trianglediamonds.svg	14	no	57	0	2425
6.6.1	win	2022-12-28	18:39:14	18:45:57	401899	5ce203d24cf9960001797537	571603153	1	practice_slash	5	practice_slash	25	stimuli_target_circlediamonds.svg	stimuli_distractor_trianglediamonds.svg	4	yes	53	1	659
6.6.1	win	2022-12-28	18:39:14	18:45:57	401899	5ce203d24cf9960001797537	571603153	1	practice_slash	5	advance_on_keypress_SLASH	26	stimuli_target_circlediamonds.svg	stimuli_distractor_trianglediamonds.svg	4	yes	57	0	810
6.6.1	win	2022-12-28	18:39:14	18:46:01	405051	5ce203d24cf9960001797537	571603153	1	practice_slash	5	practice_slash	27	stimuli_target_circlediamonds.svg	stimuli_distractor_diamondtriangles.svg	1	yes	53	1	690
6.6.1	win	2022-12-28	18:39:14	18:46:01	405051	5ce203d24cf9960001797537	571603153	1	practice_slash	5	advance_on_keypress_SLASH	28	stimuli_target_circlediamonds.svg	stimuli_distractor_diamondtriangles.svg	1	yes	57	0	1310
6.6.1	win	2022-12-28	18:39:14	18:46:04	408379	5ce203d24cf9960001797537	571603153	1	practice_slash	5	practice_slash	29	stimuli_target_squarediamonds.svg	stimuli_distractor_trianglediamonds.svg	5	yes	53	1	363
6.6.1	win	2022-12-28	18:39:14	18:46:04	408379	5ce203d24cf9960001797537	571603153	1	practice_slash	5	advance_on_keypress_SLASH	30	stimuli_target_squarediamonds.svg	stimuli_distractor_trianglediamonds.svg	5	yes	57	0	653
6.6.1	win	2022-12-28	18:39:14	18:46:07	411243	5ce203d24cf9960001797537	571603153	1	practice_slash	5	practice_slash	31	stimuli_distractor_trianglediamonds.svg	stimuli_target_circlediamonds.svg	10	yes	53	1	573
6.6.1	win	2022-12-28	18:39:14	18:46:07	411243	5ce203d24cf9960001797537	571603153	1	practice_slash	5	advance_on_keypress_SLASH	32	stimuli_distractor_trianglediamonds.svg	stimuli_target_circlediamonds.svg	10	yes	57	0	769
6.6.1	win	2022-12-28	18:39:14	18:46:13	417343	5ce203d24cf9960001797537	571603153	1	main_slash	7	main_slash	1	stimuli_distractor_trianglediamonds.svg	stimuli_target_diamondcircles.svg	27	yes	53	1	634
6.6.1	win	2022-12-28	18:39:14	18:46:13	417343	5ce203d24cf9960001797537	571603153	1	main_slash	7	advance_on_keypress_SLASH	2	stimuli_distractor_trianglediamonds.svg	stimuli_target_diamondcircles.svg	27	yes	57	0	1940
6.6.1	win	2022-12-28	18:39:14	18:46:16	420459	5ce203d24cf9960001797537	571603153	1	main_slash	7	main_slash	3	stimuli_target_squaretriangles.svg	stimuli_distractor_diamondtriangles.svg	7	yes	53	1	513
6.6.1	win	2022-12-28	18:39:14	18:46:16	420459	5ce203d24cf9960001797537	571603153	1	main_slash	7	advance_on_keypress_SLASH	4	stimuli_target_squaretriangles.svg	stimuli_distractor_diamondtriangles.svg	7	yes	57	0	2120
6.6.1	win	2022-12-28	18:39:14	18:46:19	423632	5ce203d24cf9960001797537	571603153	1	main_slash	7	main_slash	5	stimuli_distractor_trianglediamonds.svg	stimuli_target_diamondsquares.svg	28	yes	53	1	412
6.6.1	win	2022-12-28	18:39:14	18:46:19	423632	5ce203d24cf9960001797537	571603153	1	main_slash	7	advance_on_keypress_SLASH	6	stimuli_distractor_trianglediamonds.svg	stimuli_target_diamondsquares.svg	28	yes	57	0	1625
6.6.1	win	2022-12-28	18:39:14	18:46:23	427824	5ce203d24cf9960001797537	571603153	1	main_slash	7	main_slash	7	stimuli_target_trianglesquares.svg	stimuli_distractor_trianglediamonds.svg	18	yes	53	1	1923
6.6.1	win	2022-12-28	18:39:14	18:46:23	427824	5ce203d24cf9960001797537	571603153	1	main_slash	7	advance_on_keypress_SLASH	8	stimuli_target_trianglesquares.svg	stimuli_distractor_trianglediamonds.svg	18	yes	57	0	1133
6.6.1	win	2022-12-28	18:39:14	18:46:27	431595	5ce203d24cf9960001797537	571603153	1	main_slash	7	main_slash	9	stimuli_distractor_trianglediamonds.svg	stimuli_distractor_trianglediamonds.svg	34	no	0	1	2000
6.6.1	win	2022-12-28	18:39:14	18:46:27	431595	5ce203d24cf9960001797537	571603153	1	main_slash	7	advance_on_keypress_SLASH	10	stimuli_distractor_trianglediamonds.svg	stimuli_distractor_trianglediamonds.svg	34	no	57	0	750
6.6.1	win	2022-12-28	18:39:14	18:46:29	433535	5ce203d24cf9960001797537	571603153	1	main_slash	7	main_slash	11	stimuli_target_circlediamonds.svg	stimuli_distractor_trianglediamonds.svg	2	yes	53	1	553
6.6.1	win	2022-12-28	18:39:14	18:46:29	433535	5ce203d24cf9960001797537	571603153	1	main_slash	7	advance_on_keypress_SLASH	12	stimuli_target_circlediamonds.svg	stimuli_distractor_trianglediamonds.svg	2	yes	57	0	1280
6.6.1	win	2022-12-28	18:39:14	18:46:33	437451	5ce203d24cf9960001797537	571603153	1	main_slash	7	main_slash	13	stimuli_distractor_diamondtriangles.svg	stimuli_distractor_trianglediamonds.svg	37	no	0	1	2000
6.6.1	win	2022-12-28	18:39:14	18:46:33	437451	5ce203d24cf9960001797537	571603153	1	main_slash	7	advance_on_keypress_SLASH	14	stimuli_distractor_diamondtriangles.svg	stimuli_distractor_trianglediamonds.svg	37	no	57	0	495
6.6.1	win	2022-12-28	18:39:14	18:46:35	439200	5ce203d24cf9960001797537	571603153	1	main_slash	7	main_slash	15	stimuli_target_squarediamonds.svg	stimuli_distractor_trianglediamonds.svg	4	yes	53	1	615
6.6.1	win	2022-12-28	18:39:14	18:46:35	439200	5ce203d24cf9960001797537	571603153	1	main_slash	7	advance_on_keypress_SLASH	16	stimuli_target_squarediamonds.svg	stimuli_distractor_trianglediamonds.svg	4	yes	57	0	2283
6.6.1	win	2022-12-28	18:39:14	18:46:39	443783	5ce203d24cf9960001797537	571603153	1	main_slash	7	main_slash	17	stimuli_distractor_diamondtriangles.svg	stimuli_target_squaretriangles.svg	15	yes	53	1	1664
6.6.1	win	2022-12-28	18:39:14	18:46:39	443783	5ce203d24cf9960001797537	571603153	1	main_slash	7	advance_on_keypress_SLASH	18	stimuli_distractor_diamondtriangles.svg	stimuli_target_squaretriangles.svg	15	yes	57	0	895
6.6.1	win	2022-12-28	18:39:14	18:46:42	446879	5ce203d24cf9960001797537	571603153	1	main_slash	7	main_slash	19	stimuli_distractor_trianglediamonds.svg	stimuli_target_squaretriangles.svg	11	yes	53	1	1559
6.6.1	win	2022-12-28	18:39:14	18:46:42	446879	5ce203d24cf9960001797537	571603153	1	main_slash	7	advance_on_keypress_SLASH	20	stimuli_distractor_trianglediamonds.svg	stimuli_target_squaretriangles.svg	11	yes	57	0	865
6.6.1	win	2022-12-28	18:39:14	18:46:44	448887	5ce203d24cf9960001797537	571603153	1	main_slash	7	main_slash	21	stimuli_target_trianglecircles.svg	stimuli_distractor_trianglediamonds.svg	17	yes	53	1	499
6.6.1	win	2022-12-28	18:39:14	18:46:44	448887	5ce203d24cf9960001797537	571603153	1	main_slash	7	advance_on_keypress_SLASH	22	stimuli_target_trianglecircles.svg	stimuli_distractor_trianglediamonds.svg	17	yes	57	0	936
6.6.1	win	2022-12-28	18:39:14	18:46:48	452456	5ce203d24cf9960001797537	571603153	1	main_slash	7	main_slash	23	stimuli_distractor_trianglediamonds.svg	stimuli_distractor_trianglediamonds.svg	33	no	0	1	2000
6.6.1	win	2022-12-28	18:39:14	18:46:48	452456	5ce203d24cf9960001797537	571603153	1	main_slash	7	advance_on_keypress_SLASH	24	stimuli_distractor_trianglediamonds.svg	stimuli_distractor_trianglediamonds.svg	33	no	57	0	473
6.6.1	win	2022-12-28	18:39:14	18:46:50	454408	5ce203d24cf9960001797537	571603153	1	main_slash	7	main_slash	25	stimuli_distractor_diamondtriangles.svg	stimuli_target_trianglesquares.svg	30	yes	53	1	843
6.6.1	win	2022-12-28	18:39:14	18:46:50	454408	5ce203d24cf9960001797537	571603153	1	main_slash	7	advance_on_keypress_SLASH	26	stimuli_distractor_diamondtriangles.svg	stimuli_target_trianglesquares.svg	30	yes	57	0	1101
6.6.1	win	2022-12-28	18:39:14	18:46:52	456991	5ce203d24cf9960001797537	571603153	1	main_slash	7	main_slash	27	stimuli_distractor_diamondtriangles.svg	stimuli_target_circlediamonds.svg	14	yes	53	1	840
6.6.1	win	2022-12-28	18:39:14	18:46:52	456991	5ce203d24cf9960001797537	571603153	1	main_slash	7	advance_on_keypress_SLASH	28	stimuli_distractor_diamondtriangles.svg	stimuli_target_circlediamonds.svg	14	yes	57	0	970
6.6.1	win	2022-12-28	18:39:14	18:46:56	460606	5ce203d24cf9960001797537	571603153	1	main_slash	7	main_slash	29	stimuli_distractor_trianglediamonds.svg	stimuli_distractor_diamondtriangles.svg	36	no	0	1	2000
6.6.1	win	2022-12-28	18:39:14	18:46:56	460606	5ce203d24cf9960001797537	571603153	1	main_slash	7	advance_on_keypress_SLASH	30	stimuli_distractor_trianglediamonds.svg	stimuli_distractor_diamondtriangles.svg	36	no	57	0	1155
6.6.1	win	2022-12-28	18:39:14	18:46:59	463112	5ce203d24cf9960001797537	571603153	1	main_slash	7	main_slash	31	stimuli_target_diamondcircles.svg	stimuli_distractor_trianglediamonds.svg	19	yes	53	1	704
6.6.1	win	2022-12-28	18:39:14	18:46:59	463112	5ce203d24cf9960001797537	571603153	1	main_slash	7	advance_on_keypress_SLASH	32	stimuli_target_diamondcircles.svg	stimuli_distractor_trianglediamonds.svg	19	yes	57	0	1151
6.6.1	win	2022-12-28	18:39:14	18:47:02	466902	5ce203d24cf9960001797537	571603153	1	main_slash	7	main_slash	33	stimuli_distractor_diamondtriangles.svg	stimuli_distractor_diamondtriangles.svg	39	no	0	1	2000
6.6.1	win	2022-12-28	18:39:14	18:47:02	466902	5ce203d24cf9960001797537	571603153	1	main_slash	7	advance_on_keypress_SLASH	34	stimuli_distractor_diamondtriangles.svg	stimuli_distractor_diamondtriangles.svg	39	no	57	0	1227
6.6.1	win	2022-12-28	18:39:14	18:47:05	469535	5ce203d24cf9960001797537	571603153	1	main_slash	7	main_slash	35	stimuli_distractor_diamondtriangles.svg	stimuli_target_trianglecircles.svg	29	yes	53	1	766
6.6.1	win	2022-12-28	18:39:14	18:47:05	469535	5ce203d24cf9960001797537	571603153	1	main_slash	7	advance_on_keypress_SLASH	36	stimuli_distractor_diamondtriangles.svg	stimuli_target_trianglecircles.svg	29	yes	57	0	1936
6.6.1	win	2022-12-28	18:39:14	18:47:10	474105	5ce203d24cf9960001797537	571603153	1	main_slash	7	main_slash	37	stimuli_distractor_diamondtriangles.svg	stimuli_target_diamondsquares.svg	32	yes	0	0	2000
6.6.1	win	2022-12-28	18:39:14	18:47:10	474105	5ce203d24cf9960001797537	571603153	1	main_slash	7	advance_on_keypress_SLASH	38	stimuli_distractor_diamondtriangles.svg	stimuli_target_diamondsquares.svg	32	yes	57	0	913
6.6.1	win	2022-12-28	18:39:14	18:47:12	476320	5ce203d24cf9960001797537	571603153	1	main_slash	7	main_slash	39	stimuli_distractor_trianglediamonds.svg	stimuli_target_trianglecircles.svg	25	yes	53	1	667
6.6.1	win	2022-12-28	18:39:14	18:47:12	476320	5ce203d24cf9960001797537	571603153	1	main_slash	7	advance_on_keypress_SLASH	40	stimuli_distractor_trianglediamonds.svg	stimuli_target_trianglecircles.svg	25	yes	57	0	5442
6.6.1	win	2022-12-28	18:39:14	18:47:19	483290	5ce203d24cf9960001797537	571603153	1	main_slash	7	main_slash	41	stimuli_target_diamondsquares.svg	stimuli_distractor_diamondtriangles.svg	24	yes	53	1	887
6.6.1	win	2022-12-28	18:39:14	18:47:19	483290	5ce203d24cf9960001797537	571603153	1	main_slash	7	advance_on_keypress_SLASH	42	stimuli_target_diamondsquares.svg	stimuli_distractor_diamondtriangles.svg	24	yes	57	0	1560
6.6.1	win	2022-12-28	18:39:14	18:47:23	487483	5ce203d24cf9960001797537	571603153	1	main_slash	7	main_slash	43	stimuli_distractor_trianglediamonds.svg	stimuli_target_squarediamonds.svg	12	yes	0	0	2000
6.6.1	win	2022-12-28	18:39:14	18:47:23	487483	5ce203d24cf9960001797537	571603153	1	main_slash	7	advance_on_keypress_SLASH	44	stimuli_distractor_trianglediamonds.svg	stimuli_target_squarediamonds.svg	12	yes	57	0	390
6.6.1	win	2022-12-28	18:39:14	18:47:26	490511	5ce203d24cf9960001797537	571603153	1	main_slash	7	main_slash	45	stimuli_distractor_trianglediamonds.svg	stimuli_target_trianglesquares.svg	26	yes	0	0	2000
6.6.1	win	2022-12-28	18:39:14	18:47:26	490511	5ce203d24cf9960001797537	571603153	1	main_slash	7	advance_on_keypress_SLASH	46	stimuli_distractor_trianglediamonds.svg	stimuli_target_trianglesquares.svg	26	yes	57	0	322
6.6.1	win	2022-12-28	18:39:14	18:47:29	493472	5ce203d24cf9960001797537	571603153	1	main_slash	7	main_slash	47	stimuli_distractor_diamondtriangles.svg	stimuli_distractor_trianglediamonds.svg	38	no	0	1	2000
6.6.1	win	2022-12-28	18:39:14	18:47:29	493472	5ce203d24cf9960001797537	571603153	1	main_slash	7	advance_on_keypress_SLASH	48	stimuli_distractor_diamondtriangles.svg	stimuli_distractor_trianglediamonds.svg	38	no	57	0	473
6.6.1	win	2022-12-28	18:39:14	18:47:31	495383	5ce203d24cf9960001797537	571603153	1	main_slash	7	main_slash	49	stimuli_distractor_diamondtriangles.svg	stimuli_target_circletriangles.svg	13	yes	53	1	803
6.6.1	win	2022-12-28	18:39:14	18:47:31	495383	5ce203d24cf9960001797537	571603153	1	main_slash	7	advance_on_keypress_SLASH	50	stimuli_distractor_diamondtriangles.svg	stimuli_target_circletriangles.svg	13	yes	57	0	1469
6.6.1	win	2022-12-28	18:39:14	18:47:34	498263	5ce203d24cf9960001797537	571603153	1	main_slash	7	main_slash	51	stimuli_target_diamondsquares.svg	stimuli_distractor_trianglediamonds.svg	20	yes	53	1	776
6.6.1	win	2022-12-28	18:39:14	18:47:34	498263	5ce203d24cf9960001797537	571603153	1	main_slash	7	advance_on_keypress_SLASH	52	stimuli_target_diamondsquares.svg	stimuli_distractor_trianglediamonds.svg	20	yes	57	0	732
6.6.1	win	2022-12-28	18:39:14	18:47:36	500136	5ce203d24cf9960001797537	571603153	1	main_slash	7	main_slash	53	stimuli_target_diamondcircles.svg	stimuli_distractor_diamondtriangles.svg	23	yes	53	1	500
6.6.1	win	2022-12-28	18:39:14	18:47:36	500136	5ce203d24cf9960001797537	571603153	1	main_slash	7	advance_on_keypress_SLASH	54	stimuli_target_diamondcircles.svg	stimuli_distractor_diamondtriangles.svg	23	yes	57	0	1417
6.6.1	win	2022-12-28	18:39:14	18:47:40	504183	5ce203d24cf9960001797537	571603153	1	main_slash	7	main_slash	55	stimuli_distractor_trianglediamonds.svg	stimuli_distractor_diamondtriangles.svg	35	no	0	1	2000
6.6.1	win	2022-12-28	18:39:14	18:47:40	504183	5ce203d24cf9960001797537	571603153	1	main_slash	7	advance_on_keypress_SLASH	56	stimuli_distractor_trianglediamonds.svg	stimuli_distractor_diamondtriangles.svg	35	no	57	0	1274
6.6.1	win	2022-12-28	18:39:14	18:47:42	506800	5ce203d24cf9960001797537	571603153	1	main_slash	7	main_slash	57	stimuli_distractor_diamondtriangles.svg	stimuli_target_squarediamonds.svg	16	yes	53	1	708
6.6.1	win	2022-12-28	18:39:14	18:47:42	506800	5ce203d24cf9960001797537	571603153	1	main_slash	7	advance_on_keypress_SLASH	58	stimuli_distractor_diamondtriangles.svg	stimuli_target_squarediamonds.svg	16	yes	57	0	1156
6.6.1	win	2022-12-28	18:39:14	18:47:45	509335	5ce203d24cf9960001797537	571603153	1	main_slash	7	main_slash	59	stimuli_target_trianglesquares.svg	stimuli_distractor_diamondtriangles.svg	22	yes	53	1	737
6.6.1	win	2022-12-28	18:39:14	18:47:45	509335	5ce203d24cf9960001797537	571603153	1	main_slash	7	advance_on_keypress_SLASH	60	stimuli_target_trianglesquares.svg	stimuli_distractor_diamondtriangles.svg	22	yes	57	0	989
6.6.1	win	2022-12-28	18:39:14	18:47:47	511623	5ce203d24cf9960001797537	571603153	1	main_slash	7	main_slash	61	stimuli_target_trianglecircles.svg	stimuli_distractor_diamondtriangles.svg	21	yes	53	1	664
6.6.1	win	2022-12-28	18:39:14	18:47:47	511623	5ce203d24cf9960001797537	571603153	1	main_slash	7	advance_on_keypress_SLASH	62	stimuli_target_trianglecircles.svg	stimuli_distractor_diamondtriangles.svg	21	yes	57	0	1039
6.6.1	win	2022-12-28	18:39:14	18:47:49	514023	5ce203d24cf9960001797537	571603153	1	main_slash	7	main_slash	63	stimuli_target_circlediamonds.svg	stimuli_distractor_diamondtriangles.svg	6	yes	53	1	716
6.6.1	win	2022-12-28	18:39:14	18:47:49	514023	5ce203d24cf9960001797537	571603153	1	main_slash	7	advance_on_keypress_SLASH	64	stimuli_target_circlediamonds.svg	stimuli_distractor_diamondtriangles.svg	6	yes	57	0	1206
6.6.1	win	2022-12-28	18:39:14	18:47:52	516488	5ce203d24cf9960001797537	571603153	1	main_slash	7	main_slash	65	stimuli_target_circletriangles.svg	stimuli_distractor_diamondtriangles.svg	5	yes	53	1	619
6.6.1	win	2022-12-28	18:39:14	18:47:52	516488	5ce203d24cf9960001797537	571603153	1	main_slash	7	advance_on_keypress_SLASH	66	stimuli_target_circletriangles.svg	stimuli_distractor_diamondtriangles.svg	5	yes	57	0	608
6.6.1	win	2022-12-28	18:39:14	18:47:54	518168	5ce203d24cf9960001797537	571603153	1	main_slash	7	main_slash	67	stimuli_target_squaretriangles.svg	stimuli_distractor_trianglediamonds.svg	3	yes	53	1	432
6.6.1	win	2022-12-28	18:39:14	18:47:54	518168	5ce203d24cf9960001797537	571603153	1	main_slash	7	advance_on_keypress_SLASH	68	stimuli_target_squaretriangles.svg	stimuli_distractor_trianglediamonds.svg	3	yes	57	0	583
6.6.1	win	2022-12-28	18:39:14	18:47:57	521390	5ce203d24cf9960001797537	571603153	1	main_slash	7	main_slash	69	stimuli_distractor_diamondtriangles.svg	stimuli_distractor_diamondtriangles.svg	40	no	0	1	2000
6.6.1	win	2022-12-28	18:39:14	18:47:57	521390	5ce203d24cf9960001797537	571603153	1	main_slash	7	advance_on_keypress_SLASH	70	stimuli_distractor_diamondtriangles.svg	stimuli_distractor_diamondtriangles.svg	40	no	57	0	1076
6.6.1	win	2022-12-28	18:39:14	18:47:59	523615	5ce203d24cf9960001797537	571603153	1	main_slash	7	main_slash	71	stimuli_target_squarediamonds.svg	stimuli_distractor_diamondtriangles.svg	8	yes	53	1	504
6.6.1	win	2022-12-28	18:39:14	18:47:59	523615	5ce203d24cf9960001797537	571603153	1	main_slash	7	advance_on_keypress_SLASH	72	stimuli_target_squarediamonds.svg	stimuli_distractor_diamondtriangles.svg	8	yes	57	0	1648
6.6.1	win	2022-12-28	18:39:14	18:48:02	526656	5ce203d24cf9960001797537	571603153	1	main_slash	7	main_slash	73	stimuli_distractor_diamondtriangles.svg	stimuli_target_diamondcircles.svg	31	yes	53	1	743
6.6.1	win	2022-12-28	18:39:14	18:48:02	526656	5ce203d24cf9960001797537	571603153	1	main_slash	7	advance_on_keypress_SLASH	74	stimuli_distractor_diamondtriangles.svg	stimuli_target_diamondcircles.svg	31	yes	57	0	1111
6.6.1	win	2022-12-28	18:39:14	18:48:04	529016	5ce203d24cf9960001797537	571603153	1	main_slash	7	main_slash	75	stimuli_distractor_trianglediamonds.svg	stimuli_target_circlediamonds.svg	10	yes	53	1	609
6.6.1	win	2022-12-28	18:39:14	18:48:04	529016	5ce203d24cf9960001797537	571603153	1	main_slash	7	advance_on_keypress_SLASH	76	stimuli_distractor_trianglediamonds.svg	stimuli_target_circlediamonds.svg	10	yes	57	0	806
6.6.1	win	2022-12-28	18:39:14	18:48:06	530952	5ce203d24cf9960001797537	571603153	1	main_slash	7	main_slash	77	stimuli_distractor_trianglediamonds.svg	stimuli_target_circletriangles.svg	9	yes	53	1	491
6.6.1	win	2022-12-28	18:39:14	18:48:06	530952	5ce203d24cf9960001797537	571603153	1	main_slash	7	advance_on_keypress_SLASH	78	stimuli_distractor_trianglediamonds.svg	stimuli_target_circletriangles.svg	9	yes	57	0	944
6.6.1	win	2022-12-28	18:39:14	18:48:08	533024	5ce203d24cf9960001797537	571603153	1	main_slash	7	main_slash	79	stimuli_target_circletriangles.svg	stimuli_distractor_trianglediamonds.svg	1	yes	53	1	482
6.6.1	win	2022-12-28	18:39:14	18:48:08	533024	5ce203d24cf9960001797537	571603153	1	main_slash	7	advance_on_keypress_SLASH	80	stimuli_target_circletriangles.svg	stimuli_distractor_trianglediamonds.svg	1	yes	57	0	1516
6.6.1	win	2022-12-28	18:39:14	18:48:11	535617	5ce203d24cf9960001797537	571603153	1	main_slash	7	main_slash	81	stimuli_target_squaretriangles.svg	stimuli_distractor_trianglediamonds.svg	3	yes	53	1	435
6.6.1	win	2022-12-28	18:39:14	18:48:11	535617	5ce203d24cf9960001797537	571603153	1	main_slash	7	advance_on_keypress_SLASH	82	stimuli_target_squaretriangles.svg	stimuli_distractor_trianglediamonds.svg	3	yes	57	0	1387
6.6.1	win	2022-12-28	18:39:14	18:48:14	538136	5ce203d24cf9960001797537	571603153	1	main_slash	7	main_slash	83	stimuli_distractor_diamondtriangles.svg	stimuli_target_trianglesquares.svg	30	yes	53	1	485
6.6.1	win	2022-12-28	18:39:14	18:48:14	538136	5ce203d24cf9960001797537	571603153	1	main_slash	7	advance_on_keypress_SLASH	84	stimuli_distractor_diamondtriangles.svg	stimuli_target_trianglesquares.svg	30	yes	57	0	1160
6.6.1	win	2022-12-28	18:39:14	18:48:16	540576	5ce203d24cf9960001797537	571603153	1	main_slash	7	main_slash	85	stimuli_distractor_trianglediamonds.svg	stimuli_target_circlediamonds.svg	10	yes	53	1	644
6.6.1	win	2022-12-28	18:39:14	18:48:16	540576	5ce203d24cf9960001797537	571603153	1	main_slash	7	advance_on_keypress_SLASH	86	stimuli_distractor_trianglediamonds.svg	stimuli_target_circlediamonds.svg	10	yes	57	0	991
6.6.1	win	2022-12-28	18:39:14	18:48:18	542896	5ce203d24cf9960001797537	571603153	1	main_slash	7	main_slash	87	stimuli_target_squarediamonds.svg	stimuli_distractor_diamondtriangles.svg	8	yes	53	1	697
6.6.1	win	2022-12-28	18:39:14	18:48:18	542896	5ce203d24cf9960001797537	571603153	1	main_slash	7	advance_on_keypress_SLASH	88	stimuli_target_squarediamonds.svg	stimuli_distractor_diamondtriangles.svg	8	yes	57	0	950
6.6.1	win	2022-12-28	18:39:14	18:48:20	544944	5ce203d24cf9960001797537	571603153	1	main_slash	7	main_slash	89	stimuli_distractor_diamondtriangles.svg	stimuli_target_squaretriangles.svg	15	yes	53	1	464
6.6.1	win	2022-12-28	18:39:14	18:48:20	544944	5ce203d24cf9960001797537	571603153	1	main_slash	7	advance_on_keypress_SLASH	90	stimuli_distractor_diamondtriangles.svg	stimuli_target_squaretriangles.svg	15	yes	57	0	896
6.6.1	win	2022-12-28	18:39:14	18:48:22	546880	5ce203d24cf9960001797537	571603153	1	main_slash	7	main_slash	91	stimuli_target_circlediamonds.svg	stimuli_distractor_trianglediamonds.svg	2	yes	53	1	399
6.6.1	win	2022-12-28	18:39:14	18:48:22	546880	5ce203d24cf9960001797537	571603153	1	main_slash	7	advance_on_keypress_SLASH	92	stimuli_target_circlediamonds.svg	stimuli_distractor_trianglediamonds.svg	2	yes	57	0	1057
6.6.1	win	2022-12-28	18:39:14	18:48:24	549000	5ce203d24cf9960001797537	571603153	1	main_slash	7	main_slash	93	stimuli_distractor_trianglediamonds.svg	stimuli_distractor_diamondtriangles.svg	35	no	53	0	425
6.6.1	win	2022-12-28	18:39:14	18:48:24	549000	5ce203d24cf9960001797537	571603153	1	main_slash	7	advance_on_keypress_SLASH	94	stimuli_distractor_trianglediamonds.svg	stimuli_distractor_diamondtriangles.svg	35	no	57	0	897
6.6.1	win	2022-12-28	18:39:14	18:48:27	551352	5ce203d24cf9960001797537	571603153	1	main_slash	7	main_slash	95	stimuli_distractor_trianglediamonds.svg	stimuli_target_squarediamonds.svg	12	yes	53	1	816
6.6.1	win	2022-12-28	18:39:14	18:48:27	551352	5ce203d24cf9960001797537	571603153	1	main_slash	7	advance_on_keypress_SLASH	96	stimuli_distractor_trianglediamonds.svg	stimuli_target_squarediamonds.svg	12	yes	57	0	1045
6.6.1	win	2022-12-28	18:39:14	18:48:29	553456	5ce203d24cf9960001797537	571603153	1	main_slash	7	main_slash	97	stimuli_distractor_trianglediamonds.svg	stimuli_target_circletriangles.svg	9	yes	53	1	426
6.6.1	win	2022-12-28	18:39:14	18:48:29	553456	5ce203d24cf9960001797537	571603153	1	main_slash	7	advance_on_keypress_SLASH	98	stimuli_distractor_trianglediamonds.svg	stimuli_target_circletriangles.svg	9	yes	57	0	1354
6.6.1	win	2022-12-28	18:39:14	18:48:33	557444	5ce203d24cf9960001797537	571603153	1	main_slash	7	main_slash	99	stimuli_distractor_diamondtriangles.svg	stimuli_distractor_diamondtriangles.svg	40	no	0	1	2000
6.6.1	win	2022-12-28	18:39:14	18:48:33	557444	5ce203d24cf9960001797537	571603153	1	main_slash	7	advance_on_keypress_SLASH	100	stimuli_distractor_diamondtriangles.svg	stimuli_distractor_diamondtriangles.svg	40	no	57	0	1101
6.6.1	win	2022-12-28	18:39:14	18:48:35	559888	5ce203d24cf9960001797537	571603153	1	main_slash	7	main_slash	101	stimuli_target_diamondcircles.svg	stimuli_distractor_diamondtriangles.svg	23	yes	53	1	696
6.6.1	win	2022-12-28	18:39:14	18:48:35	559888	5ce203d24cf9960001797537	571603153	1	main_slash	7	advance_on_keypress_SLASH	102	stimuli_target_diamondcircles.svg	stimuli_distractor_diamondtriangles.svg	23	yes	57	0	1340
6.6.1	win	2022-12-28	18:39:14	18:48:38	562312	5ce203d24cf9960001797537	571603153	1	main_slash	7	main_slash	103	stimuli_distractor_trianglediamonds.svg	stimuli_target_squaretriangles.svg	11	yes	53	1	452
6.6.1	win	2022-12-28	18:39:14	18:48:38	562312	5ce203d24cf9960001797537	571603153	1	main_slash	7	advance_on_keypress_SLASH	104	stimuli_distractor_trianglediamonds.svg	stimuli_target_squaretriangles.svg	11	yes	57	0	2769
6.6.1	win	2022-12-28	18:39:14	18:48:43	567728	5ce203d24cf9960001797537	571603153	1	main_slash	7	main_slash	105	stimuli_distractor_trianglediamonds.svg	stimuli_distractor_trianglediamonds.svg	33	no	0	1	2000
6.6.1	win	2022-12-28	18:39:14	18:48:43	567728	5ce203d24cf9960001797537	571603153	1	main_slash	7	advance_on_keypress_SLASH	106	stimuli_distractor_trianglediamonds.svg	stimuli_distractor_trianglediamonds.svg	33	no	57	0	401
6.6.1	win	2022-12-28	18:39:14	18:48:45	569240	5ce203d24cf9960001797537	571603153	1	main_slash	7	main_slash	107	stimuli_distractor_trianglediamonds.svg	stimuli_target_trianglesquares.svg	26	yes	53	1	471
6.6.1	win	2022-12-28	18:39:14	18:48:45	569240	5ce203d24cf9960001797537	571603153	1	main_slash	7	advance_on_keypress_SLASH	108	stimuli_distractor_trianglediamonds.svg	stimuli_target_trianglesquares.svg	26	yes	57	0	1118
6.6.1	win	2022-12-28	18:39:14	18:48:47	571808	5ce203d24cf9960001797537	571603153	1	main_slash	7	main_slash	109	stimuli_target_trianglesquares.svg	stimuli_distractor_diamondtriangles.svg	22	yes	53	1	811
6.6.1	win	2022-12-28	18:39:14	18:48:47	571808	5ce203d24cf9960001797537	571603153	1	main_slash	7	advance_on_keypress_SLASH	110	stimuli_target_trianglesquares.svg	stimuli_distractor_diamondtriangles.svg	22	yes	57	0	872
6.6.1	win	2022-12-28	18:39:14	18:48:51	575317	5ce203d24cf9960001797537	571603153	1	main_slash	7	main_slash	111	stimuli_distractor_trianglediamonds.svg	stimuli_distractor_diamondtriangles.svg	36	no	0	1	2000
6.6.1	win	2022-12-28	18:39:14	18:48:51	575317	5ce203d24cf9960001797537	571603153	1	main_slash	7	advance_on_keypress_SLASH	112	stimuli_distractor_trianglediamonds.svg	stimuli_distractor_diamondtriangles.svg	36	no	57	0	396
6.6.1	win	2022-12-28	18:39:14	18:48:54	578359	5ce203d24cf9960001797537	571603153	1	main_slash	7	main_slash	113	stimuli_distractor_diamondtriangles.svg	stimuli_distractor_trianglediamonds.svg	38	no	0	1	2000
6.6.1	win	2022-12-28	18:39:14	18:48:54	578359	5ce203d24cf9960001797537	571603153	1	main_slash	7	advance_on_keypress_SLASH	114	stimuli_distractor_diamondtriangles.svg	stimuli_distractor_trianglediamonds.svg	38	no	57	0	362
6.6.1	win	2022-12-28	18:39:14	18:48:56	580240	5ce203d24cf9960001797537	571603153	1	main_slash	7	main_slash	115	stimuli_distractor_diamondtriangles.svg	stimuli_target_diamondsquares.svg	32	yes	53	1	880
6.6.1	win	2022-12-28	18:39:14	18:48:56	580240	5ce203d24cf9960001797537	571603153	1	main_slash	7	advance_on_keypress_SLASH	116	stimuli_distractor_diamondtriangles.svg	stimuli_target_diamondsquares.svg	32	yes	57	0	1969
6.6.1	win	2022-12-28	18:39:14	18:48:59	583288	5ce203d24cf9960001797537	571603153	1	main_slash	7	main_slash	117	stimuli_distractor_diamondtriangles.svg	stimuli_target_trianglecircles.svg	29	yes	53	1	433
6.6.1	win	2022-12-28	18:39:14	18:48:59	583288	5ce203d24cf9960001797537	571603153	1	main_slash	7	advance_on_keypress_SLASH	118	stimuli_distractor_diamondtriangles.svg	stimuli_target_trianglecircles.svg	29	yes	57	0	649
6.6.1	win	2022-12-28	18:39:14	18:49:02	586575	5ce203d24cf9960001797537	571603153	1	main_slash	7	main_slash	119	stimuli_distractor_trianglediamonds.svg	stimuli_distractor_trianglediamonds.svg	34	no	0	1	2000
6.6.1	win	2022-12-28	18:39:14	18:49:02	586575	5ce203d24cf9960001797537	571603153	1	main_slash	7	advance_on_keypress_SLASH	120	stimuli_distractor_trianglediamonds.svg	stimuli_distractor_trianglediamonds.svg	34	no	57	0	258
6.6.1	win	2022-12-28	18:39:14	18:49:05	589470	5ce203d24cf9960001797537	571603153	1	main_slash	7	main_slash	121	stimuli_distractor_diamondtriangles.svg	stimuli_distractor_diamondtriangles.svg	39	no	0	1	2000
6.6.1	win	2022-12-28	18:39:14	18:49:05	589470	5ce203d24cf9960001797537	571603153	1	main_slash	7	advance_on_keypress_SLASH	122	stimuli_distractor_diamondtriangles.svg	stimuli_distractor_diamondtriangles.svg	39	no	57	0	299
6.6.1	win	2022-12-28	18:39:14	18:49:06	591040	5ce203d24cf9960001797537	571603153	1	main_slash	7	main_slash	123	stimuli_target_circletriangles.svg	stimuli_distractor_diamondtriangles.svg	5	yes	53	1	635
6.6.1	win	2022-12-28	18:39:14	18:49:06	591040	5ce203d24cf9960001797537	571603153	1	main_slash	7	advance_on_keypress_SLASH	124	stimuli_target_circletriangles.svg	stimuli_distractor_diamondtriangles.svg	5	yes	57	0	774
6.6.1	win	2022-12-28	18:39:14	18:49:08	593008	5ce203d24cf9960001797537	571603153	1	main_slash	7	main_slash	125	stimuli_target_squarediamonds.svg	stimuli_distractor_trianglediamonds.svg	4	yes	53	1	549
6.6.1	win	2022-12-28	18:39:14	18:49:08	593008	5ce203d24cf9960001797537	571603153	1	main_slash	7	advance_on_keypress_SLASH	126	stimuli_target_squarediamonds.svg	stimuli_distractor_trianglediamonds.svg	4	yes	57	0	557
6.6.1	win	2022-12-28	18:39:14	18:49:10	594640	5ce203d24cf9960001797537	571603153	1	main_slash	7	main_slash	127	stimuli_distractor_diamondtriangles.svg	stimuli_target_squarediamonds.svg	16	yes	53	1	435
6.6.1	win	2022-12-28	18:39:14	18:49:10	594640	5ce203d24cf9960001797537	571603153	1	main_slash	7	advance_on_keypress_SLASH	128	stimuli_distractor_diamondtriangles.svg	stimuli_target_squarediamonds.svg	16	yes	57	0	1100
6.6.1	win	2022-12-28	18:39:14	18:49:13	597112	5ce203d24cf9960001797537	571603153	1	main_slash	7	main_slash	129	stimuli_target_diamondsquares.svg	stimuli_distractor_diamondtriangles.svg	24	yes	53	1	732
6.6.1	win	2022-12-28	18:39:14	18:49:13	597112	5ce203d24cf9960001797537	571603153	1	main_slash	7	advance_on_keypress_SLASH	130	stimuli_target_diamondsquares.svg	stimuli_distractor_diamondtriangles.svg	24	yes	57	0	857
6.6.1	win	2022-12-28	18:39:14	18:49:15	599488	5ce203d24cf9960001797537	571603153	1	main_slash	7	main_slash	131	stimuli_target_diamondsquares.svg	stimuli_distractor_trianglediamonds.svg	20	yes	53	1	880
6.6.1	win	2022-12-28	18:39:14	18:49:15	599488	5ce203d24cf9960001797537	571603153	1	main_slash	7	advance_on_keypress_SLASH	132	stimuli_target_diamondsquares.svg	stimuli_distractor_trianglediamonds.svg	20	yes	57	0	642
6.6.1	win	2022-12-28	18:39:14	18:49:17	601296	5ce203d24cf9960001797537	571603153	1	main_slash	7	main_slash	133	stimuli_distractor_trianglediamonds.svg	stimuli_target_diamondsquares.svg	28	yes	53	1	527
6.6.1	win	2022-12-28	18:39:14	18:49:17	601296	5ce203d24cf9960001797537	571603153	1	main_slash	7	advance_on_keypress_SLASH	134	stimuli_distractor_trianglediamonds.svg	stimuli_target_diamondsquares.svg	28	yes	57	0	762
6.6.1	win	2022-12-28	18:39:14	18:49:19	603408	5ce203d24cf9960001797537	571603153	1	main_slash	7	main_slash	135	stimuli_distractor_diamondtriangles.svg	stimuli_target_circlediamonds.svg	14	yes	53	1	719
6.6.1	win	2022-12-28	18:39:14	18:49:19	603408	5ce203d24cf9960001797537	571603153	1	main_slash	7	advance_on_keypress_SLASH	136	stimuli_distractor_diamondtriangles.svg	stimuli_target_circlediamonds.svg	14	yes	57	0	1713
6.6.1	win	2022-12-28	18:39:14	18:49:22	606280	5ce203d24cf9960001797537	571603153	1	main_slash	7	main_slash	137	stimuli_target_circlediamonds.svg	stimuli_distractor_diamondtriangles.svg	6	yes	53	1	523
6.6.1	win	2022-12-28	18:39:14	18:49:22	606280	5ce203d24cf9960001797537	571603153	1	main_slash	7	advance_on_keypress_SLASH	138	stimuli_target_circlediamonds.svg	stimuli_distractor_diamondtriangles.svg	6	yes	57	0	1245
6.6.1	win	2022-12-28	18:39:14	18:49:24	608784	5ce203d24cf9960001797537	571603153	1	main_slash	7	main_slash	139	stimuli_distractor_trianglediamonds.svg	stimuli_target_diamondcircles.svg	27	yes	53	1	626
6.6.1	win	2022-12-28	18:39:14	18:49:24	608784	5ce203d24cf9960001797537	571603153	1	main_slash	7	advance_on_keypress_SLASH	140	stimuli_distractor_trianglediamonds.svg	stimuli_target_diamondcircles.svg	27	yes	57	0	577
6.6.1	win	2022-12-28	18:39:14	18:49:26	610426	5ce203d24cf9960001797537	571603153	1	main_slash	7	main_slash	141	stimuli_target_circletriangles.svg	stimuli_distractor_trianglediamonds.svg	1	yes	53	1	426
6.6.1	win	2022-12-28	18:39:14	18:49:26	610426	5ce203d24cf9960001797537	571603153	1	main_slash	7	advance_on_keypress_SLASH	142	stimuli_target_circletriangles.svg	stimuli_distractor_trianglediamonds.svg	1	yes	57	0	729
6.6.1	win	2022-12-28	18:39:14	18:49:28	612248	5ce203d24cf9960001797537	571603153	1	main_slash	7	main_slash	143	stimuli_distractor_diamondtriangles.svg	stimuli_target_diamondcircles.svg	31	yes	53	1	449
6.6.1	win	2022-12-28	18:39:14	18:49:28	612248	5ce203d24cf9960001797537	571603153	1	main_slash	7	advance_on_keypress_SLASH	144	stimuli_distractor_diamondtriangles.svg	stimuli_target_diamondcircles.svg	31	yes	57	0	597
6.6.1	win	2022-12-28	18:39:14	18:49:30	614080	5ce203d24cf9960001797537	571603153	1	main_slash	7	main_slash	145	stimuli_target_trianglesquares.svg	stimuli_distractor_trianglediamonds.svg	18	yes	53	1	587
6.6.1	win	2022-12-28	18:39:14	18:49:30	614080	5ce203d24cf9960001797537	571603153	1	main_slash	7	advance_on_keypress_SLASH	146	stimuli_target_trianglesquares.svg	stimuli_distractor_trianglediamonds.svg	18	yes	57	0	1122
6.6.1	win	2022-12-28	18:39:14	18:49:32	616264	5ce203d24cf9960001797537	571603153	1	main_slash	7	main_slash	147	stimuli_target_trianglecircles.svg	stimuli_distractor_trianglediamonds.svg	17	yes	53	1	423
6.6.1	win	2022-12-28	18:39:14	18:49:32	616264	5ce203d24cf9960001797537	571603153	1	main_slash	7	advance_on_keypress_SLASH	148	stimuli_target_trianglecircles.svg	stimuli_distractor_trianglediamonds.svg	17	yes	57	0	830
6.6.1	win	2022-12-28	18:39:14	18:49:34	618104	5ce203d24cf9960001797537	571603153	1	main_slash	7	main_slash	149	stimuli_target_squaretriangles.svg	stimuli_distractor_diamondtriangles.svg	7	yes	53	1	369
6.6.1	win	2022-12-28	18:39:14	18:49:34	618104	5ce203d24cf9960001797537	571603153	1	main_slash	7	advance_on_keypress_SLASH	150	stimuli_target_squaretriangles.svg	stimuli_distractor_diamondtriangles.svg	7	yes	57	0	870
6.6.1	win	2022-12-28	18:39:14	18:49:36	620200	5ce203d24cf9960001797537	571603153	1	main_slash	7	main_slash	151	stimuli_distractor_trianglediamonds.svg	stimuli_target_trianglecircles.svg	25	yes	53	1	584
6.6.1	win	2022-12-28	18:39:14	18:49:36	620200	5ce203d24cf9960001797537	571603153	1	main_slash	7	advance_on_keypress_SLASH	152	stimuli_distractor_trianglediamonds.svg	stimuli_target_trianglecircles.svg	25	yes	57	0	808
6.6.1	win	2022-12-28	18:39:14	18:49:37	622024	5ce203d24cf9960001797537	571603153	1	main_slash	7	main_slash	153	stimuli_target_trianglecircles.svg	stimuli_distractor_diamondtriangles.svg	21	yes	53	1	367
6.6.1	win	2022-12-28	18:39:14	18:49:37	622024	5ce203d24cf9960001797537	571603153	1	main_slash	7	advance_on_keypress_SLASH	154	stimuli_target_trianglecircles.svg	stimuli_distractor_diamondtriangles.svg	21	yes	57	0	826
6.6.1	win	2022-12-28	18:39:14	18:49:39	623775	5ce203d24cf9960001797537	571603153	1	main_slash	7	main_slash	155	stimuli_distractor_diamondtriangles.svg	stimuli_distractor_trianglediamonds.svg	37	no	53	0	292
6.6.1	win	2022-12-28	18:39:14	18:49:39	623775	5ce203d24cf9960001797537	571603153	1	main_slash	7	advance_on_keypress_SLASH	156	stimuli_distractor_diamondtriangles.svg	stimuli_distractor_trianglediamonds.svg	37	no	57	0	1161
6.6.1	win	2022-12-28	18:39:14	18:49:42	626120	5ce203d24cf9960001797537	571603153	1	main_slash	7	main_slash	157	stimuli_distractor_diamondtriangles.svg	stimuli_target_circletriangles.svg	13	yes	53	1	542
6.6.1	win	2022-12-28	18:39:14	18:49:42	626120	5ce203d24cf9960001797537	571603153	1	main_slash	7	advance_on_keypress_SLASH	158	stimuli_distractor_diamondtriangles.svg	stimuli_target_circletriangles.svg	13	yes	57	0	789
6.6.1	win	2022-12-28	18:39:14	18:49:43	627920	5ce203d24cf9960001797537	571603153	1	main_slash	7	main_slash	159	stimuli_target_diamondcircles.svg	stimuli_distractor_trianglediamonds.svg	19	yes	53	1	368
6.6.1	win	2022-12-28	18:39:14	18:49:43	627920	5ce203d24cf9960001797537	571603153	1	main_slash	7	advance_on_keypress_SLASH	160	stimuli_target_diamondcircles.svg	stimuli_distractor_trianglediamonds.svg	19	yes	57	0	1602
6.6.1	win	2022-12-28	18:39:14	18:50:15	659452	5ce203d24cf9960001797537	571603153	1	practice_z	9	practice_z	1	stimuli_target_circlediamonds.svg	stimuli_distractor_trianglediamonds.svg	4	yes	44	1	430
6.6.1	win	2022-12-28	18:39:14	18:50:15	659452	5ce203d24cf9960001797537	571603153	1	practice_z	9	advance_on_keypress_ZEE	2	stimuli_target_circlediamonds.svg	stimuli_distractor_trianglediamonds.svg	4	yes	57	0	592
6.6.1	win	2022-12-28	18:39:14	18:50:17	661924	5ce203d24cf9960001797537	571603153	1	practice_z	9	practice_z	3	stimuli_distractor_diamondtriangles.svg	stimuli_target_diamondcircles.svg	8	yes	44	1	221
6.6.1	win	2022-12-28	18:39:14	18:50:17	661924	5ce203d24cf9960001797537	571603153	1	practice_z	9	advance_on_keypress_ZEE	4	stimuli_distractor_diamondtriangles.svg	stimuli_target_diamondcircles.svg	8	yes	57	0	549
6.6.1	win	2022-12-28	18:39:14	18:50:20	664350	5ce203d24cf9960001797537	571603153	1	practice_z	9	practice_z	5	stimuli_target_diamondsquares.svg	stimuli_distractor_trianglediamonds.svg	6	yes	44	1	221
6.6.1	win	2022-12-28	18:39:14	18:50:20	664350	5ce203d24cf9960001797537	571603153	1	practice_z	9	advance_on_keypress_ZEE	6	stimuli_target_diamondsquares.svg	stimuli_distractor_trianglediamonds.svg	6	yes	57	0	681
6.6.1	win	2022-12-28	18:39:14	18:50:22	666916	5ce203d24cf9960001797537	571603153	1	practice_z	9	practice_z	7	stimuli_distractor_diamondtriangles.svg	stimuli_distractor_trianglediamonds.svg	14	no	44	0	238
6.6.1	win	2022-12-28	18:39:14	18:50:22	666916	5ce203d24cf9960001797537	571603153	1	practice_z	9	advance_on_keypress_ZEE	8	stimuli_distractor_diamondtriangles.svg	stimuli_distractor_trianglediamonds.svg	14	no	57	0	624
6.6.1	win	2022-12-28	18:39:14	18:50:25	669859	5ce203d24cf9960001797537	571603153	1	practice_z	9	practice_z	9	stimuli_target_squarediamonds.svg	stimuli_distractor_diamondtriangles.svg	2	yes	44	1	675
6.6.1	win	2022-12-28	18:39:14	18:50:25	669859	5ce203d24cf9960001797537	571603153	1	practice_z	9	advance_on_keypress_ZEE	10	stimuli_target_squarediamonds.svg	stimuli_distractor_diamondtriangles.svg	2	yes	57	0	532
6.6.1	win	2022-12-28	18:39:14	18:50:28	672436	5ce203d24cf9960001797537	571603153	1	practice_z	9	practice_z	11	stimuli_distractor_diamondtriangles.svg	stimuli_target_circletriangles.svg	7	yes	44	1	396
6.6.1	win	2022-12-28	18:39:14	18:50:28	672436	5ce203d24cf9960001797537	571603153	1	practice_z	9	advance_on_keypress_ZEE	12	stimuli_distractor_diamondtriangles.svg	stimuli_target_circletriangles.svg	7	yes	57	0	366
6.6.1	win	2022-12-28	18:39:14	18:50:30	674787	5ce203d24cf9960001797537	571603153	1	practice_z	9	practice_z	13	stimuli_distractor_diamondtriangles.svg	stimuli_distractor_diamondtriangles.svg	13	no	44	0	334
6.6.1	win	2022-12-28	18:39:14	18:50:30	674787	5ce203d24cf9960001797537	571603153	1	practice_z	9	advance_on_keypress_ZEE	14	stimuli_distractor_diamondtriangles.svg	stimuli_distractor_diamondtriangles.svg	13	no	57	0	546
6.6.1	win	2022-12-28	18:39:14	18:50:33	677540	5ce203d24cf9960001797537	571603153	1	practice_z	9	practice_z	15	stimuli_target_circlediamonds.svg	stimuli_distractor_diamondtriangles.svg	1	yes	44	1	565
6.6.1	win	2022-12-28	18:39:14	18:50:33	677540	5ce203d24cf9960001797537	571603153	1	practice_z	9	advance_on_keypress_ZEE	16	stimuli_target_circlediamonds.svg	stimuli_distractor_diamondtriangles.svg	1	yes	57	0	465
6.6.1	win	2022-12-28	18:39:14	18:50:36	680092	5ce203d24cf9960001797537	571603153	1	practice_z	9	practice_z	17	stimuli_distractor_trianglediamonds.svg	stimuli_target_squarediamonds.svg	11	yes	44	1	436
6.6.1	win	2022-12-28	18:39:14	18:50:36	680092	5ce203d24cf9960001797537	571603153	1	practice_z	9	advance_on_keypress_ZEE	18	stimuli_distractor_trianglediamonds.svg	stimuli_target_squarediamonds.svg	11	yes	57	0	318
6.6.1	win	2022-12-28	18:39:14	18:50:38	682427	5ce203d24cf9960001797537	571603153	1	practice_z	9	practice_z	19	stimuli_target_diamondsquares.svg	stimuli_distractor_diamondtriangles.svg	3	yes	44	1	371
6.6.1	win	2022-12-28	18:39:14	18:50:38	682427	5ce203d24cf9960001797537	571603153	1	practice_z	9	advance_on_keypress_ZEE	20	stimuli_target_diamondsquares.svg	stimuli_distractor_diamondtriangles.svg	3	yes	57	0	408
6.6.1	win	2022-12-28	18:39:14	18:50:40	684988	5ce203d24cf9960001797537	571603153	1	practice_z	9	practice_z	21	stimuli_distractor_trianglediamonds.svg	stimuli_target_circlediamonds.svg	10	yes	44	1	503
6.6.1	win	2022-12-28	18:39:14	18:50:40	684988	5ce203d24cf9960001797537	571603153	1	practice_z	9	advance_on_keypress_ZEE	22	stimuli_distractor_trianglediamonds.svg	stimuli_target_circlediamonds.svg	10	yes	57	0	503
6.6.1	win	2022-12-28	18:39:14	18:50:43	687556	5ce203d24cf9960001797537	571603153	1	practice_z	9	practice_z	23	stimuli_distractor_diamondtriangles.svg	stimuli_target_trianglecircles.svg	9	yes	44	1	417
6.6.1	win	2022-12-28	18:39:14	18:50:43	687556	5ce203d24cf9960001797537	571603153	1	practice_z	9	advance_on_keypress_ZEE	24	stimuli_distractor_diamondtriangles.svg	stimuli_target_trianglecircles.svg	9	yes	57	0	526
6.6.1	win	2022-12-28	18:39:14	18:50:46	690116	5ce203d24cf9960001797537	571603153	1	practice_z	9	practice_z	25	stimuli_distractor_trianglediamonds.svg	stimuli_target_diamondcircles.svg	12	yes	44	1	389
6.6.1	win	2022-12-28	18:39:14	18:50:46	690116	5ce203d24cf9960001797537	571603153	1	practice_z	9	advance_on_keypress_ZEE	26	stimuli_distractor_trianglediamonds.svg	stimuli_target_diamondcircles.svg	12	yes	57	0	428
6.6.1	win	2022-12-28	18:39:14	18:50:48	692667	5ce203d24cf9960001797537	571603153	1	practice_z	9	practice_z	27	stimuli_distractor_trianglediamonds.svg	stimuli_distractor_trianglediamonds.svg	15	no	44	0	473
6.6.1	win	2022-12-28	18:39:14	18:50:48	692667	5ce203d24cf9960001797537	571603153	1	practice_z	9	advance_on_keypress_ZEE	28	stimuli_distractor_trianglediamonds.svg	stimuli_distractor_trianglediamonds.svg	15	no	57	0	563
6.6.1	win	2022-12-28	18:39:14	18:50:52	696889	5ce203d24cf9960001797537	571603153	1	practice_z	9	practice_z	29	stimuli_distractor_trianglediamonds.svg	stimuli_distractor_diamondtriangles.svg	16	no	0	1	2000
6.6.1	win	2022-12-28	18:39:14	18:50:52	696889	5ce203d24cf9960001797537	571603153	1	practice_z	9	advance_on_keypress_ZEE	30	stimuli_distractor_trianglediamonds.svg	stimuli_distractor_diamondtriangles.svg	16	no	57	0	789
6.6.1	win	2022-12-28	18:39:14	18:50:55	699908	5ce203d24cf9960001797537	571603153	1	practice_z	9	practice_z	31	stimuli_target_squarediamonds.svg	stimuli_distractor_trianglediamonds.svg	5	yes	44	1	577
6.6.1	win	2022-12-28	18:39:14	18:50:55	699908	5ce203d24cf9960001797537	571603153	1	practice_z	9	advance_on_keypress_ZEE	32	stimuli_target_squarediamonds.svg	stimuli_distractor_trianglediamonds.svg	5	yes	57	0	774
6.6.1	win	2022-12-28	18:39:14	18:51:02	706808	5ce203d24cf9960001797537	571603153	1	main_z	11	main_z	1	stimuli_distractor_diamondtriangles.svg	stimuli_target_trianglecircles.svg	29	yes	44	1	1386
6.6.1	win	2022-12-28	18:39:14	18:51:02	706808	5ce203d24cf9960001797537	571603153	1	main_z	11	advance_on_keypress_ZEE	2	stimuli_distractor_diamondtriangles.svg	stimuli_target_trianglecircles.svg	29	yes	57	0	1968
6.6.1	win	2022-12-28	18:39:14	18:51:05	709992	5ce203d24cf9960001797537	571603153	1	main_z	11	main_z	3	stimuli_distractor_trianglediamonds.svg	stimuli_target_squaretriangles.svg	11	yes	44	1	568
6.6.1	win	2022-12-28	18:39:14	18:51:05	709992	5ce203d24cf9960001797537	571603153	1	main_z	11	advance_on_keypress_ZEE	4	stimuli_distractor_trianglediamonds.svg	stimuli_target_squaretriangles.svg	11	yes	57	0	990
6.6.1	win	2022-12-28	18:39:14	18:51:07	711928	5ce203d24cf9960001797537	571603153	1	main_z	11	main_z	5	stimuli_distractor_diamondtriangles.svg	stimuli_distractor_trianglediamonds.svg	38	no	44	0	304
6.6.1	win	2022-12-28	18:39:14	18:51:07	711928	5ce203d24cf9960001797537	571603153	1	main_z	11	advance_on_keypress_ZEE	6	stimuli_distractor_diamondtriangles.svg	stimuli_distractor_trianglediamonds.svg	38	no	57	0	710
6.6.1	win	2022-12-28	18:39:14	18:51:09	713920	5ce203d24cf9960001797537	571603153	1	main_z	11	main_z	7	stimuli_distractor_trianglediamonds.svg	stimuli_target_trianglesquares.svg	26	yes	44	1	641
6.6.1	win	2022-12-28	18:39:14	18:51:09	713920	5ce203d24cf9960001797537	571603153	1	main_z	11	advance_on_keypress_ZEE	8	stimuli_distractor_trianglediamonds.svg	stimuli_target_trianglesquares.svg	26	yes	57	0	676
6.6.1	win	2022-12-28	18:39:14	18:51:11	715627	5ce203d24cf9960001797537	571603153	1	main_z	11	main_z	9	stimuli_target_squaretriangles.svg	stimuli_distractor_trianglediamonds.svg	3	yes	44	1	378
6.6.1	win	2022-12-28	18:39:14	18:51:11	715627	5ce203d24cf9960001797537	571603153	1	main_z	11	advance_on_keypress_ZEE	10	stimuli_target_squaretriangles.svg	stimuli_distractor_trianglediamonds.svg	3	yes	57	0	744
6.6.1	win	2022-12-28	18:39:14	18:51:13	717952	5ce203d24cf9960001797537	571603153	1	main_z	11	main_z	11	stimuli_distractor_diamondtriangles.svg	stimuli_target_diamondsquares.svg	32	yes	44	1	938
6.6.1	win	2022-12-28	18:39:14	18:51:13	717952	5ce203d24cf9960001797537	571603153	1	main_z	11	advance_on_keypress_ZEE	12	stimuli_distractor_diamondtriangles.svg	stimuli_target_diamondsquares.svg	32	yes	57	0	488
6.6.1	win	2022-12-28	18:39:14	18:51:17	721067	5ce203d24cf9960001797537	571603153	1	main_z	11	main_z	13	stimuli_distractor_diamondtriangles.svg	stimuli_distractor_diamondtriangles.svg	40	no	0	1	2000
6.6.1	win	2022-12-28	18:39:14	18:51:17	721067	5ce203d24cf9960001797537	571603153	1	main_z	11	advance_on_keypress_ZEE	14	stimuli_distractor_diamondtriangles.svg	stimuli_distractor_diamondtriangles.svg	40	no	57	0	430
6.6.1	win	2022-12-28	18:39:14	18:51:18	722496	5ce203d24cf9960001797537	571603153	1	main_z	11	main_z	15	stimuli_distractor_diamondtriangles.svg	stimuli_distractor_diamondtriangles.svg	39	no	44	0	361
6.6.1	win	2022-12-28	18:39:14	18:51:18	722496	5ce203d24cf9960001797537	571603153	1	main_z	11	advance_on_keypress_ZEE	16	stimuli_distractor_diamondtriangles.svg	stimuli_distractor_diamondtriangles.svg	39	no	57	0	628
6.6.1	win	2022-12-28	18:39:14	18:51:20	724440	5ce203d24cf9960001797537	571603153	1	main_z	11	main_z	17	stimuli_target_circletriangles.svg	stimuli_distractor_diamondtriangles.svg	5	yes	44	1	677
6.6.1	win	2022-12-28	18:39:14	18:51:20	724440	5ce203d24cf9960001797537	571603153	1	main_z	11	advance_on_keypress_ZEE	18	stimuli_target_circletriangles.svg	stimuli_distractor_diamondtriangles.svg	5	yes	57	0	1031
6.6.1	win	2022-12-28	18:39:14	18:51:22	726632	5ce203d24cf9960001797537	571603153	1	main_z	11	main_z	19	stimuli_target_diamondcircles.svg	stimuli_distractor_diamondtriangles.svg	23	yes	44	1	514
6.6.1	win	2022-12-28	18:39:14	18:51:22	726632	5ce203d24cf9960001797537	571603153	1	main_z	11	advance_on_keypress_ZEE	20	stimuli_target_diamondcircles.svg	stimuli_distractor_diamondtriangles.svg	23	yes	57	0	740
6.6.1	win	2022-12-28	18:39:14	18:51:24	728752	5ce203d24cf9960001797537	571603153	1	main_z	11	main_z	21	stimuli_target_circletriangles.svg	stimuli_distractor_trianglediamonds.svg	1	yes	44	1	747
6.6.1	win	2022-12-28	18:39:14	18:51:24	728752	5ce203d24cf9960001797537	571603153	1	main_z	11	advance_on_keypress_ZEE	22	stimuli_target_circletriangles.svg	stimuli_distractor_trianglediamonds.svg	1	yes	57	0	667
6.6.1	win	2022-12-28	18:39:14	18:51:26	730585	5ce203d24cf9960001797537	571603153	1	main_z	11	main_z	23	stimuli_distractor_diamondtriangles.svg	stimuli_target_circlediamonds.svg	14	yes	44	1	527
6.6.1	win	2022-12-28	18:39:14	18:51:26	730585	5ce203d24cf9960001797537	571603153	1	main_z	11	advance_on_keypress_ZEE	24	stimuli_distractor_diamondtriangles.svg	stimuli_target_circlediamonds.svg	14	yes	57	0	479
6.6.1	win	2022-12-28	18:39:14	18:51:28	732152	5ce203d24cf9960001797537	571603153	1	main_z	11	main_z	25	stimuli_target_trianglesquares.svg	stimuli_distractor_trianglediamonds.svg	18	yes	44	1	452
6.6.1	win	2022-12-28	18:39:14	18:51:28	732152	5ce203d24cf9960001797537	571603153	1	main_z	11	advance_on_keypress_ZEE	26	stimuli_target_trianglesquares.svg	stimuli_distractor_trianglediamonds.svg	18	yes	57	0	825
6.6.1	win	2022-12-28	18:39:14	18:51:29	734008	5ce203d24cf9960001797537	571603153	1	main_z	11	main_z	27	stimuli_target_circlediamonds.svg	stimuli_distractor_diamondtriangles.svg	6	yes	44	1	388
6.6.1	win	2022-12-28	18:39:14	18:51:29	734008	5ce203d24cf9960001797537	571603153	1	main_z	11	advance_on_keypress_ZEE	28	stimuli_target_circlediamonds.svg	stimuli_distractor_diamondtriangles.svg	6	yes	57	0	620
6.6.1	win	2022-12-28	18:39:14	18:51:32	736720	5ce203d24cf9960001797537	571603153	1	main_z	11	main_z	29	stimuli_target_diamondsquares.svg	stimuli_distractor_trianglediamonds.svg	20	yes	44	1	1460
6.6.1	win	2022-12-28	18:39:14	18:51:32	736720	5ce203d24cf9960001797537	571603153	1	main_z	11	advance_on_keypress_ZEE	30	stimuli_target_diamondsquares.svg	stimuli_distractor_trianglediamonds.svg	20	yes	57	0	687
6.6.1	win	2022-12-28	18:39:14	18:51:36	740048	5ce203d24cf9960001797537	571603153	1	main_z	11	main_z	31	stimuli_distractor_trianglediamonds.svg	stimuli_distractor_trianglediamonds.svg	34	no	0	1	2000
6.6.1	win	2022-12-28	18:39:14	18:51:36	740048	5ce203d24cf9960001797537	571603153	1	main_z	11	advance_on_keypress_ZEE	32	stimuli_distractor_trianglediamonds.svg	stimuli_distractor_trianglediamonds.svg	34	no	57	0	530
6.6.1	win	2022-12-28	18:39:14	18:51:37	741904	5ce203d24cf9960001797537	571603153	1	main_z	11	main_z	33	stimuli_distractor_diamondtriangles.svg	stimuli_target_squarediamonds.svg	16	yes	44	1	682
6.6.1	win	2022-12-28	18:39:14	18:51:37	741904	5ce203d24cf9960001797537	571603153	1	main_z	11	advance_on_keypress_ZEE	34	stimuli_distractor_diamondtriangles.svg	stimuli_target_squarediamonds.svg	16	yes	57	0	467
6.6.1	win	2022-12-28	18:39:14	18:51:39	743532	5ce203d24cf9960001797537	571603153	1	main_z	11	main_z	35	stimuli_target_squaretriangles.svg	stimuli_distractor_diamondtriangles.svg	7	yes	44	1	513
6.6.1	win	2022-12-28	18:39:14	18:51:39	743532	5ce203d24cf9960001797537	571603153	1	main_z	11	advance_on_keypress_ZEE	36	stimuli_target_squaretriangles.svg	stimuli_distractor_diamondtriangles.svg	7	yes	57	0	431
6.6.1	win	2022-12-28	18:39:14	18:51:42	746597	5ce203d24cf9960001797537	571603153	1	main_z	11	main_z	37	stimuli_distractor_trianglediamonds.svg	stimuli_distractor_diamondtriangles.svg	35	no	0	1	2000
6.6.1	win	2022-12-28	18:39:14	18:51:42	746597	5ce203d24cf9960001797537	571603153	1	main_z	11	advance_on_keypress_ZEE	38	stimuli_distractor_trianglediamonds.svg	stimuli_distractor_diamondtriangles.svg	35	no	57	0	549
6.6.1	win	2022-12-28	18:39:14	18:51:44	748208	5ce203d24cf9960001797537	571603153	1	main_z	11	main_z	39	stimuli_distractor_trianglediamonds.svg	stimuli_target_trianglecircles.svg	25	yes	44	1	422
6.6.1	win	2022-12-28	18:39:14	18:51:44	748208	5ce203d24cf9960001797537	571603153	1	main_z	11	advance_on_keypress_ZEE	40	stimuli_distractor_trianglediamonds.svg	stimuli_target_trianglecircles.svg	25	yes	57	0	615
6.6.1	win	2022-12-28	18:39:14	18:51:45	749987	5ce203d24cf9960001797537	571603153	1	main_z	11	main_z	41	stimuli_target_squarediamonds.svg	stimuli_distractor_trianglediamonds.svg	4	yes	44	1	512
6.6.1	win	2022-12-28	18:39:14	18:51:45	749987	5ce203d24cf9960001797537	571603153	1	main_z	11	advance_on_keypress_ZEE	42	stimuli_target_squarediamonds.svg	stimuli_distractor_trianglediamonds.svg	4	yes	57	0	448
6.6.1	win	2022-12-28	18:39:14	18:51:47	751656	5ce203d24cf9960001797537	571603153	1	main_z	11	main_z	43	stimuli_distractor_diamondtriangles.svg	stimuli_target_squaretriangles.svg	15	yes	44	1	576
6.6.1	win	2022-12-28	18:39:14	18:51:47	751656	5ce203d24cf9960001797537	571603153	1	main_z	11	advance_on_keypress_ZEE	44	stimuli_distractor_diamondtriangles.svg	stimuli_target_squaretriangles.svg	15	yes	57	0	469
6.6.1	win	2022-12-28	18:39:14	18:51:49	753712	5ce203d24cf9960001797537	571603153	1	main_z	11	main_z	45	stimuli_distractor_diamondtriangles.svg	stimuli_target_trianglesquares.svg	30	yes	44	1	952
6.6.1	win	2022-12-28	18:39:14	18:51:49	753712	5ce203d24cf9960001797537	571603153	1	main_z	11	advance_on_keypress_ZEE	46	stimuli_distractor_diamondtriangles.svg	stimuli_target_trianglesquares.svg	30	yes	57	0	2543
6.6.1	win	2022-12-28	18:39:14	18:51:53	757352	5ce203d24cf9960001797537	571603153	1	main_z	11	main_z	47	stimuli_target_trianglecircles.svg	stimuli_distractor_trianglediamonds.svg	17	yes	44	1	456
6.6.1	win	2022-12-28	18:39:14	18:51:53	757352	5ce203d24cf9960001797537	571603153	1	main_z	11	advance_on_keypress_ZEE	48	stimuli_target_trianglecircles.svg	stimuli_distractor_trianglediamonds.svg	17	yes	57	0	502
6.6.1	win	2022-12-28	18:39:14	18:51:55	759568	5ce203d24cf9960001797537	571603153	1	main_z	11	main_z	49	stimuli_distractor_trianglediamonds.svg	stimuli_target_circlediamonds.svg	10	yes	44	1	1071
6.6.1	win	2022-12-28	18:39:14	18:51:55	759568	5ce203d24cf9960001797537	571603153	1	main_z	11	advance_on_keypress_ZEE	50	stimuli_distractor_trianglediamonds.svg	stimuli_target_circlediamonds.svg	10	yes	57	0	1127
6.6.1	win	2022-12-28	18:39:14	18:51:57	761984	5ce203d24cf9960001797537	571603153	1	main_z	11	main_z	51	stimuli_distractor_trianglediamonds.svg	stimuli_target_circletriangles.svg	9	yes	44	1	660
6.6.1	win	2022-12-28	18:39:14	18:51:57	761984	5ce203d24cf9960001797537	571603153	1	main_z	11	advance_on_keypress_ZEE	52	stimuli_distractor_trianglediamonds.svg	stimuli_target_circletriangles.svg	9	yes	57	0	472
6.6.1	win	2022-12-28	18:39:14	18:51:59	763606	5ce203d24cf9960001797537	571603153	1	main_z	11	main_z	53	stimuli_distractor_diamondtriangles.svg	stimuli_target_diamondcircles.svg	31	yes	44	1	516
6.6.1	win	2022-12-28	18:39:14	18:51:59	763606	5ce203d24cf9960001797537	571603153	1	main_z	11	advance_on_keypress_ZEE	54	stimuli_distractor_diamondtriangles.svg	stimuli_target_diamondcircles.svg	31	yes	57	0	1022
6.6.1	win	2022-12-28	18:39:14	18:52:01	765864	5ce203d24cf9960001797537	571603153	1	main_z	11	main_z	55	stimuli_target_trianglesquares.svg	stimuli_distractor_diamondtriangles.svg	22	yes	44	1	592
6.6.1	win	2022-12-28	18:39:14	18:52:01	765864	5ce203d24cf9960001797537	571603153	1	main_z	11	advance_on_keypress_ZEE	56	stimuli_target_trianglesquares.svg	stimuli_distractor_diamondtriangles.svg	22	yes	57	0	448
6.6.1	win	2022-12-28	18:39:14	18:52:03	767456	5ce203d24cf9960001797537	571603153	1	main_z	11	main_z	57	stimuli_distractor_trianglediamonds.svg	stimuli_target_diamondsquares.svg	28	yes	44	1	504
6.6.1	win	2022-12-28	18:39:14	18:52:03	767456	5ce203d24cf9960001797537	571603153	1	main_z	11	advance_on_keypress_ZEE	58	stimuli_distractor_trianglediamonds.svg	stimuli_target_diamondsquares.svg	28	yes	57	0	598
6.6.1	win	2022-12-28	18:39:14	18:52:06	770700	5ce203d24cf9960001797537	571603153	1	main_z	11	main_z	59	stimuli_distractor_diamondtriangles.svg	stimuli_distractor_trianglediamonds.svg	37	no	0	1	2000
6.6.1	win	2022-12-28	18:39:14	18:52:06	770700	5ce203d24cf9960001797537	571603153	1	main_z	11	advance_on_keypress_ZEE	60	stimuli_distractor_diamondtriangles.svg	stimuli_distractor_trianglediamonds.svg	37	no	57	0	589
6.6.1	win	2022-12-28	18:39:14	18:52:08	772488	5ce203d24cf9960001797537	571603153	1	main_z	11	main_z	61	stimuli_target_circlediamonds.svg	stimuli_distractor_trianglediamonds.svg	2	yes	44	1	559
6.6.1	win	2022-12-28	18:39:14	18:52:08	772488	5ce203d24cf9960001797537	571603153	1	main_z	11	advance_on_keypress_ZEE	62	stimuli_target_circlediamonds.svg	stimuli_distractor_trianglediamonds.svg	2	yes	57	0	426
6.6.1	win	2022-12-28	18:39:14	18:52:10	774432	5ce203d24cf9960001797537	571603153	1	main_z	11	main_z	63	stimuli_distractor_diamondtriangles.svg	stimuli_target_circletriangles.svg	13	yes	44	1	876
6.6.1	win	2022-12-28	18:39:14	18:52:10	774432	5ce203d24cf9960001797537	571603153	1	main_z	11	advance_on_keypress_ZEE	64	stimuli_distractor_diamondtriangles.svg	stimuli_target_circletriangles.svg	13	yes	57	0	511
6.6.1	win	2022-12-28	18:39:14	18:52:12	776456	5ce203d24cf9960001797537	571603153	1	main_z	11	main_z	65	stimuli_target_diamondcircles.svg	stimuli_distractor_trianglediamonds.svg	19	yes	44	1	872
6.6.1	win	2022-12-28	18:39:14	18:52:12	776456	5ce203d24cf9960001797537	571603153	1	main_z	11	advance_on_keypress_ZEE	66	stimuli_target_diamondcircles.svg	stimuli_distractor_trianglediamonds.svg	19	yes	57	0	809
6.6.1	win	2022-12-28	18:39:14	18:52:15	779904	5ce203d24cf9960001797537	571603153	1	main_z	11	main_z	67	stimuli_distractor_trianglediamonds.svg	stimuli_distractor_diamondtriangles.svg	36	no	0	1	2000
6.6.1	win	2022-12-28	18:39:14	18:52:15	779904	5ce203d24cf9960001797537	571603153	1	main_z	11	advance_on_keypress_ZEE	68	stimuli_distractor_trianglediamonds.svg	stimuli_distractor_diamondtriangles.svg	36	no	57	0	265
6.6.1	win	2022-12-28	18:39:14	18:52:17	781464	5ce203d24cf9960001797537	571603153	1	main_z	11	main_z	69	stimuli_target_trianglecircles.svg	stimuli_distractor_diamondtriangles.svg	21	yes	44	1	653
6.6.1	win	2022-12-28	18:39:14	18:52:17	781464	5ce203d24cf9960001797537	571603153	1	main_z	11	advance_on_keypress_ZEE	70	stimuli_target_trianglecircles.svg	stimuli_distractor_diamondtriangles.svg	21	yes	57	0	434
6.6.1	win	2022-12-28	18:39:14	18:52:20	784532	5ce203d24cf9960001797537	571603153	1	main_z	11	main_z	71	stimuli_distractor_trianglediamonds.svg	stimuli_distractor_trianglediamonds.svg	33	no	0	1	2000
6.6.1	win	2022-12-28	18:39:14	18:52:20	784532	5ce203d24cf9960001797537	571603153	1	main_z	11	advance_on_keypress_ZEE	72	stimuli_distractor_trianglediamonds.svg	stimuli_distractor_trianglediamonds.svg	33	no	57	0	886
6.6.1	win	2022-12-28	18:39:14	18:52:22	786624	5ce203d24cf9960001797537	571603153	1	main_z	11	main_z	73	stimuli_distractor_trianglediamonds.svg	stimuli_target_diamondcircles.svg	27	yes	44	1	571
6.6.1	win	2022-12-28	18:39:14	18:52:22	786624	5ce203d24cf9960001797537	571603153	1	main_z	11	advance_on_keypress_ZEE	74	stimuli_distractor_trianglediamonds.svg	stimuli_target_diamondcircles.svg	27	yes	57	0	424
6.6.1	win	2022-12-28	18:39:14	18:52:25	789694	5ce203d24cf9960001797537	571603153	1	main_z	11	main_z	75	stimuli_distractor_trianglediamonds.svg	stimuli_target_squarediamonds.svg	12	yes	0	0	2000
6.6.1	win	2022-12-28	18:39:14	18:52:25	789694	5ce203d24cf9960001797537	571603153	1	main_z	11	advance_on_keypress_ZEE	76	stimuli_distractor_trianglediamonds.svg	stimuli_target_squarediamonds.svg	12	yes	57	0	420
6.6.1	win	2022-12-28	18:39:14	18:52:27	791416	5ce203d24cf9960001797537	571603153	1	main_z	11	main_z	77	stimuli_target_diamondsquares.svg	stimuli_distractor_diamondtriangles.svg	24	yes	44	1	668
6.6.1	win	2022-12-28	18:39:14	18:52:27	791416	5ce203d24cf9960001797537	571603153	1	main_z	11	advance_on_keypress_ZEE	78	stimuli_target_diamondsquares.svg	stimuli_distractor_diamondtriangles.svg	24	yes	57	0	490
6.6.1	win	2022-12-28	18:39:14	18:52:29	793801	5ce203d24cf9960001797537	571603153	1	main_z	11	main_z	79	stimuli_target_squarediamonds.svg	stimuli_distractor_diamondtriangles.svg	8	yes	44	1	1251
6.6.1	win	2022-12-28	18:39:14	18:52:29	793801	5ce203d24cf9960001797537	571603153	1	main_z	11	advance_on_keypress_ZEE	80	stimuli_target_squarediamonds.svg	stimuli_distractor_diamondtriangles.svg	8	yes	57	0	720
6.6.1	win	2022-12-28	18:39:14	18:52:33	797164	5ce203d24cf9960001797537	571603153	1	main_z	11	main_z	81	stimuli_distractor_trianglediamonds.svg	stimuli_distractor_trianglediamonds.svg	34	no	0	1	2000
6.6.1	win	2022-12-28	18:39:14	18:52:33	797164	5ce203d24cf9960001797537	571603153	1	main_z	11	advance_on_keypress_ZEE	82	stimuli_distractor_trianglediamonds.svg	stimuli_distractor_trianglediamonds.svg	34	no	57	0	446
6.6.1	win	2022-12-28	18:39:14	18:52:36	800245	5ce203d24cf9960001797537	571603153	1	main_z	11	main_z	83	stimuli_distractor_diamondtriangles.svg	stimuli_distractor_trianglediamonds.svg	38	no	0	1	2000
6.6.1	win	2022-12-28	18:39:14	18:52:36	800245	5ce203d24cf9960001797537	571603153	1	main_z	11	advance_on_keypress_ZEE	84	stimuli_distractor_diamondtriangles.svg	stimuli_distractor_trianglediamonds.svg	38	no	57	0	333
6.6.1	win	2022-12-28	18:39:14	18:52:37	801640	5ce203d24cf9960001797537	571603153	1	main_z	11	main_z	85	stimuli_target_circlediamonds.svg	stimuli_distractor_diamondtriangles.svg	6	yes	44	1	421
6.6.1	win	2022-12-28	18:39:14	18:52:37	801640	5ce203d24cf9960001797537	571603153	1	main_z	11	advance_on_keypress_ZEE	86	stimuli_target_circlediamonds.svg	stimuli_distractor_diamondtriangles.svg	6	yes	57	0	562
6.6.1	win	2022-12-28	18:39:14	18:52:39	803355	5ce203d24cf9960001797537	571603153	1	main_z	11	main_z	87	stimuli_distractor_trianglediamonds.svg	stimuli_target_circletriangles.svg	9	yes	44	1	512
6.6.1	win	2022-12-28	18:39:14	18:52:39	803355	5ce203d24cf9960001797537	571603153	1	main_z	11	advance_on_keypress_ZEE	88	stimuli_distractor_trianglediamonds.svg	stimuli_target_circletriangles.svg	9	yes	57	0	361
6.6.1	win	2022-12-28	18:39:14	18:52:40	804784	5ce203d24cf9960001797537	571603153	1	main_z	11	main_z	89	stimuli_distractor_diamondtriangles.svg	stimuli_distractor_diamondtriangles.svg	39	no	44	0	430
6.6.1	win	2022-12-28	18:39:14	18:52:40	804784	5ce203d24cf9960001797537	571603153	1	main_z	11	advance_on_keypress_ZEE	90	stimuli_distractor_diamondtriangles.svg	stimuli_distractor_diamondtriangles.svg	39	no	57	0	758
6.6.1	win	2022-12-28	18:39:14	18:52:42	806784	5ce203d24cf9960001797537	571603153	1	main_z	11	main_z	91	stimuli_distractor_diamondtriangles.svg	stimuli_target_circlediamonds.svg	14	yes	44	1	603
6.6.1	win	2022-12-28	18:39:14	18:52:42	806784	5ce203d24cf9960001797537	571603153	1	main_z	11	advance_on_keypress_ZEE	92	stimuli_distractor_diamondtriangles.svg	stimuli_target_circlediamonds.svg	14	yes	57	0	477
6.6.1	win	2022-12-28	18:39:14	18:52:45	809902	5ce203d24cf9960001797537	571603153	1	main_z	11	main_z	93	stimuli_distractor_diamondtriangles.svg	stimuli_distractor_trianglediamonds.svg	37	no	0	1	2000
6.6.1	win	2022-12-28	18:39:14	18:52:45	809902	5ce203d24cf9960001797537	571603153	1	main_z	11	advance_on_keypress_ZEE	94	stimuli_distractor_diamondtriangles.svg	stimuli_distractor_trianglediamonds.svg	37	no	57	0	396
6.6.1	win	2022-12-28	18:39:14	18:52:48	812943	5ce203d24cf9960001797537	571603153	1	main_z	11	main_z	95	stimuli_distractor_trianglediamonds.svg	stimuli_target_diamondsquares.svg	28	yes	0	0	2000
6.6.1	win	2022-12-28	18:39:14	18:52:48	812943	5ce203d24cf9960001797537	571603153	1	main_z	11	advance_on_keypress_ZEE	96	stimuli_distractor_trianglediamonds.svg	stimuli_target_diamondsquares.svg	28	yes	57	0	427
6.6.1	win	2022-12-28	18:39:14	18:52:50	814496	5ce203d24cf9960001797537	571603153	1	main_z	11	main_z	97	stimuli_target_trianglecircles.svg	stimuli_distractor_diamondtriangles.svg	21	yes	44	1	485
6.6.1	win	2022-12-28	18:39:14	18:52:50	814496	5ce203d24cf9960001797537	571603153	1	main_z	11	advance_on_keypress_ZEE	98	stimuli_target_trianglecircles.svg	stimuli_distractor_diamondtriangles.svg	21	yes	57	0	640
6.6.1	win	2022-12-28	18:39:14	18:52:52	816304	5ce203d24cf9960001797537	571603153	1	main_z	11	main_z	99	stimuli_target_squarediamonds.svg	stimuli_distractor_trianglediamonds.svg	4	yes	44	1	533
6.6.1	win	2022-12-28	18:39:14	18:52:52	816304	5ce203d24cf9960001797537	571603153	1	main_z	11	advance_on_keypress_ZEE	100	stimuli_target_squarediamonds.svg	stimuli_distractor_trianglediamonds.svg	4	yes	57	0	577
6.6.1	win	2022-12-28	18:39:14	18:52:54	818074	5ce203d24cf9960001797537	571603153	1	main_z	11	main_z	101	stimuli_target_circletriangles.svg	stimuli_distractor_diamondtriangles.svg	5	yes	44	1	555
6.6.1	win	2022-12-28	18:39:14	18:52:54	818074	5ce203d24cf9960001797537	571603153	1	main_z	11	advance_on_keypress_ZEE	102	stimuli_target_circletriangles.svg	stimuli_distractor_diamondtriangles.svg	5	yes	57	0	371
6.6.1	win	2022-12-28	18:39:14	18:52:55	819552	5ce203d24cf9960001797537	571603153	1	main_z	11	main_z	103	stimuli_distractor_trianglediamonds.svg	stimuli_target_circlediamonds.svg	10	yes	44	1	459
6.6.1	win	2022-12-28	18:39:14	18:52:55	819552	5ce203d24cf9960001797537	571603153	1	main_z	11	advance_on_keypress_ZEE	104	stimuli_distractor_trianglediamonds.svg	stimuli_target_circlediamonds.svg	10	yes	57	0	640
6.6.1	win	2022-12-28	18:39:14	18:52:57	821214	5ce203d24cf9960001797537	571603153	1	main_z	11	main_z	105	stimuli_target_squaretriangles.svg	stimuli_distractor_trianglediamonds.svg	3	yes	44	1	381
6.6.1	win	2022-12-28	18:39:14	18:52:57	821214	5ce203d24cf9960001797537	571603153	1	main_z	11	advance_on_keypress_ZEE	106	stimuli_target_squaretriangles.svg	stimuli_distractor_trianglediamonds.svg	3	yes	57	0	477
6.6.1	win	2022-12-28	18:39:14	18:52:58	822776	5ce203d24cf9960001797537	571603153	1	main_z	11	main_z	107	stimuli_target_squaretriangles.svg	stimuli_distractor_diamondtriangles.svg	7	yes	44	1	442
6.6.1	win	2022-12-28	18:39:14	18:52:58	822776	5ce203d24cf9960001797537	571603153	1	main_z	11	advance_on_keypress_ZEE	108	stimuli_target_squaretriangles.svg	stimuli_distractor_diamondtriangles.svg	7	yes	57	0	692
6.6.1	win	2022-12-28	18:39:14	18:53:02	826109	5ce203d24cf9960001797537	571603153	1	main_z	11	main_z	109	stimuli_distractor_trianglediamonds.svg	stimuli_distractor_diamondtriangles.svg	35	no	0	1	2000
6.6.1	win	2022-12-28	18:39:14	18:53:02	826109	5ce203d24cf9960001797537	571603153	1	main_z	11	advance_on_keypress_ZEE	110	stimuli_distractor_trianglediamonds.svg	stimuli_distractor_diamondtriangles.svg	35	no	57	0	510
6.6.1	win	2022-12-28	18:39:14	18:53:03	827800	5ce203d24cf9960001797537	571603153	1	main_z	11	main_z	111	stimuli_target_diamondcircles.svg	stimuli_distractor_diamondtriangles.svg	23	yes	44	1	544
6.6.1	win	2022-12-28	18:39:14	18:53:03	827800	5ce203d24cf9960001797537	571603153	1	main_z	11	advance_on_keypress_ZEE	112	stimuli_target_diamondcircles.svg	stimuli_distractor_diamondtriangles.svg	23	yes	57	0	440
6.6.1	win	2022-12-28	18:39:14	18:53:05	829552	5ce203d24cf9960001797537	571603153	1	main_z	11	main_z	113	stimuli_distractor_diamondtriangles.svg	stimuli_target_squarediamonds.svg	16	yes	44	1	669
6.6.1	win	2022-12-28	18:39:14	18:53:05	829552	5ce203d24cf9960001797537	571603153	1	main_z	11	advance_on_keypress_ZEE	114	stimuli_distractor_diamondtriangles.svg	stimuli_target_squarediamonds.svg	16	yes	57	0	469
6.6.1	win	2022-12-28	18:39:14	18:53:07	831233	5ce203d24cf9960001797537	571603153	1	main_z	11	main_z	115	stimuli_distractor_diamondtriangles.svg	stimuli_target_diamondcircles.svg	31	yes	44	1	575
6.6.1	win	2022-12-28	18:39:14	18:53:07	831233	5ce203d24cf9960001797537	571603153	1	main_z	11	advance_on_keypress_ZEE	116	stimuli_distractor_diamondtriangles.svg	stimuli_target_diamondcircles.svg	31	yes	57	0	404
6.6.1	win	2022-12-28	18:39:14	18:53:08	832752	5ce203d24cf9960001797537	571603153	1	main_z	11	main_z	117	stimuli_target_diamondcircles.svg	stimuli_distractor_trianglediamonds.svg	19	yes	44	1	481
6.6.1	win	2022-12-28	18:39:14	18:53:08	832752	5ce203d24cf9960001797537	571603153	1	main_z	11	advance_on_keypress_ZEE	118	stimuli_target_diamondcircles.svg	stimuli_distractor_trianglediamonds.svg	19	yes	57	0	563
6.6.1	win	2022-12-28	18:39:14	18:53:10	834304	5ce203d24cf9960001797537	571603153	1	main_z	11	main_z	119	stimuli_distractor_trianglediamonds.svg	stimuli_target_squarediamonds.svg	12	yes	44	1	352
6.6.1	win	2022-12-28	18:39:14	18:53:10	834304	5ce203d24cf9960001797537	571603153	1	main_z	11	advance_on_keypress_ZEE	120	stimuli_distractor_trianglediamonds.svg	stimuli_target_squarediamonds.svg	12	yes	57	0	472
6.6.1	win	2022-12-28	18:39:14	18:53:11	835608	5ce203d24cf9960001797537	571603153	1	main_z	11	main_z	121	stimuli_target_squarediamonds.svg	stimuli_distractor_diamondtriangles.svg	8	yes	44	1	202
6.6.1	win	2022-12-28	18:39:14	18:53:11	835608	5ce203d24cf9960001797537	571603153	1	main_z	11	advance_on_keypress_ZEE	122	stimuli_target_squarediamonds.svg	stimuli_distractor_diamondtriangles.svg	8	yes	57	0	1325
6.6.1	win	2022-12-28	18:39:14	18:53:13	837680	5ce203d24cf9960001797537	571603153	1	main_z	11	main_z	123	stimuli_distractor_diamondtriangles.svg	stimuli_target_diamondsquares.svg	32	yes	44	1	113
6.6.1	win	2022-12-28	18:39:14	18:53:13	837680	5ce203d24cf9960001797537	571603153	1	main_z	11	advance_on_keypress_ZEE	124	stimuli_distractor_diamondtriangles.svg	stimuli_target_diamondsquares.svg	32	yes	57	0	1017
6.6.1	win	2022-12-28	18:39:14	18:53:15	839536	5ce203d24cf9960001797537	571603153	1	main_z	11	main_z	125	stimuli_target_circlediamonds.svg	stimuli_distractor_trianglediamonds.svg	2	yes	44	1	209
6.6.1	win	2022-12-28	18:39:14	18:53:15	839536	5ce203d24cf9960001797537	571603153	1	main_z	11	advance_on_keypress_ZEE	126	stimuli_target_circlediamonds.svg	stimuli_distractor_trianglediamonds.svg	2	yes	57	0	566
6.6.1	win	2022-12-28	18:39:14	18:53:16	840968	5ce203d24cf9960001797537	571603153	1	main_z	11	main_z	127	stimuli_distractor_diamondtriangles.svg	stimuli_target_trianglecircles.svg	29	yes	44	1	227
6.6.1	win	2022-12-28	18:39:14	18:53:16	840968	5ce203d24cf9960001797537	571603153	1	main_z	11	advance_on_keypress_ZEE	128	stimuli_distractor_diamondtriangles.svg	stimuli_target_trianglecircles.svg	29	yes	57	0	931
6.6.1	win	2022-12-28	18:39:14	18:53:18	842800	5ce203d24cf9960001797537	571603153	1	main_z	11	main_z	129	stimuli_distractor_trianglediamonds.svg	stimuli_distractor_trianglediamonds.svg	33	no	44	0	258
6.6.1	win	2022-12-28	18:39:14	18:53:18	842800	5ce203d24cf9960001797537	571603153	1	main_z	11	advance_on_keypress_ZEE	130	stimuli_distractor_trianglediamonds.svg	stimuli_distractor_trianglediamonds.svg	33	no	57	0	1023
6.6.1	win	2022-12-28	18:39:14	18:53:21	845168	5ce203d24cf9960001797537	571603153	1	main_z	11	main_z	131	stimuli_distractor_diamondtriangles.svg	stimuli_target_trianglesquares.svg	30	yes	44	1	705
6.6.1	win	2022-12-28	18:39:14	18:53:21	845168	5ce203d24cf9960001797537	571603153	1	main_z	11	advance_on_keypress_ZEE	132	stimuli_distractor_diamondtriangles.svg	stimuli_target_trianglesquares.svg	30	yes	57	0	441
6.6.1	win	2022-12-28	18:39:14	18:53:22	846824	5ce203d24cf9960001797537	571603153	1	main_z	11	main_z	133	stimuli_target_diamondsquares.svg	stimuli_distractor_trianglediamonds.svg	20	yes	44	1	574
6.6.1	win	2022-12-28	18:39:14	18:53:22	846824	5ce203d24cf9960001797537	571603153	1	main_z	11	advance_on_keypress_ZEE	134	stimuli_target_diamondsquares.svg	stimuli_distractor_trianglediamonds.svg	20	yes	57	0	419
6.6.1	win	2022-12-28	18:39:14	18:53:24	848568	5ce203d24cf9960001797537	571603153	1	main_z	11	main_z	135	stimuli_distractor_trianglediamonds.svg	stimuli_target_trianglecircles.svg	25	yes	44	1	691
6.6.1	win	2022-12-28	18:39:14	18:53:24	848568	5ce203d24cf9960001797537	571603153	1	main_z	11	advance_on_keypress_ZEE	136	stimuli_distractor_trianglediamonds.svg	stimuli_target_trianglecircles.svg	25	yes	57	0	392
6.6.1	win	2022-12-28	18:39:14	18:53:25	849920	5ce203d24cf9960001797537	571603153	1	main_z	11	main_z	137	stimuli_distractor_diamondtriangles.svg	stimuli_target_squaretriangles.svg	15	yes	44	1	322
6.6.1	win	2022-12-28	18:39:14	18:53:25	849920	5ce203d24cf9960001797537	571603153	1	main_z	11	advance_on_keypress_ZEE	138	stimuli_distractor_diamondtriangles.svg	stimuli_target_squaretriangles.svg	15	yes	57	0	572
6.6.1	win	2022-12-28	18:39:14	18:53:27	851968	5ce203d24cf9960001797537	571603153	1	main_z	11	main_z	139	stimuli_target_circletriangles.svg	stimuli_distractor_trianglediamonds.svg	1	yes	44	1	836
6.6.1	win	2022-12-28	18:39:14	18:53:27	851968	5ce203d24cf9960001797537	571603153	1	main_z	11	advance_on_keypress_ZEE	140	stimuli_target_circletriangles.svg	stimuli_distractor_trianglediamonds.svg	1	yes	57	0	422
6.6.1	win	2022-12-28	18:39:14	18:53:31	855040	5ce203d24cf9960001797537	571603153	1	main_z	11	main_z	141	stimuli_target_trianglesquares.svg	stimuli_distractor_trianglediamonds.svg	18	yes	0	0	2000
6.6.1	win	2022-12-28	18:39:14	18:53:31	855040	5ce203d24cf9960001797537	571603153	1	main_z	11	advance_on_keypress_ZEE	142	stimuli_target_trianglesquares.svg	stimuli_distractor_trianglediamonds.svg	18	yes	57	0	586
6.6.1	win	2022-12-28	18:39:14	18:53:32	856584	5ce203d24cf9960001797537	571603153	1	main_z	11	main_z	143	stimuli_distractor_diamondtriangles.svg	stimuli_distractor_diamondtriangles.svg	40	no	44	0	316
6.6.1	win	2022-12-28	18:39:14	18:53:32	856584	5ce203d24cf9960001797537	571603153	1	main_z	11	advance_on_keypress_ZEE	144	stimuli_distractor_diamondtriangles.svg	stimuli_distractor_diamondtriangles.svg	40	no	57	0	487
6.6.1	win	2022-12-28	18:39:14	18:53:35	859722	5ce203d24cf9960001797537	571603153	1	main_z	11	main_z	145	stimuli_distractor_trianglediamonds.svg	stimuli_target_trianglesquares.svg	26	yes	0	0	2000
6.6.1	win	2022-12-28	18:39:14	18:53:35	859722	5ce203d24cf9960001797537	571603153	1	main_z	11	advance_on_keypress_ZEE	146	stimuli_distractor_trianglediamonds.svg	stimuli_target_trianglesquares.svg	26	yes	57	0	497
6.6.1	win	2022-12-28	18:39:14	18:53:37	861640	5ce203d24cf9960001797537	571603153	1	main_z	11	main_z	147	stimuli_target_trianglesquares.svg	stimuli_distractor_diamondtriangles.svg	22	yes	44	1	784
6.6.1	win	2022-12-28	18:39:14	18:53:37	861640	5ce203d24cf9960001797537	571603153	1	main_z	11	advance_on_keypress_ZEE	148	stimuli_target_trianglesquares.svg	stimuli_distractor_diamondtriangles.svg	22	yes	57	0	432
6.6.1	win	2022-12-28	18:39:14	18:53:39	863472	5ce203d24cf9960001797537	571603153	1	main_z	11	main_z	149	stimuli_distractor_diamondtriangles.svg	stimuli_target_circletriangles.svg	13	yes	44	1	762
6.6.1	win	2022-12-28	18:39:14	18:53:39	863472	5ce203d24cf9960001797537	571603153	1	main_z	11	advance_on_keypress_ZEE	150	stimuli_distractor_diamondtriangles.svg	stimuli_target_circletriangles.svg	13	yes	57	0	292
6.6.1	win	2022-12-28	18:39:14	18:53:41	865128	5ce203d24cf9960001797537	571603153	1	main_z	11	main_z	151	stimuli_target_diamondsquares.svg	stimuli_distractor_diamondtriangles.svg	24	yes	44	1	724
6.6.1	win	2022-12-28	18:39:14	18:53:41	865128	5ce203d24cf9960001797537	571603153	1	main_z	11	advance_on_keypress_ZEE	152	stimuli_target_diamondsquares.svg	stimuli_distractor_diamondtriangles.svg	24	yes	57	0	414
6.6.1	win	2022-12-28	18:39:14	18:53:44	868178	5ce203d24cf9960001797537	571603153	1	main_z	11	main_z	153	stimuli_distractor_trianglediamonds.svg	stimuli_distractor_diamondtriangles.svg	36	no	0	1	2000
6.6.1	win	2022-12-28	18:39:14	18:53:44	868178	5ce203d24cf9960001797537	571603153	1	main_z	11	advance_on_keypress_ZEE	154	stimuli_distractor_trianglediamonds.svg	stimuli_distractor_diamondtriangles.svg	36	no	57	0	488
6.6.1	win	2022-12-28	18:39:14	18:53:47	871313	5ce203d24cf9960001797537	571603153	1	main_z	11	main_z	155	stimuli_distractor_trianglediamonds.svg	stimuli_target_diamondcircles.svg	27	yes	0	0	2000
6.6.1	win	2022-12-28	18:39:14	18:53:47	871313	5ce203d24cf9960001797537	571603153	1	main_z	11	advance_on_keypress_ZEE	156	stimuli_distractor_trianglediamonds.svg	stimuli_target_diamondcircles.svg	27	yes	57	0	914
6.6.1	win	2022-12-28	18:39:14	18:53:49	873472	5ce203d24cf9960001797537	571603153	1	main_z	11	main_z	157	stimuli_target_trianglecircles.svg	stimuli_distractor_trianglediamonds.svg	17	yes	44	1	612
6.6.1	win	2022-12-28	18:39:14	18:53:49	873472	5ce203d24cf9960001797537	571603153	1	main_z	11	advance_on_keypress_ZEE	158	stimuli_target_trianglecircles.svg	stimuli_distractor_trianglediamonds.svg	17	yes	57	0	449
6.6.1	win	2022-12-28	18:39:14	18:53:51	875768	5ce203d24cf9960001797537	571603153	1	main_z	11	main_z	159	stimuli_distractor_trianglediamonds.svg	stimuli_target_squaretriangles.svg	11	yes	44	1	1200
6.6.1	win	2022-12-28	18:39:14	18:53:51	875768	5ce203d24cf9960001797537	571603153	1	main_z	11	advance_on_keypress_ZEE	160	stimuli_distractor_trianglediamonds.svg	stimuli_target_squaretriangles.svg	11	yes	57	0	506