build	computer.platform	date	time	timestamp	time_elapsed_ms	subject	group	session	blockcode	blocknum	trialcode	trialnum	stimulus_left	stimulus_right	stim_index	target_present	response	correct	latency
6.6.1	mac	2022-12-19	14:32:00	14:34:33	152003	6290ebb13a126c60c9cb7d11	147680701	1	practice_slash	5	practice_slash	1	stimuli_distractor_trianglediamonds.svg	stimuli_target_circlediamonds.svg	10	yes	0	0	2000
6.6.1	mac	2022-12-19	14:32:00	14:34:33	152003	6290ebb13a126c60c9cb7d11	147680701	1	practice_slash	5	advance_on_keypress_SLASH	2	stimuli_distractor_trianglediamonds.svg	stimuli_target_circlediamonds.svg	10	yes	57	0	1750
6.6.1	mac	2022-12-19	14:32:00	14:34:37	155802	6290ebb13a126c60c9cb7d11	147680701	1	practice_slash	5	practice_slash	3	stimuli_target_squarediamonds.svg	stimuli_distractor_diamondtriangles.svg	2	yes	53	1	416
6.6.1	mac	2022-12-19	14:32:00	14:34:37	155802	6290ebb13a126c60c9cb7d11	147680701	1	practice_slash	5	advance_on_keypress_SLASH	4	stimuli_target_squarediamonds.svg	stimuli_distractor_diamondtriangles.svg	2	yes	57	0	877
6.6.1	mac	2022-12-19	14:32:00	14:34:40	158964	6290ebb13a126c60c9cb7d11	147680701	1	practice_slash	5	practice_slash	5	stimuli_distractor_diamondtriangles.svg	stimuli_target_diamondcircles.svg	8	yes	53	1	644
6.6.1	mac	2022-12-19	14:32:00	14:34:40	158964	6290ebb13a126c60c9cb7d11	147680701	1	practice_slash	5	advance_on_keypress_SLASH	6	stimuli_distractor_diamondtriangles.svg	stimuli_target_diamondcircles.svg	8	yes	57	0	526
6.6.1	mac	2022-12-19	14:32:00	14:34:43	161772	6290ebb13a126c60c9cb7d11	147680701	1	practice_slash	5	practice_slash	7	stimuli_target_squarediamonds.svg	stimuli_distractor_trianglediamonds.svg	5	yes	53	1	652
6.6.1	mac	2022-12-19	14:32:00	14:34:43	161772	6290ebb13a126c60c9cb7d11	147680701	1	practice_slash	5	advance_on_keypress_SLASH	8	stimuli_target_squarediamonds.svg	stimuli_distractor_trianglediamonds.svg	5	yes	57	0	1656
6.6.1	mac	2022-12-19	14:32:00	14:34:48	166442	6290ebb13a126c60c9cb7d11	147680701	1	practice_slash	5	practice_slash	9	stimuli_target_diamondsquares.svg	stimuli_distractor_trianglediamonds.svg	6	yes	53	1	1388
6.6.1	mac	2022-12-19	14:32:00	14:34:48	166442	6290ebb13a126c60c9cb7d11	147680701	1	practice_slash	5	advance_on_keypress_SLASH	10	stimuli_target_diamondsquares.svg	stimuli_distractor_trianglediamonds.svg	6	yes	57	0	736
6.6.1	mac	2022-12-19	14:32:00	14:34:51	169357	6290ebb13a126c60c9cb7d11	147680701	1	practice_slash	5	practice_slash	11	stimuli_distractor_diamondtriangles.svg	stimuli_distractor_diamondtriangles.svg	13	no	53	0	554
6.6.1	mac	2022-12-19	14:32:00	14:34:51	169357	6290ebb13a126c60c9cb7d11	147680701	1	practice_slash	5	advance_on_keypress_SLASH	12	stimuli_distractor_diamondtriangles.svg	stimuli_distractor_diamondtriangles.svg	13	no	57	0	566
6.6.1	mac	2022-12-19	14:32:00	14:34:55	173552	6290ebb13a126c60c9cb7d11	147680701	1	practice_slash	5	practice_slash	13	stimuli_distractor_diamondtriangles.svg	stimuli_distractor_trianglediamonds.svg	14	no	0	1	2000
6.6.1	mac	2022-12-19	14:32:00	14:34:55	173552	6290ebb13a126c60c9cb7d11	147680701	1	practice_slash	5	advance_on_keypress_SLASH	14	stimuli_distractor_diamondtriangles.svg	stimuli_distractor_trianglediamonds.svg	14	no	57	0	838
6.6.1	mac	2022-12-19	14:32:00	14:34:59	178020	6290ebb13a126c60c9cb7d11	147680701	1	practice_slash	5	practice_slash	15	stimuli_distractor_trianglediamonds.svg	stimuli_distractor_diamondtriangles.svg	16	no	0	1	2000
6.6.1	mac	2022-12-19	14:32:00	14:34:59	178020	6290ebb13a126c60c9cb7d11	147680701	1	practice_slash	5	advance_on_keypress_SLASH	16	stimuli_distractor_trianglediamonds.svg	stimuli_distractor_diamondtriangles.svg	16	no	57	0	1388
6.6.1	mac	2022-12-19	14:32:00	14:35:03	181738	6290ebb13a126c60c9cb7d11	147680701	1	practice_slash	5	practice_slash	17	stimuli_distractor_trianglediamonds.svg	stimuli_target_squarediamonds.svg	11	yes	53	1	701
6.6.1	mac	2022-12-19	14:32:00	14:35:03	181738	6290ebb13a126c60c9cb7d11	147680701	1	practice_slash	5	advance_on_keypress_SLASH	18	stimuli_distractor_trianglediamonds.svg	stimuli_target_squarediamonds.svg	11	yes	57	0	792
6.6.1	mac	2022-12-19	14:32:00	14:35:07	185355	6290ebb13a126c60c9cb7d11	147680701	1	practice_slash	5	practice_slash	19	stimuli_distractor_diamondtriangles.svg	stimuli_target_circletriangles.svg	7	yes	53	1	1184
6.6.1	mac	2022-12-19	14:32:00	14:35:07	185355	6290ebb13a126c60c9cb7d11	147680701	1	practice_slash	5	advance_on_keypress_SLASH	20	stimuli_distractor_diamondtriangles.svg	stimuli_target_circletriangles.svg	7	yes	57	0	759
6.6.1	mac	2022-12-19	14:32:00	14:35:10	189155	6290ebb13a126c60c9cb7d11	147680701	1	practice_slash	5	practice_slash	21	stimuli_distractor_diamondtriangles.svg	stimuli_target_trianglecircles.svg	9	yes	53	1	1402
6.6.1	mac	2022-12-19	14:32:00	14:35:10	189155	6290ebb13a126c60c9cb7d11	147680701	1	practice_slash	5	advance_on_keypress_SLASH	22	stimuli_distractor_diamondtriangles.svg	stimuli_target_trianglecircles.svg	9	yes	57	0	747
6.6.1	mac	2022-12-19	14:32:00	14:35:14	192337	6290ebb13a126c60c9cb7d11	147680701	1	practice_slash	5	practice_slash	23	stimuli_target_diamondsquares.svg	stimuli_distractor_diamondtriangles.svg	3	yes	53	1	801
6.6.1	mac	2022-12-19	14:32:00	14:35:14	192337	6290ebb13a126c60c9cb7d11	147680701	1	practice_slash	5	advance_on_keypress_SLASH	24	stimuli_target_diamondsquares.svg	stimuli_distractor_diamondtriangles.svg	3	yes	57	0	518
6.6.1	mac	2022-12-19	14:32:00	14:35:17	195501	6290ebb13a126c60c9cb7d11	147680701	1	practice_slash	5	practice_slash	25	stimuli_target_circlediamonds.svg	stimuli_distractor_trianglediamonds.svg	4	yes	53	1	1014
6.6.1	mac	2022-12-19	14:32:00	14:35:17	195501	6290ebb13a126c60c9cb7d11	147680701	1	practice_slash	5	advance_on_keypress_SLASH	26	stimuli_target_circlediamonds.svg	stimuli_distractor_trianglediamonds.svg	4	yes	57	0	891
6.6.1	mac	2022-12-19	14:32:00	14:35:21	200020	6290ebb13a126c60c9cb7d11	147680701	1	practice_slash	5	practice_slash	27	stimuli_distractor_trianglediamonds.svg	stimuli_distractor_trianglediamonds.svg	15	no	0	1	2000
6.6.1	mac	2022-12-19	14:32:00	14:35:21	200020	6290ebb13a126c60c9cb7d11	147680701	1	practice_slash	5	advance_on_keypress_SLASH	28	stimuli_distractor_trianglediamonds.svg	stimuli_distractor_trianglediamonds.svg	15	no	57	0	810
6.6.1	mac	2022-12-19	14:32:00	14:35:26	204469	6290ebb13a126c60c9cb7d11	147680701	1	practice_slash	5	practice_slash	29	stimuli_distractor_trianglediamonds.svg	stimuli_target_diamondcircles.svg	12	yes	0	0	2000
6.6.1	mac	2022-12-19	14:32:00	14:35:26	204469	6290ebb13a126c60c9cb7d11	147680701	1	practice_slash	5	advance_on_keypress_SLASH	30	stimuli_distractor_trianglediamonds.svg	stimuli_target_diamondcircles.svg	12	yes	57	0	524
6.6.1	mac	2022-12-19	14:32:00	14:35:29	207411	6290ebb13a126c60c9cb7d11	147680701	1	practice_slash	5	practice_slash	31	stimuli_target_circlediamonds.svg	stimuli_distractor_diamondtriangles.svg	1	yes	53	1	790
6.6.1	mac	2022-12-19	14:32:00	14:35:29	207411	6290ebb13a126c60c9cb7d11	147680701	1	practice_slash	5	advance_on_keypress_SLASH	32	stimuli_target_circlediamonds.svg	stimuli_distractor_diamondtriangles.svg	1	yes	57	0	734
6.6.1	mac	2022-12-19	14:32:00	14:35:35	213788	6290ebb13a126c60c9cb7d11	147680701	1	main_slash	7	main_slash	1	stimuli_distractor_trianglediamonds.svg	stimuli_target_circletriangles.svg	9	yes	53	1	469
6.6.1	mac	2022-12-19	14:32:00	14:35:35	213788	6290ebb13a126c60c9cb7d11	147680701	1	main_slash	7	advance_on_keypress_SLASH	2	stimuli_distractor_trianglediamonds.svg	stimuli_target_circletriangles.svg	9	yes	57	0	1696
6.6.1	mac	2022-12-19	14:32:00	14:35:38	216350	6290ebb13a126c60c9cb7d11	147680701	1	main_slash	7	main_slash	3	stimuli_target_circletriangles.svg	stimuli_distractor_trianglediamonds.svg	1	yes	53	1	232
6.6.1	mac	2022-12-19	14:32:00	14:35:38	216350	6290ebb13a126c60c9cb7d11	147680701	1	main_slash	7	advance_on_keypress_SLASH	4	stimuli_target_circletriangles.svg	stimuli_distractor_trianglediamonds.svg	1	yes	57	0	1659
6.6.1	mac	2022-12-19	14:32:00	14:35:40	219083	6290ebb13a126c60c9cb7d11	147680701	1	main_slash	7	main_slash	5	stimuli_target_trianglecircles.svg	stimuli_distractor_diamondtriangles.svg	21	yes	53	1	430
6.6.1	mac	2022-12-19	14:32:00	14:35:40	219083	6290ebb13a126c60c9cb7d11	147680701	1	main_slash	7	advance_on_keypress_SLASH	6	stimuli_target_trianglecircles.svg	stimuli_distractor_diamondtriangles.svg	21	yes	57	0	1309
6.6.1	mac	2022-12-19	14:32:00	14:35:43	221477	6290ebb13a126c60c9cb7d11	147680701	1	main_slash	7	main_slash	7	stimuli_target_trianglesquares.svg	stimuli_distractor_diamondtriangles.svg	22	yes	53	1	458
6.6.1	mac	2022-12-19	14:32:00	14:35:43	221477	6290ebb13a126c60c9cb7d11	147680701	1	main_slash	7	advance_on_keypress_SLASH	8	stimuli_target_trianglesquares.svg	stimuli_distractor_diamondtriangles.svg	22	yes	57	0	1232
6.6.1	mac	2022-12-19	14:32:00	14:35:46	224374	6290ebb13a126c60c9cb7d11	147680701	1	main_slash	7	main_slash	9	stimuli_target_squaretriangles.svg	stimuli_distractor_trianglediamonds.svg	3	yes	53	1	1038
6.6.1	mac	2022-12-19	14:32:00	14:35:46	224374	6290ebb13a126c60c9cb7d11	147680701	1	main_slash	7	advance_on_keypress_SLASH	10	stimuli_target_squaretriangles.svg	stimuli_distractor_trianglediamonds.svg	3	yes	57	0	1719
6.6.1	mac	2022-12-19	14:32:00	14:35:48	227085	6290ebb13a126c60c9cb7d11	147680701	1	main_slash	7	main_slash	11	stimuli_target_circletriangles.svg	stimuli_distractor_diamondtriangles.svg	5	yes	53	1	367
6.6.1	mac	2022-12-19	14:32:00	14:35:48	227085	6290ebb13a126c60c9cb7d11	147680701	1	main_slash	7	advance_on_keypress_SLASH	12	stimuli_target_circletriangles.svg	stimuli_distractor_diamondtriangles.svg	5	yes	57	0	3097
6.6.1	mac	2022-12-19	14:32:00	14:35:53	231323	6290ebb13a126c60c9cb7d11	147680701	1	main_slash	7	main_slash	13	stimuli_distractor_trianglediamonds.svg	stimuli_target_circlediamonds.svg	10	yes	53	1	504
6.6.1	mac	2022-12-19	14:32:00	14:35:53	231323	6290ebb13a126c60c9cb7d11	147680701	1	main_slash	7	advance_on_keypress_SLASH	14	stimuli_distractor_trianglediamonds.svg	stimuli_target_circlediamonds.svg	10	yes	57	0	1676
6.6.1	mac	2022-12-19	14:32:00	14:35:55	233991	6290ebb13a126c60c9cb7d11	147680701	1	main_slash	7	main_slash	15	stimuli_distractor_trianglediamonds.svg	stimuli_distractor_trianglediamonds.svg	34	no	53	0	356
6.6.1	mac	2022-12-19	14:32:00	14:35:55	233991	6290ebb13a126c60c9cb7d11	147680701	1	main_slash	7	advance_on_keypress_SLASH	16	stimuli_distractor_trianglediamonds.svg	stimuli_distractor_trianglediamonds.svg	34	no	57	0	920
6.6.1	mac	2022-12-19	14:32:00	14:35:58	236292	6290ebb13a126c60c9cb7d11	147680701	1	main_slash	7	main_slash	17	stimuli_distractor_trianglediamonds.svg	stimuli_target_trianglecircles.svg	25	yes	53	1	756
6.6.1	mac	2022-12-19	14:32:00	14:35:58	236292	6290ebb13a126c60c9cb7d11	147680701	1	main_slash	7	advance_on_keypress_SLASH	18	stimuli_distractor_trianglediamonds.svg	stimuli_target_trianglecircles.svg	25	yes	57	0	755
6.6.1	mac	2022-12-19	14:32:00	14:36:01	239668	6290ebb13a126c60c9cb7d11	147680701	1	main_slash	7	main_slash	19	stimuli_distractor_diamondtriangles.svg	stimuli_distractor_diamondtriangles.svg	40	no	0	1	2000
6.6.1	mac	2022-12-19	14:32:00	14:36:01	239668	6290ebb13a126c60c9cb7d11	147680701	1	main_slash	7	advance_on_keypress_SLASH	20	stimuli_distractor_diamondtriangles.svg	stimuli_distractor_diamondtriangles.svg	40	no	57	0	510
6.6.1	mac	2022-12-19	14:32:00	14:36:04	242818	6290ebb13a126c60c9cb7d11	147680701	1	main_slash	7	main_slash	21	stimuli_distractor_diamondtriangles.svg	stimuli_target_trianglesquares.svg	30	yes	0	0	2000
6.6.1	mac	2022-12-19	14:32:00	14:36:04	242818	6290ebb13a126c60c9cb7d11	147680701	1	main_slash	7	advance_on_keypress_SLASH	22	stimuli_distractor_diamondtriangles.svg	stimuli_target_trianglesquares.svg	30	yes	57	0	361
6.6.1	mac	2022-12-19	14:32:00	14:36:06	244443	6290ebb13a126c60c9cb7d11	147680701	1	main_slash	7	main_slash	23	stimuli_target_diamondsquares.svg	stimuli_distractor_diamondtriangles.svg	24	yes	53	1	624
6.6.1	mac	2022-12-19	14:32:00	14:36:06	244443	6290ebb13a126c60c9cb7d11	147680701	1	main_slash	7	advance_on_keypress_SLASH	24	stimuli_target_diamondsquares.svg	stimuli_distractor_diamondtriangles.svg	24	yes	57	0	1164
6.6.1	mac	2022-12-19	14:32:00	14:36:08	246775	6290ebb13a126c60c9cb7d11	147680701	1	main_slash	7	main_slash	25	stimuli_distractor_trianglediamonds.svg	stimuli_target_squaretriangles.svg	11	yes	53	1	540
6.6.1	mac	2022-12-19	14:32:00	14:36:08	246775	6290ebb13a126c60c9cb7d11	147680701	1	main_slash	7	advance_on_keypress_SLASH	26	stimuli_distractor_trianglediamonds.svg	stimuli_target_squaretriangles.svg	11	yes	57	0	1129
6.6.1	mac	2022-12-19	14:32:00	14:36:12	250551	6290ebb13a126c60c9cb7d11	147680701	1	main_slash	7	main_slash	27	stimuli_distractor_diamondtriangles.svg	stimuli_target_diamondsquares.svg	32	yes	0	0	2000
6.6.1	mac	2022-12-19	14:32:00	14:36:12	250551	6290ebb13a126c60c9cb7d11	147680701	1	main_slash	7	advance_on_keypress_SLASH	28	stimuli_distractor_diamondtriangles.svg	stimuli_target_diamondsquares.svg	32	yes	57	0	684
6.6.1	mac	2022-12-19	14:32:00	14:36:14	252483	6290ebb13a126c60c9cb7d11	147680701	1	main_slash	7	main_slash	29	stimuli_target_trianglesquares.svg	stimuli_distractor_trianglediamonds.svg	18	yes	53	1	614
6.6.1	mac	2022-12-19	14:32:00	14:36:14	252483	6290ebb13a126c60c9cb7d11	147680701	1	main_slash	7	advance_on_keypress_SLASH	30	stimuli_target_trianglesquares.svg	stimuli_distractor_trianglediamonds.svg	18	yes	57	0	1270
6.6.1	mac	2022-12-19	14:32:00	14:36:18	256384	6290ebb13a126c60c9cb7d11	147680701	1	main_slash	7	main_slash	31	stimuli_target_circlediamonds.svg	stimuli_distractor_trianglediamonds.svg	2	yes	0	0	2000
6.6.1	mac	2022-12-19	14:32:00	14:36:18	256384	6290ebb13a126c60c9cb7d11	147680701	1	main_slash	7	advance_on_keypress_SLASH	32	stimuli_target_circlediamonds.svg	stimuli_distractor_trianglediamonds.svg	2	yes	57	0	1178
6.6.1	mac	2022-12-19	14:32:00	14:36:20	258753	6290ebb13a126c60c9cb7d11	147680701	1	main_slash	7	main_slash	33	stimuli_distractor_trianglediamonds.svg	stimuli_target_diamondcircles.svg	27	yes	53	1	551
6.6.1	mac	2022-12-19	14:32:00	14:36:20	258753	6290ebb13a126c60c9cb7d11	147680701	1	main_slash	7	advance_on_keypress_SLASH	34	stimuli_distractor_trianglediamonds.svg	stimuli_target_diamondcircles.svg	27	yes	57	0	767
6.6.1	mac	2022-12-19	14:32:00	14:36:23	262151	6290ebb13a126c60c9cb7d11	147680701	1	main_slash	7	main_slash	35	stimuli_distractor_diamondtriangles.svg	stimuli_distractor_diamondtriangles.svg	39	no	0	1	2000
6.6.1	mac	2022-12-19	14:32:00	14:36:23	262151	6290ebb13a126c60c9cb7d11	147680701	1	main_slash	7	advance_on_keypress_SLASH	36	stimuli_distractor_diamondtriangles.svg	stimuli_distractor_diamondtriangles.svg	39	no	57	0	525
6.6.1	mac	2022-12-19	14:32:00	14:36:25	263886	6290ebb13a126c60c9cb7d11	147680701	1	main_slash	7	main_slash	37	stimuli_target_diamondsquares.svg	stimuli_distractor_trianglediamonds.svg	20	yes	53	1	583
6.6.1	mac	2022-12-19	14:32:00	14:36:25	263886	6290ebb13a126c60c9cb7d11	147680701	1	main_slash	7	advance_on_keypress_SLASH	38	stimuli_target_diamondsquares.svg	stimuli_distractor_trianglediamonds.svg	20	yes	57	0	580
6.6.1	mac	2022-12-19	14:32:00	14:36:27	265816	6290ebb13a126c60c9cb7d11	147680701	1	main_slash	7	main_slash	39	stimuli_distractor_trianglediamonds.svg	stimuli_distractor_diamondtriangles.svg	36	no	53	0	713
6.6.1	mac	2022-12-19	14:32:00	14:36:27	265816	6290ebb13a126c60c9cb7d11	147680701	1	main_slash	7	advance_on_keypress_SLASH	40	stimuli_distractor_trianglediamonds.svg	stimuli_distractor_diamondtriangles.svg	36	no	57	0	458
6.6.1	mac	2022-12-19	14:32:00	14:36:29	268139	6290ebb13a126c60c9cb7d11	147680701	1	main_slash	7	main_slash	41	stimuli_target_squarediamonds.svg	stimuli_distractor_trianglediamonds.svg	4	yes	53	1	1236
6.6.1	mac	2022-12-19	14:32:00	14:36:29	268139	6290ebb13a126c60c9cb7d11	147680701	1	main_slash	7	advance_on_keypress_SLASH	42	stimuli_target_squarediamonds.svg	stimuli_distractor_trianglediamonds.svg	4	yes	57	0	715
6.6.1	mac	2022-12-19	14:32:00	14:36:31	270002	6290ebb13a126c60c9cb7d11	147680701	1	main_slash	7	main_slash	43	stimuli_target_circlediamonds.svg	stimuli_distractor_diamondtriangles.svg	6	yes	53	1	519
6.6.1	mac	2022-12-19	14:32:00	14:36:31	270002	6290ebb13a126c60c9cb7d11	147680701	1	main_slash	7	advance_on_keypress_SLASH	44	stimuli_target_circlediamonds.svg	stimuli_distractor_diamondtriangles.svg	6	yes	57	0	894
6.6.1	mac	2022-12-19	14:32:00	14:36:35	273518	6290ebb13a126c60c9cb7d11	147680701	1	main_slash	7	main_slash	45	stimuli_distractor_diamondtriangles.svg	stimuli_distractor_trianglediamonds.svg	38	no	0	1	2000
6.6.1	mac	2022-12-19	14:32:00	14:36:35	273518	6290ebb13a126c60c9cb7d11	147680701	1	main_slash	7	advance_on_keypress_SLASH	46	stimuli_distractor_diamondtriangles.svg	stimuli_distractor_trianglediamonds.svg	38	no	57	0	406
6.6.1	mac	2022-12-19	14:32:00	14:36:36	275009	6290ebb13a126c60c9cb7d11	147680701	1	main_slash	7	main_slash	47	stimuli_distractor_trianglediamonds.svg	stimuli_target_squarediamonds.svg	12	yes	53	1	456
6.6.1	mac	2022-12-19	14:32:00	14:36:36	275009	6290ebb13a126c60c9cb7d11	147680701	1	main_slash	7	advance_on_keypress_SLASH	48	stimuli_distractor_trianglediamonds.svg	stimuli_target_squarediamonds.svg	12	yes	57	0	1392
6.6.1	mac	2022-12-19	14:32:00	14:36:39	277663	6290ebb13a126c60c9cb7d11	147680701	1	main_slash	7	main_slash	49	stimuli_target_diamondcircles.svg	stimuli_distractor_diamondtriangles.svg	23	yes	53	1	643
6.6.1	mac	2022-12-19	14:32:00	14:36:39	277663	6290ebb13a126c60c9cb7d11	147680701	1	main_slash	7	advance_on_keypress_SLASH	50	stimuli_target_diamondcircles.svg	stimuli_distractor_diamondtriangles.svg	23	yes	57	0	2115
6.6.1	mac	2022-12-19	14:32:00	14:36:44	282418	6290ebb13a126c60c9cb7d11	147680701	1	main_slash	7	main_slash	51	stimuli_distractor_diamondtriangles.svg	stimuli_target_diamondcircles.svg	31	yes	0	0	2000
6.6.1	mac	2022-12-19	14:32:00	14:36:44	282418	6290ebb13a126c60c9cb7d11	147680701	1	main_slash	7	advance_on_keypress_SLASH	52	stimuli_distractor_diamondtriangles.svg	stimuli_target_diamondcircles.svg	31	yes	57	0	560
6.6.1	mac	2022-12-19	14:32:00	14:36:47	285601	6290ebb13a126c60c9cb7d11	147680701	1	main_slash	7	main_slash	53	stimuli_distractor_diamondtriangles.svg	stimuli_distractor_trianglediamonds.svg	37	no	0	1	2000
6.6.1	mac	2022-12-19	14:32:00	14:36:47	285601	6290ebb13a126c60c9cb7d11	147680701	1	main_slash	7	advance_on_keypress_SLASH	54	stimuli_distractor_diamondtriangles.svg	stimuli_distractor_trianglediamonds.svg	37	no	57	0	439
6.6.1	mac	2022-12-19	14:32:00	14:36:50	288667	6290ebb13a126c60c9cb7d11	147680701	1	main_slash	7	main_slash	55	stimuli_distractor_trianglediamonds.svg	stimuli_distractor_diamondtriangles.svg	35	no	0	1	2000
6.6.1	mac	2022-12-19	14:32:00	14:36:50	288667	6290ebb13a126c60c9cb7d11	147680701	1	main_slash	7	advance_on_keypress_SLASH	56	stimuli_distractor_trianglediamonds.svg	stimuli_distractor_diamondtriangles.svg	35	no	57	0	398
6.6.1	mac	2022-12-19	14:32:00	14:36:52	290276	6290ebb13a126c60c9cb7d11	147680701	1	main_slash	7	main_slash	57	stimuli_distractor_diamondtriangles.svg	stimuli_target_circletriangles.svg	13	yes	53	1	574
6.6.1	mac	2022-12-19	14:32:00	14:36:52	290276	6290ebb13a126c60c9cb7d11	147680701	1	main_slash	7	advance_on_keypress_SLASH	58	stimuli_distractor_diamondtriangles.svg	stimuli_target_circletriangles.svg	13	yes	57	0	1296
6.6.1	mac	2022-12-19	14:32:00	14:36:54	292790	6290ebb13a126c60c9cb7d11	147680701	1	main_slash	7	main_slash	59	stimuli_distractor_diamondtriangles.svg	stimuli_target_squarediamonds.svg	16	yes	53	1	571
6.6.1	mac	2022-12-19	14:32:00	14:36:54	292790	6290ebb13a126c60c9cb7d11	147680701	1	main_slash	7	advance_on_keypress_SLASH	60	stimuli_distractor_diamondtriangles.svg	stimuli_target_squarediamonds.svg	16	yes	57	0	895
6.6.1	mac	2022-12-19	14:32:00	14:36:57	295366	6290ebb13a126c60c9cb7d11	147680701	1	main_slash	7	main_slash	61	stimuli_target_squarediamonds.svg	stimuli_distractor_diamondtriangles.svg	8	yes	53	1	1046
6.6.1	mac	2022-12-19	14:32:00	14:36:57	295366	6290ebb13a126c60c9cb7d11	147680701	1	main_slash	7	advance_on_keypress_SLASH	62	stimuli_target_squarediamonds.svg	stimuli_distractor_diamondtriangles.svg	8	yes	57	0	599
6.6.1	mac	2022-12-19	14:32:00	14:36:59	297469	6290ebb13a126c60c9cb7d11	147680701	1	main_slash	7	main_slash	63	stimuli_target_trianglecircles.svg	stimuli_distractor_trianglediamonds.svg	17	yes	53	1	867
6.6.1	mac	2022-12-19	14:32:00	14:36:59	297469	6290ebb13a126c60c9cb7d11	147680701	1	main_slash	7	advance_on_keypress_SLASH	64	stimuli_target_trianglecircles.svg	stimuli_distractor_trianglediamonds.svg	17	yes	57	0	714
6.6.1	mac	2022-12-19	14:32:00	14:37:01	299439	6290ebb13a126c60c9cb7d11	147680701	1	main_slash	7	main_slash	65	stimuli_distractor_diamondtriangles.svg	stimuli_target_trianglecircles.svg	29	yes	53	1	620
6.6.1	mac	2022-12-19	14:32:00	14:37:01	299439	6290ebb13a126c60c9cb7d11	147680701	1	main_slash	7	advance_on_keypress_SLASH	66	stimuli_distractor_diamondtriangles.svg	stimuli_target_trianglecircles.svg	29	yes	57	0	1163
6.6.1	mac	2022-12-19	14:32:00	14:37:03	302174	6290ebb13a126c60c9cb7d11	147680701	1	main_slash	7	main_slash	67	stimuli_distractor_diamondtriangles.svg	stimuli_target_circlediamonds.svg	14	yes	53	1	938
6.6.1	mac	2022-12-19	14:32:00	14:37:03	302174	6290ebb13a126c60c9cb7d11	147680701	1	main_slash	7	advance_on_keypress_SLASH	68	stimuli_distractor_diamondtriangles.svg	stimuli_target_circlediamonds.svg	14	yes	57	0	1014
6.6.1	mac	2022-12-19	14:32:00	14:37:06	304441	6290ebb13a126c60c9cb7d11	147680701	1	main_slash	7	main_slash	69	stimuli_distractor_trianglediamonds.svg	stimuli_target_diamondsquares.svg	28	yes	53	1	624
6.6.1	mac	2022-12-19	14:32:00	14:37:06	304441	6290ebb13a126c60c9cb7d11	147680701	1	main_slash	7	advance_on_keypress_SLASH	70	stimuli_distractor_trianglediamonds.svg	stimuli_target_diamondsquares.svg	28	yes	57	0	520
6.6.1	mac	2022-12-19	14:32:00	14:37:08	306256	6290ebb13a126c60c9cb7d11	147680701	1	main_slash	7	main_slash	71	stimuli_distractor_diamondtriangles.svg	stimuli_target_squaretriangles.svg	15	yes	53	1	670
6.6.1	mac	2022-12-19	14:32:00	14:37:08	306256	6290ebb13a126c60c9cb7d11	147680701	1	main_slash	7	advance_on_keypress_SLASH	72	stimuli_distractor_diamondtriangles.svg	stimuli_target_squaretriangles.svg	15	yes	57	0	930
6.6.1	mac	2022-12-19	14:32:00	14:37:11	309817	6290ebb13a126c60c9cb7d11	147680701	1	main_slash	7	main_slash	73	stimuli_distractor_trianglediamonds.svg	stimuli_distractor_trianglediamonds.svg	33	no	0	1	2000
6.6.1	mac	2022-12-19	14:32:00	14:37:11	309817	6290ebb13a126c60c9cb7d11	147680701	1	main_slash	7	advance_on_keypress_SLASH	74	stimuli_distractor_trianglediamonds.svg	stimuli_distractor_trianglediamonds.svg	33	no	57	0	461
6.6.1	mac	2022-12-19	14:32:00	14:37:13	311501	6290ebb13a126c60c9cb7d11	147680701	1	main_slash	7	main_slash	75	stimuli_distractor_trianglediamonds.svg	stimuli_target_trianglesquares.svg	26	yes	53	1	582
6.6.1	mac	2022-12-19	14:32:00	14:37:13	311501	6290ebb13a126c60c9cb7d11	147680701	1	main_slash	7	advance_on_keypress_SLASH	76	stimuli_distractor_trianglediamonds.svg	stimuli_target_trianglesquares.svg	26	yes	57	0	854
6.6.1	mac	2022-12-19	14:32:00	14:37:15	314195	6290ebb13a126c60c9cb7d11	147680701	1	main_slash	7	main_slash	77	stimuli_target_diamondcircles.svg	stimuli_distractor_trianglediamonds.svg	19	yes	53	1	1209
6.6.1	mac	2022-12-19	14:32:00	14:37:15	314195	6290ebb13a126c60c9cb7d11	147680701	1	main_slash	7	advance_on_keypress_SLASH	78	stimuli_target_diamondcircles.svg	stimuli_distractor_trianglediamonds.svg	19	yes	57	0	731
6.6.1	mac	2022-12-19	14:32:00	14:37:18	316530	6290ebb13a126c60c9cb7d11	147680701	1	main_slash	7	main_slash	79	stimuli_target_squaretriangles.svg	stimuli_distractor_diamondtriangles.svg	7	yes	53	1	977
6.6.1	mac	2022-12-19	14:32:00	14:37:18	316530	6290ebb13a126c60c9cb7d11	147680701	1	main_slash	7	advance_on_keypress_SLASH	80	stimuli_target_squaretriangles.svg	stimuli_distractor_diamondtriangles.svg	7	yes	57	0	836
6.6.1	mac	2022-12-19	14:32:00	14:37:21	320001	6290ebb13a126c60c9cb7d11	147680701	1	main_slash	7	main_slash	81	stimuli_distractor_diamondtriangles.svg	stimuli_target_diamondsquares.svg	32	yes	0	0	2000
6.6.1	mac	2022-12-19	14:32:00	14:37:21	320001	6290ebb13a126c60c9cb7d11	147680701	1	main_slash	7	advance_on_keypress_SLASH	82	stimuli_distractor_diamondtriangles.svg	stimuli_target_diamondsquares.svg	32	yes	57	0	550
6.6.1	mac	2022-12-19	14:32:00	14:37:23	321901	6290ebb13a126c60c9cb7d11	147680701	1	main_slash	7	main_slash	83	stimuli_target_squarediamonds.svg	stimuli_distractor_diamondtriangles.svg	8	yes	53	1	715
6.6.1	mac	2022-12-19	14:32:00	14:37:23	321901	6290ebb13a126c60c9cb7d11	147680701	1	main_slash	7	advance_on_keypress_SLASH	84	stimuli_target_squarediamonds.svg	stimuli_distractor_diamondtriangles.svg	8	yes	57	0	1074
6.6.1	mac	2022-12-19	14:32:00	14:37:27	325601	6290ebb13a126c60c9cb7d11	147680701	1	main_slash	7	main_slash	85	stimuli_distractor_diamondtriangles.svg	stimuli_distractor_diamondtriangles.svg	39	no	0	1	2000
6.6.1	mac	2022-12-19	14:32:00	14:37:27	325601	6290ebb13a126c60c9cb7d11	147680701	1	main_slash	7	advance_on_keypress_SLASH	86	stimuli_distractor_diamondtriangles.svg	stimuli_distractor_diamondtriangles.svg	39	no	57	0	325
6.6.1	mac	2022-12-19	14:32:00	14:37:28	327109	6290ebb13a126c60c9cb7d11	147680701	1	main_slash	7	main_slash	87	stimuli_target_trianglecircles.svg	stimuli_distractor_trianglediamonds.svg	17	yes	53	1	557
6.6.1	mac	2022-12-19	14:32:00	14:37:28	327109	6290ebb13a126c60c9cb7d11	147680701	1	main_slash	7	advance_on_keypress_SLASH	88	stimuli_target_trianglecircles.svg	stimuli_distractor_trianglediamonds.svg	17	yes	57	0	933
6.6.1	mac	2022-12-19	14:32:00	14:37:31	329430	6290ebb13a126c60c9cb7d11	147680701	1	main_slash	7	main_slash	89	stimuli_target_diamondsquares.svg	stimuli_distractor_diamondtriangles.svg	24	yes	53	1	744
6.6.1	mac	2022-12-19	14:32:00	14:37:31	329430	6290ebb13a126c60c9cb7d11	147680701	1	main_slash	7	advance_on_keypress_SLASH	90	stimuli_target_diamondsquares.svg	stimuli_distractor_diamondtriangles.svg	24	yes	57	0	543
6.6.1	mac	2022-12-19	14:32:00	14:37:33	331507	6290ebb13a126c60c9cb7d11	147680701	1	main_slash	7	main_slash	91	stimuli_target_squarediamonds.svg	stimuli_distractor_trianglediamonds.svg	4	yes	53	1	904
6.6.1	mac	2022-12-19	14:32:00	14:37:33	331507	6290ebb13a126c60c9cb7d11	147680701	1	main_slash	7	advance_on_keypress_SLASH	92	stimuli_target_squarediamonds.svg	stimuli_distractor_trianglediamonds.svg	4	yes	57	0	707
6.6.1	mac	2022-12-19	14:32:00	14:37:35	333626	6290ebb13a126c60c9cb7d11	147680701	1	main_slash	7	main_slash	93	stimuli_distractor_trianglediamonds.svg	stimuli_target_squarediamonds.svg	12	yes	53	1	791
6.6.1	mac	2022-12-19	14:32:00	14:37:35	333626	6290ebb13a126c60c9cb7d11	147680701	1	main_slash	7	advance_on_keypress_SLASH	94	stimuli_distractor_trianglediamonds.svg	stimuli_target_squarediamonds.svg	12	yes	57	0	604
6.6.1	mac	2022-12-19	14:32:00	14:37:37	335402	6290ebb13a126c60c9cb7d11	147680701	1	main_slash	7	main_slash	95	stimuli_target_diamondcircles.svg	stimuli_distractor_diamondtriangles.svg	23	yes	53	1	550
6.6.1	mac	2022-12-19	14:32:00	14:37:37	335402	6290ebb13a126c60c9cb7d11	147680701	1	main_slash	7	advance_on_keypress_SLASH	96	stimuli_target_diamondcircles.svg	stimuli_distractor_diamondtriangles.svg	23	yes	57	0	566
6.6.1	mac	2022-12-19	14:32:00	14:37:39	337318	6290ebb13a126c60c9cb7d11	147680701	1	main_slash	7	main_slash	97	stimuli_distractor_trianglediamonds.svg	stimuli_target_squaretriangles.svg	11	yes	53	1	716
6.6.1	mac	2022-12-19	14:32:00	14:37:39	337318	6290ebb13a126c60c9cb7d11	147680701	1	main_slash	7	advance_on_keypress_SLASH	98	stimuli_distractor_trianglediamonds.svg	stimuli_target_squaretriangles.svg	11	yes	57	0	541
6.6.1	mac	2022-12-19	14:32:00	14:37:42	340484	6290ebb13a126c60c9cb7d11	147680701	1	main_slash	7	main_slash	99	stimuli_distractor_trianglediamonds.svg	stimuli_distractor_trianglediamonds.svg	34	no	0	1	2000
6.6.1	mac	2022-12-19	14:32:00	14:37:42	340484	6290ebb13a126c60c9cb7d11	147680701	1	main_slash	7	advance_on_keypress_SLASH	100	stimuli_distractor_trianglediamonds.svg	stimuli_distractor_trianglediamonds.svg	34	no	57	0	429
6.6.1	mac	2022-12-19	14:32:00	14:37:43	342084	6290ebb13a126c60c9cb7d11	147680701	1	main_slash	7	main_slash	101	stimuli_distractor_diamondtriangles.svg	stimuli_target_squaretriangles.svg	15	yes	53	1	532
6.6.1	mac	2022-12-19	14:32:00	14:37:43	342084	6290ebb13a126c60c9cb7d11	147680701	1	main_slash	7	advance_on_keypress_SLASH	102	stimuli_distractor_diamondtriangles.svg	stimuli_target_squaretriangles.svg	15	yes	57	0	652
6.6.1	mac	2022-12-19	14:32:00	14:37:45	344177	6290ebb13a126c60c9cb7d11	147680701	1	main_slash	7	main_slash	103	stimuli_distractor_trianglediamonds.svg	stimuli_target_circlediamonds.svg	10	yes	53	1	808
6.6.1	mac	2022-12-19	14:32:00	14:37:45	344177	6290ebb13a126c60c9cb7d11	147680701	1	main_slash	7	advance_on_keypress_SLASH	104	stimuli_distractor_trianglediamonds.svg	stimuli_target_circlediamonds.svg	10	yes	57	0	557
6.6.1	mac	2022-12-19	14:32:00	14:37:47	346089	6290ebb13a126c60c9cb7d11	147680701	1	main_slash	7	main_slash	105	stimuli_target_squaretriangles.svg	stimuli_distractor_diamondtriangles.svg	7	yes	53	1	736
6.6.1	mac	2022-12-19	14:32:00	14:37:47	346089	6290ebb13a126c60c9cb7d11	147680701	1	main_slash	7	advance_on_keypress_SLASH	106	stimuli_target_squaretriangles.svg	stimuli_distractor_diamondtriangles.svg	7	yes	57	0	601
6.6.1	mac	2022-12-19	14:32:00	14:37:49	347900	6290ebb13a126c60c9cb7d11	147680701	1	main_slash	7	main_slash	107	stimuli_target_squaretriangles.svg	stimuli_distractor_trianglediamonds.svg	3	yes	53	1	581
6.6.1	mac	2022-12-19	14:32:00	14:37:49	347900	6290ebb13a126c60c9cb7d11	147680701	1	main_slash	7	advance_on_keypress_SLASH	108	stimuli_target_squaretriangles.svg	stimuli_distractor_trianglediamonds.svg	3	yes	57	0	535
6.6.1	mac	2022-12-19	14:32:00	14:37:51	349647	6290ebb13a126c60c9cb7d11	147680701	1	main_slash	7	main_slash	109	stimuli_distractor_trianglediamonds.svg	stimuli_target_circletriangles.svg	9	yes	53	1	578
6.6.1	mac	2022-12-19	14:32:00	14:37:51	349647	6290ebb13a126c60c9cb7d11	147680701	1	main_slash	7	advance_on_keypress_SLASH	110	stimuli_distractor_trianglediamonds.svg	stimuli_target_circletriangles.svg	9	yes	57	0	561
6.6.1	mac	2022-12-19	14:32:00	14:37:53	351458	6290ebb13a126c60c9cb7d11	147680701	1	main_slash	7	main_slash	111	stimuli_distractor_diamondtriangles.svg	stimuli_target_trianglesquares.svg	30	yes	53	1	606
6.6.1	mac	2022-12-19	14:32:00	14:37:53	351458	6290ebb13a126c60c9cb7d11	147680701	1	main_slash	7	advance_on_keypress_SLASH	112	stimuli_distractor_diamondtriangles.svg	stimuli_target_trianglesquares.svg	30	yes	57	0	560
6.6.1	mac	2022-12-19	14:32:00	14:37:56	354634	6290ebb13a126c60c9cb7d11	147680701	1	main_slash	7	main_slash	113	stimuli_distractor_trianglediamonds.svg	stimuli_target_diamondcircles.svg	27	yes	0	0	2000
6.6.1	mac	2022-12-19	14:32:00	14:37:56	354634	6290ebb13a126c60c9cb7d11	147680701	1	main_slash	7	advance_on_keypress_SLASH	114	stimuli_distractor_trianglediamonds.svg	stimuli_target_diamondcircles.svg	27	yes	57	0	1987
6.6.1	mac	2022-12-19	14:32:00	14:37:59	357831	6290ebb13a126c60c9cb7d11	147680701	1	main_slash	7	main_slash	115	stimuli_distractor_diamondtriangles.svg	stimuli_distractor_trianglediamonds.svg	38	no	53	0	579
6.6.1	mac	2022-12-19	14:32:00	14:37:59	357831	6290ebb13a126c60c9cb7d11	147680701	1	main_slash	7	advance_on_keypress_SLASH	116	stimuli_distractor_diamondtriangles.svg	stimuli_distractor_trianglediamonds.svg	38	no	57	0	456
6.6.1	mac	2022-12-19	14:32:00	14:38:01	359393	6290ebb13a126c60c9cb7d11	147680701	1	main_slash	7	main_slash	117	stimuli_target_circletriangles.svg	stimuli_distractor_diamondtriangles.svg	5	yes	53	1	474
6.6.1	mac	2022-12-19	14:32:00	14:38:01	359393	6290ebb13a126c60c9cb7d11	147680701	1	main_slash	7	advance_on_keypress_SLASH	118	stimuli_target_circletriangles.svg	stimuli_distractor_diamondtriangles.svg	5	yes	57	0	580
6.6.1	mac	2022-12-19	14:32:00	14:38:04	362601	6290ebb13a126c60c9cb7d11	147680701	1	main_slash	7	main_slash	119	stimuli_distractor_diamondtriangles.svg	stimuli_distractor_diamondtriangles.svg	40	no	0	1	2000
6.6.1	mac	2022-12-19	14:32:00	14:38:04	362601	6290ebb13a126c60c9cb7d11	147680701	1	main_slash	7	advance_on_keypress_SLASH	120	stimuli_distractor_diamondtriangles.svg	stimuli_distractor_diamondtriangles.svg	40	no	57	0	513
6.6.1	mac	2022-12-19	14:32:00	14:38:06	364368	6290ebb13a126c60c9cb7d11	147680701	1	main_slash	7	main_slash	121	stimuli_target_diamondcircles.svg	stimuli_distractor_trianglediamonds.svg	19	yes	53	1	615
6.6.1	mac	2022-12-19	14:32:00	14:38:06	364368	6290ebb13a126c60c9cb7d11	147680701	1	main_slash	7	advance_on_keypress_SLASH	122	stimuli_target_diamondcircles.svg	stimuli_distractor_trianglediamonds.svg	19	yes	57	0	537
6.6.1	mac	2022-12-19	14:32:00	14:38:09	367534	6290ebb13a126c60c9cb7d11	147680701	1	main_slash	7	main_slash	123	stimuli_distractor_diamondtriangles.svg	stimuli_target_diamondcircles.svg	31	yes	0	0	2000
6.6.1	mac	2022-12-19	14:32:00	14:38:09	367534	6290ebb13a126c60c9cb7d11	147680701	1	main_slash	7	advance_on_keypress_SLASH	124	stimuli_distractor_diamondtriangles.svg	stimuli_target_diamondcircles.svg	31	yes	57	0	336
6.6.1	mac	2022-12-19	14:32:00	14:38:10	369068	6290ebb13a126c60c9cb7d11	147680701	1	main_slash	7	main_slash	125	stimuli_distractor_trianglediamonds.svg	stimuli_distractor_diamondtriangles.svg	36	no	53	0	566
6.6.1	mac	2022-12-19	14:32:00	14:38:10	369068	6290ebb13a126c60c9cb7d11	147680701	1	main_slash	7	advance_on_keypress_SLASH	126	stimuli_distractor_trianglediamonds.svg	stimuli_distractor_diamondtriangles.svg	36	no	57	0	498
6.6.1	mac	2022-12-19	14:32:00	14:38:13	372202	6290ebb13a126c60c9cb7d11	147680701	1	main_slash	7	main_slash	127	stimuli_distractor_trianglediamonds.svg	stimuli_distractor_trianglediamonds.svg	33	no	0	1	2000
6.6.1	mac	2022-12-19	14:32:00	14:38:13	372202	6290ebb13a126c60c9cb7d11	147680701	1	main_slash	7	advance_on_keypress_SLASH	128	stimuli_distractor_trianglediamonds.svg	stimuli_distractor_trianglediamonds.svg	33	no	57	0	506
6.6.1	mac	2022-12-19	14:32:00	14:38:15	373967	6290ebb13a126c60c9cb7d11	147680701	1	main_slash	7	main_slash	129	stimuli_distractor_trianglediamonds.svg	stimuli_target_diamondsquares.svg	28	yes	53	1	632
6.6.1	mac	2022-12-19	14:32:00	14:38:15	373967	6290ebb13a126c60c9cb7d11	147680701	1	main_slash	7	advance_on_keypress_SLASH	130	stimuli_distractor_trianglediamonds.svg	stimuli_target_diamondsquares.svg	28	yes	57	0	520
6.6.1	mac	2022-12-19	14:32:00	14:38:17	375660	6290ebb13a126c60c9cb7d11	147680701	1	main_slash	7	main_slash	131	stimuli_distractor_diamondtriangles.svg	stimuli_target_circlediamonds.svg	14	yes	53	1	541
6.6.1	mac	2022-12-19	14:32:00	14:38:17	375660	6290ebb13a126c60c9cb7d11	147680701	1	main_slash	7	advance_on_keypress_SLASH	132	stimuli_distractor_diamondtriangles.svg	stimuli_target_circlediamonds.svg	14	yes	57	0	573
6.6.1	mac	2022-12-19	14:32:00	14:38:19	377315	6290ebb13a126c60c9cb7d11	147680701	1	main_slash	7	main_slash	133	stimuli_target_trianglecircles.svg	stimuli_distractor_diamondtriangles.svg	21	yes	53	1	445
6.6.1	mac	2022-12-19	14:32:00	14:38:19	377315	6290ebb13a126c60c9cb7d11	147680701	1	main_slash	7	advance_on_keypress_SLASH	134	stimuli_target_trianglecircles.svg	stimuli_distractor_diamondtriangles.svg	21	yes	57	0	487
6.6.1	mac	2022-12-19	14:32:00	14:38:20	378832	6290ebb13a126c60c9cb7d11	147680701	1	main_slash	7	main_slash	135	stimuli_distractor_trianglediamonds.svg	stimuli_target_trianglesquares.svg	26	yes	53	1	395
6.6.1	mac	2022-12-19	14:32:00	14:38:20	378832	6290ebb13a126c60c9cb7d11	147680701	1	main_slash	7	advance_on_keypress_SLASH	136	stimuli_distractor_trianglediamonds.svg	stimuli_target_trianglesquares.svg	26	yes	57	0	542
6.6.1	mac	2022-12-19	14:32:00	14:38:22	380550	6290ebb13a126c60c9cb7d11	147680701	1	main_slash	7	main_slash	137	stimuli_target_circletriangles.svg	stimuli_distractor_trianglediamonds.svg	1	yes	53	1	547
6.6.1	mac	2022-12-19	14:32:00	14:38:22	380550	6290ebb13a126c60c9cb7d11	147680701	1	main_slash	7	advance_on_keypress_SLASH	138	stimuli_target_circletriangles.svg	stimuli_distractor_trianglediamonds.svg	1	yes	57	0	644
6.6.1	mac	2022-12-19	14:32:00	14:38:24	383078	6290ebb13a126c60c9cb7d11	147680701	1	main_slash	7	main_slash	139	stimuli_target_diamondsquares.svg	stimuli_distractor_trianglediamonds.svg	20	yes	53	1	1242
6.6.1	mac	2022-12-19	14:32:00	14:38:24	383078	6290ebb13a126c60c9cb7d11	147680701	1	main_slash	7	advance_on_keypress_SLASH	140	stimuli_target_diamondsquares.svg	stimuli_distractor_trianglediamonds.svg	20	yes	57	0	492
6.6.1	mac	2022-12-19	14:32:00	14:38:26	384861	6290ebb13a126c60c9cb7d11	147680701	1	main_slash	7	main_slash	141	stimuli_distractor_diamondtriangles.svg	stimuli_target_trianglecircles.svg	29	yes	53	1	676
6.6.1	mac	2022-12-19	14:32:00	14:38:26	384861	6290ebb13a126c60c9cb7d11	147680701	1	main_slash	7	advance_on_keypress_SLASH	142	stimuli_distractor_diamondtriangles.svg	stimuli_target_trianglecircles.svg	29	yes	57	0	522
6.6.1	mac	2022-12-19	14:32:00	14:38:28	387071	6290ebb13a126c60c9cb7d11	147680701	1	main_slash	7	main_slash	143	stimuli_target_trianglesquares.svg	stimuli_distractor_diamondtriangles.svg	22	yes	53	1	1068
6.6.1	mac	2022-12-19	14:32:00	14:38:28	387071	6290ebb13a126c60c9cb7d11	147680701	1	main_slash	7	advance_on_keypress_SLASH	144	stimuli_target_trianglesquares.svg	stimuli_distractor_diamondtriangles.svg	22	yes	57	0	1313
6.6.1	mac	2022-12-19	14:32:00	14:38:32	391017	6290ebb13a126c60c9cb7d11	147680701	1	main_slash	7	main_slash	145	stimuli_distractor_diamondtriangles.svg	stimuli_distractor_trianglediamonds.svg	37	no	0	1	2000
6.6.1	mac	2022-12-19	14:32:00	14:38:32	391017	6290ebb13a126c60c9cb7d11	147680701	1	main_slash	7	advance_on_keypress_SLASH	146	stimuli_distractor_diamondtriangles.svg	stimuli_distractor_trianglediamonds.svg	37	no	57	0	314
6.6.1	mac	2022-12-19	14:32:00	14:38:34	392618	6290ebb13a126c60c9cb7d11	147680701	1	main_slash	7	main_slash	147	stimuli_distractor_diamondtriangles.svg	stimuli_target_squarediamonds.svg	16	yes	53	1	648
6.6.1	mac	2022-12-19	14:32:00	14:38:34	392618	6290ebb13a126c60c9cb7d11	147680701	1	main_slash	7	advance_on_keypress_SLASH	148	stimuli_distractor_diamondtriangles.svg	stimuli_target_squarediamonds.svg	16	yes	57	0	522
6.6.1	mac	2022-12-19	14:32:00	14:38:37	395768	6290ebb13a126c60c9cb7d11	147680701	1	main_slash	7	main_slash	149	stimuli_distractor_trianglediamonds.svg	stimuli_distractor_diamondtriangles.svg	35	no	0	1	2000
6.6.1	mac	2022-12-19	14:32:00	14:38:37	395768	6290ebb13a126c60c9cb7d11	147680701	1	main_slash	7	advance_on_keypress_SLASH	150	stimuli_distractor_trianglediamonds.svg	stimuli_distractor_diamondtriangles.svg	35	no	57	0	441
6.6.1	mac	2022-12-19	14:32:00	14:38:39	397544	6290ebb13a126c60c9cb7d11	147680701	1	main_slash	7	main_slash	151	stimuli_target_trianglesquares.svg	stimuli_distractor_trianglediamonds.svg	18	yes	53	1	708
6.6.1	mac	2022-12-19	14:32:00	14:38:39	397544	6290ebb13a126c60c9cb7d11	147680701	1	main_slash	7	advance_on_keypress_SLASH	152	stimuli_target_trianglesquares.svg	stimuli_distractor_trianglediamonds.svg	18	yes	57	0	506
6.6.1	mac	2022-12-19	14:32:00	14:38:40	399133	6290ebb13a126c60c9cb7d11	147680701	1	main_slash	7	main_slash	153	stimuli_target_circlediamonds.svg	stimuli_distractor_trianglediamonds.svg	2	yes	53	1	465
6.6.1	mac	2022-12-19	14:32:00	14:38:40	399133	6290ebb13a126c60c9cb7d11	147680701	1	main_slash	7	advance_on_keypress_SLASH	154	stimuli_target_circlediamonds.svg	stimuli_distractor_trianglediamonds.svg	2	yes	57	0	565
6.6.1	mac	2022-12-19	14:32:00	14:38:42	401071	6290ebb13a126c60c9cb7d11	147680701	1	main_slash	7	main_slash	155	stimuli_distractor_diamondtriangles.svg	stimuli_target_circletriangles.svg	13	yes	53	1	735
6.6.1	mac	2022-12-19	14:32:00	14:38:42	401071	6290ebb13a126c60c9cb7d11	147680701	1	main_slash	7	advance_on_keypress_SLASH	156	stimuli_distractor_diamondtriangles.svg	stimuli_target_circletriangles.svg	13	yes	57	0	521
6.6.1	mac	2022-12-19	14:32:00	14:38:44	402767	6290ebb13a126c60c9cb7d11	147680701	1	main_slash	7	main_slash	157	stimuli_target_circlediamonds.svg	stimuli_distractor_diamondtriangles.svg	6	yes	53	1	547
6.6.1	mac	2022-12-19	14:32:00	14:38:44	402767	6290ebb13a126c60c9cb7d11	147680701	1	main_slash	7	advance_on_keypress_SLASH	158	stimuli_target_circlediamonds.svg	stimuli_distractor_diamondtriangles.svg	6	yes	57	0	580
6.6.1	mac	2022-12-19	14:32:00	14:38:46	404570	6290ebb13a126c60c9cb7d11	147680701	1	main_slash	7	main_slash	159	stimuli_distractor_trianglediamonds.svg	stimuli_target_trianglecircles.svg	25	yes	53	1	585
6.6.1	mac	2022-12-19	14:32:00	14:38:46	404570	6290ebb13a126c60c9cb7d11	147680701	1	main_slash	7	advance_on_keypress_SLASH	160	stimuli_distractor_trianglediamonds.svg	stimuli_target_trianglecircles.svg	25	yes	57	0	530
6.6.1	mac	2022-12-19	14:32:00	14:42:36	635229	6290ebb13a126c60c9cb7d11	147680701	1	practice_z	9	practice_z	1	stimuli_distractor_diamondtriangles.svg	stimuli_distractor_trianglediamonds.svg	14	no	44	0	258
6.6.1	mac	2022-12-19	14:32:00	14:42:36	635229	6290ebb13a126c60c9cb7d11	147680701	1	practice_z	9	advance_on_keypress_ZEE	2	stimuli_distractor_diamondtriangles.svg	stimuli_distractor_trianglediamonds.svg	14	no	57	0	686
6.6.1	mac	2022-12-19	14:32:00	14:42:39	637918	6290ebb13a126c60c9cb7d11	147680701	1	practice_z	9	practice_z	3	stimuli_distractor_trianglediamonds.svg	stimuli_target_squarediamonds.svg	11	yes	44	1	366
6.6.1	mac	2022-12-19	14:32:00	14:42:39	637918	6290ebb13a126c60c9cb7d11	147680701	1	practice_z	9	advance_on_keypress_ZEE	4	stimuli_distractor_trianglediamonds.svg	stimuli_target_squarediamonds.svg	11	yes	57	0	401
6.6.1	mac	2022-12-19	14:32:00	14:42:43	641951	6290ebb13a126c60c9cb7d11	147680701	1	practice_z	9	practice_z	5	stimuli_distractor_trianglediamonds.svg	stimuli_target_diamondcircles.svg	12	yes	0	0	2000
6.6.1	mac	2022-12-19	14:32:00	14:42:43	641951	6290ebb13a126c60c9cb7d11	147680701	1	practice_z	9	advance_on_keypress_ZEE	6	stimuli_distractor_trianglediamonds.svg	stimuli_target_diamondcircles.svg	12	yes	57	0	506
6.6.1	mac	2022-12-19	14:32:00	14:42:46	644470	6290ebb13a126c60c9cb7d11	147680701	1	practice_z	9	practice_z	7	stimuli_target_diamondsquares.svg	stimuli_distractor_trianglediamonds.svg	6	yes	44	1	386
6.6.1	mac	2022-12-19	14:32:00	14:42:46	644470	6290ebb13a126c60c9cb7d11	147680701	1	practice_z	9	advance_on_keypress_ZEE	8	stimuli_target_diamondsquares.svg	stimuli_distractor_trianglediamonds.svg	6	yes	57	0	567
6.6.1	mac	2022-12-19	14:32:00	14:42:48	647154	6290ebb13a126c60c9cb7d11	147680701	1	practice_z	9	practice_z	9	stimuli_distractor_trianglediamonds.svg	stimuli_target_circlediamonds.svg	10	yes	44	1	484
6.6.1	mac	2022-12-19	14:32:00	14:42:48	647154	6290ebb13a126c60c9cb7d11	147680701	1	practice_z	9	advance_on_keypress_ZEE	10	stimuli_distractor_trianglediamonds.svg	stimuli_target_circlediamonds.svg	10	yes	57	0	447
6.6.1	mac	2022-12-19	14:32:00	14:42:51	649845	6290ebb13a126c60c9cb7d11	147680701	1	practice_z	9	practice_z	11	stimuli_distractor_diamondtriangles.svg	stimuli_distractor_diamondtriangles.svg	13	no	44	0	609
6.6.1	mac	2022-12-19	14:32:00	14:42:51	649845	6290ebb13a126c60c9cb7d11	147680701	1	practice_z	9	advance_on_keypress_ZEE	12	stimuli_distractor_diamondtriangles.svg	stimuli_distractor_diamondtriangles.svg	13	no	57	0	530
6.6.1	mac	2022-12-19	14:32:00	14:42:54	652470	6290ebb13a126c60c9cb7d11	147680701	1	practice_z	9	practice_z	13	stimuli_target_squarediamonds.svg	stimuli_distractor_trianglediamonds.svg	5	yes	44	1	468
6.6.1	mac	2022-12-19	14:32:00	14:42:54	652470	6290ebb13a126c60c9cb7d11	147680701	1	practice_z	9	advance_on_keypress_ZEE	14	stimuli_target_squarediamonds.svg	stimuli_distractor_trianglediamonds.svg	5	yes	57	0	14015
6.6.1	mac	2022-12-19	14:32:00	14:43:10	668460	6290ebb13a126c60c9cb7d11	147680701	1	practice_z	9	practice_z	15	stimuli_distractor_diamondtriangles.svg	stimuli_target_trianglecircles.svg	9	yes	44	1	340
6.6.1	mac	2022-12-19	14:32:00	14:43:10	668460	6290ebb13a126c60c9cb7d11	147680701	1	practice_z	9	advance_on_keypress_ZEE	16	stimuli_distractor_diamondtriangles.svg	stimuli_target_trianglecircles.svg	9	yes	57	0	366
6.6.1	mac	2022-12-19	14:32:00	14:43:12	670943	6290ebb13a126c60c9cb7d11	147680701	1	practice_z	9	practice_z	17	stimuli_target_diamondsquares.svg	stimuli_distractor_diamondtriangles.svg	3	yes	44	1	490
6.6.1	mac	2022-12-19	14:32:00	14:43:12	670943	6290ebb13a126c60c9cb7d11	147680701	1	practice_z	9	advance_on_keypress_ZEE	18	stimuli_target_diamondsquares.svg	stimuli_distractor_diamondtriangles.svg	3	yes	57	0	383
6.6.1	mac	2022-12-19	14:32:00	14:43:15	673486	6290ebb13a126c60c9cb7d11	147680701	1	practice_z	9	practice_z	19	stimuli_target_circlediamonds.svg	stimuli_distractor_diamondtriangles.svg	1	yes	44	1	533
6.6.1	mac	2022-12-19	14:32:00	14:43:15	673486	6290ebb13a126c60c9cb7d11	147680701	1	practice_z	9	advance_on_keypress_ZEE	20	stimuli_target_circlediamonds.svg	stimuli_distractor_diamondtriangles.svg	1	yes	57	0	519
6.6.1	mac	2022-12-19	14:32:00	14:43:17	675919	6290ebb13a126c60c9cb7d11	147680701	1	practice_z	9	practice_z	21	stimuli_distractor_trianglediamonds.svg	stimuli_distractor_trianglediamonds.svg	15	no	44	0	283
6.6.1	mac	2022-12-19	14:32:00	14:43:17	675919	6290ebb13a126c60c9cb7d11	147680701	1	practice_z	9	advance_on_keypress_ZEE	22	stimuli_distractor_trianglediamonds.svg	stimuli_distractor_trianglediamonds.svg	15	no	57	0	392
6.6.1	mac	2022-12-19	14:32:00	14:43:20	678316	6290ebb13a126c60c9cb7d11	147680701	1	practice_z	9	practice_z	23	stimuli_target_circlediamonds.svg	stimuli_distractor_trianglediamonds.svg	4	yes	44	1	381
6.6.1	mac	2022-12-19	14:32:00	14:43:20	678316	6290ebb13a126c60c9cb7d11	147680701	1	practice_z	9	advance_on_keypress_ZEE	24	stimuli_target_circlediamonds.svg	stimuli_distractor_trianglediamonds.svg	4	yes	57	0	300
6.6.1	mac	2022-12-19	14:32:00	14:43:22	680646	6290ebb13a126c60c9cb7d11	147680701	1	practice_z	9	practice_z	25	stimuli_distractor_diamondtriangles.svg	stimuli_target_diamondcircles.svg	8	yes	44	1	394
6.6.1	mac	2022-12-19	14:32:00	14:43:22	680646	6290ebb13a126c60c9cb7d11	147680701	1	practice_z	9	advance_on_keypress_ZEE	26	stimuli_distractor_diamondtriangles.svg	stimuli_target_diamondcircles.svg	8	yes	57	0	272
6.6.1	mac	2022-12-19	14:32:00	14:43:24	683079	6290ebb13a126c60c9cb7d11	147680701	1	practice_z	9	practice_z	27	stimuli_target_squarediamonds.svg	stimuli_distractor_diamondtriangles.svg	2	yes	44	1	527
6.6.1	mac	2022-12-19	14:32:00	14:43:24	683079	6290ebb13a126c60c9cb7d11	147680701	1	practice_z	9	advance_on_keypress_ZEE	28	stimuli_target_squarediamonds.svg	stimuli_distractor_diamondtriangles.svg	2	yes	57	0	333
6.6.1	mac	2022-12-19	14:32:00	14:43:28	687052	6290ebb13a126c60c9cb7d11	147680701	1	practice_z	9	practice_z	29	stimuli_distractor_trianglediamonds.svg	stimuli_distractor_diamondtriangles.svg	16	no	0	1	2000
6.6.1	mac	2022-12-19	14:32:00	14:43:28	687052	6290ebb13a126c60c9cb7d11	147680701	1	practice_z	9	advance_on_keypress_ZEE	30	stimuli_distractor_trianglediamonds.svg	stimuli_distractor_diamondtriangles.svg	16	no	57	0	590
6.6.1	mac	2022-12-19	14:32:00	14:43:31	689726	6290ebb13a126c60c9cb7d11	147680701	1	practice_z	9	practice_z	31	stimuli_distractor_diamondtriangles.svg	stimuli_target_circletriangles.svg	7	yes	44	1	457
6.6.1	mac	2022-12-19	14:32:00	14:43:31	689726	6290ebb13a126c60c9cb7d11	147680701	1	practice_z	9	advance_on_keypress_ZEE	32	stimuli_distractor_diamondtriangles.svg	stimuli_target_circletriangles.svg	7	yes	57	0	444
6.6.1	mac	2022-12-19	14:32:00	14:43:39	697421	6290ebb13a126c60c9cb7d11	147680701	1	main_z	11	main_z	1	stimuli_distractor_diamondtriangles.svg	stimuli_distractor_diamondtriangles.svg	39	no	44	0	335
6.6.1	mac	2022-12-19	14:32:00	14:43:39	697421	6290ebb13a126c60c9cb7d11	147680701	1	main_z	11	advance_on_keypress_ZEE	2	stimuli_distractor_diamondtriangles.svg	stimuli_distractor_diamondtriangles.svg	39	no	57	0	954
6.6.1	mac	2022-12-19	14:32:00	14:43:41	699359	6290ebb13a126c60c9cb7d11	147680701	1	main_z	11	main_z	3	stimuli_target_trianglesquares.svg	stimuli_distractor_trianglediamonds.svg	18	yes	44	1	357
6.6.1	mac	2022-12-19	14:32:00	14:43:41	699359	6290ebb13a126c60c9cb7d11	147680701	1	main_z	11	advance_on_keypress_ZEE	4	stimuli_target_trianglesquares.svg	stimuli_distractor_trianglediamonds.svg	18	yes	57	0	1513
6.6.1	mac	2022-12-19	14:32:00	14:43:43	701859	6290ebb13a126c60c9cb7d11	147680701	1	main_z	11	main_z	5	stimuli_target_diamondsquares.svg	stimuli_distractor_trianglediamonds.svg	20	yes	44	1	357
6.6.1	mac	2022-12-19	14:32:00	14:43:43	701859	6290ebb13a126c60c9cb7d11	147680701	1	main_z	11	advance_on_keypress_ZEE	6	stimuli_target_diamondsquares.svg	stimuli_distractor_trianglediamonds.svg	20	yes	57	0	807
6.6.1	mac	2022-12-19	14:32:00	14:43:45	703852	6290ebb13a126c60c9cb7d11	147680701	1	main_z	11	main_z	7	stimuli_target_diamondsquares.svg	stimuli_distractor_diamondtriangles.svg	24	yes	44	1	567
6.6.1	mac	2022-12-19	14:32:00	14:43:45	703852	6290ebb13a126c60c9cb7d11	147680701	1	main_z	11	advance_on_keypress_ZEE	8	stimuli_target_diamondsquares.svg	stimuli_distractor_diamondtriangles.svg	24	yes	57	0	454
6.6.1	mac	2022-12-19	14:32:00	14:43:47	705309	6290ebb13a126c60c9cb7d11	147680701	1	main_z	11	main_z	9	stimuli_distractor_diamondtriangles.svg	stimuli_target_circletriangles.svg	13	yes	44	1	374
6.6.1	mac	2022-12-19	14:32:00	14:43:47	705309	6290ebb13a126c60c9cb7d11	147680701	1	main_z	11	advance_on_keypress_ZEE	10	stimuli_distractor_diamondtriangles.svg	stimuli_target_circletriangles.svg	13	yes	57	0	592
6.6.1	mac	2022-12-19	14:32:00	14:43:49	707256	6290ebb13a126c60c9cb7d11	147680701	1	main_z	11	main_z	11	stimuli_distractor_diamondtriangles.svg	stimuli_target_squarediamonds.svg	16	yes	44	1	737
6.6.1	mac	2022-12-19	14:32:00	14:43:49	707256	6290ebb13a126c60c9cb7d11	147680701	1	main_z	11	advance_on_keypress_ZEE	12	stimuli_distractor_diamondtriangles.svg	stimuli_target_squarediamonds.svg	16	yes	57	0	800
6.6.1	mac	2022-12-19	14:32:00	14:43:50	709103	6290ebb13a126c60c9cb7d11	147680701	1	main_z	11	main_z	13	stimuli_distractor_trianglediamonds.svg	stimuli_target_circlediamonds.svg	10	yes	44	1	419
6.6.1	mac	2022-12-19	14:32:00	14:43:50	709103	6290ebb13a126c60c9cb7d11	147680701	1	main_z	11	advance_on_keypress_ZEE	14	stimuli_distractor_trianglediamonds.svg	stimuli_target_circlediamonds.svg	10	yes	57	0	648
6.6.1	mac	2022-12-19	14:32:00	14:43:52	710902	6290ebb13a126c60c9cb7d11	147680701	1	main_z	11	main_z	15	stimuli_target_squaretriangles.svg	stimuli_distractor_trianglediamonds.svg	3	yes	44	1	517
6.6.1	mac	2022-12-19	14:32:00	14:43:52	710902	6290ebb13a126c60c9cb7d11	147680701	1	main_z	11	advance_on_keypress_ZEE	16	stimuli_target_squaretriangles.svg	stimuli_distractor_trianglediamonds.svg	3	yes	57	0	504
6.6.1	mac	2022-12-19	14:32:00	14:43:54	712567	6290ebb13a126c60c9cb7d11	147680701	1	main_z	11	main_z	17	stimuli_distractor_trianglediamonds.svg	stimuli_target_circletriangles.svg	9	yes	44	1	532
6.6.1	mac	2022-12-19	14:32:00	14:43:54	712567	6290ebb13a126c60c9cb7d11	147680701	1	main_z	11	advance_on_keypress_ZEE	18	stimuli_distractor_trianglediamonds.svg	stimuli_target_circletriangles.svg	9	yes	57	0	661
6.6.1	mac	2022-12-19	14:32:00	14:43:57	715868	6290ebb13a126c60c9cb7d11	147680701	1	main_z	11	main_z	19	stimuli_distractor_diamondtriangles.svg	stimuli_distractor_trianglediamonds.svg	38	no	0	1	2000
6.6.1	mac	2022-12-19	14:32:00	14:43:57	715868	6290ebb13a126c60c9cb7d11	147680701	1	main_z	11	advance_on_keypress_ZEE	20	stimuli_distractor_diamondtriangles.svg	stimuli_distractor_trianglediamonds.svg	38	no	57	0	2206
6.6.1	mac	2022-12-19	14:32:00	14:44:00	719093	6290ebb13a126c60c9cb7d11	147680701	1	main_z	11	main_z	21	stimuli_target_squaretriangles.svg	stimuli_distractor_diamondtriangles.svg	7	yes	44	1	391
6.6.1	mac	2022-12-19	14:32:00	14:44:00	719093	6290ebb13a126c60c9cb7d11	147680701	1	main_z	11	advance_on_keypress_ZEE	22	stimuli_target_squaretriangles.svg	stimuli_distractor_diamondtriangles.svg	7	yes	57	0	1134
6.6.1	mac	2022-12-19	14:32:00	14:44:02	721195	6290ebb13a126c60c9cb7d11	147680701	1	main_z	11	main_z	23	stimuli_distractor_diamondtriangles.svg	stimuli_target_diamondcircles.svg	31	yes	44	1	342
6.6.1	mac	2022-12-19	14:32:00	14:44:02	721195	6290ebb13a126c60c9cb7d11	147680701	1	main_z	11	advance_on_keypress_ZEE	24	stimuli_distractor_diamondtriangles.svg	stimuli_target_diamondcircles.svg	31	yes	57	0	603
6.6.1	mac	2022-12-19	14:32:00	14:44:06	724417	6290ebb13a126c60c9cb7d11	147680701	1	main_z	11	main_z	25	stimuli_distractor_diamondtriangles.svg	stimuli_target_trianglecircles.svg	29	yes	0	0	2000
6.6.1	mac	2022-12-19	14:32:00	14:44:06	724417	6290ebb13a126c60c9cb7d11	147680701	1	main_z	11	advance_on_keypress_ZEE	26	stimuli_distractor_diamondtriangles.svg	stimuli_target_trianglecircles.svg	29	yes	57	0	332
6.6.1	mac	2022-12-19	14:32:00	14:44:07	725810	6290ebb13a126c60c9cb7d11	147680701	1	main_z	11	main_z	27	stimuli_target_diamondcircles.svg	stimuli_distractor_diamondtriangles.svg	23	yes	44	1	424
6.6.1	mac	2022-12-19	14:32:00	14:44:07	725810	6290ebb13a126c60c9cb7d11	147680701	1	main_z	11	advance_on_keypress_ZEE	28	stimuli_target_diamondcircles.svg	stimuli_distractor_diamondtriangles.svg	23	yes	57	0	654
6.6.1	mac	2022-12-19	14:32:00	14:44:09	727556	6290ebb13a126c60c9cb7d11	147680701	1	main_z	11	main_z	29	stimuli_distractor_diamondtriangles.svg	stimuli_target_squaretriangles.svg	15	yes	44	1	471
6.6.1	mac	2022-12-19	14:32:00	14:44:09	727556	6290ebb13a126c60c9cb7d11	147680701	1	main_z	11	advance_on_keypress_ZEE	30	stimuli_distractor_diamondtriangles.svg	stimuli_target_squaretriangles.svg	15	yes	57	0	582
6.6.1	mac	2022-12-19	14:32:00	14:44:11	729247	6290ebb13a126c60c9cb7d11	147680701	1	main_z	11	main_z	31	stimuli_distractor_trianglediamonds.svg	stimuli_distractor_trianglediamonds.svg	33	no	44	0	478
6.6.1	mac	2022-12-19	14:32:00	14:44:11	729247	6290ebb13a126c60c9cb7d11	147680701	1	main_z	11	advance_on_keypress_ZEE	32	stimuli_distractor_trianglediamonds.svg	stimuli_distractor_trianglediamonds.svg	33	no	57	0	520
6.6.1	mac	2022-12-19	14:32:00	14:44:12	731015	6290ebb13a126c60c9cb7d11	147680701	1	main_z	11	main_z	33	stimuli_target_trianglecircles.svg	stimuli_distractor_trianglediamonds.svg	17	yes	44	1	612
6.6.1	mac	2022-12-19	14:32:00	14:44:12	731015	6290ebb13a126c60c9cb7d11	147680701	1	main_z	11	advance_on_keypress_ZEE	34	stimuli_target_trianglecircles.svg	stimuli_distractor_trianglediamonds.svg	17	yes	57	0	725
6.6.1	mac	2022-12-19	14:32:00	14:44:14	732982	6290ebb13a126c60c9cb7d11	147680701	1	main_z	11	main_z	35	stimuli_distractor_trianglediamonds.svg	stimuli_target_squaretriangles.svg	11	yes	44	1	613
6.6.1	mac	2022-12-19	14:32:00	14:44:14	732982	6290ebb13a126c60c9cb7d11	147680701	1	main_z	11	advance_on_keypress_ZEE	36	stimuli_distractor_trianglediamonds.svg	stimuli_target_squaretriangles.svg	11	yes	57	0	505
6.6.1	mac	2022-12-19	14:32:00	14:44:17	736116	6290ebb13a126c60c9cb7d11	147680701	1	main_z	11	main_z	37	stimuli_distractor_trianglediamonds.svg	stimuli_distractor_diamondtriangles.svg	36	no	0	1	2000
6.6.1	mac	2022-12-19	14:32:00	14:44:17	736116	6290ebb13a126c60c9cb7d11	147680701	1	main_z	11	advance_on_keypress_ZEE	38	stimuli_distractor_trianglediamonds.svg	stimuli_distractor_diamondtriangles.svg	36	no	57	0	361
6.6.1	mac	2022-12-19	14:32:00	14:44:19	737632	6290ebb13a126c60c9cb7d11	147680701	1	main_z	11	main_z	39	stimuli_target_trianglesquares.svg	stimuli_distractor_diamondtriangles.svg	22	yes	44	1	514
6.6.1	mac	2022-12-19	14:32:00	14:44:19	737632	6290ebb13a126c60c9cb7d11	147680701	1	main_z	11	advance_on_keypress_ZEE	40	stimuli_target_trianglesquares.svg	stimuli_distractor_diamondtriangles.svg	22	yes	57	0	479
6.6.1	mac	2022-12-19	14:32:00	14:44:21	739376	6290ebb13a126c60c9cb7d11	147680701	1	main_z	11	main_z	41	stimuli_distractor_diamondtriangles.svg	stimuli_target_trianglesquares.svg	30	yes	44	1	624
6.6.1	mac	2022-12-19	14:32:00	14:44:21	739376	6290ebb13a126c60c9cb7d11	147680701	1	main_z	11	advance_on_keypress_ZEE	42	stimuli_distractor_diamondtriangles.svg	stimuli_target_trianglesquares.svg	30	yes	57	0	528
6.6.1	mac	2022-12-19	14:32:00	14:44:22	741084	6290ebb13a126c60c9cb7d11	147680701	1	main_z	11	main_z	43	stimuli_target_diamondcircles.svg	stimuli_distractor_trianglediamonds.svg	19	yes	44	1	549
6.6.1	mac	2022-12-19	14:32:00	14:44:22	741084	6290ebb13a126c60c9cb7d11	147680701	1	main_z	11	advance_on_keypress_ZEE	44	stimuli_target_diamondcircles.svg	stimuli_distractor_trianglediamonds.svg	19	yes	57	0	536
6.6.1	mac	2022-12-19	14:32:00	14:44:24	742775	6290ebb13a126c60c9cb7d11	147680701	1	main_z	11	main_z	45	stimuli_target_circletriangles.svg	stimuli_distractor_diamondtriangles.svg	5	yes	44	1	524
6.6.1	mac	2022-12-19	14:32:00	14:44:24	742775	6290ebb13a126c60c9cb7d11	147680701	1	main_z	11	advance_on_keypress_ZEE	46	stimuli_target_circletriangles.svg	stimuli_distractor_diamondtriangles.svg	5	yes	57	0	540
6.6.1	mac	2022-12-19	14:32:00	14:44:27	745935	6290ebb13a126c60c9cb7d11	147680701	1	main_z	11	main_z	47	stimuli_distractor_diamondtriangles.svg	stimuli_distractor_diamondtriangles.svg	40	no	0	1	2000
6.6.1	mac	2022-12-19	14:32:00	14:44:27	745935	6290ebb13a126c60c9cb7d11	147680701	1	main_z	11	advance_on_keypress_ZEE	48	stimuli_distractor_diamondtriangles.svg	stimuli_distractor_diamondtriangles.svg	40	no	57	0	281
6.6.1	mac	2022-12-19	14:32:00	14:44:29	747332	6290ebb13a126c60c9cb7d11	147680701	1	main_z	11	main_z	49	stimuli_target_circlediamonds.svg	stimuli_distractor_trianglediamonds.svg	2	yes	44	1	480
6.6.1	mac	2022-12-19	14:32:00	14:44:29	747332	6290ebb13a126c60c9cb7d11	147680701	1	main_z	11	advance_on_keypress_ZEE	50	stimuli_target_circlediamonds.svg	stimuli_distractor_trianglediamonds.svg	2	yes	57	0	556
6.6.1	mac	2022-12-19	14:32:00	14:44:30	749153	6290ebb13a126c60c9cb7d11	147680701	1	main_z	11	main_z	51	stimuli_target_trianglecircles.svg	stimuli_distractor_diamondtriangles.svg	21	yes	44	1	635
6.6.1	mac	2022-12-19	14:32:00	14:44:30	749153	6290ebb13a126c60c9cb7d11	147680701	1	main_z	11	advance_on_keypress_ZEE	52	stimuli_target_trianglecircles.svg	stimuli_distractor_diamondtriangles.svg	21	yes	57	0	465
6.6.1	mac	2022-12-19	14:32:00	14:44:34	752251	6290ebb13a126c60c9cb7d11	147680701	1	main_z	11	main_z	53	stimuli_distractor_trianglediamonds.svg	stimuli_distractor_diamondtriangles.svg	35	no	0	1	2000
6.6.1	mac	2022-12-19	14:32:00	14:44:34	752251	6290ebb13a126c60c9cb7d11	147680701	1	main_z	11	advance_on_keypress_ZEE	54	stimuli_distractor_trianglediamonds.svg	stimuli_distractor_diamondtriangles.svg	35	no	57	0	642
6.6.1	mac	2022-12-19	14:32:00	14:44:37	755518	6290ebb13a126c60c9cb7d11	147680701	1	main_z	11	main_z	55	stimuli_distractor_trianglediamonds.svg	stimuli_target_diamondsquares.svg	28	yes	0	0	2000
6.6.1	mac	2022-12-19	14:32:00	14:44:37	755518	6290ebb13a126c60c9cb7d11	147680701	1	main_z	11	advance_on_keypress_ZEE	56	stimuli_distractor_trianglediamonds.svg	stimuli_target_diamondsquares.svg	28	yes	57	0	2487
6.6.1	mac	2022-12-19	14:32:00	14:44:40	758923	6290ebb13a126c60c9cb7d11	147680701	1	main_z	11	main_z	57	stimuli_target_squarediamonds.svg	stimuli_distractor_trianglediamonds.svg	4	yes	44	1	288
6.6.1	mac	2022-12-19	14:32:00	14:44:40	758923	6290ebb13a126c60c9cb7d11	147680701	1	main_z	11	advance_on_keypress_ZEE	58	stimuli_target_squarediamonds.svg	stimuli_distractor_trianglediamonds.svg	4	yes	57	0	855
6.6.1	mac	2022-12-19	14:32:00	14:44:44	762401	6290ebb13a126c60c9cb7d11	147680701	1	main_z	11	main_z	59	stimuli_distractor_diamondtriangles.svg	stimuli_target_diamondsquares.svg	32	yes	0	0	2000
6.6.1	mac	2022-12-19	14:32:00	14:44:44	762401	6290ebb13a126c60c9cb7d11	147680701	1	main_z	11	advance_on_keypress_ZEE	60	stimuli_distractor_diamondtriangles.svg	stimuli_target_diamondsquares.svg	32	yes	57	0	531
6.6.1	mac	2022-12-19	14:32:00	14:44:45	763840	6290ebb13a126c60c9cb7d11	147680701	1	main_z	11	main_z	61	stimuli_target_circlediamonds.svg	stimuli_distractor_diamondtriangles.svg	6	yes	44	1	271
6.6.1	mac	2022-12-19	14:32:00	14:44:45	763840	6290ebb13a126c60c9cb7d11	147680701	1	main_z	11	advance_on_keypress_ZEE	62	stimuli_target_circlediamonds.svg	stimuli_distractor_diamondtriangles.svg	6	yes	57	0	611
6.6.1	mac	2022-12-19	14:32:00	14:44:47	765505	6290ebb13a126c60c9cb7d11	147680701	1	main_z	11	main_z	63	stimuli_target_squarediamonds.svg	stimuli_distractor_diamondtriangles.svg	8	yes	44	1	420
6.6.1	mac	2022-12-19	14:32:00	14:44:47	765505	6290ebb13a126c60c9cb7d11	147680701	1	main_z	11	advance_on_keypress_ZEE	64	stimuli_target_squarediamonds.svg	stimuli_distractor_diamondtriangles.svg	8	yes	57	0	500
6.6.1	mac	2022-12-19	14:32:00	14:44:48	767122	6290ebb13a126c60c9cb7d11	147680701	1	main_z	11	main_z	65	stimuli_distractor_trianglediamonds.svg	stimuli_target_squarediamonds.svg	12	yes	44	1	486
6.6.1	mac	2022-12-19	14:32:00	14:44:48	767122	6290ebb13a126c60c9cb7d11	147680701	1	main_z	11	advance_on_keypress_ZEE	66	stimuli_distractor_trianglediamonds.svg	stimuli_target_squarediamonds.svg	12	yes	57	0	450
6.6.1	mac	2022-12-19	14:32:00	14:44:50	769130	6290ebb13a126c60c9cb7d11	147680701	1	main_z	11	main_z	67	stimuli_distractor_diamondtriangles.svg	stimuli_distractor_trianglediamonds.svg	37	no	44	0	928
6.6.1	mac	2022-12-19	14:32:00	14:44:50	769130	6290ebb13a126c60c9cb7d11	147680701	1	main_z	11	advance_on_keypress_ZEE	68	stimuli_distractor_diamondtriangles.svg	stimuli_distractor_trianglediamonds.svg	37	no	57	0	437
6.6.1	mac	2022-12-19	14:32:00	14:44:52	770646	6290ebb13a126c60c9cb7d11	147680701	1	main_z	11	main_z	69	stimuli_distractor_trianglediamonds.svg	stimuli_target_diamondcircles.svg	27	yes	44	1	444
6.6.1	mac	2022-12-19	14:32:00	14:44:52	770646	6290ebb13a126c60c9cb7d11	147680701	1	main_z	11	advance_on_keypress_ZEE	70	stimuli_distractor_trianglediamonds.svg	stimuli_target_diamondcircles.svg	27	yes	57	0	494
6.6.1	mac	2022-12-19	14:32:00	14:44:55	773768	6290ebb13a126c60c9cb7d11	147680701	1	main_z	11	main_z	71	stimuli_distractor_trianglediamonds.svg	stimuli_distractor_trianglediamonds.svg	34	no	0	1	2000
6.6.1	mac	2022-12-19	14:32:00	14:44:55	773768	6290ebb13a126c60c9cb7d11	147680701	1	main_z	11	advance_on_keypress_ZEE	72	stimuli_distractor_trianglediamonds.svg	stimuli_distractor_trianglediamonds.svg	34	no	57	0	491
6.6.1	mac	2022-12-19	14:32:00	14:44:57	775258	6290ebb13a126c60c9cb7d11	147680701	1	main_z	11	main_z	73	stimuli_distractor_trianglediamonds.svg	stimuli_target_trianglecircles.svg	25	yes	44	1	373
6.6.1	mac	2022-12-19	14:32:00	14:44:57	775258	6290ebb13a126c60c9cb7d11	147680701	1	main_z	11	advance_on_keypress_ZEE	74	stimuli_distractor_trianglediamonds.svg	stimuli_target_trianglecircles.svg	25	yes	57	0	519
6.6.1	mac	2022-12-19	14:32:00	14:44:59	777481	6290ebb13a126c60c9cb7d11	147680701	1	main_z	11	main_z	75	stimuli_distractor_diamondtriangles.svg	stimuli_target_circlediamonds.svg	14	yes	44	1	1078
6.6.1	mac	2022-12-19	14:32:00	14:44:59	777481	6290ebb13a126c60c9cb7d11	147680701	1	main_z	11	advance_on_keypress_ZEE	76	stimuli_distractor_diamondtriangles.svg	stimuli_target_circlediamonds.svg	14	yes	57	0	654
6.6.1	mac	2022-12-19	14:32:00	14:45:00	779133	6290ebb13a126c60c9cb7d11	147680701	1	main_z	11	main_z	77	stimuli_target_circletriangles.svg	stimuli_distractor_trianglediamonds.svg	1	yes	44	1	365
6.6.1	mac	2022-12-19	14:32:00	14:45:00	779133	6290ebb13a126c60c9cb7d11	147680701	1	main_z	11	advance_on_keypress_ZEE	78	stimuli_target_circletriangles.svg	stimuli_distractor_trianglediamonds.svg	1	yes	57	0	471
6.6.1	mac	2022-12-19	14:32:00	14:45:02	780832	6290ebb13a126c60c9cb7d11	147680701	1	main_z	11	main_z	79	stimuli_distractor_trianglediamonds.svg	stimuli_target_trianglesquares.svg	26	yes	44	1	596
6.6.1	mac	2022-12-19	14:32:00	14:45:02	780832	6290ebb13a126c60c9cb7d11	147680701	1	main_z	11	advance_on_keypress_ZEE	80	stimuli_distractor_trianglediamonds.svg	stimuli_target_trianglesquares.svg	26	yes	57	0	382
6.6.1	mac	2022-12-19	14:32:00	14:45:05	783410	6290ebb13a126c60c9cb7d11	147680701	1	main_z	11	main_z	81	stimuli_target_diamondcircles.svg	stimuli_distractor_diamondtriangles.svg	23	yes	44	1	1558
6.6.1	mac	2022-12-19	14:32:00	14:45:05	783410	6290ebb13a126c60c9cb7d11	147680701	1	main_z	11	advance_on_keypress_ZEE	82	stimuli_target_diamondcircles.svg	stimuli_distractor_diamondtriangles.svg	23	yes	57	0	439
6.6.1	mac	2022-12-19	14:32:00	14:45:06	784949	6290ebb13a126c60c9cb7d11	147680701	1	main_z	11	main_z	83	stimuli_target_squarediamonds.svg	stimuli_distractor_diamondtriangles.svg	8	yes	44	1	480
6.6.1	mac	2022-12-19	14:32:00	14:45:06	784949	6290ebb13a126c60c9cb7d11	147680701	1	main_z	11	advance_on_keypress_ZEE	84	stimuli_target_squarediamonds.svg	stimuli_distractor_diamondtriangles.svg	8	yes	57	0	398
6.6.1	mac	2022-12-19	14:32:00	14:45:08	787115	6290ebb13a126c60c9cb7d11	147680701	1	main_z	11	main_z	85	stimuli_target_squarediamonds.svg	stimuli_distractor_trianglediamonds.svg	4	yes	44	1	1129
6.6.1	mac	2022-12-19	14:32:00	14:45:08	787115	6290ebb13a126c60c9cb7d11	147680701	1	main_z	11	advance_on_keypress_ZEE	86	stimuli_target_squarediamonds.svg	stimuli_distractor_trianglediamonds.svg	4	yes	57	0	539
6.6.1	mac	2022-12-19	14:32:00	14:45:10	788709	6290ebb13a126c60c9cb7d11	147680701	1	main_z	11	main_z	87	stimuli_distractor_diamondtriangles.svg	stimuli_target_squaretriangles.svg	15	yes	44	1	425
6.6.1	mac	2022-12-19	14:32:00	14:45:10	788709	6290ebb13a126c60c9cb7d11	147680701	1	main_z	11	advance_on_keypress_ZEE	88	stimuli_distractor_diamondtriangles.svg	stimuli_target_squaretriangles.svg	15	yes	57	0	394
6.6.1	mac	2022-12-19	14:32:00	14:45:12	790961	6290ebb13a126c60c9cb7d11	147680701	1	main_z	11	main_z	89	stimuli_distractor_trianglediamonds.svg	stimuli_target_squarediamonds.svg	12	yes	44	1	1226
6.6.1	mac	2022-12-19	14:32:00	14:45:12	790961	6290ebb13a126c60c9cb7d11	147680701	1	main_z	11	advance_on_keypress_ZEE	90	stimuli_distractor_trianglediamonds.svg	stimuli_target_squarediamonds.svg	12	yes	57	0	599
6.6.1	mac	2022-12-19	14:32:00	14:45:14	792879	6290ebb13a126c60c9cb7d11	147680701	1	main_z	11	main_z	91	stimuli_distractor_diamondtriangles.svg	stimuli_target_diamondcircles.svg	31	yes	44	1	694
6.6.1	mac	2022-12-19	14:32:00	14:45:14	792879	6290ebb13a126c60c9cb7d11	147680701	1	main_z	11	advance_on_keypress_ZEE	92	stimuli_distractor_diamondtriangles.svg	stimuli_target_diamondcircles.svg	31	yes	57	0	483
6.6.1	mac	2022-12-19	14:32:00	14:45:16	794633	6290ebb13a126c60c9cb7d11	147680701	1	main_z	11	main_z	93	stimuli_target_squaretriangles.svg	stimuli_distractor_trianglediamonds.svg	3	yes	44	1	647
6.6.1	mac	2022-12-19	14:32:00	14:45:16	794633	6290ebb13a126c60c9cb7d11	147680701	1	main_z	11	advance_on_keypress_ZEE	94	stimuli_target_squaretriangles.svg	stimuli_distractor_trianglediamonds.svg	3	yes	57	0	369
6.6.1	mac	2022-12-19	14:32:00	14:45:18	797203	6290ebb13a126c60c9cb7d11	147680701	1	main_z	11	main_z	95	stimuli_target_circlediamonds.svg	stimuli_distractor_diamondtriangles.svg	6	yes	44	1	1566
6.6.1	mac	2022-12-19	14:32:00	14:45:18	797203	6290ebb13a126c60c9cb7d11	147680701	1	main_z	11	advance_on_keypress_ZEE	96	stimuli_target_circlediamonds.svg	stimuli_distractor_diamondtriangles.svg	6	yes	57	0	485
6.6.1	mac	2022-12-19	14:32:00	14:45:20	798788	6290ebb13a126c60c9cb7d11	147680701	1	main_z	11	main_z	97	stimuli_distractor_trianglediamonds.svg	stimuli_target_trianglecircles.svg	25	yes	44	1	469
6.6.1	mac	2022-12-19	14:32:00	14:45:20	798788	6290ebb13a126c60c9cb7d11	147680701	1	main_z	11	advance_on_keypress_ZEE	98	stimuli_distractor_trianglediamonds.svg	stimuli_target_trianglecircles.svg	25	yes	57	0	406
6.6.1	mac	2022-12-19	14:32:00	14:45:22	800988	6290ebb13a126c60c9cb7d11	147680701	1	main_z	11	main_z	99	stimuli_target_diamondsquares.svg	stimuli_distractor_trianglediamonds.svg	20	yes	44	1	1169
6.6.1	mac	2022-12-19	14:32:00	14:45:22	800988	6290ebb13a126c60c9cb7d11	147680701	1	main_z	11	advance_on_keypress_ZEE	100	stimuli_target_diamondsquares.svg	stimuli_distractor_trianglediamonds.svg	20	yes	57	0	366
6.6.1	mac	2022-12-19	14:32:00	14:45:24	802710	6290ebb13a126c60c9cb7d11	147680701	1	main_z	11	main_z	101	stimuli_target_trianglecircles.svg	stimuli_distractor_diamondtriangles.svg	21	yes	44	1	724
6.6.1	mac	2022-12-19	14:32:00	14:45:24	802710	6290ebb13a126c60c9cb7d11	147680701	1	main_z	11	advance_on_keypress_ZEE	102	stimuli_target_trianglecircles.svg	stimuli_distractor_diamondtriangles.svg	21	yes	57	0	410
6.6.1	mac	2022-12-19	14:32:00	14:45:26	804550	6290ebb13a126c60c9cb7d11	147680701	1	main_z	11	main_z	103	stimuli_distractor_diamondtriangles.svg	stimuli_target_trianglesquares.svg	30	yes	44	1	814
6.6.1	mac	2022-12-19	14:32:00	14:45:26	804550	6290ebb13a126c60c9cb7d11	147680701	1	main_z	11	advance_on_keypress_ZEE	104	stimuli_distractor_diamondtriangles.svg	stimuli_target_trianglesquares.svg	30	yes	57	0	405
6.6.1	mac	2022-12-19	14:32:00	14:45:28	806243	6290ebb13a126c60c9cb7d11	147680701	1	main_z	11	main_z	105	stimuli_target_trianglesquares.svg	stimuli_distractor_diamondtriangles.svg	22	yes	44	1	659
6.6.1	mac	2022-12-19	14:32:00	14:45:28	806243	6290ebb13a126c60c9cb7d11	147680701	1	main_z	11	advance_on_keypress_ZEE	106	stimuli_target_trianglesquares.svg	stimuli_distractor_diamondtriangles.svg	22	yes	57	0	510
6.6.1	mac	2022-12-19	14:32:00	14:45:29	807987	6290ebb13a126c60c9cb7d11	147680701	1	main_z	11	main_z	107	stimuli_distractor_trianglediamonds.svg	stimuli_target_circletriangles.svg	9	yes	44	1	618
6.6.1	mac	2022-12-19	14:32:00	14:45:29	807987	6290ebb13a126c60c9cb7d11	147680701	1	main_z	11	advance_on_keypress_ZEE	108	stimuli_distractor_trianglediamonds.svg	stimuli_target_circletriangles.svg	9	yes	57	0	357
6.6.1	mac	2022-12-19	14:32:00	14:45:31	809953	6290ebb13a126c60c9cb7d11	147680701	1	main_z	11	main_z	109	stimuli_distractor_trianglediamonds.svg	stimuli_target_diamondsquares.svg	28	yes	44	1	984
6.6.1	mac	2022-12-19	14:32:00	14:45:31	809953	6290ebb13a126c60c9cb7d11	147680701	1	main_z	11	advance_on_keypress_ZEE	110	stimuli_distractor_trianglediamonds.svg	stimuli_target_diamondsquares.svg	28	yes	57	0	339
6.6.1	mac	2022-12-19	14:32:00	14:45:34	812917	6290ebb13a126c60c9cb7d11	147680701	1	main_z	11	main_z	111	stimuli_distractor_trianglediamonds.svg	stimuli_distractor_trianglediamonds.svg	33	no	0	1	2000
6.6.1	mac	2022-12-19	14:32:00	14:45:34	812917	6290ebb13a126c60c9cb7d11	147680701	1	main_z	11	advance_on_keypress_ZEE	112	stimuli_distractor_trianglediamonds.svg	stimuli_distractor_trianglediamonds.svg	33	no	57	0	1837
6.6.1	mac	2022-12-19	14:32:00	14:45:37	815934	6290ebb13a126c60c9cb7d11	147680701	1	main_z	11	main_z	113	stimuli_target_circlediamonds.svg	stimuli_distractor_trianglediamonds.svg	2	yes	44	1	549
6.6.1	mac	2022-12-19	14:32:00	14:45:37	815934	6290ebb13a126c60c9cb7d11	147680701	1	main_z	11	advance_on_keypress_ZEE	114	stimuli_target_circlediamonds.svg	stimuli_distractor_trianglediamonds.svg	2	yes	57	0	440
6.6.1	mac	2022-12-19	14:32:00	14:45:40	819018	6290ebb13a126c60c9cb7d11	147680701	1	main_z	11	main_z	115	stimuli_distractor_trianglediamonds.svg	stimuli_distractor_trianglediamonds.svg	34	no	0	1	2000
6.6.1	mac	2022-12-19	14:32:00	14:45:40	819018	6290ebb13a126c60c9cb7d11	147680701	1	main_z	11	advance_on_keypress_ZEE	116	stimuli_distractor_trianglediamonds.svg	stimuli_distractor_trianglediamonds.svg	34	no	57	0	276
6.6.1	mac	2022-12-19	14:32:00	14:45:42	820346	6290ebb13a126c60c9cb7d11	147680701	1	main_z	11	main_z	117	stimuli_distractor_diamondtriangles.svg	stimuli_target_squarediamonds.svg	16	yes	44	1	427
6.6.1	mac	2022-12-19	14:32:00	14:45:42	820346	6290ebb13a126c60c9cb7d11	147680701	1	main_z	11	advance_on_keypress_ZEE	118	stimuli_distractor_diamondtriangles.svg	stimuli_target_squarediamonds.svg	16	yes	57	0	491
6.6.1	mac	2022-12-19	14:32:00	14:45:44	822245	6290ebb13a126c60c9cb7d11	147680701	1	main_z	11	main_z	119	stimuli_target_trianglesquares.svg	stimuli_distractor_trianglediamonds.svg	18	yes	44	1	776
6.6.1	mac	2022-12-19	14:32:00	14:45:44	822245	6290ebb13a126c60c9cb7d11	147680701	1	main_z	11	advance_on_keypress_ZEE	120	stimuli_target_trianglesquares.svg	stimuli_distractor_trianglediamonds.svg	18	yes	57	0	341
6.6.1	mac	2022-12-19	14:32:00	14:45:46	825201	6290ebb13a126c60c9cb7d11	147680701	1	main_z	11	main_z	121	stimuli_distractor_diamondtriangles.svg	stimuli_distractor_diamondtriangles.svg	40	no	0	1	2000
6.6.1	mac	2022-12-19	14:32:00	14:45:46	825201	6290ebb13a126c60c9cb7d11	147680701	1	main_z	11	advance_on_keypress_ZEE	122	stimuli_distractor_diamondtriangles.svg	stimuli_distractor_diamondtriangles.svg	40	no	57	0	410
6.6.1	mac	2022-12-19	14:32:00	14:45:48	826968	6290ebb13a126c60c9cb7d11	147680701	1	main_z	11	main_z	123	stimuli_target_squaretriangles.svg	stimuli_distractor_diamondtriangles.svg	7	yes	44	1	733
6.6.1	mac	2022-12-19	14:32:00	14:45:48	826968	6290ebb13a126c60c9cb7d11	147680701	1	main_z	11	advance_on_keypress_ZEE	124	stimuli_target_squaretriangles.svg	stimuli_distractor_diamondtriangles.svg	7	yes	57	0	323
6.6.1	mac	2022-12-19	14:32:00	14:45:50	828633	6290ebb13a126c60c9cb7d11	147680701	1	main_z	11	main_z	125	stimuli_target_circletriangles.svg	stimuli_distractor_trianglediamonds.svg	1	yes	44	1	714
6.6.1	mac	2022-12-19	14:32:00	14:45:50	828633	6290ebb13a126c60c9cb7d11	147680701	1	main_z	11	advance_on_keypress_ZEE	126	stimuli_target_circletriangles.svg	stimuli_distractor_trianglediamonds.svg	1	yes	57	0	351
6.6.1	mac	2022-12-19	14:32:00	14:45:52	830248	6290ebb13a126c60c9cb7d11	147680701	1	main_z	11	main_z	127	stimuli_target_circletriangles.svg	stimuli_distractor_diamondtriangles.svg	5	yes	44	1	629
6.6.1	mac	2022-12-19	14:32:00	14:45:52	830248	6290ebb13a126c60c9cb7d11	147680701	1	main_z	11	advance_on_keypress_ZEE	128	stimuli_target_circletriangles.svg	stimuli_distractor_diamondtriangles.svg	5	yes	57	0	401
6.6.1	mac	2022-12-19	14:32:00	14:45:53	831791	6290ebb13a126c60c9cb7d11	147680701	1	main_z	11	main_z	129	stimuli_distractor_diamondtriangles.svg	stimuli_target_circlediamonds.svg	14	yes	44	1	506
6.6.1	mac	2022-12-19	14:32:00	14:45:53	831791	6290ebb13a126c60c9cb7d11	147680701	1	main_z	11	advance_on_keypress_ZEE	130	stimuli_distractor_diamondtriangles.svg	stimuli_target_circlediamonds.svg	14	yes	57	0	523
6.6.1	mac	2022-12-19	14:32:00	14:45:56	834935	6290ebb13a126c60c9cb7d11	147680701	1	main_z	11	main_z	131	stimuli_distractor_trianglediamonds.svg	stimuli_distractor_diamondtriangles.svg	36	no	0	1	2000
6.6.1	mac	2022-12-19	14:32:00	14:45:56	834935	6290ebb13a126c60c9cb7d11	147680701	1	main_z	11	advance_on_keypress_ZEE	132	stimuli_distractor_trianglediamonds.svg	stimuli_distractor_diamondtriangles.svg	36	no	57	0	442
6.6.1	mac	2022-12-19	14:32:00	14:45:58	836698	6290ebb13a126c60c9cb7d11	147680701	1	main_z	11	main_z	133	stimuli_distractor_diamondtriangles.svg	stimuli_target_diamondsquares.svg	32	yes	44	1	696
6.6.1	mac	2022-12-19	14:32:00	14:45:58	836698	6290ebb13a126c60c9cb7d11	147680701	1	main_z	11	advance_on_keypress_ZEE	134	stimuli_distractor_diamondtriangles.svg	stimuli_target_diamondsquares.svg	32	yes	57	0	368
6.6.1	mac	2022-12-19	14:32:00	14:46:01	839701	6290ebb13a126c60c9cb7d11	147680701	1	main_z	11	main_z	135	stimuli_distractor_diamondtriangles.svg	stimuli_distractor_trianglediamonds.svg	37	no	0	1	2000
6.6.1	mac	2022-12-19	14:32:00	14:46:01	839701	6290ebb13a126c60c9cb7d11	147680701	1	main_z	11	advance_on_keypress_ZEE	136	stimuli_distractor_diamondtriangles.svg	stimuli_distractor_trianglediamonds.svg	37	no	57	0	429
6.6.1	mac	2022-12-19	14:32:00	14:46:03	841567	6290ebb13a126c60c9cb7d11	147680701	1	main_z	11	main_z	137	stimuli_target_diamondcircles.svg	stimuli_distractor_trianglediamonds.svg	19	yes	44	1	798
6.6.1	mac	2022-12-19	14:32:00	14:46:03	841567	6290ebb13a126c60c9cb7d11	147680701	1	main_z	11	advance_on_keypress_ZEE	138	stimuli_target_diamondcircles.svg	stimuli_distractor_trianglediamonds.svg	19	yes	57	0	695
6.6.1	mac	2022-12-19	14:32:00	14:46:05	843539	6290ebb13a126c60c9cb7d11	147680701	1	main_z	11	main_z	139	stimuli_distractor_trianglediamonds.svg	stimuli_target_circlediamonds.svg	10	yes	44	1	637
6.6.1	mac	2022-12-19	14:32:00	14:46:05	843539	6290ebb13a126c60c9cb7d11	147680701	1	main_z	11	advance_on_keypress_ZEE	140	stimuli_distractor_trianglediamonds.svg	stimuli_target_circlediamonds.svg	10	yes	57	0	544
6.6.1	mac	2022-12-19	14:32:00	14:46:08	846701	6290ebb13a126c60c9cb7d11	147680701	1	main_z	11	main_z	141	stimuli_distractor_trianglediamonds.svg	stimuli_target_diamondcircles.svg	27	yes	0	0	2000
6.6.1	mac	2022-12-19	14:32:00	14:46:08	846701	6290ebb13a126c60c9cb7d11	147680701	1	main_z	11	advance_on_keypress_ZEE	142	stimuli_distractor_trianglediamonds.svg	stimuli_target_diamondcircles.svg	27	yes	57	0	1703
6.6.1	mac	2022-12-19	14:32:00	14:46:11	849541	6290ebb13a126c60c9cb7d11	147680701	1	main_z	11	main_z	143	stimuli_distractor_trianglediamonds.svg	stimuli_distractor_diamondtriangles.svg	35	no	44	0	506
6.6.1	mac	2022-12-19	14:32:00	14:46:11	849541	6290ebb13a126c60c9cb7d11	147680701	1	main_z	11	advance_on_keypress_ZEE	144	stimuli_distractor_trianglediamonds.svg	stimuli_distractor_diamondtriangles.svg	35	no	57	0	439
6.6.1	mac	2022-12-19	14:32:00	14:46:14	852601	6290ebb13a126c60c9cb7d11	147680701	1	main_z	11	main_z	145	stimuli_distractor_diamondtriangles.svg	stimuli_distractor_diamondtriangles.svg	39	no	0	1	2000
6.6.1	mac	2022-12-19	14:32:00	14:46:14	852601	6290ebb13a126c60c9cb7d11	147680701	1	main_z	11	advance_on_keypress_ZEE	146	stimuli_distractor_diamondtriangles.svg	stimuli_distractor_diamondtriangles.svg	39	no	57	0	335
6.6.1	mac	2022-12-19	14:32:00	14:46:15	854171	6290ebb13a126c60c9cb7d11	147680701	1	main_z	11	main_z	147	stimuli_distractor_trianglediamonds.svg	stimuli_target_trianglesquares.svg	26	yes	44	1	602
6.6.1	mac	2022-12-19	14:32:00	14:46:15	854171	6290ebb13a126c60c9cb7d11	147680701	1	main_z	11	advance_on_keypress_ZEE	148	stimuli_distractor_trianglediamonds.svg	stimuli_target_trianglesquares.svg	26	yes	57	0	416
6.6.1	mac	2022-12-19	14:32:00	14:46:17	855954	6290ebb13a126c60c9cb7d11	147680701	1	main_z	11	main_z	149	stimuli_target_diamondsquares.svg	stimuli_distractor_diamondtriangles.svg	24	yes	44	1	735
6.6.1	mac	2022-12-19	14:32:00	14:46:17	855954	6290ebb13a126c60c9cb7d11	147680701	1	main_z	11	advance_on_keypress_ZEE	150	stimuli_target_diamondsquares.svg	stimuli_distractor_diamondtriangles.svg	24	yes	57	0	341
6.6.1	mac	2022-12-19	14:32:00	14:46:20	858917	6290ebb13a126c60c9cb7d11	147680701	1	main_z	11	main_z	151	stimuli_distractor_diamondtriangles.svg	stimuli_distractor_trianglediamonds.svg	38	no	0	1	2000
6.6.1	mac	2022-12-19	14:32:00	14:46:20	858917	6290ebb13a126c60c9cb7d11	147680701	1	main_z	11	advance_on_keypress_ZEE	152	stimuli_distractor_diamondtriangles.svg	stimuli_distractor_trianglediamonds.svg	38	no	57	0	1487
6.6.1	mac	2022-12-19	14:32:00	14:46:23	861534	6290ebb13a126c60c9cb7d11	147680701	1	main_z	11	main_z	153	stimuli_distractor_diamondtriangles.svg	stimuli_target_circletriangles.svg	13	yes	44	1	501
6.6.1	mac	2022-12-19	14:32:00	14:46:23	861534	6290ebb13a126c60c9cb7d11	147680701	1	main_z	11	advance_on_keypress_ZEE	154	stimuli_distractor_diamondtriangles.svg	stimuli_target_circletriangles.svg	13	yes	57	0	385
6.6.1	mac	2022-12-19	14:32:00	14:46:25	863265	6290ebb13a126c60c9cb7d11	147680701	1	main_z	11	main_z	155	stimuli_target_trianglecircles.svg	stimuli_distractor_trianglediamonds.svg	17	yes	44	1	713
6.6.1	mac	2022-12-19	14:32:00	14:46:25	863265	6290ebb13a126c60c9cb7d11	147680701	1	main_z	11	advance_on_keypress_ZEE	156	stimuli_target_trianglecircles.svg	stimuli_distractor_trianglediamonds.svg	17	yes	57	0	420
6.6.1	mac	2022-12-19	14:32:00	14:46:26	864873	6290ebb13a126c60c9cb7d11	147680701	1	main_z	11	main_z	157	stimuli_distractor_trianglediamonds.svg	stimuli_target_squaretriangles.svg	11	yes	44	1	554
6.6.1	mac	2022-12-19	14:32:00	14:46:26	864873	6290ebb13a126c60c9cb7d11	147680701	1	main_z	11	advance_on_keypress_ZEE	158	stimuli_distractor_trianglediamonds.svg	stimuli_target_squaretriangles.svg	11	yes	57	0	353
6.6.1	mac	2022-12-19	14:32:00	14:46:28	866438	6290ebb13a126c60c9cb7d11	147680701	1	main_z	11	main_z	159	stimuli_distractor_diamondtriangles.svg	stimuli_target_trianglecircles.svg	29	yes	44	1	586
6.6.1	mac	2022-12-19	14:32:00	14:46:28	866438	6290ebb13a126c60c9cb7d11	147680701	1	main_z	11	advance_on_keypress_ZEE	160	stimuli_distractor_diamondtriangles.svg	stimuli_target_trianglecircles.svg	29	yes	57	0	423