build	computer.platform	date	time	timestamp	time_elapsed_ms	subject	group	session	blockcode	blocknum	trialcode	trialnum	stimulus_left	stimulus_right	stim_index	target_present	response	correct	latency
6.6.1	and	2022-12-26	18:52:33	18:55:57	192720	5d44b06e62ed9000017ad64c	584347137	1	practice_slash	5	practice_slash	1	stimuli_distractor_diamondtriangles.svg	stimuli_target_diamondcircles.svg	8	yes	53	1	861
6.6.1	and	2022-12-26	18:52:33	18:55:57	192720	5d44b06e62ed9000017ad64c	584347137	1	practice_slash	5	advance_on_keypress_SLASH	2	stimuli_distractor_diamondtriangles.svg	stimuli_target_diamondcircles.svg	8	yes	57	0	2883
6.6.1	and	2022-12-26	18:52:33	18:56:03	198278	5d44b06e62ed9000017ad64c	584347137	1	practice_slash	5	practice_slash	3	stimuli_distractor_trianglediamonds.svg	stimuli_target_diamondcircles.svg	12	yes	53	1	1008
6.6.1	and	2022-12-26	18:52:33	18:56:03	198278	5d44b06e62ed9000017ad64c	584347137	1	practice_slash	5	advance_on_keypress_SLASH	4	stimuli_distractor_trianglediamonds.svg	stimuli_target_diamondcircles.svg	12	yes	57	0	2039
6.6.1	and	2022-12-26	18:52:33	18:56:08	202973	5d44b06e62ed9000017ad64c	584347137	1	practice_slash	5	practice_slash	5	stimuli_distractor_trianglediamonds.svg	stimuli_distractor_diamondtriangles.svg	16	no	53	0	1004
6.6.1	and	2022-12-26	18:52:33	18:56:08	202973	5d44b06e62ed9000017ad64c	584347137	1	practice_slash	5	advance_on_keypress_SLASH	6	stimuli_distractor_trianglediamonds.svg	stimuli_distractor_diamondtriangles.svg	16	no	57	0	386
6.6.1	and	2022-12-26	18:52:33	18:56:12	206999	5d44b06e62ed9000017ad64c	584347137	1	practice_slash	5	practice_slash	7	stimuli_distractor_trianglediamonds.svg	stimuli_distractor_trianglediamonds.svg	15	no	0	1	2000
6.6.1	and	2022-12-26	18:52:33	18:56:12	206999	5d44b06e62ed9000017ad64c	584347137	1	practice_slash	5	advance_on_keypress_SLASH	8	stimuli_distractor_trianglediamonds.svg	stimuli_distractor_trianglediamonds.svg	15	no	57	0	422
6.6.1	and	2022-12-26	18:52:33	18:56:14	209524	5d44b06e62ed9000017ad64c	584347137	1	practice_slash	5	practice_slash	9	stimuli_distractor_trianglediamonds.svg	stimuli_target_squarediamonds.svg	11	yes	53	1	448
6.6.1	and	2022-12-26	18:52:33	18:56:14	209524	5d44b06e62ed9000017ad64c	584347137	1	practice_slash	5	advance_on_keypress_SLASH	10	stimuli_distractor_trianglediamonds.svg	stimuli_target_squarediamonds.svg	11	yes	57	0	390
6.6.1	and	2022-12-26	18:52:33	18:56:18	213573	5d44b06e62ed9000017ad64c	584347137	1	practice_slash	5	practice_slash	11	stimuli_target_diamondsquares.svg	stimuli_distractor_diamondtriangles.svg	3	yes	0	0	2000
6.6.1	and	2022-12-26	18:52:33	18:56:18	213573	5d44b06e62ed9000017ad64c	584347137	1	practice_slash	5	advance_on_keypress_SLASH	12	stimuli_target_diamondsquares.svg	stimuli_distractor_diamondtriangles.svg	3	yes	57	0	453
6.6.1	and	2022-12-26	18:52:33	18:56:21	216206	5d44b06e62ed9000017ad64c	584347137	1	practice_slash	5	practice_slash	13	stimuli_distractor_trianglediamonds.svg	stimuli_target_circlediamonds.svg	10	yes	53	1	538
6.6.1	and	2022-12-26	18:52:33	18:56:21	216206	5d44b06e62ed9000017ad64c	584347137	1	practice_slash	5	advance_on_keypress_SLASH	14	stimuli_distractor_trianglediamonds.svg	stimuli_target_circlediamonds.svg	10	yes	57	0	311
6.6.1	and	2022-12-26	18:52:33	18:56:23	218550	5d44b06e62ed9000017ad64c	584347137	1	practice_slash	5	practice_slash	15	stimuli_target_circlediamonds.svg	stimuli_distractor_diamondtriangles.svg	1	yes	53	1	383
6.6.1	and	2022-12-26	18:52:33	18:56:23	218550	5d44b06e62ed9000017ad64c	584347137	1	practice_slash	5	advance_on_keypress_SLASH	16	stimuli_target_circlediamonds.svg	stimuli_distractor_diamondtriangles.svg	1	yes	57	0	291
6.6.1	and	2022-12-26	18:52:33	18:56:27	222502	5d44b06e62ed9000017ad64c	584347137	1	practice_slash	5	practice_slash	17	stimuli_distractor_diamondtriangles.svg	stimuli_distractor_diamondtriangles.svg	13	no	0	1	2000
6.6.1	and	2022-12-26	18:52:33	18:56:27	222502	5d44b06e62ed9000017ad64c	584347137	1	practice_slash	5	advance_on_keypress_SLASH	18	stimuli_distractor_diamondtriangles.svg	stimuli_distractor_diamondtriangles.svg	13	no	57	0	322
6.6.1	and	2022-12-26	18:52:33	18:56:30	225282	5d44b06e62ed9000017ad64c	584347137	1	practice_slash	5	practice_slash	19	stimuli_target_squarediamonds.svg	stimuli_distractor_trianglediamonds.svg	5	yes	53	1	822
6.6.1	and	2022-12-26	18:52:33	18:56:30	225282	5d44b06e62ed9000017ad64c	584347137	1	practice_slash	5	advance_on_keypress_SLASH	20	stimuli_target_squarediamonds.svg	stimuli_distractor_trianglediamonds.svg	5	yes	57	0	243
6.6.1	and	2022-12-26	18:52:33	18:56:32	227594	5d44b06e62ed9000017ad64c	584347137	1	practice_slash	5	practice_slash	21	stimuli_distractor_diamondtriangles.svg	stimuli_target_circletriangles.svg	7	yes	53	1	399
6.6.1	and	2022-12-26	18:52:33	18:56:32	227594	5d44b06e62ed9000017ad64c	584347137	1	practice_slash	5	advance_on_keypress_SLASH	22	stimuli_distractor_diamondtriangles.svg	stimuli_target_circletriangles.svg	7	yes	57	0	285
6.6.1	and	2022-12-26	18:52:33	18:56:36	231522	5d44b06e62ed9000017ad64c	584347137	1	practice_slash	5	practice_slash	23	stimuli_distractor_diamondtriangles.svg	stimuli_distractor_trianglediamonds.svg	14	no	0	1	2000
6.6.1	and	2022-12-26	18:52:33	18:56:36	231522	5d44b06e62ed9000017ad64c	584347137	1	practice_slash	5	advance_on_keypress_SLASH	24	stimuli_distractor_diamondtriangles.svg	stimuli_distractor_trianglediamonds.svg	14	no	57	0	274
6.6.1	and	2022-12-26	18:52:33	18:56:38	233852	5d44b06e62ed9000017ad64c	584347137	1	practice_slash	5	practice_slash	25	stimuli_target_circlediamonds.svg	stimuli_distractor_trianglediamonds.svg	4	yes	53	1	418
6.6.1	and	2022-12-26	18:52:33	18:56:38	233852	5d44b06e62ed9000017ad64c	584347137	1	practice_slash	5	advance_on_keypress_SLASH	26	stimuli_target_circlediamonds.svg	stimuli_distractor_trianglediamonds.svg	4	yes	57	0	268
6.6.1	and	2022-12-26	18:52:33	18:56:41	236170	5d44b06e62ed9000017ad64c	584347137	1	practice_slash	5	practice_slash	27	stimuli_target_squarediamonds.svg	stimuli_distractor_diamondtriangles.svg	2	yes	53	1	421
6.6.1	and	2022-12-26	18:52:33	18:56:41	236170	5d44b06e62ed9000017ad64c	584347137	1	practice_slash	5	advance_on_keypress_SLASH	28	stimuli_target_squarediamonds.svg	stimuli_distractor_diamondtriangles.svg	2	yes	57	0	240
6.6.1	and	2022-12-26	18:52:33	18:56:43	238498	5d44b06e62ed9000017ad64c	584347137	1	practice_slash	5	practice_slash	29	stimuli_distractor_diamondtriangles.svg	stimuli_target_trianglecircles.svg	9	yes	53	1	417
6.6.1	and	2022-12-26	18:52:33	18:56:43	238498	5d44b06e62ed9000017ad64c	584347137	1	practice_slash	5	advance_on_keypress_SLASH	30	stimuli_distractor_diamondtriangles.svg	stimuli_target_trianglecircles.svg	9	yes	57	0	339
6.6.1	and	2022-12-26	18:52:33	18:56:46	240956	5d44b06e62ed9000017ad64c	584347137	1	practice_slash	5	practice_slash	31	stimuli_target_diamondsquares.svg	stimuli_distractor_trianglediamonds.svg	6	yes	53	1	477
6.6.1	and	2022-12-26	18:52:33	18:56:46	240956	5d44b06e62ed9000017ad64c	584347137	1	practice_slash	5	advance_on_keypress_SLASH	32	stimuli_target_diamondsquares.svg	stimuli_distractor_trianglediamonds.svg	6	yes	57	0	275
6.6.1	and	2022-12-26	18:52:33	18:56:50	245146	5d44b06e62ed9000017ad64c	584347137	1	main_slash	7	main_slash	1	stimuli_distractor_trianglediamonds.svg	stimuli_target_diamondcircles.svg	27	yes	53	1	455
6.6.1	and	2022-12-26	18:52:33	18:56:50	245146	5d44b06e62ed9000017ad64c	584347137	1	main_slash	7	advance_on_keypress_SLASH	2	stimuli_distractor_trianglediamonds.svg	stimuli_target_diamondcircles.svg	27	yes	57	0	1122
6.6.1	and	2022-12-26	18:52:33	18:56:52	247219	5d44b06e62ed9000017ad64c	584347137	1	main_slash	7	main_slash	3	stimuli_target_circletriangles.svg	stimuli_distractor_trianglediamonds.svg	1	yes	53	1	315
6.6.1	and	2022-12-26	18:52:33	18:56:52	247219	5d44b06e62ed9000017ad64c	584347137	1	main_slash	7	advance_on_keypress_SLASH	4	stimuli_target_circletriangles.svg	stimuli_distractor_trianglediamonds.svg	1	yes	57	0	1910
6.6.1	and	2022-12-26	18:52:33	18:56:55	250187	5d44b06e62ed9000017ad64c	584347137	1	main_slash	7	main_slash	5	stimuli_distractor_trianglediamonds.svg	stimuli_target_squarediamonds.svg	12	yes	53	1	420
6.6.1	and	2022-12-26	18:52:33	18:56:55	250187	5d44b06e62ed9000017ad64c	584347137	1	main_slash	7	advance_on_keypress_SLASH	6	stimuli_distractor_trianglediamonds.svg	stimuli_target_squarediamonds.svg	12	yes	57	0	1240
6.6.1	and	2022-12-26	18:52:33	18:56:57	252629	5d44b06e62ed9000017ad64c	584347137	1	main_slash	7	main_slash	7	stimuli_target_squarediamonds.svg	stimuli_distractor_trianglediamonds.svg	4	yes	53	1	582
6.6.1	and	2022-12-26	18:52:33	18:56:57	252629	5d44b06e62ed9000017ad64c	584347137	1	main_slash	7	advance_on_keypress_SLASH	8	stimuli_target_squarediamonds.svg	stimuli_distractor_trianglediamonds.svg	4	yes	57	0	650
6.6.1	and	2022-12-26	18:52:33	18:56:59	254425	5d44b06e62ed9000017ad64c	584347137	1	main_slash	7	main_slash	9	stimuli_distractor_diamondtriangles.svg	stimuli_distractor_diamondtriangles.svg	40	no	53	0	512
6.6.1	and	2022-12-26	18:52:33	18:56:59	254425	5d44b06e62ed9000017ad64c	584347137	1	main_slash	7	advance_on_keypress_SLASH	10	stimuli_distractor_diamondtriangles.svg	stimuli_distractor_diamondtriangles.svg	40	no	57	0	633
6.6.1	and	2022-12-26	18:52:33	18:57:02	257713	5d44b06e62ed9000017ad64c	584347137	1	main_slash	7	main_slash	11	stimuli_target_trianglesquares.svg	stimuli_distractor_trianglediamonds.svg	18	yes	0	0	2000
6.6.1	and	2022-12-26	18:52:33	18:57:02	257713	5d44b06e62ed9000017ad64c	584347137	1	main_slash	7	advance_on_keypress_SLASH	12	stimuli_target_trianglesquares.svg	stimuli_distractor_trianglediamonds.svg	18	yes	57	0	297
6.6.1	and	2022-12-26	18:52:33	18:57:04	259215	5d44b06e62ed9000017ad64c	584347137	1	main_slash	7	main_slash	13	stimuli_distractor_trianglediamonds.svg	stimuli_target_trianglesquares.svg	26	yes	53	1	574
6.6.1	and	2022-12-26	18:52:33	18:57:04	259215	5d44b06e62ed9000017ad64c	584347137	1	main_slash	7	advance_on_keypress_SLASH	14	stimuli_distractor_trianglediamonds.svg	stimuli_target_trianglesquares.svg	26	yes	57	0	605
6.6.1	and	2022-12-26	18:52:33	18:57:07	262456	5d44b06e62ed9000017ad64c	584347137	1	main_slash	7	main_slash	15	stimuli_target_diamondsquares.svg	stimuli_distractor_trianglediamonds.svg	20	yes	0	0	2000
6.6.1	and	2022-12-26	18:52:33	18:57:07	262456	5d44b06e62ed9000017ad64c	584347137	1	main_slash	7	advance_on_keypress_SLASH	16	stimuli_target_diamondsquares.svg	stimuli_distractor_trianglediamonds.svg	20	yes	57	0	439
6.6.1	and	2022-12-26	18:52:33	18:57:08	263940	5d44b06e62ed9000017ad64c	584347137	1	main_slash	7	main_slash	17	stimuli_target_trianglecircles.svg	stimuli_distractor_diamondtriangles.svg	21	yes	53	1	421
6.6.1	and	2022-12-26	18:52:33	18:57:08	263940	5d44b06e62ed9000017ad64c	584347137	1	main_slash	7	advance_on_keypress_SLASH	18	stimuli_target_trianglecircles.svg	stimuli_distractor_diamondtriangles.svg	21	yes	57	0	775
6.6.1	and	2022-12-26	18:52:33	18:57:10	265823	5d44b06e62ed9000017ad64c	584347137	1	main_slash	7	main_slash	19	stimuli_target_squarediamonds.svg	stimuli_distractor_diamondtriangles.svg	8	yes	53	1	488
6.6.1	and	2022-12-26	18:52:33	18:57:10	265823	5d44b06e62ed9000017ad64c	584347137	1	main_slash	7	advance_on_keypress_SLASH	20	stimuli_target_squarediamonds.svg	stimuli_distractor_diamondtriangles.svg	8	yes	57	0	700
6.6.1	and	2022-12-26	18:52:33	18:57:12	267520	5d44b06e62ed9000017ad64c	584347137	1	main_slash	7	main_slash	21	stimuli_distractor_trianglediamonds.svg	stimuli_target_diamondsquares.svg	28	yes	53	1	370
6.6.1	and	2022-12-26	18:52:33	18:57:12	267520	5d44b06e62ed9000017ad64c	584347137	1	main_slash	7	advance_on_keypress_SLASH	22	stimuli_distractor_trianglediamonds.svg	stimuli_target_diamondsquares.svg	28	yes	57	0	488
6.6.1	and	2022-12-26	18:52:33	18:57:15	270665	5d44b06e62ed9000017ad64c	584347137	1	main_slash	7	main_slash	23	stimuli_distractor_trianglediamonds.svg	stimuli_distractor_diamondtriangles.svg	35	no	0	1	2000
6.6.1	and	2022-12-26	18:52:33	18:57:15	270665	5d44b06e62ed9000017ad64c	584347137	1	main_slash	7	advance_on_keypress_SLASH	24	stimuli_distractor_trianglediamonds.svg	stimuli_distractor_diamondtriangles.svg	35	no	57	0	283
6.6.1	and	2022-12-26	18:52:33	18:57:17	272708	5d44b06e62ed9000017ad64c	584347137	1	main_slash	7	main_slash	25	stimuli_target_trianglesquares.svg	stimuli_distractor_diamondtriangles.svg	22	yes	53	1	1129
6.6.1	and	2022-12-26	18:52:33	18:57:17	272708	5d44b06e62ed9000017ad64c	584347137	1	main_slash	7	advance_on_keypress_SLASH	26	stimuli_target_trianglesquares.svg	stimuli_distractor_diamondtriangles.svg	22	yes	57	0	599
6.6.1	and	2022-12-26	18:52:33	18:57:19	274304	5d44b06e62ed9000017ad64c	584347137	1	main_slash	7	main_slash	27	stimuli_target_circlediamonds.svg	stimuli_distractor_diamondtriangles.svg	6	yes	53	1	361
6.6.1	and	2022-12-26	18:52:33	18:57:19	274304	5d44b06e62ed9000017ad64c	584347137	1	main_slash	7	advance_on_keypress_SLASH	28	stimuli_target_circlediamonds.svg	stimuli_distractor_diamondtriangles.svg	6	yes	57	0	480
6.6.1	and	2022-12-26	18:52:33	18:57:22	277427	5d44b06e62ed9000017ad64c	584347137	1	main_slash	7	main_slash	29	stimuli_distractor_diamondtriangles.svg	stimuli_distractor_trianglediamonds.svg	37	no	0	1	2000
6.6.1	and	2022-12-26	18:52:33	18:57:22	277427	5d44b06e62ed9000017ad64c	584347137	1	main_slash	7	advance_on_keypress_SLASH	30	stimuli_distractor_diamondtriangles.svg	stimuli_distractor_trianglediamonds.svg	37	no	57	0	263
6.6.1	and	2022-12-26	18:52:33	18:57:23	278928	5d44b06e62ed9000017ad64c	584347137	1	main_slash	7	main_slash	31	stimuli_distractor_diamondtriangles.svg	stimuli_target_circlediamonds.svg	14	yes	53	1	604
6.6.1	and	2022-12-26	18:52:33	18:57:23	278928	5d44b06e62ed9000017ad64c	584347137	1	main_slash	7	advance_on_keypress_SLASH	32	stimuli_distractor_diamondtriangles.svg	stimuli_target_circlediamonds.svg	14	yes	57	0	387
6.6.1	and	2022-12-26	18:52:33	18:57:25	280369	5d44b06e62ed9000017ad64c	584347137	1	main_slash	7	main_slash	33	stimuli_target_diamondcircles.svg	stimuli_distractor_trianglediamonds.svg	19	yes	53	1	415
6.6.1	and	2022-12-26	18:52:33	18:57:25	280369	5d44b06e62ed9000017ad64c	584347137	1	main_slash	7	advance_on_keypress_SLASH	34	stimuli_target_diamondcircles.svg	stimuli_distractor_trianglediamonds.svg	19	yes	57	0	421
6.6.1	and	2022-12-26	18:52:33	18:57:26	281911	5d44b06e62ed9000017ad64c	584347137	1	main_slash	7	main_slash	35	stimuli_distractor_trianglediamonds.svg	stimuli_target_trianglecircles.svg	25	yes	53	1	490
6.6.1	and	2022-12-26	18:52:33	18:57:26	281911	5d44b06e62ed9000017ad64c	584347137	1	main_slash	7	advance_on_keypress_SLASH	36	stimuli_distractor_trianglediamonds.svg	stimuli_target_trianglecircles.svg	25	yes	57	0	660
6.6.1	and	2022-12-26	18:52:33	18:57:29	284049	5d44b06e62ed9000017ad64c	584347137	1	main_slash	7	main_slash	37	stimuli_target_diamondsquares.svg	stimuli_distractor_diamondtriangles.svg	24	yes	53	1	830
6.6.1	and	2022-12-26	18:52:33	18:57:29	284049	5d44b06e62ed9000017ad64c	584347137	1	main_slash	7	advance_on_keypress_SLASH	38	stimuli_target_diamondsquares.svg	stimuli_distractor_diamondtriangles.svg	24	yes	57	0	506
6.6.1	and	2022-12-26	18:52:33	18:57:30	285812	5d44b06e62ed9000017ad64c	584347137	1	main_slash	7	main_slash	39	stimuli_distractor_diamondtriangles.svg	stimuli_target_circletriangles.svg	13	yes	53	1	630
6.6.1	and	2022-12-26	18:52:33	18:57:30	285812	5d44b06e62ed9000017ad64c	584347137	1	main_slash	7	advance_on_keypress_SLASH	40	stimuli_distractor_diamondtriangles.svg	stimuli_target_circletriangles.svg	13	yes	57	0	644
6.6.1	and	2022-12-26	18:52:33	18:57:32	287890	5d44b06e62ed9000017ad64c	584347137	1	main_slash	7	main_slash	41	stimuli_distractor_trianglediamonds.svg	stimuli_target_squaretriangles.svg	11	yes	53	1	775
6.6.1	and	2022-12-26	18:52:33	18:57:32	287890	5d44b06e62ed9000017ad64c	584347137	1	main_slash	7	advance_on_keypress_SLASH	42	stimuli_distractor_trianglediamonds.svg	stimuli_target_squaretriangles.svg	11	yes	57	0	491
6.6.1	and	2022-12-26	18:52:33	18:57:35	289995	5d44b06e62ed9000017ad64c	584347137	1	main_slash	7	main_slash	43	stimuli_distractor_diamondtriangles.svg	stimuli_target_trianglesquares.svg	30	yes	53	1	983
6.6.1	and	2022-12-26	18:52:33	18:57:35	289995	5d44b06e62ed9000017ad64c	584347137	1	main_slash	7	advance_on_keypress_SLASH	44	stimuli_distractor_diamondtriangles.svg	stimuli_target_trianglesquares.svg	30	yes	57	0	390
6.6.1	and	2022-12-26	18:52:33	18:57:36	291573	5d44b06e62ed9000017ad64c	584347137	1	main_slash	7	main_slash	45	stimuli_target_trianglecircles.svg	stimuli_distractor_trianglediamonds.svg	17	yes	53	1	562
6.6.1	and	2022-12-26	18:52:33	18:57:36	291573	5d44b06e62ed9000017ad64c	584347137	1	main_slash	7	advance_on_keypress_SLASH	46	stimuli_target_trianglecircles.svg	stimuli_distractor_trianglediamonds.svg	17	yes	57	0	436
6.6.1	and	2022-12-26	18:52:33	18:57:38	293202	5d44b06e62ed9000017ad64c	584347137	1	main_slash	7	main_slash	47	stimuli_distractor_diamondtriangles.svg	stimuli_target_diamondcircles.svg	31	yes	53	1	558
6.6.1	and	2022-12-26	18:52:33	18:57:38	293202	5d44b06e62ed9000017ad64c	584347137	1	main_slash	7	advance_on_keypress_SLASH	48	stimuli_distractor_diamondtriangles.svg	stimuli_target_diamondcircles.svg	31	yes	57	0	510
6.6.1	and	2022-12-26	18:52:33	18:57:39	294712	5d44b06e62ed9000017ad64c	584347137	1	main_slash	7	main_slash	49	stimuli_target_circletriangles.svg	stimuli_distractor_diamondtriangles.svg	5	yes	53	1	357
6.6.1	and	2022-12-26	18:52:33	18:57:39	294712	5d44b06e62ed9000017ad64c	584347137	1	main_slash	7	advance_on_keypress_SLASH	50	stimuli_target_circletriangles.svg	stimuli_distractor_diamondtriangles.svg	5	yes	57	0	434
6.6.1	and	2022-12-26	18:52:33	18:57:41	296124	5d44b06e62ed9000017ad64c	584347137	1	main_slash	7	main_slash	51	stimuli_distractor_diamondtriangles.svg	stimuli_target_trianglecircles.svg	29	yes	53	1	353
6.6.1	and	2022-12-26	18:52:33	18:57:41	296124	5d44b06e62ed9000017ad64c	584347137	1	main_slash	7	advance_on_keypress_SLASH	52	stimuli_distractor_diamondtriangles.svg	stimuli_target_trianglecircles.svg	29	yes	57	0	451
6.6.1	and	2022-12-26	18:52:33	18:57:42	297533	5d44b06e62ed9000017ad64c	584347137	1	main_slash	7	main_slash	53	stimuli_distractor_diamondtriangles.svg	stimuli_distractor_diamondtriangles.svg	39	no	53	0	326
6.6.1	and	2022-12-26	18:52:33	18:57:42	297533	5d44b06e62ed9000017ad64c	584347137	1	main_slash	7	advance_on_keypress_SLASH	54	stimuli_distractor_diamondtriangles.svg	stimuli_distractor_diamondtriangles.svg	39	no	57	0	416
6.6.1	and	2022-12-26	18:52:33	18:57:44	299493	5d44b06e62ed9000017ad64c	584347137	1	main_slash	7	main_slash	55	stimuli_target_diamondcircles.svg	stimuli_distractor_diamondtriangles.svg	23	yes	53	1	903
6.6.1	and	2022-12-26	18:52:33	18:57:44	299493	5d44b06e62ed9000017ad64c	584347137	1	main_slash	7	advance_on_keypress_SLASH	56	stimuli_target_diamondcircles.svg	stimuli_distractor_diamondtriangles.svg	23	yes	57	0	864
6.6.1	and	2022-12-26	18:52:33	18:57:46	301544	5d44b06e62ed9000017ad64c	584347137	1	main_slash	7	main_slash	57	stimuli_distractor_trianglediamonds.svg	stimuli_distractor_diamondtriangles.svg	36	no	53	0	554
6.6.1	and	2022-12-26	18:52:33	18:57:46	301544	5d44b06e62ed9000017ad64c	584347137	1	main_slash	7	advance_on_keypress_SLASH	58	stimuli_distractor_trianglediamonds.svg	stimuli_distractor_diamondtriangles.svg	36	no	57	0	382
6.6.1	and	2022-12-26	18:52:33	18:57:49	304567	5d44b06e62ed9000017ad64c	584347137	1	main_slash	7	main_slash	59	stimuli_distractor_trianglediamonds.svg	stimuli_distractor_trianglediamonds.svg	34	no	0	1	2000
6.6.1	and	2022-12-26	18:52:33	18:57:49	304567	5d44b06e62ed9000017ad64c	584347137	1	main_slash	7	advance_on_keypress_SLASH	60	stimuli_distractor_trianglediamonds.svg	stimuli_distractor_trianglediamonds.svg	34	no	57	0	323
6.6.1	and	2022-12-26	18:52:33	18:57:52	307531	5d44b06e62ed9000017ad64c	584347137	1	main_slash	7	main_slash	61	stimuli_distractor_diamondtriangles.svg	stimuli_target_diamondsquares.svg	32	yes	0	0	2000
6.6.1	and	2022-12-26	18:52:33	18:57:52	307531	5d44b06e62ed9000017ad64c	584347137	1	main_slash	7	advance_on_keypress_SLASH	62	stimuli_distractor_diamondtriangles.svg	stimuli_target_diamondsquares.svg	32	yes	57	0	373
6.6.1	and	2022-12-26	18:52:33	18:57:54	309248	5d44b06e62ed9000017ad64c	584347137	1	main_slash	7	main_slash	63	stimuli_distractor_diamondtriangles.svg	stimuli_distractor_trianglediamonds.svg	38	no	53	0	723
6.6.1	and	2022-12-26	18:52:33	18:57:54	309248	5d44b06e62ed9000017ad64c	584347137	1	main_slash	7	advance_on_keypress_SLASH	64	stimuli_distractor_diamondtriangles.svg	stimuli_distractor_trianglediamonds.svg	38	no	57	0	392
6.6.1	and	2022-12-26	18:52:33	18:57:55	310637	5d44b06e62ed9000017ad64c	584347137	1	main_slash	7	main_slash	65	stimuli_distractor_trianglediamonds.svg	stimuli_target_circlediamonds.svg	10	yes	53	1	346
6.6.1	and	2022-12-26	18:52:33	18:57:55	310637	5d44b06e62ed9000017ad64c	584347137	1	main_slash	7	advance_on_keypress_SLASH	66	stimuli_distractor_trianglediamonds.svg	stimuli_target_circlediamonds.svg	10	yes	57	0	432
6.6.1	and	2022-12-26	18:52:33	18:57:57	312105	5d44b06e62ed9000017ad64c	584347137	1	main_slash	7	main_slash	67	stimuli_target_circlediamonds.svg	stimuli_distractor_trianglediamonds.svg	2	yes	53	1	385
6.6.1	and	2022-12-26	18:52:33	18:57:57	312105	5d44b06e62ed9000017ad64c	584347137	1	main_slash	7	advance_on_keypress_SLASH	68	stimuli_target_circlediamonds.svg	stimuli_distractor_trianglediamonds.svg	2	yes	57	0	408
6.6.1	and	2022-12-26	18:52:33	18:57:58	313660	5d44b06e62ed9000017ad64c	584347137	1	main_slash	7	main_slash	69	stimuli_distractor_diamondtriangles.svg	stimuli_target_squaretriangles.svg	15	yes	53	1	505
6.6.1	and	2022-12-26	18:52:33	18:57:58	313660	5d44b06e62ed9000017ad64c	584347137	1	main_slash	7	advance_on_keypress_SLASH	70	stimuli_distractor_diamondtriangles.svg	stimuli_target_squaretriangles.svg	15	yes	57	0	766
6.6.1	and	2022-12-26	18:52:33	18:58:00	315484	5d44b06e62ed9000017ad64c	584347137	1	main_slash	7	main_slash	71	stimuli_distractor_trianglediamonds.svg	stimuli_target_circletriangles.svg	9	yes	53	1	393
6.6.1	and	2022-12-26	18:52:33	18:58:00	315484	5d44b06e62ed9000017ad64c	584347137	1	main_slash	7	advance_on_keypress_SLASH	72	stimuli_distractor_trianglediamonds.svg	stimuli_target_circletriangles.svg	9	yes	57	0	428
6.6.1	and	2022-12-26	18:52:33	18:58:01	316910	5d44b06e62ed9000017ad64c	584347137	1	main_slash	7	main_slash	73	stimuli_target_squaretriangles.svg	stimuli_distractor_diamondtriangles.svg	7	yes	53	1	360
6.6.1	and	2022-12-26	18:52:33	18:58:01	316910	5d44b06e62ed9000017ad64c	584347137	1	main_slash	7	advance_on_keypress_SLASH	74	stimuli_target_squaretriangles.svg	stimuli_distractor_diamondtriangles.svg	7	yes	57	0	387
6.6.1	and	2022-12-26	18:52:33	18:58:03	318483	5d44b06e62ed9000017ad64c	584347137	1	main_slash	7	main_slash	75	stimuli_distractor_trianglediamonds.svg	stimuli_distractor_trianglediamonds.svg	33	no	53	0	550
6.6.1	and	2022-12-26	18:52:33	18:58:03	318483	5d44b06e62ed9000017ad64c	584347137	1	main_slash	7	advance_on_keypress_SLASH	76	stimuli_distractor_trianglediamonds.svg	stimuli_distractor_trianglediamonds.svg	33	no	57	0	375
6.6.1	and	2022-12-26	18:52:33	18:58:05	320014	5d44b06e62ed9000017ad64c	584347137	1	main_slash	7	main_slash	77	stimuli_distractor_diamondtriangles.svg	stimuli_target_squarediamonds.svg	16	yes	53	1	530
6.6.1	and	2022-12-26	18:52:33	18:58:05	320014	5d44b06e62ed9000017ad64c	584347137	1	main_slash	7	advance_on_keypress_SLASH	78	stimuli_distractor_diamondtriangles.svg	stimuli_target_squarediamonds.svg	16	yes	57	0	515
6.6.1	and	2022-12-26	18:52:33	18:58:06	321504	5d44b06e62ed9000017ad64c	584347137	1	main_slash	7	main_slash	79	stimuli_target_squaretriangles.svg	stimuli_distractor_trianglediamonds.svg	3	yes	53	1	341
6.6.1	and	2022-12-26	18:52:33	18:58:06	321504	5d44b06e62ed9000017ad64c	584347137	1	main_slash	7	advance_on_keypress_SLASH	80	stimuli_target_squaretriangles.svg	stimuli_distractor_trianglediamonds.svg	3	yes	57	0	346
6.6.1	and	2022-12-26	18:52:33	18:58:07	322816	5d44b06e62ed9000017ad64c	584347137	1	main_slash	7	main_slash	81	stimuli_distractor_diamondtriangles.svg	stimuli_target_circletriangles.svg	13	yes	53	1	338
6.6.1	and	2022-12-26	18:52:33	18:58:07	322816	5d44b06e62ed9000017ad64c	584347137	1	main_slash	7	advance_on_keypress_SLASH	82	stimuli_distractor_diamondtriangles.svg	stimuli_target_circletriangles.svg	13	yes	57	0	991
6.6.1	and	2022-12-26	18:52:33	18:58:09	324753	5d44b06e62ed9000017ad64c	584347137	1	main_slash	7	main_slash	83	stimuli_distractor_diamondtriangles.svg	stimuli_distractor_trianglediamonds.svg	37	no	53	0	310
6.6.1	and	2022-12-26	18:52:33	18:58:09	324753	5d44b06e62ed9000017ad64c	584347137	1	main_slash	7	advance_on_keypress_SLASH	84	stimuli_distractor_diamondtriangles.svg	stimuli_distractor_trianglediamonds.svg	37	no	57	0	452
6.6.1	and	2022-12-26	18:52:33	18:58:11	326397	5d44b06e62ed9000017ad64c	584347137	1	main_slash	7	main_slash	85	stimuli_distractor_trianglediamonds.svg	stimuli_target_squarediamonds.svg	12	yes	53	1	555
6.6.1	and	2022-12-26	18:52:33	18:58:11	326397	5d44b06e62ed9000017ad64c	584347137	1	main_slash	7	advance_on_keypress_SLASH	86	stimuli_distractor_trianglediamonds.svg	stimuli_target_squarediamonds.svg	12	yes	57	0	441
6.6.1	and	2022-12-26	18:52:33	18:58:13	327996	5d44b06e62ed9000017ad64c	584347137	1	main_slash	7	main_slash	87	stimuli_distractor_trianglediamonds.svg	stimuli_target_diamondsquares.svg	28	yes	53	1	540
6.6.1	and	2022-12-26	18:52:33	18:58:13	327996	5d44b06e62ed9000017ad64c	584347137	1	main_slash	7	advance_on_keypress_SLASH	88	stimuli_distractor_trianglediamonds.svg	stimuli_target_diamondsquares.svg	28	yes	57	0	376
6.6.1	and	2022-12-26	18:52:33	18:58:16	331026	5d44b06e62ed9000017ad64c	584347137	1	main_slash	7	main_slash	89	stimuli_distractor_diamondtriangles.svg	stimuli_distractor_trianglediamonds.svg	38	no	0	1	2000
6.6.1	and	2022-12-26	18:52:33	18:58:16	331026	5d44b06e62ed9000017ad64c	584347137	1	main_slash	7	advance_on_keypress_SLASH	90	stimuli_distractor_diamondtriangles.svg	stimuli_distractor_trianglediamonds.svg	38	no	57	0	365
6.6.1	and	2022-12-26	18:52:33	18:58:17	332748	5d44b06e62ed9000017ad64c	584347137	1	main_slash	7	main_slash	91	stimuli_distractor_trianglediamonds.svg	stimuli_distractor_diamondtriangles.svg	35	no	53	0	729
6.6.1	and	2022-12-26	18:52:33	18:58:17	332748	5d44b06e62ed9000017ad64c	584347137	1	main_slash	7	advance_on_keypress_SLASH	92	stimuli_distractor_trianglediamonds.svg	stimuli_distractor_diamondtriangles.svg	35	no	57	0	375
6.6.1	and	2022-12-26	18:52:33	18:58:19	334428	5d44b06e62ed9000017ad64c	584347137	1	main_slash	7	main_slash	93	stimuli_target_trianglesquares.svg	stimuli_distractor_diamondtriangles.svg	22	yes	53	1	676
6.6.1	and	2022-12-26	18:52:33	18:58:19	334428	5d44b06e62ed9000017ad64c	584347137	1	main_slash	7	advance_on_keypress_SLASH	94	stimuli_target_trianglesquares.svg	stimuli_distractor_diamondtriangles.svg	22	yes	57	0	566
6.6.1	and	2022-12-26	18:52:33	18:58:21	336149	5d44b06e62ed9000017ad64c	584347137	1	main_slash	7	main_slash	95	stimuli_target_circlediamonds.svg	stimuli_distractor_trianglediamonds.svg	2	yes	53	1	517
6.6.1	and	2022-12-26	18:52:33	18:58:21	336149	5d44b06e62ed9000017ad64c	584347137	1	main_slash	7	advance_on_keypress_SLASH	96	stimuli_target_circlediamonds.svg	stimuli_distractor_trianglediamonds.svg	2	yes	57	0	364
6.6.1	and	2022-12-26	18:52:33	18:58:22	337566	5d44b06e62ed9000017ad64c	584347137	1	main_slash	7	main_slash	97	stimuli_target_circletriangles.svg	stimuli_distractor_diamondtriangles.svg	5	yes	53	1	419
6.6.1	and	2022-12-26	18:52:33	18:58:22	337566	5d44b06e62ed9000017ad64c	584347137	1	main_slash	7	advance_on_keypress_SLASH	98	stimuli_target_circletriangles.svg	stimuli_distractor_diamondtriangles.svg	5	yes	57	0	452
6.6.1	and	2022-12-26	18:52:33	18:58:24	339050	5d44b06e62ed9000017ad64c	584347137	1	main_slash	7	main_slash	99	stimuli_target_squarediamonds.svg	stimuli_distractor_diamondtriangles.svg	8	yes	53	1	404
6.6.1	and	2022-12-26	18:52:33	18:58:24	339050	5d44b06e62ed9000017ad64c	584347137	1	main_slash	7	advance_on_keypress_SLASH	100	stimuli_target_squarediamonds.svg	stimuli_distractor_diamondtriangles.svg	8	yes	57	0	370
6.6.1	and	2022-12-26	18:52:33	18:58:25	340408	5d44b06e62ed9000017ad64c	584347137	1	main_slash	7	main_slash	101	stimuli_target_circletriangles.svg	stimuli_distractor_trianglediamonds.svg	1	yes	53	1	361
6.6.1	and	2022-12-26	18:52:33	18:58:25	340408	5d44b06e62ed9000017ad64c	584347137	1	main_slash	7	advance_on_keypress_SLASH	102	stimuli_target_circletriangles.svg	stimuli_distractor_trianglediamonds.svg	1	yes	57	0	334
6.6.1	and	2022-12-26	18:52:33	18:58:26	341671	5d44b06e62ed9000017ad64c	584347137	1	main_slash	7	main_slash	103	stimuli_target_diamondcircles.svg	stimuli_distractor_trianglediamonds.svg	19	yes	53	1	295
6.6.1	and	2022-12-26	18:52:33	18:58:26	341671	5d44b06e62ed9000017ad64c	584347137	1	main_slash	7	advance_on_keypress_SLASH	104	stimuli_target_diamondcircles.svg	stimuli_distractor_trianglediamonds.svg	19	yes	57	0	194
6.6.1	and	2022-12-26	18:52:33	18:58:27	342747	5d44b06e62ed9000017ad64c	584347137	1	main_slash	7	main_slash	105	stimuli_distractor_diamondtriangles.svg	stimuli_target_diamondsquares.svg	32	yes	53	1	238
6.6.1	and	2022-12-26	18:52:33	18:58:27	342747	5d44b06e62ed9000017ad64c	584347137	1	main_slash	7	advance_on_keypress_SLASH	106	stimuli_distractor_diamondtriangles.svg	stimuli_target_diamondsquares.svg	32	yes	57	0	446
6.6.1	and	2022-12-26	18:52:33	18:58:30	345825	5d44b06e62ed9000017ad64c	584347137	1	main_slash	7	main_slash	107	stimuli_target_diamondsquares.svg	stimuli_distractor_trianglediamonds.svg	20	yes	0	0	2000
6.6.1	and	2022-12-26	18:52:33	18:58:30	345825	5d44b06e62ed9000017ad64c	584347137	1	main_slash	7	advance_on_keypress_SLASH	108	stimuli_target_diamondsquares.svg	stimuli_distractor_trianglediamonds.svg	20	yes	57	0	324
6.6.1	and	2022-12-26	18:52:33	18:58:32	347123	5d44b06e62ed9000017ad64c	584347137	1	main_slash	7	main_slash	109	stimuli_distractor_diamondtriangles.svg	stimuli_target_trianglecircles.svg	29	yes	53	1	352
6.6.1	and	2022-12-26	18:52:33	18:58:32	347123	5d44b06e62ed9000017ad64c	584347137	1	main_slash	7	advance_on_keypress_SLASH	110	stimuli_distractor_diamondtriangles.svg	stimuli_target_trianglecircles.svg	29	yes	57	0	298
6.6.1	and	2022-12-26	18:52:33	18:58:33	348535	5d44b06e62ed9000017ad64c	584347137	1	main_slash	7	main_slash	111	stimuli_target_squarediamonds.svg	stimuli_distractor_trianglediamonds.svg	4	yes	53	1	481
6.6.1	and	2022-12-26	18:52:33	18:58:33	348535	5d44b06e62ed9000017ad64c	584347137	1	main_slash	7	advance_on_keypress_SLASH	112	stimuli_target_squarediamonds.svg	stimuli_distractor_trianglediamonds.svg	4	yes	57	0	280
6.6.1	and	2022-12-26	18:52:33	18:58:35	350095	5d44b06e62ed9000017ad64c	584347137	1	main_slash	7	main_slash	113	stimuli_target_trianglecircles.svg	stimuli_distractor_diamondtriangles.svg	21	yes	53	1	642
6.6.1	and	2022-12-26	18:52:33	18:58:35	350095	5d44b06e62ed9000017ad64c	584347137	1	main_slash	7	advance_on_keypress_SLASH	114	stimuli_target_trianglecircles.svg	stimuli_distractor_diamondtriangles.svg	21	yes	57	0	393
6.6.1	and	2022-12-26	18:52:33	18:58:36	351713	5d44b06e62ed9000017ad64c	584347137	1	main_slash	7	main_slash	115	stimuli_distractor_trianglediamonds.svg	stimuli_target_squaretriangles.svg	11	yes	53	1	579
6.6.1	and	2022-12-26	18:52:33	18:58:36	351713	5d44b06e62ed9000017ad64c	584347137	1	main_slash	7	advance_on_keypress_SLASH	116	stimuli_distractor_trianglediamonds.svg	stimuli_target_squaretriangles.svg	11	yes	57	0	396
6.6.1	and	2022-12-26	18:52:33	18:58:38	353503	5d44b06e62ed9000017ad64c	584347137	1	main_slash	7	main_slash	117	stimuli_distractor_trianglediamonds.svg	stimuli_target_diamondcircles.svg	27	yes	53	1	754
6.6.1	and	2022-12-26	18:52:33	18:58:38	353503	5d44b06e62ed9000017ad64c	584347137	1	main_slash	7	advance_on_keypress_SLASH	118	stimuli_distractor_trianglediamonds.svg	stimuli_target_diamondcircles.svg	27	yes	57	0	559
6.6.1	and	2022-12-26	18:52:33	18:58:40	355671	5d44b06e62ed9000017ad64c	584347137	1	main_slash	7	main_slash	119	stimuli_target_diamondcircles.svg	stimuli_distractor_diamondtriangles.svg	23	yes	53	1	973
6.6.1	and	2022-12-26	18:52:33	18:58:40	355671	5d44b06e62ed9000017ad64c	584347137	1	main_slash	7	advance_on_keypress_SLASH	120	stimuli_target_diamondcircles.svg	stimuli_distractor_diamondtriangles.svg	23	yes	57	0	477
6.6.1	and	2022-12-26	18:52:33	18:58:42	357466	5d44b06e62ed9000017ad64c	584347137	1	main_slash	7	main_slash	121	stimuli_distractor_diamondtriangles.svg	stimuli_target_squarediamonds.svg	16	yes	53	1	671
6.6.1	and	2022-12-26	18:52:33	18:58:42	357466	5d44b06e62ed9000017ad64c	584347137	1	main_slash	7	advance_on_keypress_SLASH	122	stimuli_distractor_diamondtriangles.svg	stimuli_target_squarediamonds.svg	16	yes	57	0	394
6.6.1	and	2022-12-26	18:52:33	18:58:45	360495	5d44b06e62ed9000017ad64c	584347137	1	main_slash	7	main_slash	123	stimuli_distractor_diamondtriangles.svg	stimuli_distractor_diamondtriangles.svg	40	no	0	1	2000
6.6.1	and	2022-12-26	18:52:33	18:58:45	360495	5d44b06e62ed9000017ad64c	584347137	1	main_slash	7	advance_on_keypress_SLASH	124	stimuli_distractor_diamondtriangles.svg	stimuli_distractor_diamondtriangles.svg	40	no	57	0	14896
6.6.1	and	2022-12-26	18:52:33	18:59:01	376463	5d44b06e62ed9000017ad64c	584347137	1	main_slash	7	main_slash	125	stimuli_target_squaretriangles.svg	stimuli_distractor_trianglediamonds.svg	3	yes	53	1	437
6.6.1	and	2022-12-26	18:52:33	18:59:01	376463	5d44b06e62ed9000017ad64c	584347137	1	main_slash	7	advance_on_keypress_SLASH	126	stimuli_target_squaretriangles.svg	stimuli_distractor_trianglediamonds.svg	3	yes	57	0	359
6.6.1	and	2022-12-26	18:52:33	18:59:02	377805	5d44b06e62ed9000017ad64c	584347137	1	main_slash	7	main_slash	127	stimuli_distractor_diamondtriangles.svg	stimuli_target_circlediamonds.svg	14	yes	53	1	363
6.6.1	and	2022-12-26	18:52:33	18:59:02	377805	5d44b06e62ed9000017ad64c	584347137	1	main_slash	7	advance_on_keypress_SLASH	128	stimuli_distractor_diamondtriangles.svg	stimuli_target_circlediamonds.svg	14	yes	57	0	310
6.6.1	and	2022-12-26	18:52:33	18:59:04	379157	5d44b06e62ed9000017ad64c	584347137	1	main_slash	7	main_slash	129	stimuli_target_circlediamonds.svg	stimuli_distractor_diamondtriangles.svg	6	yes	53	1	395
6.6.1	and	2022-12-26	18:52:33	18:59:04	379157	5d44b06e62ed9000017ad64c	584347137	1	main_slash	7	advance_on_keypress_SLASH	130	stimuli_target_circlediamonds.svg	stimuli_distractor_diamondtriangles.svg	6	yes	57	0	338
6.6.1	and	2022-12-26	18:52:33	18:59:05	380478	5d44b06e62ed9000017ad64c	584347137	1	main_slash	7	main_slash	131	stimuli_distractor_trianglediamonds.svg	stimuli_target_trianglecircles.svg	25	yes	53	1	337
6.6.1	and	2022-12-26	18:52:33	18:59:05	380478	5d44b06e62ed9000017ad64c	584347137	1	main_slash	7	advance_on_keypress_SLASH	132	stimuli_distractor_trianglediamonds.svg	stimuli_target_trianglecircles.svg	25	yes	57	0	356
6.6.1	and	2022-12-26	18:52:33	18:59:07	381973	5d44b06e62ed9000017ad64c	584347137	1	main_slash	7	main_slash	133	stimuli_target_trianglecircles.svg	stimuli_distractor_trianglediamonds.svg	17	yes	53	1	521
6.6.1	and	2022-12-26	18:52:33	18:59:07	381973	5d44b06e62ed9000017ad64c	584347137	1	main_slash	7	advance_on_keypress_SLASH	134	stimuli_target_trianglecircles.svg	stimuli_distractor_trianglediamonds.svg	17	yes	57	0	385
6.6.1	and	2022-12-26	18:52:33	18:59:08	383586	5d44b06e62ed9000017ad64c	584347137	1	main_slash	7	main_slash	135	stimuli_distractor_trianglediamonds.svg	stimuli_target_trianglesquares.svg	26	yes	53	1	581
6.6.1	and	2022-12-26	18:52:33	18:59:08	383586	5d44b06e62ed9000017ad64c	584347137	1	main_slash	7	advance_on_keypress_SLASH	136	stimuli_distractor_trianglediamonds.svg	stimuli_target_trianglesquares.svg	26	yes	57	0	409
6.6.1	and	2022-12-26	18:52:33	18:59:10	385038	5d44b06e62ed9000017ad64c	584347137	1	main_slash	7	main_slash	137	stimuli_distractor_diamondtriangles.svg	stimuli_target_squaretriangles.svg	15	yes	53	1	403
6.6.1	and	2022-12-26	18:52:33	18:59:10	385038	5d44b06e62ed9000017ad64c	584347137	1	main_slash	7	advance_on_keypress_SLASH	138	stimuli_distractor_diamondtriangles.svg	stimuli_target_squaretriangles.svg	15	yes	57	0	374
6.6.1	and	2022-12-26	18:52:33	18:59:12	387190	5d44b06e62ed9000017ad64c	584347137	1	main_slash	7	main_slash	139	stimuli_distractor_trianglediamonds.svg	stimuli_target_circletriangles.svg	9	yes	53	1	1141
6.6.1	and	2022-12-26	18:52:33	18:59:12	387190	5d44b06e62ed9000017ad64c	584347137	1	main_slash	7	advance_on_keypress_SLASH	140	stimuli_distractor_trianglediamonds.svg	stimuli_target_circletriangles.svg	9	yes	57	0	617
6.6.1	and	2022-12-26	18:52:33	18:59:15	390448	5d44b06e62ed9000017ad64c	584347137	1	main_slash	7	main_slash	141	stimuli_distractor_trianglediamonds.svg	stimuli_distractor_trianglediamonds.svg	33	no	0	1	2000
6.6.1	and	2022-12-26	18:52:33	18:59:15	390448	5d44b06e62ed9000017ad64c	584347137	1	main_slash	7	advance_on_keypress_SLASH	142	stimuli_distractor_trianglediamonds.svg	stimuli_distractor_trianglediamonds.svg	33	no	57	0	319
6.6.1	and	2022-12-26	18:52:33	18:59:16	391693	5d44b06e62ed9000017ad64c	584347137	1	main_slash	7	main_slash	143	stimuli_distractor_diamondtriangles.svg	stimuli_target_trianglesquares.svg	30	yes	53	1	299
6.6.1	and	2022-12-26	18:52:33	18:59:16	391693	5d44b06e62ed9000017ad64c	584347137	1	main_slash	7	advance_on_keypress_SLASH	144	stimuli_distractor_diamondtriangles.svg	stimuli_target_trianglesquares.svg	30	yes	57	0	566
6.6.1	and	2022-12-26	18:52:33	18:59:18	393306	5d44b06e62ed9000017ad64c	584347137	1	main_slash	7	main_slash	145	stimuli_distractor_trianglediamonds.svg	stimuli_target_circlediamonds.svg	10	yes	53	1	414
6.6.1	and	2022-12-26	18:52:33	18:59:18	393306	5d44b06e62ed9000017ad64c	584347137	1	main_slash	7	advance_on_keypress_SLASH	146	stimuli_distractor_trianglediamonds.svg	stimuli_target_circlediamonds.svg	10	yes	57	0	376
6.6.1	and	2022-12-26	18:52:33	18:59:19	394860	5d44b06e62ed9000017ad64c	584347137	1	main_slash	7	main_slash	147	stimuli_distractor_diamondtriangles.svg	stimuli_target_diamondcircles.svg	31	yes	53	1	535
6.6.1	and	2022-12-26	18:52:33	18:59:19	394860	5d44b06e62ed9000017ad64c	584347137	1	main_slash	7	advance_on_keypress_SLASH	148	stimuli_distractor_diamondtriangles.svg	stimuli_target_diamondcircles.svg	31	yes	57	0	624
6.6.1	and	2022-12-26	18:52:33	18:59:21	396715	5d44b06e62ed9000017ad64c	584347137	1	main_slash	7	main_slash	149	stimuli_target_trianglesquares.svg	stimuli_distractor_trianglediamonds.svg	18	yes	53	1	606
6.6.1	and	2022-12-26	18:52:33	18:59:21	396715	5d44b06e62ed9000017ad64c	584347137	1	main_slash	7	advance_on_keypress_SLASH	150	stimuli_target_trianglesquares.svg	stimuli_distractor_trianglediamonds.svg	18	yes	57	0	304
6.6.1	and	2022-12-26	18:52:33	18:59:23	398024	5d44b06e62ed9000017ad64c	584347137	1	main_slash	7	main_slash	151	stimuli_target_squaretriangles.svg	stimuli_distractor_diamondtriangles.svg	7	yes	53	1	365
6.6.1	and	2022-12-26	18:52:33	18:59:23	398024	5d44b06e62ed9000017ad64c	584347137	1	main_slash	7	advance_on_keypress_SLASH	152	stimuli_target_squaretriangles.svg	stimuli_distractor_diamondtriangles.svg	7	yes	57	0	409
6.6.1	and	2022-12-26	18:52:33	18:59:24	399502	5d44b06e62ed9000017ad64c	584347137	1	main_slash	7	main_slash	153	stimuli_distractor_trianglediamonds.svg	stimuli_distractor_diamondtriangles.svg	36	no	53	0	415
6.6.1	and	2022-12-26	18:52:33	18:59:24	399502	5d44b06e62ed9000017ad64c	584347137	1	main_slash	7	advance_on_keypress_SLASH	154	stimuli_distractor_trianglediamonds.svg	stimuli_distractor_diamondtriangles.svg	36	no	57	0	762
6.6.1	and	2022-12-26	18:52:33	18:59:27	402902	5d44b06e62ed9000017ad64c	584347137	1	main_slash	7	main_slash	155	stimuli_distractor_trianglediamonds.svg	stimuli_distractor_trianglediamonds.svg	34	no	0	1	2000
6.6.1	and	2022-12-26	18:52:33	18:59:27	402902	5d44b06e62ed9000017ad64c	584347137	1	main_slash	7	advance_on_keypress_SLASH	156	stimuli_distractor_trianglediamonds.svg	stimuli_distractor_trianglediamonds.svg	34	no	57	0	500
6.6.1	and	2022-12-26	18:52:33	18:59:29	404432	5d44b06e62ed9000017ad64c	584347137	1	main_slash	7	main_slash	157	stimuli_target_diamondsquares.svg	stimuli_distractor_diamondtriangles.svg	24	yes	53	1	400
6.6.1	and	2022-12-26	18:52:33	18:59:29	404432	5d44b06e62ed9000017ad64c	584347137	1	main_slash	7	advance_on_keypress_SLASH	158	stimuli_target_diamondsquares.svg	stimuli_distractor_diamondtriangles.svg	24	yes	57	0	394
6.6.1	and	2022-12-26	18:52:33	18:59:31	406266	5d44b06e62ed9000017ad64c	584347137	1	main_slash	7	main_slash	159	stimuli_distractor_diamondtriangles.svg	stimuli_distractor_diamondtriangles.svg	39	no	53	0	802
6.6.1	and	2022-12-26	18:52:33	18:59:31	406266	5d44b06e62ed9000017ad64c	584347137	1	main_slash	7	advance_on_keypress_SLASH	160	stimuli_distractor_diamondtriangles.svg	stimuli_distractor_diamondtriangles.svg	39	no	57	0	601
6.6.1	and	2022-12-26	18:52:33	18:59:48	423943	5d44b06e62ed9000017ad64c	584347137	1	practice_z	9	practice_z	1	stimuli_target_diamondsquares.svg	stimuli_distractor_diamondtriangles.svg	3	yes	0	0	2000
6.6.1	and	2022-12-26	18:52:33	18:59:48	423943	5d44b06e62ed9000017ad64c	584347137	1	practice_z	9	advance_on_keypress_ZEE	2	stimuli_target_diamondsquares.svg	stimuli_distractor_diamondtriangles.svg	3	yes	57	0	856
6.6.1	and	2022-12-26	18:52:33	18:59:51	426869	5d44b06e62ed9000017ad64c	584347137	1	practice_z	9	practice_z	3	stimuli_distractor_trianglediamonds.svg	stimuli_target_circlediamonds.svg	10	yes	44	1	422
6.6.1	and	2022-12-26	18:52:33	18:59:51	426869	5d44b06e62ed9000017ad64c	584347137	1	practice_z	9	advance_on_keypress_ZEE	4	stimuli_distractor_trianglediamonds.svg	stimuli_target_circlediamonds.svg	10	yes	57	0	454
6.6.1	and	2022-12-26	18:52:33	18:59:54	429331	5d44b06e62ed9000017ad64c	584347137	1	practice_z	9	practice_z	5	stimuli_target_circlediamonds.svg	stimuli_distractor_trianglediamonds.svg	4	yes	44	1	352
6.6.1	and	2022-12-26	18:52:33	18:59:54	429331	5d44b06e62ed9000017ad64c	584347137	1	practice_z	9	advance_on_keypress_ZEE	6	stimuli_target_circlediamonds.svg	stimuli_distractor_trianglediamonds.svg	4	yes	57	0	577
6.6.1	and	2022-12-26	18:52:33	18:59:57	431993	5d44b06e62ed9000017ad64c	584347137	1	practice_z	9	practice_z	7	stimuli_distractor_trianglediamonds.svg	stimuli_target_diamondcircles.svg	12	yes	44	1	432
6.6.1	and	2022-12-26	18:52:33	18:59:57	431993	5d44b06e62ed9000017ad64c	584347137	1	practice_z	9	advance_on_keypress_ZEE	8	stimuli_distractor_trianglediamonds.svg	stimuli_target_diamondcircles.svg	12	yes	57	0	287
6.6.1	and	2022-12-26	18:52:33	18:59:59	434230	5d44b06e62ed9000017ad64c	584347137	1	practice_z	9	practice_z	9	stimuli_target_diamondsquares.svg	stimuli_distractor_trianglediamonds.svg	6	yes	44	1	325
6.6.1	and	2022-12-26	18:52:33	18:59:59	434230	5d44b06e62ed9000017ad64c	584347137	1	practice_z	9	advance_on_keypress_ZEE	10	stimuli_target_diamondsquares.svg	stimuli_distractor_trianglediamonds.svg	6	yes	57	0	222
6.6.1	and	2022-12-26	18:52:33	19:00:01	436511	5d44b06e62ed9000017ad64c	584347137	1	practice_z	9	practice_z	11	stimuli_distractor_diamondtriangles.svg	stimuli_target_circletriangles.svg	7	yes	44	1	420
6.6.1	and	2022-12-26	18:52:33	19:00:01	436511	5d44b06e62ed9000017ad64c	584347137	1	practice_z	9	advance_on_keypress_ZEE	12	stimuli_distractor_diamondtriangles.svg	stimuli_target_circletriangles.svg	7	yes	57	0	391
6.6.1	and	2022-12-26	18:52:33	19:00:03	438900	5d44b06e62ed9000017ad64c	584347137	1	practice_z	9	practice_z	13	stimuli_target_squarediamonds.svg	stimuli_distractor_trianglediamonds.svg	5	yes	44	1	346
6.6.1	and	2022-12-26	18:52:33	19:00:03	438900	5d44b06e62ed9000017ad64c	584347137	1	practice_z	9	advance_on_keypress_ZEE	14	stimuli_target_squarediamonds.svg	stimuli_distractor_trianglediamonds.svg	5	yes	57	0	278
6.6.1	and	2022-12-26	18:52:33	19:00:06	441219	5d44b06e62ed9000017ad64c	584347137	1	practice_z	9	practice_z	15	stimuli_distractor_trianglediamonds.svg	stimuli_target_squarediamonds.svg	11	yes	44	1	406
6.6.1	and	2022-12-26	18:52:33	19:00:06	441219	5d44b06e62ed9000017ad64c	584347137	1	practice_z	9	advance_on_keypress_ZEE	16	stimuli_distractor_trianglediamonds.svg	stimuli_target_squarediamonds.svg	11	yes	57	0	300
6.6.1	and	2022-12-26	18:52:33	19:00:08	443418	5d44b06e62ed9000017ad64c	584347137	1	practice_z	9	practice_z	17	stimuli_distractor_diamondtriangles.svg	stimuli_target_diamondcircles.svg	8	yes	44	1	271
6.6.1	and	2022-12-26	18:52:33	19:00:08	443418	5d44b06e62ed9000017ad64c	584347137	1	practice_z	9	advance_on_keypress_ZEE	18	stimuli_distractor_diamondtriangles.svg	stimuli_target_diamondcircles.svg	8	yes	57	0	238
6.6.1	and	2022-12-26	18:52:33	19:00:11	446109	5d44b06e62ed9000017ad64c	584347137	1	practice_z	9	practice_z	19	stimuli_target_squarediamonds.svg	stimuli_distractor_diamondtriangles.svg	2	yes	44	1	812
6.6.1	and	2022-12-26	18:52:33	19:00:11	446109	5d44b06e62ed9000017ad64c	584347137	1	practice_z	9	advance_on_keypress_ZEE	20	stimuli_target_squarediamonds.svg	stimuli_distractor_diamondtriangles.svg	2	yes	57	0	331
6.6.1	and	2022-12-26	18:52:33	19:00:13	448433	5d44b06e62ed9000017ad64c	584347137	1	practice_z	9	practice_z	21	stimuli_distractor_diamondtriangles.svg	stimuli_target_trianglecircles.svg	9	yes	44	1	358
6.6.1	and	2022-12-26	18:52:33	19:00:13	448433	5d44b06e62ed9000017ad64c	584347137	1	practice_z	9	advance_on_keypress_ZEE	22	stimuli_distractor_diamondtriangles.svg	stimuli_target_trianglecircles.svg	9	yes	57	0	351
6.6.1	and	2022-12-26	18:52:33	19:00:15	450703	5d44b06e62ed9000017ad64c	584347137	1	practice_z	9	practice_z	23	stimuli_target_circlediamonds.svg	stimuli_distractor_diamondtriangles.svg	1	yes	44	1	263
6.6.1	and	2022-12-26	18:52:33	19:00:15	450703	5d44b06e62ed9000017ad64c	584347137	1	practice_z	9	advance_on_keypress_ZEE	24	stimuli_target_circlediamonds.svg	stimuli_distractor_diamondtriangles.svg	1	yes	57	0	117
6.6.1	and	2022-12-26	18:52:33	19:00:17	452679	5d44b06e62ed9000017ad64c	584347137	1	practice_z	9	practice_z	25	stimuli_distractor_diamondtriangles.svg	stimuli_distractor_diamondtriangles.svg	13	no	44	0	226
6.6.1	and	2022-12-26	18:52:33	19:00:17	452679	5d44b06e62ed9000017ad64c	584347137	1	practice_z	9	advance_on_keypress_ZEE	26	stimuli_distractor_diamondtriangles.svg	stimuli_distractor_diamondtriangles.svg	13	no	57	0	256
6.6.1	and	2022-12-26	18:52:33	19:00:21	456585	5d44b06e62ed9000017ad64c	584347137	1	practice_z	9	practice_z	27	stimuli_distractor_trianglediamonds.svg	stimuli_distractor_diamondtriangles.svg	16	no	0	1	2000
6.6.1	and	2022-12-26	18:52:33	19:00:21	456585	5d44b06e62ed9000017ad64c	584347137	1	practice_z	9	advance_on_keypress_ZEE	28	stimuli_distractor_trianglediamonds.svg	stimuli_distractor_diamondtriangles.svg	16	no	57	0	664
6.6.1	and	2022-12-26	18:52:33	19:00:24	459613	5d44b06e62ed9000017ad64c	584347137	1	practice_z	9	practice_z	29	stimuli_distractor_diamondtriangles.svg	stimuli_distractor_trianglediamonds.svg	14	no	44	0	732
6.6.1	and	2022-12-26	18:52:33	19:00:24	459613	5d44b06e62ed9000017ad64c	584347137	1	practice_z	9	advance_on_keypress_ZEE	30	stimuli_distractor_diamondtriangles.svg	stimuli_distractor_trianglediamonds.svg	14	no	57	0	422
6.6.1	and	2022-12-26	18:52:33	19:00:28	463682	5d44b06e62ed9000017ad64c	584347137	1	practice_z	9	practice_z	31	stimuli_distractor_trianglediamonds.svg	stimuli_distractor_trianglediamonds.svg	15	no	0	1	2000
6.6.1	and	2022-12-26	18:52:33	19:00:28	463682	5d44b06e62ed9000017ad64c	584347137	1	practice_z	9	advance_on_keypress_ZEE	32	stimuli_distractor_trianglediamonds.svg	stimuli_distractor_trianglediamonds.svg	15	no	57	0	341
6.6.1	and	2022-12-26	18:52:33	19:00:32	467104	5d44b06e62ed9000017ad64c	584347137	1	main_z	11	main_z	1	stimuli_target_trianglecircles.svg	stimuli_distractor_trianglediamonds.svg	17	yes	44	1	93
6.6.1	and	2022-12-26	18:52:33	19:00:32	467104	5d44b06e62ed9000017ad64c	584347137	1	main_z	11	advance_on_keypress_ZEE	2	stimuli_target_trianglecircles.svg	stimuli_distractor_trianglediamonds.svg	17	yes	57	0	1502
6.6.1	and	2022-12-26	18:52:33	19:00:34	469650	5d44b06e62ed9000017ad64c	584347137	1	main_z	11	main_z	3	stimuli_distractor_diamondtriangles.svg	stimuli_target_diamondcircles.svg	31	yes	44	1	415
6.6.1	and	2022-12-26	18:52:33	19:00:34	469650	5d44b06e62ed9000017ad64c	584347137	1	main_z	11	advance_on_keypress_ZEE	4	stimuli_distractor_diamondtriangles.svg	stimuli_target_diamondcircles.svg	31	yes	57	0	485
6.6.1	and	2022-12-26	18:52:33	19:00:36	471243	5d44b06e62ed9000017ad64c	584347137	1	main_z	11	main_z	5	stimuli_distractor_trianglediamonds.svg	stimuli_target_trianglecircles.svg	25	yes	44	1	476
6.6.1	and	2022-12-26	18:52:33	19:00:36	471243	5d44b06e62ed9000017ad64c	584347137	1	main_z	11	advance_on_keypress_ZEE	6	stimuli_distractor_trianglediamonds.svg	stimuli_target_trianglecircles.svg	25	yes	57	0	375
6.6.1	and	2022-12-26	18:52:33	19:00:37	472593	5d44b06e62ed9000017ad64c	584347137	1	main_z	11	main_z	7	stimuli_distractor_diamondtriangles.svg	stimuli_target_squaretriangles.svg	15	yes	44	1	328
6.6.1	and	2022-12-26	18:52:33	19:00:37	472593	5d44b06e62ed9000017ad64c	584347137	1	main_z	11	advance_on_keypress_ZEE	8	stimuli_distractor_diamondtriangles.svg	stimuli_target_squaretriangles.svg	15	yes	57	0	352
6.6.1	and	2022-12-26	18:52:33	19:00:38	473913	5d44b06e62ed9000017ad64c	584347137	1	main_z	11	main_z	9	stimuli_distractor_diamondtriangles.svg	stimuli_target_squarediamonds.svg	16	yes	44	1	332
6.6.1	and	2022-12-26	18:52:33	19:00:38	473913	5d44b06e62ed9000017ad64c	584347137	1	main_z	11	advance_on_keypress_ZEE	10	stimuli_distractor_diamondtriangles.svg	stimuli_target_squarediamonds.svg	16	yes	57	0	185
6.6.1	and	2022-12-26	18:52:33	19:00:39	474859	5d44b06e62ed9000017ad64c	584347137	1	main_z	11	main_z	11	stimuli_target_diamondcircles.svg	stimuli_distractor_trianglediamonds.svg	19	yes	44	1	129
6.6.1	and	2022-12-26	18:52:33	19:00:39	474859	5d44b06e62ed9000017ad64c	584347137	1	main_z	11	advance_on_keypress_ZEE	12	stimuli_target_diamondcircles.svg	stimuli_distractor_trianglediamonds.svg	19	yes	57	0	282
6.6.1	and	2022-12-26	18:52:33	19:00:42	477785	5d44b06e62ed9000017ad64c	584347137	1	main_z	11	main_z	13	stimuli_distractor_diamondtriangles.svg	stimuli_target_trianglecircles.svg	29	yes	0	0	2000
6.6.1	and	2022-12-26	18:52:33	19:00:42	477785	5d44b06e62ed9000017ad64c	584347137	1	main_z	11	advance_on_keypress_ZEE	14	stimuli_distractor_diamondtriangles.svg	stimuli_target_trianglecircles.svg	29	yes	57	0	492
6.6.1	and	2022-12-26	18:52:33	19:00:44	479646	5d44b06e62ed9000017ad64c	584347137	1	main_z	11	main_z	15	stimuli_distractor_diamondtriangles.svg	stimuli_target_diamondsquares.svg	32	yes	44	1	721
6.6.1	and	2022-12-26	18:52:33	19:00:44	479646	5d44b06e62ed9000017ad64c	584347137	1	main_z	11	advance_on_keypress_ZEE	16	stimuli_distractor_diamondtriangles.svg	stimuli_target_diamondsquares.svg	32	yes	57	0	318
6.6.1	and	2022-12-26	18:52:33	19:00:46	481126	5d44b06e62ed9000017ad64c	584347137	1	main_z	11	main_z	17	stimuli_target_squarediamonds.svg	stimuli_distractor_trianglediamonds.svg	4	yes	44	1	537
6.6.1	and	2022-12-26	18:52:33	19:00:46	481126	5d44b06e62ed9000017ad64c	584347137	1	main_z	11	advance_on_keypress_ZEE	18	stimuli_target_squarediamonds.svg	stimuli_distractor_trianglediamonds.svg	4	yes	57	0	264
6.6.1	and	2022-12-26	18:52:33	19:00:47	482486	5d44b06e62ed9000017ad64c	584347137	1	main_z	11	main_z	19	stimuli_distractor_trianglediamonds.svg	stimuli_target_circlediamonds.svg	10	yes	44	1	463
6.6.1	and	2022-12-26	18:52:33	19:00:47	482486	5d44b06e62ed9000017ad64c	584347137	1	main_z	11	advance_on_keypress_ZEE	20	stimuli_distractor_trianglediamonds.svg	stimuli_target_circlediamonds.svg	10	yes	57	0	180
6.6.1	and	2022-12-26	18:52:33	19:00:50	485305	5d44b06e62ed9000017ad64c	584347137	1	main_z	11	main_z	21	stimuli_distractor_diamondtriangles.svg	stimuli_distractor_trianglediamonds.svg	37	no	0	1	2000
6.6.1	and	2022-12-26	18:52:33	19:00:50	485305	5d44b06e62ed9000017ad64c	584347137	1	main_z	11	advance_on_keypress_ZEE	22	stimuli_distractor_diamondtriangles.svg	stimuli_distractor_trianglediamonds.svg	37	no	57	0	471
6.6.1	and	2022-12-26	18:52:33	19:00:51	486798	5d44b06e62ed9000017ad64c	584347137	1	main_z	11	main_z	23	stimuli_distractor_diamondtriangles.svg	stimuli_target_trianglesquares.svg	30	yes	44	1	389
6.6.1	and	2022-12-26	18:52:33	19:00:51	486798	5d44b06e62ed9000017ad64c	584347137	1	main_z	11	advance_on_keypress_ZEE	24	stimuli_distractor_diamondtriangles.svg	stimuli_target_trianglesquares.svg	30	yes	57	0	249
6.6.1	and	2022-12-26	18:52:33	19:00:52	487903	5d44b06e62ed9000017ad64c	584347137	1	main_z	11	main_z	25	stimuli_target_circletriangles.svg	stimuli_distractor_trianglediamonds.svg	1	yes	44	1	219
6.6.1	and	2022-12-26	18:52:33	19:00:52	487903	5d44b06e62ed9000017ad64c	584347137	1	main_z	11	advance_on_keypress_ZEE	26	stimuli_target_circletriangles.svg	stimuli_distractor_trianglediamonds.svg	1	yes	57	0	326
6.6.1	and	2022-12-26	18:52:33	19:00:53	488944	5d44b06e62ed9000017ad64c	584347137	1	main_z	11	main_z	27	stimuli_target_circletriangles.svg	stimuli_distractor_diamondtriangles.svg	5	yes	44	1	95
6.6.1	and	2022-12-26	18:52:33	19:00:53	488944	5d44b06e62ed9000017ad64c	584347137	1	main_z	11	advance_on_keypress_ZEE	28	stimuli_target_circletriangles.svg	stimuli_distractor_diamondtriangles.svg	5	yes	57	0	287
6.6.1	and	2022-12-26	18:52:33	19:00:55	490264	5d44b06e62ed9000017ad64c	584347137	1	main_z	11	main_z	29	stimuli_distractor_diamondtriangles.svg	stimuli_target_circletriangles.svg	13	yes	44	1	396
6.6.1	and	2022-12-26	18:52:33	19:00:55	490264	5d44b06e62ed9000017ad64c	584347137	1	main_z	11	advance_on_keypress_ZEE	30	stimuli_distractor_diamondtriangles.svg	stimuli_target_circletriangles.svg	13	yes	57	0	141
6.6.1	and	2022-12-26	18:52:33	19:00:58	493053	5d44b06e62ed9000017ad64c	584347137	1	main_z	11	main_z	31	stimuli_distractor_diamondtriangles.svg	stimuli_distractor_diamondtriangles.svg	39	no	0	1	2000
6.6.1	and	2022-12-26	18:52:33	19:00:58	493053	5d44b06e62ed9000017ad64c	584347137	1	main_z	11	advance_on_keypress_ZEE	32	stimuli_distractor_diamondtriangles.svg	stimuli_distractor_diamondtriangles.svg	39	no	57	0	403
6.6.1	and	2022-12-26	18:52:33	19:01:00	495006	5d44b06e62ed9000017ad64c	584347137	1	main_z	11	main_z	33	stimuli_distractor_trianglediamonds.svg	stimuli_target_diamondsquares.svg	28	yes	44	1	912
6.6.1	and	2022-12-26	18:52:33	19:01:00	495006	5d44b06e62ed9000017ad64c	584347137	1	main_z	11	advance_on_keypress_ZEE	34	stimuli_distractor_trianglediamonds.svg	stimuli_target_diamondsquares.svg	28	yes	57	0	202
6.6.1	and	2022-12-26	18:52:33	19:01:02	497844	5d44b06e62ed9000017ad64c	584347137	1	main_z	11	main_z	35	stimuli_distractor_diamondtriangles.svg	stimuli_distractor_diamondtriangles.svg	40	no	0	1	2000
6.6.1	and	2022-12-26	18:52:33	19:01:02	497844	5d44b06e62ed9000017ad64c	584347137	1	main_z	11	advance_on_keypress_ZEE	36	stimuli_distractor_diamondtriangles.svg	stimuli_distractor_diamondtriangles.svg	40	no	57	0	369
6.6.1	and	2022-12-26	18:52:33	19:01:04	499237	5d44b06e62ed9000017ad64c	584347137	1	main_z	11	main_z	37	stimuli_distractor_trianglediamonds.svg	stimuli_target_squaretriangles.svg	11	yes	44	1	390
6.6.1	and	2022-12-26	18:52:33	19:01:04	499237	5d44b06e62ed9000017ad64c	584347137	1	main_z	11	advance_on_keypress_ZEE	38	stimuli_distractor_trianglediamonds.svg	stimuli_target_squaretriangles.svg	11	yes	57	0	305
6.6.1	and	2022-12-26	18:52:33	19:01:05	500639	5d44b06e62ed9000017ad64c	584347137	1	main_z	11	main_z	39	stimuli_distractor_diamondtriangles.svg	stimuli_target_circlediamonds.svg	14	yes	44	1	451
6.6.1	and	2022-12-26	18:52:33	19:01:05	500639	5d44b06e62ed9000017ad64c	584347137	1	main_z	11	advance_on_keypress_ZEE	40	stimuli_distractor_diamondtriangles.svg	stimuli_target_circlediamonds.svg	14	yes	57	0	267
6.6.1	and	2022-12-26	18:52:33	19:01:07	502200	5d44b06e62ed9000017ad64c	584347137	1	main_z	11	main_z	41	stimuli_distractor_trianglediamonds.svg	stimuli_target_diamondcircles.svg	27	yes	44	1	662
6.6.1	and	2022-12-26	18:52:33	19:01:07	502200	5d44b06e62ed9000017ad64c	584347137	1	main_z	11	advance_on_keypress_ZEE	42	stimuli_distractor_trianglediamonds.svg	stimuli_target_diamondcircles.svg	27	yes	57	0	216
6.6.1	and	2022-12-26	18:52:33	19:01:08	503799	5d44b06e62ed9000017ad64c	584347137	1	main_z	11	main_z	43	stimuli_target_trianglesquares.svg	stimuli_distractor_trianglediamonds.svg	18	yes	44	1	747
6.6.1	and	2022-12-26	18:52:33	19:01:08	503799	5d44b06e62ed9000017ad64c	584347137	1	main_z	11	advance_on_keypress_ZEE	44	stimuli_target_trianglesquares.svg	stimuli_distractor_trianglediamonds.svg	18	yes	57	0	196
6.6.1	and	2022-12-26	18:52:33	19:01:10	505085	5d44b06e62ed9000017ad64c	584347137	1	main_z	11	main_z	45	stimuli_target_trianglecircles.svg	stimuli_distractor_diamondtriangles.svg	21	yes	44	1	449
6.6.1	and	2022-12-26	18:52:33	19:01:10	505085	5d44b06e62ed9000017ad64c	584347137	1	main_z	11	advance_on_keypress_ZEE	46	stimuli_target_trianglecircles.svg	stimuli_distractor_diamondtriangles.svg	21	yes	57	0	131
6.6.1	and	2022-12-26	18:52:33	19:01:11	506285	5d44b06e62ed9000017ad64c	584347137	1	main_z	11	main_z	47	stimuli_target_squaretriangles.svg	stimuli_distractor_trianglediamonds.svg	3	yes	44	1	434
6.6.1	and	2022-12-26	18:52:33	19:01:11	506285	5d44b06e62ed9000017ad64c	584347137	1	main_z	11	advance_on_keypress_ZEE	48	stimuli_target_squaretriangles.svg	stimuli_distractor_trianglediamonds.svg	3	yes	57	0	143
6.6.1	and	2022-12-26	18:52:33	19:01:14	509065	5d44b06e62ed9000017ad64c	584347137	1	main_z	11	main_z	49	stimuli_distractor_trianglediamonds.svg	stimuli_distractor_trianglediamonds.svg	33	no	0	1	2000
6.6.1	and	2022-12-26	18:52:33	19:01:14	509065	5d44b06e62ed9000017ad64c	584347137	1	main_z	11	advance_on_keypress_ZEE	50	stimuli_distractor_trianglediamonds.svg	stimuli_distractor_trianglediamonds.svg	33	no	57	0	389
6.6.1	and	2022-12-26	18:52:33	19:01:17	512104	5d44b06e62ed9000017ad64c	584347137	1	main_z	11	main_z	51	stimuli_distractor_diamondtriangles.svg	stimuli_distractor_trianglediamonds.svg	38	no	0	1	2000
6.6.1	and	2022-12-26	18:52:33	19:01:17	512104	5d44b06e62ed9000017ad64c	584347137	1	main_z	11	advance_on_keypress_ZEE	52	stimuli_distractor_diamondtriangles.svg	stimuli_distractor_trianglediamonds.svg	38	no	57	0	495
6.6.1	and	2022-12-26	18:52:33	19:01:18	513761	5d44b06e62ed9000017ad64c	584347137	1	main_z	11	main_z	53	stimuli_target_trianglesquares.svg	stimuli_distractor_diamondtriangles.svg	22	yes	44	1	518
6.6.1	and	2022-12-26	18:52:33	19:01:18	513761	5d44b06e62ed9000017ad64c	584347137	1	main_z	11	advance_on_keypress_ZEE	54	stimuli_target_trianglesquares.svg	stimuli_distractor_diamondtriangles.svg	22	yes	57	0	154
6.6.1	and	2022-12-26	18:52:33	19:01:20	515024	5d44b06e62ed9000017ad64c	584347137	1	main_z	11	main_z	55	stimuli_target_diamondsquares.svg	stimuli_distractor_diamondtriangles.svg	24	yes	44	1	466
6.6.1	and	2022-12-26	18:52:33	19:01:20	515024	5d44b06e62ed9000017ad64c	584347137	1	main_z	11	advance_on_keypress_ZEE	56	stimuli_target_diamondsquares.svg	stimuli_distractor_diamondtriangles.svg	24	yes	57	0	156
6.6.1	and	2022-12-26	18:52:33	19:01:21	516222	5d44b06e62ed9000017ad64c	584347137	1	main_z	11	main_z	57	stimuli_target_diamondsquares.svg	stimuli_distractor_trianglediamonds.svg	20	yes	44	1	416
6.6.1	and	2022-12-26	18:52:33	19:01:21	516222	5d44b06e62ed9000017ad64c	584347137	1	main_z	11	advance_on_keypress_ZEE	58	stimuli_target_diamondsquares.svg	stimuli_distractor_trianglediamonds.svg	20	yes	57	0	135
6.6.1	and	2022-12-26	18:52:33	19:01:22	517450	5d44b06e62ed9000017ad64c	584347137	1	main_z	11	main_z	59	stimuli_target_squarediamonds.svg	stimuli_distractor_diamondtriangles.svg	8	yes	44	1	461
6.6.1	and	2022-12-26	18:52:33	19:01:22	517450	5d44b06e62ed9000017ad64c	584347137	1	main_z	11	advance_on_keypress_ZEE	60	stimuli_target_squarediamonds.svg	stimuli_distractor_diamondtriangles.svg	8	yes	57	0	971
6.6.1	and	2022-12-26	18:52:33	19:01:26	521055	5d44b06e62ed9000017ad64c	584347137	1	main_z	11	main_z	61	stimuli_distractor_trianglediamonds.svg	stimuli_distractor_diamondtriangles.svg	35	no	0	1	2000
6.6.1	and	2022-12-26	18:52:33	19:01:26	521055	5d44b06e62ed9000017ad64c	584347137	1	main_z	11	advance_on_keypress_ZEE	62	stimuli_distractor_trianglediamonds.svg	stimuli_distractor_diamondtriangles.svg	35	no	57	0	500
6.6.1	and	2022-12-26	18:52:33	19:01:27	522604	5d44b06e62ed9000017ad64c	584347137	1	main_z	11	main_z	63	stimuli_distractor_trianglediamonds.svg	stimuli_target_squarediamonds.svg	12	yes	44	1	420
6.6.1	and	2022-12-26	18:52:33	19:01:27	522604	5d44b06e62ed9000017ad64c	584347137	1	main_z	11	advance_on_keypress_ZEE	64	stimuli_distractor_trianglediamonds.svg	stimuli_target_squarediamonds.svg	12	yes	57	0	206
6.6.1	and	2022-12-26	18:52:33	19:01:29	524006	5d44b06e62ed9000017ad64c	584347137	1	main_z	11	main_z	65	stimuli_target_diamondcircles.svg	stimuli_distractor_diamondtriangles.svg	23	yes	44	1	574
6.6.1	and	2022-12-26	18:52:33	19:01:29	524006	5d44b06e62ed9000017ad64c	584347137	1	main_z	11	advance_on_keypress_ZEE	66	stimuli_target_diamondcircles.svg	stimuli_distractor_diamondtriangles.svg	23	yes	57	0	342
6.6.1	and	2022-12-26	18:52:33	19:01:30	525444	5d44b06e62ed9000017ad64c	584347137	1	main_z	11	main_z	67	stimuli_target_circlediamonds.svg	stimuli_distractor_trianglediamonds.svg	2	yes	44	1	464
6.6.1	and	2022-12-26	18:52:33	19:01:30	525444	5d44b06e62ed9000017ad64c	584347137	1	main_z	11	advance_on_keypress_ZEE	68	stimuli_target_circlediamonds.svg	stimuli_distractor_trianglediamonds.svg	2	yes	57	0	201
6.6.1	and	2022-12-26	18:52:33	19:01:33	528282	5d44b06e62ed9000017ad64c	584347137	1	main_z	11	main_z	69	stimuli_distractor_trianglediamonds.svg	stimuli_distractor_trianglediamonds.svg	34	no	0	1	2000
6.6.1	and	2022-12-26	18:52:33	19:01:33	528282	5d44b06e62ed9000017ad64c	584347137	1	main_z	11	advance_on_keypress_ZEE	70	stimuli_distractor_trianglediamonds.svg	stimuli_distractor_trianglediamonds.svg	34	no	57	0	471
6.6.1	and	2022-12-26	18:52:33	19:01:34	529799	5d44b06e62ed9000017ad64c	584347137	1	main_z	11	main_z	71	stimuli_distractor_trianglediamonds.svg	stimuli_target_circletriangles.svg	9	yes	44	1	423
6.6.1	and	2022-12-26	18:52:33	19:01:34	529799	5d44b06e62ed9000017ad64c	584347137	1	main_z	11	advance_on_keypress_ZEE	72	stimuli_distractor_trianglediamonds.svg	stimuli_target_circletriangles.svg	9	yes	57	0	220
6.6.1	and	2022-12-26	18:52:33	19:01:36	531085	5d44b06e62ed9000017ad64c	584347137	1	main_z	11	main_z	73	stimuli_target_circlediamonds.svg	stimuli_distractor_diamondtriangles.svg	6	yes	44	1	441
6.6.1	and	2022-12-26	18:52:33	19:01:36	531085	5d44b06e62ed9000017ad64c	584347137	1	main_z	11	advance_on_keypress_ZEE	74	stimuli_target_circlediamonds.svg	stimuli_distractor_diamondtriangles.svg	6	yes	57	0	119
6.6.1	and	2022-12-26	18:52:33	19:01:38	533841	5d44b06e62ed9000017ad64c	584347137	1	main_z	11	main_z	75	stimuli_distractor_trianglediamonds.svg	stimuli_distractor_diamondtriangles.svg	36	no	0	1	2000
6.6.1	and	2022-12-26	18:52:33	19:01:38	533841	5d44b06e62ed9000017ad64c	584347137	1	main_z	11	advance_on_keypress_ZEE	76	stimuli_distractor_trianglediamonds.svg	stimuli_distractor_diamondtriangles.svg	36	no	57	0	452
6.6.1	and	2022-12-26	18:52:33	19:01:40	535269	5d44b06e62ed9000017ad64c	584347137	1	main_z	11	main_z	77	stimuli_target_squaretriangles.svg	stimuli_distractor_diamondtriangles.svg	7	yes	44	1	348
6.6.1	and	2022-12-26	18:52:33	19:01:40	535269	5d44b06e62ed9000017ad64c	584347137	1	main_z	11	advance_on_keypress_ZEE	78	stimuli_target_squaretriangles.svg	stimuli_distractor_diamondtriangles.svg	7	yes	57	0	290
6.6.1	and	2022-12-26	18:52:33	19:01:41	536641	5d44b06e62ed9000017ad64c	584347137	1	main_z	11	main_z	79	stimuli_distractor_trianglediamonds.svg	stimuli_target_trianglesquares.svg	26	yes	44	1	436
6.6.1	and	2022-12-26	18:52:33	19:01:41	536641	5d44b06e62ed9000017ad64c	584347137	1	main_z	11	advance_on_keypress_ZEE	80	stimuli_distractor_trianglediamonds.svg	stimuli_target_trianglesquares.svg	26	yes	57	0	284
6.6.1	and	2022-12-26	18:52:33	19:01:42	537891	5d44b06e62ed9000017ad64c	584347137	1	main_z	11	main_z	81	stimuli_target_squaretriangles.svg	stimuli_distractor_trianglediamonds.svg	3	yes	44	1	340
6.6.1	and	2022-12-26	18:52:33	19:01:42	537891	5d44b06e62ed9000017ad64c	584347137	1	main_z	11	advance_on_keypress_ZEE	82	stimuli_target_squaretriangles.svg	stimuli_distractor_trianglediamonds.svg	3	yes	57	0	287
6.6.1	and	2022-12-26	18:52:33	19:01:44	539144	5d44b06e62ed9000017ad64c	584347137	1	main_z	11	main_z	83	stimuli_target_circletriangles.svg	stimuli_distractor_trianglediamonds.svg	1	yes	44	1	342
6.6.1	and	2022-12-26	18:52:33	19:01:44	539144	5d44b06e62ed9000017ad64c	584347137	1	main_z	11	advance_on_keypress_ZEE	84	stimuli_target_circletriangles.svg	stimuli_distractor_trianglediamonds.svg	1	yes	57	0	220
6.6.1	and	2022-12-26	18:52:33	19:01:45	540659	5d44b06e62ed9000017ad64c	584347137	1	main_z	11	main_z	85	stimuli_target_diamondsquares.svg	stimuli_distractor_trianglediamonds.svg	20	yes	44	1	659
6.6.1	and	2022-12-26	18:52:33	19:01:45	540659	5d44b06e62ed9000017ad64c	584347137	1	main_z	11	advance_on_keypress_ZEE	86	stimuli_target_diamondsquares.svg	stimuli_distractor_trianglediamonds.svg	20	yes	57	0	148
6.6.1	and	2022-12-26	18:52:33	19:01:48	543448	5d44b06e62ed9000017ad64c	584347137	1	main_z	11	main_z	87	stimuli_distractor_diamondtriangles.svg	stimuli_distractor_diamondtriangles.svg	39	no	0	1	2000
6.6.1	and	2022-12-26	18:52:33	19:01:48	543448	5d44b06e62ed9000017ad64c	584347137	1	main_z	11	advance_on_keypress_ZEE	88	stimuli_distractor_diamondtriangles.svg	stimuli_distractor_diamondtriangles.svg	39	no	57	0	435
6.6.1	and	2022-12-26	18:52:33	19:01:51	546516	5d44b06e62ed9000017ad64c	584347137	1	main_z	11	main_z	89	stimuli_distractor_trianglediamonds.svg	stimuli_distractor_diamondtriangles.svg	35	no	0	1	2000
6.6.1	and	2022-12-26	18:52:33	19:01:51	546516	5d44b06e62ed9000017ad64c	584347137	1	main_z	11	advance_on_keypress_ZEE	90	stimuli_distractor_trianglediamonds.svg	stimuli_distractor_diamondtriangles.svg	35	no	57	0	480
6.6.1	and	2022-12-26	18:52:33	19:01:54	548958	5d44b06e62ed9000017ad64c	584347137	1	main_z	11	main_z	91	stimuli_distractor_diamondtriangles.svg	stimuli_target_squarediamonds.svg	16	yes	44	1	1317
6.6.1	and	2022-12-26	18:52:33	19:01:54	548958	5d44b06e62ed9000017ad64c	584347137	1	main_z	11	advance_on_keypress_ZEE	92	stimuli_distractor_diamondtriangles.svg	stimuli_target_squarediamonds.svg	16	yes	57	0	367
6.6.1	and	2022-12-26	18:52:33	19:01:55	550756	5d44b06e62ed9000017ad64c	584347137	1	main_z	11	main_z	93	stimuli_distractor_diamondtriangles.svg	stimuli_target_diamondcircles.svg	31	yes	44	1	800
6.6.1	and	2022-12-26	18:52:33	19:01:55	550756	5d44b06e62ed9000017ad64c	584347137	1	main_z	11	advance_on_keypress_ZEE	94	stimuli_distractor_diamondtriangles.svg	stimuli_target_diamondcircles.svg	31	yes	57	0	199
6.6.1	and	2022-12-26	18:52:33	19:01:58	553588	5d44b06e62ed9000017ad64c	584347137	1	main_z	11	main_z	95	stimuli_distractor_trianglediamonds.svg	stimuli_distractor_trianglediamonds.svg	33	no	0	1	2000
6.6.1	and	2022-12-26	18:52:33	19:01:58	553588	5d44b06e62ed9000017ad64c	584347137	1	main_z	11	advance_on_keypress_ZEE	96	stimuli_distractor_trianglediamonds.svg	stimuli_distractor_trianglediamonds.svg	33	no	57	0	358
6.6.1	and	2022-12-26	18:52:33	19:02:00	554990	5d44b06e62ed9000017ad64c	584347137	1	main_z	11	main_z	97	stimuli_distractor_diamondtriangles.svg	stimuli_target_squaretriangles.svg	15	yes	44	1	407
6.6.1	and	2022-12-26	18:52:33	19:02:00	554990	5d44b06e62ed9000017ad64c	584347137	1	main_z	11	advance_on_keypress_ZEE	98	stimuli_distractor_diamondtriangles.svg	stimuli_target_squaretriangles.svg	15	yes	57	0	274
6.6.1	and	2022-12-26	18:52:33	19:02:01	556401	5d44b06e62ed9000017ad64c	584347137	1	main_z	11	main_z	99	stimuli_target_circlediamonds.svg	stimuli_distractor_diamondtriangles.svg	6	yes	44	1	502
6.6.1	and	2022-12-26	18:52:33	19:02:01	556401	5d44b06e62ed9000017ad64c	584347137	1	main_z	11	advance_on_keypress_ZEE	100	stimuli_target_circlediamonds.svg	stimuli_distractor_diamondtriangles.svg	6	yes	57	0	193
6.6.1	and	2022-12-26	18:52:33	19:02:02	557818	5d44b06e62ed9000017ad64c	584347137	1	main_z	11	main_z	101	stimuli_distractor_diamondtriangles.svg	stimuli_target_circlediamonds.svg	14	yes	44	1	570
6.6.1	and	2022-12-26	18:52:33	19:02:02	557818	5d44b06e62ed9000017ad64c	584347137	1	main_z	11	advance_on_keypress_ZEE	102	stimuli_distractor_diamondtriangles.svg	stimuli_target_circlediamonds.svg	14	yes	57	0	169
6.6.1	and	2022-12-26	18:52:33	19:02:04	559016	5d44b06e62ed9000017ad64c	584347137	1	main_z	11	main_z	103	stimuli_target_diamondcircles.svg	stimuli_distractor_trianglediamonds.svg	19	yes	44	1	403
6.6.1	and	2022-12-26	18:52:33	19:02:04	559016	5d44b06e62ed9000017ad64c	584347137	1	main_z	11	advance_on_keypress_ZEE	104	stimuli_target_diamondcircles.svg	stimuli_distractor_trianglediamonds.svg	19	yes	57	0	247
6.6.1	and	2022-12-26	18:52:33	19:02:06	561897	5d44b06e62ed9000017ad64c	584347137	1	main_z	11	main_z	105	stimuli_distractor_diamondtriangles.svg	stimuli_distractor_trianglediamonds.svg	37	no	0	1	2000
6.6.1	and	2022-12-26	18:52:33	19:02:06	561897	5d44b06e62ed9000017ad64c	584347137	1	main_z	11	advance_on_keypress_ZEE	106	stimuli_distractor_diamondtriangles.svg	stimuli_distractor_trianglediamonds.svg	37	no	57	0	422
6.6.1	and	2022-12-26	18:52:33	19:02:08	563440	5d44b06e62ed9000017ad64c	584347137	1	main_z	11	main_z	107	stimuli_distractor_diamondtriangles.svg	stimuli_target_diamondsquares.svg	32	yes	44	1	496
6.6.1	and	2022-12-26	18:52:33	19:02:08	563440	5d44b06e62ed9000017ad64c	584347137	1	main_z	11	advance_on_keypress_ZEE	108	stimuli_distractor_diamondtriangles.svg	stimuli_target_diamondsquares.svg	32	yes	57	0	178
6.6.1	and	2022-12-26	18:52:33	19:02:09	564859	5d44b06e62ed9000017ad64c	584347137	1	main_z	11	main_z	109	stimuli_target_diamondsquares.svg	stimuli_distractor_diamondtriangles.svg	24	yes	44	1	600
6.6.1	and	2022-12-26	18:52:33	19:02:09	564859	5d44b06e62ed9000017ad64c	584347137	1	main_z	11	advance_on_keypress_ZEE	110	stimuli_target_diamondsquares.svg	stimuli_distractor_diamondtriangles.svg	24	yes	57	0	146
6.6.1	and	2022-12-26	18:52:33	19:02:12	567643	5d44b06e62ed9000017ad64c	584347137	1	main_z	11	main_z	111	stimuli_distractor_trianglediamonds.svg	stimuli_distractor_diamondtriangles.svg	36	no	0	1	2000
6.6.1	and	2022-12-26	18:52:33	19:02:12	567643	5d44b06e62ed9000017ad64c	584347137	1	main_z	11	advance_on_keypress_ZEE	112	stimuli_distractor_trianglediamonds.svg	stimuli_distractor_diamondtriangles.svg	36	no	57	0	593
6.6.1	and	2022-12-26	18:52:33	19:02:15	570871	5d44b06e62ed9000017ad64c	584347137	1	main_z	11	main_z	113	stimuli_target_trianglesquares.svg	stimuli_distractor_diamondtriangles.svg	22	yes	0	0	2000
6.6.1	and	2022-12-26	18:52:33	19:02:15	570871	5d44b06e62ed9000017ad64c	584347137	1	main_z	11	advance_on_keypress_ZEE	114	stimuli_target_trianglesquares.svg	stimuli_distractor_diamondtriangles.svg	22	yes	57	0	699
6.6.1	and	2022-12-26	18:52:33	19:02:17	572598	5d44b06e62ed9000017ad64c	584347137	1	main_z	11	main_z	115	stimuli_target_squaretriangles.svg	stimuli_distractor_diamondtriangles.svg	7	yes	44	1	385
6.6.1	and	2022-12-26	18:52:33	19:02:17	572598	5d44b06e62ed9000017ad64c	584347137	1	main_z	11	advance_on_keypress_ZEE	116	stimuli_target_squaretriangles.svg	stimuli_distractor_diamondtriangles.svg	7	yes	57	0	183
6.6.1	and	2022-12-26	18:52:33	19:02:19	573955	5d44b06e62ed9000017ad64c	584347137	1	main_z	11	main_z	117	stimuli_distractor_trianglediamonds.svg	stimuli_target_circlediamonds.svg	10	yes	44	1	524
6.6.1	and	2022-12-26	18:52:33	19:02:19	573955	5d44b06e62ed9000017ad64c	584347137	1	main_z	11	advance_on_keypress_ZEE	118	stimuli_distractor_trianglediamonds.svg	stimuli_target_circlediamonds.svg	10	yes	57	0	157
6.6.1	and	2022-12-26	18:52:33	19:02:20	575148	5d44b06e62ed9000017ad64c	584347137	1	main_z	11	main_z	119	stimuli_target_squarediamonds.svg	stimuli_distractor_diamondtriangles.svg	8	yes	44	1	393
6.6.1	and	2022-12-26	18:52:33	19:02:20	575148	5d44b06e62ed9000017ad64c	584347137	1	main_z	11	advance_on_keypress_ZEE	120	stimuli_target_squarediamonds.svg	stimuli_distractor_diamondtriangles.svg	8	yes	57	0	163
6.6.1	and	2022-12-26	18:52:33	19:02:23	577966	5d44b06e62ed9000017ad64c	584347137	1	main_z	11	main_z	121	stimuli_distractor_diamondtriangles.svg	stimuli_distractor_diamondtriangles.svg	40	no	0	1	2000
6.6.1	and	2022-12-26	18:52:33	19:02:23	577966	5d44b06e62ed9000017ad64c	584347137	1	main_z	11	advance_on_keypress_ZEE	122	stimuli_distractor_diamondtriangles.svg	stimuli_distractor_diamondtriangles.svg	40	no	57	0	747
6.6.1	and	2022-12-26	18:52:33	19:02:25	580276	5d44b06e62ed9000017ad64c	584347137	1	main_z	11	main_z	123	stimuli_distractor_trianglediamonds.svg	stimuli_target_diamondsquares.svg	28	yes	44	1	926
6.6.1	and	2022-12-26	18:52:33	19:02:25	580276	5d44b06e62ed9000017ad64c	584347137	1	main_z	11	advance_on_keypress_ZEE	124	stimuli_distractor_trianglediamonds.svg	stimuli_target_diamondsquares.svg	28	yes	57	0	178
6.6.1	and	2022-12-26	18:52:33	19:02:28	583096	5d44b06e62ed9000017ad64c	584347137	1	main_z	11	main_z	125	stimuli_target_trianglesquares.svg	stimuli_distractor_trianglediamonds.svg	18	yes	0	0	2000
6.6.1	and	2022-12-26	18:52:33	19:02:28	583096	5d44b06e62ed9000017ad64c	584347137	1	main_z	11	advance_on_keypress_ZEE	126	stimuli_target_trianglesquares.svg	stimuli_distractor_trianglediamonds.svg	18	yes	57	0	432
6.6.1	and	2022-12-26	18:52:33	19:02:31	586160	5d44b06e62ed9000017ad64c	584347137	1	main_z	11	main_z	127	stimuli_distractor_trianglediamonds.svg	stimuli_distractor_trianglediamonds.svg	34	no	0	1	2000
6.6.1	and	2022-12-26	18:52:33	19:02:31	586160	5d44b06e62ed9000017ad64c	584347137	1	main_z	11	advance_on_keypress_ZEE	128	stimuli_distractor_trianglediamonds.svg	stimuli_distractor_trianglediamonds.svg	34	no	57	0	501
6.6.1	and	2022-12-26	18:52:33	19:02:32	587687	5d44b06e62ed9000017ad64c	584347137	1	main_z	11	main_z	129	stimuli_distractor_trianglediamonds.svg	stimuli_target_circletriangles.svg	9	yes	44	1	401
6.6.1	and	2022-12-26	18:52:33	19:02:32	587687	5d44b06e62ed9000017ad64c	584347137	1	main_z	11	advance_on_keypress_ZEE	130	stimuli_distractor_trianglediamonds.svg	stimuli_target_circletriangles.svg	9	yes	57	0	147
6.6.1	and	2022-12-26	18:52:33	19:02:34	588957	5d44b06e62ed9000017ad64c	584347137	1	main_z	11	main_z	131	stimuli_distractor_trianglediamonds.svg	stimuli_target_diamondcircles.svg	27	yes	44	1	471
6.6.1	and	2022-12-26	18:52:33	19:02:34	588957	5d44b06e62ed9000017ad64c	584347137	1	main_z	11	advance_on_keypress_ZEE	132	stimuli_distractor_trianglediamonds.svg	stimuli_target_diamondcircles.svg	27	yes	57	0	144
6.6.1	and	2022-12-26	18:52:33	19:02:35	590164	5d44b06e62ed9000017ad64c	584347137	1	main_z	11	main_z	133	stimuli_distractor_diamondtriangles.svg	stimuli_target_trianglesquares.svg	30	yes	44	1	428
6.6.1	and	2022-12-26	18:52:33	19:02:35	590164	5d44b06e62ed9000017ad64c	584347137	1	main_z	11	advance_on_keypress_ZEE	134	stimuli_distractor_diamondtriangles.svg	stimuli_target_trianglesquares.svg	30	yes	57	0	144
6.6.1	and	2022-12-26	18:52:33	19:02:36	591384	5d44b06e62ed9000017ad64c	584347137	1	main_z	11	main_z	135	stimuli_distractor_trianglediamonds.svg	stimuli_target_trianglecircles.svg	25	yes	44	1	435
6.6.1	and	2022-12-26	18:52:33	19:02:36	591384	5d44b06e62ed9000017ad64c	584347137	1	main_z	11	advance_on_keypress_ZEE	136	stimuli_distractor_trianglediamonds.svg	stimuli_target_trianglecircles.svg	25	yes	57	0	155
6.6.1	and	2022-12-26	18:52:33	19:02:37	592488	5d44b06e62ed9000017ad64c	584347137	1	main_z	11	main_z	137	stimuli_distractor_trianglediamonds.svg	stimuli_target_trianglesquares.svg	26	yes	44	1	324
6.6.1	and	2022-12-26	18:52:33	19:02:37	592488	5d44b06e62ed9000017ad64c	584347137	1	main_z	11	advance_on_keypress_ZEE	138	stimuli_distractor_trianglediamonds.svg	stimuli_target_trianglesquares.svg	26	yes	57	0	118
6.6.1	and	2022-12-26	18:52:33	19:02:38	593648	5d44b06e62ed9000017ad64c	584347137	1	main_z	11	main_z	139	stimuli_target_trianglecircles.svg	stimuli_distractor_trianglediamonds.svg	17	yes	44	1	418
6.6.1	and	2022-12-26	18:52:33	19:02:38	593648	5d44b06e62ed9000017ad64c	584347137	1	main_z	11	advance_on_keypress_ZEE	140	stimuli_target_trianglecircles.svg	stimuli_distractor_trianglediamonds.svg	17	yes	57	0	224
6.6.1	and	2022-12-26	18:52:33	19:02:40	595083	5d44b06e62ed9000017ad64c	584347137	1	main_z	11	main_z	141	stimuli_distractor_trianglediamonds.svg	stimuli_target_squarediamonds.svg	12	yes	44	1	588
6.6.1	and	2022-12-26	18:52:33	19:02:40	595083	5d44b06e62ed9000017ad64c	584347137	1	main_z	11	advance_on_keypress_ZEE	142	stimuli_distractor_trianglediamonds.svg	stimuli_target_squarediamonds.svg	12	yes	57	0	175
6.6.1	and	2022-12-26	18:52:33	19:02:42	597877	5d44b06e62ed9000017ad64c	584347137	1	main_z	11	main_z	143	stimuli_distractor_diamondtriangles.svg	stimuli_distractor_trianglediamonds.svg	38	no	0	1	2000
6.6.1	and	2022-12-26	18:52:33	19:02:42	597877	5d44b06e62ed9000017ad64c	584347137	1	main_z	11	advance_on_keypress_ZEE	144	stimuli_distractor_diamondtriangles.svg	stimuli_distractor_trianglediamonds.svg	38	no	57	0	650
6.6.1	and	2022-12-26	18:52:33	19:02:44	599558	5d44b06e62ed9000017ad64c	584347137	1	main_z	11	main_z	145	stimuli_target_circlediamonds.svg	stimuli_distractor_trianglediamonds.svg	2	yes	44	1	399
6.6.1	and	2022-12-26	18:52:33	19:02:44	599558	5d44b06e62ed9000017ad64c	584347137	1	main_z	11	advance_on_keypress_ZEE	146	stimuli_target_circlediamonds.svg	stimuli_distractor_trianglediamonds.svg	2	yes	57	0	151
6.6.1	and	2022-12-26	18:52:33	19:02:45	600916	5d44b06e62ed9000017ad64c	584347137	1	main_z	11	main_z	147	stimuli_distractor_diamondtriangles.svg	stimuli_target_trianglecircles.svg	29	yes	44	1	558
6.6.1	and	2022-12-26	18:52:33	19:02:45	600916	5d44b06e62ed9000017ad64c	584347137	1	main_z	11	advance_on_keypress_ZEE	148	stimuli_distractor_diamondtriangles.svg	stimuli_target_trianglecircles.svg	29	yes	57	0	103
6.6.1	and	2022-12-26	18:52:33	19:02:47	602114	5d44b06e62ed9000017ad64c	584347137	1	main_z	11	main_z	149	stimuli_target_trianglecircles.svg	stimuli_distractor_diamondtriangles.svg	21	yes	44	1	456
6.6.1	and	2022-12-26	18:52:33	19:02:47	602114	5d44b06e62ed9000017ad64c	584347137	1	main_z	11	advance_on_keypress_ZEE	150	stimuli_target_trianglecircles.svg	stimuli_distractor_diamondtriangles.svg	21	yes	57	0	102
6.6.1	and	2022-12-26	18:52:33	19:02:48	603299	5d44b06e62ed9000017ad64c	584347137	1	main_z	11	main_z	151	stimuli_distractor_trianglediamonds.svg	stimuli_target_squaretriangles.svg	11	yes	44	1	444
6.6.1	and	2022-12-26	18:52:33	19:02:48	603299	5d44b06e62ed9000017ad64c	584347137	1	main_z	11	advance_on_keypress_ZEE	152	stimuli_distractor_trianglediamonds.svg	stimuli_target_squaretriangles.svg	11	yes	57	0	67
6.6.1	and	2022-12-26	18:52:33	19:02:49	604406	5d44b06e62ed9000017ad64c	584347137	1	main_z	11	main_z	153	stimuli_target_squarediamonds.svg	stimuli_distractor_trianglediamonds.svg	4	yes	44	1	400
6.6.1	and	2022-12-26	18:52:33	19:02:49	604406	5d44b06e62ed9000017ad64c	584347137	1	main_z	11	advance_on_keypress_ZEE	154	stimuli_target_squarediamonds.svg	stimuli_distractor_trianglediamonds.svg	4	yes	57	0	38
6.6.1	and	2022-12-26	18:52:33	19:02:50	605709	5d44b06e62ed9000017ad64c	584347137	1	main_z	11	main_z	155	stimuli_target_diamondcircles.svg	stimuli_distractor_diamondtriangles.svg	23	yes	44	1	604
6.6.1	and	2022-12-26	18:52:33	19:02:50	605709	5d44b06e62ed9000017ad64c	584347137	1	main_z	11	advance_on_keypress_ZEE	156	stimuli_target_diamondcircles.svg	stimuli_distractor_diamondtriangles.svg	23	yes	57	0	86
6.6.1	and	2022-12-26	18:52:33	19:02:51	606816	5d44b06e62ed9000017ad64c	584347137	1	main_z	11	main_z	157	stimuli_target_circletriangles.svg	stimuli_distractor_diamondtriangles.svg	5	yes	44	1	379
6.6.1	and	2022-12-26	18:52:33	19:02:51	606816	5d44b06e62ed9000017ad64c	584347137	1	main_z	11	advance_on_keypress_ZEE	158	stimuli_target_circletriangles.svg	stimuli_distractor_diamondtriangles.svg	5	yes	57	0	47
6.6.1	and	2022-12-26	18:52:33	19:02:53	608084	5d44b06e62ed9000017ad64c	584347137	1	main_z	11	main_z	159	stimuli_distractor_diamondtriangles.svg	stimuli_target_circletriangles.svg	13	yes	44	1	580
6.6.1	and	2022-12-26	18:52:33	19:02:53	608084	5d44b06e62ed9000017ad64c	584347137	1	main_z	11	advance_on_keypress_ZEE	160	stimuli_distractor_diamondtriangles.svg	stimuli_target_circletriangles.svg	13	yes	57	0	54