build	computer.platform	date	time	timestamp	time_elapsed_ms	subject	group	session	blockcode	blocknum	trialcode	trialnum	stimulus_left	stimulus_right	stim_index	target_present	response	correct	latency
6.6.1	mac	2022-12-19	19:12:47	19:14:59	130452	594ad91fa6fb8200018f720c	101036863	1	practice_slash	5	practice_slash	1	stimuli_target_squarediamonds.svg	stimuli_distractor_diamondtriangles.svg	2	yes	53	1	389
6.6.1	mac	2022-12-19	19:12:47	19:14:59	130452	594ad91fa6fb8200018f720c	101036863	1	practice_slash	5	advance_on_keypress_SLASH	2	stimuli_target_squarediamonds.svg	stimuli_distractor_diamondtriangles.svg	2	yes	57	0	3170
6.6.1	mac	2022-12-19	19:12:47	19:15:04	135728	594ad91fa6fb8200018f720c	101036863	1	practice_slash	5	practice_slash	3	stimuli_target_circlediamonds.svg	stimuli_distractor_diamondtriangles.svg	1	yes	53	1	483
6.6.1	mac	2022-12-19	19:12:47	19:15:04	135728	594ad91fa6fb8200018f720c	101036863	1	practice_slash	5	advance_on_keypress_SLASH	4	stimuli_target_circlediamonds.svg	stimuli_distractor_diamondtriangles.svg	1	yes	57	0	732
6.6.1	mac	2022-12-19	19:12:47	19:15:07	138518	594ad91fa6fb8200018f720c	101036863	1	practice_slash	5	practice_slash	5	stimuli_distractor_trianglediamonds.svg	stimuli_target_squarediamonds.svg	11	yes	53	1	423
6.6.1	mac	2022-12-19	19:12:47	19:15:07	138518	594ad91fa6fb8200018f720c	101036863	1	practice_slash	5	advance_on_keypress_SLASH	6	stimuli_distractor_trianglediamonds.svg	stimuli_target_squarediamonds.svg	11	yes	57	0	666
6.6.1	mac	2022-12-19	19:12:47	19:15:10	141276	594ad91fa6fb8200018f720c	101036863	1	practice_slash	5	practice_slash	7	stimuli_distractor_trianglediamonds.svg	stimuli_target_circlediamonds.svg	10	yes	53	1	464
6.6.1	mac	2022-12-19	19:12:47	19:15:10	141276	594ad91fa6fb8200018f720c	101036863	1	practice_slash	5	advance_on_keypress_SLASH	8	stimuli_distractor_trianglediamonds.svg	stimuli_target_circlediamonds.svg	10	yes	57	0	744
6.6.1	mac	2022-12-19	19:12:47	19:15:13	144026	594ad91fa6fb8200018f720c	101036863	1	practice_slash	5	practice_slash	9	stimuli_target_circlediamonds.svg	stimuli_distractor_trianglediamonds.svg	4	yes	53	1	365
6.6.1	mac	2022-12-19	19:12:47	19:15:13	144026	594ad91fa6fb8200018f720c	101036863	1	practice_slash	5	advance_on_keypress_SLASH	10	stimuli_target_circlediamonds.svg	stimuli_distractor_trianglediamonds.svg	4	yes	57	0	541
6.6.1	mac	2022-12-19	19:12:47	19:15:17	148194	594ad91fa6fb8200018f720c	101036863	1	practice_slash	5	practice_slash	11	stimuli_distractor_trianglediamonds.svg	stimuli_distractor_trianglediamonds.svg	15	no	0	1	2000
6.6.1	mac	2022-12-19	19:12:47	19:15:17	148194	594ad91fa6fb8200018f720c	101036863	1	practice_slash	5	advance_on_keypress_SLASH	12	stimuli_distractor_trianglediamonds.svg	stimuli_distractor_trianglediamonds.svg	15	no	57	0	823
6.6.1	mac	2022-12-19	19:12:47	19:15:20	151361	594ad91fa6fb8200018f720c	101036863	1	practice_slash	5	practice_slash	13	stimuli_distractor_trianglediamonds.svg	stimuli_target_diamondcircles.svg	12	yes	53	1	715
6.6.1	mac	2022-12-19	19:12:47	19:15:20	151361	594ad91fa6fb8200018f720c	101036863	1	practice_slash	5	advance_on_keypress_SLASH	14	stimuli_distractor_trianglediamonds.svg	stimuli_target_diamondcircles.svg	12	yes	57	0	648
6.6.1	mac	2022-12-19	19:12:47	19:15:23	154141	594ad91fa6fb8200018f720c	101036863	1	practice_slash	5	practice_slash	15	stimuli_target_squarediamonds.svg	stimuli_distractor_trianglediamonds.svg	5	yes	53	1	496
6.6.1	mac	2022-12-19	19:12:47	19:15:23	154141	594ad91fa6fb8200018f720c	101036863	1	practice_slash	5	advance_on_keypress_SLASH	16	stimuli_target_squarediamonds.svg	stimuli_distractor_trianglediamonds.svg	5	yes	57	0	622
6.6.1	mac	2022-12-19	19:12:47	19:15:26	157011	594ad91fa6fb8200018f720c	101036863	1	practice_slash	5	practice_slash	17	stimuli_distractor_diamondtriangles.svg	stimuli_target_trianglecircles.svg	9	yes	53	1	615
6.6.1	mac	2022-12-19	19:12:47	19:15:26	157011	594ad91fa6fb8200018f720c	101036863	1	practice_slash	5	advance_on_keypress_SLASH	18	stimuli_distractor_diamondtriangles.svg	stimuli_target_trianglecircles.svg	9	yes	57	0	563
6.6.1	mac	2022-12-19	19:12:47	19:15:30	161210	594ad91fa6fb8200018f720c	101036863	1	practice_slash	5	practice_slash	19	stimuli_target_diamondsquares.svg	stimuli_distractor_diamondtriangles.svg	3	yes	0	0	2000
6.6.1	mac	2022-12-19	19:12:47	19:15:30	161210	594ad91fa6fb8200018f720c	101036863	1	practice_slash	5	advance_on_keypress_SLASH	20	stimuli_target_diamondsquares.svg	stimuli_distractor_diamondtriangles.svg	3	yes	57	0	519
6.6.1	mac	2022-12-19	19:12:47	19:15:34	165360	594ad91fa6fb8200018f720c	101036863	1	practice_slash	5	practice_slash	21	stimuli_distractor_diamondtriangles.svg	stimuli_distractor_diamondtriangles.svg	13	no	0	1	2000
6.6.1	mac	2022-12-19	19:12:47	19:15:34	165360	594ad91fa6fb8200018f720c	101036863	1	practice_slash	5	advance_on_keypress_SLASH	22	stimuli_distractor_diamondtriangles.svg	stimuli_distractor_diamondtriangles.svg	13	no	57	0	446
6.6.1	mac	2022-12-19	19:12:47	19:15:37	167908	594ad91fa6fb8200018f720c	101036863	1	practice_slash	5	practice_slash	23	stimuli_distractor_diamondtriangles.svg	stimuli_target_circletriangles.svg	7	yes	53	1	461
6.6.1	mac	2022-12-19	19:12:47	19:15:37	167908	594ad91fa6fb8200018f720c	101036863	1	practice_slash	5	advance_on_keypress_SLASH	24	stimuli_distractor_diamondtriangles.svg	stimuli_target_circletriangles.svg	7	yes	57	0	614
6.6.1	mac	2022-12-19	19:12:47	19:15:39	170659	594ad91fa6fb8200018f720c	101036863	1	practice_slash	5	practice_slash	25	stimuli_distractor_diamondtriangles.svg	stimuli_target_diamondcircles.svg	8	yes	53	1	497
6.6.1	mac	2022-12-19	19:12:47	19:15:39	170659	594ad91fa6fb8200018f720c	101036863	1	practice_slash	5	advance_on_keypress_SLASH	26	stimuli_distractor_diamondtriangles.svg	stimuli_target_diamondcircles.svg	8	yes	57	0	422
6.6.1	mac	2022-12-19	19:12:47	19:15:43	174710	594ad91fa6fb8200018f720c	101036863	1	practice_slash	5	practice_slash	27	stimuli_distractor_diamondtriangles.svg	stimuli_distractor_trianglediamonds.svg	14	no	0	1	2000
6.6.1	mac	2022-12-19	19:12:47	19:15:43	174710	594ad91fa6fb8200018f720c	101036863	1	practice_slash	5	advance_on_keypress_SLASH	28	stimuli_distractor_diamondtriangles.svg	stimuli_distractor_trianglediamonds.svg	14	no	57	0	401
6.6.1	mac	2022-12-19	19:12:47	19:15:46	177511	594ad91fa6fb8200018f720c	101036863	1	practice_slash	5	practice_slash	29	stimuli_distractor_trianglediamonds.svg	stimuli_distractor_diamondtriangles.svg	16	no	53	0	766
6.6.1	mac	2022-12-19	19:12:47	19:15:46	177511	594ad91fa6fb8200018f720c	101036863	1	practice_slash	5	advance_on_keypress_SLASH	30	stimuli_distractor_trianglediamonds.svg	stimuli_distractor_diamondtriangles.svg	16	no	57	0	540
6.6.1	mac	2022-12-19	19:12:47	19:15:50	181676	594ad91fa6fb8200018f720c	101036863	1	practice_slash	5	practice_slash	31	stimuli_target_diamondsquares.svg	stimuli_distractor_trianglediamonds.svg	6	yes	0	0	2000
6.6.1	mac	2022-12-19	19:12:47	19:15:50	181676	594ad91fa6fb8200018f720c	101036863	1	practice_slash	5	advance_on_keypress_SLASH	32	stimuli_target_diamondsquares.svg	stimuli_distractor_trianglediamonds.svg	6	yes	57	0	388
6.6.1	mac	2022-12-19	19:12:47	19:15:59	190194	594ad91fa6fb8200018f720c	101036863	1	main_slash	7	main_slash	1	stimuli_distractor_diamondtriangles.svg	stimuli_distractor_diamondtriangles.svg	39	no	0	1	2000
6.6.1	mac	2022-12-19	19:12:47	19:15:59	190194	594ad91fa6fb8200018f720c	101036863	1	main_slash	7	advance_on_keypress_SLASH	2	stimuli_distractor_diamondtriangles.svg	stimuli_distractor_diamondtriangles.svg	39	no	57	0	582
6.6.1	mac	2022-12-19	19:12:47	19:16:00	191863	594ad91fa6fb8200018f720c	101036863	1	main_slash	7	main_slash	3	stimuli_distractor_trianglediamonds.svg	stimuli_target_diamondcircles.svg	27	yes	53	1	452
6.6.1	mac	2022-12-19	19:12:47	19:16:00	191863	594ad91fa6fb8200018f720c	101036863	1	main_slash	7	advance_on_keypress_SLASH	4	stimuli_distractor_trianglediamonds.svg	stimuli_target_diamondcircles.svg	27	yes	57	0	750
6.6.1	mac	2022-12-19	19:12:47	19:16:02	193637	594ad91fa6fb8200018f720c	101036863	1	main_slash	7	main_slash	5	stimuli_target_squarediamonds.svg	stimuli_distractor_trianglediamonds.svg	4	yes	53	1	391
6.6.1	mac	2022-12-19	19:12:47	19:16:02	193637	594ad91fa6fb8200018f720c	101036863	1	main_slash	7	advance_on_keypress_SLASH	6	stimuli_target_squarediamonds.svg	stimuli_distractor_trianglediamonds.svg	4	yes	57	0	442
6.6.1	mac	2022-12-19	19:12:47	19:16:05	196694	594ad91fa6fb8200018f720c	101036863	1	main_slash	7	main_slash	7	stimuli_target_trianglesquares.svg	stimuli_distractor_trianglediamonds.svg	18	yes	0	0	2000
6.6.1	mac	2022-12-19	19:12:47	19:16:05	196694	594ad91fa6fb8200018f720c	101036863	1	main_slash	7	advance_on_keypress_SLASH	8	stimuli_target_trianglesquares.svg	stimuli_distractor_trianglediamonds.svg	18	yes	57	0	509
6.6.1	mac	2022-12-19	19:12:47	19:16:07	198193	594ad91fa6fb8200018f720c	101036863	1	main_slash	7	main_slash	9	stimuli_target_squaretriangles.svg	stimuli_distractor_diamondtriangles.svg	7	yes	53	1	365
6.6.1	mac	2022-12-19	19:12:47	19:16:07	198193	594ad91fa6fb8200018f720c	101036863	1	main_slash	7	advance_on_keypress_SLASH	10	stimuli_target_squaretriangles.svg	stimuli_distractor_diamondtriangles.svg	7	yes	57	0	710
6.6.1	mac	2022-12-19	19:12:47	19:16:09	200104	594ad91fa6fb8200018f720c	101036863	1	main_slash	7	main_slash	11	stimuli_distractor_diamondtriangles.svg	stimuli_target_squaretriangles.svg	15	yes	53	1	575
6.6.1	mac	2022-12-19	19:12:47	19:16:09	200104	594ad91fa6fb8200018f720c	101036863	1	main_slash	7	advance_on_keypress_SLASH	12	stimuli_distractor_diamondtriangles.svg	stimuli_target_squaretriangles.svg	15	yes	57	0	569
6.6.1	mac	2022-12-19	19:12:47	19:16:12	203310	594ad91fa6fb8200018f720c	101036863	1	main_slash	7	main_slash	13	stimuli_distractor_diamondtriangles.svg	stimuli_distractor_trianglediamonds.svg	38	no	0	1	2000
6.6.1	mac	2022-12-19	19:12:47	19:16:12	203310	594ad91fa6fb8200018f720c	101036863	1	main_slash	7	advance_on_keypress_SLASH	14	stimuli_distractor_diamondtriangles.svg	stimuli_distractor_trianglediamonds.svg	38	no	57	0	418
6.6.1	mac	2022-12-19	19:12:47	19:16:15	206359	594ad91fa6fb8200018f720c	101036863	1	main_slash	7	main_slash	15	stimuli_distractor_diamondtriangles.svg	stimuli_distractor_trianglediamonds.svg	37	no	0	1	2000
6.6.1	mac	2022-12-19	19:12:47	19:16:15	206359	594ad91fa6fb8200018f720c	101036863	1	main_slash	7	advance_on_keypress_SLASH	16	stimuli_distractor_diamondtriangles.svg	stimuli_distractor_trianglediamonds.svg	37	no	57	0	310
6.6.1	mac	2022-12-19	19:12:47	19:16:16	207774	594ad91fa6fb8200018f720c	101036863	1	main_slash	7	main_slash	17	stimuli_distractor_diamondtriangles.svg	stimuli_target_trianglecircles.svg	29	yes	53	1	479
6.6.1	mac	2022-12-19	19:12:47	19:16:16	207774	594ad91fa6fb8200018f720c	101036863	1	main_slash	7	advance_on_keypress_SLASH	18	stimuli_distractor_diamondtriangles.svg	stimuli_target_trianglecircles.svg	29	yes	57	0	970
6.6.1	mac	2022-12-19	19:12:47	19:16:19	210084	594ad91fa6fb8200018f720c	101036863	1	main_slash	7	main_slash	19	stimuli_target_trianglecircles.svg	stimuli_distractor_trianglediamonds.svg	17	yes	53	1	705
6.6.1	mac	2022-12-19	19:12:47	19:16:19	210084	594ad91fa6fb8200018f720c	101036863	1	main_slash	7	advance_on_keypress_SLASH	20	stimuli_target_trianglecircles.svg	stimuli_distractor_trianglediamonds.svg	17	yes	57	0	879
6.6.1	mac	2022-12-19	19:12:47	19:16:22	213593	594ad91fa6fb8200018f720c	101036863	1	main_slash	7	main_slash	21	stimuli_distractor_diamondtriangles.svg	stimuli_distractor_diamondtriangles.svg	40	no	0	1	2000
6.6.1	mac	2022-12-19	19:12:47	19:16:22	213593	594ad91fa6fb8200018f720c	101036863	1	main_slash	7	advance_on_keypress_SLASH	22	stimuli_distractor_diamondtriangles.svg	stimuli_distractor_diamondtriangles.svg	40	no	57	0	318
6.6.1	mac	2022-12-19	19:12:47	19:16:24	214946	594ad91fa6fb8200018f720c	101036863	1	main_slash	7	main_slash	23	stimuli_distractor_trianglediamonds.svg	stimuli_target_trianglesquares.svg	26	yes	53	1	402
6.6.1	mac	2022-12-19	19:12:47	19:16:24	214946	594ad91fa6fb8200018f720c	101036863	1	main_slash	7	advance_on_keypress_SLASH	24	stimuli_distractor_trianglediamonds.svg	stimuli_target_trianglesquares.svg	26	yes	57	0	522
6.6.1	mac	2022-12-19	19:12:47	19:16:25	216525	594ad91fa6fb8200018f720c	101036863	1	main_slash	7	main_slash	25	stimuli_target_circletriangles.svg	stimuli_distractor_trianglediamonds.svg	1	yes	53	1	430
6.6.1	mac	2022-12-19	19:12:47	19:16:25	216525	594ad91fa6fb8200018f720c	101036863	1	main_slash	7	advance_on_keypress_SLASH	26	stimuli_target_circletriangles.svg	stimuli_distractor_trianglediamonds.svg	1	yes	57	0	471
6.6.1	mac	2022-12-19	19:12:47	19:16:27	218170	594ad91fa6fb8200018f720c	101036863	1	main_slash	7	main_slash	27	stimuli_distractor_trianglediamonds.svg	stimuli_distractor_diamondtriangles.svg	35	no	53	0	541
6.6.1	mac	2022-12-19	19:12:47	19:16:27	218170	594ad91fa6fb8200018f720c	101036863	1	main_slash	7	advance_on_keypress_SLASH	28	stimuli_distractor_trianglediamonds.svg	stimuli_distractor_diamondtriangles.svg	35	no	57	0	497
6.6.1	mac	2022-12-19	19:12:47	19:16:28	219727	594ad91fa6fb8200018f720c	101036863	1	main_slash	7	main_slash	29	stimuli_distractor_diamondtriangles.svg	stimuli_target_trianglesquares.svg	30	yes	53	1	432
6.6.1	mac	2022-12-19	19:12:47	19:16:28	219727	594ad91fa6fb8200018f720c	101036863	1	main_slash	7	advance_on_keypress_SLASH	30	stimuli_distractor_diamondtriangles.svg	stimuli_target_trianglesquares.svg	30	yes	57	0	573
6.6.1	mac	2022-12-19	19:12:47	19:16:30	221669	594ad91fa6fb8200018f720c	101036863	1	main_slash	7	main_slash	31	stimuli_distractor_diamondtriangles.svg	stimuli_target_squarediamonds.svg	16	yes	53	1	740
6.6.1	mac	2022-12-19	19:12:47	19:16:30	221669	594ad91fa6fb8200018f720c	101036863	1	main_slash	7	advance_on_keypress_SLASH	32	stimuli_distractor_diamondtriangles.svg	stimuli_target_squarediamonds.svg	16	yes	57	0	424
6.6.1	mac	2022-12-19	19:12:47	19:16:32	223307	594ad91fa6fb8200018f720c	101036863	1	main_slash	7	main_slash	33	stimuli_target_trianglesquares.svg	stimuli_distractor_diamondtriangles.svg	22	yes	53	1	595
6.6.1	mac	2022-12-19	19:12:47	19:16:32	223307	594ad91fa6fb8200018f720c	101036863	1	main_slash	7	advance_on_keypress_SLASH	34	stimuli_target_trianglesquares.svg	stimuli_distractor_diamondtriangles.svg	22	yes	57	0	421
6.6.1	mac	2022-12-19	19:12:47	19:16:33	224722	594ad91fa6fb8200018f720c	101036863	1	main_slash	7	main_slash	35	stimuli_target_circletriangles.svg	stimuli_distractor_diamondtriangles.svg	5	yes	53	1	360
6.6.1	mac	2022-12-19	19:12:47	19:16:33	224722	594ad91fa6fb8200018f720c	101036863	1	main_slash	7	advance_on_keypress_SLASH	36	stimuli_target_circletriangles.svg	stimuli_distractor_diamondtriangles.svg	5	yes	57	0	500
6.6.1	mac	2022-12-19	19:12:47	19:16:36	227204	594ad91fa6fb8200018f720c	101036863	1	main_slash	7	main_slash	37	stimuli_distractor_trianglediamonds.svg	stimuli_target_diamondsquares.svg	28	yes	53	1	1358
6.6.1	mac	2022-12-19	19:12:47	19:16:36	227204	594ad91fa6fb8200018f720c	101036863	1	main_slash	7	advance_on_keypress_SLASH	38	stimuli_distractor_trianglediamonds.svg	stimuli_target_diamondsquares.svg	28	yes	57	0	508
6.6.1	mac	2022-12-19	19:12:47	19:16:38	228917	594ad91fa6fb8200018f720c	101036863	1	main_slash	7	main_slash	39	stimuli_target_diamondsquares.svg	stimuli_distractor_diamondtriangles.svg	24	yes	53	1	588
6.6.1	mac	2022-12-19	19:12:47	19:16:38	228917	594ad91fa6fb8200018f720c	101036863	1	main_slash	7	advance_on_keypress_SLASH	40	stimuli_target_diamondsquares.svg	stimuli_distractor_diamondtriangles.svg	24	yes	57	0	351
6.6.1	mac	2022-12-19	19:12:47	19:16:39	230270	594ad91fa6fb8200018f720c	101036863	1	main_slash	7	main_slash	41	stimuli_distractor_diamondtriangles.svg	stimuli_target_diamondcircles.svg	31	yes	53	1	375
6.6.1	mac	2022-12-19	19:12:47	19:16:39	230270	594ad91fa6fb8200018f720c	101036863	1	main_slash	7	advance_on_keypress_SLASH	42	stimuli_distractor_diamondtriangles.svg	stimuli_target_diamondcircles.svg	31	yes	57	0	340
6.6.1	mac	2022-12-19	19:12:47	19:16:42	233243	594ad91fa6fb8200018f720c	101036863	1	main_slash	7	main_slash	43	stimuli_distractor_trianglediamonds.svg	stimuli_distractor_diamondtriangles.svg	36	no	0	1	2000
6.6.1	mac	2022-12-19	19:12:47	19:16:42	233243	594ad91fa6fb8200018f720c	101036863	1	main_slash	7	advance_on_keypress_SLASH	44	stimuli_distractor_trianglediamonds.svg	stimuli_distractor_diamondtriangles.svg	36	no	57	0	506
6.6.1	mac	2022-12-19	19:12:47	19:16:43	234771	594ad91fa6fb8200018f720c	101036863	1	main_slash	7	main_slash	45	stimuli_distractor_trianglediamonds.svg	stimuli_target_trianglecircles.svg	25	yes	53	1	392
6.6.1	mac	2022-12-19	19:12:47	19:16:43	234771	594ad91fa6fb8200018f720c	101036863	1	main_slash	7	advance_on_keypress_SLASH	46	stimuli_distractor_trianglediamonds.svg	stimuli_target_trianglecircles.svg	25	yes	57	0	385
6.6.1	mac	2022-12-19	19:12:47	19:16:45	236431	594ad91fa6fb8200018f720c	101036863	1	main_slash	7	main_slash	47	stimuli_distractor_trianglediamonds.svg	stimuli_target_circlediamonds.svg	10	yes	53	1	652
6.6.1	mac	2022-12-19	19:12:47	19:16:45	236431	594ad91fa6fb8200018f720c	101036863	1	main_slash	7	advance_on_keypress_SLASH	48	stimuli_distractor_trianglediamonds.svg	stimuli_target_circlediamonds.svg	10	yes	57	0	461
6.6.1	mac	2022-12-19	19:12:47	19:16:47	238087	594ad91fa6fb8200018f720c	101036863	1	main_slash	7	main_slash	49	stimuli_target_diamondcircles.svg	stimuli_distractor_diamondtriangles.svg	23	yes	53	1	575
6.6.1	mac	2022-12-19	19:12:47	19:16:47	238087	594ad91fa6fb8200018f720c	101036863	1	main_slash	7	advance_on_keypress_SLASH	50	stimuli_target_diamondcircles.svg	stimuli_distractor_diamondtriangles.svg	23	yes	57	0	349
6.6.1	mac	2022-12-19	19:12:47	19:16:48	239465	594ad91fa6fb8200018f720c	101036863	1	main_slash	7	main_slash	51	stimuli_target_diamondcircles.svg	stimuli_distractor_trianglediamonds.svg	19	yes	53	1	404
6.6.1	mac	2022-12-19	19:12:47	19:16:48	239465	594ad91fa6fb8200018f720c	101036863	1	main_slash	7	advance_on_keypress_SLASH	52	stimuli_target_diamondcircles.svg	stimuli_distractor_trianglediamonds.svg	19	yes	57	0	334
6.6.1	mac	2022-12-19	19:12:47	19:16:50	240933	594ad91fa6fb8200018f720c	101036863	1	main_slash	7	main_slash	53	stimuli_target_circlediamonds.svg	stimuli_distractor_diamondtriangles.svg	6	yes	53	1	504
6.6.1	mac	2022-12-19	19:12:47	19:16:50	240933	594ad91fa6fb8200018f720c	101036863	1	main_slash	7	advance_on_keypress_SLASH	54	stimuli_target_circlediamonds.svg	stimuli_distractor_diamondtriangles.svg	6	yes	57	0	311
6.6.1	mac	2022-12-19	19:12:47	19:16:51	242462	594ad91fa6fb8200018f720c	101036863	1	main_slash	7	main_slash	55	stimuli_distractor_trianglediamonds.svg	stimuli_target_squarediamonds.svg	12	yes	53	1	601
6.6.1	mac	2022-12-19	19:12:47	19:16:51	242462	594ad91fa6fb8200018f720c	101036863	1	main_slash	7	advance_on_keypress_SLASH	56	stimuli_distractor_trianglediamonds.svg	stimuli_target_squarediamonds.svg	12	yes	57	0	317
6.6.1	mac	2022-12-19	19:12:47	19:16:54	245409	594ad91fa6fb8200018f720c	101036863	1	main_slash	7	main_slash	57	stimuli_distractor_diamondtriangles.svg	stimuli_target_circletriangles.svg	13	yes	0	0	2000
6.6.1	mac	2022-12-19	19:12:47	19:16:54	245409	594ad91fa6fb8200018f720c	101036863	1	main_slash	7	advance_on_keypress_SLASH	58	stimuli_distractor_diamondtriangles.svg	stimuli_target_circletriangles.svg	13	yes	57	0	1197
6.6.1	mac	2022-12-19	19:12:47	19:16:57	247882	594ad91fa6fb8200018f720c	101036863	1	main_slash	7	main_slash	59	stimuli_distractor_trianglediamonds.svg	stimuli_target_squaretriangles.svg	11	yes	53	1	637
6.6.1	mac	2022-12-19	19:12:47	19:16:57	247882	594ad91fa6fb8200018f720c	101036863	1	main_slash	7	advance_on_keypress_SLASH	60	stimuli_distractor_trianglediamonds.svg	stimuli_target_squaretriangles.svg	11	yes	57	0	682
6.6.1	mac	2022-12-19	19:12:47	19:16:58	249573	594ad91fa6fb8200018f720c	101036863	1	main_slash	7	main_slash	61	stimuli_distractor_diamondtriangles.svg	stimuli_target_circlediamonds.svg	14	yes	53	1	378
6.6.1	mac	2022-12-19	19:12:47	19:16:58	249573	594ad91fa6fb8200018f720c	101036863	1	main_slash	7	advance_on_keypress_SLASH	62	stimuli_distractor_diamondtriangles.svg	stimuli_target_circlediamonds.svg	14	yes	57	0	316
6.6.1	mac	2022-12-19	19:12:47	19:17:01	252527	594ad91fa6fb8200018f720c	101036863	1	main_slash	7	main_slash	63	stimuli_distractor_trianglediamonds.svg	stimuli_distractor_trianglediamonds.svg	33	no	0	1	2000
6.6.1	mac	2022-12-19	19:12:47	19:17:01	252527	594ad91fa6fb8200018f720c	101036863	1	main_slash	7	advance_on_keypress_SLASH	64	stimuli_distractor_trianglediamonds.svg	stimuli_distractor_trianglediamonds.svg	33	no	57	0	463
6.6.1	mac	2022-12-19	19:12:47	19:17:04	255627	594ad91fa6fb8200018f720c	101036863	1	main_slash	7	main_slash	65	stimuli_distractor_trianglediamonds.svg	stimuli_distractor_trianglediamonds.svg	34	no	0	1	2000
6.6.1	mac	2022-12-19	19:12:47	19:17:04	255627	594ad91fa6fb8200018f720c	101036863	1	main_slash	7	advance_on_keypress_SLASH	66	stimuli_distractor_trianglediamonds.svg	stimuli_distractor_trianglediamonds.svg	34	no	57	0	570
6.6.1	mac	2022-12-19	19:12:47	19:17:07	257953	594ad91fa6fb8200018f720c	101036863	1	main_slash	7	main_slash	67	stimuli_distractor_diamondtriangles.svg	stimuli_target_diamondsquares.svg	32	yes	53	1	1124
6.6.1	mac	2022-12-19	19:12:47	19:17:07	257953	594ad91fa6fb8200018f720c	101036863	1	main_slash	7	advance_on_keypress_SLASH	68	stimuli_distractor_diamondtriangles.svg	stimuli_target_diamondsquares.svg	32	yes	57	0	897
6.6.1	mac	2022-12-19	19:12:47	19:17:09	260011	594ad91fa6fb8200018f720c	101036863	1	main_slash	7	main_slash	69	stimuli_target_circlediamonds.svg	stimuli_distractor_trianglediamonds.svg	2	yes	53	1	533
6.6.1	mac	2022-12-19	19:12:47	19:17:09	260011	594ad91fa6fb8200018f720c	101036863	1	main_slash	7	advance_on_keypress_SLASH	70	stimuli_target_circlediamonds.svg	stimuli_distractor_trianglediamonds.svg	2	yes	57	0	655
6.6.1	mac	2022-12-19	19:12:47	19:17:10	261806	594ad91fa6fb8200018f720c	101036863	1	main_slash	7	main_slash	71	stimuli_target_diamondsquares.svg	stimuli_distractor_trianglediamonds.svg	20	yes	53	1	511
6.6.1	mac	2022-12-19	19:12:47	19:17:10	261806	594ad91fa6fb8200018f720c	101036863	1	main_slash	7	advance_on_keypress_SLASH	72	stimuli_target_diamondsquares.svg	stimuli_distractor_trianglediamonds.svg	20	yes	57	0	365
6.6.1	mac	2022-12-19	19:12:47	19:17:12	263201	594ad91fa6fb8200018f720c	101036863	1	main_slash	7	main_slash	73	stimuli_target_trianglecircles.svg	stimuli_distractor_diamondtriangles.svg	21	yes	53	1	390
6.6.1	mac	2022-12-19	19:12:47	19:17:12	263201	594ad91fa6fb8200018f720c	101036863	1	main_slash	7	advance_on_keypress_SLASH	74	stimuli_target_trianglecircles.svg	stimuli_distractor_diamondtriangles.svg	21	yes	57	0	289
6.6.1	mac	2022-12-19	19:12:47	19:17:13	264474	594ad91fa6fb8200018f720c	101036863	1	main_slash	7	main_slash	75	stimuli_target_squaretriangles.svg	stimuli_distractor_trianglediamonds.svg	3	yes	53	1	362
6.6.1	mac	2022-12-19	19:12:47	19:17:13	264474	594ad91fa6fb8200018f720c	101036863	1	main_slash	7	advance_on_keypress_SLASH	76	stimuli_target_squaretriangles.svg	stimuli_distractor_trianglediamonds.svg	3	yes	57	0	289
6.6.1	mac	2022-12-19	19:12:47	19:17:14	265757	594ad91fa6fb8200018f720c	101036863	1	main_slash	7	main_slash	77	stimuli_target_squarediamonds.svg	stimuli_distractor_diamondtriangles.svg	8	yes	53	1	362
6.6.1	mac	2022-12-19	19:12:47	19:17:14	265757	594ad91fa6fb8200018f720c	101036863	1	main_slash	7	advance_on_keypress_SLASH	78	stimuli_target_squarediamonds.svg	stimuli_distractor_diamondtriangles.svg	8	yes	57	0	661
6.6.1	mac	2022-12-19	19:12:47	19:17:16	267470	594ad91fa6fb8200018f720c	101036863	1	main_slash	7	main_slash	79	stimuli_distractor_trianglediamonds.svg	stimuli_target_circletriangles.svg	9	yes	53	1	408
6.6.1	mac	2022-12-19	19:12:47	19:17:16	267470	594ad91fa6fb8200018f720c	101036863	1	main_slash	7	advance_on_keypress_SLASH	80	stimuli_distractor_trianglediamonds.svg	stimuli_target_circletriangles.svg	9	yes	57	0	317
6.6.1	mac	2022-12-19	19:12:47	19:17:17	268819	594ad91fa6fb8200018f720c	101036863	1	main_slash	7	main_slash	81	stimuli_distractor_trianglediamonds.svg	stimuli_target_diamondsquares.svg	28	yes	53	1	407
6.6.1	mac	2022-12-19	19:12:47	19:17:17	268819	594ad91fa6fb8200018f720c	101036863	1	main_slash	7	advance_on_keypress_SLASH	82	stimuli_distractor_trianglediamonds.svg	stimuli_target_diamondsquares.svg	28	yes	57	0	344
6.6.1	mac	2022-12-19	19:12:47	19:17:20	271776	594ad91fa6fb8200018f720c	101036863	1	main_slash	7	main_slash	83	stimuli_distractor_trianglediamonds.svg	stimuli_distractor_diamondtriangles.svg	35	no	0	1	2000
6.6.1	mac	2022-12-19	19:12:47	19:17:20	271776	594ad91fa6fb8200018f720c	101036863	1	main_slash	7	advance_on_keypress_SLASH	84	stimuli_distractor_trianglediamonds.svg	stimuli_distractor_diamondtriangles.svg	35	no	57	0	366
6.6.1	mac	2022-12-19	19:12:47	19:17:22	273256	594ad91fa6fb8200018f720c	101036863	1	main_slash	7	main_slash	85	stimuli_target_squaretriangles.svg	stimuli_distractor_diamondtriangles.svg	7	yes	53	1	477
6.6.1	mac	2022-12-19	19:12:47	19:17:22	273256	594ad91fa6fb8200018f720c	101036863	1	main_slash	7	advance_on_keypress_SLASH	86	stimuli_target_squaretriangles.svg	stimuli_distractor_diamondtriangles.svg	7	yes	57	0	265
6.6.1	mac	2022-12-19	19:12:47	19:17:23	274795	594ad91fa6fb8200018f720c	101036863	1	main_slash	7	main_slash	87	stimuli_distractor_diamondtriangles.svg	stimuli_target_diamondsquares.svg	32	yes	53	1	649
6.6.1	mac	2022-12-19	19:12:47	19:17:23	274795	594ad91fa6fb8200018f720c	101036863	1	main_slash	7	advance_on_keypress_SLASH	88	stimuli_distractor_diamondtriangles.svg	stimuli_target_diamondsquares.svg	32	yes	57	0	359
6.6.1	mac	2022-12-19	19:12:47	19:17:26	277776	594ad91fa6fb8200018f720c	101036863	1	main_slash	7	main_slash	89	stimuli_distractor_trianglediamonds.svg	stimuli_distractor_trianglediamonds.svg	34	no	0	1	2000
6.6.1	mac	2022-12-19	19:12:47	19:17:26	277776	594ad91fa6fb8200018f720c	101036863	1	main_slash	7	advance_on_keypress_SLASH	90	stimuli_distractor_trianglediamonds.svg	stimuli_distractor_trianglediamonds.svg	34	no	57	0	808
6.6.1	mac	2022-12-19	19:12:47	19:17:28	279616	594ad91fa6fb8200018f720c	101036863	1	main_slash	7	main_slash	91	stimuli_target_trianglesquares.svg	stimuli_distractor_trianglediamonds.svg	18	yes	53	1	404
6.6.1	mac	2022-12-19	19:12:47	19:17:28	279616	594ad91fa6fb8200018f720c	101036863	1	main_slash	7	advance_on_keypress_SLASH	92	stimuli_target_trianglesquares.svg	stimuli_distractor_trianglediamonds.svg	18	yes	57	0	221
6.6.1	mac	2022-12-19	19:12:47	19:17:30	280904	594ad91fa6fb8200018f720c	101036863	1	main_slash	7	main_slash	93	stimuli_target_circlediamonds.svg	stimuli_distractor_diamondtriangles.svg	6	yes	53	1	442
6.6.1	mac	2022-12-19	19:12:47	19:17:30	280904	594ad91fa6fb8200018f720c	101036863	1	main_slash	7	advance_on_keypress_SLASH	94	stimuli_target_circlediamonds.svg	stimuli_distractor_diamondtriangles.svg	6	yes	57	0	294
6.6.1	mac	2022-12-19	19:12:47	19:17:31	282187	594ad91fa6fb8200018f720c	101036863	1	main_slash	7	main_slash	95	stimuli_target_trianglecircles.svg	stimuli_distractor_trianglediamonds.svg	17	yes	53	1	375
6.6.1	mac	2022-12-19	19:12:47	19:17:31	282187	594ad91fa6fb8200018f720c	101036863	1	main_slash	7	advance_on_keypress_SLASH	96	stimuli_target_trianglecircles.svg	stimuli_distractor_trianglediamonds.svg	17	yes	57	0	284
6.6.1	mac	2022-12-19	19:12:47	19:17:34	285093	594ad91fa6fb8200018f720c	101036863	1	main_slash	7	main_slash	97	stimuli_distractor_diamondtriangles.svg	stimuli_distractor_trianglediamonds.svg	37	no	0	1	2000
6.6.1	mac	2022-12-19	19:12:47	19:17:34	285093	594ad91fa6fb8200018f720c	101036863	1	main_slash	7	advance_on_keypress_SLASH	98	stimuli_distractor_diamondtriangles.svg	stimuli_distractor_trianglediamonds.svg	37	no	57	0	517
6.6.1	mac	2022-12-19	19:12:47	19:17:35	286801	594ad91fa6fb8200018f720c	101036863	1	main_slash	7	main_slash	99	stimuli_target_diamondsquares.svg	stimuli_distractor_diamondtriangles.svg	24	yes	53	1	556
6.6.1	mac	2022-12-19	19:12:47	19:17:35	286801	594ad91fa6fb8200018f720c	101036863	1	main_slash	7	advance_on_keypress_SLASH	100	stimuli_target_diamondsquares.svg	stimuli_distractor_diamondtriangles.svg	24	yes	57	0	240
6.6.1	mac	2022-12-19	19:12:47	19:17:37	288027	594ad91fa6fb8200018f720c	101036863	1	main_slash	7	main_slash	101	stimuli_target_diamondcircles.svg	stimuli_distractor_diamondtriangles.svg	23	yes	53	1	365
6.6.1	mac	2022-12-19	19:12:47	19:17:37	288027	594ad91fa6fb8200018f720c	101036863	1	main_slash	7	advance_on_keypress_SLASH	102	stimuli_target_diamondcircles.svg	stimuli_distractor_diamondtriangles.svg	23	yes	57	0	196
6.6.1	mac	2022-12-19	19:12:47	19:17:38	289226	594ad91fa6fb8200018f720c	101036863	1	main_slash	7	main_slash	103	stimuli_distractor_diamondtriangles.svg	stimuli_target_circletriangles.svg	13	yes	53	1	365
6.6.1	mac	2022-12-19	19:12:47	19:17:38	289226	594ad91fa6fb8200018f720c	101036863	1	main_slash	7	advance_on_keypress_SLASH	104	stimuli_distractor_diamondtriangles.svg	stimuli_target_circletriangles.svg	13	yes	57	0	309
6.6.1	mac	2022-12-19	19:12:47	19:17:39	290633	594ad91fa6fb8200018f720c	101036863	1	main_slash	7	main_slash	105	stimuli_distractor_trianglediamonds.svg	stimuli_target_squaretriangles.svg	11	yes	53	1	472
6.6.1	mac	2022-12-19	19:12:47	19:17:39	290633	594ad91fa6fb8200018f720c	101036863	1	main_slash	7	advance_on_keypress_SLASH	106	stimuli_distractor_trianglediamonds.svg	stimuli_target_squaretriangles.svg	11	yes	57	0	297
6.6.1	mac	2022-12-19	19:12:47	19:17:41	292128	594ad91fa6fb8200018f720c	101036863	1	main_slash	7	main_slash	107	stimuli_distractor_trianglediamonds.svg	stimuli_target_squarediamonds.svg	12	yes	53	1	566
6.6.1	mac	2022-12-19	19:12:47	19:17:41	292128	594ad91fa6fb8200018f720c	101036863	1	main_slash	7	advance_on_keypress_SLASH	108	stimuli_distractor_trianglediamonds.svg	stimuli_target_squarediamonds.svg	12	yes	57	0	948
6.6.1	mac	2022-12-19	19:12:47	19:17:43	294400	594ad91fa6fb8200018f720c	101036863	1	main_slash	7	main_slash	109	stimuli_target_diamondsquares.svg	stimuli_distractor_trianglediamonds.svg	20	yes	53	1	688
6.6.1	mac	2022-12-19	19:12:47	19:17:43	294400	594ad91fa6fb8200018f720c	101036863	1	main_slash	7	advance_on_keypress_SLASH	110	stimuli_target_diamondsquares.svg	stimuli_distractor_trianglediamonds.svg	20	yes	57	0	293
6.6.1	mac	2022-12-19	19:12:47	19:17:44	295773	594ad91fa6fb8200018f720c	101036863	1	main_slash	7	main_slash	111	stimuli_target_diamondcircles.svg	stimuli_distractor_trianglediamonds.svg	19	yes	53	1	461
6.6.1	mac	2022-12-19	19:12:47	19:17:44	295773	594ad91fa6fb8200018f720c	101036863	1	main_slash	7	advance_on_keypress_SLASH	112	stimuli_target_diamondcircles.svg	stimuli_distractor_trianglediamonds.svg	19	yes	57	0	198
6.6.1	mac	2022-12-19	19:12:47	19:17:47	298593	594ad91fa6fb8200018f720c	101036863	1	main_slash	7	main_slash	113	stimuli_distractor_trianglediamonds.svg	stimuli_distractor_trianglediamonds.svg	33	no	0	1	2000
6.6.1	mac	2022-12-19	19:12:47	19:17:47	298593	594ad91fa6fb8200018f720c	101036863	1	main_slash	7	advance_on_keypress_SLASH	114	stimuli_distractor_trianglediamonds.svg	stimuli_distractor_trianglediamonds.svg	33	no	57	0	2557
6.6.1	mac	2022-12-19	19:12:47	19:17:51	302144	594ad91fa6fb8200018f720c	101036863	1	main_slash	7	main_slash	115	stimuli_distractor_diamondtriangles.svg	stimuli_distractor_diamondtriangles.svg	39	no	53	0	366
6.6.1	mac	2022-12-19	19:12:47	19:17:51	302144	594ad91fa6fb8200018f720c	101036863	1	main_slash	7	advance_on_keypress_SLASH	116	stimuli_distractor_diamondtriangles.svg	stimuli_distractor_diamondtriangles.svg	39	no	57	0	684
6.6.1	mac	2022-12-19	19:12:47	19:17:53	303881	594ad91fa6fb8200018f720c	101036863	1	main_slash	7	main_slash	117	stimuli_target_circlediamonds.svg	stimuli_distractor_trianglediamonds.svg	2	yes	53	1	419
6.6.1	mac	2022-12-19	19:12:47	19:17:53	303881	594ad91fa6fb8200018f720c	101036863	1	main_slash	7	advance_on_keypress_SLASH	118	stimuli_target_circlediamonds.svg	stimuli_distractor_trianglediamonds.svg	2	yes	57	0	253
6.6.1	mac	2022-12-19	19:12:47	19:17:55	306760	594ad91fa6fb8200018f720c	101036863	1	main_slash	7	main_slash	119	stimuli_distractor_trianglediamonds.svg	stimuli_distractor_diamondtriangles.svg	36	no	0	1	2000
6.6.1	mac	2022-12-19	19:12:47	19:17:55	306760	594ad91fa6fb8200018f720c	101036863	1	main_slash	7	advance_on_keypress_SLASH	120	stimuli_distractor_trianglediamonds.svg	stimuli_distractor_diamondtriangles.svg	36	no	57	0	603
6.6.1	mac	2022-12-19	19:12:47	19:17:57	308462	594ad91fa6fb8200018f720c	101036863	1	main_slash	7	main_slash	121	stimuli_target_circletriangles.svg	stimuli_distractor_diamondtriangles.svg	5	yes	53	1	467
6.6.1	mac	2022-12-19	19:12:47	19:17:57	308462	594ad91fa6fb8200018f720c	101036863	1	main_slash	7	advance_on_keypress_SLASH	122	stimuli_target_circletriangles.svg	stimuli_distractor_diamondtriangles.svg	5	yes	57	0	197
6.6.1	mac	2022-12-19	19:12:47	19:17:58	309737	594ad91fa6fb8200018f720c	101036863	1	main_slash	7	main_slash	123	stimuli_distractor_diamondtriangles.svg	stimuli_target_circlediamonds.svg	14	yes	53	1	442
6.6.1	mac	2022-12-19	19:12:47	19:17:58	309737	594ad91fa6fb8200018f720c	101036863	1	main_slash	7	advance_on_keypress_SLASH	124	stimuli_distractor_diamondtriangles.svg	stimuli_target_circlediamonds.svg	14	yes	57	0	208
6.6.1	mac	2022-12-19	19:12:47	19:18:00	310978	594ad91fa6fb8200018f720c	101036863	1	main_slash	7	main_slash	125	stimuli_target_trianglesquares.svg	stimuli_distractor_diamondtriangles.svg	22	yes	53	1	416
6.6.1	mac	2022-12-19	19:12:47	19:18:00	310978	594ad91fa6fb8200018f720c	101036863	1	main_slash	7	advance_on_keypress_SLASH	126	stimuli_target_trianglesquares.svg	stimuli_distractor_diamondtriangles.svg	22	yes	57	0	220
6.6.1	mac	2022-12-19	19:12:47	19:18:01	312441	594ad91fa6fb8200018f720c	101036863	1	main_slash	7	main_slash	127	stimuli_distractor_trianglediamonds.svg	stimuli_target_circletriangles.svg	9	yes	53	1	612
6.6.1	mac	2022-12-19	19:12:47	19:18:01	312441	594ad91fa6fb8200018f720c	101036863	1	main_slash	7	advance_on_keypress_SLASH	128	stimuli_distractor_trianglediamonds.svg	stimuli_target_circletriangles.svg	9	yes	57	0	407
6.6.1	mac	2022-12-19	19:12:47	19:18:02	313850	594ad91fa6fb8200018f720c	101036863	1	main_slash	7	main_slash	129	stimuli_target_trianglecircles.svg	stimuli_distractor_diamondtriangles.svg	21	yes	53	1	371
6.6.1	mac	2022-12-19	19:12:47	19:18:02	313850	594ad91fa6fb8200018f720c	101036863	1	main_slash	7	advance_on_keypress_SLASH	130	stimuli_target_trianglecircles.svg	stimuli_distractor_diamondtriangles.svg	21	yes	57	0	258
6.6.1	mac	2022-12-19	19:12:47	19:18:05	316727	594ad91fa6fb8200018f720c	101036863	1	main_slash	7	main_slash	131	stimuli_distractor_diamondtriangles.svg	stimuli_distractor_trianglediamonds.svg	38	no	0	1	2000
6.6.1	mac	2022-12-19	19:12:47	19:18:05	316727	594ad91fa6fb8200018f720c	101036863	1	main_slash	7	advance_on_keypress_SLASH	132	stimuli_distractor_diamondtriangles.svg	stimuli_distractor_trianglediamonds.svg	38	no	57	0	830
6.6.1	mac	2022-12-19	19:12:47	19:18:07	318703	594ad91fa6fb8200018f720c	101036863	1	main_slash	7	main_slash	133	stimuli_distractor_diamondtriangles.svg	stimuli_target_squarediamonds.svg	16	yes	53	1	508
6.6.1	mac	2022-12-19	19:12:47	19:18:07	318703	594ad91fa6fb8200018f720c	101036863	1	main_slash	7	advance_on_keypress_SLASH	134	stimuli_distractor_diamondtriangles.svg	stimuli_target_squarediamonds.svg	16	yes	57	0	198
6.6.1	mac	2022-12-19	19:12:47	19:18:09	319939	594ad91fa6fb8200018f720c	101036863	1	main_slash	7	main_slash	135	stimuli_distractor_trianglediamonds.svg	stimuli_target_circlediamonds.svg	10	yes	53	1	410
6.6.1	mac	2022-12-19	19:12:47	19:18:09	319939	594ad91fa6fb8200018f720c	101036863	1	main_slash	7	advance_on_keypress_SLASH	136	stimuli_distractor_trianglediamonds.svg	stimuli_target_circlediamonds.svg	10	yes	57	0	182
6.6.1	mac	2022-12-19	19:12:47	19:18:10	321106	594ad91fa6fb8200018f720c	101036863	1	main_slash	7	main_slash	137	stimuli_target_squarediamonds.svg	stimuli_distractor_diamondtriangles.svg	8	yes	53	1	360
6.6.1	mac	2022-12-19	19:12:47	19:18:10	321106	594ad91fa6fb8200018f720c	101036863	1	main_slash	7	advance_on_keypress_SLASH	138	stimuli_target_squarediamonds.svg	stimuli_distractor_diamondtriangles.svg	8	yes	57	0	204
6.6.1	mac	2022-12-19	19:12:47	19:18:11	322490	594ad91fa6fb8200018f720c	101036863	1	main_slash	7	main_slash	139	stimuli_distractor_diamondtriangles.svg	stimuli_target_diamondcircles.svg	31	yes	53	1	561
6.6.1	mac	2022-12-19	19:12:47	19:18:11	322490	594ad91fa6fb8200018f720c	101036863	1	main_slash	7	advance_on_keypress_SLASH	140	stimuli_distractor_diamondtriangles.svg	stimuli_target_diamondcircles.svg	31	yes	57	0	242
6.6.1	mac	2022-12-19	19:12:47	19:18:12	323745	594ad91fa6fb8200018f720c	101036863	1	main_slash	7	main_slash	141	stimuli_distractor_trianglediamonds.svg	stimuli_target_trianglecircles.svg	25	yes	53	1	385
6.6.1	mac	2022-12-19	19:12:47	19:18:12	323745	594ad91fa6fb8200018f720c	101036863	1	main_slash	7	advance_on_keypress_SLASH	142	stimuli_distractor_trianglediamonds.svg	stimuli_target_trianglecircles.svg	25	yes	57	0	216
6.6.1	mac	2022-12-19	19:12:47	19:18:14	325079	594ad91fa6fb8200018f720c	101036863	1	main_slash	7	main_slash	143	stimuli_distractor_diamondtriangles.svg	stimuli_target_trianglesquares.svg	30	yes	53	1	483
6.6.1	mac	2022-12-19	19:12:47	19:18:14	325079	594ad91fa6fb8200018f720c	101036863	1	main_slash	7	advance_on_keypress_SLASH	144	stimuli_distractor_diamondtriangles.svg	stimuli_target_trianglesquares.svg	30	yes	57	0	227
6.6.1	mac	2022-12-19	19:12:47	19:18:15	326384	594ad91fa6fb8200018f720c	101036863	1	main_slash	7	main_slash	145	stimuli_distractor_trianglediamonds.svg	stimuli_target_diamondcircles.svg	27	yes	53	1	439
6.6.1	mac	2022-12-19	19:12:47	19:18:15	326384	594ad91fa6fb8200018f720c	101036863	1	main_slash	7	advance_on_keypress_SLASH	146	stimuli_distractor_trianglediamonds.svg	stimuli_target_diamondcircles.svg	27	yes	57	0	211
6.6.1	mac	2022-12-19	19:12:47	19:18:16	327610	594ad91fa6fb8200018f720c	101036863	1	main_slash	7	main_slash	147	stimuli_target_squarediamonds.svg	stimuli_distractor_trianglediamonds.svg	4	yes	53	1	382
6.6.1	mac	2022-12-19	19:12:47	19:18:16	327610	594ad91fa6fb8200018f720c	101036863	1	main_slash	7	advance_on_keypress_SLASH	148	stimuli_target_squarediamonds.svg	stimuli_distractor_trianglediamonds.svg	4	yes	57	0	303
6.6.1	mac	2022-12-19	19:12:47	19:18:18	329211	594ad91fa6fb8200018f720c	101036863	1	main_slash	7	main_slash	149	stimuli_target_squaretriangles.svg	stimuli_distractor_trianglediamonds.svg	3	yes	53	1	665
6.6.1	mac	2022-12-19	19:12:47	19:18:18	329211	594ad91fa6fb8200018f720c	101036863	1	main_slash	7	advance_on_keypress_SLASH	150	stimuli_target_squaretriangles.svg	stimuli_distractor_trianglediamonds.svg	3	yes	57	0	540
6.6.1	mac	2022-12-19	19:12:47	19:18:20	331376	594ad91fa6fb8200018f720c	101036863	1	main_slash	7	main_slash	151	stimuli_distractor_diamondtriangles.svg	stimuli_target_squaretriangles.svg	15	yes	53	1	997
6.6.1	mac	2022-12-19	19:12:47	19:18:20	331376	594ad91fa6fb8200018f720c	101036863	1	main_slash	7	advance_on_keypress_SLASH	152	stimuli_distractor_diamondtriangles.svg	stimuli_target_squaretriangles.svg	15	yes	57	0	282
6.6.1	mac	2022-12-19	19:12:47	19:18:21	332744	594ad91fa6fb8200018f720c	101036863	1	main_slash	7	main_slash	153	stimuli_distractor_trianglediamonds.svg	stimuli_target_trianglesquares.svg	26	yes	53	1	449
6.6.1	mac	2022-12-19	19:12:47	19:18:21	332744	594ad91fa6fb8200018f720c	101036863	1	main_slash	7	advance_on_keypress_SLASH	154	stimuli_distractor_trianglediamonds.svg	stimuli_target_trianglesquares.svg	26	yes	57	0	185
6.6.1	mac	2022-12-19	19:12:47	19:18:23	334137	594ad91fa6fb8200018f720c	101036863	1	main_slash	7	main_slash	155	stimuli_distractor_diamondtriangles.svg	stimuli_target_trianglecircles.svg	29	yes	53	1	576
6.6.1	mac	2022-12-19	19:12:47	19:18:23	334137	594ad91fa6fb8200018f720c	101036863	1	main_slash	7	advance_on_keypress_SLASH	156	stimuli_distractor_diamondtriangles.svg	stimuli_target_trianglecircles.svg	29	yes	57	0	236
6.6.1	mac	2022-12-19	19:12:47	19:18:24	335389	594ad91fa6fb8200018f720c	101036863	1	main_slash	7	main_slash	157	stimuli_distractor_diamondtriangles.svg	stimuli_distractor_diamondtriangles.svg	40	no	53	0	395
6.6.1	mac	2022-12-19	19:12:47	19:18:24	335389	594ad91fa6fb8200018f720c	101036863	1	main_slash	7	advance_on_keypress_SLASH	158	stimuli_distractor_diamondtriangles.svg	stimuli_distractor_diamondtriangles.svg	40	no	57	0	706
6.6.1	mac	2022-12-19	19:12:47	19:18:26	337466	594ad91fa6fb8200018f720c	101036863	1	main_slash	7	main_slash	159	stimuli_target_circletriangles.svg	stimuli_distractor_trianglediamonds.svg	1	yes	53	1	738
6.6.1	mac	2022-12-19	19:12:47	19:18:26	337466	594ad91fa6fb8200018f720c	101036863	1	main_slash	7	advance_on_keypress_SLASH	160	stimuli_target_circletriangles.svg	stimuli_distractor_trianglediamonds.svg	1	yes	57	0	362
6.6.1	mac	2022-12-19	19:12:47	19:18:43	354411	594ad91fa6fb8200018f720c	101036863	1	practice_z	9	practice_z	1	stimuli_distractor_diamondtriangles.svg	stimuli_distractor_diamondtriangles.svg	13	no	0	1	2000
6.6.1	mac	2022-12-19	19:12:47	19:18:43	354411	594ad91fa6fb8200018f720c	101036863	1	practice_z	9	advance_on_keypress_ZEE	2	stimuli_distractor_diamondtriangles.svg	stimuli_distractor_diamondtriangles.svg	13	no	57	0	597
6.6.1	mac	2022-12-19	19:12:47	19:18:46	357262	594ad91fa6fb8200018f720c	101036863	1	practice_z	9	practice_z	3	stimuli_distractor_trianglediamonds.svg	stimuli_distractor_diamondtriangles.svg	16	no	44	0	616
6.6.1	mac	2022-12-19	19:12:47	19:18:46	357262	594ad91fa6fb8200018f720c	101036863	1	practice_z	9	advance_on_keypress_ZEE	4	stimuli_distractor_trianglediamonds.svg	stimuli_distractor_diamondtriangles.svg	16	no	57	0	526
6.6.1	mac	2022-12-19	19:12:47	19:18:48	359859	594ad91fa6fb8200018f720c	101036863	1	practice_z	9	practice_z	5	stimuli_target_squarediamonds.svg	stimuli_distractor_diamondtriangles.svg	2	yes	44	1	429
6.6.1	mac	2022-12-19	19:12:47	19:18:48	359859	594ad91fa6fb8200018f720c	101036863	1	practice_z	9	advance_on_keypress_ZEE	6	stimuli_target_squarediamonds.svg	stimuli_distractor_diamondtriangles.svg	2	yes	57	0	531
6.6.1	mac	2022-12-19	19:12:47	19:18:51	362552	594ad91fa6fb8200018f720c	101036863	1	practice_z	9	practice_z	7	stimuli_distractor_trianglediamonds.svg	stimuli_target_squarediamonds.svg	11	yes	44	1	523
6.6.1	mac	2022-12-19	19:12:47	19:18:51	362552	594ad91fa6fb8200018f720c	101036863	1	practice_z	9	advance_on_keypress_ZEE	8	stimuli_distractor_trianglediamonds.svg	stimuli_target_squarediamonds.svg	11	yes	57	0	514
6.6.1	mac	2022-12-19	19:12:47	19:18:55	366695	594ad91fa6fb8200018f720c	101036863	1	practice_z	9	practice_z	9	stimuli_distractor_trianglediamonds.svg	stimuli_distractor_trianglediamonds.svg	15	no	0	1	2000
6.6.1	mac	2022-12-19	19:12:47	19:18:55	366695	594ad91fa6fb8200018f720c	101036863	1	practice_z	9	advance_on_keypress_ZEE	10	stimuli_distractor_trianglediamonds.svg	stimuli_distractor_trianglediamonds.svg	15	no	57	0	584
6.6.1	mac	2022-12-19	19:12:47	19:19:00	370909	594ad91fa6fb8200018f720c	101036863	1	practice_z	9	practice_z	11	stimuli_distractor_diamondtriangles.svg	stimuli_distractor_trianglediamonds.svg	14	no	0	1	2000
6.6.1	mac	2022-12-19	19:12:47	19:19:00	370909	594ad91fa6fb8200018f720c	101036863	1	practice_z	9	advance_on_keypress_ZEE	12	stimuli_distractor_diamondtriangles.svg	stimuli_distractor_trianglediamonds.svg	14	no	57	0	654
6.6.1	mac	2022-12-19	19:12:47	19:19:02	373691	594ad91fa6fb8200018f720c	101036863	1	practice_z	9	practice_z	13	stimuli_distractor_trianglediamonds.svg	stimuli_target_diamondcircles.svg	12	yes	44	1	495
6.6.1	mac	2022-12-19	19:12:47	19:19:02	373691	594ad91fa6fb8200018f720c	101036863	1	practice_z	9	advance_on_keypress_ZEE	14	stimuli_distractor_trianglediamonds.svg	stimuli_target_diamondcircles.svg	12	yes	57	0	361
6.6.1	mac	2022-12-19	19:12:47	19:19:05	376210	594ad91fa6fb8200018f720c	101036863	1	practice_z	9	practice_z	15	stimuli_target_diamondsquares.svg	stimuli_distractor_trianglediamonds.svg	6	yes	44	1	515
6.6.1	mac	2022-12-19	19:12:47	19:19:05	376210	594ad91fa6fb8200018f720c	101036863	1	practice_z	9	advance_on_keypress_ZEE	16	stimuli_target_diamondsquares.svg	stimuli_distractor_trianglediamonds.svg	6	yes	57	0	354
6.6.1	mac	2022-12-19	19:12:47	19:19:07	378576	594ad91fa6fb8200018f720c	101036863	1	practice_z	9	practice_z	17	stimuli_target_circlediamonds.svg	stimuli_distractor_diamondtriangles.svg	1	yes	44	1	382
6.6.1	mac	2022-12-19	19:12:47	19:19:07	378576	594ad91fa6fb8200018f720c	101036863	1	practice_z	9	advance_on_keypress_ZEE	18	stimuli_target_circlediamonds.svg	stimuli_distractor_diamondtriangles.svg	1	yes	57	0	263
6.6.1	mac	2022-12-19	19:12:47	19:19:09	380812	594ad91fa6fb8200018f720c	101036863	1	practice_z	9	practice_z	19	stimuli_target_squarediamonds.svg	stimuli_distractor_trianglediamonds.svg	5	yes	44	1	333
6.6.1	mac	2022-12-19	19:12:47	19:19:09	380812	594ad91fa6fb8200018f720c	101036863	1	practice_z	9	advance_on_keypress_ZEE	20	stimuli_target_squarediamonds.svg	stimuli_distractor_trianglediamonds.svg	5	yes	57	0	372
6.6.1	mac	2022-12-19	19:12:47	19:19:12	383268	594ad91fa6fb8200018f720c	101036863	1	practice_z	9	practice_z	21	stimuli_distractor_diamondtriangles.svg	stimuli_target_trianglecircles.svg	9	yes	44	1	457
6.6.1	mac	2022-12-19	19:12:47	19:19:12	383268	594ad91fa6fb8200018f720c	101036863	1	practice_z	9	advance_on_keypress_ZEE	22	stimuli_distractor_diamondtriangles.svg	stimuli_target_trianglecircles.svg	9	yes	57	0	266
6.6.1	mac	2022-12-19	19:12:47	19:19:14	385577	594ad91fa6fb8200018f720c	101036863	1	practice_z	9	practice_z	23	stimuli_distractor_diamondtriangles.svg	stimuli_target_diamondcircles.svg	8	yes	44	1	416
6.6.1	mac	2022-12-19	19:12:47	19:19:14	385577	594ad91fa6fb8200018f720c	101036863	1	practice_z	9	advance_on_keypress_ZEE	24	stimuli_distractor_diamondtriangles.svg	stimuli_target_diamondcircles.svg	8	yes	57	0	335
6.6.1	mac	2022-12-19	19:12:47	19:19:17	387920	594ad91fa6fb8200018f720c	101036863	1	practice_z	9	practice_z	25	stimuli_target_circlediamonds.svg	stimuli_distractor_trianglediamonds.svg	4	yes	44	1	375
6.6.1	mac	2022-12-19	19:12:47	19:19:17	387920	594ad91fa6fb8200018f720c	101036863	1	practice_z	9	advance_on_keypress_ZEE	26	stimuli_target_circlediamonds.svg	stimuli_distractor_trianglediamonds.svg	4	yes	57	0	299
6.6.1	mac	2022-12-19	19:12:47	19:19:19	390616	594ad91fa6fb8200018f720c	101036863	1	practice_z	9	practice_z	27	stimuli_target_diamondsquares.svg	stimuli_distractor_diamondtriangles.svg	3	yes	44	1	769
6.6.1	mac	2022-12-19	19:12:47	19:19:19	390616	594ad91fa6fb8200018f720c	101036863	1	practice_z	9	advance_on_keypress_ZEE	28	stimuli_target_diamondsquares.svg	stimuli_distractor_diamondtriangles.svg	3	yes	57	0	261
6.6.1	mac	2022-12-19	19:12:47	19:19:22	392953	594ad91fa6fb8200018f720c	101036863	1	practice_z	9	practice_z	29	stimuli_distractor_diamondtriangles.svg	stimuli_target_circletriangles.svg	7	yes	44	1	442
6.6.1	mac	2022-12-19	19:12:47	19:19:22	392953	594ad91fa6fb8200018f720c	101036863	1	practice_z	9	advance_on_keypress_ZEE	30	stimuli_distractor_diamondtriangles.svg	stimuli_target_circletriangles.svg	7	yes	57	0	380
6.6.1	mac	2022-12-19	19:12:47	19:19:24	395382	594ad91fa6fb8200018f720c	101036863	1	practice_z	9	practice_z	31	stimuli_distractor_trianglediamonds.svg	stimuli_target_circlediamonds.svg	10	yes	44	1	420
6.6.1	mac	2022-12-19	19:12:47	19:19:24	395382	594ad91fa6fb8200018f720c	101036863	1	practice_z	9	advance_on_keypress_ZEE	32	stimuli_distractor_trianglediamonds.svg	stimuli_target_circlediamonds.svg	10	yes	57	0	546
6.6.1	mac	2022-12-19	19:12:47	19:19:28	399656	594ad91fa6fb8200018f720c	101036863	1	main_z	11	main_z	1	stimuli_target_diamondsquares.svg	stimuli_distractor_diamondtriangles.svg	24	yes	44	1	427
6.6.1	mac	2022-12-19	19:12:47	19:19:28	399656	594ad91fa6fb8200018f720c	101036863	1	main_z	11	advance_on_keypress_ZEE	2	stimuli_target_diamondsquares.svg	stimuli_distractor_diamondtriangles.svg	24	yes	57	0	472
6.6.1	mac	2022-12-19	19:12:47	19:19:30	401106	594ad91fa6fb8200018f720c	101036863	1	main_z	11	main_z	3	stimuli_target_circlediamonds.svg	stimuli_distractor_trianglediamonds.svg	2	yes	44	1	344
6.6.1	mac	2022-12-19	19:12:47	19:19:30	401106	594ad91fa6fb8200018f720c	101036863	1	main_z	11	advance_on_keypress_ZEE	4	stimuli_target_circlediamonds.svg	stimuli_distractor_trianglediamonds.svg	2	yes	57	0	304
6.6.1	mac	2022-12-19	19:12:47	19:19:31	402393	594ad91fa6fb8200018f720c	101036863	1	main_z	11	main_z	5	stimuli_target_diamondsquares.svg	stimuli_distractor_trianglediamonds.svg	20	yes	44	1	365
6.6.1	mac	2022-12-19	19:12:47	19:19:31	402393	594ad91fa6fb8200018f720c	101036863	1	main_z	11	advance_on_keypress_ZEE	6	stimuli_target_diamondsquares.svg	stimuli_distractor_trianglediamonds.svg	20	yes	57	0	244
6.6.1	mac	2022-12-19	19:12:47	19:19:34	405277	594ad91fa6fb8200018f720c	101036863	1	main_z	11	main_z	7	stimuli_distractor_diamondtriangles.svg	stimuli_distractor_trianglediamonds.svg	37	no	0	1	2000
6.6.1	mac	2022-12-19	19:12:47	19:19:34	405277	594ad91fa6fb8200018f720c	101036863	1	main_z	11	advance_on_keypress_ZEE	8	stimuli_distractor_diamondtriangles.svg	stimuli_distractor_trianglediamonds.svg	37	no	57	0	461
6.6.1	mac	2022-12-19	19:12:47	19:19:35	406744	594ad91fa6fb8200018f720c	101036863	1	main_z	11	main_z	9	stimuli_distractor_diamondtriangles.svg	stimuli_target_circlediamonds.svg	14	yes	44	1	366
6.6.1	mac	2022-12-19	19:12:47	19:19:35	406744	594ad91fa6fb8200018f720c	101036863	1	main_z	11	advance_on_keypress_ZEE	10	stimuli_distractor_diamondtriangles.svg	stimuli_target_circlediamonds.svg	14	yes	57	0	283
6.6.1	mac	2022-12-19	19:12:47	19:19:37	408263	594ad91fa6fb8200018f720c	101036863	1	main_z	11	main_z	11	stimuli_distractor_trianglediamonds.svg	stimuli_target_diamondcircles.svg	27	yes	44	1	601
6.6.1	mac	2022-12-19	19:12:47	19:19:37	408263	594ad91fa6fb8200018f720c	101036863	1	main_z	11	advance_on_keypress_ZEE	12	stimuli_distractor_trianglediamonds.svg	stimuli_target_diamondcircles.svg	27	yes	57	0	474
6.6.1	mac	2022-12-19	19:12:47	19:19:40	411360	594ad91fa6fb8200018f720c	101036863	1	main_z	11	main_z	13	stimuli_distractor_trianglediamonds.svg	stimuli_distractor_diamondtriangles.svg	36	no	0	1	2000
6.6.1	mac	2022-12-19	19:12:47	19:19:40	411360	594ad91fa6fb8200018f720c	101036863	1	main_z	11	advance_on_keypress_ZEE	14	stimuli_distractor_trianglediamonds.svg	stimuli_distractor_diamondtriangles.svg	36	no	57	0	672
6.6.1	mac	2022-12-19	19:12:47	19:19:42	413001	594ad91fa6fb8200018f720c	101036863	1	main_z	11	main_z	15	stimuli_target_squarediamonds.svg	stimuli_distractor_trianglediamonds.svg	4	yes	44	1	340
6.6.1	mac	2022-12-19	19:12:47	19:19:42	413001	594ad91fa6fb8200018f720c	101036863	1	main_z	11	advance_on_keypress_ZEE	16	stimuli_target_squarediamonds.svg	stimuli_distractor_trianglediamonds.svg	4	yes	57	0	333
6.6.1	mac	2022-12-19	19:12:47	19:19:43	414443	594ad91fa6fb8200018f720c	101036863	1	main_z	11	main_z	17	stimuli_distractor_trianglediamonds.svg	stimuli_target_diamondsquares.svg	28	yes	44	1	481
6.6.1	mac	2022-12-19	19:12:47	19:19:43	414443	594ad91fa6fb8200018f720c	101036863	1	main_z	11	advance_on_keypress_ZEE	18	stimuli_distractor_trianglediamonds.svg	stimuli_target_diamondsquares.svg	28	yes	57	0	442
6.6.1	mac	2022-12-19	19:12:47	19:19:46	417509	594ad91fa6fb8200018f720c	101036863	1	main_z	11	main_z	19	stimuli_distractor_trianglediamonds.svg	stimuli_distractor_trianglediamonds.svg	34	no	0	1	2000
6.6.1	mac	2022-12-19	19:12:47	19:19:46	417509	594ad91fa6fb8200018f720c	101036863	1	main_z	11	advance_on_keypress_ZEE	20	stimuli_distractor_trianglediamonds.svg	stimuli_distractor_trianglediamonds.svg	34	no	57	0	282
6.6.1	mac	2022-12-19	19:12:47	19:19:47	418829	594ad91fa6fb8200018f720c	101036863	1	main_z	11	main_z	21	stimuli_target_diamondcircles.svg	stimuli_distractor_trianglediamonds.svg	19	yes	44	1	397
6.6.1	mac	2022-12-19	19:12:47	19:19:47	418829	594ad91fa6fb8200018f720c	101036863	1	main_z	11	advance_on_keypress_ZEE	22	stimuli_target_diamondcircles.svg	stimuli_distractor_trianglediamonds.svg	19	yes	57	0	232
6.6.1	mac	2022-12-19	19:12:47	19:19:49	420230	594ad91fa6fb8200018f720c	101036863	1	main_z	11	main_z	23	stimuli_target_circletriangles.svg	stimuli_distractor_trianglediamonds.svg	1	yes	44	1	520
6.6.1	mac	2022-12-19	19:12:47	19:19:49	420230	594ad91fa6fb8200018f720c	101036863	1	main_z	11	advance_on_keypress_ZEE	24	stimuli_target_circletriangles.svg	stimuli_distractor_trianglediamonds.svg	1	yes	57	0	302
6.6.1	mac	2022-12-19	19:12:47	19:19:50	421562	594ad91fa6fb8200018f720c	101036863	1	main_z	11	main_z	25	stimuli_target_circletriangles.svg	stimuli_distractor_diamondtriangles.svg	5	yes	44	1	399
6.6.1	mac	2022-12-19	19:12:47	19:19:50	421562	594ad91fa6fb8200018f720c	101036863	1	main_z	11	advance_on_keypress_ZEE	26	stimuli_target_circletriangles.svg	stimuli_distractor_diamondtriangles.svg	5	yes	57	0	184
6.6.1	mac	2022-12-19	19:12:47	19:19:51	422773	594ad91fa6fb8200018f720c	101036863	1	main_z	11	main_z	27	stimuli_distractor_diamondtriangles.svg	stimuli_target_circletriangles.svg	13	yes	44	1	378
6.6.1	mac	2022-12-19	19:12:47	19:19:51	422773	594ad91fa6fb8200018f720c	101036863	1	main_z	11	advance_on_keypress_ZEE	28	stimuli_distractor_diamondtriangles.svg	stimuli_target_circletriangles.svg	13	yes	57	0	224
6.6.1	mac	2022-12-19	19:12:47	19:19:54	425626	594ad91fa6fb8200018f720c	101036863	1	main_z	11	main_z	29	stimuli_distractor_diamondtriangles.svg	stimuli_target_squaretriangles.svg	15	yes	0	0	2000
6.6.1	mac	2022-12-19	19:12:47	19:19:54	425626	594ad91fa6fb8200018f720c	101036863	1	main_z	11	advance_on_keypress_ZEE	30	stimuli_distractor_diamondtriangles.svg	stimuli_target_squaretriangles.svg	15	yes	57	0	344
6.6.1	mac	2022-12-19	19:12:47	19:19:56	426941	594ad91fa6fb8200018f720c	101036863	1	main_z	11	main_z	31	stimuli_target_trianglesquares.svg	stimuli_distractor_trianglediamonds.svg	18	yes	44	1	329
6.6.1	mac	2022-12-19	19:12:47	19:19:56	426941	594ad91fa6fb8200018f720c	101036863	1	main_z	11	advance_on_keypress_ZEE	32	stimuli_target_trianglesquares.svg	stimuli_distractor_trianglediamonds.svg	18	yes	57	0	268
6.6.1	mac	2022-12-19	19:12:47	19:19:57	428239	594ad91fa6fb8200018f720c	101036863	1	main_z	11	main_z	33	stimuli_distractor_trianglediamonds.svg	stimuli_target_squarediamonds.svg	12	yes	44	1	394
6.6.1	mac	2022-12-19	19:12:47	19:19:57	428239	594ad91fa6fb8200018f720c	101036863	1	main_z	11	advance_on_keypress_ZEE	34	stimuli_distractor_trianglediamonds.svg	stimuli_target_squarediamonds.svg	12	yes	57	0	267
6.6.1	mac	2022-12-19	19:12:47	19:19:58	429574	594ad91fa6fb8200018f720c	101036863	1	main_z	11	main_z	35	stimuli_target_trianglecircles.svg	stimuli_distractor_diamondtriangles.svg	21	yes	44	1	429
6.6.1	mac	2022-12-19	19:12:47	19:19:58	429574	594ad91fa6fb8200018f720c	101036863	1	main_z	11	advance_on_keypress_ZEE	36	stimuli_target_trianglecircles.svg	stimuli_distractor_diamondtriangles.svg	21	yes	57	0	427
6.6.1	mac	2022-12-19	19:12:47	19:20:00	431012	594ad91fa6fb8200018f720c	101036863	1	main_z	11	main_z	37	stimuli_target_squaretriangles.svg	stimuli_distractor_trianglediamonds.svg	3	yes	44	1	385
6.6.1	mac	2022-12-19	19:12:47	19:20:00	431012	594ad91fa6fb8200018f720c	101036863	1	main_z	11	advance_on_keypress_ZEE	38	stimuli_target_squaretriangles.svg	stimuli_distractor_trianglediamonds.svg	3	yes	57	0	237
6.6.1	mac	2022-12-19	19:12:47	19:20:01	432219	594ad91fa6fb8200018f720c	101036863	1	main_z	11	main_z	39	stimuli_distractor_diamondtriangles.svg	stimuli_distractor_trianglediamonds.svg	38	no	44	0	322
6.6.1	mac	2022-12-19	19:12:47	19:20:01	432219	594ad91fa6fb8200018f720c	101036863	1	main_z	11	advance_on_keypress_ZEE	40	stimuli_distractor_diamondtriangles.svg	stimuli_distractor_trianglediamonds.svg	38	no	57	0	1101
6.6.1	mac	2022-12-19	19:12:47	19:20:05	435942	594ad91fa6fb8200018f720c	101036863	1	main_z	11	main_z	41	stimuli_distractor_diamondtriangles.svg	stimuli_distractor_diamondtriangles.svg	39	no	0	1	2000
6.6.1	mac	2022-12-19	19:12:47	19:20:05	435942	594ad91fa6fb8200018f720c	101036863	1	main_z	11	advance_on_keypress_ZEE	42	stimuli_distractor_diamondtriangles.svg	stimuli_distractor_diamondtriangles.svg	39	no	57	0	982
6.6.1	mac	2022-12-19	19:12:47	19:20:07	438033	594ad91fa6fb8200018f720c	101036863	1	main_z	11	main_z	43	stimuli_distractor_diamondtriangles.svg	stimuli_target_trianglesquares.svg	30	yes	44	1	471
6.6.1	mac	2022-12-19	19:12:47	19:20:07	438033	594ad91fa6fb8200018f720c	101036863	1	main_z	11	advance_on_keypress_ZEE	44	stimuli_distractor_diamondtriangles.svg	stimuli_target_trianglesquares.svg	30	yes	57	0	329
6.6.1	mac	2022-12-19	19:12:47	19:20:08	439867	594ad91fa6fb8200018f720c	101036863	1	main_z	11	main_z	45	stimuli_distractor_diamondtriangles.svg	stimuli_target_diamondsquares.svg	32	yes	44	1	871
6.6.1	mac	2022-12-19	19:12:47	19:20:08	439867	594ad91fa6fb8200018f720c	101036863	1	main_z	11	advance_on_keypress_ZEE	46	stimuli_distractor_diamondtriangles.svg	stimuli_target_diamondsquares.svg	32	yes	57	0	385
6.6.1	mac	2022-12-19	19:12:47	19:20:10	441448	594ad91fa6fb8200018f720c	101036863	1	main_z	11	main_z	47	stimuli_distractor_diamondtriangles.svg	stimuli_target_diamondcircles.svg	31	yes	44	1	569
6.6.1	mac	2022-12-19	19:12:47	19:20:10	441448	594ad91fa6fb8200018f720c	101036863	1	main_z	11	advance_on_keypress_ZEE	48	stimuli_distractor_diamondtriangles.svg	stimuli_target_diamondcircles.svg	31	yes	57	0	261
6.6.1	mac	2022-12-19	19:12:47	19:20:13	444326	594ad91fa6fb8200018f720c	101036863	1	main_z	11	main_z	49	stimuli_target_squaretriangles.svg	stimuli_distractor_diamondtriangles.svg	7	yes	0	0	2000
6.6.1	mac	2022-12-19	19:12:47	19:20:13	444326	594ad91fa6fb8200018f720c	101036863	1	main_z	11	advance_on_keypress_ZEE	50	stimuli_target_squaretriangles.svg	stimuli_distractor_diamondtriangles.svg	7	yes	57	0	621
6.6.1	mac	2022-12-19	19:12:47	19:20:15	446026	594ad91fa6fb8200018f720c	101036863	1	main_z	11	main_z	51	stimuli_target_circlediamonds.svg	stimuli_distractor_diamondtriangles.svg	6	yes	44	1	447
6.6.1	mac	2022-12-19	19:12:47	19:20:15	446026	594ad91fa6fb8200018f720c	101036863	1	main_z	11	advance_on_keypress_ZEE	52	stimuli_target_circlediamonds.svg	stimuli_distractor_diamondtriangles.svg	6	yes	57	0	248
6.6.1	mac	2022-12-19	19:12:47	19:20:18	448910	594ad91fa6fb8200018f720c	101036863	1	main_z	11	main_z	53	stimuli_distractor_trianglediamonds.svg	stimuli_distractor_trianglediamonds.svg	33	no	0	1	2000
6.6.1	mac	2022-12-19	19:12:47	19:20:18	448910	594ad91fa6fb8200018f720c	101036863	1	main_z	11	advance_on_keypress_ZEE	54	stimuli_distractor_trianglediamonds.svg	stimuli_distractor_trianglediamonds.svg	33	no	57	0	402
6.6.1	mac	2022-12-19	19:12:47	19:20:19	450575	594ad91fa6fb8200018f720c	101036863	1	main_z	11	main_z	55	stimuli_distractor_trianglediamonds.svg	stimuli_target_circletriangles.svg	9	yes	44	1	629
6.6.1	mac	2022-12-19	19:12:47	19:20:19	450575	594ad91fa6fb8200018f720c	101036863	1	main_z	11	advance_on_keypress_ZEE	56	stimuli_distractor_trianglediamonds.svg	stimuli_target_circletriangles.svg	9	yes	57	0	711
6.6.1	mac	2022-12-19	19:12:47	19:20:23	453909	594ad91fa6fb8200018f720c	101036863	1	main_z	11	main_z	57	stimuli_distractor_trianglediamonds.svg	stimuli_distractor_diamondtriangles.svg	35	no	0	1	2000
6.6.1	mac	2022-12-19	19:12:47	19:20:23	453909	594ad91fa6fb8200018f720c	101036863	1	main_z	11	advance_on_keypress_ZEE	58	stimuli_distractor_trianglediamonds.svg	stimuli_distractor_diamondtriangles.svg	35	no	57	0	437
6.6.1	mac	2022-12-19	19:12:47	19:20:24	455543	594ad91fa6fb8200018f720c	101036863	1	main_z	11	main_z	59	stimuli_target_trianglesquares.svg	stimuli_distractor_diamondtriangles.svg	22	yes	44	1	564
6.6.1	mac	2022-12-19	19:12:47	19:20:24	455543	594ad91fa6fb8200018f720c	101036863	1	main_z	11	advance_on_keypress_ZEE	60	stimuli_target_trianglesquares.svg	stimuli_distractor_diamondtriangles.svg	22	yes	57	0	609
6.6.1	mac	2022-12-19	19:12:47	19:20:26	457194	594ad91fa6fb8200018f720c	101036863	1	main_z	11	main_z	61	stimuli_distractor_trianglediamonds.svg	stimuli_target_squaretriangles.svg	11	yes	44	1	415
6.6.1	mac	2022-12-19	19:12:47	19:20:26	457194	594ad91fa6fb8200018f720c	101036863	1	main_z	11	advance_on_keypress_ZEE	62	stimuli_distractor_trianglediamonds.svg	stimuli_target_squaretriangles.svg	11	yes	57	0	310
6.6.1	mac	2022-12-19	19:12:47	19:20:27	458509	594ad91fa6fb8200018f720c	101036863	1	main_z	11	main_z	63	stimuli_target_diamondcircles.svg	stimuli_distractor_diamondtriangles.svg	23	yes	44	1	381
6.6.1	mac	2022-12-19	19:12:47	19:20:27	458509	594ad91fa6fb8200018f720c	101036863	1	main_z	11	advance_on_keypress_ZEE	64	stimuli_target_diamondcircles.svg	stimuli_distractor_diamondtriangles.svg	23	yes	57	0	290
6.6.1	mac	2022-12-19	19:12:47	19:20:29	459959	594ad91fa6fb8200018f720c	101036863	1	main_z	11	main_z	65	stimuli_distractor_trianglediamonds.svg	stimuli_target_trianglecircles.svg	25	yes	44	1	530
6.6.1	mac	2022-12-19	19:12:47	19:20:29	459959	594ad91fa6fb8200018f720c	101036863	1	main_z	11	advance_on_keypress_ZEE	66	stimuli_distractor_trianglediamonds.svg	stimuli_target_trianglecircles.svg	25	yes	57	0	231
6.6.1	mac	2022-12-19	19:12:47	19:20:30	461253	594ad91fa6fb8200018f720c	101036863	1	main_z	11	main_z	67	stimuli_distractor_trianglediamonds.svg	stimuli_target_trianglesquares.svg	26	yes	44	1	424
6.6.1	mac	2022-12-19	19:12:47	19:20:30	461253	594ad91fa6fb8200018f720c	101036863	1	main_z	11	advance_on_keypress_ZEE	68	stimuli_distractor_trianglediamonds.svg	stimuli_target_trianglesquares.svg	26	yes	57	0	252
6.6.1	mac	2022-12-19	19:12:47	19:20:31	462670	594ad91fa6fb8200018f720c	101036863	1	main_z	11	main_z	69	stimuli_distractor_trianglediamonds.svg	stimuli_target_circlediamonds.svg	10	yes	44	1	541
6.6.1	mac	2022-12-19	19:12:47	19:20:31	462670	594ad91fa6fb8200018f720c	101036863	1	main_z	11	advance_on_keypress_ZEE	70	stimuli_distractor_trianglediamonds.svg	stimuli_target_circlediamonds.svg	10	yes	57	0	307
6.6.1	mac	2022-12-19	19:12:47	19:20:33	463949	594ad91fa6fb8200018f720c	101036863	1	main_z	11	main_z	71	stimuli_target_trianglecircles.svg	stimuli_distractor_trianglediamonds.svg	17	yes	44	1	354
6.6.1	mac	2022-12-19	19:12:47	19:20:33	463949	594ad91fa6fb8200018f720c	101036863	1	main_z	11	advance_on_keypress_ZEE	72	stimuli_target_trianglecircles.svg	stimuli_distractor_trianglediamonds.svg	17	yes	57	0	357
6.6.1	mac	2022-12-19	19:12:47	19:20:34	465388	594ad91fa6fb8200018f720c	101036863	1	main_z	11	main_z	73	stimuli_target_squarediamonds.svg	stimuli_distractor_diamondtriangles.svg	8	yes	44	1	459
6.6.1	mac	2022-12-19	19:12:47	19:20:34	465388	594ad91fa6fb8200018f720c	101036863	1	main_z	11	advance_on_keypress_ZEE	74	stimuli_target_squarediamonds.svg	stimuli_distractor_diamondtriangles.svg	8	yes	57	0	292
6.6.1	mac	2022-12-19	19:12:47	19:20:35	466694	594ad91fa6fb8200018f720c	101036863	1	main_z	11	main_z	75	stimuli_distractor_diamondtriangles.svg	stimuli_target_trianglecircles.svg	29	yes	44	1	398
6.6.1	mac	2022-12-19	19:12:47	19:20:35	466694	594ad91fa6fb8200018f720c	101036863	1	main_z	11	advance_on_keypress_ZEE	76	stimuli_distractor_diamondtriangles.svg	stimuli_target_trianglecircles.svg	29	yes	57	0	406
6.6.1	mac	2022-12-19	19:12:47	19:20:38	469726	594ad91fa6fb8200018f720c	101036863	1	main_z	11	main_z	77	stimuli_distractor_diamondtriangles.svg	stimuli_distractor_diamondtriangles.svg	40	no	0	1	2000
6.6.1	mac	2022-12-19	19:12:47	19:20:38	469726	594ad91fa6fb8200018f720c	101036863	1	main_z	11	advance_on_keypress_ZEE	78	stimuli_distractor_diamondtriangles.svg	stimuli_distractor_diamondtriangles.svg	40	no	57	0	542
6.6.1	mac	2022-12-19	19:12:47	19:20:40	471392	594ad91fa6fb8200018f720c	101036863	1	main_z	11	main_z	79	stimuli_distractor_diamondtriangles.svg	stimuli_target_squarediamonds.svg	16	yes	44	1	497
6.6.1	mac	2022-12-19	19:12:47	19:20:40	471392	594ad91fa6fb8200018f720c	101036863	1	main_z	11	advance_on_keypress_ZEE	80	stimuli_distractor_diamondtriangles.svg	stimuli_target_squarediamonds.svg	16	yes	57	0	258
6.6.1	mac	2022-12-19	19:12:47	19:20:41	472812	594ad91fa6fb8200018f720c	101036863	1	main_z	11	main_z	81	stimuli_distractor_diamondtriangles.svg	stimuli_target_circlediamonds.svg	14	yes	44	1	533
6.6.1	mac	2022-12-19	19:12:47	19:20:41	472812	594ad91fa6fb8200018f720c	101036863	1	main_z	11	advance_on_keypress_ZEE	82	stimuli_distractor_diamondtriangles.svg	stimuli_target_circlediamonds.svg	14	yes	57	0	247
6.6.1	mac	2022-12-19	19:12:47	19:20:43	474087	594ad91fa6fb8200018f720c	101036863	1	main_z	11	main_z	83	stimuli_distractor_diamondtriangles.svg	stimuli_target_trianglecircles.svg	29	yes	44	1	393
6.6.1	mac	2022-12-19	19:12:47	19:20:43	474087	594ad91fa6fb8200018f720c	101036863	1	main_z	11	advance_on_keypress_ZEE	84	stimuli_distractor_diamondtriangles.svg	stimuli_target_trianglecircles.svg	29	yes	57	0	242
6.6.1	mac	2022-12-19	19:12:47	19:20:44	475322	594ad91fa6fb8200018f720c	101036863	1	main_z	11	main_z	85	stimuli_target_circlediamonds.svg	stimuli_distractor_trianglediamonds.svg	2	yes	44	1	378
6.6.1	mac	2022-12-19	19:12:47	19:20:44	475322	594ad91fa6fb8200018f720c	101036863	1	main_z	11	advance_on_keypress_ZEE	86	stimuli_target_circlediamonds.svg	stimuli_distractor_trianglediamonds.svg	2	yes	57	0	271
6.6.1	mac	2022-12-19	19:12:47	19:20:47	478226	594ad91fa6fb8200018f720c	101036863	1	main_z	11	main_z	87	stimuli_distractor_diamondtriangles.svg	stimuli_distractor_diamondtriangles.svg	39	no	0	1	2000
6.6.1	mac	2022-12-19	19:12:47	19:20:47	478226	594ad91fa6fb8200018f720c	101036863	1	main_z	11	advance_on_keypress_ZEE	88	stimuli_distractor_diamondtriangles.svg	stimuli_distractor_diamondtriangles.svg	39	no	57	0	305
6.6.1	mac	2022-12-19	19:12:47	19:20:48	479619	594ad91fa6fb8200018f720c	101036863	1	main_z	11	main_z	89	stimuli_distractor_trianglediamonds.svg	stimuli_target_circletriangles.svg	9	yes	44	1	458
6.6.1	mac	2022-12-19	19:12:47	19:20:48	479619	594ad91fa6fb8200018f720c	101036863	1	main_z	11	advance_on_keypress_ZEE	90	stimuli_distractor_trianglediamonds.svg	stimuli_target_circletriangles.svg	9	yes	57	0	255
6.6.1	mac	2022-12-19	19:12:47	19:20:50	481031	594ad91fa6fb8200018f720c	101036863	1	main_z	11	main_z	91	stimuli_target_squarediamonds.svg	stimuli_distractor_diamondtriangles.svg	8	yes	44	1	537
6.6.1	mac	2022-12-19	19:12:47	19:20:50	481031	594ad91fa6fb8200018f720c	101036863	1	main_z	11	advance_on_keypress_ZEE	92	stimuli_target_squarediamonds.svg	stimuli_distractor_diamondtriangles.svg	8	yes	57	0	240
6.6.1	mac	2022-12-19	19:12:47	19:20:51	482267	594ad91fa6fb8200018f720c	101036863	1	main_z	11	main_z	93	stimuli_target_squarediamonds.svg	stimuli_distractor_trianglediamonds.svg	4	yes	44	1	373
6.6.1	mac	2022-12-19	19:12:47	19:20:51	482267	594ad91fa6fb8200018f720c	101036863	1	main_z	11	advance_on_keypress_ZEE	94	stimuli_target_squarediamonds.svg	stimuli_distractor_trianglediamonds.svg	4	yes	57	0	212
6.6.1	mac	2022-12-19	19:12:47	19:20:53	484042	594ad91fa6fb8200018f720c	101036863	1	main_z	11	main_z	95	stimuli_target_diamondsquares.svg	stimuli_distractor_diamondtriangles.svg	24	yes	44	1	930
6.6.1	mac	2022-12-19	19:12:47	19:20:53	484042	594ad91fa6fb8200018f720c	101036863	1	main_z	11	advance_on_keypress_ZEE	96	stimuli_target_diamondsquares.svg	stimuli_distractor_diamondtriangles.svg	24	yes	57	0	281
6.6.1	mac	2022-12-19	19:12:47	19:20:54	485566	594ad91fa6fb8200018f720c	101036863	1	main_z	11	main_z	97	stimuli_target_diamondsquares.svg	stimuli_distractor_trianglediamonds.svg	20	yes	44	1	604
6.6.1	mac	2022-12-19	19:12:47	19:20:54	485566	594ad91fa6fb8200018f720c	101036863	1	main_z	11	advance_on_keypress_ZEE	98	stimuli_target_diamondsquares.svg	stimuli_distractor_trianglediamonds.svg	20	yes	57	0	266
6.6.1	mac	2022-12-19	19:12:47	19:20:55	486806	594ad91fa6fb8200018f720c	101036863	1	main_z	11	main_z	99	stimuli_distractor_trianglediamonds.svg	stimuli_target_diamondsquares.svg	28	yes	44	1	344
6.6.1	mac	2022-12-19	19:12:47	19:20:55	486806	594ad91fa6fb8200018f720c	101036863	1	main_z	11	advance_on_keypress_ZEE	100	stimuli_distractor_trianglediamonds.svg	stimuli_target_diamondsquares.svg	28	yes	57	0	307
6.6.1	mac	2022-12-19	19:12:47	19:20:57	488161	594ad91fa6fb8200018f720c	101036863	1	main_z	11	main_z	101	stimuli_target_diamondcircles.svg	stimuli_distractor_diamondtriangles.svg	23	yes	44	1	432
6.6.1	mac	2022-12-19	19:12:47	19:20:57	488161	594ad91fa6fb8200018f720c	101036863	1	main_z	11	advance_on_keypress_ZEE	102	stimuli_target_diamondcircles.svg	stimuli_distractor_diamondtriangles.svg	23	yes	57	0	218
6.6.1	mac	2022-12-19	19:12:47	19:20:58	489376	594ad91fa6fb8200018f720c	101036863	1	main_z	11	main_z	103	stimuli_distractor_trianglediamonds.svg	stimuli_target_diamondcircles.svg	27	yes	44	1	365
6.6.1	mac	2022-12-19	19:12:47	19:20:58	489376	594ad91fa6fb8200018f720c	101036863	1	main_z	11	advance_on_keypress_ZEE	104	stimuli_distractor_trianglediamonds.svg	stimuli_target_diamondcircles.svg	27	yes	57	0	186
6.6.1	mac	2022-12-19	19:12:47	19:20:59	490500	594ad91fa6fb8200018f720c	101036863	1	main_z	11	main_z	105	stimuli_target_circletriangles.svg	stimuli_distractor_trianglediamonds.svg	1	yes	44	1	306
6.6.1	mac	2022-12-19	19:12:47	19:20:59	490500	594ad91fa6fb8200018f720c	101036863	1	main_z	11	advance_on_keypress_ZEE	106	stimuli_target_circletriangles.svg	stimuli_distractor_trianglediamonds.svg	1	yes	57	0	323
6.6.1	mac	2022-12-19	19:12:47	19:21:01	492075	594ad91fa6fb8200018f720c	101036863	1	main_z	11	main_z	107	stimuli_distractor_diamondtriangles.svg	stimuli_target_diamondsquares.svg	32	yes	44	1	630
6.6.1	mac	2022-12-19	19:12:47	19:21:01	492075	594ad91fa6fb8200018f720c	101036863	1	main_z	11	advance_on_keypress_ZEE	108	stimuli_distractor_diamondtriangles.svg	stimuli_target_diamondsquares.svg	32	yes	57	0	311
6.6.1	mac	2022-12-19	19:12:47	19:21:02	493441	594ad91fa6fb8200018f720c	101036863	1	main_z	11	main_z	109	stimuli_target_trianglesquares.svg	stimuli_distractor_trianglediamonds.svg	18	yes	44	1	429
6.6.1	mac	2022-12-19	19:12:47	19:21:02	493441	594ad91fa6fb8200018f720c	101036863	1	main_z	11	advance_on_keypress_ZEE	110	stimuli_target_trianglesquares.svg	stimuli_distractor_trianglediamonds.svg	18	yes	57	0	240
6.6.1	mac	2022-12-19	19:12:47	19:21:03	494622	594ad91fa6fb8200018f720c	101036863	1	main_z	11	main_z	111	stimuli_target_circletriangles.svg	stimuli_distractor_diamondtriangles.svg	5	yes	44	1	310
6.6.1	mac	2022-12-19	19:12:47	19:21:03	494622	594ad91fa6fb8200018f720c	101036863	1	main_z	11	advance_on_keypress_ZEE	112	stimuli_target_circletriangles.svg	stimuli_distractor_diamondtriangles.svg	5	yes	57	0	299
6.6.1	mac	2022-12-19	19:12:47	19:21:04	495877	594ad91fa6fb8200018f720c	101036863	1	main_z	11	main_z	113	stimuli_target_trianglecircles.svg	stimuli_distractor_diamondtriangles.svg	21	yes	44	1	331
6.6.1	mac	2022-12-19	19:12:47	19:21:04	495877	594ad91fa6fb8200018f720c	101036863	1	main_z	11	advance_on_keypress_ZEE	114	stimuli_target_trianglecircles.svg	stimuli_distractor_diamondtriangles.svg	21	yes	57	0	234
6.6.1	mac	2022-12-19	19:12:47	19:21:06	497073	594ad91fa6fb8200018f720c	101036863	1	main_z	11	main_z	115	stimuli_distractor_trianglediamonds.svg	stimuli_target_trianglesquares.svg	26	yes	44	1	328
6.6.1	mac	2022-12-19	19:12:47	19:21:06	497073	594ad91fa6fb8200018f720c	101036863	1	main_z	11	advance_on_keypress_ZEE	116	stimuli_distractor_trianglediamonds.svg	stimuli_target_trianglesquares.svg	26	yes	57	0	326
6.6.1	mac	2022-12-19	19:12:47	19:21:07	498308	594ad91fa6fb8200018f720c	101036863	1	main_z	11	main_z	117	stimuli_distractor_trianglediamonds.svg	stimuli_target_circlediamonds.svg	10	yes	44	1	280
6.6.1	mac	2022-12-19	19:12:47	19:21:07	498308	594ad91fa6fb8200018f720c	101036863	1	main_z	11	advance_on_keypress_ZEE	118	stimuli_distractor_trianglediamonds.svg	stimuli_target_circlediamonds.svg	10	yes	57	0	244
6.6.1	mac	2022-12-19	19:12:47	19:21:08	499498	594ad91fa6fb8200018f720c	101036863	1	main_z	11	main_z	119	stimuli_target_circlediamonds.svg	stimuli_distractor_diamondtriangles.svg	6	yes	44	1	319
6.6.1	mac	2022-12-19	19:12:47	19:21:08	499498	594ad91fa6fb8200018f720c	101036863	1	main_z	11	advance_on_keypress_ZEE	120	stimuli_target_circlediamonds.svg	stimuli_distractor_diamondtriangles.svg	6	yes	57	0	173
6.6.1	mac	2022-12-19	19:12:47	19:21:09	500737	594ad91fa6fb8200018f720c	101036863	1	main_z	11	main_z	121	stimuli_distractor_diamondtriangles.svg	stimuli_target_diamondcircles.svg	31	yes	44	1	442
6.6.1	mac	2022-12-19	19:12:47	19:21:09	500737	594ad91fa6fb8200018f720c	101036863	1	main_z	11	advance_on_keypress_ZEE	122	stimuli_distractor_diamondtriangles.svg	stimuli_target_diamondcircles.svg	31	yes	57	0	237
6.6.1	mac	2022-12-19	19:12:47	19:21:12	503593	594ad91fa6fb8200018f720c	101036863	1	main_z	11	main_z	123	stimuli_distractor_diamondtriangles.svg	stimuli_distractor_trianglediamonds.svg	37	no	0	1	2000
6.6.1	mac	2022-12-19	19:12:47	19:21:12	503593	594ad91fa6fb8200018f720c	101036863	1	main_z	11	advance_on_keypress_ZEE	124	stimuli_distractor_diamondtriangles.svg	stimuli_distractor_trianglediamonds.svg	37	no	57	0	504
6.6.1	mac	2022-12-19	19:12:47	19:21:14	505290	594ad91fa6fb8200018f720c	101036863	1	main_z	11	main_z	125	stimuli_distractor_trianglediamonds.svg	stimuli_distractor_diamondtriangles.svg	36	no	44	0	561
6.6.1	mac	2022-12-19	19:12:47	19:21:14	505290	594ad91fa6fb8200018f720c	101036863	1	main_z	11	advance_on_keypress_ZEE	126	stimuli_distractor_trianglediamonds.svg	stimuli_distractor_diamondtriangles.svg	36	no	57	0	9342
6.6.1	mac	2022-12-19	19:12:47	19:21:24	515602	594ad91fa6fb8200018f720c	101036863	1	main_z	11	main_z	127	stimuli_distractor_diamondtriangles.svg	stimuli_target_trianglesquares.svg	30	yes	44	1	340
6.6.1	mac	2022-12-19	19:12:47	19:21:24	515602	594ad91fa6fb8200018f720c	101036863	1	main_z	11	advance_on_keypress_ZEE	128	stimuli_distractor_diamondtriangles.svg	stimuli_target_trianglesquares.svg	30	yes	57	0	369
6.6.1	mac	2022-12-19	19:12:47	19:21:26	517031	594ad91fa6fb8200018f720c	101036863	1	main_z	11	main_z	129	stimuli_distractor_trianglediamonds.svg	stimuli_target_trianglecircles.svg	25	yes	44	1	436
6.6.1	mac	2022-12-19	19:12:47	19:21:26	517031	594ad91fa6fb8200018f720c	101036863	1	main_z	11	advance_on_keypress_ZEE	130	stimuli_distractor_trianglediamonds.svg	stimuli_target_trianglecircles.svg	25	yes	57	0	258
6.6.1	mac	2022-12-19	19:12:47	19:21:29	519910	594ad91fa6fb8200018f720c	101036863	1	main_z	11	main_z	131	stimuli_distractor_trianglediamonds.svg	stimuli_distractor_trianglediamonds.svg	34	no	0	1	2000
6.6.1	mac	2022-12-19	19:12:47	19:21:29	519910	594ad91fa6fb8200018f720c	101036863	1	main_z	11	advance_on_keypress_ZEE	132	stimuli_distractor_trianglediamonds.svg	stimuli_distractor_trianglediamonds.svg	34	no	57	0	598
6.6.1	mac	2022-12-19	19:12:47	19:21:32	523143	594ad91fa6fb8200018f720c	101036863	1	main_z	11	main_z	133	stimuli_distractor_trianglediamonds.svg	stimuli_distractor_diamondtriangles.svg	35	no	0	1	2000
6.6.1	mac	2022-12-19	19:12:47	19:21:32	523143	594ad91fa6fb8200018f720c	101036863	1	main_z	11	advance_on_keypress_ZEE	134	stimuli_distractor_trianglediamonds.svg	stimuli_distractor_diamondtriangles.svg	35	no	57	0	299
6.6.1	mac	2022-12-19	19:12:47	19:21:33	524494	594ad91fa6fb8200018f720c	101036863	1	main_z	11	main_z	135	stimuli_target_trianglesquares.svg	stimuli_distractor_diamondtriangles.svg	22	yes	44	1	416
6.6.1	mac	2022-12-19	19:12:47	19:21:33	524494	594ad91fa6fb8200018f720c	101036863	1	main_z	11	advance_on_keypress_ZEE	136	stimuli_target_trianglesquares.svg	stimuli_distractor_diamondtriangles.svg	22	yes	57	0	247
6.6.1	mac	2022-12-19	19:12:47	19:21:34	525854	594ad91fa6fb8200018f720c	101036863	1	main_z	11	main_z	137	stimuli_target_squaretriangles.svg	stimuli_distractor_trianglediamonds.svg	3	yes	44	1	475
6.6.1	mac	2022-12-19	19:12:47	19:21:34	525854	594ad91fa6fb8200018f720c	101036863	1	main_z	11	advance_on_keypress_ZEE	138	stimuli_target_squaretriangles.svg	stimuli_distractor_trianglediamonds.svg	3	yes	57	0	265
6.6.1	mac	2022-12-19	19:12:47	19:21:36	527271	594ad91fa6fb8200018f720c	101036863	1	main_z	11	main_z	139	stimuli_distractor_trianglediamonds.svg	stimuli_target_squarediamonds.svg	12	yes	44	1	526
6.6.1	mac	2022-12-19	19:12:47	19:21:36	527271	594ad91fa6fb8200018f720c	101036863	1	main_z	11	advance_on_keypress_ZEE	140	stimuli_distractor_trianglediamonds.svg	stimuli_target_squarediamonds.svg	12	yes	57	0	211
6.6.1	mac	2022-12-19	19:12:47	19:21:39	530094	594ad91fa6fb8200018f720c	101036863	1	main_z	11	main_z	141	stimuli_distractor_diamondtriangles.svg	stimuli_distractor_diamondtriangles.svg	40	no	0	1	2000
6.6.1	mac	2022-12-19	19:12:47	19:21:39	530094	594ad91fa6fb8200018f720c	101036863	1	main_z	11	advance_on_keypress_ZEE	142	stimuli_distractor_diamondtriangles.svg	stimuli_distractor_diamondtriangles.svg	40	no	57	0	377
6.6.1	mac	2022-12-19	19:12:47	19:21:40	531523	594ad91fa6fb8200018f720c	101036863	1	main_z	11	main_z	143	stimuli_target_trianglecircles.svg	stimuli_distractor_trianglediamonds.svg	17	yes	44	1	428
6.6.1	mac	2022-12-19	19:12:47	19:21:40	531523	594ad91fa6fb8200018f720c	101036863	1	main_z	11	advance_on_keypress_ZEE	144	stimuli_target_trianglecircles.svg	stimuli_distractor_trianglediamonds.svg	17	yes	57	0	285
6.6.1	mac	2022-12-19	19:12:47	19:21:42	533112	594ad91fa6fb8200018f720c	101036863	1	main_z	11	main_z	145	stimuli_distractor_diamondtriangles.svg	stimuli_target_squaretriangles.svg	15	yes	44	1	667
6.6.1	mac	2022-12-19	19:12:47	19:21:42	533112	594ad91fa6fb8200018f720c	101036863	1	main_z	11	advance_on_keypress_ZEE	146	stimuli_distractor_diamondtriangles.svg	stimuli_target_squaretriangles.svg	15	yes	57	0	355
6.6.1	mac	2022-12-19	19:12:47	19:21:43	534587	594ad91fa6fb8200018f720c	101036863	1	main_z	11	main_z	147	stimuli_distractor_diamondtriangles.svg	stimuli_distractor_trianglediamonds.svg	38	no	44	0	492
6.6.1	mac	2022-12-19	19:12:47	19:21:43	534587	594ad91fa6fb8200018f720c	101036863	1	main_z	11	advance_on_keypress_ZEE	148	stimuli_distractor_diamondtriangles.svg	stimuli_distractor_trianglediamonds.svg	38	no	57	0	713
6.6.1	mac	2022-12-19	19:12:47	19:21:45	536749	594ad91fa6fb8200018f720c	101036863	1	main_z	11	main_z	149	stimuli_target_squaretriangles.svg	stimuli_distractor_diamondtriangles.svg	7	yes	44	1	820
6.6.1	mac	2022-12-19	19:12:47	19:21:45	536749	594ad91fa6fb8200018f720c	101036863	1	main_z	11	advance_on_keypress_ZEE	150	stimuli_target_squaretriangles.svg	stimuli_distractor_diamondtriangles.svg	7	yes	57	0	306
6.6.1	mac	2022-12-19	19:12:47	19:21:47	538035	594ad91fa6fb8200018f720c	101036863	1	main_z	11	main_z	151	stimuli_distractor_diamondtriangles.svg	stimuli_target_squarediamonds.svg	16	yes	44	1	356
6.6.1	mac	2022-12-19	19:12:47	19:21:47	538035	594ad91fa6fb8200018f720c	101036863	1	main_z	11	advance_on_keypress_ZEE	152	stimuli_distractor_diamondtriangles.svg	stimuli_target_squarediamonds.svg	16	yes	57	0	197
6.6.1	mac	2022-12-19	19:12:47	19:21:48	539199	594ad91fa6fb8200018f720c	101036863	1	main_z	11	main_z	153	stimuli_distractor_trianglediamonds.svg	stimuli_target_squaretriangles.svg	11	yes	44	1	338
6.6.1	mac	2022-12-19	19:12:47	19:21:48	539199	594ad91fa6fb8200018f720c	101036863	1	main_z	11	advance_on_keypress_ZEE	154	stimuli_distractor_trianglediamonds.svg	stimuli_target_squaretriangles.svg	11	yes	57	0	174
6.6.1	mac	2022-12-19	19:12:47	19:21:49	540306	594ad91fa6fb8200018f720c	101036863	1	main_z	11	main_z	155	stimuli_distractor_diamondtriangles.svg	stimuli_target_circletriangles.svg	13	yes	44	1	311
6.6.1	mac	2022-12-19	19:12:47	19:21:49	540306	594ad91fa6fb8200018f720c	101036863	1	main_z	11	advance_on_keypress_ZEE	156	stimuli_distractor_diamondtriangles.svg	stimuli_target_circletriangles.svg	13	yes	57	0	187
6.6.1	mac	2022-12-19	19:12:47	19:21:50	541398	594ad91fa6fb8200018f720c	101036863	1	main_z	11	main_z	157	stimuli_distractor_trianglediamonds.svg	stimuli_distractor_trianglediamonds.svg	33	no	44	0	286
6.6.1	mac	2022-12-19	19:12:47	19:21:50	541398	594ad91fa6fb8200018f720c	101036863	1	main_z	11	advance_on_keypress_ZEE	158	stimuli_distractor_trianglediamonds.svg	stimuli_distractor_trianglediamonds.svg	33	no	57	0	1103
6.6.1	mac	2022-12-19	19:12:47	19:21:52	543672	594ad91fa6fb8200018f720c	101036863	1	main_z	11	main_z	159	stimuli_target_diamondcircles.svg	stimuli_distractor_trianglediamonds.svg	19	yes	44	1	543
6.6.1	mac	2022-12-19	19:12:47	19:21:52	543672	594ad91fa6fb8200018f720c	101036863	1	main_z	11	advance_on_keypress_ZEE	160	stimuli_target_diamondcircles.svg	stimuli_distractor_trianglediamonds.svg	19	yes	57	0	297