build	computer.platform	date	time	timestamp	time_elapsed_ms	subject	group	session	blockcode	blocknum	trialcode	trialnum	stimulus_left	stimulus_right	stim_index	target_present	response	correct	latency
6.6.1	win	2022-12-14	20:03:38	20:08:16	276370	610f7244c65ae4e57858a700	367666568	1	practice_z	5	practice_z	1	stimuli_distractor_trianglediamonds.svg	stimuli_distractor_diamondtriangles.svg	16	no	0	1	2000
6.6.1	win	2022-12-14	20:03:38	20:08:16	276370	610f7244c65ae4e57858a700	367666568	1	practice_z	5	advance_on_keypress_ZEE	2	stimuli_distractor_trianglediamonds.svg	stimuli_distractor_diamondtriangles.svg	16	no	57	0	6316
6.6.1	win	2022-12-14	20:03:38	20:08:24	284847	610f7244c65ae4e57858a700	367666568	1	practice_z	5	practice_z	3	stimuli_distractor_trianglediamonds.svg	stimuli_target_circlediamonds.svg	10	yes	44	1	479
6.6.1	win	2022-12-14	20:03:38	20:08:24	284847	610f7244c65ae4e57858a700	367666568	1	practice_z	5	advance_on_keypress_ZEE	4	stimuli_distractor_trianglediamonds.svg	stimuli_target_circlediamonds.svg	10	yes	57	0	1242
6.6.1	win	2022-12-14	20:03:38	20:08:28	288335	610f7244c65ae4e57858a700	367666568	1	practice_z	5	practice_z	5	stimuli_target_squarediamonds.svg	stimuli_distractor_trianglediamonds.svg	5	yes	44	1	583
6.6.1	win	2022-12-14	20:03:38	20:08:28	288335	610f7244c65ae4e57858a700	367666568	1	practice_z	5	advance_on_keypress_ZEE	6	stimuli_target_squarediamonds.svg	stimuli_distractor_trianglediamonds.svg	5	yes	57	0	2416
6.6.1	win	2022-12-14	20:03:38	20:08:33	293415	610f7244c65ae4e57858a700	367666568	1	practice_z	5	practice_z	7	stimuli_target_diamondsquares.svg	stimuli_distractor_trianglediamonds.svg	6	yes	44	1	1013
6.6.1	win	2022-12-14	20:03:38	20:08:33	293415	610f7244c65ae4e57858a700	367666568	1	practice_z	5	advance_on_keypress_ZEE	8	stimuli_target_diamondsquares.svg	stimuli_distractor_trianglediamonds.svg	6	yes	57	0	729
6.6.1	win	2022-12-14	20:03:38	20:08:36	296365	610f7244c65ae4e57858a700	367666568	1	practice_z	5	practice_z	9	stimuli_distractor_diamondtriangles.svg	stimuli_target_trianglecircles.svg	9	yes	44	1	565
6.6.1	win	2022-12-14	20:03:38	20:08:36	296365	610f7244c65ae4e57858a700	367666568	1	practice_z	5	advance_on_keypress_ZEE	10	stimuli_distractor_diamondtriangles.svg	stimuli_target_trianglecircles.svg	9	yes	57	0	383
6.6.1	win	2022-12-14	20:03:38	20:08:40	300400	610f7244c65ae4e57858a700	367666568	1	practice_z	5	practice_z	11	stimuli_distractor_diamondtriangles.svg	stimuli_distractor_trianglediamonds.svg	14	no	0	1	2000
6.6.1	win	2022-12-14	20:03:38	20:08:40	300400	610f7244c65ae4e57858a700	367666568	1	practice_z	5	advance_on_keypress_ZEE	12	stimuli_distractor_diamondtriangles.svg	stimuli_distractor_trianglediamonds.svg	14	no	57	0	808
6.6.1	win	2022-12-14	20:03:38	20:08:43	303628	610f7244c65ae4e57858a700	367666568	1	practice_z	5	practice_z	13	stimuli_target_diamondsquares.svg	stimuli_distractor_diamondtriangles.svg	3	yes	44	1	779
6.6.1	win	2022-12-14	20:03:38	20:08:43	303628	610f7244c65ae4e57858a700	367666568	1	practice_z	5	advance_on_keypress_ZEE	14	stimuli_target_diamondsquares.svg	stimuli_distractor_diamondtriangles.svg	3	yes	57	0	453
6.6.1	win	2022-12-14	20:03:38	20:08:46	306414	610f7244c65ae4e57858a700	367666568	1	practice_z	5	practice_z	15	stimuli_distractor_diamondtriangles.svg	stimuli_target_circletriangles.svg	7	yes	44	1	682
6.6.1	win	2022-12-14	20:03:38	20:08:46	306414	610f7244c65ae4e57858a700	367666568	1	practice_z	5	advance_on_keypress_ZEE	16	stimuli_distractor_diamondtriangles.svg	stimuli_target_circletriangles.svg	7	yes	57	0	658
6.6.1	win	2022-12-14	20:03:38	20:08:50	310732	610f7244c65ae4e57858a700	367666568	1	practice_z	5	practice_z	17	stimuli_distractor_trianglediamonds.svg	stimuli_distractor_trianglediamonds.svg	15	no	0	1	2000
6.6.1	win	2022-12-14	20:03:38	20:08:50	310732	610f7244c65ae4e57858a700	367666568	1	practice_z	5	advance_on_keypress_ZEE	18	stimuli_distractor_trianglediamonds.svg	stimuli_distractor_trianglediamonds.svg	15	no	57	0	978
6.6.1	win	2022-12-14	20:03:38	20:08:53	313846	610f7244c65ae4e57858a700	367666568	1	practice_z	5	practice_z	19	stimuli_distractor_diamondtriangles.svg	stimuli_target_diamondcircles.svg	8	yes	44	1	481
6.6.1	win	2022-12-14	20:03:38	20:08:53	313846	610f7244c65ae4e57858a700	367666568	1	practice_z	5	advance_on_keypress_ZEE	20	stimuli_distractor_diamondtriangles.svg	stimuli_target_diamondcircles.svg	8	yes	57	0	595
6.6.1	win	2022-12-14	20:03:38	20:08:56	316566	610f7244c65ae4e57858a700	367666568	1	practice_z	5	practice_z	21	stimuli_target_squarediamonds.svg	stimuli_distractor_diamondtriangles.svg	2	yes	44	1	468
6.6.1	win	2022-12-14	20:03:38	20:08:56	316566	610f7244c65ae4e57858a700	367666568	1	practice_z	5	advance_on_keypress_ZEE	22	stimuli_target_squarediamonds.svg	stimuli_distractor_diamondtriangles.svg	2	yes	57	0	599
6.6.1	win	2022-12-14	20:03:38	20:08:58	319173	610f7244c65ae4e57858a700	367666568	1	practice_z	5	practice_z	23	stimuli_target_circlediamonds.svg	stimuli_distractor_trianglediamonds.svg	4	yes	44	1	359
6.6.1	win	2022-12-14	20:03:38	20:08:58	319173	610f7244c65ae4e57858a700	367666568	1	practice_z	5	advance_on_keypress_ZEE	24	stimuli_target_circlediamonds.svg	stimuli_distractor_trianglediamonds.svg	4	yes	57	0	380
6.6.1	win	2022-12-14	20:03:38	20:09:01	321732	610f7244c65ae4e57858a700	367666568	1	practice_z	5	practice_z	25	stimuli_distractor_trianglediamonds.svg	stimuli_target_diamondcircles.svg	12	yes	44	1	519
6.6.1	win	2022-12-14	20:03:38	20:09:01	321732	610f7244c65ae4e57858a700	367666568	1	practice_z	5	advance_on_keypress_ZEE	26	stimuli_distractor_trianglediamonds.svg	stimuli_target_diamondcircles.svg	12	yes	57	0	338
6.6.1	win	2022-12-14	20:03:38	20:09:04	324525	610f7244c65ae4e57858a700	367666568	1	practice_z	5	practice_z	27	stimuli_target_circlediamonds.svg	stimuli_distractor_diamondtriangles.svg	1	yes	44	1	813
6.6.1	win	2022-12-14	20:03:38	20:09:04	324525	610f7244c65ae4e57858a700	367666568	1	practice_z	5	advance_on_keypress_ZEE	28	stimuli_target_circlediamonds.svg	stimuli_distractor_diamondtriangles.svg	1	yes	57	0	492
6.6.1	win	2022-12-14	20:03:38	20:09:06	327208	610f7244c65ae4e57858a700	367666568	1	practice_z	5	practice_z	29	stimuli_distractor_trianglediamonds.svg	stimuli_target_squarediamonds.svg	11	yes	44	1	545
6.6.1	win	2022-12-14	20:03:38	20:09:06	327208	610f7244c65ae4e57858a700	367666568	1	practice_z	5	advance_on_keypress_ZEE	30	stimuli_distractor_trianglediamonds.svg	stimuli_target_squarediamonds.svg	11	yes	57	0	522
6.6.1	win	2022-12-14	20:03:38	20:09:09	329974	610f7244c65ae4e57858a700	367666568	1	practice_z	5	practice_z	31	stimuli_distractor_diamondtriangles.svg	stimuli_distractor_diamondtriangles.svg	13	no	44	0	594
6.6.1	win	2022-12-14	20:03:38	20:09:09	329974	610f7244c65ae4e57858a700	367666568	1	practice_z	5	advance_on_keypress_ZEE	32	stimuli_distractor_diamondtriangles.svg	stimuli_distractor_diamondtriangles.svg	13	no	57	0	612
6.6.1	win	2022-12-14	20:03:38	20:09:22	342697	610f7244c65ae4e57858a700	367666568	1	main_z	7	main_z	1	stimuli_distractor_trianglediamonds.svg	stimuli_target_trianglesquares.svg	26	yes	44	1	422
6.6.1	win	2022-12-14	20:03:38	20:09:22	342697	610f7244c65ae4e57858a700	367666568	1	main_z	7	advance_on_keypress_ZEE	2	stimuli_distractor_trianglediamonds.svg	stimuli_target_trianglesquares.svg	26	yes	57	0	1157
6.6.1	win	2022-12-14	20:03:38	20:09:24	344904	610f7244c65ae4e57858a700	367666568	1	main_z	7	main_z	3	stimuli_target_circletriangles.svg	stimuli_distractor_trianglediamonds.svg	1	yes	44	1	413
6.6.1	win	2022-12-14	20:03:38	20:09:24	344904	610f7244c65ae4e57858a700	367666568	1	main_z	7	advance_on_keypress_ZEE	4	stimuli_target_circletriangles.svg	stimuli_distractor_trianglediamonds.svg	1	yes	57	0	775
6.6.1	win	2022-12-14	20:03:38	20:09:26	346751	610f7244c65ae4e57858a700	367666568	1	main_z	7	main_z	5	stimuli_distractor_diamondtriangles.svg	stimuli_target_trianglecircles.svg	29	yes	44	1	427
6.6.1	win	2022-12-14	20:03:38	20:09:26	346751	610f7244c65ae4e57858a700	367666568	1	main_z	7	advance_on_keypress_ZEE	6	stimuli_distractor_diamondtriangles.svg	stimuli_target_trianglecircles.svg	29	yes	57	0	632
6.6.1	win	2022-12-14	20:03:38	20:09:28	348538	610f7244c65ae4e57858a700	367666568	1	main_z	7	main_z	7	stimuli_target_diamondcircles.svg	stimuli_distractor_trianglediamonds.svg	19	yes	44	1	504
6.6.1	win	2022-12-14	20:03:38	20:09:28	348538	610f7244c65ae4e57858a700	367666568	1	main_z	7	advance_on_keypress_ZEE	8	stimuli_target_diamondcircles.svg	stimuli_distractor_trianglediamonds.svg	19	yes	57	0	586
6.6.1	win	2022-12-14	20:03:38	20:09:31	351774	610f7244c65ae4e57858a700	367666568	1	main_z	7	main_z	9	stimuli_distractor_diamondtriangles.svg	stimuli_distractor_diamondtriangles.svg	39	no	0	1	2000
6.6.1	win	2022-12-14	20:03:38	20:09:31	351774	610f7244c65ae4e57858a700	367666568	1	main_z	7	advance_on_keypress_ZEE	10	stimuli_distractor_diamondtriangles.svg	stimuli_distractor_diamondtriangles.svg	39	no	57	0	439
6.6.1	win	2022-12-14	20:03:38	20:09:33	353329	610f7244c65ae4e57858a700	367666568	1	main_z	7	main_z	11	stimuli_target_squarediamonds.svg	stimuli_distractor_trianglediamonds.svg	4	yes	44	1	472
6.6.1	win	2022-12-14	20:03:38	20:09:33	353329	610f7244c65ae4e57858a700	367666568	1	main_z	7	advance_on_keypress_ZEE	12	stimuli_target_squarediamonds.svg	stimuli_distractor_trianglediamonds.svg	4	yes	57	0	652
6.6.1	win	2022-12-14	20:03:38	20:09:36	356623	610f7244c65ae4e57858a700	367666568	1	main_z	7	main_z	13	stimuli_distractor_diamondtriangles.svg	stimuli_distractor_trianglediamonds.svg	38	no	0	1	2000
6.6.1	win	2022-12-14	20:03:38	20:09:36	356623	610f7244c65ae4e57858a700	367666568	1	main_z	7	advance_on_keypress_ZEE	14	stimuli_distractor_diamondtriangles.svg	stimuli_distractor_trianglediamonds.svg	38	no	57	0	450
6.6.1	win	2022-12-14	20:03:38	20:09:37	358168	610f7244c65ae4e57858a700	367666568	1	main_z	7	main_z	15	stimuli_distractor_trianglediamonds.svg	stimuli_target_circlediamonds.svg	10	yes	44	1	445
6.6.1	win	2022-12-14	20:03:38	20:09:37	358168	610f7244c65ae4e57858a700	367666568	1	main_z	7	advance_on_keypress_ZEE	16	stimuli_distractor_trianglediamonds.svg	stimuli_target_circlediamonds.svg	10	yes	57	0	767
6.6.1	win	2022-12-14	20:03:38	20:09:39	360139	610f7244c65ae4e57858a700	367666568	1	main_z	7	main_z	17	stimuli_target_trianglesquares.svg	stimuli_distractor_trianglediamonds.svg	18	yes	44	1	550
6.6.1	win	2022-12-14	20:03:38	20:09:39	360139	610f7244c65ae4e57858a700	367666568	1	main_z	7	advance_on_keypress_ZEE	18	stimuli_target_trianglesquares.svg	stimuli_distractor_trianglediamonds.svg	18	yes	57	0	745
6.6.1	win	2022-12-14	20:03:38	20:09:41	362157	610f7244c65ae4e57858a700	367666568	1	main_z	7	main_z	19	stimuli_distractor_diamondtriangles.svg	stimuli_target_circletriangles.svg	13	yes	44	1	618
6.6.1	win	2022-12-14	20:03:38	20:09:41	362157	610f7244c65ae4e57858a700	367666568	1	main_z	7	advance_on_keypress_ZEE	20	stimuli_distractor_diamondtriangles.svg	stimuli_target_circletriangles.svg	13	yes	57	0	714
6.6.1	win	2022-12-14	20:03:38	20:09:45	365522	610f7244c65ae4e57858a700	367666568	1	main_z	7	main_z	21	stimuli_distractor_diamondtriangles.svg	stimuli_distractor_diamondtriangles.svg	40	no	0	1	2000
6.6.1	win	2022-12-14	20:03:38	20:09:45	365522	610f7244c65ae4e57858a700	367666568	1	main_z	7	advance_on_keypress_ZEE	22	stimuli_distractor_diamondtriangles.svg	stimuli_distractor_diamondtriangles.svg	40	no	57	0	325
6.6.1	win	2022-12-14	20:03:38	20:09:46	367133	610f7244c65ae4e57858a700	367666568	1	main_z	7	main_z	23	stimuli_distractor_diamondtriangles.svg	stimuli_target_squarediamonds.svg	16	yes	44	1	645
6.6.1	win	2022-12-14	20:03:38	20:09:46	367133	610f7244c65ae4e57858a700	367666568	1	main_z	7	advance_on_keypress_ZEE	24	stimuli_distractor_diamondtriangles.svg	stimuli_target_squarediamonds.svg	16	yes	57	0	761
6.6.1	win	2022-12-14	20:03:38	20:09:48	368998	610f7244c65ae4e57858a700	367666568	1	main_z	7	main_z	25	stimuli_distractor_diamondtriangles.svg	stimuli_target_circlediamonds.svg	14	yes	44	1	477
6.6.1	win	2022-12-14	20:03:38	20:09:48	368998	610f7244c65ae4e57858a700	367666568	1	main_z	7	advance_on_keypress_ZEE	26	stimuli_distractor_diamondtriangles.svg	stimuli_target_circlediamonds.svg	14	yes	57	0	557
6.6.1	win	2022-12-14	20:03:38	20:09:50	370751	610f7244c65ae4e57858a700	367666568	1	main_z	7	main_z	27	stimuli_target_trianglecircles.svg	stimuli_distractor_trianglediamonds.svg	17	yes	44	1	563
6.6.1	win	2022-12-14	20:03:38	20:09:50	370751	610f7244c65ae4e57858a700	367666568	1	main_z	7	advance_on_keypress_ZEE	28	stimuli_target_trianglecircles.svg	stimuli_distractor_trianglediamonds.svg	17	yes	57	0	656
6.6.1	win	2022-12-14	20:03:38	20:09:53	374054	610f7244c65ae4e57858a700	367666568	1	main_z	7	main_z	29	stimuli_distractor_trianglediamonds.svg	stimuli_distractor_trianglediamonds.svg	34	no	0	1	2000
6.6.1	win	2022-12-14	20:03:38	20:09:53	374054	610f7244c65ae4e57858a700	367666568	1	main_z	7	advance_on_keypress_ZEE	30	stimuli_distractor_trianglediamonds.svg	stimuli_distractor_trianglediamonds.svg	34	no	57	0	321
6.6.1	win	2022-12-14	20:03:38	20:09:55	375422	610f7244c65ae4e57858a700	367666568	1	main_z	7	main_z	31	stimuli_target_circlediamonds.svg	stimuli_distractor_diamondtriangles.svg	6	yes	44	1	402
6.6.1	win	2022-12-14	20:03:38	20:09:55	375422	610f7244c65ae4e57858a700	367666568	1	main_z	7	advance_on_keypress_ZEE	32	stimuli_target_circlediamonds.svg	stimuli_distractor_diamondtriangles.svg	6	yes	57	0	442
6.6.1	win	2022-12-14	20:03:38	20:09:56	377121	610f7244c65ae4e57858a700	367666568	1	main_z	7	main_z	33	stimuli_target_squaretriangles.svg	stimuli_distractor_diamondtriangles.svg	7	yes	44	1	618
6.6.1	win	2022-12-14	20:03:38	20:09:56	377121	610f7244c65ae4e57858a700	367666568	1	main_z	7	advance_on_keypress_ZEE	34	stimuli_target_squaretriangles.svg	stimuli_distractor_diamondtriangles.svg	7	yes	57	0	495
6.6.1	win	2022-12-14	20:03:38	20:09:58	378868	610f7244c65ae4e57858a700	367666568	1	main_z	7	main_z	35	stimuli_distractor_trianglediamonds.svg	stimuli_target_diamondcircles.svg	27	yes	44	1	598
6.6.1	win	2022-12-14	20:03:38	20:09:58	378868	610f7244c65ae4e57858a700	367666568	1	main_z	7	advance_on_keypress_ZEE	36	stimuli_distractor_trianglediamonds.svg	stimuli_target_diamondcircles.svg	27	yes	57	0	613
6.6.1	win	2022-12-14	20:03:38	20:10:00	380651	610f7244c65ae4e57858a700	367666568	1	main_z	7	main_z	37	stimuli_distractor_trianglediamonds.svg	stimuli_target_trianglecircles.svg	25	yes	44	1	504
6.6.1	win	2022-12-14	20:03:38	20:10:00	380651	610f7244c65ae4e57858a700	367666568	1	main_z	7	advance_on_keypress_ZEE	38	stimuli_distractor_trianglediamonds.svg	stimuli_target_trianglecircles.svg	25	yes	57	0	643
6.6.1	win	2022-12-14	20:03:38	20:10:02	382778	610f7244c65ae4e57858a700	367666568	1	main_z	7	main_z	39	stimuli_distractor_diamondtriangles.svg	stimuli_target_trianglesquares.svg	30	yes	44	1	842
6.6.1	win	2022-12-14	20:03:38	20:10:02	382778	610f7244c65ae4e57858a700	367666568	1	main_z	7	advance_on_keypress_ZEE	40	stimuli_distractor_diamondtriangles.svg	stimuli_target_trianglesquares.svg	30	yes	57	0	498
6.6.1	win	2022-12-14	20:03:38	20:10:05	385919	610f7244c65ae4e57858a700	367666568	1	main_z	7	main_z	41	stimuli_distractor_trianglediamonds.svg	stimuli_distractor_diamondtriangles.svg	36	no	0	1	2000
6.6.1	win	2022-12-14	20:03:38	20:10:05	385919	610f7244c65ae4e57858a700	367666568	1	main_z	7	advance_on_keypress_ZEE	42	stimuli_distractor_trianglediamonds.svg	stimuli_distractor_diamondtriangles.svg	36	no	57	0	441
6.6.1	win	2022-12-14	20:03:38	20:10:08	389002	610f7244c65ae4e57858a700	367666568	1	main_z	7	main_z	43	stimuli_distractor_diamondtriangles.svg	stimuli_distractor_trianglediamonds.svg	37	no	0	1	2000
6.6.1	win	2022-12-14	20:03:38	20:10:08	389002	610f7244c65ae4e57858a700	367666568	1	main_z	7	advance_on_keypress_ZEE	44	stimuli_distractor_diamondtriangles.svg	stimuli_distractor_trianglediamonds.svg	37	no	57	0	306
6.6.1	win	2022-12-14	20:03:38	20:10:10	390349	610f7244c65ae4e57858a700	367666568	1	main_z	7	main_z	45	stimuli_target_trianglecircles.svg	stimuli_distractor_diamondtriangles.svg	21	yes	44	1	397
6.6.1	win	2022-12-14	20:03:38	20:10:10	390349	610f7244c65ae4e57858a700	367666568	1	main_z	7	advance_on_keypress_ZEE	46	stimuli_target_trianglecircles.svg	stimuli_distractor_diamondtriangles.svg	21	yes	57	0	538
6.6.1	win	2022-12-14	20:03:38	20:10:11	392049	610f7244c65ae4e57858a700	367666568	1	main_z	7	main_z	47	stimuli_target_squarediamonds.svg	stimuli_distractor_diamondtriangles.svg	8	yes	44	1	506
6.6.1	win	2022-12-14	20:03:38	20:10:11	392049	610f7244c65ae4e57858a700	367666568	1	main_z	7	advance_on_keypress_ZEE	48	stimuli_target_squarediamonds.svg	stimuli_distractor_diamondtriangles.svg	8	yes	57	0	450
6.6.1	win	2022-12-14	20:03:38	20:10:13	393621	610f7244c65ae4e57858a700	367666568	1	main_z	7	main_z	49	stimuli_target_diamondsquares.svg	stimuli_distractor_trianglediamonds.svg	20	yes	44	1	470
6.6.1	win	2022-12-14	20:03:38	20:10:13	393621	610f7244c65ae4e57858a700	367666568	1	main_z	7	advance_on_keypress_ZEE	50	stimuli_target_diamondsquares.svg	stimuli_distractor_trianglediamonds.svg	20	yes	57	0	467
6.6.1	win	2022-12-14	20:03:38	20:10:14	395226	610f7244c65ae4e57858a700	367666568	1	main_z	7	main_z	51	stimuli_distractor_diamondtriangles.svg	stimuli_target_diamondsquares.svg	32	yes	44	1	491
6.6.1	win	2022-12-14	20:03:38	20:10:14	395226	610f7244c65ae4e57858a700	367666568	1	main_z	7	advance_on_keypress_ZEE	52	stimuli_distractor_diamondtriangles.svg	stimuli_target_diamondsquares.svg	32	yes	57	0	449
6.6.1	win	2022-12-14	20:03:38	20:10:16	396746	610f7244c65ae4e57858a700	367666568	1	main_z	7	main_z	53	stimuli_target_circlediamonds.svg	stimuli_distractor_trianglediamonds.svg	2	yes	44	1	428
6.6.1	win	2022-12-14	20:03:38	20:10:16	396746	610f7244c65ae4e57858a700	367666568	1	main_z	7	advance_on_keypress_ZEE	54	stimuli_target_circlediamonds.svg	stimuli_distractor_trianglediamonds.svg	2	yes	57	0	396
6.6.1	win	2022-12-14	20:03:38	20:10:19	399801	610f7244c65ae4e57858a700	367666568	1	main_z	7	main_z	55	stimuli_distractor_trianglediamonds.svg	stimuli_distractor_trianglediamonds.svg	33	no	0	1	2000
6.6.1	win	2022-12-14	20:03:38	20:10:19	399801	610f7244c65ae4e57858a700	367666568	1	main_z	7	advance_on_keypress_ZEE	56	stimuli_distractor_trianglediamonds.svg	stimuli_distractor_trianglediamonds.svg	33	no	57	0	313
6.6.1	win	2022-12-14	20:03:38	20:10:20	401111	610f7244c65ae4e57858a700	367666568	1	main_z	7	main_z	57	stimuli_target_circletriangles.svg	stimuli_distractor_diamondtriangles.svg	5	yes	44	1	344
6.6.1	win	2022-12-14	20:03:38	20:10:20	401111	610f7244c65ae4e57858a700	367666568	1	main_z	7	advance_on_keypress_ZEE	58	stimuli_target_circletriangles.svg	stimuli_distractor_diamondtriangles.svg	5	yes	57	0	440
6.6.1	win	2022-12-14	20:03:38	20:10:22	402564	610f7244c65ae4e57858a700	367666568	1	main_z	7	main_z	59	stimuli_distractor_diamondtriangles.svg	stimuli_target_diamondcircles.svg	31	yes	44	1	373
6.6.1	win	2022-12-14	20:03:38	20:10:22	402564	610f7244c65ae4e57858a700	367666568	1	main_z	7	advance_on_keypress_ZEE	60	stimuli_distractor_diamondtriangles.svg	stimuli_target_diamondcircles.svg	31	yes	57	0	418
6.6.1	win	2022-12-14	20:03:38	20:10:25	405633	610f7244c65ae4e57858a700	367666568	1	main_z	7	main_z	61	stimuli_distractor_trianglediamonds.svg	stimuli_target_circletriangles.svg	9	yes	0	0	2000
6.6.1	win	2022-12-14	20:03:38	20:10:25	405633	610f7244c65ae4e57858a700	367666568	1	main_z	7	advance_on_keypress_ZEE	62	stimuli_distractor_trianglediamonds.svg	stimuli_target_circletriangles.svg	9	yes	57	0	967
6.6.1	win	2022-12-14	20:03:38	20:10:27	407585	610f7244c65ae4e57858a700	367666568	1	main_z	7	main_z	63	stimuli_target_squaretriangles.svg	stimuli_distractor_trianglediamonds.svg	3	yes	44	1	335
6.6.1	win	2022-12-14	20:03:38	20:10:27	407585	610f7244c65ae4e57858a700	367666568	1	main_z	7	advance_on_keypress_ZEE	64	stimuli_target_squaretriangles.svg	stimuli_distractor_trianglediamonds.svg	3	yes	57	0	423
6.6.1	win	2022-12-14	20:03:38	20:10:28	409137	610f7244c65ae4e57858a700	367666568	1	main_z	7	main_z	65	stimuli_distractor_diamondtriangles.svg	stimuli_target_squaretriangles.svg	15	yes	44	1	487
6.6.1	win	2022-12-14	20:03:38	20:10:28	409137	610f7244c65ae4e57858a700	367666568	1	main_z	7	advance_on_keypress_ZEE	66	stimuli_distractor_diamondtriangles.svg	stimuli_target_squaretriangles.svg	15	yes	57	0	567
6.6.1	win	2022-12-14	20:03:38	20:10:30	410768	610f7244c65ae4e57858a700	367666568	1	main_z	7	main_z	67	stimuli_distractor_trianglediamonds.svg	stimuli_target_squaretriangles.svg	11	yes	44	1	419
6.6.1	win	2022-12-14	20:03:38	20:10:30	410768	610f7244c65ae4e57858a700	367666568	1	main_z	7	advance_on_keypress_ZEE	68	stimuli_distractor_trianglediamonds.svg	stimuli_target_squaretriangles.svg	11	yes	57	0	495
6.6.1	win	2022-12-14	20:03:38	20:10:32	412432	610f7244c65ae4e57858a700	367666568	1	main_z	7	main_z	69	stimuli_target_diamondsquares.svg	stimuli_distractor_diamondtriangles.svg	24	yes	44	1	533
6.6.1	win	2022-12-14	20:03:38	20:10:32	412432	610f7244c65ae4e57858a700	367666568	1	main_z	7	advance_on_keypress_ZEE	70	stimuli_target_diamondsquares.svg	stimuli_distractor_diamondtriangles.svg	24	yes	57	0	470
6.6.1	win	2022-12-14	20:03:38	20:10:33	413958	610f7244c65ae4e57858a700	367666568	1	main_z	7	main_z	71	stimuli_distractor_trianglediamonds.svg	stimuli_distractor_diamondtriangles.svg	35	no	44	0	409
6.6.1	win	2022-12-14	20:03:38	20:10:33	413958	610f7244c65ae4e57858a700	367666568	1	main_z	7	advance_on_keypress_ZEE	72	stimuli_distractor_trianglediamonds.svg	stimuli_distractor_diamondtriangles.svg	35	no	57	0	627
6.6.1	win	2022-12-14	20:03:38	20:10:35	415916	610f7244c65ae4e57858a700	367666568	1	main_z	7	main_z	73	stimuli_distractor_trianglediamonds.svg	stimuli_target_diamondsquares.svg	28	yes	44	1	701
6.6.1	win	2022-12-14	20:03:38	20:10:35	415916	610f7244c65ae4e57858a700	367666568	1	main_z	7	advance_on_keypress_ZEE	74	stimuli_distractor_trianglediamonds.svg	stimuli_target_diamondsquares.svg	28	yes	57	0	677
6.6.1	win	2022-12-14	20:03:38	20:10:37	417778	610f7244c65ae4e57858a700	367666568	1	main_z	7	main_z	75	stimuli_distractor_trianglediamonds.svg	stimuli_target_squarediamonds.svg	12	yes	44	1	546
6.6.1	win	2022-12-14	20:03:38	20:10:37	417778	610f7244c65ae4e57858a700	367666568	1	main_z	7	advance_on_keypress_ZEE	76	stimuli_distractor_trianglediamonds.svg	stimuli_target_squarediamonds.svg	12	yes	57	0	591
6.6.1	win	2022-12-14	20:03:38	20:10:39	419677	610f7244c65ae4e57858a700	367666568	1	main_z	7	main_z	77	stimuli_target_diamondcircles.svg	stimuli_distractor_diamondtriangles.svg	23	yes	44	1	662
6.6.1	win	2022-12-14	20:03:38	20:10:39	419677	610f7244c65ae4e57858a700	367666568	1	main_z	7	advance_on_keypress_ZEE	78	stimuli_target_diamondcircles.svg	stimuli_distractor_diamondtriangles.svg	23	yes	57	0	519
6.6.1	win	2022-12-14	20:03:38	20:10:41	421661	610f7244c65ae4e57858a700	367666568	1	main_z	7	main_z	79	stimuli_target_trianglesquares.svg	stimuli_distractor_diamondtriangles.svg	22	yes	44	1	814
6.6.1	win	2022-12-14	20:03:38	20:10:41	421661	610f7244c65ae4e57858a700	367666568	1	main_z	7	advance_on_keypress_ZEE	80	stimuli_target_trianglesquares.svg	stimuli_distractor_diamondtriangles.svg	22	yes	57	0	644
6.6.1	win	2022-12-14	20:03:38	20:10:43	423411	610f7244c65ae4e57858a700	367666568	1	main_z	7	main_z	81	stimuli_distractor_diamondtriangles.svg	stimuli_target_trianglecircles.svg	29	yes	44	1	463
6.6.1	win	2022-12-14	20:03:38	20:10:43	423411	610f7244c65ae4e57858a700	367666568	1	main_z	7	advance_on_keypress_ZEE	82	stimuli_distractor_diamondtriangles.svg	stimuli_target_trianglecircles.svg	29	yes	57	0	435
6.6.1	win	2022-12-14	20:03:38	20:10:44	425011	610f7244c65ae4e57858a700	367666568	1	main_z	7	main_z	83	stimuli_distractor_trianglediamonds.svg	stimuli_target_diamondcircles.svg	27	yes	44	1	506
6.6.1	win	2022-12-14	20:03:38	20:10:44	425011	610f7244c65ae4e57858a700	367666568	1	main_z	7	advance_on_keypress_ZEE	84	stimuli_distractor_trianglediamonds.svg	stimuli_target_diamondcircles.svg	27	yes	57	0	426
6.6.1	win	2022-12-14	20:03:38	20:10:46	426574	610f7244c65ae4e57858a700	367666568	1	main_z	7	main_z	85	stimuli_distractor_trianglediamonds.svg	stimuli_distractor_diamondtriangles.svg	35	no	44	0	493
6.6.1	win	2022-12-14	20:03:38	20:10:46	426574	610f7244c65ae4e57858a700	367666568	1	main_z	7	advance_on_keypress_ZEE	86	stimuli_distractor_trianglediamonds.svg	stimuli_distractor_diamondtriangles.svg	35	no	57	0	851
6.6.1	win	2022-12-14	20:03:38	20:10:48	428646	610f7244c65ae4e57858a700	367666568	1	main_z	7	main_z	87	stimuli_distractor_diamondtriangles.svg	stimuli_target_diamondcircles.svg	31	yes	44	1	582
6.6.1	win	2022-12-14	20:03:38	20:10:48	428646	610f7244c65ae4e57858a700	367666568	1	main_z	7	advance_on_keypress_ZEE	88	stimuli_distractor_diamondtriangles.svg	stimuli_target_diamondcircles.svg	31	yes	57	0	425
6.6.1	win	2022-12-14	20:03:38	20:10:49	430238	610f7244c65ae4e57858a700	367666568	1	main_z	7	main_z	89	stimuli_distractor_trianglediamonds.svg	stimuli_target_circlediamonds.svg	10	yes	44	1	525
6.6.1	win	2022-12-14	20:03:38	20:10:49	430238	610f7244c65ae4e57858a700	367666568	1	main_z	7	advance_on_keypress_ZEE	90	stimuli_distractor_trianglediamonds.svg	stimuli_target_circlediamonds.svg	10	yes	57	0	448
6.6.1	win	2022-12-14	20:03:38	20:10:51	431868	610f7244c65ae4e57858a700	367666568	1	main_z	7	main_z	91	stimuli_target_diamondcircles.svg	stimuli_distractor_trianglediamonds.svg	19	yes	44	1	538
6.6.1	win	2022-12-14	20:03:38	20:10:51	431868	610f7244c65ae4e57858a700	367666568	1	main_z	7	advance_on_keypress_ZEE	92	stimuli_target_diamondcircles.svg	stimuli_distractor_trianglediamonds.svg	19	yes	57	0	477
6.6.1	win	2022-12-14	20:03:38	20:10:54	434980	610f7244c65ae4e57858a700	367666568	1	main_z	7	main_z	93	stimuli_distractor_diamondtriangles.svg	stimuli_distractor_diamondtriangles.svg	40	no	0	1	2000
6.6.1	win	2022-12-14	20:03:38	20:10:54	434980	610f7244c65ae4e57858a700	367666568	1	main_z	7	advance_on_keypress_ZEE	94	stimuli_distractor_diamondtriangles.svg	stimuli_distractor_diamondtriangles.svg	40	no	57	0	739
6.6.1	win	2022-12-14	20:03:38	20:10:56	436775	610f7244c65ae4e57858a700	367666568	1	main_z	7	main_z	95	stimuli_target_squaretriangles.svg	stimuli_distractor_diamondtriangles.svg	7	yes	44	1	412
6.6.1	win	2022-12-14	20:03:38	20:10:56	436775	610f7244c65ae4e57858a700	367666568	1	main_z	7	advance_on_keypress_ZEE	96	stimuli_target_squaretriangles.svg	stimuli_distractor_diamondtriangles.svg	7	yes	57	0	577
6.6.1	win	2022-12-14	20:03:38	20:10:58	438582	610f7244c65ae4e57858a700	367666568	1	main_z	7	main_z	97	stimuli_distractor_trianglediamonds.svg	stimuli_target_squarediamonds.svg	12	yes	44	1	586
6.6.1	win	2022-12-14	20:03:38	20:10:58	438582	610f7244c65ae4e57858a700	367666568	1	main_z	7	advance_on_keypress_ZEE	98	stimuli_distractor_trianglediamonds.svg	stimuli_target_squarediamonds.svg	12	yes	57	0	545
6.6.1	win	2022-12-14	20:03:38	20:11:00	440431	610f7244c65ae4e57858a700	367666568	1	main_z	7	main_z	99	stimuli_distractor_diamondtriangles.svg	stimuli_target_squarediamonds.svg	16	yes	44	1	652
6.6.1	win	2022-12-14	20:03:38	20:11:00	440431	610f7244c65ae4e57858a700	367666568	1	main_z	7	advance_on_keypress_ZEE	100	stimuli_distractor_diamondtriangles.svg	stimuli_target_squarediamonds.svg	16	yes	57	0	520
6.6.1	win	2022-12-14	20:03:38	20:11:01	442001	610f7244c65ae4e57858a700	367666568	1	main_z	7	main_z	101	stimuli_target_trianglesquares.svg	stimuli_distractor_trianglediamonds.svg	18	yes	44	1	406
6.6.1	win	2022-12-14	20:03:38	20:11:01	442001	610f7244c65ae4e57858a700	367666568	1	main_z	7	advance_on_keypress_ZEE	102	stimuli_target_trianglesquares.svg	stimuli_distractor_trianglediamonds.svg	18	yes	57	0	454
6.6.1	win	2022-12-14	20:03:38	20:11:03	443664	610f7244c65ae4e57858a700	367666568	1	main_z	7	main_z	103	stimuli_target_trianglesquares.svg	stimuli_distractor_diamondtriangles.svg	22	yes	44	1	568
6.6.1	win	2022-12-14	20:03:38	20:11:03	443664	610f7244c65ae4e57858a700	367666568	1	main_z	7	advance_on_keypress_ZEE	104	stimuli_target_trianglesquares.svg	stimuli_distractor_diamondtriangles.svg	22	yes	57	0	507
6.6.1	win	2022-12-14	20:03:38	20:11:05	445285	610f7244c65ae4e57858a700	367666568	1	main_z	7	main_z	105	stimuli_distractor_trianglediamonds.svg	stimuli_target_trianglesquares.svg	26	yes	44	1	473
6.6.1	win	2022-12-14	20:03:38	20:11:05	445285	610f7244c65ae4e57858a700	367666568	1	main_z	7	advance_on_keypress_ZEE	106	stimuli_distractor_trianglediamonds.svg	stimuli_target_trianglesquares.svg	26	yes	57	0	499
6.6.1	win	2022-12-14	20:03:38	20:11:06	447043	610f7244c65ae4e57858a700	367666568	1	main_z	7	main_z	107	stimuli_target_trianglecircles.svg	stimuli_distractor_trianglediamonds.svg	17	yes	44	1	614
6.6.1	win	2022-12-14	20:03:38	20:11:06	447043	610f7244c65ae4e57858a700	367666568	1	main_z	7	advance_on_keypress_ZEE	108	stimuli_target_trianglecircles.svg	stimuli_distractor_trianglediamonds.svg	17	yes	57	0	500
6.6.1	win	2022-12-14	20:03:38	20:11:08	448756	610f7244c65ae4e57858a700	367666568	1	main_z	7	main_z	109	stimuli_target_circlediamonds.svg	stimuli_distractor_trianglediamonds.svg	2	yes	44	1	561
6.6.1	win	2022-12-14	20:03:38	20:11:08	448756	610f7244c65ae4e57858a700	367666568	1	main_z	7	advance_on_keypress_ZEE	110	stimuli_target_circlediamonds.svg	stimuli_distractor_trianglediamonds.svg	2	yes	57	0	448
6.6.1	win	2022-12-14	20:03:38	20:11:10	450434	610f7244c65ae4e57858a700	367666568	1	main_z	7	main_z	111	stimuli_distractor_diamondtriangles.svg	stimuli_target_circlediamonds.svg	14	yes	44	1	590
6.6.1	win	2022-12-14	20:03:38	20:11:10	450434	610f7244c65ae4e57858a700	367666568	1	main_z	7	advance_on_keypress_ZEE	112	stimuli_distractor_diamondtriangles.svg	stimuli_target_circlediamonds.svg	14	yes	57	0	438
6.6.1	win	2022-12-14	20:03:38	20:11:11	451899	610f7244c65ae4e57858a700	367666568	1	main_z	7	main_z	113	stimuli_target_squarediamonds.svg	stimuli_distractor_diamondtriangles.svg	8	yes	44	1	388
6.6.1	win	2022-12-14	20:03:38	20:11:11	451899	610f7244c65ae4e57858a700	367666568	1	main_z	7	advance_on_keypress_ZEE	114	stimuli_target_squarediamonds.svg	stimuli_distractor_diamondtriangles.svg	8	yes	57	0	407
6.6.1	win	2022-12-14	20:03:38	20:11:13	453461	610f7244c65ae4e57858a700	367666568	1	main_z	7	main_z	115	stimuli_distractor_diamondtriangles.svg	stimuli_target_squaretriangles.svg	15	yes	44	1	516
6.6.1	win	2022-12-14	20:03:38	20:11:13	453461	610f7244c65ae4e57858a700	367666568	1	main_z	7	advance_on_keypress_ZEE	116	stimuli_distractor_diamondtriangles.svg	stimuli_target_squaretriangles.svg	15	yes	57	0	335
6.6.1	win	2022-12-14	20:03:38	20:11:16	456444	610f7244c65ae4e57858a700	367666568	1	main_z	7	main_z	117	stimuli_distractor_diamondtriangles.svg	stimuli_distractor_diamondtriangles.svg	39	no	0	1	2000
6.6.1	win	2022-12-14	20:03:38	20:11:16	456444	610f7244c65ae4e57858a700	367666568	1	main_z	7	advance_on_keypress_ZEE	118	stimuli_distractor_diamondtriangles.svg	stimuli_distractor_diamondtriangles.svg	39	no	57	0	264
6.6.1	win	2022-12-14	20:03:38	20:11:17	457673	610f7244c65ae4e57858a700	367666568	1	main_z	7	main_z	119	stimuli_target_circletriangles.svg	stimuli_distractor_diamondtriangles.svg	5	yes	44	1	313
6.6.1	win	2022-12-14	20:03:38	20:11:17	457673	610f7244c65ae4e57858a700	367666568	1	main_z	7	advance_on_keypress_ZEE	120	stimuli_target_circletriangles.svg	stimuli_distractor_diamondtriangles.svg	5	yes	57	0	367
6.6.1	win	2022-12-14	20:03:38	20:11:20	460693	610f7244c65ae4e57858a700	367666568	1	main_z	7	main_z	121	stimuli_distractor_trianglediamonds.svg	stimuli_distractor_trianglediamonds.svg	34	no	0	1	2000
6.6.1	win	2022-12-14	20:03:38	20:11:20	460693	610f7244c65ae4e57858a700	367666568	1	main_z	7	advance_on_keypress_ZEE	122	stimuli_distractor_trianglediamonds.svg	stimuli_distractor_trianglediamonds.svg	34	no	57	0	410
6.6.1	win	2022-12-14	20:03:38	20:11:21	462236	610f7244c65ae4e57858a700	367666568	1	main_z	7	main_z	123	stimuli_target_trianglecircles.svg	stimuli_distractor_diamondtriangles.svg	21	yes	44	1	493
6.6.1	win	2022-12-14	20:03:38	20:11:21	462236	610f7244c65ae4e57858a700	367666568	1	main_z	7	advance_on_keypress_ZEE	124	stimuli_target_trianglecircles.svg	stimuli_distractor_diamondtriangles.svg	21	yes	57	0	518
6.6.1	win	2022-12-14	20:03:38	20:11:23	463993	610f7244c65ae4e57858a700	367666568	1	main_z	7	main_z	125	stimuli_distractor_trianglediamonds.svg	stimuli_target_trianglecircles.svg	25	yes	44	1	600
6.6.1	win	2022-12-14	20:03:38	20:11:23	463993	610f7244c65ae4e57858a700	367666568	1	main_z	7	advance_on_keypress_ZEE	126	stimuli_distractor_trianglediamonds.svg	stimuli_target_trianglecircles.svg	25	yes	57	0	532
6.6.1	win	2022-12-14	20:03:38	20:11:25	465665	610f7244c65ae4e57858a700	367666568	1	main_z	7	main_z	127	stimuli_distractor_diamondtriangles.svg	stimuli_target_trianglesquares.svg	30	yes	44	1	489
6.6.1	win	2022-12-14	20:03:38	20:11:25	465665	610f7244c65ae4e57858a700	367666568	1	main_z	7	advance_on_keypress_ZEE	128	stimuli_distractor_diamondtriangles.svg	stimuli_target_trianglesquares.svg	30	yes	57	0	449
6.6.1	win	2022-12-14	20:03:38	20:11:27	467279	610f7244c65ae4e57858a700	367666568	1	main_z	7	main_z	129	stimuli_distractor_diamondtriangles.svg	stimuli_target_circletriangles.svg	13	yes	44	1	520
6.6.1	win	2022-12-14	20:03:38	20:11:27	467279	610f7244c65ae4e57858a700	367666568	1	main_z	7	advance_on_keypress_ZEE	130	stimuli_distractor_diamondtriangles.svg	stimuli_target_circletriangles.svg	13	yes	57	0	393
6.6.1	win	2022-12-14	20:03:38	20:11:28	468696	610f7244c65ae4e57858a700	367666568	1	main_z	7	main_z	131	stimuli_target_diamondcircles.svg	stimuli_distractor_diamondtriangles.svg	23	yes	44	1	387
6.6.1	win	2022-12-14	20:03:38	20:11:28	468696	610f7244c65ae4e57858a700	367666568	1	main_z	7	advance_on_keypress_ZEE	132	stimuli_target_diamondcircles.svg	stimuli_distractor_diamondtriangles.svg	23	yes	57	0	482
6.6.1	win	2022-12-14	20:03:38	20:11:30	470321	610f7244c65ae4e57858a700	367666568	1	main_z	7	main_z	133	stimuli_target_circlediamonds.svg	stimuli_distractor_diamondtriangles.svg	6	yes	44	1	496
6.6.1	win	2022-12-14	20:03:38	20:11:30	470321	610f7244c65ae4e57858a700	367666568	1	main_z	7	advance_on_keypress_ZEE	134	stimuli_target_circlediamonds.svg	stimuli_distractor_diamondtriangles.svg	6	yes	57	0	371
6.6.1	win	2022-12-14	20:03:38	20:11:33	473342	610f7244c65ae4e57858a700	367666568	1	main_z	7	main_z	135	stimuli_distractor_diamondtriangles.svg	stimuli_distractor_trianglediamonds.svg	38	no	0	1	2000
6.6.1	win	2022-12-14	20:03:38	20:11:33	473342	610f7244c65ae4e57858a700	367666568	1	main_z	7	advance_on_keypress_ZEE	136	stimuli_distractor_diamondtriangles.svg	stimuli_distractor_trianglediamonds.svg	38	no	57	0	260
6.6.1	win	2022-12-14	20:03:38	20:11:34	474549	610f7244c65ae4e57858a700	367666568	1	main_z	7	main_z	137	stimuli_target_squarediamonds.svg	stimuli_distractor_trianglediamonds.svg	4	yes	44	1	308
6.6.1	win	2022-12-14	20:03:38	20:11:34	474549	610f7244c65ae4e57858a700	367666568	1	main_z	7	advance_on_keypress_ZEE	138	stimuli_target_squarediamonds.svg	stimuli_distractor_trianglediamonds.svg	4	yes	57	0	358
6.6.1	win	2022-12-14	20:03:38	20:11:35	475851	610f7244c65ae4e57858a700	367666568	1	main_z	7	main_z	139	stimuli_target_diamondsquares.svg	stimuli_distractor_trianglediamonds.svg	20	yes	44	1	310
6.6.1	win	2022-12-14	20:03:38	20:11:35	475851	610f7244c65ae4e57858a700	367666568	1	main_z	7	advance_on_keypress_ZEE	140	stimuli_target_diamondsquares.svg	stimuli_distractor_trianglediamonds.svg	20	yes	57	0	453
6.6.1	win	2022-12-14	20:03:38	20:11:38	478941	610f7244c65ae4e57858a700	367666568	1	main_z	7	main_z	141	stimuli_distractor_diamondtriangles.svg	stimuli_distractor_trianglediamonds.svg	37	no	0	1	2000
6.6.1	win	2022-12-14	20:03:38	20:11:38	478941	610f7244c65ae4e57858a700	367666568	1	main_z	7	advance_on_keypress_ZEE	142	stimuli_distractor_diamondtriangles.svg	stimuli_distractor_trianglediamonds.svg	37	no	57	0	292
6.6.1	win	2022-12-14	20:03:38	20:11:39	480197	610f7244c65ae4e57858a700	367666568	1	main_z	7	main_z	143	stimuli_distractor_trianglediamonds.svg	stimuli_target_diamondsquares.svg	28	yes	44	1	323
6.6.1	win	2022-12-14	20:03:38	20:11:39	480197	610f7244c65ae4e57858a700	367666568	1	main_z	7	advance_on_keypress_ZEE	144	stimuli_distractor_trianglediamonds.svg	stimuli_target_diamondsquares.svg	28	yes	57	0	482
6.6.1	win	2022-12-14	20:03:38	20:11:41	481915	610f7244c65ae4e57858a700	367666568	1	main_z	7	main_z	145	stimuli_target_circletriangles.svg	stimuli_distractor_trianglediamonds.svg	1	yes	44	1	591
6.6.1	win	2022-12-14	20:03:38	20:11:41	481915	610f7244c65ae4e57858a700	367666568	1	main_z	7	advance_on_keypress_ZEE	146	stimuli_target_circletriangles.svg	stimuli_distractor_trianglediamonds.svg	1	yes	57	0	444
6.6.1	win	2022-12-14	20:03:38	20:11:44	484990	610f7244c65ae4e57858a700	367666568	1	main_z	7	main_z	147	stimuli_distractor_trianglediamonds.svg	stimuli_distractor_trianglediamonds.svg	33	no	0	1	2000
6.6.1	win	2022-12-14	20:03:38	20:11:44	484990	610f7244c65ae4e57858a700	367666568	1	main_z	7	advance_on_keypress_ZEE	148	stimuli_distractor_trianglediamonds.svg	stimuli_distractor_trianglediamonds.svg	33	no	57	0	294
6.6.1	win	2022-12-14	20:03:38	20:11:46	486371	610f7244c65ae4e57858a700	367666568	1	main_z	7	main_z	149	stimuli_distractor_trianglediamonds.svg	stimuli_target_squaretriangles.svg	11	yes	44	1	448
6.6.1	win	2022-12-14	20:03:38	20:11:46	486371	610f7244c65ae4e57858a700	367666568	1	main_z	7	advance_on_keypress_ZEE	150	stimuli_distractor_trianglediamonds.svg	stimuli_target_squaretriangles.svg	11	yes	57	0	403
6.6.1	win	2022-12-14	20:03:38	20:11:47	487891	610f7244c65ae4e57858a700	367666568	1	main_z	7	main_z	151	stimuli_target_squaretriangles.svg	stimuli_distractor_trianglediamonds.svg	3	yes	44	1	469
6.6.1	win	2022-12-14	20:03:38	20:11:47	487891	610f7244c65ae4e57858a700	367666568	1	main_z	7	advance_on_keypress_ZEE	152	stimuli_target_squaretriangles.svg	stimuli_distractor_trianglediamonds.svg	3	yes	57	0	369
6.6.1	win	2022-12-14	20:03:38	20:11:49	489432	610f7244c65ae4e57858a700	367666568	1	main_z	7	main_z	153	stimuli_distractor_diamondtriangles.svg	stimuli_target_diamondsquares.svg	32	yes	44	1	526
6.6.1	win	2022-12-14	20:03:38	20:11:49	489432	610f7244c65ae4e57858a700	367666568	1	main_z	7	advance_on_keypress_ZEE	154	stimuli_distractor_diamondtriangles.svg	stimuli_target_diamondsquares.svg	32	yes	57	0	674
6.6.1	win	2022-12-14	20:03:38	20:11:50	491131	610f7244c65ae4e57858a700	367666568	1	main_z	7	main_z	155	stimuli_target_diamondsquares.svg	stimuli_distractor_diamondtriangles.svg	24	yes	44	1	392
6.6.1	win	2022-12-14	20:03:38	20:11:50	491131	610f7244c65ae4e57858a700	367666568	1	main_z	7	advance_on_keypress_ZEE	156	stimuli_target_diamondsquares.svg	stimuli_distractor_diamondtriangles.svg	24	yes	57	0	372
6.6.1	win	2022-12-14	20:03:38	20:11:52	492369	610f7244c65ae4e57858a700	367666568	1	main_z	7	main_z	157	stimuli_distractor_trianglediamonds.svg	stimuli_target_circletriangles.svg	9	yes	44	1	230
6.6.1	win	2022-12-14	20:03:38	20:11:52	492369	610f7244c65ae4e57858a700	367666568	1	main_z	7	advance_on_keypress_ZEE	158	stimuli_distractor_trianglediamonds.svg	stimuli_target_circletriangles.svg	9	yes	57	0	477
6.6.1	win	2022-12-14	20:03:38	20:11:55	495506	610f7244c65ae4e57858a700	367666568	1	main_z	7	main_z	159	stimuli_distractor_trianglediamonds.svg	stimuli_distractor_diamondtriangles.svg	36	no	0	1	2000
6.6.1	win	2022-12-14	20:03:38	20:11:55	495506	610f7244c65ae4e57858a700	367666568	1	main_z	7	advance_on_keypress_ZEE	160	stimuli_distractor_trianglediamonds.svg	stimuli_distractor_diamondtriangles.svg	36	no	57	0	453
6.6.1	win	2022-12-14	20:03:38	20:16:02	742575	610f7244c65ae4e57858a700	367666568	1	practice_slash	9	practice_slash	1	stimuli_distractor_trianglediamonds.svg	stimuli_target_squarediamonds.svg	11	yes	53	1	1665
6.6.1	win	2022-12-14	20:03:38	20:16:02	742575	610f7244c65ae4e57858a700	367666568	1	practice_slash	9	advance_on_keypress_SLASH	2	stimuli_distractor_trianglediamonds.svg	stimuli_target_squarediamonds.svg	11	yes	57	0	646
6.6.1	win	2022-12-14	20:03:38	20:16:06	746357	610f7244c65ae4e57858a700	367666568	1	practice_slash	9	practice_slash	3	stimuli_target_circlediamonds.svg	stimuli_distractor_trianglediamonds.svg	4	yes	53	1	1480
6.6.1	win	2022-12-14	20:03:38	20:16:06	746357	610f7244c65ae4e57858a700	367666568	1	practice_slash	9	advance_on_keypress_SLASH	4	stimuli_target_circlediamonds.svg	stimuli_distractor_trianglediamonds.svg	4	yes	57	0	396
6.6.1	win	2022-12-14	20:03:38	20:16:08	749058	610f7244c65ae4e57858a700	367666568	1	practice_slash	9	practice_slash	5	stimuli_distractor_trianglediamonds.svg	stimuli_target_diamondcircles.svg	12	yes	53	1	649
6.6.1	win	2022-12-14	20:03:38	20:16:08	749058	610f7244c65ae4e57858a700	367666568	1	practice_slash	9	advance_on_keypress_SLASH	6	stimuli_distractor_trianglediamonds.svg	stimuli_target_diamondcircles.svg	12	yes	57	0	456
6.6.1	win	2022-12-14	20:03:38	20:16:12	753159	610f7244c65ae4e57858a700	367666568	1	practice_slash	9	practice_slash	7	stimuli_distractor_diamondtriangles.svg	stimuli_distractor_diamondtriangles.svg	13	no	0	1	2000
6.6.1	win	2022-12-14	20:03:38	20:16:12	753159	610f7244c65ae4e57858a700	367666568	1	practice_slash	9	advance_on_keypress_SLASH	8	stimuli_distractor_diamondtriangles.svg	stimuli_distractor_diamondtriangles.svg	13	no	57	0	794
6.6.1	win	2022-12-14	20:03:38	20:16:15	756009	610f7244c65ae4e57858a700	367666568	1	practice_slash	9	practice_slash	9	stimuli_distractor_diamondtriangles.svg	stimuli_target_trianglecircles.svg	9	yes	53	1	400
6.6.1	win	2022-12-14	20:03:38	20:16:15	756009	610f7244c65ae4e57858a700	367666568	1	practice_slash	9	advance_on_keypress_SLASH	10	stimuli_distractor_diamondtriangles.svg	stimuli_target_trianglecircles.svg	9	yes	57	0	347
6.6.1	win	2022-12-14	20:03:38	20:16:18	758899	610f7244c65ae4e57858a700	367666568	1	practice_slash	9	practice_slash	11	stimuli_target_squarediamonds.svg	stimuli_distractor_diamondtriangles.svg	2	yes	53	1	890
6.6.1	win	2022-12-14	20:03:38	20:16:18	758899	610f7244c65ae4e57858a700	367666568	1	practice_slash	9	advance_on_keypress_SLASH	12	stimuli_target_squarediamonds.svg	stimuli_distractor_diamondtriangles.svg	2	yes	57	0	577
6.6.1	win	2022-12-14	20:03:38	20:16:21	761470	610f7244c65ae4e57858a700	367666568	1	practice_slash	9	practice_slash	13	stimuli_distractor_trianglediamonds.svg	stimuli_target_circlediamonds.svg	10	yes	53	1	362
6.6.1	win	2022-12-14	20:03:38	20:16:21	761470	610f7244c65ae4e57858a700	367666568	1	practice_slash	9	advance_on_keypress_SLASH	14	stimuli_distractor_trianglediamonds.svg	stimuli_target_circlediamonds.svg	10	yes	57	0	246
6.6.1	win	2022-12-14	20:03:38	20:16:23	763799	610f7244c65ae4e57858a700	367666568	1	practice_slash	9	practice_slash	15	stimuli_target_diamondsquares.svg	stimuli_distractor_trianglediamonds.svg	6	yes	53	1	425
6.6.1	win	2022-12-14	20:03:38	20:16:23	763799	610f7244c65ae4e57858a700	367666568	1	practice_slash	9	advance_on_keypress_SLASH	16	stimuli_target_diamondsquares.svg	stimuli_distractor_trianglediamonds.svg	6	yes	57	0	267
6.6.1	win	2022-12-14	20:03:38	20:16:27	767724	610f7244c65ae4e57858a700	367666568	1	practice_slash	9	practice_slash	17	stimuli_distractor_trianglediamonds.svg	stimuli_distractor_trianglediamonds.svg	15	no	0	1	2000
6.6.1	win	2022-12-14	20:03:38	20:16:27	767724	610f7244c65ae4e57858a700	367666568	1	practice_slash	9	advance_on_keypress_SLASH	18	stimuli_distractor_trianglediamonds.svg	stimuli_distractor_trianglediamonds.svg	15	no	57	0	238
6.6.1	win	2022-12-14	20:03:38	20:16:29	770032	610f7244c65ae4e57858a700	367666568	1	practice_slash	9	practice_slash	19	stimuli_distractor_diamondtriangles.svg	stimuli_distractor_trianglediamonds.svg	14	no	53	0	426
6.6.1	win	2022-12-14	20:03:38	20:16:29	770032	610f7244c65ae4e57858a700	367666568	1	practice_slash	9	advance_on_keypress_SLASH	20	stimuli_distractor_diamondtriangles.svg	stimuli_distractor_trianglediamonds.svg	14	no	57	0	396
6.6.1	win	2022-12-14	20:03:38	20:16:33	774074	610f7244c65ae4e57858a700	367666568	1	practice_slash	9	practice_slash	21	stimuli_distractor_trianglediamonds.svg	stimuli_distractor_diamondtriangles.svg	16	no	0	1	2000
6.6.1	win	2022-12-14	20:03:38	20:16:33	774074	610f7244c65ae4e57858a700	367666568	1	practice_slash	9	advance_on_keypress_SLASH	22	stimuli_distractor_trianglediamonds.svg	stimuli_distractor_diamondtriangles.svg	16	no	57	0	362
6.6.1	win	2022-12-14	20:03:38	20:16:36	776619	610f7244c65ae4e57858a700	367666568	1	practice_slash	9	practice_slash	23	stimuli_distractor_diamondtriangles.svg	stimuli_target_circletriangles.svg	7	yes	53	1	529
6.6.1	win	2022-12-14	20:03:38	20:16:36	776619	610f7244c65ae4e57858a700	367666568	1	practice_slash	9	advance_on_keypress_SLASH	24	stimuli_distractor_diamondtriangles.svg	stimuli_target_circletriangles.svg	7	yes	57	0	347
6.6.1	win	2022-12-14	20:03:38	20:16:38	779084	610f7244c65ae4e57858a700	367666568	1	practice_slash	9	practice_slash	25	stimuli_target_squarediamonds.svg	stimuli_distractor_trianglediamonds.svg	5	yes	53	1	462
6.6.1	win	2022-12-14	20:03:38	20:16:38	779084	610f7244c65ae4e57858a700	367666568	1	practice_slash	9	advance_on_keypress_SLASH	26	stimuli_target_squarediamonds.svg	stimuli_distractor_trianglediamonds.svg	5	yes	57	0	418
6.6.1	win	2022-12-14	20:03:38	20:16:41	781569	610f7244c65ae4e57858a700	367666568	1	practice_slash	9	practice_slash	27	stimuli_target_circlediamonds.svg	stimuli_distractor_diamondtriangles.svg	1	yes	53	1	413
6.6.1	win	2022-12-14	20:03:38	20:16:41	781569	610f7244c65ae4e57858a700	367666568	1	practice_slash	9	advance_on_keypress_SLASH	28	stimuli_target_circlediamonds.svg	stimuli_distractor_diamondtriangles.svg	1	yes	57	0	459
6.6.1	win	2022-12-14	20:03:38	20:16:43	784066	610f7244c65ae4e57858a700	367666568	1	practice_slash	9	practice_slash	29	stimuli_distractor_diamondtriangles.svg	stimuli_target_diamondcircles.svg	8	yes	53	1	395
6.6.1	win	2022-12-14	20:03:38	20:16:43	784066	610f7244c65ae4e57858a700	367666568	1	practice_slash	9	advance_on_keypress_SLASH	30	stimuli_distractor_diamondtriangles.svg	stimuli_target_diamondcircles.svg	8	yes	57	0	366
6.6.1	win	2022-12-14	20:03:38	20:16:46	786665	610f7244c65ae4e57858a700	367666568	1	practice_slash	9	practice_slash	31	stimuli_target_diamondsquares.svg	stimuli_distractor_diamondtriangles.svg	3	yes	53	1	577
6.6.1	win	2022-12-14	20:03:38	20:16:46	786665	610f7244c65ae4e57858a700	367666568	1	practice_slash	9	advance_on_keypress_SLASH	32	stimuli_target_diamondsquares.svg	stimuli_distractor_diamondtriangles.svg	3	yes	57	0	390
6.6.1	win	2022-12-14	20:03:38	20:16:50	790874	610f7244c65ae4e57858a700	367666568	1	main_slash	11	main_slash	1	stimuli_target_squaretriangles.svg	stimuli_distractor_diamondtriangles.svg	7	yes	53	1	523
6.6.1	win	2022-12-14	20:03:38	20:16:50	790874	610f7244c65ae4e57858a700	367666568	1	main_slash	11	advance_on_keypress_SLASH	2	stimuli_target_squaretriangles.svg	stimuli_distractor_diamondtriangles.svg	7	yes	57	0	657
6.6.1	win	2022-12-14	20:03:38	20:16:52	792566	610f7244c65ae4e57858a700	367666568	1	main_slash	11	main_slash	3	stimuli_distractor_diamondtriangles.svg	stimuli_target_circlediamonds.svg	14	yes	53	1	398
6.6.1	win	2022-12-14	20:03:38	20:16:52	792566	610f7244c65ae4e57858a700	367666568	1	main_slash	11	advance_on_keypress_SLASH	4	stimuli_distractor_diamondtriangles.svg	stimuli_target_circlediamonds.svg	14	yes	57	0	597
6.6.1	win	2022-12-14	20:03:38	20:16:55	795818	610f7244c65ae4e57858a700	367666568	1	main_slash	11	main_slash	5	stimuli_distractor_trianglediamonds.svg	stimuli_distractor_trianglediamonds.svg	33	no	0	1	2000
6.6.1	win	2022-12-14	20:03:38	20:16:55	795818	610f7244c65ae4e57858a700	367666568	1	main_slash	11	advance_on_keypress_SLASH	6	stimuli_distractor_trianglediamonds.svg	stimuli_distractor_trianglediamonds.svg	33	no	57	0	262
6.6.1	win	2022-12-14	20:03:38	20:16:56	797061	610f7244c65ae4e57858a700	367666568	1	main_slash	11	main_slash	7	stimuli_distractor_trianglediamonds.svg	stimuli_target_diamondcircles.svg	27	yes	53	1	327
6.6.1	win	2022-12-14	20:03:38	20:16:56	797061	610f7244c65ae4e57858a700	367666568	1	main_slash	11	advance_on_keypress_SLASH	8	stimuli_distractor_trianglediamonds.svg	stimuli_target_diamondcircles.svg	27	yes	57	0	596
6.6.1	win	2022-12-14	20:03:38	20:16:58	798776	610f7244c65ae4e57858a700	367666568	1	main_slash	11	main_slash	9	stimuli_target_diamondsquares.svg	stimuli_distractor_diamondtriangles.svg	24	yes	53	1	476
6.6.1	win	2022-12-14	20:03:38	20:16:58	798776	610f7244c65ae4e57858a700	367666568	1	main_slash	11	advance_on_keypress_SLASH	10	stimuli_target_diamondsquares.svg	stimuli_distractor_diamondtriangles.svg	24	yes	57	0	615
6.6.1	win	2022-12-14	20:03:38	20:17:00	800444	610f7244c65ae4e57858a700	367666568	1	main_slash	11	main_slash	11	stimuli_distractor_diamondtriangles.svg	stimuli_target_diamondsquares.svg	32	yes	53	1	411
6.6.1	win	2022-12-14	20:03:38	20:17:00	800444	610f7244c65ae4e57858a700	367666568	1	main_slash	11	advance_on_keypress_SLASH	12	stimuli_distractor_diamondtriangles.svg	stimuli_target_diamondsquares.svg	32	yes	57	0	502
6.6.1	win	2022-12-14	20:03:38	20:17:01	801968	610f7244c65ae4e57858a700	367666568	1	main_slash	11	main_slash	13	stimuli_target_circletriangles.svg	stimuli_distractor_diamondtriangles.svg	5	yes	53	1	386
6.6.1	win	2022-12-14	20:03:38	20:17:01	801968	610f7244c65ae4e57858a700	367666568	1	main_slash	11	advance_on_keypress_SLASH	14	stimuli_target_circletriangles.svg	stimuli_distractor_diamondtriangles.svg	5	yes	57	0	461
6.6.1	win	2022-12-14	20:03:38	20:17:03	803909	610f7244c65ae4e57858a700	367666568	1	main_slash	11	main_slash	15	stimuli_distractor_diamondtriangles.svg	stimuli_target_squarediamonds.svg	16	yes	53	1	843
6.6.1	win	2022-12-14	20:03:38	20:17:03	803909	610f7244c65ae4e57858a700	367666568	1	main_slash	11	advance_on_keypress_SLASH	16	stimuli_distractor_diamondtriangles.svg	stimuli_target_squarediamonds.svg	16	yes	57	0	663
6.6.1	win	2022-12-14	20:03:38	20:17:05	805624	610f7244c65ae4e57858a700	367666568	1	main_slash	11	main_slash	17	stimuli_distractor_trianglediamonds.svg	stimuli_target_trianglecircles.svg	25	yes	53	1	408
6.6.1	win	2022-12-14	20:03:38	20:17:05	805624	610f7244c65ae4e57858a700	367666568	1	main_slash	11	advance_on_keypress_SLASH	18	stimuli_distractor_trianglediamonds.svg	stimuli_target_trianglecircles.svg	25	yes	57	0	429
6.6.1	win	2022-12-14	20:03:38	20:17:06	807264	610f7244c65ae4e57858a700	367666568	1	main_slash	11	main_slash	19	stimuli_distractor_diamondtriangles.svg	stimuli_target_squaretriangles.svg	15	yes	53	1	565
6.6.1	win	2022-12-14	20:03:38	20:17:06	807264	610f7244c65ae4e57858a700	367666568	1	main_slash	11	advance_on_keypress_SLASH	20	stimuli_distractor_diamondtriangles.svg	stimuli_target_squaretriangles.svg	15	yes	57	0	366
6.6.1	win	2022-12-14	20:03:38	20:17:10	810283	610f7244c65ae4e57858a700	367666568	1	main_slash	11	main_slash	21	stimuli_distractor_diamondtriangles.svg	stimuli_distractor_diamondtriangles.svg	40	no	0	1	2000
6.6.1	win	2022-12-14	20:03:38	20:17:10	810283	610f7244c65ae4e57858a700	367666568	1	main_slash	11	advance_on_keypress_SLASH	22	stimuli_distractor_diamondtriangles.svg	stimuli_distractor_diamondtriangles.svg	40	no	57	0	327
6.6.1	win	2022-12-14	20:03:38	20:17:11	811580	610f7244c65ae4e57858a700	367666568	1	main_slash	11	main_slash	23	stimuli_target_circlediamonds.svg	stimuli_distractor_diamondtriangles.svg	6	yes	53	1	331
6.6.1	win	2022-12-14	20:03:38	20:17:11	811580	610f7244c65ae4e57858a700	367666568	1	main_slash	11	advance_on_keypress_SLASH	24	stimuli_target_circlediamonds.svg	stimuli_distractor_diamondtriangles.svg	6	yes	57	0	403
6.6.1	win	2022-12-14	20:03:38	20:17:12	813145	610f7244c65ae4e57858a700	367666568	1	main_slash	11	main_slash	25	stimuli_target_trianglesquares.svg	stimuli_distractor_trianglediamonds.svg	18	yes	53	1	504
6.6.1	win	2022-12-14	20:03:38	20:17:12	813145	610f7244c65ae4e57858a700	367666568	1	main_slash	11	advance_on_keypress_SLASH	26	stimuli_target_trianglesquares.svg	stimuli_distractor_trianglediamonds.svg	18	yes	57	0	570
6.6.1	win	2022-12-14	20:03:38	20:17:14	814695	610f7244c65ae4e57858a700	367666568	1	main_slash	11	main_slash	27	stimuli_target_diamondsquares.svg	stimuli_distractor_trianglediamonds.svg	20	yes	53	1	330
6.6.1	win	2022-12-14	20:03:38	20:17:14	814695	610f7244c65ae4e57858a700	367666568	1	main_slash	11	advance_on_keypress_SLASH	28	stimuli_target_diamondsquares.svg	stimuli_distractor_trianglediamonds.svg	20	yes	57	0	432
6.6.1	win	2022-12-14	20:03:38	20:17:16	816273	610f7244c65ae4e57858a700	367666568	1	main_slash	11	main_slash	29	stimuli_distractor_diamondtriangles.svg	stimuli_target_trianglesquares.svg	30	yes	53	1	491
6.6.1	win	2022-12-14	20:03:38	20:17:16	816273	610f7244c65ae4e57858a700	367666568	1	main_slash	11	advance_on_keypress_SLASH	30	stimuli_distractor_diamondtriangles.svg	stimuli_target_trianglesquares.svg	30	yes	57	0	424
6.6.1	win	2022-12-14	20:03:38	20:17:19	819331	610f7244c65ae4e57858a700	367666568	1	main_slash	11	main_slash	31	stimuli_distractor_trianglediamonds.svg	stimuli_distractor_diamondtriangles.svg	35	no	0	1	2000
6.6.1	win	2022-12-14	20:03:38	20:17:19	819331	610f7244c65ae4e57858a700	367666568	1	main_slash	11	advance_on_keypress_SLASH	32	stimuli_distractor_trianglediamonds.svg	stimuli_distractor_diamondtriangles.svg	35	no	57	0	298
6.6.1	win	2022-12-14	20:03:38	20:17:20	820677	610f7244c65ae4e57858a700	367666568	1	main_slash	11	main_slash	33	stimuli_distractor_diamondtriangles.svg	stimuli_target_diamondcircles.svg	31	yes	53	1	396
6.6.1	win	2022-12-14	20:03:38	20:17:20	820677	610f7244c65ae4e57858a700	367666568	1	main_slash	11	advance_on_keypress_SLASH	34	stimuli_distractor_diamondtriangles.svg	stimuli_target_diamondcircles.svg	31	yes	57	0	386
6.6.1	win	2022-12-14	20:03:38	20:17:22	822400	610f7244c65ae4e57858a700	367666568	1	main_slash	11	main_slash	35	stimuli_distractor_trianglediamonds.svg	stimuli_target_diamondsquares.svg	28	yes	53	1	686
6.6.1	win	2022-12-14	20:03:38	20:17:22	822400	610f7244c65ae4e57858a700	367666568	1	main_slash	11	advance_on_keypress_SLASH	36	stimuli_distractor_trianglediamonds.svg	stimuli_target_diamondsquares.svg	28	yes	57	0	352
6.6.1	win	2022-12-14	20:03:38	20:17:23	823942	610f7244c65ae4e57858a700	367666568	1	main_slash	11	main_slash	37	stimuli_distractor_trianglediamonds.svg	stimuli_target_squarediamonds.svg	12	yes	53	1	545
6.6.1	win	2022-12-14	20:03:38	20:17:23	823942	610f7244c65ae4e57858a700	367666568	1	main_slash	11	advance_on_keypress_SLASH	38	stimuli_distractor_trianglediamonds.svg	stimuli_target_squarediamonds.svg	12	yes	57	0	369
6.6.1	win	2022-12-14	20:03:38	20:17:26	826964	610f7244c65ae4e57858a700	367666568	1	main_slash	11	main_slash	39	stimuli_distractor_diamondtriangles.svg	stimuli_distractor_diamondtriangles.svg	39	no	0	1	2000
6.6.1	win	2022-12-14	20:03:38	20:17:26	826964	610f7244c65ae4e57858a700	367666568	1	main_slash	11	advance_on_keypress_SLASH	40	stimuli_distractor_diamondtriangles.svg	stimuli_distractor_diamondtriangles.svg	39	no	57	0	347
6.6.1	win	2022-12-14	20:03:38	20:17:28	828344	610f7244c65ae4e57858a700	367666568	1	main_slash	11	main_slash	41	stimuli_target_squarediamonds.svg	stimuli_distractor_trianglediamonds.svg	4	yes	53	1	371
6.6.1	win	2022-12-14	20:03:38	20:17:28	828344	610f7244c65ae4e57858a700	367666568	1	main_slash	11	advance_on_keypress_SLASH	42	stimuli_target_squarediamonds.svg	stimuli_distractor_trianglediamonds.svg	4	yes	57	0	369
6.6.1	win	2022-12-14	20:03:38	20:17:31	831363	610f7244c65ae4e57858a700	367666568	1	main_slash	11	main_slash	43	stimuli_distractor_trianglediamonds.svg	stimuli_distractor_diamondtriangles.svg	36	no	0	1	2000
6.6.1	win	2022-12-14	20:03:38	20:17:31	831363	610f7244c65ae4e57858a700	367666568	1	main_slash	11	advance_on_keypress_SLASH	44	stimuli_distractor_trianglediamonds.svg	stimuli_distractor_diamondtriangles.svg	36	no	57	0	275
6.6.1	win	2022-12-14	20:03:38	20:17:32	832707	610f7244c65ae4e57858a700	367666568	1	main_slash	11	main_slash	45	stimuli_target_trianglecircles.svg	stimuli_distractor_trianglediamonds.svg	17	yes	53	1	428
6.6.1	win	2022-12-14	20:03:38	20:17:32	832707	610f7244c65ae4e57858a700	367666568	1	main_slash	11	advance_on_keypress_SLASH	46	stimuli_target_trianglecircles.svg	stimuli_distractor_trianglediamonds.svg	17	yes	57	0	415
6.6.1	win	2022-12-14	20:03:38	20:17:33	834230	610f7244c65ae4e57858a700	367666568	1	main_slash	11	main_slash	47	stimuli_distractor_diamondtriangles.svg	stimuli_target_trianglecircles.svg	29	yes	53	1	468
6.6.1	win	2022-12-14	20:03:38	20:17:33	834230	610f7244c65ae4e57858a700	367666568	1	main_slash	11	advance_on_keypress_SLASH	48	stimuli_distractor_diamondtriangles.svg	stimuli_target_trianglecircles.svg	29	yes	57	0	433
6.6.1	win	2022-12-14	20:03:38	20:17:35	835705	610f7244c65ae4e57858a700	367666568	1	main_slash	11	main_slash	49	stimuli_target_trianglesquares.svg	stimuli_distractor_diamondtriangles.svg	22	yes	53	1	393
6.6.1	win	2022-12-14	20:03:38	20:17:35	835705	610f7244c65ae4e57858a700	367666568	1	main_slash	11	advance_on_keypress_SLASH	50	stimuli_target_trianglesquares.svg	stimuli_distractor_diamondtriangles.svg	22	yes	57	0	377
6.6.1	win	2022-12-14	20:03:38	20:17:36	837118	610f7244c65ae4e57858a700	367666568	1	main_slash	11	main_slash	51	stimuli_distractor_trianglediamonds.svg	stimuli_target_circlediamonds.svg	10	yes	53	1	406
6.6.1	win	2022-12-14	20:03:38	20:17:36	837118	610f7244c65ae4e57858a700	367666568	1	main_slash	11	advance_on_keypress_SLASH	52	stimuli_distractor_trianglediamonds.svg	stimuli_target_circlediamonds.svg	10	yes	57	0	379
6.6.1	win	2022-12-14	20:03:38	20:17:39	840145	610f7244c65ae4e57858a700	367666568	1	main_slash	11	main_slash	53	stimuli_distractor_trianglediamonds.svg	stimuli_distractor_trianglediamonds.svg	34	no	0	1	2000
6.6.1	win	2022-12-14	20:03:38	20:17:39	840145	610f7244c65ae4e57858a700	367666568	1	main_slash	11	advance_on_keypress_SLASH	54	stimuli_distractor_trianglediamonds.svg	stimuli_distractor_trianglediamonds.svg	34	no	57	0	318
6.6.1	win	2022-12-14	20:03:38	20:17:41	841468	610f7244c65ae4e57858a700	367666568	1	main_slash	11	main_slash	55	stimuli_distractor_trianglediamonds.svg	stimuli_target_squaretriangles.svg	11	yes	53	1	358
6.6.1	win	2022-12-14	20:03:38	20:17:41	841468	610f7244c65ae4e57858a700	367666568	1	main_slash	11	advance_on_keypress_SLASH	56	stimuli_distractor_trianglediamonds.svg	stimuli_target_squaretriangles.svg	11	yes	57	0	449
6.6.1	win	2022-12-14	20:03:38	20:17:42	842893	610f7244c65ae4e57858a700	367666568	1	main_slash	11	main_slash	57	stimuli_target_squarediamonds.svg	stimuli_distractor_diamondtriangles.svg	8	yes	53	1	332
6.6.1	win	2022-12-14	20:03:38	20:17:42	842893	610f7244c65ae4e57858a700	367666568	1	main_slash	11	advance_on_keypress_SLASH	58	stimuli_target_squarediamonds.svg	stimuli_distractor_diamondtriangles.svg	8	yes	57	0	375
6.6.1	win	2022-12-14	20:03:38	20:17:45	845911	610f7244c65ae4e57858a700	367666568	1	main_slash	11	main_slash	59	stimuli_distractor_diamondtriangles.svg	stimuli_distractor_trianglediamonds.svg	37	no	0	1	2000
6.6.1	win	2022-12-14	20:03:38	20:17:45	845911	610f7244c65ae4e57858a700	367666568	1	main_slash	11	advance_on_keypress_SLASH	60	stimuli_distractor_diamondtriangles.svg	stimuli_distractor_trianglediamonds.svg	37	no	57	0	334
6.6.1	win	2022-12-14	20:03:38	20:17:47	847310	610f7244c65ae4e57858a700	367666568	1	main_slash	11	main_slash	61	stimuli_distractor_diamondtriangles.svg	stimuli_target_circletriangles.svg	13	yes	53	1	415
6.6.1	win	2022-12-14	20:03:38	20:17:47	847310	610f7244c65ae4e57858a700	367666568	1	main_slash	11	advance_on_keypress_SLASH	62	stimuli_distractor_diamondtriangles.svg	stimuli_target_circletriangles.svg	13	yes	57	0	389
6.6.1	win	2022-12-14	20:03:38	20:17:48	848725	610f7244c65ae4e57858a700	367666568	1	main_slash	11	main_slash	63	stimuli_target_circletriangles.svg	stimuli_distractor_trianglediamonds.svg	1	yes	53	1	375
6.6.1	win	2022-12-14	20:03:38	20:17:48	848725	610f7244c65ae4e57858a700	367666568	1	main_slash	11	advance_on_keypress_SLASH	64	stimuli_target_circletriangles.svg	stimuli_distractor_trianglediamonds.svg	1	yes	57	0	385
6.6.1	win	2022-12-14	20:03:38	20:17:51	851760	610f7244c65ae4e57858a700	367666568	1	main_slash	11	main_slash	65	stimuli_distractor_diamondtriangles.svg	stimuli_distractor_trianglediamonds.svg	38	no	0	1	2000
6.6.1	win	2022-12-14	20:03:38	20:17:51	851760	610f7244c65ae4e57858a700	367666568	1	main_slash	11	advance_on_keypress_SLASH	66	stimuli_distractor_diamondtriangles.svg	stimuli_distractor_trianglediamonds.svg	38	no	57	0	322
6.6.1	win	2022-12-14	20:03:38	20:17:52	853006	610f7244c65ae4e57858a700	367666568	1	main_slash	11	main_slash	67	stimuli_target_circlediamonds.svg	stimuli_distractor_trianglediamonds.svg	2	yes	53	1	279
6.6.1	win	2022-12-14	20:03:38	20:17:52	853006	610f7244c65ae4e57858a700	367666568	1	main_slash	11	advance_on_keypress_SLASH	68	stimuli_target_circlediamonds.svg	stimuli_distractor_trianglediamonds.svg	2	yes	57	0	372
6.6.1	win	2022-12-14	20:03:38	20:17:54	854408	610f7244c65ae4e57858a700	367666568	1	main_slash	11	main_slash	69	stimuli_distractor_trianglediamonds.svg	stimuli_target_circletriangles.svg	9	yes	53	1	382
6.6.1	win	2022-12-14	20:03:38	20:17:54	854408	610f7244c65ae4e57858a700	367666568	1	main_slash	11	advance_on_keypress_SLASH	70	stimuli_distractor_trianglediamonds.svg	stimuli_target_circletriangles.svg	9	yes	57	0	338
6.6.1	win	2022-12-14	20:03:38	20:17:55	855749	610f7244c65ae4e57858a700	367666568	1	main_slash	11	main_slash	71	stimuli_target_trianglecircles.svg	stimuli_distractor_diamondtriangles.svg	21	yes	53	1	356
6.6.1	win	2022-12-14	20:03:38	20:17:55	855749	610f7244c65ae4e57858a700	367666568	1	main_slash	11	advance_on_keypress_SLASH	72	stimuli_target_trianglecircles.svg	stimuli_distractor_diamondtriangles.svg	21	yes	57	0	366
6.6.1	win	2022-12-14	20:03:38	20:17:56	857079	610f7244c65ae4e57858a700	367666568	1	main_slash	11	main_slash	73	stimuli_distractor_trianglediamonds.svg	stimuli_target_trianglesquares.svg	26	yes	53	1	320
6.6.1	win	2022-12-14	20:03:38	20:17:56	857079	610f7244c65ae4e57858a700	367666568	1	main_slash	11	advance_on_keypress_SLASH	74	stimuli_distractor_trianglediamonds.svg	stimuli_target_trianglesquares.svg	26	yes	57	0	334
6.6.1	win	2022-12-14	20:03:38	20:17:58	858347	610f7244c65ae4e57858a700	367666568	1	main_slash	11	main_slash	75	stimuli_target_diamondcircles.svg	stimuli_distractor_diamondtriangles.svg	23	yes	53	1	288
6.6.1	win	2022-12-14	20:03:38	20:17:58	858347	610f7244c65ae4e57858a700	367666568	1	main_slash	11	advance_on_keypress_SLASH	76	stimuli_target_diamondcircles.svg	stimuli_distractor_diamondtriangles.svg	23	yes	57	0	335
6.6.1	win	2022-12-14	20:03:38	20:17:59	859638	610f7244c65ae4e57858a700	367666568	1	main_slash	11	main_slash	77	stimuli_target_diamondcircles.svg	stimuli_distractor_trianglediamonds.svg	19	yes	53	1	312
6.6.1	win	2022-12-14	20:03:38	20:17:59	859638	610f7244c65ae4e57858a700	367666568	1	main_slash	11	advance_on_keypress_SLASH	78	stimuli_target_diamondcircles.svg	stimuli_distractor_trianglediamonds.svg	19	yes	57	0	252
6.6.1	win	2022-12-14	20:03:38	20:18:00	860923	610f7244c65ae4e57858a700	367666568	1	main_slash	11	main_slash	79	stimuli_target_squaretriangles.svg	stimuli_distractor_trianglediamonds.svg	3	yes	53	1	371
6.6.1	win	2022-12-14	20:03:38	20:18:00	860923	610f7244c65ae4e57858a700	367666568	1	main_slash	11	advance_on_keypress_SLASH	80	stimuli_target_squaretriangles.svg	stimuli_distractor_trianglediamonds.svg	3	yes	57	0	311
6.6.1	win	2022-12-14	20:03:38	20:18:01	862171	610f7244c65ae4e57858a700	367666568	1	main_slash	11	main_slash	81	stimuli_distractor_diamondtriangles.svg	stimuli_target_trianglecircles.svg	29	yes	53	1	279
6.6.1	win	2022-12-14	20:03:38	20:18:01	862171	610f7244c65ae4e57858a700	367666568	1	main_slash	11	advance_on_keypress_SLASH	82	stimuli_distractor_diamondtriangles.svg	stimuli_target_trianglecircles.svg	29	yes	57	0	490
6.6.1	win	2022-12-14	20:03:38	20:18:03	863587	610f7244c65ae4e57858a700	367666568	1	main_slash	11	main_slash	83	stimuli_distractor_diamondtriangles.svg	stimuli_target_squarediamonds.svg	16	yes	53	1	278
6.6.1	win	2022-12-14	20:03:38	20:18:03	863587	610f7244c65ae4e57858a700	367666568	1	main_slash	11	advance_on_keypress_SLASH	84	stimuli_distractor_diamondtriangles.svg	stimuli_target_squarediamonds.svg	16	yes	57	0	507
6.6.1	win	2022-12-14	20:03:38	20:18:04	865023	610f7244c65ae4e57858a700	367666568	1	main_slash	11	main_slash	85	stimuli_distractor_diamondtriangles.svg	stimuli_target_circlediamonds.svg	14	yes	53	1	298
6.6.1	win	2022-12-14	20:03:38	20:18:04	865023	610f7244c65ae4e57858a700	367666568	1	main_slash	11	advance_on_keypress_SLASH	86	stimuli_distractor_diamondtriangles.svg	stimuli_target_circlediamonds.svg	14	yes	57	0	305
6.6.1	win	2022-12-14	20:03:38	20:18:06	866365	610f7244c65ae4e57858a700	367666568	1	main_slash	11	main_slash	87	stimuli_target_trianglesquares.svg	stimuli_distractor_diamondtriangles.svg	22	yes	53	1	390
6.6.1	win	2022-12-14	20:03:38	20:18:06	866365	610f7244c65ae4e57858a700	367666568	1	main_slash	11	advance_on_keypress_SLASH	88	stimuli_target_trianglesquares.svg	stimuli_distractor_diamondtriangles.svg	22	yes	57	0	313
6.6.1	win	2022-12-14	20:03:38	20:18:07	867615	610f7244c65ae4e57858a700	367666568	1	main_slash	11	main_slash	89	stimuli_target_diamondcircles.svg	stimuli_distractor_diamondtriangles.svg	23	yes	53	1	290
6.6.1	win	2022-12-14	20:03:38	20:18:07	867615	610f7244c65ae4e57858a700	367666568	1	main_slash	11	advance_on_keypress_SLASH	90	stimuli_target_diamondcircles.svg	stimuli_distractor_diamondtriangles.svg	23	yes	57	0	317
6.6.1	win	2022-12-14	20:03:38	20:18:10	870575	610f7244c65ae4e57858a700	367666568	1	main_slash	11	main_slash	91	stimuli_distractor_diamondtriangles.svg	stimuli_distractor_diamondtriangles.svg	39	no	0	1	2000
6.6.1	win	2022-12-14	20:03:38	20:18:10	870575	610f7244c65ae4e57858a700	367666568	1	main_slash	11	advance_on_keypress_SLASH	92	stimuli_distractor_diamondtriangles.svg	stimuli_distractor_diamondtriangles.svg	39	no	57	0	403
6.6.1	win	2022-12-14	20:03:38	20:18:11	871888	610f7244c65ae4e57858a700	367666568	1	main_slash	11	main_slash	93	stimuli_target_circletriangles.svg	stimuli_distractor_diamondtriangles.svg	5	yes	53	1	264
6.6.1	win	2022-12-14	20:03:38	20:18:11	871888	610f7244c65ae4e57858a700	367666568	1	main_slash	11	advance_on_keypress_SLASH	94	stimuli_target_circletriangles.svg	stimuli_distractor_diamondtriangles.svg	5	yes	57	0	313
6.6.1	win	2022-12-14	20:03:38	20:18:12	873173	610f7244c65ae4e57858a700	367666568	1	main_slash	11	main_slash	95	stimuli_target_circlediamonds.svg	stimuli_distractor_diamondtriangles.svg	6	yes	53	1	315
6.6.1	win	2022-12-14	20:03:38	20:18:12	873173	610f7244c65ae4e57858a700	367666568	1	main_slash	11	advance_on_keypress_SLASH	96	stimuli_target_circlediamonds.svg	stimuli_distractor_diamondtriangles.svg	6	yes	57	0	599
6.6.1	win	2022-12-14	20:03:38	20:18:14	874712	610f7244c65ae4e57858a700	367666568	1	main_slash	11	main_slash	97	stimuli_distractor_trianglediamonds.svg	stimuli_target_circlediamonds.svg	10	yes	53	1	288
6.6.1	win	2022-12-14	20:03:38	20:18:14	874712	610f7244c65ae4e57858a700	367666568	1	main_slash	11	advance_on_keypress_SLASH	98	stimuli_distractor_trianglediamonds.svg	stimuli_target_circlediamonds.svg	10	yes	57	0	302
6.6.1	win	2022-12-14	20:03:38	20:18:15	875944	610f7244c65ae4e57858a700	367666568	1	main_slash	11	main_slash	99	stimuli_distractor_trianglediamonds.svg	stimuli_target_diamondcircles.svg	27	yes	53	1	287
6.6.1	win	2022-12-14	20:03:38	20:18:15	875944	610f7244c65ae4e57858a700	367666568	1	main_slash	11	advance_on_keypress_SLASH	100	stimuli_distractor_trianglediamonds.svg	stimuli_target_diamondcircles.svg	27	yes	57	0	385
6.6.1	win	2022-12-14	20:03:38	20:18:16	877235	610f7244c65ae4e57858a700	367666568	1	main_slash	11	main_slash	101	stimuli_target_squaretriangles.svg	stimuli_distractor_diamondtriangles.svg	7	yes	53	1	261
6.6.1	win	2022-12-14	20:03:38	20:18:16	877235	610f7244c65ae4e57858a700	367666568	1	main_slash	11	advance_on_keypress_SLASH	102	stimuli_target_squaretriangles.svg	stimuli_distractor_diamondtriangles.svg	7	yes	57	0	304
6.6.1	win	2022-12-14	20:03:38	20:18:18	878444	610f7244c65ae4e57858a700	367666568	1	main_slash	11	main_slash	103	stimuli_distractor_diamondtriangles.svg	stimuli_target_diamondsquares.svg	32	yes	53	1	271
6.6.1	win	2022-12-14	20:03:38	20:18:18	878444	610f7244c65ae4e57858a700	367666568	1	main_slash	11	advance_on_keypress_SLASH	104	stimuli_distractor_diamondtriangles.svg	stimuli_target_diamondsquares.svg	32	yes	57	0	281
6.6.1	win	2022-12-14	20:03:38	20:18:19	879638	610f7244c65ae4e57858a700	367666568	1	main_slash	11	main_slash	105	stimuli_distractor_trianglediamonds.svg	stimuli_target_squaretriangles.svg	11	yes	53	1	265
6.6.1	win	2022-12-14	20:03:38	20:18:19	879638	610f7244c65ae4e57858a700	367666568	1	main_slash	11	advance_on_keypress_SLASH	106	stimuli_distractor_trianglediamonds.svg	stimuli_target_squaretriangles.svg	11	yes	57	0	401
6.6.1	win	2022-12-14	20:03:38	20:18:20	880991	610f7244c65ae4e57858a700	367666568	1	main_slash	11	main_slash	107	stimuli_target_diamondsquares.svg	stimuli_distractor_diamondtriangles.svg	24	yes	53	1	300
6.6.1	win	2022-12-14	20:03:38	20:18:20	880991	610f7244c65ae4e57858a700	367666568	1	main_slash	11	advance_on_keypress_SLASH	108	stimuli_target_diamondsquares.svg	stimuli_distractor_diamondtriangles.svg	24	yes	57	0	249
6.6.1	win	2022-12-14	20:03:38	20:18:21	882236	610f7244c65ae4e57858a700	367666568	1	main_slash	11	main_slash	109	stimuli_distractor_diamondtriangles.svg	stimuli_target_trianglesquares.svg	30	yes	53	1	346
6.6.1	win	2022-12-14	20:03:38	20:18:21	882236	610f7244c65ae4e57858a700	367666568	1	main_slash	11	advance_on_keypress_SLASH	110	stimuli_distractor_diamondtriangles.svg	stimuli_target_trianglesquares.svg	30	yes	57	0	376
6.6.1	win	2022-12-14	20:03:38	20:18:23	883479	610f7244c65ae4e57858a700	367666568	1	main_slash	11	main_slash	111	stimuli_distractor_diamondtriangles.svg	stimuli_target_diamondcircles.svg	31	yes	53	1	223
6.6.1	win	2022-12-14	20:03:38	20:18:23	883479	610f7244c65ae4e57858a700	367666568	1	main_slash	11	advance_on_keypress_SLASH	112	stimuli_distractor_diamondtriangles.svg	stimuli_target_diamondcircles.svg	31	yes	57	0	437
6.6.1	win	2022-12-14	20:03:38	20:18:24	884772	610f7244c65ae4e57858a700	367666568	1	main_slash	11	main_slash	113	stimuli_target_squarediamonds.svg	stimuli_distractor_diamondtriangles.svg	8	yes	53	1	216
6.6.1	win	2022-12-14	20:03:38	20:18:24	884772	610f7244c65ae4e57858a700	367666568	1	main_slash	11	advance_on_keypress_SLASH	114	stimuli_target_squarediamonds.svg	stimuli_distractor_diamondtriangles.svg	8	yes	57	0	358
6.6.1	win	2022-12-14	20:03:38	20:18:25	886082	610f7244c65ae4e57858a700	367666568	1	main_slash	11	main_slash	115	stimuli_distractor_trianglediamonds.svg	stimuli_distractor_diamondtriangles.svg	35	no	53	0	310
6.6.1	win	2022-12-14	20:03:38	20:18:25	886082	610f7244c65ae4e57858a700	367666568	1	main_slash	11	advance_on_keypress_SLASH	116	stimuli_distractor_trianglediamonds.svg	stimuli_distractor_diamondtriangles.svg	35	no	57	0	1745
6.6.1	win	2022-12-14	20:03:38	20:18:29	889422	610f7244c65ae4e57858a700	367666568	1	main_slash	11	main_slash	117	stimuli_target_trianglecircles.svg	stimuli_distractor_trianglediamonds.svg	17	yes	53	1	966
6.6.1	win	2022-12-14	20:03:38	20:18:29	889422	610f7244c65ae4e57858a700	367666568	1	main_slash	11	advance_on_keypress_SLASH	118	stimuli_target_trianglecircles.svg	stimuli_distractor_trianglediamonds.svg	17	yes	57	0	555
6.6.1	win	2022-12-14	20:03:38	20:18:30	890980	610f7244c65ae4e57858a700	367666568	1	main_slash	11	main_slash	119	stimuli_target_squaretriangles.svg	stimuli_distractor_trianglediamonds.svg	3	yes	53	1	359
6.6.1	win	2022-12-14	20:03:38	20:18:30	890980	610f7244c65ae4e57858a700	367666568	1	main_slash	11	advance_on_keypress_SLASH	120	stimuli_target_squaretriangles.svg	stimuli_distractor_trianglediamonds.svg	3	yes	57	0	469
6.6.1	win	2022-12-14	20:03:38	20:18:33	894089	610f7244c65ae4e57858a700	367666568	1	main_slash	11	main_slash	121	stimuli_distractor_diamondtriangles.svg	stimuli_distractor_diamondtriangles.svg	40	no	0	1	2000
6.6.1	win	2022-12-14	20:03:38	20:18:33	894089	610f7244c65ae4e57858a700	367666568	1	main_slash	11	advance_on_keypress_SLASH	122	stimuli_distractor_diamondtriangles.svg	stimuli_distractor_diamondtriangles.svg	40	no	57	0	422
6.6.1	win	2022-12-14	20:03:38	20:18:36	897155	610f7244c65ae4e57858a700	367666568	1	main_slash	11	main_slash	123	stimuli_distractor_trianglediamonds.svg	stimuli_distractor_diamondtriangles.svg	36	no	0	1	2000
6.6.1	win	2022-12-14	20:03:38	20:18:36	897155	610f7244c65ae4e57858a700	367666568	1	main_slash	11	advance_on_keypress_SLASH	124	stimuli_distractor_trianglediamonds.svg	stimuli_distractor_diamondtriangles.svg	36	no	57	0	287
6.6.1	win	2022-12-14	20:03:38	20:18:38	898448	610f7244c65ae4e57858a700	367666568	1	main_slash	11	main_slash	125	stimuli_distractor_trianglediamonds.svg	stimuli_target_squarediamonds.svg	12	yes	53	1	360
6.6.1	win	2022-12-14	20:03:38	20:18:38	898448	610f7244c65ae4e57858a700	367666568	1	main_slash	11	advance_on_keypress_SLASH	126	stimuli_distractor_trianglediamonds.svg	stimuli_target_squarediamonds.svg	12	yes	57	0	417
6.6.1	win	2022-12-14	20:03:38	20:18:39	899898	610f7244c65ae4e57858a700	367666568	1	main_slash	11	main_slash	127	stimuli_target_diamondcircles.svg	stimuli_distractor_trianglediamonds.svg	19	yes	53	1	394
6.6.1	win	2022-12-14	20:03:38	20:18:39	899898	610f7244c65ae4e57858a700	367666568	1	main_slash	11	advance_on_keypress_SLASH	128	stimuli_target_diamondcircles.svg	stimuli_distractor_trianglediamonds.svg	19	yes	57	0	382
6.6.1	win	2022-12-14	20:03:38	20:18:41	901288	610f7244c65ae4e57858a700	367666568	1	main_slash	11	main_slash	129	stimuli_target_circlediamonds.svg	stimuli_distractor_trianglediamonds.svg	2	yes	53	1	351
6.6.1	win	2022-12-14	20:03:38	20:18:41	901288	610f7244c65ae4e57858a700	367666568	1	main_slash	11	advance_on_keypress_SLASH	130	stimuli_target_circlediamonds.svg	stimuli_distractor_trianglediamonds.svg	2	yes	57	0	337
6.6.1	win	2022-12-14	20:03:38	20:18:42	902619	610f7244c65ae4e57858a700	367666568	1	main_slash	11	main_slash	131	stimuli_distractor_trianglediamonds.svg	stimuli_target_circletriangles.svg	9	yes	53	1	349
6.6.1	win	2022-12-14	20:03:38	20:18:42	902619	610f7244c65ae4e57858a700	367666568	1	main_slash	11	advance_on_keypress_SLASH	132	stimuli_distractor_trianglediamonds.svg	stimuli_target_circletriangles.svg	9	yes	57	0	292
6.6.1	win	2022-12-14	20:03:38	20:18:43	903902	610f7244c65ae4e57858a700	367666568	1	main_slash	11	main_slash	133	stimuli_distractor_diamondtriangles.svg	stimuli_target_squaretriangles.svg	15	yes	53	1	348
6.6.1	win	2022-12-14	20:03:38	20:18:43	903902	610f7244c65ae4e57858a700	367666568	1	main_slash	11	advance_on_keypress_SLASH	134	stimuli_distractor_diamondtriangles.svg	stimuli_target_squaretriangles.svg	15	yes	57	0	265
6.6.1	win	2022-12-14	20:03:38	20:18:44	905139	610f7244c65ae4e57858a700	367666568	1	main_slash	11	main_slash	135	stimuli_target_squarediamonds.svg	stimuli_distractor_trianglediamonds.svg	4	yes	53	1	319
6.6.1	win	2022-12-14	20:03:38	20:18:44	905139	610f7244c65ae4e57858a700	367666568	1	main_slash	11	advance_on_keypress_SLASH	136	stimuli_target_squarediamonds.svg	stimuli_distractor_trianglediamonds.svg	4	yes	57	0	282
6.6.1	win	2022-12-14	20:03:38	20:18:46	906384	610f7244c65ae4e57858a700	367666568	1	main_slash	11	main_slash	137	stimuli_distractor_trianglediamonds.svg	stimuli_target_trianglesquares.svg	26	yes	53	1	314
6.6.1	win	2022-12-14	20:03:38	20:18:46	906384	610f7244c65ae4e57858a700	367666568	1	main_slash	11	advance_on_keypress_SLASH	138	stimuli_distractor_trianglediamonds.svg	stimuli_target_trianglesquares.svg	26	yes	57	0	295
6.6.1	win	2022-12-14	20:03:38	20:18:47	907626	610f7244c65ae4e57858a700	367666568	1	main_slash	11	main_slash	139	stimuli_distractor_diamondtriangles.svg	stimuli_target_circletriangles.svg	13	yes	53	1	289
6.6.1	win	2022-12-14	20:03:38	20:18:47	907626	610f7244c65ae4e57858a700	367666568	1	main_slash	11	advance_on_keypress_SLASH	140	stimuli_distractor_diamondtriangles.svg	stimuli_target_circletriangles.svg	13	yes	57	0	284
6.6.1	win	2022-12-14	20:03:38	20:18:48	908919	610f7244c65ae4e57858a700	367666568	1	main_slash	11	main_slash	141	stimuli_target_trianglesquares.svg	stimuli_distractor_trianglediamonds.svg	18	yes	53	1	366
6.6.1	win	2022-12-14	20:03:38	20:18:48	908919	610f7244c65ae4e57858a700	367666568	1	main_slash	11	advance_on_keypress_SLASH	142	stimuli_target_trianglesquares.svg	stimuli_distractor_trianglediamonds.svg	18	yes	57	0	276
6.6.1	win	2022-12-14	20:03:38	20:18:49	910127	610f7244c65ae4e57858a700	367666568	1	main_slash	11	main_slash	143	stimuli_distractor_trianglediamonds.svg	stimuli_target_diamondsquares.svg	28	yes	53	1	291
6.6.1	win	2022-12-14	20:03:38	20:18:49	910127	610f7244c65ae4e57858a700	367666568	1	main_slash	11	advance_on_keypress_SLASH	144	stimuli_distractor_trianglediamonds.svg	stimuli_target_diamondsquares.svg	28	yes	57	0	258
6.6.1	win	2022-12-14	20:03:38	20:18:52	913019	610f7244c65ae4e57858a700	367666568	1	main_slash	11	main_slash	145	stimuli_distractor_trianglediamonds.svg	stimuli_distractor_trianglediamonds.svg	33	no	0	1	2000
6.6.1	win	2022-12-14	20:03:38	20:18:52	913019	610f7244c65ae4e57858a700	367666568	1	main_slash	11	advance_on_keypress_SLASH	146	stimuli_distractor_trianglediamonds.svg	stimuli_distractor_trianglediamonds.svg	33	no	57	0	321
6.6.1	win	2022-12-14	20:03:38	20:18:54	914367	610f7244c65ae4e57858a700	367666568	1	main_slash	11	main_slash	147	stimuli_target_circletriangles.svg	stimuli_distractor_trianglediamonds.svg	1	yes	53	1	378
6.6.1	win	2022-12-14	20:03:38	20:18:54	914367	610f7244c65ae4e57858a700	367666568	1	main_slash	11	advance_on_keypress_SLASH	148	stimuli_target_circletriangles.svg	stimuli_distractor_trianglediamonds.svg	1	yes	57	0	346
6.6.1	win	2022-12-14	20:03:38	20:18:57	917369	610f7244c65ae4e57858a700	367666568	1	main_slash	11	main_slash	149	stimuli_distractor_diamondtriangles.svg	stimuli_distractor_trianglediamonds.svg	38	no	0	1	2000
6.6.1	win	2022-12-14	20:03:38	20:18:57	917369	610f7244c65ae4e57858a700	367666568	1	main_slash	11	advance_on_keypress_SLASH	150	stimuli_distractor_diamondtriangles.svg	stimuli_distractor_trianglediamonds.svg	38	no	57	0	364
6.6.1	win	2022-12-14	20:03:38	20:18:58	918751	610f7244c65ae4e57858a700	367666568	1	main_slash	11	main_slash	151	stimuli_target_trianglecircles.svg	stimuli_distractor_diamondtriangles.svg	21	yes	53	1	366
6.6.1	win	2022-12-14	20:03:38	20:18:58	918751	610f7244c65ae4e57858a700	367666568	1	main_slash	11	advance_on_keypress_SLASH	152	stimuli_target_trianglecircles.svg	stimuli_distractor_diamondtriangles.svg	21	yes	57	0	309
6.6.1	win	2022-12-14	20:03:38	20:18:59	920146	610f7244c65ae4e57858a700	367666568	1	main_slash	11	main_slash	153	stimuli_target_diamondsquares.svg	stimuli_distractor_trianglediamonds.svg	20	yes	53	1	445
6.6.1	win	2022-12-14	20:03:38	20:18:59	920146	610f7244c65ae4e57858a700	367666568	1	main_slash	11	advance_on_keypress_SLASH	154	stimuli_target_diamondsquares.svg	stimuli_distractor_trianglediamonds.svg	20	yes	57	0	322
6.6.1	win	2022-12-14	20:03:38	20:19:02	923102	610f7244c65ae4e57858a700	367666568	1	main_slash	11	main_slash	155	stimuli_distractor_trianglediamonds.svg	stimuli_distractor_trianglediamonds.svg	34	no	0	1	2000
6.6.1	win	2022-12-14	20:03:38	20:19:02	923102	610f7244c65ae4e57858a700	367666568	1	main_slash	11	advance_on_keypress_SLASH	156	stimuli_distractor_trianglediamonds.svg	stimuli_distractor_trianglediamonds.svg	34	no	57	0	262
6.6.1	win	2022-12-14	20:03:38	20:19:04	924362	610f7244c65ae4e57858a700	367666568	1	main_slash	11	main_slash	157	stimuli_distractor_trianglediamonds.svg	stimuli_target_trianglecircles.svg	25	yes	53	1	344
6.6.1	win	2022-12-14	20:03:38	20:19:04	924362	610f7244c65ae4e57858a700	367666568	1	main_slash	11	advance_on_keypress_SLASH	158	stimuli_distractor_trianglediamonds.svg	stimuli_target_trianglecircles.svg	25	yes	57	0	387
6.6.1	win	2022-12-14	20:03:38	20:19:05	925765	610f7244c65ae4e57858a700	367666568	1	main_slash	11	main_slash	159	stimuli_distractor_diamondtriangles.svg	stimuli_distractor_trianglediamonds.svg	37	no	53	0	371
6.6.1	win	2022-12-14	20:03:38	20:19:05	925765	610f7244c65ae4e57858a700	367666568	1	main_slash	11	advance_on_keypress_SLASH	160	stimuli_distractor_diamondtriangles.svg	stimuli_distractor_trianglediamonds.svg	37	no	57	0	704