build	computer.platform	date	time	timestamp	time_elapsed_ms	subject	group	session	blockcode	blocknum	trialcode	trialnum	stimulus_left	stimulus_right	stim_index	target_present	response	correct	latency
6.6.1	win	2022-12-23	23:18:00	23:20:24	141640	5ef3832ddd7d5a0f19b24f20	627224973	1	practice_slash	5	practice_slash	1	stimuli_distractor_diamondtriangles.svg	stimuli_distractor_trianglediamonds.svg	14	no	0	1	2000
6.6.1	win	2022-12-23	23:18:00	23:20:24	141640	5ef3832ddd7d5a0f19b24f20	627224973	1	practice_slash	5	advance_on_keypress_SLASH	2	stimuli_distractor_diamondtriangles.svg	stimuli_distractor_trianglediamonds.svg	14	no	57	0	1875
6.6.1	win	2022-12-23	23:18:00	23:20:28	146194	5ef3832ddd7d5a0f19b24f20	627224973	1	practice_slash	5	practice_slash	3	stimuli_target_squarediamonds.svg	stimuli_distractor_trianglediamonds.svg	5	yes	53	1	1019
6.6.1	win	2022-12-23	23:18:00	23:20:28	146194	5ef3832ddd7d5a0f19b24f20	627224973	1	practice_slash	5	advance_on_keypress_SLASH	4	stimuli_target_squarediamonds.svg	stimuli_distractor_trianglediamonds.svg	5	yes	57	0	955
6.6.1	win	2022-12-23	23:18:00	23:20:33	150791	5ef3832ddd7d5a0f19b24f20	627224973	1	practice_slash	5	practice_slash	5	stimuli_target_diamondsquares.svg	stimuli_distractor_diamondtriangles.svg	3	yes	0	0	2000
6.6.1	win	2022-12-23	23:18:00	23:20:33	150791	5ef3832ddd7d5a0f19b24f20	627224973	1	practice_slash	5	advance_on_keypress_SLASH	6	stimuli_target_diamondsquares.svg	stimuli_distractor_diamondtriangles.svg	3	yes	57	0	800
6.6.1	win	2022-12-23	23:18:00	23:20:36	154151	5ef3832ddd7d5a0f19b24f20	627224973	1	practice_slash	5	practice_slash	7	stimuli_distractor_diamondtriangles.svg	stimuli_target_circletriangles.svg	7	yes	53	1	910
6.6.1	win	2022-12-23	23:18:00	23:20:36	154151	5ef3832ddd7d5a0f19b24f20	627224973	1	practice_slash	5	advance_on_keypress_SLASH	8	stimuli_distractor_diamondtriangles.svg	stimuli_target_circletriangles.svg	7	yes	57	0	604
6.6.1	win	2022-12-23	23:18:00	23:20:41	158408	5ef3832ddd7d5a0f19b24f20	627224973	1	practice_slash	5	practice_slash	9	stimuli_distractor_trianglediamonds.svg	stimuli_distractor_diamondtriangles.svg	16	no	0	1	2000
6.6.1	win	2022-12-23	23:18:00	23:20:41	158408	5ef3832ddd7d5a0f19b24f20	627224973	1	practice_slash	5	advance_on_keypress_SLASH	10	stimuli_distractor_trianglediamonds.svg	stimuli_distractor_diamondtriangles.svg	16	no	57	0	374
6.6.1	win	2022-12-23	23:18:00	23:20:43	161273	5ef3832ddd7d5a0f19b24f20	627224973	1	practice_slash	5	practice_slash	11	stimuli_target_squarediamonds.svg	stimuli_distractor_diamondtriangles.svg	2	yes	53	1	848
6.6.1	win	2022-12-23	23:18:00	23:20:43	161273	5ef3832ddd7d5a0f19b24f20	627224973	1	practice_slash	5	advance_on_keypress_SLASH	12	stimuli_target_squarediamonds.svg	stimuli_distractor_diamondtriangles.svg	2	yes	57	0	352
6.6.1	win	2022-12-23	23:18:00	23:20:46	164286	5ef3832ddd7d5a0f19b24f20	627224973	1	practice_slash	5	practice_slash	13	stimuli_target_circlediamonds.svg	stimuli_distractor_trianglediamonds.svg	4	yes	53	1	1010
6.6.1	win	2022-12-23	23:18:00	23:20:46	164286	5ef3832ddd7d5a0f19b24f20	627224973	1	practice_slash	5	advance_on_keypress_SLASH	14	stimuli_target_circlediamonds.svg	stimuli_distractor_trianglediamonds.svg	4	yes	57	0	273
6.6.1	win	2022-12-23	23:18:00	23:20:50	167634	5ef3832ddd7d5a0f19b24f20	627224973	1	practice_slash	5	practice_slash	15	stimuli_distractor_trianglediamonds.svg	stimuli_target_circlediamonds.svg	10	yes	53	1	1425
6.6.1	win	2022-12-23	23:18:00	23:20:50	167634	5ef3832ddd7d5a0f19b24f20	627224973	1	practice_slash	5	advance_on_keypress_SLASH	16	stimuli_distractor_trianglediamonds.svg	stimuli_target_circlediamonds.svg	10	yes	57	0	222
6.6.1	win	2022-12-23	23:18:00	23:20:53	170512	5ef3832ddd7d5a0f19b24f20	627224973	1	practice_slash	5	practice_slash	17	stimuli_distractor_diamondtriangles.svg	stimuli_target_diamondcircles.svg	8	yes	53	1	1003
6.6.1	win	2022-12-23	23:18:00	23:20:53	170512	5ef3832ddd7d5a0f19b24f20	627224973	1	practice_slash	5	advance_on_keypress_SLASH	18	stimuli_distractor_diamondtriangles.svg	stimuli_target_diamondcircles.svg	8	yes	57	0	293
6.6.1	win	2022-12-23	23:18:00	23:20:57	174442	5ef3832ddd7d5a0f19b24f20	627224973	1	practice_slash	5	practice_slash	19	stimuli_distractor_trianglediamonds.svg	stimuli_distractor_trianglediamonds.svg	15	no	0	1	2000
6.6.1	win	2022-12-23	23:18:00	23:20:57	174442	5ef3832ddd7d5a0f19b24f20	627224973	1	practice_slash	5	advance_on_keypress_SLASH	20	stimuli_distractor_trianglediamonds.svg	stimuli_distractor_trianglediamonds.svg	15	no	57	0	523
6.6.1	win	2022-12-23	23:18:00	23:21:01	178608	5ef3832ddd7d5a0f19b24f20	627224973	1	practice_slash	5	practice_slash	21	stimuli_distractor_diamondtriangles.svg	stimuli_distractor_diamondtriangles.svg	13	no	0	1	2000
6.6.1	win	2022-12-23	23:18:00	23:21:01	178608	5ef3832ddd7d5a0f19b24f20	627224973	1	practice_slash	5	advance_on_keypress_SLASH	22	stimuli_distractor_diamondtriangles.svg	stimuli_distractor_diamondtriangles.svg	13	no	57	0	951
6.6.1	win	2022-12-23	23:18:00	23:21:04	182060	5ef3832ddd7d5a0f19b24f20	627224973	1	practice_slash	5	practice_slash	23	stimuli_distractor_diamondtriangles.svg	stimuli_target_trianglecircles.svg	9	yes	53	1	851
6.6.1	win	2022-12-23	23:18:00	23:21:04	182060	5ef3832ddd7d5a0f19b24f20	627224973	1	practice_slash	5	advance_on_keypress_SLASH	24	stimuli_distractor_diamondtriangles.svg	stimuli_target_trianglecircles.svg	9	yes	57	0	294
6.6.1	win	2022-12-23	23:18:00	23:21:07	185069	5ef3832ddd7d5a0f19b24f20	627224973	1	practice_slash	5	practice_slash	25	stimuli_distractor_trianglediamonds.svg	stimuli_target_squarediamonds.svg	11	yes	53	1	1059
6.6.1	win	2022-12-23	23:18:00	23:21:07	185069	5ef3832ddd7d5a0f19b24f20	627224973	1	practice_slash	5	advance_on_keypress_SLASH	26	stimuli_distractor_trianglediamonds.svg	stimuli_target_squarediamonds.svg	11	yes	57	0	295
6.6.1	win	2022-12-23	23:18:00	23:21:10	188009	5ef3832ddd7d5a0f19b24f20	627224973	1	practice_slash	5	practice_slash	27	stimuli_distractor_trianglediamonds.svg	stimuli_target_diamondcircles.svg	12	yes	53	1	983
6.6.1	win	2022-12-23	23:18:00	23:21:10	188009	5ef3832ddd7d5a0f19b24f20	627224973	1	practice_slash	5	advance_on_keypress_SLASH	28	stimuli_distractor_trianglediamonds.svg	stimuli_target_diamondcircles.svg	12	yes	57	0	299
6.6.1	win	2022-12-23	23:18:00	23:21:13	190956	5ef3832ddd7d5a0f19b24f20	627224973	1	practice_slash	5	practice_slash	29	stimuli_target_circlediamonds.svg	stimuli_distractor_diamondtriangles.svg	1	yes	53	1	998
6.6.1	win	2022-12-23	23:18:00	23:21:13	190956	5ef3832ddd7d5a0f19b24f20	627224973	1	practice_slash	5	advance_on_keypress_SLASH	30	stimuli_target_circlediamonds.svg	stimuli_distractor_diamondtriangles.svg	1	yes	57	0	40
6.6.1	win	2022-12-23	23:18:00	23:21:17	194643	5ef3832ddd7d5a0f19b24f20	627224973	1	practice_slash	5	practice_slash	31	stimuli_target_diamondsquares.svg	stimuli_distractor_trianglediamonds.svg	6	yes	0	0	2000
6.6.1	win	2022-12-23	23:18:00	23:21:17	194643	5ef3832ddd7d5a0f19b24f20	627224973	1	practice_slash	5	advance_on_keypress_SLASH	32	stimuli_target_diamondsquares.svg	stimuli_distractor_trianglediamonds.svg	6	yes	57	0	898
6.6.1	win	2022-12-23	23:18:00	23:21:26	204065	5ef3832ddd7d5a0f19b24f20	627224973	1	main_slash	7	main_slash	1	stimuli_distractor_trianglediamonds.svg	stimuli_target_diamondcircles.svg	27	yes	53	1	1024
6.6.1	win	2022-12-23	23:18:00	23:21:26	204065	5ef3832ddd7d5a0f19b24f20	627224973	1	main_slash	7	advance_on_keypress_SLASH	2	stimuli_distractor_trianglediamonds.svg	stimuli_target_diamondcircles.svg	27	yes	57	0	1405
6.6.1	win	2022-12-23	23:18:00	23:21:29	206864	5ef3832ddd7d5a0f19b24f20	627224973	1	main_slash	7	main_slash	3	stimuli_target_diamondcircles.svg	stimuli_distractor_diamondtriangles.svg	23	yes	53	1	756
6.6.1	win	2022-12-23	23:18:00	23:21:29	206864	5ef3832ddd7d5a0f19b24f20	627224973	1	main_slash	7	advance_on_keypress_SLASH	4	stimuli_target_diamondcircles.svg	stimuli_distractor_diamondtriangles.svg	23	yes	57	0	498
6.6.1	win	2022-12-23	23:18:00	23:21:32	210007	5ef3832ddd7d5a0f19b24f20	627224973	1	main_slash	7	main_slash	5	stimuli_distractor_trianglediamonds.svg	stimuli_distractor_diamondtriangles.svg	36	no	0	1	2000
6.6.1	win	2022-12-23	23:18:00	23:21:32	210007	5ef3832ddd7d5a0f19b24f20	627224973	1	main_slash	7	advance_on_keypress_SLASH	6	stimuli_distractor_trianglediamonds.svg	stimuli_distractor_diamondtriangles.svg	36	no	57	0	539
6.6.1	win	2022-12-23	23:18:00	23:21:34	211963	5ef3832ddd7d5a0f19b24f20	627224973	1	main_slash	7	main_slash	7	stimuli_distractor_diamondtriangles.svg	stimuli_target_squarediamonds.svg	16	yes	53	1	772
6.6.1	win	2022-12-23	23:18:00	23:21:34	211963	5ef3832ddd7d5a0f19b24f20	627224973	1	main_slash	7	advance_on_keypress_SLASH	8	stimuli_distractor_diamondtriangles.svg	stimuli_target_squarediamonds.svg	16	yes	57	0	344
6.6.1	win	2022-12-23	23:18:00	23:21:36	213941	5ef3832ddd7d5a0f19b24f20	627224973	1	main_slash	7	main_slash	9	stimuli_target_diamondsquares.svg	stimuli_distractor_trianglediamonds.svg	20	yes	53	1	999
6.6.1	win	2022-12-23	23:18:00	23:21:36	213941	5ef3832ddd7d5a0f19b24f20	627224973	1	main_slash	7	advance_on_keypress_SLASH	10	stimuli_target_diamondsquares.svg	stimuli_distractor_trianglediamonds.svg	20	yes	57	0	309
6.6.1	win	2022-12-23	23:18:00	23:21:38	215715	5ef3832ddd7d5a0f19b24f20	627224973	1	main_slash	7	main_slash	11	stimuli_distractor_trianglediamonds.svg	stimuli_target_circlediamonds.svg	10	yes	53	1	824
6.6.1	win	2022-12-23	23:18:00	23:21:38	215715	5ef3832ddd7d5a0f19b24f20	627224973	1	main_slash	7	advance_on_keypress_SLASH	12	stimuli_distractor_trianglediamonds.svg	stimuli_target_circlediamonds.svg	10	yes	57	0	328
6.6.1	win	2022-12-23	23:18:00	23:21:40	217793	5ef3832ddd7d5a0f19b24f20	627224973	1	main_slash	7	main_slash	13	stimuli_distractor_diamondtriangles.svg	stimuli_target_trianglesquares.svg	30	yes	53	1	1101
6.6.1	win	2022-12-23	23:18:00	23:21:40	217793	5ef3832ddd7d5a0f19b24f20	627224973	1	main_slash	7	advance_on_keypress_SLASH	14	stimuli_distractor_diamondtriangles.svg	stimuli_target_trianglesquares.svg	30	yes	57	0	232
6.6.1	win	2022-12-23	23:18:00	23:21:43	220674	5ef3832ddd7d5a0f19b24f20	627224973	1	main_slash	7	main_slash	15	stimuli_distractor_trianglediamonds.svg	stimuli_target_squarediamonds.svg	12	yes	0	0	2000
6.6.1	win	2022-12-23	23:18:00	23:21:43	220674	5ef3832ddd7d5a0f19b24f20	627224973	1	main_slash	7	advance_on_keypress_SLASH	16	stimuli_distractor_trianglediamonds.svg	stimuli_target_squarediamonds.svg	12	yes	57	0	781
6.6.1	win	2022-12-23	23:18:00	23:21:45	222955	5ef3832ddd7d5a0f19b24f20	627224973	1	main_slash	7	main_slash	17	stimuli_target_diamondcircles.svg	stimuli_distractor_trianglediamonds.svg	19	yes	53	1	847
6.6.1	win	2022-12-23	23:18:00	23:21:45	222955	5ef3832ddd7d5a0f19b24f20	627224973	1	main_slash	7	advance_on_keypress_SLASH	18	stimuli_target_diamondcircles.svg	stimuli_distractor_trianglediamonds.svg	19	yes	57	0	333
6.6.1	win	2022-12-23	23:18:00	23:21:48	225941	5ef3832ddd7d5a0f19b24f20	627224973	1	main_slash	7	main_slash	19	stimuli_distractor_trianglediamonds.svg	stimuli_distractor_trianglediamonds.svg	34	no	0	1	2000
6.6.1	win	2022-12-23	23:18:00	23:21:48	225941	5ef3832ddd7d5a0f19b24f20	627224973	1	main_slash	7	advance_on_keypress_SLASH	20	stimuli_distractor_trianglediamonds.svg	stimuli_distractor_trianglediamonds.svg	34	no	57	0	39
6.6.1	win	2022-12-23	23:18:00	23:21:50	227466	5ef3832ddd7d5a0f19b24f20	627224973	1	main_slash	7	main_slash	21	stimuli_target_trianglesquares.svg	stimuli_distractor_diamondtriangles.svg	22	yes	53	1	841
6.6.1	win	2022-12-23	23:18:00	23:21:50	227466	5ef3832ddd7d5a0f19b24f20	627224973	1	main_slash	7	advance_on_keypress_SLASH	22	stimuli_target_trianglesquares.svg	stimuli_distractor_diamondtriangles.svg	22	yes	57	0	391
6.6.1	win	2022-12-23	23:18:00	23:21:51	229286	5ef3832ddd7d5a0f19b24f20	627224973	1	main_slash	7	main_slash	23	stimuli_distractor_diamondtriangles.svg	stimuli_target_trianglecircles.svg	29	yes	53	1	794
6.6.1	win	2022-12-23	23:18:00	23:21:51	229286	5ef3832ddd7d5a0f19b24f20	627224973	1	main_slash	7	advance_on_keypress_SLASH	24	stimuli_distractor_diamondtriangles.svg	stimuli_target_trianglecircles.svg	29	yes	57	0	373
6.6.1	win	2022-12-23	23:18:00	23:21:53	231337	5ef3832ddd7d5a0f19b24f20	627224973	1	main_slash	7	main_slash	25	stimuli_target_trianglecircles.svg	stimuli_distractor_trianglediamonds.svg	17	yes	53	1	1029
6.6.1	win	2022-12-23	23:18:00	23:21:53	231337	5ef3832ddd7d5a0f19b24f20	627224973	1	main_slash	7	advance_on_keypress_SLASH	26	stimuli_target_trianglecircles.svg	stimuli_distractor_trianglediamonds.svg	17	yes	57	0	316
6.6.1	win	2022-12-23	23:18:00	23:21:55	233104	5ef3832ddd7d5a0f19b24f20	627224973	1	main_slash	7	main_slash	27	stimuli_target_circletriangles.svg	stimuli_distractor_diamondtriangles.svg	5	yes	53	1	795
6.6.1	win	2022-12-23	23:18:00	23:21:55	233104	5ef3832ddd7d5a0f19b24f20	627224973	1	main_slash	7	advance_on_keypress_SLASH	28	stimuli_target_circletriangles.svg	stimuli_distractor_diamondtriangles.svg	5	yes	57	0	265
6.6.1	win	2022-12-23	23:18:00	23:21:57	234720	5ef3832ddd7d5a0f19b24f20	627224973	1	main_slash	7	main_slash	29	stimuli_target_squarediamonds.svg	stimuli_distractor_diamondtriangles.svg	8	yes	53	1	695
6.6.1	win	2022-12-23	23:18:00	23:21:57	234720	5ef3832ddd7d5a0f19b24f20	627224973	1	main_slash	7	advance_on_keypress_SLASH	30	stimuli_target_squarediamonds.svg	stimuli_distractor_diamondtriangles.svg	8	yes	57	0	198
6.6.1	win	2022-12-23	23:18:00	23:21:58	236198	5ef3832ddd7d5a0f19b24f20	627224973	1	main_slash	7	main_slash	31	stimuli_target_circlediamonds.svg	stimuli_distractor_diamondtriangles.svg	6	yes	53	1	641
6.6.1	win	2022-12-23	23:18:00	23:21:58	236198	5ef3832ddd7d5a0f19b24f20	627224973	1	main_slash	7	advance_on_keypress_SLASH	32	stimuli_target_circlediamonds.svg	stimuli_distractor_diamondtriangles.svg	6	yes	57	0	177
6.6.1	win	2022-12-23	23:18:00	23:22:00	237613	5ef3832ddd7d5a0f19b24f20	627224973	1	main_slash	7	main_slash	33	stimuli_distractor_diamondtriangles.svg	stimuli_target_circlediamonds.svg	14	yes	53	1	588
6.6.1	win	2022-12-23	23:18:00	23:22:00	237613	5ef3832ddd7d5a0f19b24f20	627224973	1	main_slash	7	advance_on_keypress_SLASH	34	stimuli_distractor_diamondtriangles.svg	stimuli_target_circlediamonds.svg	14	yes	57	0	161
6.6.1	win	2022-12-23	23:18:00	23:22:03	240409	5ef3832ddd7d5a0f19b24f20	627224973	1	main_slash	7	main_slash	35	stimuli_distractor_diamondtriangles.svg	stimuli_distractor_diamondtriangles.svg	39	no	0	1	2000
6.6.1	win	2022-12-23	23:18:00	23:22:03	240409	5ef3832ddd7d5a0f19b24f20	627224973	1	main_slash	7	advance_on_keypress_SLASH	36	stimuli_distractor_diamondtriangles.svg	stimuli_distractor_diamondtriangles.svg	39	no	57	0	373
6.6.1	win	2022-12-23	23:18:00	23:22:04	242114	5ef3832ddd7d5a0f19b24f20	627224973	1	main_slash	7	main_slash	37	stimuli_distractor_trianglediamonds.svg	stimuli_target_squaretriangles.svg	11	yes	53	1	689
6.6.1	win	2022-12-23	23:18:00	23:22:04	242114	5ef3832ddd7d5a0f19b24f20	627224973	1	main_slash	7	advance_on_keypress_SLASH	38	stimuli_distractor_trianglediamonds.svg	stimuli_target_squaretriangles.svg	11	yes	57	0	171
6.6.1	win	2022-12-23	23:18:00	23:22:06	243518	5ef3832ddd7d5a0f19b24f20	627224973	1	main_slash	7	main_slash	39	stimuli_distractor_trianglediamonds.svg	stimuli_target_circletriangles.svg	9	yes	53	1	593
6.6.1	win	2022-12-23	23:18:00	23:22:06	243518	5ef3832ddd7d5a0f19b24f20	627224973	1	main_slash	7	advance_on_keypress_SLASH	40	stimuli_distractor_trianglediamonds.svg	stimuli_target_circletriangles.svg	9	yes	57	0	166
6.6.1	win	2022-12-23	23:18:00	23:22:08	246325	5ef3832ddd7d5a0f19b24f20	627224973	1	main_slash	7	main_slash	41	stimuli_distractor_trianglediamonds.svg	stimuli_distractor_diamondtriangles.svg	35	no	0	1	2000
6.6.1	win	2022-12-23	23:18:00	23:22:08	246325	5ef3832ddd7d5a0f19b24f20	627224973	1	main_slash	7	advance_on_keypress_SLASH	42	stimuli_distractor_trianglediamonds.svg	stimuli_distractor_diamondtriangles.svg	35	no	57	0	420
6.6.1	win	2022-12-23	23:18:00	23:22:10	248097	5ef3832ddd7d5a0f19b24f20	627224973	1	main_slash	7	main_slash	43	stimuli_distractor_diamondtriangles.svg	stimuli_target_diamondcircles.svg	31	yes	53	1	705
6.6.1	win	2022-12-23	23:18:00	23:22:10	248097	5ef3832ddd7d5a0f19b24f20	627224973	1	main_slash	7	advance_on_keypress_SLASH	44	stimuli_distractor_diamondtriangles.svg	stimuli_target_diamondcircles.svg	31	yes	57	0	156
6.6.1	win	2022-12-23	23:18:00	23:22:12	249531	5ef3832ddd7d5a0f19b24f20	627224973	1	main_slash	7	main_slash	45	stimuli_target_squaretriangles.svg	stimuli_distractor_trianglediamonds.svg	3	yes	53	1	639
6.6.1	win	2022-12-23	23:18:00	23:22:12	249531	5ef3832ddd7d5a0f19b24f20	627224973	1	main_slash	7	advance_on_keypress_SLASH	46	stimuli_target_squaretriangles.svg	stimuli_distractor_trianglediamonds.svg	3	yes	57	0	187
6.6.1	win	2022-12-23	23:18:00	23:22:13	250990	5ef3832ddd7d5a0f19b24f20	627224973	1	main_slash	7	main_slash	47	stimuli_distractor_diamondtriangles.svg	stimuli_target_circletriangles.svg	13	yes	53	1	632
6.6.1	win	2022-12-23	23:18:00	23:22:13	250990	5ef3832ddd7d5a0f19b24f20	627224973	1	main_slash	7	advance_on_keypress_SLASH	48	stimuli_distractor_diamondtriangles.svg	stimuli_target_circletriangles.svg	13	yes	57	0	169
6.6.1	win	2022-12-23	23:18:00	23:22:15	252429	5ef3832ddd7d5a0f19b24f20	627224973	1	main_slash	7	main_slash	49	stimuli_distractor_trianglediamonds.svg	stimuli_target_trianglecircles.svg	25	yes	53	1	620
6.6.1	win	2022-12-23	23:18:00	23:22:15	252429	5ef3832ddd7d5a0f19b24f20	627224973	1	main_slash	7	advance_on_keypress_SLASH	50	stimuli_distractor_trianglediamonds.svg	stimuli_target_trianglecircles.svg	25	yes	57	0	160
6.6.1	win	2022-12-23	23:18:00	23:22:17	255226	5ef3832ddd7d5a0f19b24f20	627224973	1	main_slash	7	main_slash	51	stimuli_distractor_trianglediamonds.svg	stimuli_distractor_trianglediamonds.svg	33	no	0	1	2000
6.6.1	win	2022-12-23	23:18:00	23:22:17	255226	5ef3832ddd7d5a0f19b24f20	627224973	1	main_slash	7	advance_on_keypress_SLASH	52	stimuli_distractor_trianglediamonds.svg	stimuli_distractor_trianglediamonds.svg	33	no	57	0	629
6.6.1	win	2022-12-23	23:18:00	23:22:20	257656	5ef3832ddd7d5a0f19b24f20	627224973	1	main_slash	7	main_slash	53	stimuli_target_squaretriangles.svg	stimuli_distractor_diamondtriangles.svg	7	yes	53	1	1146
6.6.1	win	2022-12-23	23:18:00	23:22:20	257656	5ef3832ddd7d5a0f19b24f20	627224973	1	main_slash	7	advance_on_keypress_SLASH	54	stimuli_target_squaretriangles.svg	stimuli_distractor_diamondtriangles.svg	7	yes	57	0	184
6.6.1	win	2022-12-23	23:18:00	23:22:21	259289	5ef3832ddd7d5a0f19b24f20	627224973	1	main_slash	7	main_slash	55	stimuli_target_circlediamonds.svg	stimuli_distractor_trianglediamonds.svg	2	yes	53	1	795
6.6.1	win	2022-12-23	23:18:00	23:22:21	259289	5ef3832ddd7d5a0f19b24f20	627224973	1	main_slash	7	advance_on_keypress_SLASH	56	stimuli_target_circlediamonds.svg	stimuli_distractor_trianglediamonds.svg	2	yes	57	0	162
6.6.1	win	2022-12-23	23:18:00	23:22:23	261074	5ef3832ddd7d5a0f19b24f20	627224973	1	main_slash	7	main_slash	57	stimuli_distractor_diamondtriangles.svg	stimuli_target_squaretriangles.svg	15	yes	53	1	980
6.6.1	win	2022-12-23	23:18:00	23:22:23	261074	5ef3832ddd7d5a0f19b24f20	627224973	1	main_slash	7	advance_on_keypress_SLASH	58	stimuli_distractor_diamondtriangles.svg	stimuli_target_squaretriangles.svg	15	yes	57	0	148
6.6.1	win	2022-12-23	23:18:00	23:22:25	262617	5ef3832ddd7d5a0f19b24f20	627224973	1	main_slash	7	main_slash	59	stimuli_distractor_trianglediamonds.svg	stimuli_target_diamondsquares.svg	28	yes	53	1	741
6.6.1	win	2022-12-23	23:18:00	23:22:25	262617	5ef3832ddd7d5a0f19b24f20	627224973	1	main_slash	7	advance_on_keypress_SLASH	60	stimuli_distractor_trianglediamonds.svg	stimuli_target_diamondsquares.svg	28	yes	57	0	301
6.6.1	win	2022-12-23	23:18:00	23:22:27	264643	5ef3832ddd7d5a0f19b24f20	627224973	1	main_slash	7	main_slash	61	stimuli_target_squarediamonds.svg	stimuli_distractor_trianglediamonds.svg	4	yes	53	1	1084
6.6.1	win	2022-12-23	23:18:00	23:22:27	264643	5ef3832ddd7d5a0f19b24f20	627224973	1	main_slash	7	advance_on_keypress_SLASH	62	stimuli_target_squarediamonds.svg	stimuli_distractor_trianglediamonds.svg	4	yes	57	0	271
6.6.1	win	2022-12-23	23:18:00	23:22:30	267560	5ef3832ddd7d5a0f19b24f20	627224973	1	main_slash	7	main_slash	63	stimuli_distractor_diamondtriangles.svg	stimuli_distractor_trianglediamonds.svg	38	no	0	1	2000
6.6.1	win	2022-12-23	23:18:00	23:22:30	267560	5ef3832ddd7d5a0f19b24f20	627224973	1	main_slash	7	advance_on_keypress_SLASH	64	stimuli_distractor_diamondtriangles.svg	stimuli_distractor_trianglediamonds.svg	38	no	57	0	553
6.6.1	win	2022-12-23	23:18:00	23:22:32	270307	5ef3832ddd7d5a0f19b24f20	627224973	1	main_slash	7	main_slash	65	stimuli_target_trianglecircles.svg	stimuli_distractor_diamondtriangles.svg	21	yes	53	1	1547
6.6.1	win	2022-12-23	23:18:00	23:22:32	270307	5ef3832ddd7d5a0f19b24f20	627224973	1	main_slash	7	advance_on_keypress_SLASH	66	stimuli_target_trianglecircles.svg	stimuli_distractor_diamondtriangles.svg	21	yes	57	0	152
6.6.1	win	2022-12-23	23:18:00	23:22:35	273110	5ef3832ddd7d5a0f19b24f20	627224973	1	main_slash	7	main_slash	67	stimuli_distractor_diamondtriangles.svg	stimuli_distractor_trianglediamonds.svg	37	no	0	1	2000
6.6.1	win	2022-12-23	23:18:00	23:22:35	273110	5ef3832ddd7d5a0f19b24f20	627224973	1	main_slash	7	advance_on_keypress_SLASH	68	stimuli_distractor_diamondtriangles.svg	stimuli_distractor_trianglediamonds.svg	37	no	57	0	339
6.6.1	win	2022-12-23	23:18:00	23:22:37	274861	5ef3832ddd7d5a0f19b24f20	627224973	1	main_slash	7	main_slash	69	stimuli_target_circletriangles.svg	stimuli_distractor_trianglediamonds.svg	1	yes	53	1	768
6.6.1	win	2022-12-23	23:18:00	23:22:37	274861	5ef3832ddd7d5a0f19b24f20	627224973	1	main_slash	7	advance_on_keypress_SLASH	70	stimuli_target_circletriangles.svg	stimuli_distractor_trianglediamonds.svg	1	yes	57	0	167
6.6.1	win	2022-12-23	23:18:00	23:22:40	277677	5ef3832ddd7d5a0f19b24f20	627224973	1	main_slash	7	main_slash	71	stimuli_distractor_diamondtriangles.svg	stimuli_distractor_diamondtriangles.svg	40	no	0	1	2000
6.6.1	win	2022-12-23	23:18:00	23:22:40	277677	5ef3832ddd7d5a0f19b24f20	627224973	1	main_slash	7	advance_on_keypress_SLASH	72	stimuli_distractor_diamondtriangles.svg	stimuli_distractor_diamondtriangles.svg	40	no	57	0	673
6.6.1	win	2022-12-23	23:18:00	23:22:42	280281	5ef3832ddd7d5a0f19b24f20	627224973	1	main_slash	7	main_slash	73	stimuli_target_diamondsquares.svg	stimuli_distractor_diamondtriangles.svg	24	yes	53	1	1287
6.6.1	win	2022-12-23	23:18:00	23:22:42	280281	5ef3832ddd7d5a0f19b24f20	627224973	1	main_slash	7	advance_on_keypress_SLASH	74	stimuli_target_diamondsquares.svg	stimuli_distractor_diamondtriangles.svg	24	yes	57	0	180
6.6.1	win	2022-12-23	23:18:00	23:22:44	282017	5ef3832ddd7d5a0f19b24f20	627224973	1	main_slash	7	main_slash	75	stimuli_distractor_diamondtriangles.svg	stimuli_target_diamondsquares.svg	32	yes	53	1	907
6.6.1	win	2022-12-23	23:18:00	23:22:44	282017	5ef3832ddd7d5a0f19b24f20	627224973	1	main_slash	7	advance_on_keypress_SLASH	76	stimuli_distractor_diamondtriangles.svg	stimuli_target_diamondsquares.svg	32	yes	57	0	138
6.6.1	win	2022-12-23	23:18:00	23:22:47	284794	5ef3832ddd7d5a0f19b24f20	627224973	1	main_slash	7	main_slash	77	stimuli_distractor_trianglediamonds.svg	stimuli_target_trianglesquares.svg	26	yes	0	0	2000
6.6.1	win	2022-12-23	23:18:00	23:22:47	284794	5ef3832ddd7d5a0f19b24f20	627224973	1	main_slash	7	advance_on_keypress_SLASH	78	stimuli_distractor_trianglediamonds.svg	stimuli_target_trianglesquares.svg	26	yes	57	0	227
6.6.1	win	2022-12-23	23:18:00	23:22:50	287397	5ef3832ddd7d5a0f19b24f20	627224973	1	main_slash	7	main_slash	79	stimuli_target_trianglesquares.svg	stimuli_distractor_trianglediamonds.svg	18	yes	53	1	1719
6.6.1	win	2022-12-23	23:18:00	23:22:50	287397	5ef3832ddd7d5a0f19b24f20	627224973	1	main_slash	7	advance_on_keypress_SLASH	80	stimuli_target_trianglesquares.svg	stimuli_distractor_trianglediamonds.svg	18	yes	57	0	723
6.6.1	win	2022-12-23	23:18:00	23:22:52	289575	5ef3832ddd7d5a0f19b24f20	627224973	1	main_slash	7	main_slash	81	stimuli_target_circlediamonds.svg	stimuli_distractor_diamondtriangles.svg	6	yes	53	1	813
6.6.1	win	2022-12-23	23:18:00	23:22:52	289575	5ef3832ddd7d5a0f19b24f20	627224973	1	main_slash	7	advance_on_keypress_SLASH	82	stimuli_target_circlediamonds.svg	stimuli_distractor_diamondtriangles.svg	6	yes	57	0	181
6.6.1	win	2022-12-23	23:18:00	23:22:54	291489	5ef3832ddd7d5a0f19b24f20	627224973	1	main_slash	7	main_slash	83	stimuli_distractor_diamondtriangles.svg	stimuli_distractor_trianglediamonds.svg	37	no	53	0	1077
6.6.1	win	2022-12-23	23:18:00	23:22:54	291489	5ef3832ddd7d5a0f19b24f20	627224973	1	main_slash	7	advance_on_keypress_SLASH	84	stimuli_distractor_diamondtriangles.svg	stimuli_distractor_trianglediamonds.svg	37	no	57	0	139
6.6.1	win	2022-12-23	23:18:00	23:22:55	293015	5ef3832ddd7d5a0f19b24f20	627224973	1	main_slash	7	main_slash	85	stimuli_distractor_diamondtriangles.svg	stimuli_target_circletriangles.svg	13	yes	53	1	737
6.6.1	win	2022-12-23	23:18:00	23:22:55	293015	5ef3832ddd7d5a0f19b24f20	627224973	1	main_slash	7	advance_on_keypress_SLASH	86	stimuli_distractor_diamondtriangles.svg	stimuli_target_circletriangles.svg	13	yes	57	0	131
6.6.1	win	2022-12-23	23:18:00	23:22:57	294430	5ef3832ddd7d5a0f19b24f20	627224973	1	main_slash	7	main_slash	87	stimuli_distractor_trianglediamonds.svg	stimuli_target_diamondcircles.svg	27	yes	53	1	635
6.6.1	win	2022-12-23	23:18:00	23:22:57	294430	5ef3832ddd7d5a0f19b24f20	627224973	1	main_slash	7	advance_on_keypress_SLASH	88	stimuli_distractor_trianglediamonds.svg	stimuli_target_diamondcircles.svg	27	yes	57	0	124
6.6.1	win	2022-12-23	23:18:00	23:22:58	295813	5ef3832ddd7d5a0f19b24f20	627224973	1	main_slash	7	main_slash	89	stimuli_target_squarediamonds.svg	stimuli_distractor_diamondtriangles.svg	8	yes	53	1	619
6.6.1	win	2022-12-23	23:18:00	23:22:58	295813	5ef3832ddd7d5a0f19b24f20	627224973	1	main_slash	7	advance_on_keypress_SLASH	90	stimuli_target_squarediamonds.svg	stimuli_distractor_diamondtriangles.svg	8	yes	57	0	105
6.6.1	win	2022-12-23	23:18:00	23:22:59	297125	5ef3832ddd7d5a0f19b24f20	627224973	1	main_slash	7	main_slash	91	stimuli_distractor_diamondtriangles.svg	stimuli_target_trianglesquares.svg	30	yes	53	1	563
6.6.1	win	2022-12-23	23:18:00	23:22:59	297125	5ef3832ddd7d5a0f19b24f20	627224973	1	main_slash	7	advance_on_keypress_SLASH	92	stimuli_distractor_diamondtriangles.svg	stimuli_target_trianglesquares.svg	30	yes	57	0	132
6.6.1	win	2022-12-23	23:18:00	23:23:01	298475	5ef3832ddd7d5a0f19b24f20	627224973	1	main_slash	7	main_slash	93	stimuli_target_circlediamonds.svg	stimuli_distractor_trianglediamonds.svg	2	yes	53	1	564
6.6.1	win	2022-12-23	23:18:00	23:23:01	298475	5ef3832ddd7d5a0f19b24f20	627224973	1	main_slash	7	advance_on_keypress_SLASH	94	stimuli_target_circlediamonds.svg	stimuli_distractor_trianglediamonds.svg	2	yes	57	0	108
6.6.1	win	2022-12-23	23:18:00	23:23:02	299672	5ef3832ddd7d5a0f19b24f20	627224973	1	main_slash	7	main_slash	95	stimuli_distractor_diamondtriangles.svg	stimuli_target_circlediamonds.svg	14	yes	53	1	443
6.6.1	win	2022-12-23	23:18:00	23:23:02	299672	5ef3832ddd7d5a0f19b24f20	627224973	1	main_slash	7	advance_on_keypress_SLASH	96	stimuli_distractor_diamondtriangles.svg	stimuli_target_circlediamonds.svg	14	yes	57	0	187
6.6.1	win	2022-12-23	23:18:00	23:23:03	301101	5ef3832ddd7d5a0f19b24f20	627224973	1	main_slash	7	main_slash	97	stimuli_target_diamondsquares.svg	stimuli_distractor_diamondtriangles.svg	24	yes	53	1	605
6.6.1	win	2022-12-23	23:18:00	23:23:03	301101	5ef3832ddd7d5a0f19b24f20	627224973	1	main_slash	7	advance_on_keypress_SLASH	98	stimuli_target_diamondsquares.svg	stimuli_distractor_diamondtriangles.svg	24	yes	57	0	146
6.6.1	win	2022-12-23	23:18:00	23:23:06	303895	5ef3832ddd7d5a0f19b24f20	627224973	1	main_slash	7	main_slash	99	stimuli_distractor_diamondtriangles.svg	stimuli_distractor_diamondtriangles.svg	40	no	0	1	2000
6.6.1	win	2022-12-23	23:18:00	23:23:06	303895	5ef3832ddd7d5a0f19b24f20	627224973	1	main_slash	7	advance_on_keypress_SLASH	100	stimuli_distractor_diamondtriangles.svg	stimuli_distractor_diamondtriangles.svg	40	no	57	0	2174
6.6.1	win	2022-12-23	23:18:00	23:23:10	308092	5ef3832ddd7d5a0f19b24f20	627224973	1	main_slash	7	main_slash	101	stimuli_target_diamondcircles.svg	stimuli_distractor_diamondtriangles.svg	23	yes	53	1	1381
6.6.1	win	2022-12-23	23:18:00	23:23:10	308092	5ef3832ddd7d5a0f19b24f20	627224973	1	main_slash	7	advance_on_keypress_SLASH	102	stimuli_target_diamondcircles.svg	stimuli_distractor_diamondtriangles.svg	23	yes	57	0	229
6.6.1	win	2022-12-23	23:18:00	23:23:13	310978	5ef3832ddd7d5a0f19b24f20	627224973	1	main_slash	7	main_slash	103	stimuli_target_trianglecircles.svg	stimuli_distractor_trianglediamonds.svg	17	yes	0	0	2000
6.6.1	win	2022-12-23	23:18:00	23:23:13	310978	5ef3832ddd7d5a0f19b24f20	627224973	1	main_slash	7	advance_on_keypress_SLASH	104	stimuli_target_trianglecircles.svg	stimuli_distractor_trianglediamonds.svg	17	yes	57	0	545
6.6.1	win	2022-12-23	23:18:00	23:23:16	313726	5ef3832ddd7d5a0f19b24f20	627224973	1	main_slash	7	main_slash	105	stimuli_distractor_trianglediamonds.svg	stimuli_target_circlediamonds.svg	10	yes	53	1	1547
6.6.1	win	2022-12-23	23:18:00	23:23:16	313726	5ef3832ddd7d5a0f19b24f20	627224973	1	main_slash	7	advance_on_keypress_SLASH	106	stimuli_distractor_trianglediamonds.svg	stimuli_target_circlediamonds.svg	10	yes	57	0	341
6.6.1	win	2022-12-23	23:18:00	23:23:18	315540	5ef3832ddd7d5a0f19b24f20	627224973	1	main_slash	7	main_slash	107	stimuli_target_squaretriangles.svg	stimuli_distractor_trianglediamonds.svg	3	yes	53	1	828
6.6.1	win	2022-12-23	23:18:00	23:23:18	315540	5ef3832ddd7d5a0f19b24f20	627224973	1	main_slash	7	advance_on_keypress_SLASH	108	stimuli_target_squaretriangles.svg	stimuli_distractor_trianglediamonds.svg	3	yes	57	0	148
6.6.1	win	2022-12-23	23:18:00	23:23:19	316979	5ef3832ddd7d5a0f19b24f20	627224973	1	main_slash	7	main_slash	109	stimuli_target_circletriangles.svg	stimuli_distractor_diamondtriangles.svg	5	yes	53	1	650
6.6.1	win	2022-12-23	23:18:00	23:23:19	316979	5ef3832ddd7d5a0f19b24f20	627224973	1	main_slash	7	advance_on_keypress_SLASH	110	stimuli_target_circletriangles.svg	stimuli_distractor_diamondtriangles.svg	5	yes	57	0	137
6.6.1	win	2022-12-23	23:18:00	23:23:22	319762	5ef3832ddd7d5a0f19b24f20	627224973	1	main_slash	7	main_slash	111	stimuli_distractor_trianglediamonds.svg	stimuli_distractor_trianglediamonds.svg	34	no	0	1	2000
6.6.1	win	2022-12-23	23:18:00	23:23:22	319762	5ef3832ddd7d5a0f19b24f20	627224973	1	main_slash	7	advance_on_keypress_SLASH	112	stimuli_distractor_trianglediamonds.svg	stimuli_distractor_trianglediamonds.svg	34	no	57	0	548
6.6.1	win	2022-12-23	23:18:00	23:23:24	321662	5ef3832ddd7d5a0f19b24f20	627224973	1	main_slash	7	main_slash	113	stimuli_target_trianglesquares.svg	stimuli_distractor_diamondtriangles.svg	22	yes	53	1	700
6.6.1	win	2022-12-23	23:18:00	23:23:24	321662	5ef3832ddd7d5a0f19b24f20	627224973	1	main_slash	7	advance_on_keypress_SLASH	114	stimuli_target_trianglesquares.svg	stimuli_distractor_diamondtriangles.svg	22	yes	57	0	107
6.6.1	win	2022-12-23	23:18:00	23:23:27	324414	5ef3832ddd7d5a0f19b24f20	627224973	1	main_slash	7	main_slash	115	stimuli_distractor_trianglediamonds.svg	stimuli_distractor_diamondtriangles.svg	36	no	0	1	2000
6.6.1	win	2022-12-23	23:18:00	23:23:27	324414	5ef3832ddd7d5a0f19b24f20	627224973	1	main_slash	7	advance_on_keypress_SLASH	116	stimuli_distractor_trianglediamonds.svg	stimuli_distractor_diamondtriangles.svg	36	no	57	0	932
6.6.1	win	2022-12-23	23:18:00	23:23:30	327404	5ef3832ddd7d5a0f19b24f20	627224973	1	main_slash	7	main_slash	117	stimuli_target_squaretriangles.svg	stimuli_distractor_diamondtriangles.svg	7	yes	53	1	1407
6.6.1	win	2022-12-23	23:18:00	23:23:30	327404	5ef3832ddd7d5a0f19b24f20	627224973	1	main_slash	7	advance_on_keypress_SLASH	118	stimuli_target_squaretriangles.svg	stimuli_distractor_diamondtriangles.svg	7	yes	57	0	3941
6.6.1	win	2022-12-23	23:18:00	23:23:35	333023	5ef3832ddd7d5a0f19b24f20	627224973	1	main_slash	7	main_slash	119	stimuli_distractor_trianglediamonds.svg	stimuli_target_squaretriangles.svg	11	yes	53	1	1043
6.6.1	win	2022-12-23	23:18:00	23:23:35	333023	5ef3832ddd7d5a0f19b24f20	627224973	1	main_slash	7	advance_on_keypress_SLASH	120	stimuli_distractor_trianglediamonds.svg	stimuli_target_squaretriangles.svg	11	yes	57	0	204
6.6.1	win	2022-12-23	23:18:00	23:23:38	335863	5ef3832ddd7d5a0f19b24f20	627224973	1	main_slash	7	main_slash	121	stimuli_distractor_trianglediamonds.svg	stimuli_distractor_trianglediamonds.svg	33	no	0	1	2000
6.6.1	win	2022-12-23	23:18:00	23:23:38	335863	5ef3832ddd7d5a0f19b24f20	627224973	1	main_slash	7	advance_on_keypress_SLASH	122	stimuli_distractor_trianglediamonds.svg	stimuli_distractor_trianglediamonds.svg	33	no	57	0	726
6.6.1	win	2022-12-23	23:18:00	23:23:40	337931	5ef3832ddd7d5a0f19b24f20	627224973	1	main_slash	7	main_slash	123	stimuli_target_trianglecircles.svg	stimuli_distractor_diamondtriangles.svg	21	yes	53	1	701
6.6.1	win	2022-12-23	23:18:00	23:23:40	337931	5ef3832ddd7d5a0f19b24f20	627224973	1	main_slash	7	advance_on_keypress_SLASH	124	stimuli_target_trianglecircles.svg	stimuli_distractor_diamondtriangles.svg	21	yes	57	0	158
6.6.1	win	2022-12-23	23:18:00	23:23:42	339410	5ef3832ddd7d5a0f19b24f20	627224973	1	main_slash	7	main_slash	125	stimuli_distractor_diamondtriangles.svg	stimuli_target_squaretriangles.svg	15	yes	53	1	680
6.6.1	win	2022-12-23	23:18:00	23:23:42	339410	5ef3832ddd7d5a0f19b24f20	627224973	1	main_slash	7	advance_on_keypress_SLASH	126	stimuli_distractor_diamondtriangles.svg	stimuli_target_squaretriangles.svg	15	yes	57	0	148
6.6.1	win	2022-12-23	23:18:00	23:23:43	340854	5ef3832ddd7d5a0f19b24f20	627224973	1	main_slash	7	main_slash	127	stimuli_target_circletriangles.svg	stimuli_distractor_trianglediamonds.svg	1	yes	53	1	641
6.6.1	win	2022-12-23	23:18:00	23:23:43	340854	5ef3832ddd7d5a0f19b24f20	627224973	1	main_slash	7	advance_on_keypress_SLASH	128	stimuli_target_circletriangles.svg	stimuli_distractor_trianglediamonds.svg	1	yes	57	0	144
6.6.1	win	2022-12-23	23:18:00	23:23:44	342282	5ef3832ddd7d5a0f19b24f20	627224973	1	main_slash	7	main_slash	129	stimuli_distractor_diamondtriangles.svg	stimuli_target_diamondsquares.svg	32	yes	53	1	652
6.6.1	win	2022-12-23	23:18:00	23:23:44	342282	5ef3832ddd7d5a0f19b24f20	627224973	1	main_slash	7	advance_on_keypress_SLASH	130	stimuli_distractor_diamondtriangles.svg	stimuli_target_diamondsquares.svg	32	yes	57	0	139
6.6.1	win	2022-12-23	23:18:00	23:23:46	343757	5ef3832ddd7d5a0f19b24f20	627224973	1	main_slash	7	main_slash	131	stimuli_distractor_diamondtriangles.svg	stimuli_target_trianglecircles.svg	29	yes	53	1	693
6.6.1	win	2022-12-23	23:18:00	23:23:46	343757	5ef3832ddd7d5a0f19b24f20	627224973	1	main_slash	7	advance_on_keypress_SLASH	132	stimuli_distractor_diamondtriangles.svg	stimuli_target_trianglecircles.svg	29	yes	57	0	157
6.6.1	win	2022-12-23	23:18:00	23:23:49	346547	5ef3832ddd7d5a0f19b24f20	627224973	1	main_slash	7	main_slash	133	stimuli_distractor_trianglediamonds.svg	stimuli_target_squarediamonds.svg	12	yes	0	0	2000
6.6.1	win	2022-12-23	23:18:00	23:23:49	346547	5ef3832ddd7d5a0f19b24f20	627224973	1	main_slash	7	advance_on_keypress_SLASH	134	stimuli_distractor_trianglediamonds.svg	stimuli_target_squarediamonds.svg	12	yes	57	0	738
6.6.1	win	2022-12-23	23:18:00	23:23:52	349930	5ef3832ddd7d5a0f19b24f20	627224973	1	main_slash	7	main_slash	135	stimuli_target_squarediamonds.svg	stimuli_distractor_trianglediamonds.svg	4	yes	0	0	2000
6.6.1	win	2022-12-23	23:18:00	23:23:52	349930	5ef3832ddd7d5a0f19b24f20	627224973	1	main_slash	7	advance_on_keypress_SLASH	136	stimuli_target_squarediamonds.svg	stimuli_distractor_trianglediamonds.svg	4	yes	57	0	6236
6.6.1	win	2022-12-23	23:18:00	23:24:01	358814	5ef3832ddd7d5a0f19b24f20	627224973	1	main_slash	7	main_slash	137	stimuli_distractor_diamondtriangles.svg	stimuli_distractor_trianglediamonds.svg	38	no	0	1	2000
6.6.1	win	2022-12-23	23:18:00	23:24:01	358814	5ef3832ddd7d5a0f19b24f20	627224973	1	main_slash	7	advance_on_keypress_SLASH	138	stimuli_distractor_diamondtriangles.svg	stimuli_distractor_trianglediamonds.svg	38	no	57	0	502
6.6.1	win	2022-12-23	23:18:00	23:24:03	360590	5ef3832ddd7d5a0f19b24f20	627224973	1	main_slash	7	main_slash	139	stimuli_distractor_diamondtriangles.svg	stimuli_target_squarediamonds.svg	16	yes	53	1	626
6.6.1	win	2022-12-23	23:18:00	23:24:03	360590	5ef3832ddd7d5a0f19b24f20	627224973	1	main_slash	7	advance_on_keypress_SLASH	140	stimuli_distractor_diamondtriangles.svg	stimuli_target_squarediamonds.svg	16	yes	57	0	106
6.6.1	win	2022-12-23	23:18:00	23:24:04	361878	5ef3832ddd7d5a0f19b24f20	627224973	1	main_slash	7	main_slash	141	stimuli_distractor_trianglediamonds.svg	stimuli_target_trianglesquares.svg	26	yes	53	1	548
6.6.1	win	2022-12-23	23:18:00	23:24:04	361878	5ef3832ddd7d5a0f19b24f20	627224973	1	main_slash	7	advance_on_keypress_SLASH	142	stimuli_distractor_trianglediamonds.svg	stimuli_target_trianglesquares.svg	26	yes	57	0	96
6.6.1	win	2022-12-23	23:18:00	23:24:07	364615	5ef3832ddd7d5a0f19b24f20	627224973	1	main_slash	7	main_slash	143	stimuli_distractor_trianglediamonds.svg	stimuli_distractor_diamondtriangles.svg	35	no	0	1	2000
6.6.1	win	2022-12-23	23:18:00	23:24:07	364615	5ef3832ddd7d5a0f19b24f20	627224973	1	main_slash	7	advance_on_keypress_SLASH	144	stimuli_distractor_trianglediamonds.svg	stimuli_distractor_diamondtriangles.svg	35	no	57	0	290
6.6.1	win	2022-12-23	23:18:00	23:24:10	367548	5ef3832ddd7d5a0f19b24f20	627224973	1	main_slash	7	main_slash	145	stimuli_distractor_diamondtriangles.svg	stimuli_distractor_diamondtriangles.svg	39	no	0	1	2000
6.6.1	win	2022-12-23	23:18:00	23:24:10	367548	5ef3832ddd7d5a0f19b24f20	627224973	1	main_slash	7	advance_on_keypress_SLASH	146	stimuli_distractor_diamondtriangles.svg	stimuli_distractor_diamondtriangles.svg	39	no	57	0	348
6.6.1	win	2022-12-23	23:18:00	23:24:13	370548	5ef3832ddd7d5a0f19b24f20	627224973	1	main_slash	7	main_slash	147	stimuli_distractor_diamondtriangles.svg	stimuli_target_diamondcircles.svg	31	yes	0	0	2000
6.6.1	win	2022-12-23	23:18:00	23:24:13	370548	5ef3832ddd7d5a0f19b24f20	627224973	1	main_slash	7	advance_on_keypress_SLASH	148	stimuli_distractor_diamondtriangles.svg	stimuli_target_diamondcircles.svg	31	yes	57	0	1754
6.6.1	win	2022-12-23	23:18:00	23:24:16	373535	5ef3832ddd7d5a0f19b24f20	627224973	1	main_slash	7	main_slash	149	stimuli_target_diamondsquares.svg	stimuli_distractor_trianglediamonds.svg	20	yes	53	1	586
6.6.1	win	2022-12-23	23:18:00	23:24:16	373535	5ef3832ddd7d5a0f19b24f20	627224973	1	main_slash	7	advance_on_keypress_SLASH	150	stimuli_target_diamondsquares.svg	stimuli_distractor_trianglediamonds.svg	20	yes	57	0	827
6.6.1	win	2022-12-23	23:18:00	23:24:19	376998	5ef3832ddd7d5a0f19b24f20	627224973	1	main_slash	7	main_slash	151	stimuli_target_trianglesquares.svg	stimuli_distractor_trianglediamonds.svg	18	yes	0	0	2000
6.6.1	win	2022-12-23	23:18:00	23:24:19	376998	5ef3832ddd7d5a0f19b24f20	627224973	1	main_slash	7	advance_on_keypress_SLASH	152	stimuli_target_trianglesquares.svg	stimuli_distractor_trianglediamonds.svg	18	yes	57	0	638
6.6.1	win	2022-12-23	23:18:00	23:24:21	379029	5ef3832ddd7d5a0f19b24f20	627224973	1	main_slash	7	main_slash	153	stimuli_distractor_trianglediamonds.svg	stimuli_target_diamondsquares.svg	28	yes	53	1	747
6.6.1	win	2022-12-23	23:18:00	23:24:21	379029	5ef3832ddd7d5a0f19b24f20	627224973	1	main_slash	7	advance_on_keypress_SLASH	154	stimuli_distractor_trianglediamonds.svg	stimuli_target_diamondsquares.svg	28	yes	57	0	168
6.6.1	win	2022-12-23	23:18:00	23:24:23	380522	5ef3832ddd7d5a0f19b24f20	627224973	1	main_slash	7	main_slash	155	stimuli_distractor_trianglediamonds.svg	stimuli_target_trianglecircles.svg	25	yes	53	1	674
6.6.1	win	2022-12-23	23:18:00	23:24:23	380522	5ef3832ddd7d5a0f19b24f20	627224973	1	main_slash	7	advance_on_keypress_SLASH	156	stimuli_distractor_trianglediamonds.svg	stimuli_target_trianglecircles.svg	25	yes	57	0	162
6.6.1	win	2022-12-23	23:18:00	23:24:24	381881	5ef3832ddd7d5a0f19b24f20	627224973	1	main_slash	7	main_slash	157	stimuli_distractor_trianglediamonds.svg	stimuli_target_circletriangles.svg	9	yes	53	1	550
6.6.1	win	2022-12-23	23:18:00	23:24:24	381881	5ef3832ddd7d5a0f19b24f20	627224973	1	main_slash	7	advance_on_keypress_SLASH	158	stimuli_distractor_trianglediamonds.svg	stimuli_target_circletriangles.svg	9	yes	57	0	117
6.6.1	win	2022-12-23	23:18:00	23:24:25	383261	5ef3832ddd7d5a0f19b24f20	627224973	1	main_slash	7	main_slash	159	stimuli_target_diamondcircles.svg	stimuli_distractor_trianglediamonds.svg	19	yes	53	1	612
6.6.1	win	2022-12-23	23:18:00	23:24:25	383261	5ef3832ddd7d5a0f19b24f20	627224973	1	main_slash	7	advance_on_keypress_SLASH	160	stimuli_target_diamondcircles.svg	stimuli_distractor_trianglediamonds.svg	19	yes	57	0	93
6.6.1	win	2022-12-23	23:18:00	23:24:39	396934	5ef3832ddd7d5a0f19b24f20	627224973	1	practice_z	9	practice_z	1	stimuli_target_circlediamonds.svg	stimuli_distractor_trianglediamonds.svg	4	yes	44	1	1781
6.6.1	win	2022-12-23	23:18:00	23:24:39	396934	5ef3832ddd7d5a0f19b24f20	627224973	1	practice_z	9	advance_on_keypress_ZEE	2	stimuli_target_circlediamonds.svg	stimuli_distractor_trianglediamonds.svg	4	yes	57	0	593
6.6.1	win	2022-12-23	23:18:00	23:24:42	400119	5ef3832ddd7d5a0f19b24f20	627224973	1	practice_z	9	practice_z	3	stimuli_distractor_trianglediamonds.svg	stimuli_target_diamondcircles.svg	12	yes	44	1	949
6.6.1	win	2022-12-23	23:18:00	23:24:42	400119	5ef3832ddd7d5a0f19b24f20	627224973	1	practice_z	9	advance_on_keypress_ZEE	4	stimuli_distractor_trianglediamonds.svg	stimuli_target_diamondcircles.svg	12	yes	57	0	535
6.6.1	win	2022-12-23	23:18:00	23:24:46	404301	5ef3832ddd7d5a0f19b24f20	627224973	1	practice_z	9	practice_z	5	stimuli_distractor_trianglediamonds.svg	stimuli_distractor_diamondtriangles.svg	16	no	0	1	2000
6.6.1	win	2022-12-23	23:18:00	23:24:46	404301	5ef3832ddd7d5a0f19b24f20	627224973	1	practice_z	9	advance_on_keypress_ZEE	6	stimuli_distractor_trianglediamonds.svg	stimuli_distractor_diamondtriangles.svg	16	no	57	0	515
6.6.1	win	2022-12-23	23:18:00	23:24:51	408469	5ef3832ddd7d5a0f19b24f20	627224973	1	practice_z	9	practice_z	7	stimuli_distractor_diamondtriangles.svg	stimuli_distractor_diamondtriangles.svg	13	no	0	1	2000
6.6.1	win	2022-12-23	23:18:00	23:24:51	408469	5ef3832ddd7d5a0f19b24f20	627224973	1	practice_z	9	advance_on_keypress_ZEE	8	stimuli_distractor_diamondtriangles.svg	stimuli_distractor_diamondtriangles.svg	13	no	57	0	413
6.6.1	win	2022-12-23	23:18:00	23:24:53	411333	5ef3832ddd7d5a0f19b24f20	627224973	1	practice_z	9	practice_z	9	stimuli_target_diamondsquares.svg	stimuli_distractor_trianglediamonds.svg	6	yes	44	1	797
6.6.1	win	2022-12-23	23:18:00	23:24:53	411333	5ef3832ddd7d5a0f19b24f20	627224973	1	practice_z	9	advance_on_keypress_ZEE	10	stimuli_target_diamondsquares.svg	stimuli_distractor_trianglediamonds.svg	6	yes	57	0	216
6.6.1	win	2022-12-23	23:18:00	23:24:56	413945	5ef3832ddd7d5a0f19b24f20	627224973	1	practice_z	9	practice_z	11	stimuli_distractor_diamondtriangles.svg	stimuli_target_diamondcircles.svg	8	yes	44	1	741
6.6.1	win	2022-12-23	23:18:00	23:24:56	413945	5ef3832ddd7d5a0f19b24f20	627224973	1	practice_z	9	advance_on_keypress_ZEE	12	stimuli_distractor_diamondtriangles.svg	stimuli_target_diamondcircles.svg	8	yes	57	0	440
6.6.1	win	2022-12-23	23:18:00	23:24:59	416846	5ef3832ddd7d5a0f19b24f20	627224973	1	practice_z	9	practice_z	13	stimuli_target_squarediamonds.svg	stimuli_distractor_trianglediamonds.svg	5	yes	44	1	826
6.6.1	win	2022-12-23	23:18:00	23:24:59	416846	5ef3832ddd7d5a0f19b24f20	627224973	1	practice_z	9	advance_on_keypress_ZEE	14	stimuli_target_squarediamonds.svg	stimuli_distractor_trianglediamonds.svg	5	yes	57	0	4752
6.6.1	win	2022-12-23	23:18:00	23:25:07	425252	5ef3832ddd7d5a0f19b24f20	627224973	1	practice_z	9	practice_z	15	stimuli_distractor_diamondtriangles.svg	stimuli_distractor_trianglediamonds.svg	14	no	0	1	2000
6.6.1	win	2022-12-23	23:18:00	23:25:07	425252	5ef3832ddd7d5a0f19b24f20	627224973	1	practice_z	9	advance_on_keypress_ZEE	16	stimuli_distractor_diamondtriangles.svg	stimuli_distractor_trianglediamonds.svg	14	no	57	0	1075
6.6.1	win	2022-12-23	23:18:00	23:25:11	428864	5ef3832ddd7d5a0f19b24f20	627224973	1	practice_z	9	practice_z	17	stimuli_distractor_diamondtriangles.svg	stimuli_target_trianglecircles.svg	9	yes	44	1	893
6.6.1	win	2022-12-23	23:18:00	23:25:11	428864	5ef3832ddd7d5a0f19b24f20	627224973	1	practice_z	9	advance_on_keypress_ZEE	18	stimuli_distractor_diamondtriangles.svg	stimuli_target_trianglecircles.svg	9	yes	57	0	554
6.6.1	win	2022-12-23	23:18:00	23:25:15	432410	5ef3832ddd7d5a0f19b24f20	627224973	1	practice_z	9	practice_z	19	stimuli_target_circlediamonds.svg	stimuli_distractor_diamondtriangles.svg	1	yes	44	1	1339
6.6.1	win	2022-12-23	23:18:00	23:25:15	432410	5ef3832ddd7d5a0f19b24f20	627224973	1	practice_z	9	advance_on_keypress_ZEE	20	stimuli_target_circlediamonds.svg	stimuli_distractor_diamondtriangles.svg	1	yes	57	0	479
6.6.1	win	2022-12-23	23:18:00	23:25:18	435520	5ef3832ddd7d5a0f19b24f20	627224973	1	practice_z	9	practice_z	21	stimuli_target_diamondsquares.svg	stimuli_distractor_diamondtriangles.svg	3	yes	44	1	983
6.6.1	win	2022-12-23	23:18:00	23:25:18	435520	5ef3832ddd7d5a0f19b24f20	627224973	1	practice_z	9	advance_on_keypress_ZEE	22	stimuli_target_diamondsquares.svg	stimuli_distractor_diamondtriangles.svg	3	yes	57	0	460
6.6.1	win	2022-12-23	23:18:00	23:25:21	438419	5ef3832ddd7d5a0f19b24f20	627224973	1	practice_z	9	practice_z	23	stimuli_target_squarediamonds.svg	stimuli_distractor_diamondtriangles.svg	2	yes	44	1	781
6.6.1	win	2022-12-23	23:18:00	23:25:21	438419	5ef3832ddd7d5a0f19b24f20	627224973	1	practice_z	9	advance_on_keypress_ZEE	24	stimuli_target_squarediamonds.svg	stimuli_distractor_diamondtriangles.svg	2	yes	57	0	128
6.6.1	win	2022-12-23	23:18:00	23:25:23	440940	5ef3832ddd7d5a0f19b24f20	627224973	1	practice_z	9	practice_z	25	stimuli_distractor_trianglediamonds.svg	stimuli_target_squarediamonds.svg	11	yes	44	1	736
6.6.1	win	2022-12-23	23:18:00	23:25:23	440940	5ef3832ddd7d5a0f19b24f20	627224973	1	practice_z	9	advance_on_keypress_ZEE	26	stimuli_distractor_trianglediamonds.svg	stimuli_target_squarediamonds.svg	11	yes	57	0	242
6.6.1	win	2022-12-23	23:18:00	23:25:26	443547	5ef3832ddd7d5a0f19b24f20	627224973	1	practice_z	9	practice_z	27	stimuli_distractor_trianglediamonds.svg	stimuli_target_circlediamonds.svg	10	yes	44	1	725
6.6.1	win	2022-12-23	23:18:00	23:25:26	443547	5ef3832ddd7d5a0f19b24f20	627224973	1	practice_z	9	advance_on_keypress_ZEE	28	stimuli_distractor_trianglediamonds.svg	stimuli_target_circlediamonds.svg	10	yes	57	0	463
6.6.1	win	2022-12-23	23:18:00	23:25:30	447671	5ef3832ddd7d5a0f19b24f20	627224973	1	practice_z	9	practice_z	29	stimuli_distractor_trianglediamonds.svg	stimuli_distractor_trianglediamonds.svg	15	no	0	1	2000
6.6.1	win	2022-12-23	23:18:00	23:25:30	447671	5ef3832ddd7d5a0f19b24f20	627224973	1	practice_z	9	advance_on_keypress_ZEE	30	stimuli_distractor_trianglediamonds.svg	stimuli_distractor_trianglediamonds.svg	15	no	57	0	520
6.6.1	win	2022-12-23	23:18:00	23:25:33	451024	5ef3832ddd7d5a0f19b24f20	627224973	1	practice_z	9	practice_z	31	stimuli_distractor_diamondtriangles.svg	stimuli_target_circletriangles.svg	7	yes	44	1	1185
6.6.1	win	2022-12-23	23:18:00	23:25:33	451024	5ef3832ddd7d5a0f19b24f20	627224973	1	practice_z	9	advance_on_keypress_ZEE	32	stimuli_distractor_diamondtriangles.svg	stimuli_target_circletriangles.svg	7	yes	57	0	938
6.6.1	win	2022-12-23	23:18:00	23:25:38	455920	5ef3832ddd7d5a0f19b24f20	627224973	1	main_z	11	main_z	1	stimuli_distractor_trianglediamonds.svg	stimuli_target_trianglecircles.svg	25	yes	44	1	1268
6.6.1	win	2022-12-23	23:18:00	23:25:38	455920	5ef3832ddd7d5a0f19b24f20	627224973	1	main_z	11	advance_on_keypress_ZEE	2	stimuli_distractor_trianglediamonds.svg	stimuli_target_trianglecircles.svg	25	yes	57	0	539
6.6.1	win	2022-12-23	23:18:00	23:25:40	457838	5ef3832ddd7d5a0f19b24f20	627224973	1	main_z	11	main_z	3	stimuli_distractor_diamondtriangles.svg	stimuli_target_circlediamonds.svg	14	yes	44	1	736
6.6.1	win	2022-12-23	23:18:00	23:25:40	457838	5ef3832ddd7d5a0f19b24f20	627224973	1	main_z	11	advance_on_keypress_ZEE	4	stimuli_distractor_diamondtriangles.svg	stimuli_target_circlediamonds.svg	14	yes	57	0	140
6.6.1	win	2022-12-23	23:18:00	23:25:41	459292	5ef3832ddd7d5a0f19b24f20	627224973	1	main_z	11	main_z	5	stimuli_distractor_trianglediamonds.svg	stimuli_target_circlediamonds.svg	10	yes	44	1	673
6.6.1	win	2022-12-23	23:18:00	23:25:41	459292	5ef3832ddd7d5a0f19b24f20	627224973	1	main_z	11	advance_on_keypress_ZEE	6	stimuli_distractor_trianglediamonds.svg	stimuli_target_circlediamonds.svg	10	yes	57	0	109
6.6.1	win	2022-12-23	23:18:00	23:25:43	460549	5ef3832ddd7d5a0f19b24f20	627224973	1	main_z	11	main_z	7	stimuli_target_squaretriangles.svg	stimuli_distractor_diamondtriangles.svg	7	yes	44	1	514
6.6.1	win	2022-12-23	23:18:00	23:25:43	460549	5ef3832ddd7d5a0f19b24f20	627224973	1	main_z	11	advance_on_keypress_ZEE	8	stimuli_target_squaretriangles.svg	stimuli_distractor_diamondtriangles.svg	7	yes	57	0	247
6.6.1	win	2022-12-23	23:18:00	23:25:44	462096	5ef3832ddd7d5a0f19b24f20	627224973	1	main_z	11	main_z	9	stimuli_target_diamondsquares.svg	stimuli_distractor_diamondtriangles.svg	24	yes	44	1	644
6.6.1	win	2022-12-23	23:18:00	23:25:44	462096	5ef3832ddd7d5a0f19b24f20	627224973	1	main_z	11	advance_on_keypress_ZEE	10	stimuli_target_diamondsquares.svg	stimuli_distractor_diamondtriangles.svg	24	yes	57	0	98
6.6.1	win	2022-12-23	23:18:00	23:25:46	463456	5ef3832ddd7d5a0f19b24f20	627224973	1	main_z	11	main_z	11	stimuli_distractor_diamondtriangles.svg	stimuli_target_diamondsquares.svg	32	yes	44	1	620
6.6.1	win	2022-12-23	23:18:00	23:25:46	463456	5ef3832ddd7d5a0f19b24f20	627224973	1	main_z	11	advance_on_keypress_ZEE	12	stimuli_distractor_diamondtriangles.svg	stimuli_target_diamondsquares.svg	32	yes	57	0	82
6.6.1	win	2022-12-23	23:18:00	23:25:47	464702	5ef3832ddd7d5a0f19b24f20	627224973	1	main_z	11	main_z	13	stimuli_distractor_trianglediamonds.svg	stimuli_target_diamondsquares.svg	28	yes	44	1	517
6.6.1	win	2022-12-23	23:18:00	23:25:47	464702	5ef3832ddd7d5a0f19b24f20	627224973	1	main_z	11	advance_on_keypress_ZEE	14	stimuli_distractor_trianglediamonds.svg	stimuli_target_diamondsquares.svg	28	yes	57	0	82
6.6.1	win	2022-12-23	23:18:00	23:25:50	467436	5ef3832ddd7d5a0f19b24f20	627224973	1	main_z	11	main_z	15	stimuli_distractor_diamondtriangles.svg	stimuli_distractor_diamondtriangles.svg	40	no	0	1	2000
6.6.1	win	2022-12-23	23:18:00	23:25:50	467436	5ef3832ddd7d5a0f19b24f20	627224973	1	main_z	11	advance_on_keypress_ZEE	16	stimuli_distractor_diamondtriangles.svg	stimuli_distractor_diamondtriangles.svg	40	no	57	0	4578
6.6.1	win	2022-12-23	23:18:00	23:25:55	473342	5ef3832ddd7d5a0f19b24f20	627224973	1	main_z	11	main_z	17	stimuli_distractor_diamondtriangles.svg	stimuli_target_diamondcircles.svg	31	yes	44	1	673
6.6.1	win	2022-12-23	23:18:00	23:25:55	473342	5ef3832ddd7d5a0f19b24f20	627224973	1	main_z	11	advance_on_keypress_ZEE	18	stimuli_distractor_diamondtriangles.svg	stimuli_target_diamondcircles.svg	31	yes	57	0	163
6.6.1	win	2022-12-23	23:18:00	23:25:57	474742	5ef3832ddd7d5a0f19b24f20	627224973	1	main_z	11	main_z	19	stimuli_target_circlediamonds.svg	stimuli_distractor_trianglediamonds.svg	2	yes	44	1	589
6.6.1	win	2022-12-23	23:18:00	23:25:57	474742	5ef3832ddd7d5a0f19b24f20	627224973	1	main_z	11	advance_on_keypress_ZEE	20	stimuli_target_circlediamonds.svg	stimuli_distractor_trianglediamonds.svg	2	yes	57	0	93
6.6.1	win	2022-12-23	23:18:00	23:25:58	476334	5ef3832ddd7d5a0f19b24f20	627224973	1	main_z	11	main_z	21	stimuli_target_trianglesquares.svg	stimuli_distractor_trianglediamonds.svg	18	yes	44	1	865
6.6.1	win	2022-12-23	23:18:00	23:25:58	476334	5ef3832ddd7d5a0f19b24f20	627224973	1	main_z	11	advance_on_keypress_ZEE	22	stimuli_target_trianglesquares.svg	stimuli_distractor_trianglediamonds.svg	18	yes	57	0	96
6.6.1	win	2022-12-23	23:18:00	23:26:00	477624	5ef3832ddd7d5a0f19b24f20	627224973	1	main_z	11	main_z	23	stimuli_target_circletriangles.svg	stimuli_distractor_trianglediamonds.svg	1	yes	44	1	556
6.6.1	win	2022-12-23	23:18:00	23:26:00	477624	5ef3832ddd7d5a0f19b24f20	627224973	1	main_z	11	advance_on_keypress_ZEE	24	stimuli_target_circletriangles.svg	stimuli_distractor_trianglediamonds.svg	1	yes	57	0	83
6.6.1	win	2022-12-23	23:18:00	23:26:01	478862	5ef3832ddd7d5a0f19b24f20	627224973	1	main_z	11	main_z	25	stimuli_distractor_trianglediamonds.svg	stimuli_target_circletriangles.svg	9	yes	44	1	508
6.6.1	win	2022-12-23	23:18:00	23:26:01	478862	5ef3832ddd7d5a0f19b24f20	627224973	1	main_z	11	advance_on_keypress_ZEE	26	stimuli_distractor_trianglediamonds.svg	stimuli_target_circletriangles.svg	9	yes	57	0	66
6.6.1	win	2022-12-23	23:18:00	23:26:04	481569	5ef3832ddd7d5a0f19b24f20	627224973	1	main_z	11	main_z	27	stimuli_distractor_trianglediamonds.svg	stimuli_distractor_diamondtriangles.svg	35	no	0	1	2000
6.6.1	win	2022-12-23	23:18:00	23:26:04	481569	5ef3832ddd7d5a0f19b24f20	627224973	1	main_z	11	advance_on_keypress_ZEE	28	stimuli_distractor_trianglediamonds.svg	stimuli_distractor_diamondtriangles.svg	35	no	57	0	470
6.6.1	win	2022-12-23	23:18:00	23:26:06	483392	5ef3832ddd7d5a0f19b24f20	627224973	1	main_z	11	main_z	29	stimuli_target_squarediamonds.svg	stimuli_distractor_diamondtriangles.svg	8	yes	44	1	706
6.6.1	win	2022-12-23	23:18:00	23:26:06	483392	5ef3832ddd7d5a0f19b24f20	627224973	1	main_z	11	advance_on_keypress_ZEE	30	stimuli_target_squarediamonds.svg	stimuli_distractor_diamondtriangles.svg	8	yes	57	0	52
6.6.1	win	2022-12-23	23:18:00	23:26:08	485404	5ef3832ddd7d5a0f19b24f20	627224973	1	main_z	11	main_z	31	stimuli_distractor_trianglediamonds.svg	stimuli_distractor_diamondtriangles.svg	36	no	44	0	1318
6.6.1	win	2022-12-23	23:18:00	23:26:08	485404	5ef3832ddd7d5a0f19b24f20	627224973	1	main_z	11	advance_on_keypress_ZEE	32	stimuli_distractor_trianglediamonds.svg	stimuli_distractor_diamondtriangles.svg	36	no	57	0	68
6.6.1	win	2022-12-23	23:18:00	23:26:09	486819	5ef3832ddd7d5a0f19b24f20	627224973	1	main_z	11	main_z	33	stimuli_distractor_diamondtriangles.svg	stimuli_target_circletriangles.svg	13	yes	44	1	698
6.6.1	win	2022-12-23	23:18:00	23:26:09	486819	5ef3832ddd7d5a0f19b24f20	627224973	1	main_z	11	advance_on_keypress_ZEE	34	stimuli_distractor_diamondtriangles.svg	stimuli_target_circletriangles.svg	13	yes	57	0	55
6.6.1	win	2022-12-23	23:18:00	23:26:12	489520	5ef3832ddd7d5a0f19b24f20	627224973	1	main_z	11	main_z	35	stimuli_distractor_trianglediamonds.svg	stimuli_target_trianglesquares.svg	26	yes	0	0	2000
6.6.1	win	2022-12-23	23:18:00	23:26:12	489520	5ef3832ddd7d5a0f19b24f20	627224973	1	main_z	11	advance_on_keypress_ZEE	36	stimuli_distractor_trianglediamonds.svg	stimuli_target_trianglesquares.svg	26	yes	57	0	3577
6.6.1	win	2022-12-23	23:18:00	23:26:17	494411	5ef3832ddd7d5a0f19b24f20	627224973	1	main_z	11	main_z	37	stimuli_target_squarediamonds.svg	stimuli_distractor_trianglediamonds.svg	4	yes	44	1	673
6.6.1	win	2022-12-23	23:18:00	23:26:17	494411	5ef3832ddd7d5a0f19b24f20	627224973	1	main_z	11	advance_on_keypress_ZEE	38	stimuli_target_squarediamonds.svg	stimuli_distractor_trianglediamonds.svg	4	yes	57	0	59
6.6.1	win	2022-12-23	23:18:00	23:26:18	495982	5ef3832ddd7d5a0f19b24f20	627224973	1	main_z	11	main_z	39	stimuli_target_diamondcircles.svg	stimuli_distractor_diamondtriangles.svg	23	yes	44	1	879
6.6.1	win	2022-12-23	23:18:00	23:26:18	495982	5ef3832ddd7d5a0f19b24f20	627224973	1	main_z	11	advance_on_keypress_ZEE	40	stimuli_target_diamondcircles.svg	stimuli_distractor_diamondtriangles.svg	23	yes	57	0	64
6.6.1	win	2022-12-23	23:18:00	23:26:19	497333	5ef3832ddd7d5a0f19b24f20	627224973	1	main_z	11	main_z	41	stimuli_target_circlediamonds.svg	stimuli_distractor_diamondtriangles.svg	6	yes	44	1	646
6.6.1	win	2022-12-23	23:18:00	23:26:19	497333	5ef3832ddd7d5a0f19b24f20	627224973	1	main_z	11	advance_on_keypress_ZEE	42	stimuli_target_circlediamonds.svg	stimuli_distractor_diamondtriangles.svg	6	yes	57	0	57
6.6.1	win	2022-12-23	23:18:00	23:26:21	498702	5ef3832ddd7d5a0f19b24f20	627224973	1	main_z	11	main_z	43	stimuli_target_diamondsquares.svg	stimuli_distractor_trianglediamonds.svg	20	yes	44	1	665
6.6.1	win	2022-12-23	23:18:00	23:26:21	498702	5ef3832ddd7d5a0f19b24f20	627224973	1	main_z	11	advance_on_keypress_ZEE	44	stimuli_target_diamondsquares.svg	stimuli_distractor_trianglediamonds.svg	20	yes	57	0	42
6.6.1	win	2022-12-23	23:18:00	23:26:22	500038	5ef3832ddd7d5a0f19b24f20	627224973	1	main_z	11	main_z	45	stimuli_distractor_trianglediamonds.svg	stimuli_target_squarediamonds.svg	12	yes	44	1	651
6.6.1	win	2022-12-23	23:18:00	23:26:22	500038	5ef3832ddd7d5a0f19b24f20	627224973	1	main_z	11	advance_on_keypress_ZEE	46	stimuli_distractor_trianglediamonds.svg	stimuli_target_squarediamonds.svg	12	yes	57	0	53
6.6.1	win	2022-12-23	23:18:00	23:26:23	501339	5ef3832ddd7d5a0f19b24f20	627224973	1	main_z	11	main_z	47	stimuli_distractor_diamondtriangles.svg	stimuli_target_squarediamonds.svg	16	yes	44	1	601
6.6.1	win	2022-12-23	23:18:00	23:26:23	501339	5ef3832ddd7d5a0f19b24f20	627224973	1	main_z	11	advance_on_keypress_ZEE	48	stimuli_distractor_diamondtriangles.svg	stimuli_target_squarediamonds.svg	16	yes	57	0	59
6.6.1	win	2022-12-23	23:18:00	23:26:25	502630	5ef3832ddd7d5a0f19b24f20	627224973	1	main_z	11	main_z	49	stimuli_target_trianglecircles.svg	stimuli_distractor_trianglediamonds.svg	17	yes	44	1	592
6.6.1	win	2022-12-23	23:18:00	23:26:25	502630	5ef3832ddd7d5a0f19b24f20	627224973	1	main_z	11	advance_on_keypress_ZEE	50	stimuli_target_trianglecircles.svg	stimuli_distractor_trianglediamonds.svg	17	yes	57	0	32
6.6.1	win	2022-12-23	23:18:00	23:26:27	505304	5ef3832ddd7d5a0f19b24f20	627224973	1	main_z	11	main_z	51	stimuli_distractor_trianglediamonds.svg	stimuli_distractor_trianglediamonds.svg	34	no	0	1	2000
6.6.1	win	2022-12-23	23:18:00	23:26:27	505304	5ef3832ddd7d5a0f19b24f20	627224973	1	main_z	11	advance_on_keypress_ZEE	52	stimuli_distractor_trianglediamonds.svg	stimuli_distractor_trianglediamonds.svg	34	no	57	0	1719
6.6.1	win	2022-12-23	23:18:00	23:26:32	509671	5ef3832ddd7d5a0f19b24f20	627224973	1	main_z	11	main_z	53	stimuli_distractor_diamondtriangles.svg	stimuli_distractor_trianglediamonds.svg	38	no	0	1	2000
6.6.1	win	2022-12-23	23:18:00	23:26:32	509671	5ef3832ddd7d5a0f19b24f20	627224973	1	main_z	11	advance_on_keypress_ZEE	54	stimuli_distractor_diamondtriangles.svg	stimuli_distractor_trianglediamonds.svg	38	no	57	0	4213
6.6.1	win	2022-12-23	23:18:00	23:26:39	516538	5ef3832ddd7d5a0f19b24f20	627224973	1	main_z	11	main_z	55	stimuli_distractor_diamondtriangles.svg	stimuli_distractor_diamondtriangles.svg	39	no	0	1	2000
6.6.1	win	2022-12-23	23:18:00	23:26:39	516538	5ef3832ddd7d5a0f19b24f20	627224973	1	main_z	11	advance_on_keypress_ZEE	56	stimuli_distractor_diamondtriangles.svg	stimuli_distractor_diamondtriangles.svg	39	no	57	0	531
6.6.1	win	2022-12-23	23:18:00	23:26:42	519721	5ef3832ddd7d5a0f19b24f20	627224973	1	main_z	11	main_z	57	stimuli_distractor_trianglediamonds.svg	stimuli_distractor_trianglediamonds.svg	33	no	0	1	2000
6.6.1	win	2022-12-23	23:18:00	23:26:42	519721	5ef3832ddd7d5a0f19b24f20	627224973	1	main_z	11	advance_on_keypress_ZEE	58	stimuli_distractor_trianglediamonds.svg	stimuli_distractor_trianglediamonds.svg	33	no	57	0	611
6.6.1	win	2022-12-23	23:18:00	23:26:44	521532	5ef3832ddd7d5a0f19b24f20	627224973	1	main_z	11	main_z	59	stimuli_target_squaretriangles.svg	stimuli_distractor_trianglediamonds.svg	3	yes	44	1	560
6.6.1	win	2022-12-23	23:18:00	23:26:44	521532	5ef3832ddd7d5a0f19b24f20	627224973	1	main_z	11	advance_on_keypress_ZEE	60	stimuli_target_squaretriangles.svg	stimuli_distractor_trianglediamonds.svg	3	yes	57	0	72
6.6.1	win	2022-12-23	23:18:00	23:26:45	522806	5ef3832ddd7d5a0f19b24f20	627224973	1	main_z	11	main_z	61	stimuli_target_trianglesquares.svg	stimuli_distractor_diamondtriangles.svg	22	yes	44	1	569
6.6.1	win	2022-12-23	23:18:00	23:26:45	522806	5ef3832ddd7d5a0f19b24f20	627224973	1	main_z	11	advance_on_keypress_ZEE	62	stimuli_target_trianglesquares.svg	stimuli_distractor_diamondtriangles.svg	22	yes	57	0	40
6.6.1	win	2022-12-23	23:18:00	23:26:46	524014	5ef3832ddd7d5a0f19b24f20	627224973	1	main_z	11	main_z	63	stimuli_target_trianglecircles.svg	stimuli_distractor_diamondtriangles.svg	21	yes	44	1	526
6.6.1	win	2022-12-23	23:18:00	23:26:46	524014	5ef3832ddd7d5a0f19b24f20	627224973	1	main_z	11	advance_on_keypress_ZEE	64	stimuli_target_trianglecircles.svg	stimuli_distractor_diamondtriangles.svg	21	yes	57	0	71
6.6.1	win	2022-12-23	23:18:00	23:26:47	525232	5ef3832ddd7d5a0f19b24f20	627224973	1	main_z	11	main_z	65	stimuli_distractor_diamondtriangles.svg	stimuli_target_trianglesquares.svg	30	yes	44	1	510
6.6.1	win	2022-12-23	23:18:00	23:26:47	525232	5ef3832ddd7d5a0f19b24f20	627224973	1	main_z	11	advance_on_keypress_ZEE	66	stimuli_distractor_diamondtriangles.svg	stimuli_target_trianglesquares.svg	30	yes	57	0	52
6.6.1	win	2022-12-23	23:18:00	23:26:48	526355	5ef3832ddd7d5a0f19b24f20	627224973	1	main_z	11	main_z	67	stimuli_distractor_trianglediamonds.svg	stimuli_target_diamondcircles.svg	27	yes	44	1	432
6.6.1	win	2022-12-23	23:18:00	23:26:48	526355	5ef3832ddd7d5a0f19b24f20	627224973	1	main_z	11	advance_on_keypress_ZEE	68	stimuli_distractor_trianglediamonds.svg	stimuli_target_diamondcircles.svg	27	yes	57	0	50
6.6.1	win	2022-12-23	23:18:00	23:26:50	527530	5ef3832ddd7d5a0f19b24f20	627224973	1	main_z	11	main_z	69	stimuli_distractor_diamondtriangles.svg	stimuli_target_squaretriangles.svg	15	yes	44	1	475
6.6.1	win	2022-12-23	23:18:00	23:26:50	527530	5ef3832ddd7d5a0f19b24f20	627224973	1	main_z	11	advance_on_keypress_ZEE	70	stimuli_distractor_diamondtriangles.svg	stimuli_target_squaretriangles.svg	15	yes	57	0	51
6.6.1	win	2022-12-23	23:18:00	23:26:51	528613	5ef3832ddd7d5a0f19b24f20	627224973	1	main_z	11	main_z	71	stimuli_distractor_diamondtriangles.svg	stimuli_target_trianglecircles.svg	29	yes	44	1	391
6.6.1	win	2022-12-23	23:18:00	23:26:51	528613	5ef3832ddd7d5a0f19b24f20	627224973	1	main_z	11	advance_on_keypress_ZEE	72	stimuli_distractor_diamondtriangles.svg	stimuli_target_trianglecircles.svg	29	yes	57	0	35
6.6.1	win	2022-12-23	23:18:00	23:26:52	529680	5ef3832ddd7d5a0f19b24f20	627224973	1	main_z	11	main_z	73	stimuli_target_diamondcircles.svg	stimuli_distractor_trianglediamonds.svg	19	yes	44	1	392
6.6.1	win	2022-12-23	23:18:00	23:26:52	529680	5ef3832ddd7d5a0f19b24f20	627224973	1	main_z	11	advance_on_keypress_ZEE	74	stimuli_target_diamondcircles.svg	stimuli_distractor_trianglediamonds.svg	19	yes	57	0	43
6.6.1	win	2022-12-23	23:18:00	23:26:53	530744	5ef3832ddd7d5a0f19b24f20	627224973	1	main_z	11	main_z	75	stimuli_distractor_trianglediamonds.svg	stimuli_target_squaretriangles.svg	11	yes	44	1	390
6.6.1	win	2022-12-23	23:18:00	23:26:53	530744	5ef3832ddd7d5a0f19b24f20	627224973	1	main_z	11	advance_on_keypress_ZEE	76	stimuli_distractor_trianglediamonds.svg	stimuli_target_squaretriangles.svg	11	yes	57	0	15
6.6.1	win	2022-12-23	23:18:00	23:26:54	531798	5ef3832ddd7d5a0f19b24f20	627224973	1	main_z	11	main_z	77	stimuli_target_circletriangles.svg	stimuli_distractor_diamondtriangles.svg	5	yes	44	1	394
6.6.1	win	2022-12-23	23:18:00	23:26:54	531798	5ef3832ddd7d5a0f19b24f20	627224973	1	main_z	11	advance_on_keypress_ZEE	78	stimuli_target_circletriangles.svg	stimuli_distractor_diamondtriangles.svg	5	yes	57	0	8
6.6.1	win	2022-12-23	23:18:00	23:26:57	534455	5ef3832ddd7d5a0f19b24f20	627224973	1	main_z	11	main_z	79	stimuli_distractor_diamondtriangles.svg	stimuli_distractor_trianglediamonds.svg	37	no	0	1	2000
6.6.1	win	2022-12-23	23:18:00	23:26:57	534455	5ef3832ddd7d5a0f19b24f20	627224973	1	main_z	11	advance_on_keypress_ZEE	80	stimuli_distractor_diamondtriangles.svg	stimuli_distractor_trianglediamonds.svg	37	no	57	0	629
6.6.1	win	2022-12-23	23:18:00	23:27:00	537739	5ef3832ddd7d5a0f19b24f20	627224973	1	main_z	11	main_z	81	stimuli_target_circletriangles.svg	stimuli_distractor_trianglediamonds.svg	1	yes	0	0	2000
6.6.1	win	2022-12-23	23:18:00	23:27:00	537739	5ef3832ddd7d5a0f19b24f20	627224973	1	main_z	11	advance_on_keypress_ZEE	82	stimuli_target_circletriangles.svg	stimuli_distractor_trianglediamonds.svg	1	yes	57	0	491
6.6.1	win	2022-12-23	23:18:00	23:27:02	539454	5ef3832ddd7d5a0f19b24f20	627224973	1	main_z	11	main_z	83	stimuli_distractor_trianglediamonds.svg	stimuli_target_trianglecircles.svg	25	yes	44	1	581
6.6.1	win	2022-12-23	23:18:00	23:27:02	539454	5ef3832ddd7d5a0f19b24f20	627224973	1	main_z	11	advance_on_keypress_ZEE	84	stimuli_distractor_trianglediamonds.svg	stimuli_target_trianglecircles.svg	25	yes	57	0	70
6.6.1	win	2022-12-23	23:18:00	23:27:04	542173	5ef3832ddd7d5a0f19b24f20	627224973	1	main_z	11	main_z	85	stimuli_distractor_diamondtriangles.svg	stimuli_target_diamondcircles.svg	31	yes	0	0	2000
6.6.1	win	2022-12-23	23:18:00	23:27:04	542173	5ef3832ddd7d5a0f19b24f20	627224973	1	main_z	11	advance_on_keypress_ZEE	86	stimuli_distractor_diamondtriangles.svg	stimuli_target_diamondcircles.svg	31	yes	57	0	3673
6.6.1	win	2022-12-23	23:18:00	23:27:09	547049	5ef3832ddd7d5a0f19b24f20	627224973	1	main_z	11	main_z	87	stimuli_target_squarediamonds.svg	stimuli_distractor_diamondtriangles.svg	8	yes	44	1	560
6.6.1	win	2022-12-23	23:18:00	23:27:09	547049	5ef3832ddd7d5a0f19b24f20	627224973	1	main_z	11	advance_on_keypress_ZEE	88	stimuli_target_squarediamonds.svg	stimuli_distractor_diamondtriangles.svg	8	yes	57	0	8
6.6.1	win	2022-12-23	23:18:00	23:27:12	549706	5ef3832ddd7d5a0f19b24f20	627224973	1	main_z	11	main_z	89	stimuli_distractor_trianglediamonds.svg	stimuli_distractor_diamondtriangles.svg	36	no	0	1	2000
6.6.1	win	2022-12-23	23:18:00	23:27:12	549706	5ef3832ddd7d5a0f19b24f20	627224973	1	main_z	11	advance_on_keypress_ZEE	90	stimuli_distractor_trianglediamonds.svg	stimuli_distractor_diamondtriangles.svg	36	no	57	0	417
6.6.1	win	2022-12-23	23:18:00	23:27:14	551466	5ef3832ddd7d5a0f19b24f20	627224973	1	main_z	11	main_z	91	stimuli_target_trianglesquares.svg	stimuli_distractor_diamondtriangles.svg	22	yes	44	1	693
6.6.1	win	2022-12-23	23:18:00	23:27:14	551466	5ef3832ddd7d5a0f19b24f20	627224973	1	main_z	11	advance_on_keypress_ZEE	92	stimuli_target_trianglesquares.svg	stimuli_distractor_diamondtriangles.svg	22	yes	57	0	47
6.6.1	win	2022-12-23	23:18:00	23:27:16	554156	5ef3832ddd7d5a0f19b24f20	627224973	1	main_z	11	main_z	93	stimuli_distractor_diamondtriangles.svg	stimuli_distractor_diamondtriangles.svg	40	no	0	1	2000
6.6.1	win	2022-12-23	23:18:00	23:27:16	554156	5ef3832ddd7d5a0f19b24f20	627224973	1	main_z	11	advance_on_keypress_ZEE	94	stimuli_distractor_diamondtriangles.svg	stimuli_distractor_diamondtriangles.svg	40	no	57	0	522
6.6.1	win	2022-12-23	23:18:00	23:27:18	556135	5ef3832ddd7d5a0f19b24f20	627224973	1	main_z	11	main_z	95	stimuli_distractor_diamondtriangles.svg	stimuli_distractor_trianglediamonds.svg	37	no	44	0	811
6.6.1	win	2022-12-23	23:18:00	23:27:18	556135	5ef3832ddd7d5a0f19b24f20	627224973	1	main_z	11	advance_on_keypress_ZEE	96	stimuli_distractor_diamondtriangles.svg	stimuli_distractor_trianglediamonds.svg	37	no	57	0	76
6.6.1	win	2022-12-23	23:18:00	23:27:20	557439	5ef3832ddd7d5a0f19b24f20	627224973	1	main_z	11	main_z	97	stimuli_distractor_trianglediamonds.svg	stimuli_target_trianglesquares.svg	26	yes	44	1	583
6.6.1	win	2022-12-23	23:18:00	23:27:20	557439	5ef3832ddd7d5a0f19b24f20	627224973	1	main_z	11	advance_on_keypress_ZEE	98	stimuli_distractor_trianglediamonds.svg	stimuli_target_trianglesquares.svg	26	yes	57	0	43
6.6.1	win	2022-12-23	23:18:00	23:27:21	558616	5ef3832ddd7d5a0f19b24f20	627224973	1	main_z	11	main_z	99	stimuli_distractor_diamondtriangles.svg	stimuli_target_squarediamonds.svg	16	yes	44	1	493
6.6.1	win	2022-12-23	23:18:00	23:27:21	558616	5ef3832ddd7d5a0f19b24f20	627224973	1	main_z	11	advance_on_keypress_ZEE	100	stimuli_distractor_diamondtriangles.svg	stimuli_target_squarediamonds.svg	16	yes	57	0	87
6.6.1	win	2022-12-23	23:18:00	23:27:23	561339	5ef3832ddd7d5a0f19b24f20	627224973	1	main_z	11	main_z	101	stimuli_distractor_trianglediamonds.svg	stimuli_distractor_diamondtriangles.svg	35	no	0	1	2000
6.6.1	win	2022-12-23	23:18:00	23:27:23	561339	5ef3832ddd7d5a0f19b24f20	627224973	1	main_z	11	advance_on_keypress_ZEE	102	stimuli_distractor_trianglediamonds.svg	stimuli_distractor_diamondtriangles.svg	35	no	57	0	1731
6.6.1	win	2022-12-23	23:18:00	23:27:26	564358	5ef3832ddd7d5a0f19b24f20	627224973	1	main_z	11	main_z	103	stimuli_distractor_trianglediamonds.svg	stimuli_target_diamondcircles.svg	27	yes	44	1	635
6.6.1	win	2022-12-23	23:18:00	23:27:26	564358	5ef3832ddd7d5a0f19b24f20	627224973	1	main_z	11	advance_on_keypress_ZEE	104	stimuli_distractor_trianglediamonds.svg	stimuli_target_diamondcircles.svg	27	yes	57	0	10
6.6.1	win	2022-12-23	23:18:00	23:27:28	565655	5ef3832ddd7d5a0f19b24f20	627224973	1	main_z	11	main_z	105	stimuli_target_trianglecircles.svg	stimuli_distractor_trianglediamonds.svg	17	yes	44	1	647
6.6.1	win	2022-12-23	23:18:00	23:27:28	565655	5ef3832ddd7d5a0f19b24f20	627224973	1	main_z	11	advance_on_keypress_ZEE	106	stimuli_target_trianglecircles.svg	stimuli_distractor_trianglediamonds.svg	17	yes	57	0	11
6.6.1	win	2022-12-23	23:18:00	23:27:29	567014	5ef3832ddd7d5a0f19b24f20	627224973	1	main_z	11	main_z	107	stimuli_distractor_diamondtriangles.svg	stimuli_target_circlediamonds.svg	14	yes	44	1	707
6.6.1	win	2022-12-23	23:18:00	23:27:29	567014	5ef3832ddd7d5a0f19b24f20	627224973	1	main_z	11	advance_on_keypress_ZEE	108	stimuli_distractor_diamondtriangles.svg	stimuli_target_circlediamonds.svg	14	yes	57	0	70
6.6.1	win	2022-12-23	23:18:00	23:27:30	568215	5ef3832ddd7d5a0f19b24f20	627224973	1	main_z	11	main_z	109	stimuli_distractor_diamondtriangles.svg	stimuli_target_trianglecircles.svg	29	yes	44	1	492
6.6.1	win	2022-12-23	23:18:00	23:27:30	568215	5ef3832ddd7d5a0f19b24f20	627224973	1	main_z	11	advance_on_keypress_ZEE	110	stimuli_distractor_diamondtriangles.svg	stimuli_target_trianglecircles.svg	29	yes	57	0	86
6.6.1	win	2022-12-23	23:18:00	23:27:32	569512	5ef3832ddd7d5a0f19b24f20	627224973	1	main_z	11	main_z	111	stimuli_target_squaretriangles.svg	stimuli_distractor_diamondtriangles.svg	7	yes	44	1	571
6.6.1	win	2022-12-23	23:18:00	23:27:32	569512	5ef3832ddd7d5a0f19b24f20	627224973	1	main_z	11	advance_on_keypress_ZEE	112	stimuli_target_squaretriangles.svg	stimuli_distractor_diamondtriangles.svg	7	yes	57	0	53
6.6.1	win	2022-12-23	23:18:00	23:27:33	570743	5ef3832ddd7d5a0f19b24f20	627224973	1	main_z	11	main_z	113	stimuli_target_squarediamonds.svg	stimuli_distractor_trianglediamonds.svg	4	yes	44	1	536
6.6.1	win	2022-12-23	23:18:00	23:27:33	570743	5ef3832ddd7d5a0f19b24f20	627224973	1	main_z	11	advance_on_keypress_ZEE	114	stimuli_target_squarediamonds.svg	stimuli_distractor_trianglediamonds.svg	4	yes	57	0	65
6.6.1	win	2022-12-23	23:18:00	23:27:34	572108	5ef3832ddd7d5a0f19b24f20	627224973	1	main_z	11	main_z	115	stimuli_target_diamondsquares.svg	stimuli_distractor_trianglediamonds.svg	20	yes	44	1	650
6.6.1	win	2022-12-23	23:18:00	23:27:34	572108	5ef3832ddd7d5a0f19b24f20	627224973	1	main_z	11	advance_on_keypress_ZEE	116	stimuli_target_diamondsquares.svg	stimuli_distractor_trianglediamonds.svg	20	yes	57	0	1121
6.6.1	win	2022-12-23	23:18:00	23:27:38	575873	5ef3832ddd7d5a0f19b24f20	627224973	1	main_z	11	main_z	117	stimuli_distractor_trianglediamonds.svg	stimuli_distractor_trianglediamonds.svg	34	no	0	1	2000
6.6.1	win	2022-12-23	23:18:00	23:27:38	575873	5ef3832ddd7d5a0f19b24f20	627224973	1	main_z	11	advance_on_keypress_ZEE	118	stimuli_distractor_trianglediamonds.svg	stimuli_distractor_trianglediamonds.svg	34	no	57	0	580
6.6.1	win	2022-12-23	23:18:00	23:27:40	577665	5ef3832ddd7d5a0f19b24f20	627224973	1	main_z	11	main_z	119	stimuli_target_diamondcircles.svg	stimuli_distractor_trianglediamonds.svg	19	yes	44	1	559
6.6.1	win	2022-12-23	23:18:00	23:27:40	577665	5ef3832ddd7d5a0f19b24f20	627224973	1	main_z	11	advance_on_keypress_ZEE	120	stimuli_target_diamondcircles.svg	stimuli_distractor_trianglediamonds.svg	19	yes	57	0	87
6.6.1	win	2022-12-23	23:18:00	23:27:41	578873	5ef3832ddd7d5a0f19b24f20	627224973	1	main_z	11	main_z	121	stimuli_distractor_trianglediamonds.svg	stimuli_target_squaretriangles.svg	11	yes	44	1	482
6.6.1	win	2022-12-23	23:18:00	23:27:41	578873	5ef3832ddd7d5a0f19b24f20	627224973	1	main_z	11	advance_on_keypress_ZEE	122	stimuli_distractor_trianglediamonds.svg	stimuli_target_squaretriangles.svg	11	yes	57	0	41
6.6.1	win	2022-12-23	23:18:00	23:27:42	579996	5ef3832ddd7d5a0f19b24f20	627224973	1	main_z	11	main_z	123	stimuli_target_circlediamonds.svg	stimuli_distractor_diamondtriangles.svg	6	yes	44	1	439
6.6.1	win	2022-12-23	23:18:00	23:27:42	579996	5ef3832ddd7d5a0f19b24f20	627224973	1	main_z	11	advance_on_keypress_ZEE	124	stimuli_target_circlediamonds.svg	stimuli_distractor_diamondtriangles.svg	6	yes	57	0	48
6.6.1	win	2022-12-23	23:18:00	23:27:44	581445	5ef3832ddd7d5a0f19b24f20	627224973	1	main_z	11	main_z	125	stimuli_target_diamondsquares.svg	stimuli_distractor_diamondtriangles.svg	24	yes	44	1	754
6.6.1	win	2022-12-23	23:18:00	23:27:44	581445	5ef3832ddd7d5a0f19b24f20	627224973	1	main_z	11	advance_on_keypress_ZEE	126	stimuli_target_diamondsquares.svg	stimuli_distractor_diamondtriangles.svg	24	yes	57	0	37
6.6.1	win	2022-12-23	23:18:00	23:27:45	582543	5ef3832ddd7d5a0f19b24f20	627224973	1	main_z	11	main_z	127	stimuli_distractor_trianglediamonds.svg	stimuli_target_circletriangles.svg	9	yes	44	1	419
6.6.1	win	2022-12-23	23:18:00	23:27:45	582543	5ef3832ddd7d5a0f19b24f20	627224973	1	main_z	11	advance_on_keypress_ZEE	128	stimuli_distractor_trianglediamonds.svg	stimuli_target_circletriangles.svg	9	yes	57	0	79
6.6.1	win	2022-12-23	23:18:00	23:27:46	583674	5ef3832ddd7d5a0f19b24f20	627224973	1	main_z	11	main_z	129	stimuli_target_trianglesquares.svg	stimuli_distractor_trianglediamonds.svg	18	yes	44	1	418
6.6.1	win	2022-12-23	23:18:00	23:27:46	583674	5ef3832ddd7d5a0f19b24f20	627224973	1	main_z	11	advance_on_keypress_ZEE	130	stimuli_target_trianglesquares.svg	stimuli_distractor_trianglediamonds.svg	18	yes	57	0	44
6.6.1	win	2022-12-23	23:18:00	23:27:47	584833	5ef3832ddd7d5a0f19b24f20	627224973	1	main_z	11	main_z	131	stimuli_distractor_diamondtriangles.svg	stimuli_target_trianglesquares.svg	30	yes	44	1	474
6.6.1	win	2022-12-23	23:18:00	23:27:47	584833	5ef3832ddd7d5a0f19b24f20	627224973	1	main_z	11	advance_on_keypress_ZEE	132	stimuli_distractor_diamondtriangles.svg	stimuli_target_trianglesquares.svg	30	yes	57	0	66
6.6.1	win	2022-12-23	23:18:00	23:27:50	587542	5ef3832ddd7d5a0f19b24f20	627224973	1	main_z	11	main_z	133	stimuli_distractor_diamondtriangles.svg	stimuli_distractor_diamondtriangles.svg	39	no	0	1	2000
6.6.1	win	2022-12-23	23:18:00	23:27:50	587542	5ef3832ddd7d5a0f19b24f20	627224973	1	main_z	11	advance_on_keypress_ZEE	134	stimuli_distractor_diamondtriangles.svg	stimuli_distractor_diamondtriangles.svg	39	no	57	0	781
6.6.1	win	2022-12-23	23:18:00	23:27:52	589674	5ef3832ddd7d5a0f19b24f20	627224973	1	main_z	11	main_z	135	stimuli_target_diamondcircles.svg	stimuli_distractor_diamondtriangles.svg	23	yes	44	1	700
6.6.1	win	2022-12-23	23:18:00	23:27:52	589674	5ef3832ddd7d5a0f19b24f20	627224973	1	main_z	11	advance_on_keypress_ZEE	136	stimuli_target_diamondcircles.svg	stimuli_distractor_diamondtriangles.svg	23	yes	57	0	56
6.6.1	win	2022-12-23	23:18:00	23:27:54	591544	5ef3832ddd7d5a0f19b24f20	627224973	1	main_z	11	main_z	137	stimuli_target_trianglecircles.svg	stimuli_distractor_diamondtriangles.svg	21	yes	44	1	1169
6.6.1	win	2022-12-23	23:18:00	23:27:54	591544	5ef3832ddd7d5a0f19b24f20	627224973	1	main_z	11	advance_on_keypress_ZEE	138	stimuli_target_trianglecircles.svg	stimuli_distractor_diamondtriangles.svg	21	yes	57	0	114
6.6.1	win	2022-12-23	23:18:00	23:27:56	594308	5ef3832ddd7d5a0f19b24f20	627224973	1	main_z	11	main_z	139	stimuli_target_circletriangles.svg	stimuli_distractor_diamondtriangles.svg	5	yes	0	0	2000
6.6.1	win	2022-12-23	23:18:00	23:27:56	594308	5ef3832ddd7d5a0f19b24f20	627224973	1	main_z	11	advance_on_keypress_ZEE	140	stimuli_target_circletriangles.svg	stimuli_distractor_diamondtriangles.svg	5	yes	57	0	1946
6.6.1	win	2022-12-23	23:18:00	23:28:00	597508	5ef3832ddd7d5a0f19b24f20	627224973	1	main_z	11	main_z	141	stimuli_distractor_diamondtriangles.svg	stimuli_target_squaretriangles.svg	15	yes	44	1	599
6.6.1	win	2022-12-23	23:18:00	23:28:00	597508	5ef3832ddd7d5a0f19b24f20	627224973	1	main_z	11	advance_on_keypress_ZEE	142	stimuli_distractor_diamondtriangles.svg	stimuli_target_squaretriangles.svg	15	yes	57	0	32
6.6.1	win	2022-12-23	23:18:00	23:28:01	598740	5ef3832ddd7d5a0f19b24f20	627224973	1	main_z	11	main_z	143	stimuli_target_squaretriangles.svg	stimuli_distractor_trianglediamonds.svg	3	yes	44	1	548
6.6.1	win	2022-12-23	23:18:00	23:28:01	598740	5ef3832ddd7d5a0f19b24f20	627224973	1	main_z	11	advance_on_keypress_ZEE	144	stimuli_target_squaretriangles.svg	stimuli_distractor_trianglediamonds.svg	3	yes	57	0	30
6.6.1	win	2022-12-23	23:18:00	23:28:02	599935	5ef3832ddd7d5a0f19b24f20	627224973	1	main_z	11	main_z	145	stimuli_distractor_diamondtriangles.svg	stimuli_target_circletriangles.svg	13	yes	44	1	511
6.6.1	win	2022-12-23	23:18:00	23:28:02	599935	5ef3832ddd7d5a0f19b24f20	627224973	1	main_z	11	advance_on_keypress_ZEE	146	stimuli_distractor_diamondtriangles.svg	stimuli_target_circletriangles.svg	13	yes	57	0	34
6.6.1	win	2022-12-23	23:18:00	23:28:05	602609	5ef3832ddd7d5a0f19b24f20	627224973	1	main_z	11	main_z	147	stimuli_distractor_trianglediamonds.svg	stimuli_target_diamondsquares.svg	28	yes	0	0	2000
6.6.1	win	2022-12-23	23:18:00	23:28:05	602609	5ef3832ddd7d5a0f19b24f20	627224973	1	main_z	11	advance_on_keypress_ZEE	148	stimuli_distractor_trianglediamonds.svg	stimuli_target_diamondsquares.svg	28	yes	57	0	3794
6.6.1	win	2022-12-23	23:18:00	23:28:11	608512	5ef3832ddd7d5a0f19b24f20	627224973	1	main_z	11	main_z	149	stimuli_distractor_diamondtriangles.svg	stimuli_target_diamondsquares.svg	32	yes	44	1	1452
6.6.1	win	2022-12-23	23:18:00	23:28:11	608512	5ef3832ddd7d5a0f19b24f20	627224973	1	main_z	11	advance_on_keypress_ZEE	150	stimuli_distractor_diamondtriangles.svg	stimuli_target_diamondsquares.svg	32	yes	57	0	130
6.6.1	win	2022-12-23	23:18:00	23:28:13	611292	5ef3832ddd7d5a0f19b24f20	627224973	1	main_z	11	main_z	151	stimuli_distractor_diamondtriangles.svg	stimuli_distractor_trianglediamonds.svg	38	no	0	1	2000
6.6.1	win	2022-12-23	23:18:00	23:28:13	611292	5ef3832ddd7d5a0f19b24f20	627224973	1	main_z	11	advance_on_keypress_ZEE	152	stimuli_distractor_diamondtriangles.svg	stimuli_distractor_trianglediamonds.svg	38	no	57	0	9324
6.6.1	win	2022-12-23	23:18:00	23:28:25	623260	5ef3832ddd7d5a0f19b24f20	627224973	1	main_z	11	main_z	153	stimuli_distractor_trianglediamonds.svg	stimuli_distractor_trianglediamonds.svg	33	no	0	1	2000
6.6.1	win	2022-12-23	23:18:00	23:28:25	623260	5ef3832ddd7d5a0f19b24f20	627224973	1	main_z	11	advance_on_keypress_ZEE	154	stimuli_distractor_trianglediamonds.svg	stimuli_distractor_trianglediamonds.svg	33	no	57	0	517
6.6.1	win	2022-12-23	23:18:00	23:28:27	625093	5ef3832ddd7d5a0f19b24f20	627224973	1	main_z	11	main_z	155	stimuli_distractor_trianglediamonds.svg	stimuli_target_squarediamonds.svg	12	yes	44	1	667
6.6.1	win	2022-12-23	23:18:00	23:28:27	625093	5ef3832ddd7d5a0f19b24f20	627224973	1	main_z	11	advance_on_keypress_ZEE	156	stimuli_distractor_trianglediamonds.svg	stimuli_target_squarediamonds.svg	12	yes	57	0	48
6.6.1	win	2022-12-23	23:18:00	23:28:28	626290	5ef3832ddd7d5a0f19b24f20	627224973	1	main_z	11	main_z	157	stimuli_distractor_trianglediamonds.svg	stimuli_target_circlediamonds.svg	10	yes	44	1	497
6.6.1	win	2022-12-23	23:18:00	23:28:28	626290	5ef3832ddd7d5a0f19b24f20	627224973	1	main_z	11	advance_on_keypress_ZEE	158	stimuli_distractor_trianglediamonds.svg	stimuli_target_circlediamonds.svg	10	yes	57	0	41
6.6.1	win	2022-12-23	23:18:00	23:28:30	627486	5ef3832ddd7d5a0f19b24f20	627224973	1	main_z	11	main_z	159	stimuli_target_circlediamonds.svg	stimuli_distractor_trianglediamonds.svg	2	yes	44	1	506
6.6.1	win	2022-12-23	23:18:00	23:28:30	627486	5ef3832ddd7d5a0f19b24f20	627224973	1	main_z	11	advance_on_keypress_ZEE	160	stimuli_target_circlediamonds.svg	stimuli_distractor_trianglediamonds.svg	2	yes	57	0	59