build	computer.platform	date	time	timestamp	time_elapsed_ms	subject	group	session	blockcode	blocknum	trialcode	trialnum	stimulus_left	stimulus_right	stim_index	target_present	response	correct	latency
6.6.1	ios	2022-12-14	14:15:56	14:20:09	239653	60f39f67a5c2c9e50ce470ee	9605298	1	practice_z	5	practice_z	1	stimuli_distractor_diamondtriangles.svg	stimuli_distractor_trianglediamonds.svg	14	no	44	0	1066
6.6.1	ios	2022-12-14	14:15:56	14:20:09	239653	60f39f67a5c2c9e50ce470ee	9605298	1	practice_z	5	advance_on_keypress_ZEE	2	stimuli_distractor_diamondtriangles.svg	stimuli_distractor_trianglediamonds.svg	14	no	57	0	1067
6.6.1	ios	2022-12-14	14:15:56	14:20:12	242835	60f39f67a5c2c9e50ce470ee	9605298	1	practice_z	5	practice_z	3	stimuli_target_diamondsquares.svg	stimuli_distractor_diamondtriangles.svg	3	yes	44	1	433
6.6.1	ios	2022-12-14	14:15:56	14:20:12	242835	60f39f67a5c2c9e50ce470ee	9605298	1	practice_z	5	advance_on_keypress_ZEE	4	stimuli_target_diamondsquares.svg	stimuli_distractor_diamondtriangles.svg	3	yes	57	0	829
6.6.1	ios	2022-12-14	14:15:56	14:20:15	245652	60f39f67a5c2c9e50ce470ee	9605298	1	practice_z	5	practice_z	5	stimuli_target_squarediamonds.svg	stimuli_distractor_trianglediamonds.svg	5	yes	44	1	301
6.6.1	ios	2022-12-14	14:15:56	14:20:15	245652	60f39f67a5c2c9e50ce470ee	9605298	1	practice_z	5	advance_on_keypress_ZEE	6	stimuli_target_squarediamonds.svg	stimuli_distractor_trianglediamonds.svg	5	yes	57	0	587
6.6.1	ios	2022-12-14	14:15:56	14:20:19	249921	60f39f67a5c2c9e50ce470ee	9605298	1	practice_z	5	practice_z	7	stimuli_distractor_trianglediamonds.svg	stimuli_target_squarediamonds.svg	11	yes	0	0	2000
6.6.1	ios	2022-12-14	14:15:56	14:20:19	249921	60f39f67a5c2c9e50ce470ee	9605298	1	practice_z	5	advance_on_keypress_ZEE	8	stimuli_distractor_trianglediamonds.svg	stimuli_target_squarediamonds.svg	11	yes	57	0	501
6.6.1	ios	2022-12-14	14:15:56	14:20:22	252335	60f39f67a5c2c9e50ce470ee	9605298	1	practice_z	5	practice_z	9	stimuli_target_circlediamonds.svg	stimuli_distractor_diamondtriangles.svg	1	yes	44	1	234
6.6.1	ios	2022-12-14	14:15:56	14:20:22	252335	60f39f67a5c2c9e50ce470ee	9605298	1	practice_z	5	advance_on_keypress_ZEE	10	stimuli_target_circlediamonds.svg	stimuli_distractor_diamondtriangles.svg	1	yes	57	0	547
6.6.1	ios	2022-12-14	14:15:56	14:20:24	254836	60f39f67a5c2c9e50ce470ee	9605298	1	practice_z	5	practice_z	11	stimuli_target_diamondsquares.svg	stimuli_distractor_trianglediamonds.svg	6	yes	44	1	268
6.6.1	ios	2022-12-14	14:15:56	14:20:24	254836	60f39f67a5c2c9e50ce470ee	9605298	1	practice_z	5	advance_on_keypress_ZEE	12	stimuli_target_diamondsquares.svg	stimuli_distractor_trianglediamonds.svg	6	yes	57	0	651
6.6.1	ios	2022-12-14	14:15:56	14:20:27	257419	60f39f67a5c2c9e50ce470ee	9605298	1	practice_z	5	practice_z	13	stimuli_distractor_diamondtriangles.svg	stimuli_target_circletriangles.svg	7	yes	44	1	251
6.6.1	ios	2022-12-14	14:15:56	14:20:27	257419	60f39f67a5c2c9e50ce470ee	9605298	1	practice_z	5	advance_on_keypress_ZEE	14	stimuli_distractor_diamondtriangles.svg	stimuli_target_circletriangles.svg	7	yes	57	0	484
6.6.1	ios	2022-12-14	14:15:56	14:20:29	259852	60f39f67a5c2c9e50ce470ee	9605298	1	practice_z	5	practice_z	15	stimuli_target_circlediamonds.svg	stimuli_distractor_trianglediamonds.svg	4	yes	44	1	266
6.6.1	ios	2022-12-14	14:15:56	14:20:29	259852	60f39f67a5c2c9e50ce470ee	9605298	1	practice_z	5	advance_on_keypress_ZEE	16	stimuli_target_circlediamonds.svg	stimuli_distractor_trianglediamonds.svg	4	yes	57	0	401
6.6.1	ios	2022-12-14	14:15:56	14:20:32	262219	60f39f67a5c2c9e50ce470ee	9605298	1	practice_z	5	practice_z	17	stimuli_distractor_trianglediamonds.svg	stimuli_target_circlediamonds.svg	10	yes	44	1	284
6.6.1	ios	2022-12-14	14:15:56	14:20:32	262219	60f39f67a5c2c9e50ce470ee	9605298	1	practice_z	5	advance_on_keypress_ZEE	18	stimuli_distractor_trianglediamonds.svg	stimuli_target_circlediamonds.svg	10	yes	57	0	667
6.6.1	ios	2022-12-14	14:15:56	14:20:34	264835	60f39f67a5c2c9e50ce470ee	9605298	1	practice_z	5	practice_z	19	stimuli_distractor_trianglediamonds.svg	stimuli_distractor_trianglediamonds.svg	15	no	44	0	267
6.6.1	ios	2022-12-14	14:15:56	14:20:34	264835	60f39f67a5c2c9e50ce470ee	9605298	1	practice_z	5	advance_on_keypress_ZEE	20	stimuli_distractor_trianglediamonds.svg	stimuli_distractor_trianglediamonds.svg	15	no	57	0	401
6.6.1	ios	2022-12-14	14:15:56	14:20:37	267203	60f39f67a5c2c9e50ce470ee	9605298	1	practice_z	5	practice_z	21	stimuli_distractor_trianglediamonds.svg	stimuli_distractor_diamondtriangles.svg	16	no	44	0	284
6.6.1	ios	2022-12-14	14:15:56	14:20:37	267203	60f39f67a5c2c9e50ce470ee	9605298	1	practice_z	5	advance_on_keypress_ZEE	22	stimuli_distractor_trianglediamonds.svg	stimuli_distractor_diamondtriangles.svg	16	no	57	0	500
6.6.1	ios	2022-12-14	14:15:56	14:20:39	269736	60f39f67a5c2c9e50ce470ee	9605298	1	practice_z	5	practice_z	23	stimuli_target_squarediamonds.svg	stimuli_distractor_diamondtriangles.svg	2	yes	44	1	352
6.6.1	ios	2022-12-14	14:15:56	14:20:39	269736	60f39f67a5c2c9e50ce470ee	9605298	1	practice_z	5	advance_on_keypress_ZEE	24	stimuli_target_squarediamonds.svg	stimuli_distractor_diamondtriangles.svg	2	yes	57	0	418
6.6.1	ios	2022-12-14	14:15:56	14:20:43	273205	60f39f67a5c2c9e50ce470ee	9605298	1	practice_z	5	practice_z	25	stimuli_distractor_diamondtriangles.svg	stimuli_target_trianglecircles.svg	9	yes	44	1	1368
6.6.1	ios	2022-12-14	14:15:56	14:20:43	273205	60f39f67a5c2c9e50ce470ee	9605298	1	practice_z	5	advance_on_keypress_ZEE	26	stimuli_distractor_diamondtriangles.svg	stimuli_target_trianglecircles.svg	9	yes	57	0	534
6.6.1	ios	2022-12-14	14:15:56	14:20:45	275754	60f39f67a5c2c9e50ce470ee	9605298	1	practice_z	5	practice_z	27	stimuli_distractor_trianglediamonds.svg	stimuli_target_diamondcircles.svg	12	yes	44	1	335
6.6.1	ios	2022-12-14	14:15:56	14:20:45	275754	60f39f67a5c2c9e50ce470ee	9605298	1	practice_z	5	advance_on_keypress_ZEE	28	stimuli_distractor_trianglediamonds.svg	stimuli_target_diamondcircles.svg	12	yes	57	0	451
6.6.1	ios	2022-12-14	14:15:56	14:20:48	278938	60f39f67a5c2c9e50ce470ee	9605298	1	practice_z	5	practice_z	29	stimuli_distractor_diamondtriangles.svg	stimuli_target_diamondcircles.svg	8	yes	44	1	1051
6.6.1	ios	2022-12-14	14:15:56	14:20:48	278938	60f39f67a5c2c9e50ce470ee	9605298	1	practice_z	5	advance_on_keypress_ZEE	30	stimuli_distractor_diamondtriangles.svg	stimuli_target_diamondcircles.svg	8	yes	57	0	484
6.6.1	ios	2022-12-14	14:15:56	14:20:51	281889	60f39f67a5c2c9e50ce470ee	9605298	1	practice_z	5	practice_z	31	stimuli_distractor_diamondtriangles.svg	stimuli_distractor_diamondtriangles.svg	13	no	44	0	785
6.6.1	ios	2022-12-14	14:15:56	14:20:51	281889	60f39f67a5c2c9e50ce470ee	9605298	1	practice_z	5	advance_on_keypress_ZEE	32	stimuli_distractor_diamondtriangles.svg	stimuli_distractor_diamondtriangles.svg	13	no	57	0	1367
6.6.1	ios	2022-12-14	14:15:56	14:21:01	291861	60f39f67a5c2c9e50ce470ee	9605298	1	main_z	7	main_z	1	stimuli_target_trianglecircles.svg	stimuli_distractor_trianglediamonds.svg	17	yes	44	1	335
6.6.1	ios	2022-12-14	14:15:56	14:21:01	291861	60f39f67a5c2c9e50ce470ee	9605298	1	main_z	7	advance_on_keypress_ZEE	2	stimuli_target_trianglecircles.svg	stimuli_distractor_trianglediamonds.svg	17	yes	57	0	2090
6.6.1	ios	2022-12-14	14:15:56	14:21:05	295193	60f39f67a5c2c9e50ce470ee	9605298	1	main_z	7	main_z	3	stimuli_distractor_diamondtriangles.svg	stimuli_distractor_diamondtriangles.svg	40	no	44	0	552
6.6.1	ios	2022-12-14	14:15:56	14:21:05	295193	60f39f67a5c2c9e50ce470ee	9605298	1	main_z	7	advance_on_keypress_ZEE	4	stimuli_distractor_diamondtriangles.svg	stimuli_distractor_diamondtriangles.svg	40	no	57	0	1154
6.6.1	ios	2022-12-14	14:15:56	14:21:07	297376	60f39f67a5c2c9e50ce470ee	9605298	1	main_z	7	main_z	5	stimuli_distractor_trianglediamonds.svg	stimuli_target_diamondcircles.svg	27	yes	44	1	334
6.6.1	ios	2022-12-14	14:15:56	14:21:07	297376	60f39f67a5c2c9e50ce470ee	9605298	1	main_z	7	advance_on_keypress_ZEE	6	stimuli_distractor_trianglediamonds.svg	stimuli_target_diamondcircles.svg	27	yes	57	0	904
6.6.1	ios	2022-12-14	14:15:56	14:21:10	300364	60f39f67a5c2c9e50ce470ee	9605298	1	main_z	7	main_z	7	stimuli_target_circlediamonds.svg	stimuli_distractor_trianglediamonds.svg	2	yes	44	1	1387
6.6.1	ios	2022-12-14	14:15:56	14:21:10	300364	60f39f67a5c2c9e50ce470ee	9605298	1	main_z	7	advance_on_keypress_ZEE	8	stimuli_target_circlediamonds.svg	stimuli_distractor_trianglediamonds.svg	2	yes	57	0	818
6.6.1	ios	2022-12-14	14:15:56	14:21:12	302728	60f39f67a5c2c9e50ce470ee	9605298	1	main_z	7	main_z	9	stimuli_distractor_diamondtriangles.svg	stimuli_target_trianglesquares.svg	30	yes	44	1	852
6.6.1	ios	2022-12-14	14:15:56	14:21:12	302728	60f39f67a5c2c9e50ce470ee	9605298	1	main_z	7	advance_on_keypress_ZEE	10	stimuli_distractor_diamondtriangles.svg	stimuli_target_trianglesquares.svg	30	yes	57	0	552
6.6.1	ios	2022-12-14	14:15:56	14:21:14	304260	60f39f67a5c2c9e50ce470ee	9605298	1	main_z	7	main_z	11	stimuli_target_diamondsquares.svg	stimuli_distractor_diamondtriangles.svg	24	yes	44	1	300
6.6.1	ios	2022-12-14	14:15:56	14:21:14	304260	60f39f67a5c2c9e50ce470ee	9605298	1	main_z	7	advance_on_keypress_ZEE	12	stimuli_target_diamondsquares.svg	stimuli_distractor_diamondtriangles.svg	24	yes	57	0	603
6.6.1	ios	2022-12-14	14:15:56	14:21:15	305862	60f39f67a5c2c9e50ce470ee	9605298	1	main_z	7	main_z	13	stimuli_distractor_diamondtriangles.svg	stimuli_target_circlediamonds.svg	14	yes	44	1	302
6.6.1	ios	2022-12-14	14:15:56	14:21:15	305862	60f39f67a5c2c9e50ce470ee	9605298	1	main_z	7	advance_on_keypress_ZEE	14	stimuli_distractor_diamondtriangles.svg	stimuli_target_circlediamonds.svg	14	yes	57	0	719
6.6.1	ios	2022-12-14	14:15:56	14:21:17	307547	60f39f67a5c2c9e50ce470ee	9605298	1	main_z	7	main_z	15	stimuli_distractor_trianglediamonds.svg	stimuli_target_trianglesquares.svg	26	yes	44	1	285
6.6.1	ios	2022-12-14	14:15:56	14:21:17	307547	60f39f67a5c2c9e50ce470ee	9605298	1	main_z	7	advance_on_keypress_ZEE	16	stimuli_distractor_trianglediamonds.svg	stimuli_target_trianglesquares.svg	26	yes	57	0	683
6.6.1	ios	2022-12-14	14:15:56	14:21:19	309227	60f39f67a5c2c9e50ce470ee	9605298	1	main_z	7	main_z	17	stimuli_target_diamondcircles.svg	stimuli_distractor_diamondtriangles.svg	23	yes	44	1	300
6.6.1	ios	2022-12-14	14:15:56	14:21:19	309227	60f39f67a5c2c9e50ce470ee	9605298	1	main_z	7	advance_on_keypress_ZEE	18	stimuli_target_diamondcircles.svg	stimuli_distractor_diamondtriangles.svg	23	yes	57	0	1708
6.6.1	ios	2022-12-14	14:15:56	14:21:21	311927	60f39f67a5c2c9e50ce470ee	9605298	1	main_z	7	main_z	19	stimuli_distractor_trianglediamonds.svg	stimuli_distractor_trianglediamonds.svg	33	no	44	0	301
6.6.1	ios	2022-12-14	14:15:56	14:21:21	311927	60f39f67a5c2c9e50ce470ee	9605298	1	main_z	7	advance_on_keypress_ZEE	20	stimuli_distractor_trianglediamonds.svg	stimuli_distractor_trianglediamonds.svg	33	no	57	0	668
6.6.1	ios	2022-12-14	14:15:56	14:21:23	313745	60f39f67a5c2c9e50ce470ee	9605298	1	main_z	7	main_z	21	stimuli_target_squaretriangles.svg	stimuli_distractor_diamondtriangles.svg	7	yes	44	1	452
6.6.1	ios	2022-12-14	14:15:56	14:21:23	313745	60f39f67a5c2c9e50ce470ee	9605298	1	main_z	7	advance_on_keypress_ZEE	22	stimuli_target_squaretriangles.svg	stimuli_distractor_diamondtriangles.svg	7	yes	57	0	653
6.6.1	ios	2022-12-14	14:15:56	14:21:25	315377	60f39f67a5c2c9e50ce470ee	9605298	1	main_z	7	main_z	23	stimuli_distractor_diamondtriangles.svg	stimuli_distractor_trianglediamonds.svg	38	no	44	0	284
6.6.1	ios	2022-12-14	14:15:56	14:21:25	315377	60f39f67a5c2c9e50ce470ee	9605298	1	main_z	7	advance_on_keypress_ZEE	24	stimuli_distractor_diamondtriangles.svg	stimuli_distractor_trianglediamonds.svg	38	no	57	0	735
6.6.1	ios	2022-12-14	14:15:56	14:21:27	317211	60f39f67a5c2c9e50ce470ee	9605298	1	main_z	7	main_z	25	stimuli_distractor_trianglediamonds.svg	stimuli_target_squaretriangles.svg	11	yes	44	1	400
6.6.1	ios	2022-12-14	14:15:56	14:21:27	317211	60f39f67a5c2c9e50ce470ee	9605298	1	main_z	7	advance_on_keypress_ZEE	26	stimuli_distractor_trianglediamonds.svg	stimuli_target_squaretriangles.svg	11	yes	57	0	636
6.6.1	ios	2022-12-14	14:15:56	14:21:29	319962	60f39f67a5c2c9e50ce470ee	9605298	1	main_z	7	main_z	27	stimuli_distractor_trianglediamonds.svg	stimuli_target_diamondsquares.svg	28	yes	44	1	1418
6.6.1	ios	2022-12-14	14:15:56	14:21:29	319962	60f39f67a5c2c9e50ce470ee	9605298	1	main_z	7	advance_on_keypress_ZEE	28	stimuli_distractor_trianglediamonds.svg	stimuli_target_diamondsquares.svg	28	yes	57	0	684
6.6.1	ios	2022-12-14	14:15:56	14:21:32	322514	60f39f67a5c2c9e50ce470ee	9605298	1	main_z	7	main_z	29	stimuli_distractor_trianglediamonds.svg	stimuli_target_trianglecircles.svg	25	yes	44	1	1170
6.6.1	ios	2022-12-14	14:15:56	14:21:32	322514	60f39f67a5c2c9e50ce470ee	9605298	1	main_z	7	advance_on_keypress_ZEE	30	stimuli_distractor_trianglediamonds.svg	stimuli_target_trianglecircles.svg	25	yes	57	0	271
6.6.1	ios	2022-12-14	14:15:56	14:21:34	324546	60f39f67a5c2c9e50ce470ee	9605298	1	main_z	7	main_z	31	stimuli_target_diamondcircles.svg	stimuli_distractor_trianglediamonds.svg	19	yes	44	1	1067
6.6.1	ios	2022-12-14	14:15:56	14:21:34	324546	60f39f67a5c2c9e50ce470ee	9605298	1	main_z	7	advance_on_keypress_ZEE	32	stimuli_target_diamondcircles.svg	stimuli_distractor_trianglediamonds.svg	19	yes	57	0	1789
6.6.1	ios	2022-12-14	14:15:56	14:21:37	327297	60f39f67a5c2c9e50ce470ee	9605298	1	main_z	7	main_z	33	stimuli_target_circlediamonds.svg	stimuli_distractor_diamondtriangles.svg	6	yes	44	1	286
6.6.1	ios	2022-12-14	14:15:56	14:21:37	327297	60f39f67a5c2c9e50ce470ee	9605298	1	main_z	7	advance_on_keypress_ZEE	34	stimuli_target_circlediamonds.svg	stimuli_distractor_diamondtriangles.svg	6	yes	57	0	917
6.6.1	ios	2022-12-14	14:15:56	14:21:39	329212	60f39f67a5c2c9e50ce470ee	9605298	1	main_z	7	main_z	35	stimuli_distractor_diamondtriangles.svg	stimuli_target_circletriangles.svg	13	yes	44	1	301
6.6.1	ios	2022-12-14	14:15:56	14:21:39	329212	60f39f67a5c2c9e50ce470ee	9605298	1	main_z	7	advance_on_keypress_ZEE	36	stimuli_distractor_diamondtriangles.svg	stimuli_target_circletriangles.svg	13	yes	57	0	685
6.6.1	ios	2022-12-14	14:15:56	14:21:40	330928	60f39f67a5c2c9e50ce470ee	9605298	1	main_z	7	main_z	37	stimuli_target_squarediamonds.svg	stimuli_distractor_diamondtriangles.svg	8	yes	44	1	350
6.6.1	ios	2022-12-14	14:15:56	14:21:40	330928	60f39f67a5c2c9e50ce470ee	9605298	1	main_z	7	advance_on_keypress_ZEE	38	stimuli_target_squarediamonds.svg	stimuli_distractor_diamondtriangles.svg	8	yes	57	0	887
6.6.1	ios	2022-12-14	14:15:56	14:21:42	332862	60f39f67a5c2c9e50ce470ee	9605298	1	main_z	7	main_z	39	stimuli_distractor_trianglediamonds.svg	stimuli_target_circletriangles.svg	9	yes	44	1	350
6.6.1	ios	2022-12-14	14:15:56	14:21:42	332862	60f39f67a5c2c9e50ce470ee	9605298	1	main_z	7	advance_on_keypress_ZEE	40	stimuli_distractor_trianglediamonds.svg	stimuli_target_circletriangles.svg	9	yes	57	0	755
6.6.1	ios	2022-12-14	14:15:56	14:21:44	334629	60f39f67a5c2c9e50ce470ee	9605298	1	main_z	7	main_z	41	stimuli_distractor_trianglediamonds.svg	stimuli_distractor_diamondtriangles.svg	36	no	44	0	318
6.6.1	ios	2022-12-14	14:15:56	14:21:44	334629	60f39f67a5c2c9e50ce470ee	9605298	1	main_z	7	advance_on_keypress_ZEE	42	stimuli_distractor_trianglediamonds.svg	stimuli_distractor_diamondtriangles.svg	36	no	57	0	768
6.6.1	ios	2022-12-14	14:15:56	14:21:47	337380	60f39f67a5c2c9e50ce470ee	9605298	1	main_z	7	main_z	43	stimuli_distractor_trianglediamonds.svg	stimuli_target_squarediamonds.svg	12	yes	44	1	1286
6.6.1	ios	2022-12-14	14:15:56	14:21:47	337380	60f39f67a5c2c9e50ce470ee	9605298	1	main_z	7	advance_on_keypress_ZEE	44	stimuli_distractor_trianglediamonds.svg	stimuli_target_squarediamonds.svg	12	yes	57	0	568
6.6.1	ios	2022-12-14	14:15:56	14:21:48	338947	60f39f67a5c2c9e50ce470ee	9605298	1	main_z	7	main_z	45	stimuli_target_circletriangles.svg	stimuli_distractor_trianglediamonds.svg	1	yes	44	1	318
6.6.1	ios	2022-12-14	14:15:56	14:21:48	338947	60f39f67a5c2c9e50ce470ee	9605298	1	main_z	7	advance_on_keypress_ZEE	46	stimuli_target_circletriangles.svg	stimuli_distractor_trianglediamonds.svg	1	yes	57	0	685
6.6.1	ios	2022-12-14	14:15:56	14:21:50	340597	60f39f67a5c2c9e50ce470ee	9605298	1	main_z	7	main_z	47	stimuli_target_squaretriangles.svg	stimuli_distractor_trianglediamonds.svg	3	yes	44	1	285
6.6.1	ios	2022-12-14	14:15:56	14:21:50	340597	60f39f67a5c2c9e50ce470ee	9605298	1	main_z	7	advance_on_keypress_ZEE	48	stimuli_target_squaretriangles.svg	stimuli_distractor_trianglediamonds.svg	3	yes	57	0	671
6.6.1	ios	2022-12-14	14:15:56	14:21:52	342248	60f39f67a5c2c9e50ce470ee	9605298	1	main_z	7	main_z	49	stimuli_target_trianglesquares.svg	stimuli_distractor_trianglediamonds.svg	18	yes	44	1	301
6.6.1	ios	2022-12-14	14:15:56	14:21:52	342248	60f39f67a5c2c9e50ce470ee	9605298	1	main_z	7	advance_on_keypress_ZEE	50	stimuli_target_trianglesquares.svg	stimuli_distractor_trianglediamonds.svg	18	yes	57	0	686
6.6.1	ios	2022-12-14	14:15:56	14:21:54	344764	60f39f67a5c2c9e50ce470ee	9605298	1	main_z	7	main_z	51	stimuli_target_trianglesquares.svg	stimuli_distractor_diamondtriangles.svg	22	yes	44	1	1135
6.6.1	ios	2022-12-14	14:15:56	14:21:54	344764	60f39f67a5c2c9e50ce470ee	9605298	1	main_z	7	advance_on_keypress_ZEE	52	stimuli_target_trianglesquares.svg	stimuli_distractor_diamondtriangles.svg	22	yes	57	0	854
6.6.1	ios	2022-12-14	14:15:56	14:21:57	347399	60f39f67a5c2c9e50ce470ee	9605298	1	main_z	7	main_z	53	stimuli_distractor_diamondtriangles.svg	stimuli_target_trianglecircles.svg	29	yes	44	1	1086
6.6.1	ios	2022-12-14	14:15:56	14:21:57	347399	60f39f67a5c2c9e50ce470ee	9605298	1	main_z	7	advance_on_keypress_ZEE	54	stimuli_distractor_diamondtriangles.svg	stimuli_target_trianglecircles.svg	29	yes	57	0	635
6.6.1	ios	2022-12-14	14:15:56	14:21:59	349798	60f39f67a5c2c9e50ce470ee	9605298	1	main_z	7	main_z	55	stimuli_distractor_diamondtriangles.svg	stimuli_distractor_trianglediamonds.svg	37	no	44	0	1068
6.6.1	ios	2022-12-14	14:15:56	14:21:59	349798	60f39f67a5c2c9e50ce470ee	9605298	1	main_z	7	advance_on_keypress_ZEE	56	stimuli_distractor_diamondtriangles.svg	stimuli_distractor_trianglediamonds.svg	37	no	57	0	538
6.6.1	ios	2022-12-14	14:15:56	14:22:01	351797	60f39f67a5c2c9e50ce470ee	9605298	1	main_z	7	main_z	57	stimuli_distractor_diamondtriangles.svg	stimuli_distractor_diamondtriangles.svg	39	no	44	0	767
6.6.1	ios	2022-12-14	14:15:56	14:22:01	351797	60f39f67a5c2c9e50ce470ee	9605298	1	main_z	7	advance_on_keypress_ZEE	58	stimuli_distractor_diamondtriangles.svg	stimuli_distractor_diamondtriangles.svg	39	no	57	0	555
6.6.1	ios	2022-12-14	14:15:56	14:22:03	354068	60f39f67a5c2c9e50ce470ee	9605298	1	main_z	7	main_z	59	stimuli_target_trianglecircles.svg	stimuli_distractor_diamondtriangles.svg	21	yes	44	1	1021
6.6.1	ios	2022-12-14	14:15:56	14:22:03	354068	60f39f67a5c2c9e50ce470ee	9605298	1	main_z	7	advance_on_keypress_ZEE	60	stimuli_target_trianglecircles.svg	stimuli_distractor_diamondtriangles.svg	21	yes	57	0	651
6.6.1	ios	2022-12-14	14:15:56	14:22:06	356365	60f39f67a5c2c9e50ce470ee	9605298	1	main_z	7	main_z	61	stimuli_distractor_trianglediamonds.svg	stimuli_distractor_diamondtriangles.svg	35	no	44	0	967
6.6.1	ios	2022-12-14	14:15:56	14:22:06	356365	60f39f67a5c2c9e50ce470ee	9605298	1	main_z	7	advance_on_keypress_ZEE	62	stimuli_distractor_trianglediamonds.svg	stimuli_distractor_diamondtriangles.svg	35	no	57	0	568
6.6.1	ios	2022-12-14	14:15:56	14:22:08	358698	60f39f67a5c2c9e50ce470ee	9605298	1	main_z	7	main_z	63	stimuli_distractor_trianglediamonds.svg	stimuli_target_circlediamonds.svg	10	yes	44	1	1084
6.6.1	ios	2022-12-14	14:15:56	14:22:08	358698	60f39f67a5c2c9e50ce470ee	9605298	1	main_z	7	advance_on_keypress_ZEE	64	stimuli_distractor_trianglediamonds.svg	stimuli_target_circlediamonds.svg	10	yes	57	0	704
6.6.1	ios	2022-12-14	14:15:56	14:22:10	360380	60f39f67a5c2c9e50ce470ee	9605298	1	main_z	7	main_z	65	stimuli_distractor_diamondtriangles.svg	stimuli_target_diamondsquares.svg	32	yes	44	1	284
6.6.1	ios	2022-12-14	14:15:56	14:22:10	360380	60f39f67a5c2c9e50ce470ee	9605298	1	main_z	7	advance_on_keypress_ZEE	66	stimuli_distractor_diamondtriangles.svg	stimuli_target_diamondsquares.svg	32	yes	57	0	453
6.6.1	ios	2022-12-14	14:15:56	14:22:11	362080	60f39f67a5c2c9e50ce470ee	9605298	1	main_z	7	main_z	67	stimuli_target_squarediamonds.svg	stimuli_distractor_trianglediamonds.svg	4	yes	44	1	535
6.6.1	ios	2022-12-14	14:15:56	14:22:11	362080	60f39f67a5c2c9e50ce470ee	9605298	1	main_z	7	advance_on_keypress_ZEE	68	stimuli_target_squarediamonds.svg	stimuli_distractor_trianglediamonds.svg	4	yes	57	0	503
6.6.1	ios	2022-12-14	14:15:56	14:22:14	364131	60f39f67a5c2c9e50ce470ee	9605298	1	main_z	7	main_z	69	stimuli_target_diamondsquares.svg	stimuli_distractor_trianglediamonds.svg	20	yes	44	1	867
6.6.1	ios	2022-12-14	14:15:56	14:22:14	364131	60f39f67a5c2c9e50ce470ee	9605298	1	main_z	7	advance_on_keypress_ZEE	70	stimuli_target_diamondsquares.svg	stimuli_distractor_trianglediamonds.svg	20	yes	57	0	534
6.6.1	ios	2022-12-14	14:15:56	14:22:15	365648	60f39f67a5c2c9e50ce470ee	9605298	1	main_z	7	main_z	71	stimuli_distractor_diamondtriangles.svg	stimuli_target_squarediamonds.svg	16	yes	44	1	300
6.6.1	ios	2022-12-14	14:15:56	14:22:15	365648	60f39f67a5c2c9e50ce470ee	9605298	1	main_z	7	advance_on_keypress_ZEE	72	stimuli_distractor_diamondtriangles.svg	stimuli_target_squarediamonds.svg	16	yes	57	0	622
6.6.1	ios	2022-12-14	14:15:56	14:22:17	367315	60f39f67a5c2c9e50ce470ee	9605298	1	main_z	7	main_z	73	stimuli_distractor_diamondtriangles.svg	stimuli_target_diamondcircles.svg	31	yes	44	1	352
6.6.1	ios	2022-12-14	14:15:56	14:22:17	367315	60f39f67a5c2c9e50ce470ee	9605298	1	main_z	7	advance_on_keypress_ZEE	74	stimuli_distractor_diamondtriangles.svg	stimuli_target_diamondcircles.svg	31	yes	57	0	488
6.6.1	ios	2022-12-14	14:15:56	14:22:18	368749	60f39f67a5c2c9e50ce470ee	9605298	1	main_z	7	main_z	75	stimuli_target_circletriangles.svg	stimuli_distractor_diamondtriangles.svg	5	yes	44	1	253
6.6.1	ios	2022-12-14	14:15:56	14:22:18	368749	60f39f67a5c2c9e50ce470ee	9605298	1	main_z	7	advance_on_keypress_ZEE	76	stimuli_target_circletriangles.svg	stimuli_distractor_diamondtriangles.svg	5	yes	57	0	570
6.6.1	ios	2022-12-14	14:15:56	14:22:20	370231	60f39f67a5c2c9e50ce470ee	9605298	1	main_z	7	main_z	77	stimuli_distractor_diamondtriangles.svg	stimuli_target_squaretriangles.svg	15	yes	44	1	216
6.6.1	ios	2022-12-14	14:15:56	14:22:20	370231	60f39f67a5c2c9e50ce470ee	9605298	1	main_z	7	advance_on_keypress_ZEE	78	stimuli_distractor_diamondtriangles.svg	stimuli_target_squaretriangles.svg	15	yes	57	0	651
6.6.1	ios	2022-12-14	14:15:56	14:22:22	372334	60f39f67a5c2c9e50ce470ee	9605298	1	main_z	7	main_z	79	stimuli_distractor_trianglediamonds.svg	stimuli_distractor_trianglediamonds.svg	34	no	44	0	752
6.6.1	ios	2022-12-14	14:15:56	14:22:22	372334	60f39f67a5c2c9e50ce470ee	9605298	1	main_z	7	advance_on_keypress_ZEE	80	stimuli_distractor_trianglediamonds.svg	stimuli_distractor_trianglediamonds.svg	34	no	57	0	588
6.6.1	ios	2022-12-14	14:15:56	14:22:25	375615	60f39f67a5c2c9e50ce470ee	9605298	1	main_z	7	main_z	81	stimuli_distractor_diamondtriangles.svg	stimuli_distractor_trianglediamonds.svg	38	no	0	1	2000
6.6.1	ios	2022-12-14	14:15:56	14:22:25	375615	60f39f67a5c2c9e50ce470ee	9605298	1	main_z	7	advance_on_keypress_ZEE	82	stimuli_distractor_diamondtriangles.svg	stimuli_distractor_trianglediamonds.svg	38	no	57	0	453
6.6.1	ios	2022-12-14	14:15:56	14:22:26	377066	60f39f67a5c2c9e50ce470ee	9605298	1	main_z	7	main_z	83	stimuli_distractor_trianglediamonds.svg	stimuli_target_trianglecircles.svg	25	yes	44	1	319
6.6.1	ios	2022-12-14	14:15:56	14:22:26	377066	60f39f67a5c2c9e50ce470ee	9605298	1	main_z	7	advance_on_keypress_ZEE	84	stimuli_distractor_trianglediamonds.svg	stimuli_target_trianglecircles.svg	25	yes	57	0	601
6.6.1	ios	2022-12-14	14:15:56	14:22:28	378702	60f39f67a5c2c9e50ce470ee	9605298	1	main_z	7	main_z	85	stimuli_target_circlediamonds.svg	stimuli_distractor_diamondtriangles.svg	6	yes	44	1	337
6.6.1	ios	2022-12-14	14:15:56	14:22:28	378702	60f39f67a5c2c9e50ce470ee	9605298	1	main_z	7	advance_on_keypress_ZEE	86	stimuli_target_circlediamonds.svg	stimuli_distractor_diamondtriangles.svg	6	yes	57	0	486
6.6.1	ios	2022-12-14	14:15:56	14:22:30	380966	60f39f67a5c2c9e50ce470ee	9605298	1	main_z	7	main_z	87	stimuli_distractor_trianglediamonds.svg	stimuli_target_trianglesquares.svg	26	yes	44	1	1099
6.6.1	ios	2022-12-14	14:15:56	14:22:30	380966	60f39f67a5c2c9e50ce470ee	9605298	1	main_z	7	advance_on_keypress_ZEE	88	stimuli_distractor_trianglediamonds.svg	stimuli_target_trianglesquares.svg	26	yes	57	0	534
6.6.1	ios	2022-12-14	14:15:56	14:22:32	382549	60f39f67a5c2c9e50ce470ee	9605298	1	main_z	7	main_z	89	stimuli_target_trianglesquares.svg	stimuli_distractor_trianglediamonds.svg	18	yes	44	1	366
6.6.1	ios	2022-12-14	14:15:56	14:22:32	382549	60f39f67a5c2c9e50ce470ee	9605298	1	main_z	7	advance_on_keypress_ZEE	90	stimuli_target_trianglesquares.svg	stimuli_distractor_trianglediamonds.svg	18	yes	57	0	438
6.6.1	ios	2022-12-14	14:15:56	14:22:34	384833	60f39f67a5c2c9e50ce470ee	9605298	1	main_z	7	main_z	91	stimuli_distractor_diamondtriangles.svg	stimuli_distractor_diamondtriangles.svg	40	no	44	0	1151
6.6.1	ios	2022-12-14	14:15:56	14:22:34	384833	60f39f67a5c2c9e50ce470ee	9605298	1	main_z	7	advance_on_keypress_ZEE	92	stimuli_distractor_diamondtriangles.svg	stimuli_distractor_diamondtriangles.svg	40	no	57	0	602
6.6.1	ios	2022-12-14	14:15:56	14:22:37	387285	60f39f67a5c2c9e50ce470ee	9605298	1	main_z	7	main_z	93	stimuli_distractor_diamondtriangles.svg	stimuli_target_diamondsquares.svg	32	yes	44	1	1153
6.6.1	ios	2022-12-14	14:15:56	14:22:37	387285	60f39f67a5c2c9e50ce470ee	9605298	1	main_z	7	advance_on_keypress_ZEE	94	stimuli_distractor_diamondtriangles.svg	stimuli_target_diamondsquares.svg	32	yes	57	0	1386
6.6.1	ios	2022-12-14	14:15:56	14:22:39	389684	60f39f67a5c2c9e50ce470ee	9605298	1	main_z	7	main_z	95	stimuli_distractor_diamondtriangles.svg	stimuli_distractor_diamondtriangles.svg	39	no	44	0	320
6.6.1	ios	2022-12-14	14:15:56	14:22:39	389684	60f39f67a5c2c9e50ce470ee	9605298	1	main_z	7	advance_on_keypress_ZEE	96	stimuli_distractor_diamondtriangles.svg	stimuli_distractor_diamondtriangles.svg	39	no	57	0	435
6.6.1	ios	2022-12-14	14:15:56	14:22:41	391602	60f39f67a5c2c9e50ce470ee	9605298	1	main_z	7	main_z	97	stimuli_target_squaretriangles.svg	stimuli_distractor_trianglediamonds.svg	3	yes	44	1	787
6.6.1	ios	2022-12-14	14:15:56	14:22:41	391602	60f39f67a5c2c9e50ce470ee	9605298	1	main_z	7	advance_on_keypress_ZEE	98	stimuli_target_squaretriangles.svg	stimuli_distractor_trianglediamonds.svg	3	yes	57	0	502
6.6.1	ios	2022-12-14	14:15:56	14:22:43	393984	60f39f67a5c2c9e50ce470ee	9605298	1	main_z	7	main_z	99	stimuli_target_diamondcircles.svg	stimuli_distractor_diamondtriangles.svg	23	yes	44	1	1184
6.6.1	ios	2022-12-14	14:15:56	14:22:43	393984	60f39f67a5c2c9e50ce470ee	9605298	1	main_z	7	advance_on_keypress_ZEE	100	stimuli_target_diamondcircles.svg	stimuli_distractor_diamondtriangles.svg	23	yes	57	0	469
6.6.1	ios	2022-12-14	14:15:56	14:22:46	396167	60f39f67a5c2c9e50ce470ee	9605298	1	main_z	7	main_z	101	stimuli_target_trianglecircles.svg	stimuli_distractor_trianglediamonds.svg	17	yes	44	1	1018
6.6.1	ios	2022-12-14	14:15:56	14:22:46	396167	60f39f67a5c2c9e50ce470ee	9605298	1	main_z	7	advance_on_keypress_ZEE	102	stimuli_target_trianglecircles.svg	stimuli_distractor_trianglediamonds.svg	17	yes	57	0	1967
6.6.1	ios	2022-12-14	14:15:56	14:22:49	399283	60f39f67a5c2c9e50ce470ee	9605298	1	main_z	7	main_z	103	stimuli_distractor_trianglediamonds.svg	stimuli_target_squaretriangles.svg	11	yes	44	1	466
6.6.1	ios	2022-12-14	14:15:56	14:22:49	399283	60f39f67a5c2c9e50ce470ee	9605298	1	main_z	7	advance_on_keypress_ZEE	104	stimuli_distractor_trianglediamonds.svg	stimuli_target_squaretriangles.svg	11	yes	57	0	518
6.6.1	ios	2022-12-14	14:15:56	14:22:51	401553	60f39f67a5c2c9e50ce470ee	9605298	1	main_z	7	main_z	105	stimuli_target_trianglecircles.svg	stimuli_distractor_diamondtriangles.svg	21	yes	44	1	1068
6.6.1	ios	2022-12-14	14:15:56	14:22:51	401553	60f39f67a5c2c9e50ce470ee	9605298	1	main_z	7	advance_on_keypress_ZEE	106	stimuli_target_trianglecircles.svg	stimuli_distractor_diamondtriangles.svg	21	yes	57	0	517
6.6.1	ios	2022-12-14	14:15:56	14:22:54	404353	60f39f67a5c2c9e50ce470ee	9605298	1	main_z	7	main_z	107	stimuli_distractor_trianglediamonds.svg	stimuli_target_squarediamonds.svg	12	yes	44	1	1603
6.6.1	ios	2022-12-14	14:15:56	14:22:54	404353	60f39f67a5c2c9e50ce470ee	9605298	1	main_z	7	advance_on_keypress_ZEE	108	stimuli_distractor_trianglediamonds.svg	stimuli_target_squarediamonds.svg	12	yes	57	0	651
6.6.1	ios	2022-12-14	14:15:56	14:22:56	406303	60f39f67a5c2c9e50ce470ee	9605298	1	main_z	7	main_z	109	stimuli_target_squarediamonds.svg	stimuli_distractor_diamondtriangles.svg	8	yes	44	1	618
6.6.1	ios	2022-12-14	14:15:56	14:22:56	406303	60f39f67a5c2c9e50ce470ee	9605298	1	main_z	7	advance_on_keypress_ZEE	110	stimuli_target_squarediamonds.svg	stimuli_distractor_diamondtriangles.svg	8	yes	57	0	401
6.6.1	ios	2022-12-14	14:15:56	14:22:57	407568	60f39f67a5c2c9e50ce470ee	9605298	1	main_z	7	main_z	111	stimuli_distractor_diamondtriangles.svg	stimuli_distractor_trianglediamonds.svg	37	no	44	0	169
6.6.1	ios	2022-12-14	14:15:56	14:22:57	407568	60f39f67a5c2c9e50ce470ee	9605298	1	main_z	7	advance_on_keypress_ZEE	112	stimuli_distractor_diamondtriangles.svg	stimuli_distractor_trianglediamonds.svg	37	no	57	0	417
6.6.1	ios	2022-12-14	14:15:56	14:22:59	409233	60f39f67a5c2c9e50ce470ee	9605298	1	main_z	7	main_z	113	stimuli_distractor_trianglediamonds.svg	stimuli_distractor_trianglediamonds.svg	34	no	44	0	535
6.6.1	ios	2022-12-14	14:15:56	14:22:59	409233	60f39f67a5c2c9e50ce470ee	9605298	1	main_z	7	advance_on_keypress_ZEE	114	stimuli_distractor_trianglediamonds.svg	stimuli_distractor_trianglediamonds.svg	34	no	57	0	568
6.6.1	ios	2022-12-14	14:15:56	14:23:01	411553	60f39f67a5c2c9e50ce470ee	9605298	1	main_z	7	main_z	115	stimuli_distractor_trianglediamonds.svg	stimuli_distractor_diamondtriangles.svg	35	no	44	0	1069
6.6.1	ios	2022-12-14	14:15:56	14:23:01	411553	60f39f67a5c2c9e50ce470ee	9605298	1	main_z	7	advance_on_keypress_ZEE	116	stimuli_distractor_trianglediamonds.svg	stimuli_distractor_diamondtriangles.svg	35	no	57	0	519
6.6.1	ios	2022-12-14	14:15:56	14:23:03	413819	60f39f67a5c2c9e50ce470ee	9605298	1	main_z	7	main_z	117	stimuli_target_trianglesquares.svg	stimuli_distractor_diamondtriangles.svg	22	yes	44	1	1051
6.6.1	ios	2022-12-14	14:15:56	14:23:03	413819	60f39f67a5c2c9e50ce470ee	9605298	1	main_z	7	advance_on_keypress_ZEE	118	stimuli_target_trianglesquares.svg	stimuli_distractor_diamondtriangles.svg	22	yes	57	0	468
6.6.1	ios	2022-12-14	14:15:56	14:23:05	415451	60f39f67a5c2c9e50ce470ee	9605298	1	main_z	7	main_z	119	stimuli_distractor_diamondtriangles.svg	stimuli_target_circletriangles.svg	13	yes	44	1	468
6.6.1	ios	2022-12-14	14:15:56	14:23:05	415451	60f39f67a5c2c9e50ce470ee	9605298	1	main_z	7	advance_on_keypress_ZEE	120	stimuli_distractor_diamondtriangles.svg	stimuli_target_circletriangles.svg	13	yes	57	0	552
6.6.1	ios	2022-12-14	14:15:56	14:23:08	418569	60f39f67a5c2c9e50ce470ee	9605298	1	main_z	7	main_z	121	stimuli_distractor_diamondtriangles.svg	stimuli_target_circlediamonds.svg	14	yes	44	1	1869
6.6.1	ios	2022-12-14	14:15:56	14:23:08	418569	60f39f67a5c2c9e50ce470ee	9605298	1	main_z	7	advance_on_keypress_ZEE	122	stimuli_distractor_diamondtriangles.svg	stimuli_target_circlediamonds.svg	14	yes	57	0	872
6.6.1	ios	2022-12-14	14:15:56	14:23:10	420619	60f39f67a5c2c9e50ce470ee	9605298	1	main_z	7	main_z	123	stimuli_target_circletriangles.svg	stimuli_distractor_trianglediamonds.svg	1	yes	44	1	484
6.6.1	ios	2022-12-14	14:15:56	14:23:10	420619	60f39f67a5c2c9e50ce470ee	9605298	1	main_z	7	advance_on_keypress_ZEE	124	stimuli_target_circletriangles.svg	stimuli_distractor_trianglediamonds.svg	1	yes	57	0	600
6.6.1	ios	2022-12-14	14:15:56	14:23:13	423286	60f39f67a5c2c9e50ce470ee	9605298	1	main_z	7	main_z	125	stimuli_distractor_diamondtriangles.svg	stimuli_target_squarediamonds.svg	16	yes	44	1	1368
6.6.1	ios	2022-12-14	14:15:56	14:23:13	423286	60f39f67a5c2c9e50ce470ee	9605298	1	main_z	7	advance_on_keypress_ZEE	126	stimuli_distractor_diamondtriangles.svg	stimuli_target_squarediamonds.svg	16	yes	57	0	471
6.6.1	ios	2022-12-14	14:15:56	14:23:15	425419	60f39f67a5c2c9e50ce470ee	9605298	1	main_z	7	main_z	127	stimuli_distractor_trianglediamonds.svg	stimuli_distractor_trianglediamonds.svg	33	no	44	0	968
6.6.1	ios	2022-12-14	14:15:56	14:23:15	425419	60f39f67a5c2c9e50ce470ee	9605298	1	main_z	7	advance_on_keypress_ZEE	128	stimuli_distractor_trianglediamonds.svg	stimuli_distractor_trianglediamonds.svg	33	no	57	0	521
6.6.1	ios	2022-12-14	14:15:56	14:23:18	428636	60f39f67a5c2c9e50ce470ee	9605298	1	main_z	7	main_z	129	stimuli_target_circlediamonds.svg	stimuli_distractor_trianglediamonds.svg	2	yes	0	0	2000
6.6.1	ios	2022-12-14	14:15:56	14:23:18	428636	60f39f67a5c2c9e50ce470ee	9605298	1	main_z	7	advance_on_keypress_ZEE	130	stimuli_target_circlediamonds.svg	stimuli_distractor_trianglediamonds.svg	2	yes	57	0	4121
6.6.1	ios	2022-12-14	14:15:56	14:23:24	434453	60f39f67a5c2c9e50ce470ee	9605298	1	main_z	7	main_z	131	stimuli_distractor_trianglediamonds.svg	stimuli_target_circlediamonds.svg	10	yes	44	1	1018
6.6.1	ios	2022-12-14	14:15:56	14:23:24	434453	60f39f67a5c2c9e50ce470ee	9605298	1	main_z	7	advance_on_keypress_ZEE	132	stimuli_distractor_trianglediamonds.svg	stimuli_target_circlediamonds.svg	10	yes	57	0	468
6.6.1	ios	2022-12-14	14:15:56	14:23:27	437339	60f39f67a5c2c9e50ce470ee	9605298	1	main_z	7	main_z	133	stimuli_target_diamondsquares.svg	stimuli_distractor_diamondtriangles.svg	24	yes	44	1	1721
6.6.1	ios	2022-12-14	14:15:56	14:23:27	437339	60f39f67a5c2c9e50ce470ee	9605298	1	main_z	7	advance_on_keypress_ZEE	134	stimuli_target_diamondsquares.svg	stimuli_distractor_diamondtriangles.svg	24	yes	57	0	568
6.6.1	ios	2022-12-14	14:15:56	14:23:29	440006	60f39f67a5c2c9e50ce470ee	9605298	1	main_z	7	main_z	135	stimuli_target_diamondsquares.svg	stimuli_distractor_trianglediamonds.svg	20	yes	44	1	1404
6.6.1	ios	2022-12-14	14:15:56	14:23:29	440006	60f39f67a5c2c9e50ce470ee	9605298	1	main_z	7	advance_on_keypress_ZEE	136	stimuli_target_diamondsquares.svg	stimuli_distractor_trianglediamonds.svg	20	yes	57	0	503
6.6.1	ios	2022-12-14	14:15:56	14:23:31	441770	60f39f67a5c2c9e50ce470ee	9605298	1	main_z	7	main_z	137	stimuli_target_circletriangles.svg	stimuli_distractor_diamondtriangles.svg	5	yes	44	1	569
6.6.1	ios	2022-12-14	14:15:56	14:23:31	441770	60f39f67a5c2c9e50ce470ee	9605298	1	main_z	7	advance_on_keypress_ZEE	138	stimuli_target_circletriangles.svg	stimuli_distractor_diamondtriangles.svg	5	yes	57	0	651
6.6.1	ios	2022-12-14	14:15:56	14:23:34	445104	60f39f67a5c2c9e50ce470ee	9605298	1	main_z	7	main_z	139	stimuli_distractor_trianglediamonds.svg	stimuli_target_diamondcircles.svg	27	yes	0	0	2000
6.6.1	ios	2022-12-14	14:15:56	14:23:34	445104	60f39f67a5c2c9e50ce470ee	9605298	1	main_z	7	advance_on_keypress_ZEE	140	stimuli_distractor_trianglediamonds.svg	stimuli_target_diamondcircles.svg	27	yes	57	0	1086
6.6.1	ios	2022-12-14	14:15:56	14:23:37	447687	60f39f67a5c2c9e50ce470ee	9605298	1	main_z	7	main_z	141	stimuli_distractor_diamondtriangles.svg	stimuli_target_trianglesquares.svg	30	yes	44	1	818
6.6.1	ios	2022-12-14	14:15:56	14:23:37	447687	60f39f67a5c2c9e50ce470ee	9605298	1	main_z	7	advance_on_keypress_ZEE	142	stimuli_distractor_diamondtriangles.svg	stimuli_target_trianglesquares.svg	30	yes	57	0	570
6.6.1	ios	2022-12-14	14:15:56	14:23:40	450407	60f39f67a5c2c9e50ce470ee	9605298	1	main_z	7	main_z	143	stimuli_distractor_diamondtriangles.svg	stimuli_target_squaretriangles.svg	15	yes	44	1	1454
6.6.1	ios	2022-12-14	14:15:56	14:23:40	450407	60f39f67a5c2c9e50ce470ee	9605298	1	main_z	7	advance_on_keypress_ZEE	144	stimuli_distractor_diamondtriangles.svg	stimuli_target_squaretriangles.svg	15	yes	57	0	604
6.6.1	ios	2022-12-14	14:15:56	14:23:43	453705	60f39f67a5c2c9e50ce470ee	9605298	1	main_z	7	main_z	145	stimuli_distractor_trianglediamonds.svg	stimuli_target_diamondsquares.svg	28	yes	0	0	2000
6.6.1	ios	2022-12-14	14:15:56	14:23:43	453705	60f39f67a5c2c9e50ce470ee	9605298	1	main_z	7	advance_on_keypress_ZEE	146	stimuli_distractor_trianglediamonds.svg	stimuli_target_diamondsquares.svg	28	yes	57	0	618
6.6.1	ios	2022-12-14	14:15:56	14:23:46	456188	60f39f67a5c2c9e50ce470ee	9605298	1	main_z	7	main_z	147	stimuli_target_squaretriangles.svg	stimuli_distractor_diamondtriangles.svg	7	yes	44	1	1185
6.6.1	ios	2022-12-14	14:15:56	14:23:46	456188	60f39f67a5c2c9e50ce470ee	9605298	1	main_z	7	advance_on_keypress_ZEE	148	stimuli_target_squaretriangles.svg	stimuli_distractor_diamondtriangles.svg	7	yes	57	0	854
6.6.1	ios	2022-12-14	14:15:56	14:23:49	459739	60f39f67a5c2c9e50ce470ee	9605298	1	main_z	7	main_z	149	stimuli_distractor_trianglediamonds.svg	stimuli_distractor_diamondtriangles.svg	36	no	0	1	2000
6.6.1	ios	2022-12-14	14:15:56	14:23:49	459739	60f39f67a5c2c9e50ce470ee	9605298	1	main_z	7	advance_on_keypress_ZEE	150	stimuli_distractor_trianglediamonds.svg	stimuli_distractor_diamondtriangles.svg	36	no	57	0	954
6.6.1	ios	2022-12-14	14:15:56	14:23:53	463373	60f39f67a5c2c9e50ce470ee	9605298	1	main_z	7	main_z	151	stimuli_distractor_diamondtriangles.svg	stimuli_target_trianglecircles.svg	29	yes	0	0	2000
6.6.1	ios	2022-12-14	14:15:56	14:23:53	463373	60f39f67a5c2c9e50ce470ee	9605298	1	main_z	7	advance_on_keypress_ZEE	152	stimuli_distractor_diamondtriangles.svg	stimuli_target_trianglecircles.svg	29	yes	57	0	567
6.6.1	ios	2022-12-14	14:15:56	14:23:56	466622	60f39f67a5c2c9e50ce470ee	9605298	1	main_z	7	main_z	153	stimuli_target_diamondcircles.svg	stimuli_distractor_trianglediamonds.svg	19	yes	0	0	2000
6.6.1	ios	2022-12-14	14:15:56	14:23:56	466622	60f39f67a5c2c9e50ce470ee	9605298	1	main_z	7	advance_on_keypress_ZEE	154	stimuli_target_diamondcircles.svg	stimuli_distractor_trianglediamonds.svg	19	yes	57	0	638
6.6.1	ios	2022-12-14	14:15:56	14:23:59	469326	60f39f67a5c2c9e50ce470ee	9605298	1	main_z	7	main_z	155	stimuli_distractor_diamondtriangles.svg	stimuli_target_diamondcircles.svg	31	yes	44	1	1388
6.6.1	ios	2022-12-14	14:15:56	14:23:59	469326	60f39f67a5c2c9e50ce470ee	9605298	1	main_z	7	advance_on_keypress_ZEE	156	stimuli_distractor_diamondtriangles.svg	stimuli_target_diamondcircles.svg	31	yes	57	0	854
6.6.1	ios	2022-12-14	14:15:56	14:24:02	472872	60f39f67a5c2c9e50ce470ee	9605298	1	main_z	7	main_z	157	stimuli_target_squarediamonds.svg	stimuli_distractor_trianglediamonds.svg	4	yes	0	0	2000
6.6.1	ios	2022-12-14	14:15:56	14:24:02	472872	60f39f67a5c2c9e50ce470ee	9605298	1	main_z	7	advance_on_keypress_ZEE	158	stimuli_target_squarediamonds.svg	stimuli_distractor_trianglediamonds.svg	4	yes	57	0	738
6.6.1	ios	2022-12-14	14:15:56	14:24:05	476078	60f39f67a5c2c9e50ce470ee	9605298	1	main_z	7	main_z	159	stimuli_distractor_trianglediamonds.svg	stimuli_target_circletriangles.svg	9	yes	44	1	1790
6.6.1	ios	2022-12-14	14:15:56	14:24:05	476078	60f39f67a5c2c9e50ce470ee	9605298	1	main_z	7	advance_on_keypress_ZEE	160	stimuli_distractor_trianglediamonds.svg	stimuli_target_circletriangles.svg	9	yes	57	0	551
6.6.1	ios	2022-12-14	14:15:56	14:24:26	496215	60f39f67a5c2c9e50ce470ee	9605298	1	practice_slash	9	practice_slash	1	stimuli_distractor_trianglediamonds.svg	stimuli_target_diamondcircles.svg	12	yes	0	0	2000
6.6.1	ios	2022-12-14	14:15:56	14:24:26	496215	60f39f67a5c2c9e50ce470ee	9605298	1	practice_slash	9	advance_on_keypress_SLASH	2	stimuli_distractor_trianglediamonds.svg	stimuli_target_diamondcircles.svg	12	yes	57	0	1103
6.6.1	ios	2022-12-14	14:15:56	14:24:29	499711	60f39f67a5c2c9e50ce470ee	9605298	1	practice_slash	9	practice_slash	3	stimuli_distractor_trianglediamonds.svg	stimuli_distractor_trianglediamonds.svg	15	no	53	0	718
6.6.1	ios	2022-12-14	14:15:56	14:24:29	499711	60f39f67a5c2c9e50ce470ee	9605298	1	practice_slash	9	advance_on_keypress_SLASH	4	stimuli_distractor_trianglediamonds.svg	stimuli_distractor_trianglediamonds.svg	15	no	57	0	7279
6.6.1	ios	2022-12-14	14:15:56	14:24:40	510456	60f39f67a5c2c9e50ce470ee	9605298	1	practice_slash	9	practice_slash	5	stimuli_distractor_diamondtriangles.svg	stimuli_distractor_diamondtriangles.svg	13	no	53	0	1787
6.6.1	ios	2022-12-14	14:15:56	14:24:40	510456	60f39f67a5c2c9e50ce470ee	9605298	1	practice_slash	9	advance_on_keypress_SLASH	6	stimuli_distractor_diamondtriangles.svg	stimuli_distractor_diamondtriangles.svg	13	no	57	0	484
6.6.1	ios	2022-12-14	14:15:56	14:24:42	513003	60f39f67a5c2c9e50ce470ee	9605298	1	practice_slash	9	practice_slash	7	stimuli_target_squarediamonds.svg	stimuli_distractor_diamondtriangles.svg	2	yes	53	1	385
6.6.1	ios	2022-12-14	14:15:56	14:24:42	513003	60f39f67a5c2c9e50ce470ee	9605298	1	practice_slash	9	advance_on_keypress_SLASH	8	stimuli_target_squarediamonds.svg	stimuli_distractor_diamondtriangles.svg	2	yes	57	0	418
6.6.1	ios	2022-12-14	14:15:56	14:24:45	516104	60f39f67a5c2c9e50ce470ee	9605298	1	practice_slash	9	practice_slash	9	stimuli_distractor_trianglediamonds.svg	stimuli_distractor_diamondtriangles.svg	16	no	53	0	1001
6.6.1	ios	2022-12-14	14:15:56	14:24:45	516104	60f39f67a5c2c9e50ce470ee	9605298	1	practice_slash	9	advance_on_keypress_SLASH	10	stimuli_distractor_trianglediamonds.svg	stimuli_distractor_diamondtriangles.svg	16	no	57	0	468
6.6.1	ios	2022-12-14	14:15:56	14:24:48	518636	60f39f67a5c2c9e50ce470ee	9605298	1	practice_slash	9	practice_slash	11	stimuli_distractor_diamondtriangles.svg	stimuli_target_circletriangles.svg	7	yes	53	1	384
6.6.1	ios	2022-12-14	14:15:56	14:24:48	518636	60f39f67a5c2c9e50ce470ee	9605298	1	practice_slash	9	advance_on_keypress_SLASH	12	stimuli_distractor_diamondtriangles.svg	stimuli_target_circletriangles.svg	7	yes	57	0	50
6.6.1	ios	2022-12-14	14:15:56	14:24:50	520720	60f39f67a5c2c9e50ce470ee	9605298	1	practice_slash	9	practice_slash	13	stimuli_distractor_diamondtriangles.svg	stimuli_target_trianglecircles.svg	9	yes	53	1	351
6.6.1	ios	2022-12-14	14:15:56	14:24:50	520720	60f39f67a5c2c9e50ce470ee	9605298	1	practice_slash	9	advance_on_keypress_SLASH	14	stimuli_distractor_diamondtriangles.svg	stimuli_target_trianglecircles.svg	9	yes	57	0	618
6.6.1	ios	2022-12-14	14:15:56	14:24:53	523353	60f39f67a5c2c9e50ce470ee	9605298	1	practice_slash	9	practice_slash	15	stimuli_distractor_trianglediamonds.svg	stimuli_target_squarediamonds.svg	11	yes	53	1	334
6.6.1	ios	2022-12-14	14:15:56	14:24:53	523353	60f39f67a5c2c9e50ce470ee	9605298	1	practice_slash	9	advance_on_keypress_SLASH	16	stimuli_distractor_trianglediamonds.svg	stimuli_target_squarediamonds.svg	11	yes	57	0	417
6.6.1	ios	2022-12-14	14:15:56	14:24:56	526737	60f39f67a5c2c9e50ce470ee	9605298	1	practice_slash	9	practice_slash	17	stimuli_distractor_diamondtriangles.svg	stimuli_distractor_trianglediamonds.svg	14	no	53	0	1284
6.6.1	ios	2022-12-14	14:15:56	14:24:56	526737	60f39f67a5c2c9e50ce470ee	9605298	1	practice_slash	9	advance_on_keypress_SLASH	18	stimuli_distractor_diamondtriangles.svg	stimuli_distractor_trianglediamonds.svg	14	no	57	0	468
6.6.1	ios	2022-12-14	14:15:56	14:24:59	529571	60f39f67a5c2c9e50ce470ee	9605298	1	practice_slash	9	practice_slash	19	stimuli_target_diamondsquares.svg	stimuli_distractor_trianglediamonds.svg	6	yes	53	1	684
6.6.1	ios	2022-12-14	14:15:56	14:24:59	529571	60f39f67a5c2c9e50ce470ee	9605298	1	practice_slash	9	advance_on_keypress_SLASH	20	stimuli_target_diamondsquares.svg	stimuli_distractor_trianglediamonds.svg	6	yes	57	0	284
6.6.1	ios	2022-12-14	14:15:56	14:25:02	532187	60f39f67a5c2c9e50ce470ee	9605298	1	practice_slash	9	practice_slash	21	stimuli_target_circlediamonds.svg	stimuli_distractor_trianglediamonds.svg	4	yes	53	1	650
6.6.1	ios	2022-12-14	14:15:56	14:25:02	532187	60f39f67a5c2c9e50ce470ee	9605298	1	practice_slash	9	advance_on_keypress_SLASH	22	stimuli_target_circlediamonds.svg	stimuli_distractor_trianglediamonds.svg	4	yes	57	0	484
6.6.1	ios	2022-12-14	14:15:56	14:25:04	534687	60f39f67a5c2c9e50ce470ee	9605298	1	practice_slash	9	practice_slash	23	stimuli_distractor_diamondtriangles.svg	stimuli_target_diamondcircles.svg	8	yes	53	1	334
6.6.1	ios	2022-12-14	14:15:56	14:25:04	534687	60f39f67a5c2c9e50ce470ee	9605298	1	practice_slash	9	advance_on_keypress_SLASH	24	stimuli_distractor_diamondtriangles.svg	stimuli_target_diamondcircles.svg	8	yes	57	0	1068
6.6.1	ios	2022-12-14	14:15:56	14:25:08	538138	60f39f67a5c2c9e50ce470ee	9605298	1	practice_slash	9	practice_slash	25	stimuli_distractor_trianglediamonds.svg	stimuli_target_circlediamonds.svg	10	yes	53	1	702
6.6.1	ios	2022-12-14	14:15:56	14:25:08	538138	60f39f67a5c2c9e50ce470ee	9605298	1	practice_slash	9	advance_on_keypress_SLASH	26	stimuli_distractor_trianglediamonds.svg	stimuli_target_circlediamonds.svg	10	yes	57	0	401
6.6.1	ios	2022-12-14	14:15:56	14:25:10	540554	60f39f67a5c2c9e50ce470ee	9605298	1	practice_slash	9	practice_slash	27	stimuli_target_circlediamonds.svg	stimuli_distractor_diamondtriangles.svg	1	yes	53	1	334
6.6.1	ios	2022-12-14	14:15:56	14:25:10	540554	60f39f67a5c2c9e50ce470ee	9605298	1	practice_slash	9	advance_on_keypress_SLASH	28	stimuli_target_circlediamonds.svg	stimuli_distractor_diamondtriangles.svg	1	yes	57	0	484
6.6.1	ios	2022-12-14	14:15:56	14:25:13	543888	60f39f67a5c2c9e50ce470ee	9605298	1	practice_slash	9	practice_slash	29	stimuli_target_diamondsquares.svg	stimuli_distractor_diamondtriangles.svg	3	yes	53	1	1167
6.6.1	ios	2022-12-14	14:15:56	14:25:13	543888	60f39f67a5c2c9e50ce470ee	9605298	1	practice_slash	9	advance_on_keypress_SLASH	30	stimuli_target_diamondsquares.svg	stimuli_distractor_diamondtriangles.svg	3	yes	57	0	367
6.6.1	ios	2022-12-14	14:15:56	14:25:16	546338	60f39f67a5c2c9e50ce470ee	9605298	1	practice_slash	9	practice_slash	31	stimuli_target_squarediamonds.svg	stimuli_distractor_trianglediamonds.svg	5	yes	53	1	401
6.6.1	ios	2022-12-14	14:15:56	14:25:16	546338	60f39f67a5c2c9e50ce470ee	9605298	1	practice_slash	9	advance_on_keypress_SLASH	32	stimuli_target_squarediamonds.svg	stimuli_distractor_trianglediamonds.svg	5	yes	57	0	550
6.6.1	ios	2022-12-14	14:15:56	14:25:47	577570	60f39f67a5c2c9e50ce470ee	9605298	1	main_slash	11	main_slash	1	stimuli_target_diamondcircles.svg	stimuli_distractor_trianglediamonds.svg	19	yes	53	1	833
6.6.1	ios	2022-12-14	14:15:56	14:25:47	577570	60f39f67a5c2c9e50ce470ee	9605298	1	main_slash	11	advance_on_keypress_SLASH	2	stimuli_target_diamondcircles.svg	stimuli_distractor_trianglediamonds.svg	19	yes	57	0	700
6.6.1	ios	2022-12-14	14:15:56	14:25:49	579973	60f39f67a5c2c9e50ce470ee	9605298	1	main_slash	11	main_slash	3	stimuli_distractor_trianglediamonds.svg	stimuli_distractor_trianglediamonds.svg	33	no	53	0	1003
6.6.1	ios	2022-12-14	14:15:56	14:25:49	579973	60f39f67a5c2c9e50ce470ee	9605298	1	main_slash	11	advance_on_keypress_SLASH	4	stimuli_distractor_trianglediamonds.svg	stimuli_distractor_trianglediamonds.svg	33	no	57	0	484
6.6.1	ios	2022-12-14	14:15:56	14:25:51	581873	60f39f67a5c2c9e50ce470ee	9605298	1	main_slash	11	main_slash	5	stimuli_target_trianglesquares.svg	stimuli_distractor_trianglediamonds.svg	18	yes	53	1	720
6.6.1	ios	2022-12-14	14:15:56	14:25:51	581873	60f39f67a5c2c9e50ce470ee	9605298	1	main_slash	11	advance_on_keypress_SLASH	6	stimuli_target_trianglesquares.svg	stimuli_distractor_trianglediamonds.svg	18	yes	57	0	388
6.6.1	ios	2022-12-14	14:15:56	14:25:53	583289	60f39f67a5c2c9e50ce470ee	9605298	1	main_slash	11	main_slash	7	stimuli_distractor_diamondtriangles.svg	stimuli_target_circlediamonds.svg	14	yes	53	1	337
6.6.1	ios	2022-12-14	14:15:56	14:25:53	583289	60f39f67a5c2c9e50ce470ee	9605298	1	main_slash	11	advance_on_keypress_SLASH	8	stimuli_distractor_diamondtriangles.svg	stimuli_target_circlediamonds.svg	14	yes	57	0	568
6.6.1	ios	2022-12-14	14:15:56	14:25:54	584890	60f39f67a5c2c9e50ce470ee	9605298	1	main_slash	11	main_slash	9	stimuli_distractor_diamondtriangles.svg	stimuli_target_squaretriangles.svg	15	yes	53	1	338
6.6.1	ios	2022-12-14	14:15:56	14:25:54	584890	60f39f67a5c2c9e50ce470ee	9605298	1	main_slash	11	advance_on_keypress_SLASH	10	stimuli_distractor_diamondtriangles.svg	stimuli_target_squaretriangles.svg	15	yes	57	0	486
6.6.1	ios	2022-12-14	14:15:56	14:25:56	586387	60f39f67a5c2c9e50ce470ee	9605298	1	main_slash	11	main_slash	11	stimuli_distractor_diamondtriangles.svg	stimuli_target_diamondsquares.svg	32	yes	53	1	318
6.6.1	ios	2022-12-14	14:15:56	14:25:56	586387	60f39f67a5c2c9e50ce470ee	9605298	1	main_slash	11	advance_on_keypress_SLASH	12	stimuli_distractor_diamondtriangles.svg	stimuli_target_diamondsquares.svg	32	yes	57	0	418
6.6.1	ios	2022-12-14	14:15:56	14:25:58	588721	60f39f67a5c2c9e50ce470ee	9605298	1	main_slash	11	main_slash	13	stimuli_target_trianglecircles.svg	stimuli_distractor_diamondtriangles.svg	21	yes	53	1	1216
6.6.1	ios	2022-12-14	14:15:56	14:25:58	588721	60f39f67a5c2c9e50ce470ee	9605298	1	main_slash	11	advance_on_keypress_SLASH	14	stimuli_target_trianglecircles.svg	stimuli_distractor_diamondtriangles.svg	21	yes	57	0	472
6.6.1	ios	2022-12-14	14:15:56	14:26:00	590725	60f39f67a5c2c9e50ce470ee	9605298	1	main_slash	11	main_slash	15	stimuli_distractor_diamondtriangles.svg	stimuli_distractor_trianglediamonds.svg	37	no	53	0	838
6.6.1	ios	2022-12-14	14:15:56	14:26:00	590725	60f39f67a5c2c9e50ce470ee	9605298	1	main_slash	11	advance_on_keypress_SLASH	16	stimuli_distractor_diamondtriangles.svg	stimuli_distractor_trianglediamonds.svg	37	no	57	0	502
6.6.1	ios	2022-12-14	14:15:56	14:26:02	592589	60f39f67a5c2c9e50ce470ee	9605298	1	main_slash	11	main_slash	17	stimuli_target_diamondcircles.svg	stimuli_distractor_diamondtriangles.svg	23	yes	53	1	670
6.6.1	ios	2022-12-14	14:15:56	14:26:02	592589	60f39f67a5c2c9e50ce470ee	9605298	1	main_slash	11	advance_on_keypress_SLASH	18	stimuli_target_diamondcircles.svg	stimuli_distractor_diamondtriangles.svg	23	yes	57	0	501
6.6.1	ios	2022-12-14	14:15:56	14:26:04	594390	60f39f67a5c2c9e50ce470ee	9605298	1	main_slash	11	main_slash	19	stimuli_target_trianglesquares.svg	stimuli_distractor_diamondtriangles.svg	22	yes	53	1	601
6.6.1	ios	2022-12-14	14:15:56	14:26:04	594390	60f39f67a5c2c9e50ce470ee	9605298	1	main_slash	11	advance_on_keypress_SLASH	20	stimuli_target_trianglesquares.svg	stimuli_distractor_diamondtriangles.svg	22	yes	57	0	652
6.6.1	ios	2022-12-14	14:15:56	14:26:06	596857	60f39f67a5c2c9e50ce470ee	9605298	1	main_slash	11	main_slash	21	stimuli_distractor_trianglediamonds.svg	stimuli_target_trianglesquares.svg	26	yes	53	1	1120
6.6.1	ios	2022-12-14	14:15:56	14:26:06	596857	60f39f67a5c2c9e50ce470ee	9605298	1	main_slash	11	advance_on_keypress_SLASH	22	stimuli_distractor_trianglediamonds.svg	stimuli_target_trianglesquares.svg	26	yes	57	0	455
6.6.1	ios	2022-12-14	14:15:56	14:26:09	599139	60f39f67a5c2c9e50ce470ee	9605298	1	main_slash	11	main_slash	23	stimuli_target_diamondsquares.svg	stimuli_distractor_diamondtriangles.svg	24	yes	53	1	1135
6.6.1	ios	2022-12-14	14:15:56	14:26:09	599139	60f39f67a5c2c9e50ce470ee	9605298	1	main_slash	11	advance_on_keypress_SLASH	24	stimuli_target_diamondsquares.svg	stimuli_distractor_diamondtriangles.svg	24	yes	57	0	701
6.6.1	ios	2022-12-14	14:15:56	14:26:11	601274	60f39f67a5c2c9e50ce470ee	9605298	1	main_slash	11	main_slash	25	stimuli_target_squaretriangles.svg	stimuli_distractor_diamondtriangles.svg	7	yes	53	1	736
6.6.1	ios	2022-12-14	14:15:56	14:26:11	601274	60f39f67a5c2c9e50ce470ee	9605298	1	main_slash	11	advance_on_keypress_SLASH	26	stimuli_target_squaretriangles.svg	stimuli_distractor_diamondtriangles.svg	7	yes	57	0	553
6.6.1	ios	2022-12-14	14:15:56	14:26:12	602821	60f39f67a5c2c9e50ce470ee	9605298	1	main_slash	11	main_slash	27	stimuli_distractor_trianglediamonds.svg	stimuli_target_diamondsquares.svg	28	yes	53	1	301
6.6.1	ios	2022-12-14	14:15:56	14:26:12	602821	60f39f67a5c2c9e50ce470ee	9605298	1	main_slash	11	advance_on_keypress_SLASH	28	stimuli_distractor_trianglediamonds.svg	stimuli_target_diamondsquares.svg	28	yes	57	0	401
6.6.1	ios	2022-12-14	14:15:56	14:26:14	604359	60f39f67a5c2c9e50ce470ee	9605298	1	main_slash	11	main_slash	29	stimuli_target_circlediamonds.svg	stimuli_distractor_diamondtriangles.svg	6	yes	53	1	438
6.6.1	ios	2022-12-14	14:15:56	14:26:14	604359	60f39f67a5c2c9e50ce470ee	9605298	1	main_slash	11	advance_on_keypress_SLASH	30	stimuli_target_circlediamonds.svg	stimuli_distractor_diamondtriangles.svg	6	yes	57	0	453
6.6.1	ios	2022-12-14	14:15:56	14:26:15	605855	60f39f67a5c2c9e50ce470ee	9605298	1	main_slash	11	main_slash	31	stimuli_target_diamondsquares.svg	stimuli_distractor_trianglediamonds.svg	20	yes	53	1	351
6.6.1	ios	2022-12-14	14:15:56	14:26:15	605855	60f39f67a5c2c9e50ce470ee	9605298	1	main_slash	11	advance_on_keypress_SLASH	32	stimuli_target_diamondsquares.svg	stimuli_distractor_trianglediamonds.svg	20	yes	57	0	321
6.6.1	ios	2022-12-14	14:15:56	14:26:17	607942	60f39f67a5c2c9e50ce470ee	9605298	1	main_slash	11	main_slash	33	stimuli_distractor_diamondtriangles.svg	stimuli_distractor_diamondtriangles.svg	39	no	53	0	1070
6.6.1	ios	2022-12-14	14:15:56	14:26:17	607942	60f39f67a5c2c9e50ce470ee	9605298	1	main_slash	11	advance_on_keypress_SLASH	34	stimuli_distractor_diamondtriangles.svg	stimuli_distractor_diamondtriangles.svg	39	no	57	0	471
6.6.1	ios	2022-12-14	14:15:56	14:26:20	610158	60f39f67a5c2c9e50ce470ee	9605298	1	main_slash	11	main_slash	35	stimuli_distractor_diamondtriangles.svg	stimuli_target_trianglecircles.svg	29	yes	53	1	1052
6.6.1	ios	2022-12-14	14:15:56	14:26:20	610158	60f39f67a5c2c9e50ce470ee	9605298	1	main_slash	11	advance_on_keypress_SLASH	36	stimuli_distractor_diamondtriangles.svg	stimuli_target_trianglecircles.svg	29	yes	57	0	420
6.6.1	ios	2022-12-14	14:15:56	14:26:21	611724	60f39f67a5c2c9e50ce470ee	9605298	1	main_slash	11	main_slash	37	stimuli_target_circlediamonds.svg	stimuli_distractor_trianglediamonds.svg	2	yes	53	1	453
6.6.1	ios	2022-12-14	14:15:56	14:26:21	611724	60f39f67a5c2c9e50ce470ee	9605298	1	main_slash	11	advance_on_keypress_SLASH	38	stimuli_target_circlediamonds.svg	stimuli_distractor_trianglediamonds.svg	2	yes	57	0	134
6.6.1	ios	2022-12-14	14:15:56	14:26:22	612888	60f39f67a5c2c9e50ce470ee	9605298	1	main_slash	11	main_slash	39	stimuli_distractor_trianglediamonds.svg	stimuli_target_diamondcircles.svg	27	yes	53	1	334
6.6.1	ios	2022-12-14	14:15:56	14:26:22	612888	60f39f67a5c2c9e50ce470ee	9605298	1	main_slash	11	advance_on_keypress_SLASH	40	stimuli_distractor_trianglediamonds.svg	stimuli_target_diamondcircles.svg	27	yes	57	0	451
6.6.1	ios	2022-12-14	14:15:56	14:26:24	614472	60f39f67a5c2c9e50ce470ee	9605298	1	main_slash	11	main_slash	41	stimuli_distractor_diamondtriangles.svg	stimuli_distractor_trianglediamonds.svg	38	no	53	0	421
6.6.1	ios	2022-12-14	14:15:56	14:26:24	614472	60f39f67a5c2c9e50ce470ee	9605298	1	main_slash	11	advance_on_keypress_SLASH	42	stimuli_distractor_diamondtriangles.svg	stimuli_distractor_trianglediamonds.svg	38	no	57	0	535
6.6.1	ios	2022-12-14	14:15:56	14:26:26	616124	60f39f67a5c2c9e50ce470ee	9605298	1	main_slash	11	main_slash	43	stimuli_distractor_trianglediamonds.svg	stimuli_target_circletriangles.svg	9	yes	53	1	436
6.6.1	ios	2022-12-14	14:15:56	14:26:26	616124	60f39f67a5c2c9e50ce470ee	9605298	1	main_slash	11	advance_on_keypress_SLASH	44	stimuli_distractor_trianglediamonds.svg	stimuli_target_circletriangles.svg	9	yes	57	0	218
6.6.1	ios	2022-12-14	14:15:56	14:26:27	617339	60f39f67a5c2c9e50ce470ee	9605298	1	main_slash	11	main_slash	45	stimuli_target_circletriangles.svg	stimuli_distractor_trianglediamonds.svg	1	yes	53	1	301
6.6.1	ios	2022-12-14	14:15:56	14:26:27	617339	60f39f67a5c2c9e50ce470ee	9605298	1	main_slash	11	advance_on_keypress_SLASH	46	stimuli_target_circletriangles.svg	stimuli_distractor_trianglediamonds.svg	1	yes	57	0	134
6.6.1	ios	2022-12-14	14:15:56	14:26:28	618556	60f39f67a5c2c9e50ce470ee	9605298	1	main_slash	11	main_slash	47	stimuli_distractor_diamondtriangles.svg	stimuli_target_squarediamonds.svg	16	yes	53	1	385
6.6.1	ios	2022-12-14	14:15:56	14:26:28	618556	60f39f67a5c2c9e50ce470ee	9605298	1	main_slash	11	advance_on_keypress_SLASH	48	stimuli_distractor_diamondtriangles.svg	stimuli_target_squarediamonds.svg	16	yes	57	0	419
6.6.1	ios	2022-12-14	14:15:56	14:26:30	620425	60f39f67a5c2c9e50ce470ee	9605298	1	main_slash	11	main_slash	49	stimuli_target_squaretriangles.svg	stimuli_distractor_trianglediamonds.svg	3	yes	53	1	753
6.6.1	ios	2022-12-14	14:15:56	14:26:30	620425	60f39f67a5c2c9e50ce470ee	9605298	1	main_slash	11	advance_on_keypress_SLASH	50	stimuli_target_squaretriangles.svg	stimuli_distractor_trianglediamonds.svg	3	yes	57	0	553
6.6.1	ios	2022-12-14	14:15:56	14:26:32	623010	60f39f67a5c2c9e50ce470ee	9605298	1	main_slash	11	main_slash	51	stimuli_distractor_trianglediamonds.svg	stimuli_target_squaretriangles.svg	11	yes	53	1	1337
6.6.1	ios	2022-12-14	14:15:56	14:26:32	623010	60f39f67a5c2c9e50ce470ee	9605298	1	main_slash	11	advance_on_keypress_SLASH	52	stimuli_distractor_trianglediamonds.svg	stimuli_target_squaretriangles.svg	11	yes	57	0	536
6.6.1	ios	2022-12-14	14:15:56	14:26:36	626242	60f39f67a5c2c9e50ce470ee	9605298	1	main_slash	11	main_slash	53	stimuli_distractor_trianglediamonds.svg	stimuli_target_trianglecircles.svg	25	yes	0	0	2000
6.6.1	ios	2022-12-14	14:15:56	14:26:36	626242	60f39f67a5c2c9e50ce470ee	9605298	1	main_slash	11	advance_on_keypress_SLASH	54	stimuli_distractor_trianglediamonds.svg	stimuli_target_trianglecircles.svg	25	yes	57	0	1169
6.6.1	ios	2022-12-14	14:15:56	14:26:39	630091	60f39f67a5c2c9e50ce470ee	9605298	1	main_slash	11	main_slash	55	stimuli_distractor_trianglediamonds.svg	stimuli_distractor_trianglediamonds.svg	34	no	0	1	2000
6.6.1	ios	2022-12-14	14:15:56	14:26:39	630091	60f39f67a5c2c9e50ce470ee	9605298	1	main_slash	11	advance_on_keypress_SLASH	56	stimuli_distractor_trianglediamonds.svg	stimuli_distractor_trianglediamonds.svg	34	no	57	0	67
6.6.1	ios	2022-12-14	14:15:56	14:26:42	632842	60f39f67a5c2c9e50ce470ee	9605298	1	main_slash	11	main_slash	57	stimuli_target_trianglecircles.svg	stimuli_distractor_trianglediamonds.svg	17	yes	0	0	2000
6.6.1	ios	2022-12-14	14:15:56	14:26:42	632842	60f39f67a5c2c9e50ce470ee	9605298	1	main_slash	11	advance_on_keypress_SLASH	58	stimuli_target_trianglecircles.svg	stimuli_distractor_trianglediamonds.svg	17	yes	57	0	553
6.6.1	ios	2022-12-14	14:15:56	14:26:44	634442	60f39f67a5c2c9e50ce470ee	9605298	1	main_slash	11	main_slash	59	stimuli_target_squarediamonds.svg	stimuli_distractor_trianglediamonds.svg	4	yes	53	1	370
6.6.1	ios	2022-12-14	14:15:56	14:26:44	634442	60f39f67a5c2c9e50ce470ee	9605298	1	main_slash	11	advance_on_keypress_SLASH	60	stimuli_target_squarediamonds.svg	stimuli_distractor_trianglediamonds.svg	4	yes	57	0	601
6.6.1	ios	2022-12-14	14:15:56	14:26:45	636007	60f39f67a5c2c9e50ce470ee	9605298	1	main_slash	11	main_slash	61	stimuli_target_circletriangles.svg	stimuli_distractor_diamondtriangles.svg	5	yes	53	1	268
6.6.1	ios	2022-12-14	14:15:56	14:26:45	636007	60f39f67a5c2c9e50ce470ee	9605298	1	main_slash	11	advance_on_keypress_SLASH	62	stimuli_target_circletriangles.svg	stimuli_distractor_diamondtriangles.svg	5	yes	57	0	951
6.6.1	ios	2022-12-14	14:15:56	14:26:49	639659	60f39f67a5c2c9e50ce470ee	9605298	1	main_slash	11	main_slash	63	stimuli_distractor_trianglediamonds.svg	stimuli_distractor_diamondtriangles.svg	36	no	0	1	2000
6.6.1	ios	2022-12-14	14:15:56	14:26:49	639659	60f39f67a5c2c9e50ce470ee	9605298	1	main_slash	11	advance_on_keypress_SLASH	64	stimuli_distractor_trianglediamonds.svg	stimuli_distractor_diamondtriangles.svg	36	no	57	0	136
6.6.1	ios	2022-12-14	14:15:56	14:26:50	640992	60f39f67a5c2c9e50ce470ee	9605298	1	main_slash	11	main_slash	65	stimuli_distractor_trianglediamonds.svg	stimuli_target_circlediamonds.svg	10	yes	53	1	519
6.6.1	ios	2022-12-14	14:15:56	14:26:50	640992	60f39f67a5c2c9e50ce470ee	9605298	1	main_slash	11	advance_on_keypress_SLASH	66	stimuli_distractor_trianglediamonds.svg	stimuli_target_circlediamonds.svg	10	yes	57	0	635
6.6.1	ios	2022-12-14	14:15:56	14:26:52	642657	60f39f67a5c2c9e50ce470ee	9605298	1	main_slash	11	main_slash	67	stimuli_distractor_diamondtriangles.svg	stimuli_distractor_diamondtriangles.svg	40	no	53	0	334
6.6.1	ios	2022-12-14	14:15:56	14:26:52	642657	60f39f67a5c2c9e50ce470ee	9605298	1	main_slash	11	advance_on_keypress_SLASH	68	stimuli_distractor_diamondtriangles.svg	stimuli_distractor_diamondtriangles.svg	40	no	57	0	521
6.6.1	ios	2022-12-14	14:15:56	14:26:55	645876	60f39f67a5c2c9e50ce470ee	9605298	1	main_slash	11	main_slash	69	stimuli_distractor_diamondtriangles.svg	stimuli_target_trianglesquares.svg	30	yes	0	0	2000
6.6.1	ios	2022-12-14	14:15:56	14:26:55	645876	60f39f67a5c2c9e50ce470ee	9605298	1	main_slash	11	advance_on_keypress_SLASH	70	stimuli_distractor_diamondtriangles.svg	stimuli_target_trianglesquares.svg	30	yes	57	0	4
6.6.1	ios	2022-12-14	14:15:56	14:26:58	648562	60f39f67a5c2c9e50ce470ee	9605298	1	main_slash	11	main_slash	71	stimuli_distractor_trianglediamonds.svg	stimuli_distractor_diamondtriangles.svg	35	no	0	1	2000
6.6.1	ios	2022-12-14	14:15:56	14:26:58	648562	60f39f67a5c2c9e50ce470ee	9605298	1	main_slash	11	advance_on_keypress_SLASH	72	stimuli_distractor_trianglediamonds.svg	stimuli_distractor_diamondtriangles.svg	35	no	57	0	318
6.6.1	ios	2022-12-14	14:15:56	14:26:59	649941	60f39f67a5c2c9e50ce470ee	9605298	1	main_slash	11	main_slash	73	stimuli_distractor_trianglediamonds.svg	stimuli_target_squarediamonds.svg	12	yes	53	1	385
6.6.1	ios	2022-12-14	14:15:56	14:26:59	649941	60f39f67a5c2c9e50ce470ee	9605298	1	main_slash	11	advance_on_keypress_SLASH	74	stimuli_distractor_trianglediamonds.svg	stimuli_target_squarediamonds.svg	12	yes	57	0	585
6.6.1	ios	2022-12-14	14:15:56	14:27:01	651593	60f39f67a5c2c9e50ce470ee	9605298	1	main_slash	11	main_slash	75	stimuli_distractor_diamondtriangles.svg	stimuli_target_circletriangles.svg	13	yes	53	1	370
6.6.1	ios	2022-12-14	14:15:56	14:27:01	651593	60f39f67a5c2c9e50ce470ee	9605298	1	main_slash	11	advance_on_keypress_SLASH	76	stimuli_distractor_diamondtriangles.svg	stimuli_target_circletriangles.svg	13	yes	57	0	485
6.6.1	ios	2022-12-14	14:15:56	14:27:02	653109	60f39f67a5c2c9e50ce470ee	9605298	1	main_slash	11	main_slash	77	stimuli_target_squarediamonds.svg	stimuli_distractor_diamondtriangles.svg	8	yes	53	1	335
6.6.1	ios	2022-12-14	14:15:56	14:27:02	653109	60f39f67a5c2c9e50ce470ee	9605298	1	main_slash	11	advance_on_keypress_SLASH	78	stimuli_target_squarediamonds.svg	stimuli_distractor_diamondtriangles.svg	8	yes	57	0	538
6.6.1	ios	2022-12-14	14:15:56	14:27:04	654644	60f39f67a5c2c9e50ce470ee	9605298	1	main_slash	11	main_slash	79	stimuli_distractor_diamondtriangles.svg	stimuli_target_diamondcircles.svg	31	yes	53	1	303
6.6.1	ios	2022-12-14	14:15:56	14:27:04	654644	60f39f67a5c2c9e50ce470ee	9605298	1	main_slash	11	advance_on_keypress_SLASH	80	stimuli_distractor_diamondtriangles.svg	stimuli_target_diamondcircles.svg	31	yes	57	0	451
6.6.1	ios	2022-12-14	14:15:56	14:27:05	656043	60f39f67a5c2c9e50ce470ee	9605298	1	main_slash	11	main_slash	81	stimuli_target_squaretriangles.svg	stimuli_distractor_diamondtriangles.svg	7	yes	53	1	252
6.6.1	ios	2022-12-14	14:15:56	14:27:05	656043	60f39f67a5c2c9e50ce470ee	9605298	1	main_slash	11	advance_on_keypress_SLASH	82	stimuli_target_squaretriangles.svg	stimuli_distractor_diamondtriangles.svg	7	yes	57	0	520
6.6.1	ios	2022-12-14	14:15:56	14:27:07	657626	60f39f67a5c2c9e50ce470ee	9605298	1	main_slash	11	main_slash	83	stimuli_target_diamondcircles.svg	stimuli_distractor_trianglediamonds.svg	19	yes	53	1	369
6.6.1	ios	2022-12-14	14:15:56	14:27:07	657626	60f39f67a5c2c9e50ce470ee	9605298	1	main_slash	11	advance_on_keypress_SLASH	84	stimuli_target_diamondcircles.svg	stimuli_distractor_trianglediamonds.svg	19	yes	57	0	554
6.6.1	ios	2022-12-14	14:15:56	14:27:09	659225	60f39f67a5c2c9e50ce470ee	9605298	1	main_slash	11	main_slash	85	stimuli_target_squarediamonds.svg	stimuli_distractor_trianglediamonds.svg	4	yes	53	1	351
6.6.1	ios	2022-12-14	14:15:56	14:27:09	659225	60f39f67a5c2c9e50ce470ee	9605298	1	main_slash	11	advance_on_keypress_SLASH	86	stimuli_target_squarediamonds.svg	stimuli_distractor_trianglediamonds.svg	4	yes	57	0	484
6.6.1	ios	2022-12-14	14:15:56	14:27:10	660762	60f39f67a5c2c9e50ce470ee	9605298	1	main_slash	11	main_slash	87	stimuli_distractor_diamondtriangles.svg	stimuli_target_diamondsquares.svg	32	yes	53	1	355
6.6.1	ios	2022-12-14	14:15:56	14:27:10	660762	60f39f67a5c2c9e50ce470ee	9605298	1	main_slash	11	advance_on_keypress_SLASH	88	stimuli_distractor_diamondtriangles.svg	stimuli_target_diamondsquares.svg	32	yes	57	0	618
6.6.1	ios	2022-12-14	14:15:56	14:27:12	662443	60f39f67a5c2c9e50ce470ee	9605298	1	main_slash	11	main_slash	89	stimuli_target_circletriangles.svg	stimuli_distractor_diamondtriangles.svg	5	yes	53	1	368
6.6.1	ios	2022-12-14	14:15:56	14:27:12	662443	60f39f67a5c2c9e50ce470ee	9605298	1	main_slash	11	advance_on_keypress_SLASH	90	stimuli_target_circletriangles.svg	stimuli_distractor_diamondtriangles.svg	5	yes	57	0	484
6.6.1	ios	2022-12-14	14:15:56	14:27:13	664009	60f39f67a5c2c9e50ce470ee	9605298	1	main_slash	11	main_slash	91	stimuli_target_diamondcircles.svg	stimuli_distractor_diamondtriangles.svg	23	yes	53	1	384
6.6.1	ios	2022-12-14	14:15:56	14:27:13	664009	60f39f67a5c2c9e50ce470ee	9605298	1	main_slash	11	advance_on_keypress_SLASH	92	stimuli_target_diamondcircles.svg	stimuli_distractor_diamondtriangles.svg	23	yes	57	0	551
6.6.1	ios	2022-12-14	14:15:56	14:27:15	665625	60f39f67a5c2c9e50ce470ee	9605298	1	main_slash	11	main_slash	93	stimuli_target_trianglecircles.svg	stimuli_distractor_diamondtriangles.svg	21	yes	53	1	368
6.6.1	ios	2022-12-14	14:15:56	14:27:15	665625	60f39f67a5c2c9e50ce470ee	9605298	1	main_slash	11	advance_on_keypress_SLASH	94	stimuli_target_trianglecircles.svg	stimuli_distractor_diamondtriangles.svg	21	yes	57	0	220
6.6.1	ios	2022-12-14	14:15:56	14:27:17	668110	60f39f67a5c2c9e50ce470ee	9605298	1	main_slash	11	main_slash	95	stimuli_distractor_diamondtriangles.svg	stimuli_distractor_trianglediamonds.svg	38	no	53	0	1568
6.6.1	ios	2022-12-14	14:15:56	14:27:17	668110	60f39f67a5c2c9e50ce470ee	9605298	1	main_slash	11	advance_on_keypress_SLASH	96	stimuli_distractor_diamondtriangles.svg	stimuli_distractor_trianglediamonds.svg	38	no	57	0	504
6.6.1	ios	2022-12-14	14:15:56	14:27:19	669809	60f39f67a5c2c9e50ce470ee	9605298	1	main_slash	11	main_slash	97	stimuli_target_squarediamonds.svg	stimuli_distractor_diamondtriangles.svg	8	yes	53	1	501
6.6.1	ios	2022-12-14	14:15:56	14:27:19	669809	60f39f67a5c2c9e50ce470ee	9605298	1	main_slash	11	advance_on_keypress_SLASH	98	stimuli_target_squarediamonds.svg	stimuli_distractor_diamondtriangles.svg	8	yes	57	0	469
6.6.1	ios	2022-12-14	14:15:56	14:27:21	671326	60f39f67a5c2c9e50ce470ee	9605298	1	main_slash	11	main_slash	99	stimuli_distractor_diamondtriangles.svg	stimuli_target_circletriangles.svg	13	yes	53	1	351
6.6.1	ios	2022-12-14	14:15:56	14:27:21	671326	60f39f67a5c2c9e50ce470ee	9605298	1	main_slash	11	advance_on_keypress_SLASH	100	stimuli_distractor_diamondtriangles.svg	stimuli_target_circletriangles.svg	13	yes	57	0	404
6.6.1	ios	2022-12-14	14:15:56	14:27:22	672810	60f39f67a5c2c9e50ce470ee	9605298	1	main_slash	11	main_slash	101	stimuli_distractor_trianglediamonds.svg	stimuli_distractor_trianglediamonds.svg	33	no	53	0	384
6.6.1	ios	2022-12-14	14:15:56	14:27:22	672810	60f39f67a5c2c9e50ce470ee	9605298	1	main_slash	11	advance_on_keypress_SLASH	102	stimuli_distractor_trianglediamonds.svg	stimuli_distractor_trianglediamonds.svg	33	no	57	0	405
6.6.1	ios	2022-12-14	14:15:56	14:27:24	674359	60f39f67a5c2c9e50ce470ee	9605298	1	main_slash	11	main_slash	103	stimuli_target_trianglesquares.svg	stimuli_distractor_diamondtriangles.svg	22	yes	53	1	451
6.6.1	ios	2022-12-14	14:15:56	14:27:24	674359	60f39f67a5c2c9e50ce470ee	9605298	1	main_slash	11	advance_on_keypress_SLASH	104	stimuli_target_trianglesquares.svg	stimuli_distractor_diamondtriangles.svg	22	yes	57	0	355
6.6.1	ios	2022-12-14	14:15:56	14:27:25	675843	60f39f67a5c2c9e50ce470ee	9605298	1	main_slash	11	main_slash	105	stimuli_distractor_trianglediamonds.svg	stimuli_target_circlediamonds.svg	10	yes	53	1	435
6.6.1	ios	2022-12-14	14:15:56	14:27:25	675843	60f39f67a5c2c9e50ce470ee	9605298	1	main_slash	11	advance_on_keypress_SLASH	106	stimuli_distractor_trianglediamonds.svg	stimuli_target_circlediamonds.svg	10	yes	57	0	351
6.6.1	ios	2022-12-14	14:15:56	14:27:27	677210	60f39f67a5c2c9e50ce470ee	9605298	1	main_slash	11	main_slash	107	stimuli_target_circlediamonds.svg	stimuli_distractor_diamondtriangles.svg	6	yes	53	1	317
6.6.1	ios	2022-12-14	14:15:56	14:27:27	677210	60f39f67a5c2c9e50ce470ee	9605298	1	main_slash	11	advance_on_keypress_SLASH	108	stimuli_target_circlediamonds.svg	stimuli_distractor_diamondtriangles.svg	6	yes	57	0	468
6.6.1	ios	2022-12-14	14:15:56	14:27:28	678694	60f39f67a5c2c9e50ce470ee	9605298	1	main_slash	11	main_slash	109	stimuli_target_trianglesquares.svg	stimuli_distractor_trianglediamonds.svg	18	yes	53	1	335
6.6.1	ios	2022-12-14	14:15:56	14:27:28	678694	60f39f67a5c2c9e50ce470ee	9605298	1	main_slash	11	advance_on_keypress_SLASH	110	stimuli_target_trianglesquares.svg	stimuli_distractor_trianglediamonds.svg	18	yes	57	0	385
6.6.1	ios	2022-12-14	14:15:56	14:27:30	680798	60f39f67a5c2c9e50ce470ee	9605298	1	main_slash	11	main_slash	111	stimuli_target_trianglecircles.svg	stimuli_distractor_trianglediamonds.svg	17	yes	53	1	1021
6.6.1	ios	2022-12-14	14:15:56	14:27:30	680798	60f39f67a5c2c9e50ce470ee	9605298	1	main_slash	11	advance_on_keypress_SLASH	112	stimuli_target_trianglecircles.svg	stimuli_distractor_trianglediamonds.svg	17	yes	57	0	485
6.6.1	ios	2022-12-14	14:15:56	14:27:32	682961	60f39f67a5c2c9e50ce470ee	9605298	1	main_slash	11	main_slash	113	stimuli_target_squaretriangles.svg	stimuli_distractor_trianglediamonds.svg	3	yes	53	1	985
6.6.1	ios	2022-12-14	14:15:56	14:27:32	682961	60f39f67a5c2c9e50ce470ee	9605298	1	main_slash	11	advance_on_keypress_SLASH	114	stimuli_target_squaretriangles.svg	stimuli_distractor_trianglediamonds.svg	3	yes	57	0	534
6.6.1	ios	2022-12-14	14:15:56	14:27:34	684477	60f39f67a5c2c9e50ce470ee	9605298	1	main_slash	11	main_slash	115	stimuli_distractor_diamondtriangles.svg	stimuli_target_diamondcircles.svg	31	yes	53	1	285
6.6.1	ios	2022-12-14	14:15:56	14:27:34	684477	60f39f67a5c2c9e50ce470ee	9605298	1	main_slash	11	advance_on_keypress_SLASH	116	stimuli_distractor_diamondtriangles.svg	stimuli_target_diamondcircles.svg	31	yes	57	0	401
6.6.1	ios	2022-12-14	14:15:56	14:27:35	686062	60f39f67a5c2c9e50ce470ee	9605298	1	main_slash	11	main_slash	117	stimuli_distractor_trianglediamonds.svg	stimuli_target_diamondcircles.svg	27	yes	53	1	485
6.6.1	ios	2022-12-14	14:15:56	14:27:35	686062	60f39f67a5c2c9e50ce470ee	9605298	1	main_slash	11	advance_on_keypress_SLASH	118	stimuli_distractor_trianglediamonds.svg	stimuli_target_diamondcircles.svg	27	yes	57	0	418
6.6.1	ios	2022-12-14	14:15:56	14:27:38	688832	60f39f67a5c2c9e50ce470ee	9605298	1	main_slash	11	main_slash	119	stimuli_distractor_trianglediamonds.svg	stimuli_target_trianglesquares.svg	26	yes	53	1	1655
6.6.1	ios	2022-12-14	14:15:56	14:27:38	688832	60f39f67a5c2c9e50ce470ee	9605298	1	main_slash	11	advance_on_keypress_SLASH	120	stimuli_distractor_trianglediamonds.svg	stimuli_target_trianglesquares.svg	26	yes	57	0	501
6.6.1	ios	2022-12-14	14:15:56	14:27:40	690747	60f39f67a5c2c9e50ce470ee	9605298	1	main_slash	11	main_slash	121	stimuli_distractor_trianglediamonds.svg	stimuli_distractor_diamondtriangles.svg	35	no	53	0	719
6.6.1	ios	2022-12-14	14:15:56	14:27:40	690747	60f39f67a5c2c9e50ce470ee	9605298	1	main_slash	11	advance_on_keypress_SLASH	122	stimuli_distractor_trianglediamonds.svg	stimuli_distractor_diamondtriangles.svg	35	no	57	0	484
6.6.1	ios	2022-12-14	14:15:56	14:27:42	692427	60f39f67a5c2c9e50ce470ee	9605298	1	main_slash	11	main_slash	123	stimuli_distractor_trianglediamonds.svg	stimuli_target_squarediamonds.svg	12	yes	53	1	501
6.6.1	ios	2022-12-14	14:15:56	14:27:42	692427	60f39f67a5c2c9e50ce470ee	9605298	1	main_slash	11	advance_on_keypress_SLASH	124	stimuli_distractor_trianglediamonds.svg	stimuli_target_squarediamonds.svg	12	yes	57	0	418
6.6.1	ios	2022-12-14	14:15:56	14:27:43	693844	60f39f67a5c2c9e50ce470ee	9605298	1	main_slash	11	main_slash	125	stimuli_distractor_trianglediamonds.svg	stimuli_target_trianglecircles.svg	25	yes	53	1	301
6.6.1	ios	2022-12-14	14:15:56	14:27:43	693844	60f39f67a5c2c9e50ce470ee	9605298	1	main_slash	11	advance_on_keypress_SLASH	126	stimuli_distractor_trianglediamonds.svg	stimuli_target_trianglecircles.svg	25	yes	57	0	303
6.6.1	ios	2022-12-14	14:15:56	14:27:46	696631	60f39f67a5c2c9e50ce470ee	9605298	1	main_slash	11	main_slash	127	stimuli_distractor_trianglediamonds.svg	stimuli_distractor_trianglediamonds.svg	34	no	53	0	1787
6.6.1	ios	2022-12-14	14:15:56	14:27:46	696631	60f39f67a5c2c9e50ce470ee	9605298	1	main_slash	11	advance_on_keypress_SLASH	128	stimuli_distractor_trianglediamonds.svg	stimuli_distractor_trianglediamonds.svg	34	no	57	0	552
6.6.1	ios	2022-12-14	14:15:56	14:27:48	698211	60f39f67a5c2c9e50ce470ee	9605298	1	main_slash	11	main_slash	129	stimuli_distractor_trianglediamonds.svg	stimuli_distractor_diamondtriangles.svg	36	no	53	0	335
6.6.1	ios	2022-12-14	14:15:56	14:27:48	698211	60f39f67a5c2c9e50ce470ee	9605298	1	main_slash	11	advance_on_keypress_SLASH	130	stimuli_distractor_trianglediamonds.svg	stimuli_distractor_diamondtriangles.svg	36	no	57	0	401
6.6.1	ios	2022-12-14	14:15:56	14:27:49	699696	60f39f67a5c2c9e50ce470ee	9605298	1	main_slash	11	main_slash	131	stimuli_distractor_diamondtriangles.svg	stimuli_target_squaretriangles.svg	15	yes	53	1	386
6.6.1	ios	2022-12-14	14:15:56	14:27:49	699696	60f39f67a5c2c9e50ce470ee	9605298	1	main_slash	11	advance_on_keypress_SLASH	132	stimuli_distractor_diamondtriangles.svg	stimuli_target_squaretriangles.svg	15	yes	57	0	435
6.6.1	ios	2022-12-14	14:15:56	14:27:51	701230	60f39f67a5c2c9e50ce470ee	9605298	1	main_slash	11	main_slash	133	stimuli_target_diamondsquares.svg	stimuli_distractor_trianglediamonds.svg	20	yes	53	1	402
6.6.1	ios	2022-12-14	14:15:56	14:27:51	701230	60f39f67a5c2c9e50ce470ee	9605298	1	main_slash	11	advance_on_keypress_SLASH	134	stimuli_target_diamondsquares.svg	stimuli_distractor_trianglediamonds.svg	20	yes	57	0	404
6.6.1	ios	2022-12-14	14:15:56	14:27:52	702847	60f39f67a5c2c9e50ce470ee	9605298	1	main_slash	11	main_slash	135	stimuli_target_circlediamonds.svg	stimuli_distractor_trianglediamonds.svg	2	yes	53	1	518
6.6.1	ios	2022-12-14	14:15:56	14:27:52	702847	60f39f67a5c2c9e50ce470ee	9605298	1	main_slash	11	advance_on_keypress_SLASH	136	stimuli_target_circlediamonds.svg	stimuli_distractor_trianglediamonds.svg	2	yes	57	0	2777
6.6.1	ios	2022-12-14	14:15:56	14:27:58	708315	60f39f67a5c2c9e50ce470ee	9605298	1	main_slash	11	main_slash	137	stimuli_distractor_trianglediamonds.svg	stimuli_target_diamondsquares.svg	28	yes	0	0	2000
6.6.1	ios	2022-12-14	14:15:56	14:27:58	708315	60f39f67a5c2c9e50ce470ee	9605298	1	main_slash	11	advance_on_keypress_SLASH	138	stimuli_distractor_trianglediamonds.svg	stimuli_target_diamondsquares.svg	28	yes	57	0	2938
6.6.1	ios	2022-12-14	14:15:56	14:28:03	713915	60f39f67a5c2c9e50ce470ee	9605298	1	main_slash	11	main_slash	139	stimuli_distractor_diamondtriangles.svg	stimuli_target_circlediamonds.svg	14	yes	0	0	2000
6.6.1	ios	2022-12-14	14:15:56	14:28:03	713915	60f39f67a5c2c9e50ce470ee	9605298	1	main_slash	11	advance_on_keypress_SLASH	140	stimuli_distractor_diamondtriangles.svg	stimuli_target_circlediamonds.svg	14	yes	57	0	570
6.6.1	ios	2022-12-14	14:15:56	14:28:05	715496	60f39f67a5c2c9e50ce470ee	9605298	1	main_slash	11	main_slash	141	stimuli_distractor_trianglediamonds.svg	stimuli_target_squaretriangles.svg	11	yes	53	1	334
6.6.1	ios	2022-12-14	14:15:56	14:28:05	715496	60f39f67a5c2c9e50ce470ee	9605298	1	main_slash	11	advance_on_keypress_SLASH	142	stimuli_distractor_trianglediamonds.svg	stimuli_target_squaretriangles.svg	11	yes	57	0	338
6.6.1	ios	2022-12-14	14:15:56	14:28:06	716829	60f39f67a5c2c9e50ce470ee	9605298	1	main_slash	11	main_slash	143	stimuli_distractor_diamondtriangles.svg	stimuli_target_squarediamonds.svg	16	yes	53	1	301
6.6.1	ios	2022-12-14	14:15:56	14:28:06	716829	60f39f67a5c2c9e50ce470ee	9605298	1	main_slash	11	advance_on_keypress_SLASH	144	stimuli_distractor_diamondtriangles.svg	stimuli_target_squarediamonds.svg	16	yes	57	0	351
6.6.1	ios	2022-12-14	14:15:56	14:28:08	718580	60f39f67a5c2c9e50ce470ee	9605298	1	main_slash	11	main_slash	145	stimuli_distractor_diamondtriangles.svg	stimuli_target_trianglesquares.svg	30	yes	53	1	701
6.6.1	ios	2022-12-14	14:15:56	14:28:08	718580	60f39f67a5c2c9e50ce470ee	9605298	1	main_slash	11	advance_on_keypress_SLASH	146	stimuli_distractor_diamondtriangles.svg	stimuli_target_trianglesquares.svg	30	yes	57	0	388
6.6.1	ios	2022-12-14	14:15:56	14:28:09	719912	60f39f67a5c2c9e50ce470ee	9605298	1	main_slash	11	main_slash	147	stimuli_distractor_diamondtriangles.svg	stimuli_distractor_trianglediamonds.svg	37	no	53	0	251
6.6.1	ios	2022-12-14	14:15:56	14:28:09	719912	60f39f67a5c2c9e50ce470ee	9605298	1	main_slash	11	advance_on_keypress_SLASH	148	stimuli_distractor_diamondtriangles.svg	stimuli_distractor_trianglediamonds.svg	37	no	57	0	405
6.6.1	ios	2022-12-14	14:15:56	14:28:11	721414	60f39f67a5c2c9e50ce470ee	9605298	1	main_slash	11	main_slash	149	stimuli_distractor_diamondtriangles.svg	stimuli_target_trianglecircles.svg	29	yes	53	1	403
6.6.1	ios	2022-12-14	14:15:56	14:28:11	721414	60f39f67a5c2c9e50ce470ee	9605298	1	main_slash	11	advance_on_keypress_SLASH	150	stimuli_distractor_diamondtriangles.svg	stimuli_target_trianglecircles.svg	29	yes	57	0	1235
6.6.1	ios	2022-12-14	14:15:56	14:28:13	723631	60f39f67a5c2c9e50ce470ee	9605298	1	main_slash	11	main_slash	151	stimuli_target_circletriangles.svg	stimuli_distractor_trianglediamonds.svg	1	yes	53	1	286
6.6.1	ios	2022-12-14	14:15:56	14:28:13	723631	60f39f67a5c2c9e50ce470ee	9605298	1	main_slash	11	advance_on_keypress_SLASH	152	stimuli_target_circletriangles.svg	stimuli_distractor_trianglediamonds.svg	1	yes	57	0	501
6.6.1	ios	2022-12-14	14:15:56	14:28:15	725380	60f39f67a5c2c9e50ce470ee	9605298	1	main_slash	11	main_slash	153	stimuli_distractor_diamondtriangles.svg	stimuli_distractor_diamondtriangles.svg	40	no	53	0	537
6.6.1	ios	2022-12-14	14:15:56	14:28:15	725380	60f39f67a5c2c9e50ce470ee	9605298	1	main_slash	11	advance_on_keypress_SLASH	154	stimuli_distractor_diamondtriangles.svg	stimuli_distractor_diamondtriangles.svg	40	no	57	0	484
6.6.1	ios	2022-12-14	14:15:56	14:28:18	728548	60f39f67a5c2c9e50ce470ee	9605298	1	main_slash	11	main_slash	155	stimuli_distractor_trianglediamonds.svg	stimuli_target_circletriangles.svg	9	yes	0	0	2000
6.6.1	ios	2022-12-14	14:15:56	14:28:18	728548	60f39f67a5c2c9e50ce470ee	9605298	1	main_slash	11	advance_on_keypress_SLASH	156	stimuli_distractor_trianglediamonds.svg	stimuli_target_circletriangles.svg	9	yes	57	0	1436
6.6.1	ios	2022-12-14	14:15:56	14:28:20	730915	60f39f67a5c2c9e50ce470ee	9605298	1	main_slash	11	main_slash	157	stimuli_distractor_diamondtriangles.svg	stimuli_distractor_diamondtriangles.svg	39	no	53	0	253
6.6.1	ios	2022-12-14	14:15:56	14:28:20	730915	60f39f67a5c2c9e50ce470ee	9605298	1	main_slash	11	advance_on_keypress_SLASH	158	stimuli_distractor_diamondtriangles.svg	stimuli_distractor_diamondtriangles.svg	39	no	57	0	501
6.6.1	ios	2022-12-14	14:15:56	14:28:23	733300	60f39f67a5c2c9e50ce470ee	9605298	1	main_slash	11	main_slash	159	stimuli_target_diamondsquares.svg	stimuli_distractor_diamondtriangles.svg	24	yes	53	1	1186
6.6.1	ios	2022-12-14	14:15:56	14:28:23	733300	60f39f67a5c2c9e50ce470ee	9605298	1	main_slash	11	advance_on_keypress_SLASH	160	stimuli_target_diamondsquares.svg	stimuli_distractor_diamondtriangles.svg	24	yes	57	0	452