build	computer.platform	date	time	timestamp	time_elapsed_ms	subject	group	session	blockcode	blocknum	trialcode	trialnum	stimulus_left	stimulus_right	stim_index	target_present	response	correct	latency
6.6.1	win	2022-11-07	14:40:28	14:42:39	128244	6307a60f9142d2c42021840d	95006484	1	practice_z	5	practice_z	1	stimuli_distractor_trianglediamonds.svg	stimuli_target_squarediamonds.svg	11	yes	0	0	2000
6.6.1	win	2022-11-07	14:40:28	14:42:39	128244	6307a60f9142d2c42021840d	95006484	1	practice_z	5	advance_on_keypress_ZEE	2	stimuli_distractor_trianglediamonds.svg	stimuli_target_squarediamonds.svg	11	yes	57	0	984
6.6.1	win	2022-11-07	14:40:28	14:42:42	131436	6307a60f9142d2c42021840d	95006484	1	practice_z	5	practice_z	3	stimuli_distractor_diamondtriangles.svg	stimuli_target_diamondcircles.svg	8	yes	44	1	501
6.6.1	win	2022-11-07	14:40:28	14:42:42	131436	6307a60f9142d2c42021840d	95006484	1	practice_z	5	advance_on_keypress_ZEE	4	stimuli_distractor_diamondtriangles.svg	stimuli_target_diamondcircles.svg	8	yes	57	0	1711
6.6.1	win	2022-11-07	14:40:28	14:42:46	135224	6307a60f9142d2c42021840d	95006484	1	practice_z	5	practice_z	5	stimuli_distractor_diamondtriangles.svg	stimuli_target_circletriangles.svg	7	yes	44	1	419
6.6.1	win	2022-11-07	14:40:28	14:42:46	135224	6307a60f9142d2c42021840d	95006484	1	practice_z	5	advance_on_keypress_ZEE	6	stimuli_distractor_diamondtriangles.svg	stimuli_target_circletriangles.svg	7	yes	57	0	405
6.6.1	win	2022-11-07	14:40:28	14:42:48	137826	6307a60f9142d2c42021840d	95006484	1	practice_z	5	practice_z	7	stimuli_target_circlediamonds.svg	stimuli_distractor_diamondtriangles.svg	1	yes	44	1	527
6.6.1	win	2022-11-07	14:40:28	14:42:48	137826	6307a60f9142d2c42021840d	95006484	1	practice_z	5	advance_on_keypress_ZEE	8	stimuli_target_circlediamonds.svg	stimuli_distractor_diamondtriangles.svg	1	yes	57	0	351
6.6.1	win	2022-11-07	14:40:28	14:42:51	140166	6307a60f9142d2c42021840d	95006484	1	practice_z	5	practice_z	9	stimuli_distractor_diamondtriangles.svg	stimuli_target_trianglecircles.svg	9	yes	44	1	334
6.6.1	win	2022-11-07	14:40:28	14:42:51	140166	6307a60f9142d2c42021840d	95006484	1	practice_z	5	advance_on_keypress_ZEE	10	stimuli_distractor_diamondtriangles.svg	stimuli_target_trianglecircles.svg	9	yes	57	0	311
6.6.1	win	2022-11-07	14:40:28	14:42:53	142643	6307a60f9142d2c42021840d	95006484	1	practice_z	5	practice_z	11	stimuli_target_squarediamonds.svg	stimuli_distractor_trianglediamonds.svg	5	yes	44	1	505
6.6.1	win	2022-11-07	14:40:28	14:42:53	142643	6307a60f9142d2c42021840d	95006484	1	practice_z	5	advance_on_keypress_ZEE	12	stimuli_target_squarediamonds.svg	stimuli_distractor_trianglediamonds.svg	5	yes	57	0	380
6.6.1	win	2022-11-07	14:40:28	14:42:56	144994	6307a60f9142d2c42021840d	95006484	1	practice_z	5	practice_z	13	stimuli_distractor_trianglediamonds.svg	stimuli_target_circlediamonds.svg	10	yes	44	1	318
6.6.1	win	2022-11-07	14:40:28	14:42:56	144994	6307a60f9142d2c42021840d	95006484	1	practice_z	5	advance_on_keypress_ZEE	14	stimuli_distractor_trianglediamonds.svg	stimuli_target_circlediamonds.svg	10	yes	57	0	392
6.6.1	win	2022-11-07	14:40:28	14:42:58	147375	6307a60f9142d2c42021840d	95006484	1	practice_z	5	practice_z	15	stimuli_target_squarediamonds.svg	stimuli_distractor_diamondtriangles.svg	2	yes	44	1	333
6.6.1	win	2022-11-07	14:40:28	14:42:58	147375	6307a60f9142d2c42021840d	95006484	1	practice_z	5	advance_on_keypress_ZEE	16	stimuli_target_squarediamonds.svg	stimuli_distractor_diamondtriangles.svg	2	yes	57	0	314
6.6.1	win	2022-11-07	14:40:28	14:43:00	149731	6307a60f9142d2c42021840d	95006484	1	practice_z	5	practice_z	17	stimuli_distractor_diamondtriangles.svg	stimuli_distractor_trianglediamonds.svg	14	no	44	0	392
6.6.1	win	2022-11-07	14:40:28	14:43:00	149731	6307a60f9142d2c42021840d	95006484	1	practice_z	5	advance_on_keypress_ZEE	18	stimuli_distractor_diamondtriangles.svg	stimuli_distractor_trianglediamonds.svg	14	no	57	0	313
6.6.1	win	2022-11-07	14:40:28	14:43:04	153704	6307a60f9142d2c42021840d	95006484	1	practice_z	5	practice_z	19	stimuli_distractor_trianglediamonds.svg	stimuli_target_diamondcircles.svg	12	yes	0	0	2000
6.6.1	win	2022-11-07	14:40:28	14:43:04	153704	6307a60f9142d2c42021840d	95006484	1	practice_z	5	advance_on_keypress_ZEE	20	stimuli_distractor_trianglediamonds.svg	stimuli_target_diamondcircles.svg	12	yes	57	0	484
6.6.1	win	2022-11-07	14:40:28	14:43:07	156746	6307a60f9142d2c42021840d	95006484	1	practice_z	5	practice_z	21	stimuli_distractor_trianglediamonds.svg	stimuli_distractor_diamondtriangles.svg	16	no	44	0	911
6.6.1	win	2022-11-07	14:40:28	14:43:07	156746	6307a60f9142d2c42021840d	95006484	1	practice_z	5	advance_on_keypress_ZEE	22	stimuli_distractor_trianglediamonds.svg	stimuli_distractor_diamondtriangles.svg	16	no	57	0	364
6.6.1	win	2022-11-07	14:40:28	14:43:10	159025	6307a60f9142d2c42021840d	95006484	1	practice_z	5	practice_z	23	stimuli_distractor_trianglediamonds.svg	stimuli_distractor_trianglediamonds.svg	15	no	44	0	260
6.6.1	win	2022-11-07	14:40:28	14:43:10	159025	6307a60f9142d2c42021840d	95006484	1	practice_z	5	advance_on_keypress_ZEE	24	stimuli_distractor_trianglediamonds.svg	stimuli_distractor_trianglediamonds.svg	15	no	57	0	321
6.6.1	win	2022-11-07	14:40:28	14:43:12	161311	6307a60f9142d2c42021840d	95006484	1	practice_z	5	practice_z	25	stimuli_target_circlediamonds.svg	stimuli_distractor_trianglediamonds.svg	4	yes	44	1	315
6.6.1	win	2022-11-07	14:40:28	14:43:12	161311	6307a60f9142d2c42021840d	95006484	1	practice_z	5	advance_on_keypress_ZEE	26	stimuli_target_circlediamonds.svg	stimuli_distractor_trianglediamonds.svg	4	yes	57	0	311
6.6.1	win	2022-11-07	14:40:28	14:43:14	163586	6307a60f9142d2c42021840d	95006484	1	practice_z	5	practice_z	27	stimuli_target_diamondsquares.svg	stimuli_distractor_diamondtriangles.svg	3	yes	44	1	308
6.6.1	win	2022-11-07	14:40:28	14:43:14	163586	6307a60f9142d2c42021840d	95006484	1	practice_z	5	advance_on_keypress_ZEE	28	stimuli_target_diamondsquares.svg	stimuli_distractor_diamondtriangles.svg	3	yes	57	0	316
6.6.1	win	2022-11-07	14:40:28	14:43:18	167559	6307a60f9142d2c42021840d	95006484	1	practice_z	5	practice_z	29	stimuli_distractor_diamondtriangles.svg	stimuli_distractor_diamondtriangles.svg	13	no	0	1	2000
6.6.1	win	2022-11-07	14:40:28	14:43:18	167559	6307a60f9142d2c42021840d	95006484	1	practice_z	5	advance_on_keypress_ZEE	30	stimuli_distractor_diamondtriangles.svg	stimuli_distractor_diamondtriangles.svg	13	no	57	0	393
6.6.1	win	2022-11-07	14:40:28	14:43:21	170158	6307a60f9142d2c42021840d	95006484	1	practice_z	5	practice_z	31	stimuli_target_diamondsquares.svg	stimuli_distractor_trianglediamonds.svg	6	yes	44	1	553
6.6.1	win	2022-11-07	14:40:28	14:43:21	170158	6307a60f9142d2c42021840d	95006484	1	practice_z	5	advance_on_keypress_ZEE	32	stimuli_target_diamondsquares.svg	stimuli_distractor_trianglediamonds.svg	6	yes	57	0	297
6.6.1	win	2022-11-07	14:40:28	14:43:35	184570	6307a60f9142d2c42021840d	95006484	1	main_z	7	main_z	1	stimuli_distractor_trianglediamonds.svg	stimuli_distractor_trianglediamonds.svg	34	no	44	0	715
6.6.1	win	2022-11-07	14:40:28	14:43:35	184570	6307a60f9142d2c42021840d	95006484	1	main_z	7	advance_on_keypress_ZEE	2	stimuli_distractor_trianglediamonds.svg	stimuli_distractor_trianglediamonds.svg	34	no	57	0	1031
6.6.1	win	2022-11-07	14:40:28	14:43:38	186999	6307a60f9142d2c42021840d	95006484	1	main_z	7	main_z	3	stimuli_distractor_trianglediamonds.svg	stimuli_target_circlediamonds.svg	10	yes	44	1	746
6.6.1	win	2022-11-07	14:40:28	14:43:38	186999	6307a60f9142d2c42021840d	95006484	1	main_z	7	advance_on_keypress_ZEE	4	stimuli_distractor_trianglediamonds.svg	stimuli_target_circlediamonds.svg	10	yes	57	0	703
6.6.1	win	2022-11-07	14:40:28	14:43:41	190351	6307a60f9142d2c42021840d	95006484	1	main_z	7	main_z	5	stimuli_distractor_trianglediamonds.svg	stimuli_distractor_diamondtriangles.svg	36	no	0	1	2000
6.6.1	win	2022-11-07	14:40:28	14:43:41	190351	6307a60f9142d2c42021840d	95006484	1	main_z	7	advance_on_keypress_ZEE	6	stimuli_distractor_trianglediamonds.svg	stimuli_distractor_diamondtriangles.svg	36	no	57	0	468
6.6.1	win	2022-11-07	14:40:28	14:43:43	192010	6307a60f9142d2c42021840d	95006484	1	main_z	7	main_z	7	stimuli_target_circlediamonds.svg	stimuli_distractor_diamondtriangles.svg	6	yes	44	1	547
6.6.1	win	2022-11-07	14:40:28	14:43:43	192010	6307a60f9142d2c42021840d	95006484	1	main_z	7	advance_on_keypress_ZEE	8	stimuli_target_circlediamonds.svg	stimuli_distractor_diamondtriangles.svg	6	yes	57	0	794
6.6.1	win	2022-11-07	14:40:28	14:43:45	194029	6307a60f9142d2c42021840d	95006484	1	main_z	7	main_z	9	stimuli_distractor_trianglediamonds.svg	stimuli_target_squaretriangles.svg	11	yes	44	1	566
6.6.1	win	2022-11-07	14:40:28	14:43:45	194029	6307a60f9142d2c42021840d	95006484	1	main_z	7	advance_on_keypress_ZEE	10	stimuli_distractor_trianglediamonds.svg	stimuli_target_squaretriangles.svg	11	yes	57	0	622
6.6.1	win	2022-11-07	14:40:28	14:43:47	195855	6307a60f9142d2c42021840d	95006484	1	main_z	7	main_z	11	stimuli_distractor_diamondtriangles.svg	stimuli_target_trianglecircles.svg	29	yes	44	1	561
6.6.1	win	2022-11-07	14:40:28	14:43:47	195855	6307a60f9142d2c42021840d	95006484	1	main_z	7	advance_on_keypress_ZEE	12	stimuli_distractor_diamondtriangles.svg	stimuli_target_trianglecircles.svg	29	yes	57	0	596
6.6.1	win	2022-11-07	14:40:28	14:43:50	199094	6307a60f9142d2c42021840d	95006484	1	main_z	7	main_z	13	stimuli_distractor_diamondtriangles.svg	stimuli_distractor_diamondtriangles.svg	40	no	0	1	2000
6.6.1	win	2022-11-07	14:40:28	14:43:50	199094	6307a60f9142d2c42021840d	95006484	1	main_z	7	advance_on_keypress_ZEE	14	stimuli_distractor_diamondtriangles.svg	stimuli_distractor_diamondtriangles.svg	40	no	57	0	732
6.6.1	win	2022-11-07	14:40:28	14:43:52	200854	6307a60f9142d2c42021840d	95006484	1	main_z	7	main_z	15	stimuli_target_diamondcircles.svg	stimuli_distractor_trianglediamonds.svg	19	yes	44	1	381
6.6.1	win	2022-11-07	14:40:28	14:43:52	200854	6307a60f9142d2c42021840d	95006484	1	main_z	7	advance_on_keypress_ZEE	16	stimuli_target_diamondcircles.svg	stimuli_distractor_trianglediamonds.svg	19	yes	57	0	679
6.6.1	win	2022-11-07	14:40:28	14:43:53	202592	6307a60f9142d2c42021840d	95006484	1	main_z	7	main_z	17	stimuli_target_trianglecircles.svg	stimuli_distractor_diamondtriangles.svg	21	yes	44	1	404
6.6.1	win	2022-11-07	14:40:28	14:43:53	202592	6307a60f9142d2c42021840d	95006484	1	main_z	7	advance_on_keypress_ZEE	18	stimuli_target_trianglecircles.svg	stimuli_distractor_diamondtriangles.svg	21	yes	57	0	560
6.6.1	win	2022-11-07	14:40:28	14:43:55	204386	6307a60f9142d2c42021840d	95006484	1	main_z	7	main_z	19	stimuli_target_squarediamonds.svg	stimuli_distractor_trianglediamonds.svg	4	yes	44	1	598
6.6.1	win	2022-11-07	14:40:28	14:43:55	204386	6307a60f9142d2c42021840d	95006484	1	main_z	7	advance_on_keypress_ZEE	20	stimuli_target_squarediamonds.svg	stimuli_distractor_trianglediamonds.svg	4	yes	57	0	517
6.6.1	win	2022-11-07	14:40:28	14:43:57	206400	6307a60f9142d2c42021840d	95006484	1	main_z	7	main_z	21	stimuli_target_trianglesquares.svg	stimuli_distractor_diamondtriangles.svg	22	yes	44	1	847
6.6.1	win	2022-11-07	14:40:28	14:43:57	206400	6307a60f9142d2c42021840d	95006484	1	main_z	7	advance_on_keypress_ZEE	22	stimuli_target_trianglesquares.svg	stimuli_distractor_diamondtriangles.svg	22	yes	57	0	503
6.6.1	win	2022-11-07	14:40:28	14:44:00	209552	6307a60f9142d2c42021840d	95006484	1	main_z	7	main_z	23	stimuli_distractor_diamondtriangles.svg	stimuli_target_diamondsquares.svg	32	yes	0	0	2000
6.6.1	win	2022-11-07	14:40:28	14:44:00	209552	6307a60f9142d2c42021840d	95006484	1	main_z	7	advance_on_keypress_ZEE	24	stimuli_distractor_diamondtriangles.svg	stimuli_target_diamondsquares.svg	32	yes	57	0	445
6.6.1	win	2022-11-07	14:40:28	14:44:02	211174	6307a60f9142d2c42021840d	95006484	1	main_z	7	main_z	25	stimuli_target_diamondcircles.svg	stimuli_distractor_diamondtriangles.svg	23	yes	44	1	527
6.6.1	win	2022-11-07	14:40:28	14:44:02	211174	6307a60f9142d2c42021840d	95006484	1	main_z	7	advance_on_keypress_ZEE	26	stimuli_target_diamondcircles.svg	stimuli_distractor_diamondtriangles.svg	23	yes	57	0	673
6.6.1	win	2022-11-07	14:40:28	14:44:04	213015	6307a60f9142d2c42021840d	95006484	1	main_z	7	main_z	27	stimuli_target_trianglesquares.svg	stimuli_distractor_trianglediamonds.svg	18	yes	44	1	536
6.6.1	win	2022-11-07	14:40:28	14:44:04	213015	6307a60f9142d2c42021840d	95006484	1	main_z	7	advance_on_keypress_ZEE	28	stimuli_target_trianglesquares.svg	stimuli_distractor_trianglediamonds.svg	18	yes	57	0	607
6.6.1	win	2022-11-07	14:40:28	14:44:07	216262	6307a60f9142d2c42021840d	95006484	1	main_z	7	main_z	29	stimuli_distractor_diamondtriangles.svg	stimuli_distractor_trianglediamonds.svg	37	no	0	1	2000
6.6.1	win	2022-11-07	14:40:28	14:44:07	216262	6307a60f9142d2c42021840d	95006484	1	main_z	7	advance_on_keypress_ZEE	30	stimuli_distractor_diamondtriangles.svg	stimuli_distractor_trianglediamonds.svg	37	no	57	0	290
6.6.1	win	2022-11-07	14:40:28	14:44:08	217528	6307a60f9142d2c42021840d	95006484	1	main_z	7	main_z	31	stimuli_distractor_diamondtriangles.svg	stimuli_target_diamondcircles.svg	31	yes	44	1	335
6.6.1	win	2022-11-07	14:40:28	14:44:08	217528	6307a60f9142d2c42021840d	95006484	1	main_z	7	advance_on_keypress_ZEE	32	stimuli_distractor_diamondtriangles.svg	stimuli_target_diamondcircles.svg	31	yes	57	0	452
6.6.1	win	2022-11-07	14:40:28	14:44:10	218972	6307a60f9142d2c42021840d	95006484	1	main_z	7	main_z	33	stimuli_target_diamondsquares.svg	stimuli_distractor_diamondtriangles.svg	24	yes	44	1	347
6.6.1	win	2022-11-07	14:40:28	14:44:10	218972	6307a60f9142d2c42021840d	95006484	1	main_z	7	advance_on_keypress_ZEE	34	stimuli_target_diamondsquares.svg	stimuli_distractor_diamondtriangles.svg	24	yes	57	0	420
6.6.1	win	2022-11-07	14:40:28	14:44:11	220442	6307a60f9142d2c42021840d	95006484	1	main_z	7	main_z	35	stimuli_distractor_trianglediamonds.svg	stimuli_distractor_diamondtriangles.svg	35	no	44	0	383
6.6.1	win	2022-11-07	14:40:28	14:44:11	220442	6307a60f9142d2c42021840d	95006484	1	main_z	7	advance_on_keypress_ZEE	36	stimuli_distractor_trianglediamonds.svg	stimuli_distractor_diamondtriangles.svg	35	no	57	0	727
6.6.1	win	2022-11-07	14:40:28	14:44:14	223822	6307a60f9142d2c42021840d	95006484	1	main_z	7	main_z	37	stimuli_distractor_diamondtriangles.svg	stimuli_distractor_trianglediamonds.svg	38	no	0	1	2000
6.6.1	win	2022-11-07	14:40:28	14:44:14	223822	6307a60f9142d2c42021840d	95006484	1	main_z	7	advance_on_keypress_ZEE	38	stimuli_distractor_diamondtriangles.svg	stimuli_distractor_trianglediamonds.svg	38	no	57	0	407
6.6.1	win	2022-11-07	14:40:28	14:44:16	225283	6307a60f9142d2c42021840d	95006484	1	main_z	7	main_z	39	stimuli_target_trianglecircles.svg	stimuli_distractor_trianglediamonds.svg	17	yes	44	1	414
6.6.1	win	2022-11-07	14:40:28	14:44:16	225283	6307a60f9142d2c42021840d	95006484	1	main_z	7	advance_on_keypress_ZEE	40	stimuli_target_trianglecircles.svg	stimuli_distractor_trianglediamonds.svg	17	yes	57	0	485
6.6.1	win	2022-11-07	14:40:28	14:44:18	226980	6307a60f9142d2c42021840d	95006484	1	main_z	7	main_z	41	stimuli_target_squaretriangles.svg	stimuli_distractor_trianglediamonds.svg	3	yes	44	1	563
6.6.1	win	2022-11-07	14:40:28	14:44:18	226980	6307a60f9142d2c42021840d	95006484	1	main_z	7	advance_on_keypress_ZEE	42	stimuli_target_squaretriangles.svg	stimuli_distractor_trianglediamonds.svg	3	yes	57	0	503
6.6.1	win	2022-11-07	14:40:28	14:44:19	228553	6307a60f9142d2c42021840d	95006484	1	main_z	7	main_z	43	stimuli_target_squarediamonds.svg	stimuli_distractor_diamondtriangles.svg	8	yes	44	1	420
6.6.1	win	2022-11-07	14:40:28	14:44:19	228553	6307a60f9142d2c42021840d	95006484	1	main_z	7	advance_on_keypress_ZEE	44	stimuli_target_squarediamonds.svg	stimuli_distractor_diamondtriangles.svg	8	yes	57	0	489
6.6.1	win	2022-11-07	14:40:28	14:44:21	230196	6307a60f9142d2c42021840d	95006484	1	main_z	7	main_z	45	stimuli_target_diamondsquares.svg	stimuli_distractor_trianglediamonds.svg	20	yes	44	1	503
6.6.1	win	2022-11-07	14:40:28	14:44:21	230196	6307a60f9142d2c42021840d	95006484	1	main_z	7	advance_on_keypress_ZEE	46	stimuli_target_diamondsquares.svg	stimuli_distractor_trianglediamonds.svg	20	yes	57	0	498
6.6.1	win	2022-11-07	14:40:28	14:44:23	231953	6307a60f9142d2c42021840d	95006484	1	main_z	7	main_z	47	stimuli_distractor_trianglediamonds.svg	stimuli_target_squarediamonds.svg	12	yes	44	1	606
6.6.1	win	2022-11-07	14:40:28	14:44:23	231953	6307a60f9142d2c42021840d	95006484	1	main_z	7	advance_on_keypress_ZEE	48	stimuli_distractor_trianglediamonds.svg	stimuli_target_squarediamonds.svg	12	yes	57	0	557
6.6.1	win	2022-11-07	14:40:28	14:44:26	235145	6307a60f9142d2c42021840d	95006484	1	main_z	7	main_z	49	stimuli_distractor_trianglediamonds.svg	stimuli_target_diamondsquares.svg	28	yes	0	0	2000
6.6.1	win	2022-11-07	14:40:28	14:44:26	235145	6307a60f9142d2c42021840d	95006484	1	main_z	7	advance_on_keypress_ZEE	50	stimuli_distractor_trianglediamonds.svg	stimuli_target_diamondsquares.svg	28	yes	57	0	305
6.6.1	win	2022-11-07	14:40:28	14:44:29	238093	6307a60f9142d2c42021840d	95006484	1	main_z	7	main_z	51	stimuli_distractor_trianglediamonds.svg	stimuli_distractor_trianglediamonds.svg	33	no	0	1	2000
6.6.1	win	2022-11-07	14:40:28	14:44:29	238093	6307a60f9142d2c42021840d	95006484	1	main_z	7	advance_on_keypress_ZEE	52	stimuli_distractor_trianglediamonds.svg	stimuli_distractor_trianglediamonds.svg	33	no	57	0	324
6.6.1	win	2022-11-07	14:40:28	14:44:30	239369	6307a60f9142d2c42021840d	95006484	1	main_z	7	main_z	53	stimuli_distractor_diamondtriangles.svg	stimuli_target_trianglesquares.svg	30	yes	44	1	312
6.6.1	win	2022-11-07	14:40:28	14:44:30	239369	6307a60f9142d2c42021840d	95006484	1	main_z	7	advance_on_keypress_ZEE	54	stimuli_distractor_diamondtriangles.svg	stimuli_target_trianglesquares.svg	30	yes	57	0	526
6.6.1	win	2022-11-07	14:40:28	14:44:31	240833	6307a60f9142d2c42021840d	95006484	1	main_z	7	main_z	55	stimuli_distractor_diamondtriangles.svg	stimuli_target_circletriangles.svg	13	yes	44	1	293
6.6.1	win	2022-11-07	14:40:28	14:44:31	240833	6307a60f9142d2c42021840d	95006484	1	main_z	7	advance_on_keypress_ZEE	56	stimuli_distractor_diamondtriangles.svg	stimuli_target_circletriangles.svg	13	yes	57	0	695
6.6.1	win	2022-11-07	14:40:28	14:44:33	242605	6307a60f9142d2c42021840d	95006484	1	main_z	7	main_z	57	stimuli_distractor_trianglediamonds.svg	stimuli_target_trianglesquares.svg	26	yes	44	1	418
6.6.1	win	2022-11-07	14:40:28	14:44:33	242605	6307a60f9142d2c42021840d	95006484	1	main_z	7	advance_on_keypress_ZEE	58	stimuli_distractor_trianglediamonds.svg	stimuli_target_trianglesquares.svg	26	yes	57	0	954
6.6.1	win	2022-11-07	14:40:28	14:44:35	244608	6307a60f9142d2c42021840d	95006484	1	main_z	7	main_z	59	stimuli_distractor_diamondtriangles.svg	stimuli_target_squaretriangles.svg	15	yes	44	1	406
6.6.1	win	2022-11-07	14:40:28	14:44:35	244608	6307a60f9142d2c42021840d	95006484	1	main_z	7	advance_on_keypress_ZEE	60	stimuli_distractor_diamondtriangles.svg	stimuli_target_squaretriangles.svg	15	yes	57	0	506
6.6.1	win	2022-11-07	14:40:28	14:44:37	246112	6307a60f9142d2c42021840d	95006484	1	main_z	7	main_z	61	stimuli_target_circletriangles.svg	stimuli_distractor_trianglediamonds.svg	1	yes	44	1	362
6.6.1	win	2022-11-07	14:40:28	14:44:37	246112	6307a60f9142d2c42021840d	95006484	1	main_z	7	advance_on_keypress_ZEE	62	stimuli_target_circletriangles.svg	stimuli_distractor_trianglediamonds.svg	1	yes	57	0	385
6.6.1	win	2022-11-07	14:40:28	14:44:38	247498	6307a60f9142d2c42021840d	95006484	1	main_z	7	main_z	63	stimuli_target_squaretriangles.svg	stimuli_distractor_diamondtriangles.svg	7	yes	44	1	348
6.6.1	win	2022-11-07	14:40:28	14:44:38	247498	6307a60f9142d2c42021840d	95006484	1	main_z	7	advance_on_keypress_ZEE	64	stimuli_target_squaretriangles.svg	stimuli_distractor_diamondtriangles.svg	7	yes	57	0	387
6.6.1	win	2022-11-07	14:40:28	14:44:40	249138	6307a60f9142d2c42021840d	95006484	1	main_z	7	main_z	65	stimuli_distractor_trianglediamonds.svg	stimuli_target_circletriangles.svg	9	yes	44	1	606
6.6.1	win	2022-11-07	14:40:28	14:44:40	249138	6307a60f9142d2c42021840d	95006484	1	main_z	7	advance_on_keypress_ZEE	66	stimuli_distractor_trianglediamonds.svg	stimuli_target_circletriangles.svg	9	yes	57	0	524
6.6.1	win	2022-11-07	14:40:28	14:44:43	252297	6307a60f9142d2c42021840d	95006484	1	main_z	7	main_z	67	stimuli_distractor_diamondtriangles.svg	stimuli_distractor_diamondtriangles.svg	39	no	0	1	2000
6.6.1	win	2022-11-07	14:40:28	14:44:43	252297	6307a60f9142d2c42021840d	95006484	1	main_z	7	advance_on_keypress_ZEE	68	stimuli_distractor_diamondtriangles.svg	stimuli_distractor_diamondtriangles.svg	39	no	57	0	363
6.6.1	win	2022-11-07	14:40:28	14:44:44	253714	6307a60f9142d2c42021840d	95006484	1	main_z	7	main_z	69	stimuli_distractor_diamondtriangles.svg	stimuli_target_circlediamonds.svg	14	yes	44	1	404
6.6.1	win	2022-11-07	14:40:28	14:44:44	253714	6307a60f9142d2c42021840d	95006484	1	main_z	7	advance_on_keypress_ZEE	70	stimuli_distractor_diamondtriangles.svg	stimuli_target_circlediamonds.svg	14	yes	57	0	430
6.6.1	win	2022-11-07	14:40:28	14:44:46	255101	6307a60f9142d2c42021840d	95006484	1	main_z	7	main_z	71	stimuli_target_circlediamonds.svg	stimuli_distractor_trianglediamonds.svg	2	yes	44	1	308
6.6.1	win	2022-11-07	14:40:28	14:44:46	255101	6307a60f9142d2c42021840d	95006484	1	main_z	7	advance_on_keypress_ZEE	72	stimuli_target_circlediamonds.svg	stimuli_distractor_trianglediamonds.svg	2	yes	57	0	374
6.6.1	win	2022-11-07	14:40:28	14:44:47	256508	6307a60f9142d2c42021840d	95006484	1	main_z	7	main_z	73	stimuli_distractor_trianglediamonds.svg	stimuli_target_trianglecircles.svg	25	yes	44	1	401
6.6.1	win	2022-11-07	14:40:28	14:44:47	256508	6307a60f9142d2c42021840d	95006484	1	main_z	7	advance_on_keypress_ZEE	74	stimuli_distractor_trianglediamonds.svg	stimuli_target_trianglecircles.svg	25	yes	57	0	388
6.6.1	win	2022-11-07	14:40:28	14:44:49	257866	6307a60f9142d2c42021840d	95006484	1	main_z	7	main_z	75	stimuli_target_circletriangles.svg	stimuli_distractor_diamondtriangles.svg	5	yes	44	1	326
6.6.1	win	2022-11-07	14:40:28	14:44:49	257866	6307a60f9142d2c42021840d	95006484	1	main_z	7	advance_on_keypress_ZEE	76	stimuli_target_circletriangles.svg	stimuli_distractor_diamondtriangles.svg	5	yes	57	0	380
6.6.1	win	2022-11-07	14:40:28	14:44:50	259156	6307a60f9142d2c42021840d	95006484	1	main_z	7	main_z	77	stimuli_distractor_trianglediamonds.svg	stimuli_target_diamondcircles.svg	27	yes	44	1	267
6.6.1	win	2022-11-07	14:40:28	14:44:50	259156	6307a60f9142d2c42021840d	95006484	1	main_z	7	advance_on_keypress_ZEE	78	stimuli_distractor_trianglediamonds.svg	stimuli_target_diamondcircles.svg	27	yes	57	0	511
6.6.1	win	2022-11-07	14:40:28	14:44:52	260993	6307a60f9142d2c42021840d	95006484	1	main_z	7	main_z	79	stimuli_distractor_diamondtriangles.svg	stimuli_target_squarediamonds.svg	16	yes	44	1	672
6.6.1	win	2022-11-07	14:40:28	14:44:52	260993	6307a60f9142d2c42021840d	95006484	1	main_z	7	advance_on_keypress_ZEE	80	stimuli_distractor_diamondtriangles.svg	stimuli_target_squarediamonds.svg	16	yes	57	0	734
6.6.1	win	2022-11-07	14:40:28	14:44:53	262611	6307a60f9142d2c42021840d	95006484	1	main_z	7	main_z	81	stimuli_distractor_diamondtriangles.svg	stimuli_target_trianglesquares.svg	30	yes	44	1	242
6.6.1	win	2022-11-07	14:40:28	14:44:53	262611	6307a60f9142d2c42021840d	95006484	1	main_z	7	advance_on_keypress_ZEE	82	stimuli_distractor_diamondtriangles.svg	stimuli_target_trianglesquares.svg	30	yes	57	0	478
6.6.1	win	2022-11-07	14:40:28	14:44:55	264023	6307a60f9142d2c42021840d	95006484	1	main_z	7	main_z	83	stimuli_distractor_trianglediamonds.svg	stimuli_distractor_diamondtriangles.svg	35	no	44	0	289
6.6.1	win	2022-11-07	14:40:28	14:44:55	264023	6307a60f9142d2c42021840d	95006484	1	main_z	7	advance_on_keypress_ZEE	84	stimuli_distractor_trianglediamonds.svg	stimuli_distractor_diamondtriangles.svg	35	no	57	0	735
6.6.1	win	2022-11-07	14:40:28	14:44:56	265706	6307a60f9142d2c42021840d	95006484	1	main_z	7	main_z	85	stimuli_target_diamondcircles.svg	stimuli_distractor_diamondtriangles.svg	23	yes	44	1	307
6.6.1	win	2022-11-07	14:40:28	14:44:56	265706	6307a60f9142d2c42021840d	95006484	1	main_z	7	advance_on_keypress_ZEE	86	stimuli_target_diamondcircles.svg	stimuli_distractor_diamondtriangles.svg	23	yes	57	0	402
6.6.1	win	2022-11-07	14:40:28	14:44:58	267100	6307a60f9142d2c42021840d	95006484	1	main_z	7	main_z	87	stimuli_distractor_trianglediamonds.svg	stimuli_target_circlediamonds.svg	10	yes	44	1	351
6.6.1	win	2022-11-07	14:40:28	14:44:58	267100	6307a60f9142d2c42021840d	95006484	1	main_z	7	advance_on_keypress_ZEE	88	stimuli_distractor_trianglediamonds.svg	stimuli_target_circlediamonds.svg	10	yes	57	0	494
6.6.1	win	2022-11-07	14:40:28	14:45:00	268861	6307a60f9142d2c42021840d	95006484	1	main_z	7	main_z	89	stimuli_target_diamondsquares.svg	stimuli_distractor_trianglediamonds.svg	20	yes	44	1	613
6.6.1	win	2022-11-07	14:40:28	14:45:00	268861	6307a60f9142d2c42021840d	95006484	1	main_z	7	advance_on_keypress_ZEE	90	stimuli_target_diamondsquares.svg	stimuli_distractor_trianglediamonds.svg	20	yes	57	0	463
6.6.1	win	2022-11-07	14:40:28	14:45:01	270330	6307a60f9142d2c42021840d	95006484	1	main_z	7	main_z	91	stimuli_distractor_diamondtriangles.svg	stimuli_target_trianglecircles.svg	29	yes	44	1	351
6.6.1	win	2022-11-07	14:40:28	14:45:01	270330	6307a60f9142d2c42021840d	95006484	1	main_z	7	advance_on_keypress_ZEE	92	stimuli_distractor_diamondtriangles.svg	stimuli_target_trianglecircles.svg	29	yes	57	0	362
6.6.1	win	2022-11-07	14:40:28	14:45:02	271688	6307a60f9142d2c42021840d	95006484	1	main_z	7	main_z	93	stimuli_target_diamondsquares.svg	stimuli_distractor_diamondtriangles.svg	24	yes	44	1	343
6.6.1	win	2022-11-07	14:40:28	14:45:02	271688	6307a60f9142d2c42021840d	95006484	1	main_z	7	advance_on_keypress_ZEE	94	stimuli_target_diamondsquares.svg	stimuli_distractor_diamondtriangles.svg	24	yes	57	0	501
6.6.1	win	2022-11-07	14:40:28	14:45:05	274827	6307a60f9142d2c42021840d	95006484	1	main_z	7	main_z	95	stimuli_distractor_trianglediamonds.svg	stimuli_distractor_trianglediamonds.svg	34	no	0	1	2000
6.6.1	win	2022-11-07	14:40:28	14:45:05	274827	6307a60f9142d2c42021840d	95006484	1	main_z	7	advance_on_keypress_ZEE	96	stimuli_distractor_trianglediamonds.svg	stimuli_distractor_trianglediamonds.svg	34	no	57	0	300
6.6.1	win	2022-11-07	14:40:28	14:45:07	276155	6307a60f9142d2c42021840d	95006484	1	main_z	7	main_z	97	stimuli_distractor_trianglediamonds.svg	stimuli_target_squaretriangles.svg	11	yes	44	1	373
6.6.1	win	2022-11-07	14:40:28	14:45:07	276155	6307a60f9142d2c42021840d	95006484	1	main_z	7	advance_on_keypress_ZEE	98	stimuli_distractor_trianglediamonds.svg	stimuli_target_squaretriangles.svg	11	yes	57	0	392
6.6.1	win	2022-11-07	14:40:28	14:45:08	277660	6307a60f9142d2c42021840d	95006484	1	main_z	7	main_z	99	stimuli_target_circlediamonds.svg	stimuli_distractor_trianglediamonds.svg	2	yes	44	1	470
6.6.1	win	2022-11-07	14:40:28	14:45:08	277660	6307a60f9142d2c42021840d	95006484	1	main_z	7	advance_on_keypress_ZEE	100	stimuli_target_circlediamonds.svg	stimuli_distractor_trianglediamonds.svg	2	yes	57	0	387
6.6.1	win	2022-11-07	14:40:28	14:45:10	279032	6307a60f9142d2c42021840d	95006484	1	main_z	7	main_z	101	stimuli_distractor_diamondtriangles.svg	stimuli_target_circletriangles.svg	13	yes	44	1	345
6.6.1	win	2022-11-07	14:40:28	14:45:10	279032	6307a60f9142d2c42021840d	95006484	1	main_z	7	advance_on_keypress_ZEE	102	stimuli_distractor_diamondtriangles.svg	stimuli_target_circletriangles.svg	13	yes	57	0	341
6.6.1	win	2022-11-07	14:40:28	14:45:13	282004	6307a60f9142d2c42021840d	95006484	1	main_z	7	main_z	103	stimuli_distractor_diamondtriangles.svg	stimuli_distractor_diamondtriangles.svg	39	no	0	1	2000
6.6.1	win	2022-11-07	14:40:28	14:45:13	282004	6307a60f9142d2c42021840d	95006484	1	main_z	7	advance_on_keypress_ZEE	104	stimuli_distractor_diamondtriangles.svg	stimuli_distractor_diamondtriangles.svg	39	no	57	0	293
6.6.1	win	2022-11-07	14:40:28	14:45:14	283373	6307a60f9142d2c42021840d	95006484	1	main_z	7	main_z	105	stimuli_distractor_trianglediamonds.svg	stimuli_target_trianglesquares.svg	26	yes	44	1	439
6.6.1	win	2022-11-07	14:40:28	14:45:14	283373	6307a60f9142d2c42021840d	95006484	1	main_z	7	advance_on_keypress_ZEE	106	stimuli_distractor_trianglediamonds.svg	stimuli_target_trianglesquares.svg	26	yes	57	0	387
6.6.1	win	2022-11-07	14:40:28	14:45:15	284788	6307a60f9142d2c42021840d	95006484	1	main_z	7	main_z	107	stimuli_target_trianglecircles.svg	stimuli_distractor_trianglediamonds.svg	17	yes	44	1	389
6.6.1	win	2022-11-07	14:40:28	14:45:15	284788	6307a60f9142d2c42021840d	95006484	1	main_z	7	advance_on_keypress_ZEE	108	stimuli_target_trianglecircles.svg	stimuli_distractor_trianglediamonds.svg	17	yes	57	0	338
6.6.1	win	2022-11-07	14:40:28	14:45:18	287765	6307a60f9142d2c42021840d	95006484	1	main_z	7	main_z	109	stimuli_distractor_trianglediamonds.svg	stimuli_target_diamondsquares.svg	28	yes	0	0	2000
6.6.1	win	2022-11-07	14:40:28	14:45:18	287765	6307a60f9142d2c42021840d	95006484	1	main_z	7	advance_on_keypress_ZEE	110	stimuli_distractor_trianglediamonds.svg	stimuli_target_diamondsquares.svg	28	yes	57	0	264
6.6.1	win	2022-11-07	14:40:28	14:45:20	289211	6307a60f9142d2c42021840d	95006484	1	main_z	7	main_z	111	stimuli_target_trianglecircles.svg	stimuli_distractor_diamondtriangles.svg	21	yes	44	1	532
6.6.1	win	2022-11-07	14:40:28	14:45:20	289211	6307a60f9142d2c42021840d	95006484	1	main_z	7	advance_on_keypress_ZEE	112	stimuli_target_trianglecircles.svg	stimuli_distractor_diamondtriangles.svg	21	yes	57	0	443
6.6.1	win	2022-11-07	14:40:28	14:45:21	290799	6307a60f9142d2c42021840d	95006484	1	main_z	7	main_z	113	stimuli_distractor_trianglediamonds.svg	stimuli_target_squarediamonds.svg	12	yes	44	1	487
6.6.1	win	2022-11-07	14:40:28	14:45:21	290799	6307a60f9142d2c42021840d	95006484	1	main_z	7	advance_on_keypress_ZEE	114	stimuli_distractor_trianglediamonds.svg	stimuli_target_squarediamonds.svg	12	yes	57	0	354
6.6.1	win	2022-11-07	14:40:28	14:45:23	292174	6307a60f9142d2c42021840d	95006484	1	main_z	7	main_z	115	stimuli_target_squaretriangles.svg	stimuli_distractor_trianglediamonds.svg	3	yes	44	1	378
6.6.1	win	2022-11-07	14:40:28	14:45:23	292174	6307a60f9142d2c42021840d	95006484	1	main_z	7	advance_on_keypress_ZEE	116	stimuli_target_squaretriangles.svg	stimuli_distractor_trianglediamonds.svg	3	yes	57	0	329
6.6.1	win	2022-11-07	14:40:28	14:45:24	293673	6307a60f9142d2c42021840d	95006484	1	main_z	7	main_z	117	stimuli_distractor_diamondtriangles.svg	stimuli_distractor_trianglediamonds.svg	37	no	44	0	505
6.6.1	win	2022-11-07	14:40:28	14:45:24	293673	6307a60f9142d2c42021840d	95006484	1	main_z	7	advance_on_keypress_ZEE	118	stimuli_distractor_diamondtriangles.svg	stimuli_distractor_trianglediamonds.svg	37	no	57	0	392
6.6.1	win	2022-11-07	14:40:28	14:45:26	295184	6307a60f9142d2c42021840d	95006484	1	main_z	7	main_z	119	stimuli_target_circlediamonds.svg	stimuli_distractor_diamondtriangles.svg	6	yes	44	1	476
6.6.1	win	2022-11-07	14:40:28	14:45:26	295184	6307a60f9142d2c42021840d	95006484	1	main_z	7	advance_on_keypress_ZEE	120	stimuli_target_circlediamonds.svg	stimuli_distractor_diamondtriangles.svg	6	yes	57	0	341
6.6.1	win	2022-11-07	14:40:28	14:45:29	298157	6307a60f9142d2c42021840d	95006484	1	main_z	7	main_z	121	stimuli_distractor_trianglediamonds.svg	stimuli_distractor_trianglediamonds.svg	33	no	0	1	2000
6.6.1	win	2022-11-07	14:40:28	14:45:29	298157	6307a60f9142d2c42021840d	95006484	1	main_z	7	advance_on_keypress_ZEE	122	stimuli_distractor_trianglediamonds.svg	stimuli_distractor_trianglediamonds.svg	33	no	57	0	443
6.6.1	win	2022-11-07	14:40:28	14:45:30	299698	6307a60f9142d2c42021840d	95006484	1	main_z	7	main_z	123	stimuli_distractor_diamondtriangles.svg	stimuli_target_circlediamonds.svg	14	yes	44	1	460
6.6.1	win	2022-11-07	14:40:28	14:45:30	299698	6307a60f9142d2c42021840d	95006484	1	main_z	7	advance_on_keypress_ZEE	124	stimuli_distractor_diamondtriangles.svg	stimuli_target_circlediamonds.svg	14	yes	57	0	360
6.6.1	win	2022-11-07	14:40:28	14:45:32	301046	6307a60f9142d2c42021840d	95006484	1	main_z	7	main_z	125	stimuli_target_trianglesquares.svg	stimuli_distractor_diamondtriangles.svg	22	yes	44	1	344
6.6.1	win	2022-11-07	14:40:28	14:45:32	301046	6307a60f9142d2c42021840d	95006484	1	main_z	7	advance_on_keypress_ZEE	126	stimuli_target_trianglesquares.svg	stimuli_distractor_diamondtriangles.svg	22	yes	57	0	314
6.6.1	win	2022-11-07	14:40:28	14:45:33	302366	6307a60f9142d2c42021840d	95006484	1	main_z	7	main_z	127	stimuli_target_diamondcircles.svg	stimuli_distractor_trianglediamonds.svg	19	yes	44	1	348
6.6.1	win	2022-11-07	14:40:28	14:45:33	302366	6307a60f9142d2c42021840d	95006484	1	main_z	7	advance_on_keypress_ZEE	128	stimuli_target_diamondcircles.svg	stimuli_distractor_trianglediamonds.svg	19	yes	57	0	262
6.6.1	win	2022-11-07	14:40:28	14:45:34	303634	6307a60f9142d2c42021840d	95006484	1	main_z	7	main_z	129	stimuli_distractor_trianglediamonds.svg	stimuli_target_trianglecircles.svg	25	yes	44	1	351
6.6.1	win	2022-11-07	14:40:28	14:45:34	303634	6307a60f9142d2c42021840d	95006484	1	main_z	7	advance_on_keypress_ZEE	130	stimuli_distractor_trianglediamonds.svg	stimuli_target_trianglecircles.svg	25	yes	57	0	295
6.6.1	win	2022-11-07	14:40:28	14:45:36	304921	6307a60f9142d2c42021840d	95006484	1	main_z	7	main_z	131	stimuli_distractor_trianglediamonds.svg	stimuli_distractor_diamondtriangles.svg	36	no	44	0	339
6.6.1	win	2022-11-07	14:40:28	14:45:36	304921	6307a60f9142d2c42021840d	95006484	1	main_z	7	advance_on_keypress_ZEE	132	stimuli_distractor_trianglediamonds.svg	stimuli_distractor_diamondtriangles.svg	36	no	57	0	624
6.6.1	win	2022-11-07	14:40:28	14:45:37	306602	6307a60f9142d2c42021840d	95006484	1	main_z	7	main_z	133	stimuli_distractor_diamondtriangles.svg	stimuli_target_diamondcircles.svg	31	yes	44	1	421
6.6.1	win	2022-11-07	14:40:28	14:45:37	306602	6307a60f9142d2c42021840d	95006484	1	main_z	7	advance_on_keypress_ZEE	134	stimuli_distractor_diamondtriangles.svg	stimuli_target_diamondcircles.svg	31	yes	57	0	354
6.6.1	win	2022-11-07	14:40:28	14:45:39	308199	6307a60f9142d2c42021840d	95006484	1	main_z	7	main_z	135	stimuli_distractor_trianglediamonds.svg	stimuli_target_circletriangles.svg	9	yes	44	1	601
6.6.1	win	2022-11-07	14:40:28	14:45:39	308199	6307a60f9142d2c42021840d	95006484	1	main_z	7	advance_on_keypress_ZEE	136	stimuli_distractor_trianglediamonds.svg	stimuli_target_circletriangles.svg	9	yes	57	0	476
6.6.1	win	2022-11-07	14:40:28	14:45:40	309749	6307a60f9142d2c42021840d	95006484	1	main_z	7	main_z	137	stimuli_target_trianglesquares.svg	stimuli_distractor_trianglediamonds.svg	18	yes	44	1	422
6.6.1	win	2022-11-07	14:40:28	14:45:40	309749	6307a60f9142d2c42021840d	95006484	1	main_z	7	advance_on_keypress_ZEE	138	stimuli_target_trianglesquares.svg	stimuli_distractor_trianglediamonds.svg	18	yes	57	0	308
6.6.1	win	2022-11-07	14:40:28	14:45:42	311078	6307a60f9142d2c42021840d	95006484	1	main_z	7	main_z	139	stimuli_target_circletriangles.svg	stimuli_distractor_diamondtriangles.svg	5	yes	44	1	384
6.6.1	win	2022-11-07	14:40:28	14:45:42	311078	6307a60f9142d2c42021840d	95006484	1	main_z	7	advance_on_keypress_ZEE	140	stimuli_target_circletriangles.svg	stimuli_distractor_diamondtriangles.svg	5	yes	57	0	353
6.6.1	win	2022-11-07	14:40:28	14:45:43	312543	6307a60f9142d2c42021840d	95006484	1	main_z	7	main_z	141	stimuli_distractor_diamondtriangles.svg	stimuli_target_squarediamonds.svg	16	yes	44	1	467
6.6.1	win	2022-11-07	14:40:28	14:45:43	312543	6307a60f9142d2c42021840d	95006484	1	main_z	7	advance_on_keypress_ZEE	142	stimuli_distractor_diamondtriangles.svg	stimuli_target_squarediamonds.svg	16	yes	57	0	337
6.6.1	win	2022-11-07	14:40:28	14:45:45	313877	6307a60f9142d2c42021840d	95006484	1	main_z	7	main_z	143	stimuli_target_circletriangles.svg	stimuli_distractor_trianglediamonds.svg	1	yes	44	1	353
6.6.1	win	2022-11-07	14:40:28	14:45:45	313877	6307a60f9142d2c42021840d	95006484	1	main_z	7	advance_on_keypress_ZEE	144	stimuli_target_circletriangles.svg	stimuli_distractor_trianglediamonds.svg	1	yes	57	0	390
6.6.1	win	2022-11-07	14:40:28	14:45:46	315291	6307a60f9142d2c42021840d	95006484	1	main_z	7	main_z	145	stimuli_target_squarediamonds.svg	stimuli_distractor_diamondtriangles.svg	8	yes	44	1	384
6.6.1	win	2022-11-07	14:40:28	14:45:46	315291	6307a60f9142d2c42021840d	95006484	1	main_z	7	advance_on_keypress_ZEE	146	stimuli_target_squarediamonds.svg	stimuli_distractor_diamondtriangles.svg	8	yes	57	0	325
6.6.1	win	2022-11-07	14:40:28	14:45:47	316748	6307a60f9142d2c42021840d	95006484	1	main_z	7	main_z	147	stimuli_distractor_trianglediamonds.svg	stimuli_target_diamondcircles.svg	27	yes	44	1	493
6.6.1	win	2022-11-07	14:40:28	14:45:47	316748	6307a60f9142d2c42021840d	95006484	1	main_z	7	advance_on_keypress_ZEE	148	stimuli_distractor_trianglediamonds.svg	stimuli_target_diamondcircles.svg	27	yes	57	0	325
6.6.1	win	2022-11-07	14:40:28	14:45:49	318056	6307a60f9142d2c42021840d	95006484	1	main_z	7	main_z	149	stimuli_distractor_diamondtriangles.svg	stimuli_target_diamondsquares.svg	32	yes	44	1	352
6.6.1	win	2022-11-07	14:40:28	14:45:49	318056	6307a60f9142d2c42021840d	95006484	1	main_z	7	advance_on_keypress_ZEE	150	stimuli_distractor_diamondtriangles.svg	stimuli_target_diamondsquares.svg	32	yes	57	0	478
6.6.1	win	2022-11-07	14:40:28	14:45:50	319594	6307a60f9142d2c42021840d	95006484	1	main_z	7	main_z	151	stimuli_target_squaretriangles.svg	stimuli_distractor_diamondtriangles.svg	7	yes	44	1	408
6.6.1	win	2022-11-07	14:40:28	14:45:50	319594	6307a60f9142d2c42021840d	95006484	1	main_z	7	advance_on_keypress_ZEE	152	stimuli_target_squaretriangles.svg	stimuli_distractor_diamondtriangles.svg	7	yes	57	0	318
6.6.1	win	2022-11-07	14:40:28	14:45:52	321080	6307a60f9142d2c42021840d	95006484	1	main_z	7	main_z	153	stimuli_target_squarediamonds.svg	stimuli_distractor_trianglediamonds.svg	4	yes	44	1	529
6.6.1	win	2022-11-07	14:40:28	14:45:52	321080	6307a60f9142d2c42021840d	95006484	1	main_z	7	advance_on_keypress_ZEE	154	stimuli_target_squarediamonds.svg	stimuli_distractor_trianglediamonds.svg	4	yes	57	0	469
6.6.1	win	2022-11-07	14:40:28	14:45:55	324200	6307a60f9142d2c42021840d	95006484	1	main_z	7	main_z	155	stimuli_distractor_diamondtriangles.svg	stimuli_distractor_diamondtriangles.svg	40	no	0	1	2000
6.6.1	win	2022-11-07	14:40:28	14:45:55	324200	6307a60f9142d2c42021840d	95006484	1	main_z	7	advance_on_keypress_ZEE	156	stimuli_distractor_diamondtriangles.svg	stimuli_distractor_diamondtriangles.svg	40	no	57	0	308
6.6.1	win	2022-11-07	14:40:28	14:45:56	325780	6307a60f9142d2c42021840d	95006484	1	main_z	7	main_z	157	stimuli_distractor_diamondtriangles.svg	stimuli_target_squaretriangles.svg	15	yes	44	1	632
6.6.1	win	2022-11-07	14:40:28	14:45:56	325780	6307a60f9142d2c42021840d	95006484	1	main_z	7	advance_on_keypress_ZEE	158	stimuli_distractor_diamondtriangles.svg	stimuli_target_squaretriangles.svg	15	yes	57	0	343
6.6.1	win	2022-11-07	14:40:28	14:45:58	327201	6307a60f9142d2c42021840d	95006484	1	main_z	7	main_z	159	stimuli_distractor_diamondtriangles.svg	stimuli_distractor_trianglediamonds.svg	38	no	44	0	439
6.6.1	win	2022-11-07	14:40:28	14:45:58	327201	6307a60f9142d2c42021840d	95006484	1	main_z	7	advance_on_keypress_ZEE	160	stimuli_distractor_diamondtriangles.svg	stimuli_distractor_trianglediamonds.svg	38	no	57	0	444
6.6.1	win	2022-11-07	14:40:28	14:46:12	341276	6307a60f9142d2c42021840d	95006484	1	practice_slash	9	practice_slash	1	stimuli_distractor_diamondtriangles.svg	stimuli_target_trianglecircles.svg	9	yes	53	1	556
6.6.1	win	2022-11-07	14:40:28	14:46:12	341276	6307a60f9142d2c42021840d	95006484	1	practice_slash	9	advance_on_keypress_SLASH	2	stimuli_distractor_diamondtriangles.svg	stimuli_target_trianglecircles.svg	9	yes	57	0	444
6.6.1	win	2022-11-07	14:40:28	14:46:16	345386	6307a60f9142d2c42021840d	95006484	1	practice_slash	9	practice_slash	3	stimuli_distractor_trianglediamonds.svg	stimuli_distractor_diamondtriangles.svg	16	no	0	1	2000
6.6.1	win	2022-11-07	14:40:28	14:46:16	345386	6307a60f9142d2c42021840d	95006484	1	practice_slash	9	advance_on_keypress_SLASH	4	stimuli_distractor_trianglediamonds.svg	stimuli_distractor_diamondtriangles.svg	16	no	57	0	457
6.6.1	win	2022-11-07	14:40:28	14:46:19	348054	6307a60f9142d2c42021840d	95006484	1	practice_slash	9	practice_slash	5	stimuli_distractor_diamondtriangles.svg	stimuli_target_diamondcircles.svg	8	yes	53	1	571
6.6.1	win	2022-11-07	14:40:28	14:46:19	348054	6307a60f9142d2c42021840d	95006484	1	practice_slash	9	advance_on_keypress_SLASH	6	stimuli_distractor_diamondtriangles.svg	stimuli_target_diamondcircles.svg	8	yes	57	0	468
6.6.1	win	2022-11-07	14:40:28	14:46:23	352163	6307a60f9142d2c42021840d	95006484	1	practice_slash	9	practice_slash	7	stimuli_distractor_trianglediamonds.svg	stimuli_distractor_trianglediamonds.svg	15	no	0	1	2000
6.6.1	win	2022-11-07	14:40:28	14:46:23	352163	6307a60f9142d2c42021840d	95006484	1	practice_slash	9	advance_on_keypress_SLASH	8	stimuli_distractor_trianglediamonds.svg	stimuli_distractor_trianglediamonds.svg	15	no	57	0	298
6.6.1	win	2022-11-07	14:40:28	14:46:25	354599	6307a60f9142d2c42021840d	95006484	1	practice_slash	9	practice_slash	9	stimuli_target_circlediamonds.svg	stimuli_distractor_trianglediamonds.svg	4	yes	53	1	490
6.6.1	win	2022-11-07	14:40:28	14:46:25	354599	6307a60f9142d2c42021840d	95006484	1	practice_slash	9	advance_on_keypress_SLASH	10	stimuli_target_circlediamonds.svg	stimuli_distractor_trianglediamonds.svg	4	yes	57	0	380
6.6.1	win	2022-11-07	14:40:28	14:46:28	357287	6307a60f9142d2c42021840d	95006484	1	practice_slash	9	practice_slash	11	stimuli_distractor_diamondtriangles.svg	stimuli_target_circletriangles.svg	7	yes	53	1	647
6.6.1	win	2022-11-07	14:40:28	14:46:28	357287	6307a60f9142d2c42021840d	95006484	1	practice_slash	9	advance_on_keypress_SLASH	12	stimuli_distractor_diamondtriangles.svg	stimuli_target_circletriangles.svg	7	yes	57	0	318
6.6.1	win	2022-11-07	14:40:28	14:46:30	359799	6307a60f9142d2c42021840d	95006484	1	practice_slash	9	practice_slash	13	stimuli_distractor_diamondtriangles.svg	stimuli_distractor_trianglediamonds.svg	14	no	53	0	544
6.6.1	win	2022-11-07	14:40:28	14:46:30	359799	6307a60f9142d2c42021840d	95006484	1	practice_slash	9	advance_on_keypress_SLASH	14	stimuli_distractor_diamondtriangles.svg	stimuli_distractor_trianglediamonds.svg	14	no	57	0	374
6.6.1	win	2022-11-07	14:40:28	14:46:33	362310	6307a60f9142d2c42021840d	95006484	1	practice_slash	9	practice_slash	15	stimuli_target_squarediamonds.svg	stimuli_distractor_diamondtriangles.svg	2	yes	53	1	491
6.6.1	win	2022-11-07	14:40:28	14:46:33	362310	6307a60f9142d2c42021840d	95006484	1	practice_slash	9	advance_on_keypress_SLASH	16	stimuli_target_squarediamonds.svg	stimuli_distractor_diamondtriangles.svg	2	yes	57	0	309
6.6.1	win	2022-11-07	14:40:28	14:46:37	366284	6307a60f9142d2c42021840d	95006484	1	practice_slash	9	practice_slash	17	stimuli_distractor_diamondtriangles.svg	stimuli_distractor_diamondtriangles.svg	13	no	0	1	2000
6.6.1	win	2022-11-07	14:40:28	14:46:37	366284	6307a60f9142d2c42021840d	95006484	1	practice_slash	9	advance_on_keypress_SLASH	18	stimuli_distractor_diamondtriangles.svg	stimuli_distractor_diamondtriangles.svg	13	no	57	0	301
6.6.1	win	2022-11-07	14:40:28	14:46:39	368761	6307a60f9142d2c42021840d	95006484	1	practice_slash	9	practice_slash	19	stimuli_target_diamondsquares.svg	stimuli_distractor_trianglediamonds.svg	6	yes	53	1	532
6.6.1	win	2022-11-07	14:40:28	14:46:39	368761	6307a60f9142d2c42021840d	95006484	1	practice_slash	9	advance_on_keypress_SLASH	20	stimuli_target_diamondsquares.svg	stimuli_distractor_trianglediamonds.svg	6	yes	57	0	287
6.6.1	win	2022-11-07	14:40:28	14:46:42	371061	6307a60f9142d2c42021840d	95006484	1	practice_slash	9	practice_slash	21	stimuli_target_circlediamonds.svg	stimuli_distractor_diamondtriangles.svg	1	yes	53	1	366
6.6.1	win	2022-11-07	14:40:28	14:46:42	371061	6307a60f9142d2c42021840d	95006484	1	practice_slash	9	advance_on_keypress_SLASH	22	stimuli_target_circlediamonds.svg	stimuli_distractor_diamondtriangles.svg	1	yes	57	0	288
6.6.1	win	2022-11-07	14:40:28	14:46:44	373325	6307a60f9142d2c42021840d	95006484	1	practice_slash	9	practice_slash	23	stimuli_target_squarediamonds.svg	stimuli_distractor_trianglediamonds.svg	5	yes	53	1	332
6.6.1	win	2022-11-07	14:40:28	14:46:44	373325	6307a60f9142d2c42021840d	95006484	1	practice_slash	9	advance_on_keypress_SLASH	24	stimuli_target_squarediamonds.svg	stimuli_distractor_trianglediamonds.svg	5	yes	57	0	417
6.6.1	win	2022-11-07	14:40:28	14:46:47	375856	6307a60f9142d2c42021840d	95006484	1	practice_slash	9	practice_slash	25	stimuli_distractor_trianglediamonds.svg	stimuli_target_diamondcircles.svg	12	yes	53	1	465
6.6.1	win	2022-11-07	14:40:28	14:46:47	375856	6307a60f9142d2c42021840d	95006484	1	practice_slash	9	advance_on_keypress_SLASH	26	stimuli_distractor_trianglediamonds.svg	stimuli_target_diamondcircles.svg	12	yes	57	0	361
6.6.1	win	2022-11-07	14:40:28	14:46:49	378267	6307a60f9142d2c42021840d	95006484	1	practice_slash	9	practice_slash	27	stimuli_distractor_trianglediamonds.svg	stimuli_target_circlediamonds.svg	10	yes	53	1	396
6.6.1	win	2022-11-07	14:40:28	14:46:49	378267	6307a60f9142d2c42021840d	95006484	1	practice_slash	9	advance_on_keypress_SLASH	28	stimuli_distractor_trianglediamonds.svg	stimuli_target_circlediamonds.svg	10	yes	57	0	301
6.6.1	win	2022-11-07	14:40:28	14:46:51	380827	6307a60f9142d2c42021840d	95006484	1	practice_slash	9	practice_slash	29	stimuli_target_diamondsquares.svg	stimuli_distractor_diamondtriangles.svg	3	yes	53	1	607
6.6.1	win	2022-11-07	14:40:28	14:46:51	380827	6307a60f9142d2c42021840d	95006484	1	practice_slash	9	advance_on_keypress_SLASH	30	stimuli_target_diamondsquares.svg	stimuli_distractor_diamondtriangles.svg	3	yes	57	0	292
6.6.1	win	2022-11-07	14:40:28	14:46:54	383245	6307a60f9142d2c42021840d	95006484	1	practice_slash	9	practice_slash	31	stimuli_distractor_trianglediamonds.svg	stimuli_target_squarediamonds.svg	11	yes	53	1	461
6.6.1	win	2022-11-07	14:40:28	14:46:54	383245	6307a60f9142d2c42021840d	95006484	1	practice_slash	9	advance_on_keypress_SLASH	32	stimuli_distractor_trianglediamonds.svg	stimuli_target_squarediamonds.svg	11	yes	57	0	412
6.6.1	win	2022-11-07	14:40:28	14:46:59	388258	6307a60f9142d2c42021840d	95006484	1	main_slash	11	main_slash	1	stimuli_distractor_diamondtriangles.svg	stimuli_target_squarediamonds.svg	16	yes	53	1	331
6.6.1	win	2022-11-07	14:40:28	14:46:59	388258	6307a60f9142d2c42021840d	95006484	1	main_slash	11	advance_on_keypress_SLASH	2	stimuli_distractor_diamondtriangles.svg	stimuli_target_squarediamonds.svg	16	yes	57	0	635
6.6.1	win	2022-11-07	14:40:28	14:47:01	389875	6307a60f9142d2c42021840d	95006484	1	main_slash	11	main_slash	3	stimuli_distractor_trianglediamonds.svg	stimuli_target_trianglecircles.svg	25	yes	53	1	334
6.6.1	win	2022-11-07	14:40:28	14:47:01	389875	6307a60f9142d2c42021840d	95006484	1	main_slash	11	advance_on_keypress_SLASH	4	stimuli_distractor_trianglediamonds.svg	stimuli_target_trianglecircles.svg	25	yes	57	0	371
6.6.1	win	2022-11-07	14:40:28	14:47:02	391220	6307a60f9142d2c42021840d	95006484	1	main_slash	11	main_slash	5	stimuli_target_trianglecircles.svg	stimuli_distractor_trianglediamonds.svg	17	yes	53	1	331
6.6.1	win	2022-11-07	14:40:28	14:47:02	391220	6307a60f9142d2c42021840d	95006484	1	main_slash	11	advance_on_keypress_SLASH	6	stimuli_target_trianglecircles.svg	stimuli_distractor_trianglediamonds.svg	17	yes	57	0	402
6.6.1	win	2022-11-07	14:40:28	14:47:03	392675	6307a60f9142d2c42021840d	95006484	1	main_slash	11	main_slash	7	stimuli_distractor_diamondtriangles.svg	stimuli_target_diamondcircles.svg	31	yes	53	1	404
6.6.1	win	2022-11-07	14:40:28	14:47:03	392675	6307a60f9142d2c42021840d	95006484	1	main_slash	11	advance_on_keypress_SLASH	8	stimuli_distractor_diamondtriangles.svg	stimuli_target_diamondcircles.svg	31	yes	57	0	467
6.6.1	win	2022-11-07	14:40:28	14:47:05	394113	6307a60f9142d2c42021840d	95006484	1	main_slash	11	main_slash	9	stimuli_target_squarediamonds.svg	stimuli_distractor_diamondtriangles.svg	8	yes	53	1	327
6.6.1	win	2022-11-07	14:40:28	14:47:05	394113	6307a60f9142d2c42021840d	95006484	1	main_slash	11	advance_on_keypress_SLASH	10	stimuli_target_squarediamonds.svg	stimuli_distractor_diamondtriangles.svg	8	yes	57	0	394
6.6.1	win	2022-11-07	14:40:28	14:47:06	395469	6307a60f9142d2c42021840d	95006484	1	main_slash	11	main_slash	11	stimuli_target_diamondsquares.svg	stimuli_distractor_trianglediamonds.svg	20	yes	53	1	300
6.6.1	win	2022-11-07	14:40:28	14:47:06	395469	6307a60f9142d2c42021840d	95006484	1	main_slash	11	advance_on_keypress_SLASH	12	stimuli_target_diamondsquares.svg	stimuli_distractor_trianglediamonds.svg	20	yes	57	0	410
6.6.1	win	2022-11-07	14:40:28	14:47:07	396740	6307a60f9142d2c42021840d	95006484	1	main_slash	11	main_slash	13	stimuli_target_circlediamonds.svg	stimuli_distractor_diamondtriangles.svg	6	yes	53	1	224
6.6.1	win	2022-11-07	14:40:28	14:47:07	396740	6307a60f9142d2c42021840d	95006484	1	main_slash	11	advance_on_keypress_SLASH	14	stimuli_target_circlediamonds.svg	stimuli_distractor_diamondtriangles.svg	6	yes	57	0	812
6.6.1	win	2022-11-07	14:40:28	14:47:09	398203	6307a60f9142d2c42021840d	95006484	1	main_slash	11	main_slash	15	stimuli_distractor_trianglediamonds.svg	stimuli_distractor_trianglediamonds.svg	34	no	53	0	5
6.6.1	win	2022-11-07	14:40:28	14:47:09	398203	6307a60f9142d2c42021840d	95006484	1	main_slash	11	advance_on_keypress_SLASH	16	stimuli_distractor_trianglediamonds.svg	stimuli_distractor_trianglediamonds.svg	34	no	57	0	683
6.6.1	win	2022-11-07	14:40:28	14:47:11	399882	6307a60f9142d2c42021840d	95006484	1	main_slash	11	main_slash	17	stimuli_distractor_diamondtriangles.svg	stimuli_distractor_trianglediamonds.svg	37	no	53	0	350
6.6.1	win	2022-11-07	14:40:28	14:47:11	399882	6307a60f9142d2c42021840d	95006484	1	main_slash	11	advance_on_keypress_SLASH	18	stimuli_distractor_diamondtriangles.svg	stimuli_distractor_trianglediamonds.svg	37	no	57	0	436
6.6.1	win	2022-11-07	14:40:28	14:47:12	401365	6307a60f9142d2c42021840d	95006484	1	main_slash	11	main_slash	19	stimuli_target_squarediamonds.svg	stimuli_distractor_trianglediamonds.svg	4	yes	53	1	402
6.6.1	win	2022-11-07	14:40:28	14:47:12	401365	6307a60f9142d2c42021840d	95006484	1	main_slash	11	advance_on_keypress_SLASH	20	stimuli_target_squarediamonds.svg	stimuli_distractor_trianglediamonds.svg	4	yes	57	0	450
6.6.1	win	2022-11-07	14:40:28	14:47:14	402844	6307a60f9142d2c42021840d	95006484	1	main_slash	11	main_slash	21	stimuli_distractor_trianglediamonds.svg	stimuli_target_squaretriangles.svg	11	yes	53	1	370
6.6.1	win	2022-11-07	14:40:28	14:47:14	402844	6307a60f9142d2c42021840d	95006484	1	main_slash	11	advance_on_keypress_SLASH	22	stimuli_distractor_trianglediamonds.svg	stimuli_target_squaretriangles.svg	11	yes	57	0	335
6.6.1	win	2022-11-07	14:40:28	14:47:15	404132	6307a60f9142d2c42021840d	95006484	1	main_slash	11	main_slash	23	stimuli_distractor_diamondtriangles.svg	stimuli_target_diamondsquares.svg	32	yes	53	1	304
6.6.1	win	2022-11-07	14:40:28	14:47:15	404132	6307a60f9142d2c42021840d	95006484	1	main_slash	11	advance_on_keypress_SLASH	24	stimuli_distractor_diamondtriangles.svg	stimuli_target_diamondsquares.svg	32	yes	57	0	486
6.6.1	win	2022-11-07	14:40:28	14:47:16	405499	6307a60f9142d2c42021840d	95006484	1	main_slash	11	main_slash	25	stimuli_target_diamondcircles.svg	stimuli_distractor_diamondtriangles.svg	23	yes	53	1	239
6.6.1	win	2022-11-07	14:40:28	14:47:16	405499	6307a60f9142d2c42021840d	95006484	1	main_slash	11	advance_on_keypress_SLASH	26	stimuli_target_diamondcircles.svg	stimuli_distractor_diamondtriangles.svg	23	yes	57	0	409
6.6.1	win	2022-11-07	14:40:28	14:47:18	406906	6307a60f9142d2c42021840d	95006484	1	main_slash	11	main_slash	27	stimuli_distractor_diamondtriangles.svg	stimuli_distractor_trianglediamonds.svg	38	no	53	0	363
6.6.1	win	2022-11-07	14:40:28	14:47:18	406906	6307a60f9142d2c42021840d	95006484	1	main_slash	11	advance_on_keypress_SLASH	28	stimuli_distractor_diamondtriangles.svg	stimuli_distractor_trianglediamonds.svg	38	no	57	0	422
6.6.1	win	2022-11-07	14:40:28	14:47:21	409975	6307a60f9142d2c42021840d	95006484	1	main_slash	11	main_slash	29	stimuli_distractor_diamondtriangles.svg	stimuli_target_circletriangles.svg	13	yes	0	0	2000
6.6.1	win	2022-11-07	14:40:28	14:47:21	409975	6307a60f9142d2c42021840d	95006484	1	main_slash	11	advance_on_keypress_SLASH	30	stimuli_distractor_diamondtriangles.svg	stimuli_target_circletriangles.svg	13	yes	57	0	315
6.6.1	win	2022-11-07	14:40:28	14:47:22	411327	6307a60f9142d2c42021840d	95006484	1	main_slash	11	main_slash	31	stimuli_distractor_trianglediamonds.svg	stimuli_target_diamondsquares.svg	28	yes	53	1	389
6.6.1	win	2022-11-07	14:40:28	14:47:22	411327	6307a60f9142d2c42021840d	95006484	1	main_slash	11	advance_on_keypress_SLASH	32	stimuli_distractor_trianglediamonds.svg	stimuli_target_diamondsquares.svg	28	yes	57	0	435
6.6.1	win	2022-11-07	14:40:28	14:47:24	413011	6307a60f9142d2c42021840d	95006484	1	main_slash	11	main_slash	33	stimuli_distractor_trianglediamonds.svg	stimuli_target_trianglesquares.svg	26	yes	53	1	607
6.6.1	win	2022-11-07	14:40:28	14:47:24	413011	6307a60f9142d2c42021840d	95006484	1	main_slash	11	advance_on_keypress_SLASH	34	stimuli_distractor_trianglediamonds.svg	stimuli_target_trianglesquares.svg	26	yes	57	0	517
6.6.1	win	2022-11-07	14:40:28	14:47:25	414695	6307a60f9142d2c42021840d	95006484	1	main_slash	11	main_slash	35	stimuli_target_circletriangles.svg	stimuli_distractor_diamondtriangles.svg	5	yes	53	1	527
6.6.1	win	2022-11-07	14:40:28	14:47:25	414695	6307a60f9142d2c42021840d	95006484	1	main_slash	11	advance_on_keypress_SLASH	36	stimuli_target_circletriangles.svg	stimuli_distractor_diamondtriangles.svg	5	yes	57	0	441
6.6.1	win	2022-11-07	14:40:28	14:47:27	416342	6307a60f9142d2c42021840d	95006484	1	main_slash	11	main_slash	37	stimuli_target_trianglesquares.svg	stimuli_distractor_trianglediamonds.svg	18	yes	53	1	574
6.6.1	win	2022-11-07	14:40:28	14:47:27	416342	6307a60f9142d2c42021840d	95006484	1	main_slash	11	advance_on_keypress_SLASH	38	stimuli_target_trianglesquares.svg	stimuli_distractor_trianglediamonds.svg	18	yes	57	0	436
6.6.1	win	2022-11-07	14:40:28	14:47:28	417817	6307a60f9142d2c42021840d	95006484	1	main_slash	11	main_slash	39	stimuli_distractor_diamondtriangles.svg	stimuli_target_trianglesquares.svg	30	yes	53	1	402
6.6.1	win	2022-11-07	14:40:28	14:47:28	417817	6307a60f9142d2c42021840d	95006484	1	main_slash	11	advance_on_keypress_SLASH	40	stimuli_distractor_diamondtriangles.svg	stimuli_target_trianglesquares.svg	30	yes	57	0	389
6.6.1	win	2022-11-07	14:40:28	14:47:30	419362	6307a60f9142d2c42021840d	95006484	1	main_slash	11	main_slash	41	stimuli_distractor_diamondtriangles.svg	stimuli_target_squaretriangles.svg	15	yes	53	1	505
6.6.1	win	2022-11-07	14:40:28	14:47:30	419362	6307a60f9142d2c42021840d	95006484	1	main_slash	11	advance_on_keypress_SLASH	42	stimuli_distractor_diamondtriangles.svg	stimuli_target_squaretriangles.svg	15	yes	57	0	363
6.6.1	win	2022-11-07	14:40:28	14:47:31	420768	6307a60f9142d2c42021840d	95006484	1	main_slash	11	main_slash	43	stimuli_target_trianglesquares.svg	stimuli_distractor_diamondtriangles.svg	22	yes	53	1	388
6.6.1	win	2022-11-07	14:40:28	14:47:31	420768	6307a60f9142d2c42021840d	95006484	1	main_slash	11	advance_on_keypress_SLASH	44	stimuli_target_trianglesquares.svg	stimuli_distractor_diamondtriangles.svg	22	yes	57	0	305
6.6.1	win	2022-11-07	14:40:28	14:47:33	422035	6307a60f9142d2c42021840d	95006484	1	main_slash	11	main_slash	45	stimuli_target_diamondsquares.svg	stimuli_distractor_diamondtriangles.svg	24	yes	53	1	323
6.6.1	win	2022-11-07	14:40:28	14:47:33	422035	6307a60f9142d2c42021840d	95006484	1	main_slash	11	advance_on_keypress_SLASH	46	stimuli_target_diamondsquares.svg	stimuli_distractor_diamondtriangles.svg	24	yes	57	0	358
6.6.1	win	2022-11-07	14:40:28	14:47:34	423365	6307a60f9142d2c42021840d	95006484	1	main_slash	11	main_slash	47	stimuli_target_squaretriangles.svg	stimuli_distractor_trianglediamonds.svg	3	yes	53	1	338
6.6.1	win	2022-11-07	14:40:28	14:47:34	423365	6307a60f9142d2c42021840d	95006484	1	main_slash	11	advance_on_keypress_SLASH	48	stimuli_target_squaretriangles.svg	stimuli_distractor_trianglediamonds.svg	3	yes	57	0	310
6.6.1	win	2022-11-07	14:40:28	14:47:35	424614	6307a60f9142d2c42021840d	95006484	1	main_slash	11	main_slash	49	stimuli_target_circlediamonds.svg	stimuli_distractor_trianglediamonds.svg	2	yes	53	1	304
6.6.1	win	2022-11-07	14:40:28	14:47:35	424614	6307a60f9142d2c42021840d	95006484	1	main_slash	11	advance_on_keypress_SLASH	50	stimuli_target_circlediamonds.svg	stimuli_distractor_trianglediamonds.svg	2	yes	57	0	321
6.6.1	win	2022-11-07	14:40:28	14:47:37	425881	6307a60f9142d2c42021840d	95006484	1	main_slash	11	main_slash	51	stimuli_target_trianglecircles.svg	stimuli_distractor_diamondtriangles.svg	21	yes	53	1	305
6.6.1	win	2022-11-07	14:40:28	14:47:37	425881	6307a60f9142d2c42021840d	95006484	1	main_slash	11	advance_on_keypress_SLASH	52	stimuli_target_trianglecircles.svg	stimuli_distractor_diamondtriangles.svg	21	yes	57	0	977
6.6.1	win	2022-11-07	14:40:28	14:47:38	427673	6307a60f9142d2c42021840d	95006484	1	main_slash	11	main_slash	53	stimuli_distractor_trianglediamonds.svg	stimuli_distractor_trianglediamonds.svg	33	no	53	0	183
6.6.1	win	2022-11-07	14:40:28	14:47:38	427673	6307a60f9142d2c42021840d	95006484	1	main_slash	11	advance_on_keypress_SLASH	54	stimuli_distractor_trianglediamonds.svg	stimuli_distractor_trianglediamonds.svg	33	no	57	0	827
6.6.1	win	2022-11-07	14:40:28	14:47:40	429520	6307a60f9142d2c42021840d	95006484	1	main_slash	11	main_slash	55	stimuli_target_circletriangles.svg	stimuli_distractor_trianglediamonds.svg	1	yes	53	1	382
6.6.1	win	2022-11-07	14:40:28	14:47:40	429520	6307a60f9142d2c42021840d	95006484	1	main_slash	11	advance_on_keypress_SLASH	56	stimuli_target_circletriangles.svg	stimuli_distractor_trianglediamonds.svg	1	yes	57	0	353
6.6.1	win	2022-11-07	14:40:28	14:47:42	431174	6307a60f9142d2c42021840d	95006484	1	main_slash	11	main_slash	57	stimuli_distractor_trianglediamonds.svg	stimuli_target_circlediamonds.svg	10	yes	53	1	653
6.6.1	win	2022-11-07	14:40:28	14:47:42	431174	6307a60f9142d2c42021840d	95006484	1	main_slash	11	advance_on_keypress_SLASH	58	stimuli_distractor_trianglediamonds.svg	stimuli_target_circlediamonds.svg	10	yes	57	0	455
6.6.1	win	2022-11-07	14:40:28	14:47:43	432710	6307a60f9142d2c42021840d	95006484	1	main_slash	11	main_slash	59	stimuli_distractor_trianglediamonds.svg	stimuli_target_diamondcircles.svg	27	yes	53	1	440
6.6.1	win	2022-11-07	14:40:28	14:47:43	432710	6307a60f9142d2c42021840d	95006484	1	main_slash	11	advance_on_keypress_SLASH	60	stimuli_distractor_trianglediamonds.svg	stimuli_target_diamondcircles.svg	27	yes	57	0	411
6.6.1	win	2022-11-07	14:40:28	14:47:45	434161	6307a60f9142d2c42021840d	95006484	1	main_slash	11	main_slash	61	stimuli_distractor_trianglediamonds.svg	stimuli_target_circletriangles.svg	9	yes	53	1	392
6.6.1	win	2022-11-07	14:40:28	14:47:45	434161	6307a60f9142d2c42021840d	95006484	1	main_slash	11	advance_on_keypress_SLASH	62	stimuli_distractor_trianglediamonds.svg	stimuli_target_circletriangles.svg	9	yes	57	0	427
6.6.1	win	2022-11-07	14:40:28	14:47:46	435588	6307a60f9142d2c42021840d	95006484	1	main_slash	11	main_slash	63	stimuli_distractor_diamondtriangles.svg	stimuli_target_circlediamonds.svg	14	yes	53	1	354
6.6.1	win	2022-11-07	14:40:28	14:47:46	435588	6307a60f9142d2c42021840d	95006484	1	main_slash	11	advance_on_keypress_SLASH	64	stimuli_distractor_diamondtriangles.svg	stimuli_target_circlediamonds.svg	14	yes	57	0	365
6.6.1	win	2022-11-07	14:40:28	14:47:48	437124	6307a60f9142d2c42021840d	95006484	1	main_slash	11	main_slash	65	stimuli_target_squaretriangles.svg	stimuli_distractor_diamondtriangles.svg	7	yes	53	1	527
6.6.1	win	2022-11-07	14:40:28	14:47:48	437124	6307a60f9142d2c42021840d	95006484	1	main_slash	11	advance_on_keypress_SLASH	66	stimuli_target_squaretriangles.svg	stimuli_distractor_diamondtriangles.svg	7	yes	57	0	438
6.6.1	win	2022-11-07	14:40:28	14:47:49	438557	6307a60f9142d2c42021840d	95006484	1	main_slash	11	main_slash	67	stimuli_distractor_trianglediamonds.svg	stimuli_distractor_diamondtriangles.svg	35	no	53	0	359
6.6.1	win	2022-11-07	14:40:28	14:47:49	438557	6307a60f9142d2c42021840d	95006484	1	main_slash	11	advance_on_keypress_SLASH	68	stimuli_distractor_trianglediamonds.svg	stimuli_distractor_diamondtriangles.svg	35	no	57	0	785
6.6.1	win	2022-11-07	14:40:28	14:47:53	441979	6307a60f9142d2c42021840d	95006484	1	main_slash	11	main_slash	69	stimuli_distractor_diamondtriangles.svg	stimuli_distractor_diamondtriangles.svg	40	no	0	1	2000
6.6.1	win	2022-11-07	14:40:28	14:47:53	441979	6307a60f9142d2c42021840d	95006484	1	main_slash	11	advance_on_keypress_SLASH	70	stimuli_distractor_diamondtriangles.svg	stimuli_distractor_diamondtriangles.svg	40	no	57	0	300
6.6.1	win	2022-11-07	14:40:28	14:47:56	444927	6307a60f9142d2c42021840d	95006484	1	main_slash	11	main_slash	71	stimuli_distractor_trianglediamonds.svg	stimuli_distractor_diamondtriangles.svg	36	no	0	1	2000
6.6.1	win	2022-11-07	14:40:28	14:47:56	444927	6307a60f9142d2c42021840d	95006484	1	main_slash	11	advance_on_keypress_SLASH	72	stimuli_distractor_trianglediamonds.svg	stimuli_distractor_diamondtriangles.svg	36	no	57	0	296
6.6.1	win	2022-11-07	14:40:28	14:47:57	446188	6307a60f9142d2c42021840d	95006484	1	main_slash	11	main_slash	73	stimuli_target_diamondcircles.svg	stimuli_distractor_trianglediamonds.svg	19	yes	53	1	307
6.6.1	win	2022-11-07	14:40:28	14:47:57	446188	6307a60f9142d2c42021840d	95006484	1	main_slash	11	advance_on_keypress_SLASH	74	stimuli_target_diamondcircles.svg	stimuli_distractor_trianglediamonds.svg	19	yes	57	0	343
6.6.1	win	2022-11-07	14:40:28	14:47:58	447558	6307a60f9142d2c42021840d	95006484	1	main_slash	11	main_slash	75	stimuli_distractor_trianglediamonds.svg	stimuli_target_squarediamonds.svg	12	yes	53	1	386
6.6.1	win	2022-11-07	14:40:28	14:47:58	447558	6307a60f9142d2c42021840d	95006484	1	main_slash	11	advance_on_keypress_SLASH	76	stimuli_distractor_trianglediamonds.svg	stimuli_target_squarediamonds.svg	12	yes	57	0	425
6.6.1	win	2022-11-07	14:40:28	14:48:00	448897	6307a60f9142d2c42021840d	95006484	1	main_slash	11	main_slash	77	stimuli_distractor_diamondtriangles.svg	stimuli_target_trianglecircles.svg	29	yes	53	1	274
6.6.1	win	2022-11-07	14:40:28	14:48:00	448897	6307a60f9142d2c42021840d	95006484	1	main_slash	11	advance_on_keypress_SLASH	78	stimuli_distractor_diamondtriangles.svg	stimuli_target_trianglecircles.svg	29	yes	57	0	839
6.6.1	win	2022-11-07	14:40:28	14:48:03	452370	6307a60f9142d2c42021840d	95006484	1	main_slash	11	main_slash	79	stimuli_distractor_diamondtriangles.svg	stimuli_distractor_diamondtriangles.svg	39	no	0	1	2000
6.6.1	win	2022-11-07	14:40:28	14:48:03	452370	6307a60f9142d2c42021840d	95006484	1	main_slash	11	advance_on_keypress_SLASH	80	stimuli_distractor_diamondtriangles.svg	stimuli_distractor_diamondtriangles.svg	39	no	57	0	286
6.6.1	win	2022-11-07	14:40:28	14:48:04	453719	6307a60f9142d2c42021840d	95006484	1	main_slash	11	main_slash	81	stimuli_target_diamondsquares.svg	stimuli_distractor_trianglediamonds.svg	20	yes	53	1	419
6.6.1	win	2022-11-07	14:40:28	14:48:04	453719	6307a60f9142d2c42021840d	95006484	1	main_slash	11	advance_on_keypress_SLASH	82	stimuli_target_diamondsquares.svg	stimuli_distractor_trianglediamonds.svg	20	yes	57	0	399
6.6.1	win	2022-11-07	14:40:28	14:48:06	455231	6307a60f9142d2c42021840d	95006484	1	main_slash	11	main_slash	83	stimuli_distractor_trianglediamonds.svg	stimuli_target_circlediamonds.svg	10	yes	53	1	465
6.6.1	win	2022-11-07	14:40:28	14:48:06	455231	6307a60f9142d2c42021840d	95006484	1	main_slash	11	advance_on_keypress_SLASH	84	stimuli_distractor_trianglediamonds.svg	stimuli_target_circlediamonds.svg	10	yes	57	0	447
6.6.1	win	2022-11-07	14:40:28	14:48:07	456667	6307a60f9142d2c42021840d	95006484	1	main_slash	11	main_slash	85	stimuli_target_circlediamonds.svg	stimuli_distractor_diamondtriangles.svg	6	yes	53	1	335
6.6.1	win	2022-11-07	14:40:28	14:48:07	456667	6307a60f9142d2c42021840d	95006484	1	main_slash	11	advance_on_keypress_SLASH	86	stimuli_target_circlediamonds.svg	stimuli_distractor_diamondtriangles.svg	6	yes	57	0	318
6.6.1	win	2022-11-07	14:40:28	14:48:09	458015	6307a60f9142d2c42021840d	95006484	1	main_slash	11	main_slash	87	stimuli_target_squarediamonds.svg	stimuli_distractor_diamondtriangles.svg	8	yes	53	1	382
6.6.1	win	2022-11-07	14:40:28	14:48:09	458015	6307a60f9142d2c42021840d	95006484	1	main_slash	11	advance_on_keypress_SLASH	88	stimuli_target_squarediamonds.svg	stimuli_distractor_diamondtriangles.svg	8	yes	57	0	323
6.6.1	win	2022-11-07	14:40:28	14:48:10	459391	6307a60f9142d2c42021840d	95006484	1	main_slash	11	main_slash	89	stimuli_target_diamondcircles.svg	stimuli_distractor_diamondtriangles.svg	23	yes	53	1	411
6.6.1	win	2022-11-07	14:40:28	14:48:10	459391	6307a60f9142d2c42021840d	95006484	1	main_slash	11	advance_on_keypress_SLASH	90	stimuli_target_diamondcircles.svg	stimuli_distractor_diamondtriangles.svg	23	yes	57	0	342
6.6.1	win	2022-11-07	14:40:28	14:48:12	460999	6307a60f9142d2c42021840d	95006484	1	main_slash	11	main_slash	91	stimuli_distractor_trianglediamonds.svg	stimuli_target_diamondcircles.svg	27	yes	53	1	621
6.6.1	win	2022-11-07	14:40:28	14:48:12	460999	6307a60f9142d2c42021840d	95006484	1	main_slash	11	advance_on_keypress_SLASH	92	stimuli_distractor_trianglediamonds.svg	stimuli_target_diamondcircles.svg	27	yes	57	0	460
6.6.1	win	2022-11-07	14:40:28	14:48:13	462510	6307a60f9142d2c42021840d	95006484	1	main_slash	11	main_slash	93	stimuli_distractor_trianglediamonds.svg	stimuli_target_trianglesquares.svg	26	yes	53	1	417
6.6.1	win	2022-11-07	14:40:28	14:48:13	462510	6307a60f9142d2c42021840d	95006484	1	main_slash	11	advance_on_keypress_SLASH	94	stimuli_distractor_trianglediamonds.svg	stimuli_target_trianglesquares.svg	26	yes	57	0	352
6.6.1	win	2022-11-07	14:40:28	14:48:15	463894	6307a60f9142d2c42021840d	95006484	1	main_slash	11	main_slash	95	stimuli_target_trianglesquares.svg	stimuli_distractor_trianglediamonds.svg	18	yes	53	1	386
6.6.1	win	2022-11-07	14:40:28	14:48:15	463894	6307a60f9142d2c42021840d	95006484	1	main_slash	11	advance_on_keypress_SLASH	96	stimuli_target_trianglesquares.svg	stimuli_distractor_trianglediamonds.svg	18	yes	57	0	365
6.6.1	win	2022-11-07	14:40:28	14:48:16	465261	6307a60f9142d2c42021840d	95006484	1	main_slash	11	main_slash	97	stimuli_distractor_diamondtriangles.svg	stimuli_target_trianglesquares.svg	30	yes	53	1	353
6.6.1	win	2022-11-07	14:40:28	14:48:16	465261	6307a60f9142d2c42021840d	95006484	1	main_slash	11	advance_on_keypress_SLASH	98	stimuli_distractor_diamondtriangles.svg	stimuli_target_trianglesquares.svg	30	yes	57	0	323
6.6.1	win	2022-11-07	14:40:28	14:48:19	468224	6307a60f9142d2c42021840d	95006484	1	main_slash	11	main_slash	99	stimuli_distractor_diamondtriangles.svg	stimuli_distractor_trianglediamonds.svg	37	no	0	1	2000
6.6.1	win	2022-11-07	14:40:28	14:48:19	468224	6307a60f9142d2c42021840d	95006484	1	main_slash	11	advance_on_keypress_SLASH	100	stimuli_distractor_diamondtriangles.svg	stimuli_distractor_trianglediamonds.svg	37	no	57	0	138
6.6.1	win	2022-11-07	14:40:28	14:48:20	469524	6307a60f9142d2c42021840d	95006484	1	main_slash	11	main_slash	101	stimuli_distractor_trianglediamonds.svg	stimuli_target_squaretriangles.svg	11	yes	53	1	520
6.6.1	win	2022-11-07	14:40:28	14:48:20	469524	6307a60f9142d2c42021840d	95006484	1	main_slash	11	advance_on_keypress_SLASH	102	stimuli_distractor_trianglediamonds.svg	stimuli_target_squaretriangles.svg	11	yes	57	0	372
6.6.1	win	2022-11-07	14:40:28	14:48:22	470891	6307a60f9142d2c42021840d	95006484	1	main_slash	11	main_slash	103	stimuli_target_trianglecircles.svg	stimuli_distractor_diamondtriangles.svg	21	yes	53	1	355
6.6.1	win	2022-11-07	14:40:28	14:48:22	470891	6307a60f9142d2c42021840d	95006484	1	main_slash	11	advance_on_keypress_SLASH	104	stimuli_target_trianglecircles.svg	stimuli_distractor_diamondtriangles.svg	21	yes	57	0	429
6.6.1	win	2022-11-07	14:40:28	14:48:23	472349	6307a60f9142d2c42021840d	95006484	1	main_slash	11	main_slash	105	stimuli_target_squaretriangles.svg	stimuli_distractor_diamondtriangles.svg	7	yes	53	1	375
6.6.1	win	2022-11-07	14:40:28	14:48:23	472349	6307a60f9142d2c42021840d	95006484	1	main_slash	11	advance_on_keypress_SLASH	106	stimuli_target_squaretriangles.svg	stimuli_distractor_diamondtriangles.svg	7	yes	57	0	337
6.6.1	win	2022-11-07	14:40:28	14:48:24	473682	6307a60f9142d2c42021840d	95006484	1	main_slash	11	main_slash	107	stimuli_distractor_diamondtriangles.svg	stimuli_target_trianglecircles.svg	29	yes	53	1	347
6.6.1	win	2022-11-07	14:40:28	14:48:24	473682	6307a60f9142d2c42021840d	95006484	1	main_slash	11	advance_on_keypress_SLASH	108	stimuli_distractor_diamondtriangles.svg	stimuli_target_trianglecircles.svg	29	yes	57	0	1224
6.6.1	win	2022-11-07	14:40:28	14:48:27	475929	6307a60f9142d2c42021840d	95006484	1	main_slash	11	main_slash	109	stimuli_target_squaretriangles.svg	stimuli_distractor_trianglediamonds.svg	3	yes	53	1	371
6.6.1	win	2022-11-07	14:40:28	14:48:27	475929	6307a60f9142d2c42021840d	95006484	1	main_slash	11	advance_on_keypress_SLASH	110	stimuli_target_squaretriangles.svg	stimuli_distractor_trianglediamonds.svg	3	yes	57	0	277
6.6.1	win	2022-11-07	14:40:28	14:48:30	478864	6307a60f9142d2c42021840d	95006484	1	main_slash	11	main_slash	111	stimuli_distractor_diamondtriangles.svg	stimuli_distractor_diamondtriangles.svg	39	no	0	1	2000
6.6.1	win	2022-11-07	14:40:28	14:48:30	478864	6307a60f9142d2c42021840d	95006484	1	main_slash	11	advance_on_keypress_SLASH	112	stimuli_distractor_diamondtriangles.svg	stimuli_distractor_diamondtriangles.svg	39	no	57	0	288
6.6.1	win	2022-11-07	14:40:28	14:48:31	480677	6307a60f9142d2c42021840d	95006484	1	main_slash	11	main_slash	113	stimuli_target_trianglecircles.svg	stimuli_distractor_trianglediamonds.svg	17	yes	53	1	882
6.6.1	win	2022-11-07	14:40:28	14:48:31	480677	6307a60f9142d2c42021840d	95006484	1	main_slash	11	advance_on_keypress_SLASH	114	stimuli_target_trianglecircles.svg	stimuli_distractor_trianglediamonds.svg	17	yes	57	0	458
6.6.1	win	2022-11-07	14:40:28	14:48:33	482204	6307a60f9142d2c42021840d	95006484	1	main_slash	11	main_slash	115	stimuli_target_circlediamonds.svg	stimuli_distractor_trianglediamonds.svg	2	yes	53	1	412
6.6.1	win	2022-11-07	14:40:28	14:48:33	482204	6307a60f9142d2c42021840d	95006484	1	main_slash	11	advance_on_keypress_SLASH	116	stimuli_target_circlediamonds.svg	stimuli_distractor_trianglediamonds.svg	2	yes	57	0	305
6.6.1	win	2022-11-07	14:40:28	14:48:34	483515	6307a60f9142d2c42021840d	95006484	1	main_slash	11	main_slash	117	stimuli_distractor_diamondtriangles.svg	stimuli_target_circletriangles.svg	13	yes	53	1	357
6.6.1	win	2022-11-07	14:40:28	14:48:34	483515	6307a60f9142d2c42021840d	95006484	1	main_slash	11	advance_on_keypress_SLASH	118	stimuli_distractor_diamondtriangles.svg	stimuli_target_circletriangles.svg	13	yes	57	0	331
6.6.1	win	2022-11-07	14:40:28	14:48:35	484822	6307a60f9142d2c42021840d	95006484	1	main_slash	11	main_slash	119	stimuli_target_circletriangles.svg	stimuli_distractor_trianglediamonds.svg	1	yes	53	1	299
6.6.1	win	2022-11-07	14:40:28	14:48:35	484822	6307a60f9142d2c42021840d	95006484	1	main_slash	11	advance_on_keypress_SLASH	120	stimuli_target_circletriangles.svg	stimuli_distractor_trianglediamonds.svg	1	yes	57	0	385
6.6.1	win	2022-11-07	14:40:28	14:48:37	486225	6307a60f9142d2c42021840d	95006484	1	main_slash	11	main_slash	121	stimuli_distractor_diamondtriangles.svg	stimuli_target_squaretriangles.svg	15	yes	53	1	335
6.6.1	win	2022-11-07	14:40:28	14:48:37	486225	6307a60f9142d2c42021840d	95006484	1	main_slash	11	advance_on_keypress_SLASH	122	stimuli_distractor_diamondtriangles.svg	stimuli_target_squaretriangles.svg	15	yes	57	0	345
6.6.1	win	2022-11-07	14:40:28	14:48:38	487619	6307a60f9142d2c42021840d	95006484	1	main_slash	11	main_slash	123	stimuli_distractor_trianglediamonds.svg	stimuli_distractor_trianglediamonds.svg	34	no	53	0	398
6.6.1	win	2022-11-07	14:40:28	14:48:38	487619	6307a60f9142d2c42021840d	95006484	1	main_slash	11	advance_on_keypress_SLASH	124	stimuli_distractor_trianglediamonds.svg	stimuli_distractor_trianglediamonds.svg	34	no	57	0	491
6.6.1	win	2022-11-07	14:40:28	14:48:40	489159	6307a60f9142d2c42021840d	95006484	1	main_slash	11	main_slash	125	stimuli_distractor_trianglediamonds.svg	stimuli_target_circletriangles.svg	9	yes	53	1	406
6.6.1	win	2022-11-07	14:40:28	14:48:40	489159	6307a60f9142d2c42021840d	95006484	1	main_slash	11	advance_on_keypress_SLASH	126	stimuli_distractor_trianglediamonds.svg	stimuli_target_circletriangles.svg	9	yes	57	0	294
6.6.1	win	2022-11-07	14:40:28	14:48:41	490551	6307a60f9142d2c42021840d	95006484	1	main_slash	11	main_slash	127	stimuli_distractor_diamondtriangles.svg	stimuli_target_circlediamonds.svg	14	yes	53	1	466
6.6.1	win	2022-11-07	14:40:28	14:48:41	490551	6307a60f9142d2c42021840d	95006484	1	main_slash	11	advance_on_keypress_SLASH	128	stimuli_distractor_diamondtriangles.svg	stimuli_target_circlediamonds.svg	14	yes	57	0	392
6.6.1	win	2022-11-07	14:40:28	14:48:44	493585	6307a60f9142d2c42021840d	95006484	1	main_slash	11	main_slash	129	stimuli_distractor_trianglediamonds.svg	stimuli_target_diamondsquares.svg	28	yes	0	0	2000
6.6.1	win	2022-11-07	14:40:28	14:48:44	493585	6307a60f9142d2c42021840d	95006484	1	main_slash	11	advance_on_keypress_SLASH	130	stimuli_distractor_trianglediamonds.svg	stimuli_target_diamondsquares.svg	28	yes	57	0	285
6.6.1	win	2022-11-07	14:40:28	14:48:46	494931	6307a60f9142d2c42021840d	95006484	1	main_slash	11	main_slash	131	stimuli_target_circletriangles.svg	stimuli_distractor_diamondtriangles.svg	5	yes	53	1	417
6.6.1	win	2022-11-07	14:40:28	14:48:46	494931	6307a60f9142d2c42021840d	95006484	1	main_slash	11	advance_on_keypress_SLASH	132	stimuli_target_circletriangles.svg	stimuli_distractor_diamondtriangles.svg	5	yes	57	0	371
6.6.1	win	2022-11-07	14:40:28	14:48:47	496354	6307a60f9142d2c42021840d	95006484	1	main_slash	11	main_slash	133	stimuli_distractor_diamondtriangles.svg	stimuli_target_diamondsquares.svg	32	yes	53	1	407
6.6.1	win	2022-11-07	14:40:28	14:48:47	496354	6307a60f9142d2c42021840d	95006484	1	main_slash	11	advance_on_keypress_SLASH	134	stimuli_distractor_diamondtriangles.svg	stimuli_target_diamondsquares.svg	32	yes	57	0	602
6.6.1	win	2022-11-07	14:40:28	14:48:50	499596	6307a60f9142d2c42021840d	95006484	1	main_slash	11	main_slash	135	stimuli_distractor_trianglediamonds.svg	stimuli_distractor_trianglediamonds.svg	33	no	0	1	2000
6.6.1	win	2022-11-07	14:40:28	14:48:50	499596	6307a60f9142d2c42021840d	95006484	1	main_slash	11	advance_on_keypress_SLASH	136	stimuli_distractor_trianglediamonds.svg	stimuli_distractor_trianglediamonds.svg	33	no	57	0	402
6.6.1	win	2022-11-07	14:40:28	14:48:52	501084	6307a60f9142d2c42021840d	95006484	1	main_slash	11	main_slash	137	stimuli_distractor_diamondtriangles.svg	stimuli_target_squarediamonds.svg	16	yes	53	1	442
6.6.1	win	2022-11-07	14:40:28	14:48:52	501084	6307a60f9142d2c42021840d	95006484	1	main_slash	11	advance_on_keypress_SLASH	138	stimuli_distractor_diamondtriangles.svg	stimuli_target_squarediamonds.svg	16	yes	57	0	356
6.6.1	win	2022-11-07	14:40:28	14:48:53	502668	6307a60f9142d2c42021840d	95006484	1	main_slash	11	main_slash	139	stimuli_target_trianglesquares.svg	stimuli_distractor_diamondtriangles.svg	22	yes	53	1	592
6.6.1	win	2022-11-07	14:40:28	14:48:53	502668	6307a60f9142d2c42021840d	95006484	1	main_slash	11	advance_on_keypress_SLASH	140	stimuli_target_trianglesquares.svg	stimuli_distractor_diamondtriangles.svg	22	yes	57	0	408
6.6.1	win	2022-11-07	14:40:28	14:48:55	504221	6307a60f9142d2c42021840d	95006484	1	main_slash	11	main_slash	141	stimuli_target_diamondsquares.svg	stimuli_distractor_diamondtriangles.svg	24	yes	53	1	504
6.6.1	win	2022-11-07	14:40:28	14:48:55	504221	6307a60f9142d2c42021840d	95006484	1	main_slash	11	advance_on_keypress_SLASH	142	stimuli_target_diamondsquares.svg	stimuli_distractor_diamondtriangles.svg	24	yes	57	0	303
6.6.1	win	2022-11-07	14:40:28	14:48:56	505663	6307a60f9142d2c42021840d	95006484	1	main_slash	11	main_slash	143	stimuli_distractor_trianglediamonds.svg	stimuli_target_squarediamonds.svg	12	yes	53	1	491
6.6.1	win	2022-11-07	14:40:28	14:48:56	505663	6307a60f9142d2c42021840d	95006484	1	main_slash	11	advance_on_keypress_SLASH	144	stimuli_distractor_trianglediamonds.svg	stimuli_target_squarediamonds.svg	12	yes	57	0	355
6.6.1	win	2022-11-07	14:40:28	14:48:59	508654	6307a60f9142d2c42021840d	95006484	1	main_slash	11	main_slash	145	stimuli_distractor_trianglediamonds.svg	stimuli_distractor_diamondtriangles.svg	35	no	0	1	2000
6.6.1	win	2022-11-07	14:40:28	14:48:59	508654	6307a60f9142d2c42021840d	95006484	1	main_slash	11	advance_on_keypress_SLASH	146	stimuli_distractor_trianglediamonds.svg	stimuli_distractor_diamondtriangles.svg	35	no	57	0	299
6.6.1	win	2022-11-07	14:40:28	14:49:01	509989	6307a60f9142d2c42021840d	95006484	1	main_slash	11	main_slash	147	stimuli_target_squarediamonds.svg	stimuli_distractor_trianglediamonds.svg	4	yes	53	1	388
6.6.1	win	2022-11-07	14:40:28	14:49:01	509989	6307a60f9142d2c42021840d	95006484	1	main_slash	11	advance_on_keypress_SLASH	148	stimuli_target_squarediamonds.svg	stimuli_distractor_trianglediamonds.svg	4	yes	57	0	341
6.6.1	win	2022-11-07	14:40:28	14:49:02	511462	6307a60f9142d2c42021840d	95006484	1	main_slash	11	main_slash	149	stimuli_distractor_diamondtriangles.svg	stimuli_target_diamondcircles.svg	31	yes	53	1	495
6.6.1	win	2022-11-07	14:40:28	14:49:02	511462	6307a60f9142d2c42021840d	95006484	1	main_slash	11	advance_on_keypress_SLASH	150	stimuli_distractor_diamondtriangles.svg	stimuli_target_diamondcircles.svg	31	yes	57	0	1745
6.6.1	win	2022-11-07	14:40:28	14:49:05	514212	6307a60f9142d2c42021840d	95006484	1	main_slash	11	main_slash	151	stimuli_distractor_trianglediamonds.svg	stimuli_distractor_diamondtriangles.svg	36	no	53	0	347
6.6.1	win	2022-11-07	14:40:28	14:49:05	514212	6307a60f9142d2c42021840d	95006484	1	main_slash	11	advance_on_keypress_SLASH	152	stimuli_distractor_trianglediamonds.svg	stimuli_distractor_diamondtriangles.svg	36	no	57	0	423
6.6.1	win	2022-11-07	14:40:28	14:49:08	517280	6307a60f9142d2c42021840d	95006484	1	main_slash	11	main_slash	153	stimuli_distractor_trianglediamonds.svg	stimuli_target_trianglecircles.svg	25	yes	0	0	2000
6.6.1	win	2022-11-07	14:40:28	14:49:08	517280	6307a60f9142d2c42021840d	95006484	1	main_slash	11	advance_on_keypress_SLASH	154	stimuli_distractor_trianglediamonds.svg	stimuli_target_trianglecircles.svg	25	yes	57	0	280
6.6.1	win	2022-11-07	14:40:28	14:49:11	520211	6307a60f9142d2c42021840d	95006484	1	main_slash	11	main_slash	155	stimuli_distractor_diamondtriangles.svg	stimuli_distractor_trianglediamonds.svg	38	no	0	1	2000
6.6.1	win	2022-11-07	14:40:28	14:49:11	520211	6307a60f9142d2c42021840d	95006484	1	main_slash	11	advance_on_keypress_SLASH	156	stimuli_distractor_diamondtriangles.svg	stimuli_distractor_trianglediamonds.svg	38	no	57	0	406
6.6.1	win	2022-11-07	14:40:28	14:49:14	523258	6307a60f9142d2c42021840d	95006484	1	main_slash	11	main_slash	157	stimuli_distractor_diamondtriangles.svg	stimuli_distractor_diamondtriangles.svg	40	no	0	1	2000
6.6.1	win	2022-11-07	14:40:28	14:49:14	523258	6307a60f9142d2c42021840d	95006484	1	main_slash	11	advance_on_keypress_SLASH	158	stimuli_distractor_diamondtriangles.svg	stimuli_distractor_diamondtriangles.svg	40	no	57	0	262
6.6.1	win	2022-11-07	14:40:28	14:49:15	524559	6307a60f9142d2c42021840d	95006484	1	main_slash	11	main_slash	159	stimuli_target_diamondcircles.svg	stimuli_distractor_trianglediamonds.svg	19	yes	53	1	388
6.6.1	win	2022-11-07	14:40:28	14:49:15	524559	6307a60f9142d2c42021840d	95006484	1	main_slash	11	advance_on_keypress_SLASH	160	stimuli_target_diamondcircles.svg	stimuli_distractor_trianglediamonds.svg	19	yes	57	0	372