build	computer.platform	date	time	timestamp	time_elapsed_ms	subject	group	session	blockcode	blocknum	trialcode	trialnum	stimulus_left	stimulus_right	stim_index	target_present	response	correct	latency
6.6.1	mac	2022-12-14	19:15:42	19:21:32	348059	62e0c93d54972f434349eda3	16919031	1	practice_slash	5	practice_slash	1	stimuli_distractor_trianglediamonds.svg	stimuli_distractor_diamondtriangles.svg	16	no	0	1	2000
6.6.1	mac	2022-12-14	19:15:42	19:21:32	348059	62e0c93d54972f434349eda3	16919031	1	practice_slash	5	advance_on_keypress_SLASH	2	stimuli_distractor_trianglediamonds.svg	stimuli_distractor_diamondtriangles.svg	16	no	57	0	1746
6.6.1	mac	2022-12-14	19:15:42	19:21:37	353454	62e0c93d54972f434349eda3	16919031	1	practice_slash	5	practice_slash	3	stimuli_distractor_trianglediamonds.svg	stimuli_target_squarediamonds.svg	11	yes	0	0	2000
6.6.1	mac	2022-12-14	19:15:42	19:21:37	353454	62e0c93d54972f434349eda3	16919031	1	practice_slash	5	advance_on_keypress_SLASH	4	stimuli_distractor_trianglediamonds.svg	stimuli_target_squarediamonds.svg	11	yes	57	0	368
6.6.1	mac	2022-12-14	19:15:42	19:21:40	356640	62e0c93d54972f434349eda3	16919031	1	practice_slash	5	practice_slash	5	stimuli_target_squarediamonds.svg	stimuli_distractor_trianglediamonds.svg	5	yes	53	1	1176
6.6.1	mac	2022-12-14	19:15:42	19:21:40	356640	62e0c93d54972f434349eda3	16919031	1	practice_slash	5	advance_on_keypress_SLASH	6	stimuli_target_squarediamonds.svg	stimuli_distractor_trianglediamonds.svg	5	yes	57	0	3066
6.6.1	mac	2022-12-14	19:15:42	19:21:47	363343	62e0c93d54972f434349eda3	16919031	1	practice_slash	5	practice_slash	7	stimuli_distractor_diamondtriangles.svg	stimuli_distractor_diamondtriangles.svg	13	no	0	1	2000
6.6.1	mac	2022-12-14	19:15:42	19:21:47	363343	62e0c93d54972f434349eda3	16919031	1	practice_slash	5	advance_on_keypress_SLASH	8	stimuli_distractor_diamondtriangles.svg	stimuli_distractor_diamondtriangles.svg	13	no	57	0	424
6.6.1	mac	2022-12-14	19:15:42	19:21:51	367395	62e0c93d54972f434349eda3	16919031	1	practice_slash	5	practice_slash	9	stimuli_distractor_trianglediamonds.svg	stimuli_distractor_trianglediamonds.svg	15	no	0	1	2000
6.6.1	mac	2022-12-14	19:15:42	19:21:51	367395	62e0c93d54972f434349eda3	16919031	1	practice_slash	5	advance_on_keypress_SLASH	10	stimuli_distractor_trianglediamonds.svg	stimuli_distractor_trianglediamonds.svg	15	no	57	0	12543
6.6.1	mac	2022-12-14	19:15:42	19:22:06	382461	62e0c93d54972f434349eda3	16919031	1	practice_slash	5	practice_slash	11	stimuli_target_circlediamonds.svg	stimuli_distractor_trianglediamonds.svg	4	yes	53	1	869
6.6.1	mac	2022-12-14	19:15:42	19:22:06	382461	62e0c93d54972f434349eda3	16919031	1	practice_slash	5	advance_on_keypress_SLASH	12	stimuli_target_circlediamonds.svg	stimuli_distractor_trianglediamonds.svg	4	yes	57	0	1597
6.6.1	mac	2022-12-14	19:15:42	19:22:10	386629	62e0c93d54972f434349eda3	16919031	1	practice_slash	5	practice_slash	13	stimuli_distractor_trianglediamonds.svg	stimuli_target_circlediamonds.svg	10	yes	53	1	926
6.6.1	mac	2022-12-14	19:15:42	19:22:10	386629	62e0c93d54972f434349eda3	16919031	1	practice_slash	5	advance_on_keypress_SLASH	14	stimuli_distractor_trianglediamonds.svg	stimuli_target_circlediamonds.svg	10	yes	57	0	510
6.6.1	mac	2022-12-14	19:15:42	19:22:14	390760	62e0c93d54972f434349eda3	16919031	1	practice_slash	5	practice_slash	15	stimuli_distractor_diamondtriangles.svg	stimuli_distractor_trianglediamonds.svg	14	no	0	1	2000
6.6.1	mac	2022-12-14	19:15:42	19:22:14	390760	62e0c93d54972f434349eda3	16919031	1	practice_slash	5	advance_on_keypress_SLASH	16	stimuli_distractor_diamondtriangles.svg	stimuli_distractor_trianglediamonds.svg	14	no	57	0	430
6.6.1	mac	2022-12-14	19:15:42	19:22:18	393944	62e0c93d54972f434349eda3	16919031	1	practice_slash	5	practice_slash	17	stimuli_distractor_diamondtriangles.svg	stimuli_target_diamondcircles.svg	8	yes	53	1	1113
6.6.1	mac	2022-12-14	19:15:42	19:22:18	393944	62e0c93d54972f434349eda3	16919031	1	practice_slash	5	advance_on_keypress_SLASH	18	stimuli_distractor_diamondtriangles.svg	stimuli_target_diamondcircles.svg	8	yes	57	0	381
6.6.1	mac	2022-12-14	19:15:42	19:22:21	397111	62e0c93d54972f434349eda3	16919031	1	practice_slash	5	practice_slash	19	stimuli_distractor_trianglediamonds.svg	stimuli_target_diamondcircles.svg	12	yes	53	1	1160
6.6.1	mac	2022-12-14	19:15:42	19:22:21	397111	62e0c93d54972f434349eda3	16919031	1	practice_slash	5	advance_on_keypress_SLASH	20	stimuli_distractor_trianglediamonds.svg	stimuli_target_diamondcircles.svg	12	yes	57	0	130
6.6.1	mac	2022-12-14	19:15:42	19:22:24	400071	62e0c93d54972f434349eda3	16919031	1	practice_slash	5	practice_slash	21	stimuli_distractor_diamondtriangles.svg	stimuli_target_circletriangles.svg	7	yes	53	1	1210
6.6.1	mac	2022-12-14	19:15:42	19:22:24	400071	62e0c93d54972f434349eda3	16919031	1	practice_slash	5	advance_on_keypress_SLASH	22	stimuli_distractor_diamondtriangles.svg	stimuli_target_circletriangles.svg	7	yes	57	0	363
6.6.1	mac	2022-12-14	19:15:42	19:22:27	402850	62e0c93d54972f434349eda3	16919031	1	practice_slash	5	practice_slash	23	stimuli_target_squarediamonds.svg	stimuli_distractor_diamondtriangles.svg	2	yes	53	1	772
6.6.1	mac	2022-12-14	19:15:42	19:22:27	402850	62e0c93d54972f434349eda3	16919031	1	practice_slash	5	advance_on_keypress_SLASH	24	stimuli_target_squarediamonds.svg	stimuli_distractor_diamondtriangles.svg	2	yes	57	0	356
6.6.1	mac	2022-12-14	19:15:42	19:22:29	405674	62e0c93d54972f434349eda3	16919031	1	practice_slash	5	practice_slash	25	stimuli_distractor_diamondtriangles.svg	stimuli_target_trianglecircles.svg	9	yes	53	1	838
6.6.1	mac	2022-12-14	19:15:42	19:22:29	405674	62e0c93d54972f434349eda3	16919031	1	practice_slash	5	advance_on_keypress_SLASH	26	stimuli_distractor_diamondtriangles.svg	stimuli_target_trianglecircles.svg	9	yes	57	0	3498
6.6.1	mac	2022-12-14	19:15:42	19:22:35	411835	62e0c93d54972f434349eda3	16919031	1	practice_slash	5	practice_slash	27	stimuli_target_circlediamonds.svg	stimuli_distractor_diamondtriangles.svg	1	yes	53	1	1027
6.6.1	mac	2022-12-14	19:15:42	19:22:35	411835	62e0c93d54972f434349eda3	16919031	1	practice_slash	5	advance_on_keypress_SLASH	28	stimuli_target_circlediamonds.svg	stimuli_distractor_diamondtriangles.svg	1	yes	57	0	606
6.6.1	mac	2022-12-14	19:15:42	19:22:40	415972	62e0c93d54972f434349eda3	16919031	1	practice_slash	5	practice_slash	29	stimuli_target_diamondsquares.svg	stimuli_distractor_trianglediamonds.svg	6	yes	53	1	1881
6.6.1	mac	2022-12-14	19:15:42	19:22:40	415972	62e0c93d54972f434349eda3	16919031	1	practice_slash	5	advance_on_keypress_SLASH	30	stimuli_target_diamondsquares.svg	stimuli_distractor_trianglediamonds.svg	6	yes	57	0	1404
6.6.1	mac	2022-12-14	19:15:42	19:22:44	419897	62e0c93d54972f434349eda3	16919031	1	practice_slash	5	practice_slash	31	stimuli_target_diamondsquares.svg	stimuli_distractor_diamondtriangles.svg	3	yes	53	1	886
6.6.1	mac	2022-12-14	19:15:42	19:22:44	419897	62e0c93d54972f434349eda3	16919031	1	practice_slash	5	advance_on_keypress_SLASH	32	stimuli_target_diamondsquares.svg	stimuli_distractor_diamondtriangles.svg	3	yes	57	0	324
6.6.1	mac	2022-12-14	19:15:42	19:23:55	491521	62e0c93d54972f434349eda3	16919031	1	main_slash	7	main_slash	1	stimuli_target_circlediamonds.svg	stimuli_distractor_trianglediamonds.svg	2	yes	53	1	450
6.6.1	mac	2022-12-14	19:15:42	19:23:55	491521	62e0c93d54972f434349eda3	16919031	1	main_slash	7	advance_on_keypress_SLASH	2	stimuli_target_circlediamonds.svg	stimuli_distractor_trianglediamonds.svg	2	yes	57	0	1317
6.6.1	mac	2022-12-14	19:15:42	19:23:58	494417	62e0c93d54972f434349eda3	16919031	1	main_slash	7	main_slash	3	stimuli_distractor_diamondtriangles.svg	stimuli_target_diamondsquares.svg	32	yes	53	1	957
6.6.1	mac	2022-12-14	19:15:42	19:23:58	494417	62e0c93d54972f434349eda3	16919031	1	main_slash	7	advance_on_keypress_SLASH	4	stimuli_distractor_diamondtriangles.svg	stimuli_target_diamondsquares.svg	32	yes	57	0	852
6.6.1	mac	2022-12-14	19:15:42	19:24:00	496632	62e0c93d54972f434349eda3	16919031	1	main_slash	7	main_slash	5	stimuli_distractor_diamondtriangles.svg	stimuli_target_circlediamonds.svg	14	yes	53	1	733
6.6.1	mac	2022-12-14	19:15:42	19:24:00	496632	62e0c93d54972f434349eda3	16919031	1	main_slash	7	advance_on_keypress_SLASH	6	stimuli_distractor_diamondtriangles.svg	stimuli_target_circlediamonds.svg	14	yes	57	0	872
6.6.1	mac	2022-12-14	19:15:42	19:24:02	498697	62e0c93d54972f434349eda3	16919031	1	main_slash	7	main_slash	7	stimuli_distractor_diamondtriangles.svg	stimuli_target_circletriangles.svg	13	yes	53	1	562
6.6.1	mac	2022-12-14	19:15:42	19:24:02	498697	62e0c93d54972f434349eda3	16919031	1	main_slash	7	advance_on_keypress_SLASH	8	stimuli_distractor_diamondtriangles.svg	stimuli_target_circletriangles.svg	13	yes	57	0	614
6.6.1	mac	2022-12-14	19:15:42	19:24:05	501033	62e0c93d54972f434349eda3	16919031	1	main_slash	7	main_slash	9	stimuli_distractor_trianglediamonds.svg	stimuli_target_diamondcircles.svg	27	yes	53	1	1100
6.6.1	mac	2022-12-14	19:15:42	19:24:05	501033	62e0c93d54972f434349eda3	16919031	1	main_slash	7	advance_on_keypress_SLASH	10	stimuli_distractor_trianglediamonds.svg	stimuli_target_diamondcircles.svg	27	yes	57	0	934
6.6.1	mac	2022-12-14	19:15:42	19:24:07	503585	62e0c93d54972f434349eda3	16919031	1	main_slash	7	main_slash	11	stimuli_distractor_diamondtriangles.svg	stimuli_target_diamondcircles.svg	31	yes	53	1	981
6.6.1	mac	2022-12-14	19:15:42	19:24:07	503585	62e0c93d54972f434349eda3	16919031	1	main_slash	7	advance_on_keypress_SLASH	12	stimuli_distractor_diamondtriangles.svg	stimuli_target_diamondcircles.svg	31	yes	57	0	586
6.6.1	mac	2022-12-14	19:15:42	19:24:09	505672	62e0c93d54972f434349eda3	16919031	1	main_slash	7	main_slash	13	stimuli_distractor_trianglediamonds.svg	stimuli_target_squaretriangles.svg	11	yes	53	1	862
6.6.1	mac	2022-12-14	19:15:42	19:24:09	505672	62e0c93d54972f434349eda3	16919031	1	main_slash	7	advance_on_keypress_SLASH	14	stimuli_distractor_trianglediamonds.svg	stimuli_target_squaretriangles.svg	11	yes	57	0	426
6.6.1	mac	2022-12-14	19:15:42	19:24:12	508728	62e0c93d54972f434349eda3	16919031	1	main_slash	7	main_slash	15	stimuli_distractor_trianglediamonds.svg	stimuli_distractor_diamondtriangles.svg	36	no	0	1	2000
6.6.1	mac	2022-12-14	19:15:42	19:24:12	508728	62e0c93d54972f434349eda3	16919031	1	main_slash	7	advance_on_keypress_SLASH	16	stimuli_distractor_trianglediamonds.svg	stimuli_distractor_diamondtriangles.svg	36	no	57	0	467
6.6.1	mac	2022-12-14	19:15:42	19:24:14	510527	62e0c93d54972f434349eda3	16919031	1	main_slash	7	main_slash	17	stimuli_target_circletriangles.svg	stimuli_distractor_diamondtriangles.svg	5	yes	53	1	707
6.6.1	mac	2022-12-14	19:15:42	19:24:14	510527	62e0c93d54972f434349eda3	16919031	1	main_slash	7	advance_on_keypress_SLASH	18	stimuli_target_circletriangles.svg	stimuli_distractor_diamondtriangles.svg	5	yes	57	0	1062
6.6.1	mac	2022-12-14	19:15:42	19:24:17	513056	62e0c93d54972f434349eda3	16919031	1	main_slash	7	main_slash	19	stimuli_target_squaretriangles.svg	stimuli_distractor_diamondtriangles.svg	7	yes	53	1	829
6.6.1	mac	2022-12-14	19:15:42	19:24:17	513056	62e0c93d54972f434349eda3	16919031	1	main_slash	7	advance_on_keypress_SLASH	20	stimuli_target_squaretriangles.svg	stimuli_distractor_diamondtriangles.svg	7	yes	57	0	571
6.6.1	mac	2022-12-14	19:15:42	19:24:19	515144	62e0c93d54972f434349eda3	16919031	1	main_slash	7	main_slash	21	stimuli_distractor_trianglediamonds.svg	stimuli_target_trianglecircles.svg	25	yes	53	1	887
6.6.1	mac	2022-12-14	19:15:42	19:24:19	515144	62e0c93d54972f434349eda3	16919031	1	main_slash	7	advance_on_keypress_SLASH	22	stimuli_distractor_trianglediamonds.svg	stimuli_target_trianglecircles.svg	25	yes	57	0	517
6.6.1	mac	2022-12-14	19:15:42	19:24:22	518281	62e0c93d54972f434349eda3	16919031	1	main_slash	7	main_slash	23	stimuli_distractor_trianglediamonds.svg	stimuli_distractor_trianglediamonds.svg	34	no	0	1	2000
6.6.1	mac	2022-12-14	19:15:42	19:24:22	518281	62e0c93d54972f434349eda3	16919031	1	main_slash	7	advance_on_keypress_SLASH	24	stimuli_distractor_trianglediamonds.svg	stimuli_distractor_trianglediamonds.svg	34	no	57	0	436
6.6.1	mac	2022-12-14	19:15:42	19:24:24	520209	62e0c93d54972f434349eda3	16919031	1	main_slash	7	main_slash	25	stimuli_target_diamondcircles.svg	stimuli_distractor_diamondtriangles.svg	23	yes	53	1	864
6.6.1	mac	2022-12-14	19:15:42	19:24:24	520209	62e0c93d54972f434349eda3	16919031	1	main_slash	7	advance_on_keypress_SLASH	26	stimuli_target_diamondcircles.svg	stimuli_distractor_diamondtriangles.svg	23	yes	57	0	798
6.6.1	mac	2022-12-14	19:15:42	19:24:26	522368	62e0c93d54972f434349eda3	16919031	1	main_slash	7	main_slash	27	stimuli_target_squarediamonds.svg	stimuli_distractor_diamondtriangles.svg	8	yes	53	1	736
6.6.1	mac	2022-12-14	19:15:42	19:24:26	522368	62e0c93d54972f434349eda3	16919031	1	main_slash	7	advance_on_keypress_SLASH	28	stimuli_target_squarediamonds.svg	stimuli_distractor_diamondtriangles.svg	8	yes	57	0	443
6.6.1	mac	2022-12-14	19:15:42	19:24:28	524203	62e0c93d54972f434349eda3	16919031	1	main_slash	7	main_slash	29	stimuli_target_squaretriangles.svg	stimuli_distractor_trianglediamonds.svg	3	yes	53	1	764
6.6.1	mac	2022-12-14	19:15:42	19:24:28	524203	62e0c93d54972f434349eda3	16919031	1	main_slash	7	advance_on_keypress_SLASH	30	stimuli_target_squaretriangles.svg	stimuli_distractor_trianglediamonds.svg	3	yes	57	0	333
6.6.1	mac	2022-12-14	19:15:42	19:24:30	526149	62e0c93d54972f434349eda3	16919031	1	main_slash	7	main_slash	31	stimuli_distractor_diamondtriangles.svg	stimuli_target_trianglesquares.svg	30	yes	53	1	983
6.6.1	mac	2022-12-14	19:15:42	19:24:30	526149	62e0c93d54972f434349eda3	16919031	1	main_slash	7	advance_on_keypress_SLASH	32	stimuli_distractor_diamondtriangles.svg	stimuli_target_trianglesquares.svg	30	yes	57	0	439
6.6.1	mac	2022-12-14	19:15:42	19:24:31	527840	62e0c93d54972f434349eda3	16919031	1	main_slash	7	main_slash	33	stimuli_target_squarediamonds.svg	stimuli_distractor_trianglediamonds.svg	4	yes	53	1	624
6.6.1	mac	2022-12-14	19:15:42	19:24:31	527840	62e0c93d54972f434349eda3	16919031	1	main_slash	7	advance_on_keypress_SLASH	34	stimuli_target_squarediamonds.svg	stimuli_distractor_trianglediamonds.svg	4	yes	57	0	445
6.6.1	mac	2022-12-14	19:15:42	19:24:33	529813	62e0c93d54972f434349eda3	16919031	1	main_slash	7	main_slash	35	stimuli_target_trianglecircles.svg	stimuli_distractor_diamondtriangles.svg	21	yes	53	1	896
6.6.1	mac	2022-12-14	19:15:42	19:24:33	529813	62e0c93d54972f434349eda3	16919031	1	main_slash	7	advance_on_keypress_SLASH	36	stimuli_target_trianglecircles.svg	stimuli_distractor_diamondtriangles.svg	21	yes	57	0	415
6.6.1	mac	2022-12-14	19:15:42	19:24:36	531940	62e0c93d54972f434349eda3	16919031	1	main_slash	7	main_slash	37	stimuli_target_diamondsquares.svg	stimuli_distractor_trianglediamonds.svg	20	yes	53	1	1092
6.6.1	mac	2022-12-14	19:15:42	19:24:36	531940	62e0c93d54972f434349eda3	16919031	1	main_slash	7	advance_on_keypress_SLASH	38	stimuli_target_diamondsquares.svg	stimuli_distractor_trianglediamonds.svg	20	yes	57	0	367
6.6.1	mac	2022-12-14	19:15:42	19:24:37	533792	62e0c93d54972f434349eda3	16919031	1	main_slash	7	main_slash	39	stimuli_distractor_trianglediamonds.svg	stimuli_target_trianglesquares.svg	26	yes	53	1	863
6.6.1	mac	2022-12-14	19:15:42	19:24:37	533792	62e0c93d54972f434349eda3	16919031	1	main_slash	7	advance_on_keypress_SLASH	40	stimuli_distractor_trianglediamonds.svg	stimuli_target_trianglesquares.svg	26	yes	57	0	373
6.6.1	mac	2022-12-14	19:15:42	19:24:39	535667	62e0c93d54972f434349eda3	16919031	1	main_slash	7	main_slash	41	stimuli_target_trianglecircles.svg	stimuli_distractor_trianglediamonds.svg	17	yes	53	1	877
6.6.1	mac	2022-12-14	19:15:42	19:24:39	535667	62e0c93d54972f434349eda3	16919031	1	main_slash	7	advance_on_keypress_SLASH	42	stimuli_target_trianglecircles.svg	stimuli_distractor_trianglediamonds.svg	17	yes	57	0	460
6.6.1	mac	2022-12-14	19:15:42	19:24:42	538753	62e0c93d54972f434349eda3	16919031	1	main_slash	7	main_slash	43	stimuli_distractor_diamondtriangles.svg	stimuli_distractor_trianglediamonds.svg	37	no	0	1	2000
6.6.1	mac	2022-12-14	19:15:42	19:24:42	538753	62e0c93d54972f434349eda3	16919031	1	main_slash	7	advance_on_keypress_SLASH	44	stimuli_distractor_diamondtriangles.svg	stimuli_distractor_trianglediamonds.svg	37	no	57	0	840
6.6.1	mac	2022-12-14	19:15:42	19:24:45	541015	62e0c93d54972f434349eda3	16919031	1	main_slash	7	main_slash	45	stimuli_target_circlediamonds.svg	stimuli_distractor_diamondtriangles.svg	6	yes	53	1	791
6.6.1	mac	2022-12-14	19:15:42	19:24:45	541015	62e0c93d54972f434349eda3	16919031	1	main_slash	7	advance_on_keypress_SLASH	46	stimuli_target_circlediamonds.svg	stimuli_distractor_diamondtriangles.svg	6	yes	57	0	734
6.6.1	mac	2022-12-14	19:15:42	19:24:48	544387	62e0c93d54972f434349eda3	16919031	1	main_slash	7	main_slash	47	stimuli_distractor_diamondtriangles.svg	stimuli_distractor_trianglediamonds.svg	38	no	0	1	2000
6.6.1	mac	2022-12-14	19:15:42	19:24:48	544387	62e0c93d54972f434349eda3	16919031	1	main_slash	7	advance_on_keypress_SLASH	48	stimuli_distractor_diamondtriangles.svg	stimuli_distractor_trianglediamonds.svg	38	no	57	0	887
6.6.1	mac	2022-12-14	19:15:42	19:24:52	547898	62e0c93d54972f434349eda3	16919031	1	main_slash	7	main_slash	49	stimuli_distractor_diamondtriangles.svg	stimuli_distractor_diamondtriangles.svg	39	no	0	1	2000
6.6.1	mac	2022-12-14	19:15:42	19:24:52	547898	62e0c93d54972f434349eda3	16919031	1	main_slash	7	advance_on_keypress_SLASH	50	stimuli_distractor_diamondtriangles.svg	stimuli_distractor_diamondtriangles.svg	39	no	57	0	8982
6.6.1	mac	2022-12-14	19:15:42	19:25:02	558278	62e0c93d54972f434349eda3	16919031	1	main_slash	7	main_slash	51	stimuli_target_diamondcircles.svg	stimuli_distractor_trianglediamonds.svg	19	yes	53	1	763
6.6.1	mac	2022-12-14	19:15:42	19:25:02	558278	62e0c93d54972f434349eda3	16919031	1	main_slash	7	advance_on_keypress_SLASH	52	stimuli_target_diamondcircles.svg	stimuli_distractor_trianglediamonds.svg	19	yes	57	0	452
6.6.1	mac	2022-12-14	19:15:42	19:25:05	561363	62e0c93d54972f434349eda3	16919031	1	main_slash	7	main_slash	53	stimuli_distractor_trianglediamonds.svg	stimuli_distractor_diamondtriangles.svg	35	no	0	1	2000
6.6.1	mac	2022-12-14	19:15:42	19:25:05	561363	62e0c93d54972f434349eda3	16919031	1	main_slash	7	advance_on_keypress_SLASH	54	stimuli_distractor_trianglediamonds.svg	stimuli_distractor_diamondtriangles.svg	35	no	57	0	641
6.6.1	mac	2022-12-14	19:15:42	19:25:07	563425	62e0c93d54972f434349eda3	16919031	1	main_slash	7	main_slash	55	stimuli_distractor_diamondtriangles.svg	stimuli_target_squarediamonds.svg	16	yes	53	1	779
6.6.1	mac	2022-12-14	19:15:42	19:25:07	563425	62e0c93d54972f434349eda3	16919031	1	main_slash	7	advance_on_keypress_SLASH	56	stimuli_distractor_diamondtriangles.svg	stimuli_target_squarediamonds.svg	16	yes	57	0	469
6.6.1	mac	2022-12-14	19:15:42	19:25:09	565246	62e0c93d54972f434349eda3	16919031	1	main_slash	7	main_slash	57	stimuli_distractor_diamondtriangles.svg	stimuli_target_trianglecircles.svg	29	yes	53	1	720
6.6.1	mac	2022-12-14	19:15:42	19:25:09	565246	62e0c93d54972f434349eda3	16919031	1	main_slash	7	advance_on_keypress_SLASH	58	stimuli_distractor_diamondtriangles.svg	stimuli_target_trianglecircles.svg	29	yes	57	0	369
6.6.1	mac	2022-12-14	19:15:42	19:25:11	566976	62e0c93d54972f434349eda3	16919031	1	main_slash	7	main_slash	59	stimuli_target_trianglesquares.svg	stimuli_distractor_diamondtriangles.svg	22	yes	53	1	718
6.6.1	mac	2022-12-14	19:15:42	19:25:11	566976	62e0c93d54972f434349eda3	16919031	1	main_slash	7	advance_on_keypress_SLASH	60	stimuli_target_trianglesquares.svg	stimuli_distractor_diamondtriangles.svg	22	yes	57	0	343
6.6.1	mac	2022-12-14	19:15:42	19:25:12	568542	62e0c93d54972f434349eda3	16919031	1	main_slash	7	main_slash	61	stimuli_distractor_diamondtriangles.svg	stimuli_target_squaretriangles.svg	15	yes	53	1	602
6.6.1	mac	2022-12-14	19:15:42	19:25:12	568542	62e0c93d54972f434349eda3	16919031	1	main_slash	7	advance_on_keypress_SLASH	62	stimuli_distractor_diamondtriangles.svg	stimuli_target_squaretriangles.svg	15	yes	57	0	341
6.6.1	mac	2022-12-14	19:15:42	19:25:14	569988	62e0c93d54972f434349eda3	16919031	1	main_slash	7	main_slash	63	stimuli_distractor_trianglediamonds.svg	stimuli_target_squarediamonds.svg	12	yes	53	1	484
6.6.1	mac	2022-12-14	19:15:42	19:25:14	569988	62e0c93d54972f434349eda3	16919031	1	main_slash	7	advance_on_keypress_SLASH	64	stimuli_distractor_trianglediamonds.svg	stimuli_target_squarediamonds.svg	12	yes	57	0	388
6.6.1	mac	2022-12-14	19:15:42	19:25:17	573001	62e0c93d54972f434349eda3	16919031	1	main_slash	7	main_slash	65	stimuli_distractor_trianglediamonds.svg	stimuli_distractor_trianglediamonds.svg	33	no	0	1	2000
6.6.1	mac	2022-12-14	19:15:42	19:25:17	573001	62e0c93d54972f434349eda3	16919031	1	main_slash	7	advance_on_keypress_SLASH	66	stimuli_distractor_trianglediamonds.svg	stimuli_distractor_trianglediamonds.svg	33	no	57	0	347
6.6.1	mac	2022-12-14	19:15:42	19:25:20	575974	62e0c93d54972f434349eda3	16919031	1	main_slash	7	main_slash	67	stimuli_distractor_diamondtriangles.svg	stimuli_distractor_diamondtriangles.svg	40	no	0	1	2000
6.6.1	mac	2022-12-14	19:15:42	19:25:20	575974	62e0c93d54972f434349eda3	16919031	1	main_slash	7	advance_on_keypress_SLASH	68	stimuli_distractor_diamondtriangles.svg	stimuli_distractor_diamondtriangles.svg	40	no	57	0	678
6.6.1	mac	2022-12-14	19:15:42	19:25:22	578061	62e0c93d54972f434349eda3	16919031	1	main_slash	7	main_slash	69	stimuli_distractor_trianglediamonds.svg	stimuli_target_circletriangles.svg	9	yes	53	1	765
6.6.1	mac	2022-12-14	19:15:42	19:25:22	578061	62e0c93d54972f434349eda3	16919031	1	main_slash	7	advance_on_keypress_SLASH	70	stimuli_distractor_trianglediamonds.svg	stimuli_target_circletriangles.svg	9	yes	57	0	457
6.6.1	mac	2022-12-14	19:15:42	19:25:24	579953	62e0c93d54972f434349eda3	16919031	1	main_slash	7	main_slash	71	stimuli_target_diamondsquares.svg	stimuli_distractor_diamondtriangles.svg	24	yes	53	1	811
6.6.1	mac	2022-12-14	19:15:42	19:25:24	579953	62e0c93d54972f434349eda3	16919031	1	main_slash	7	advance_on_keypress_SLASH	72	stimuli_target_diamondsquares.svg	stimuli_distractor_diamondtriangles.svg	24	yes	57	0	309
6.6.1	mac	2022-12-14	19:15:42	19:25:25	581562	62e0c93d54972f434349eda3	16919031	1	main_slash	7	main_slash	73	stimuli_distractor_trianglediamonds.svg	stimuli_target_circlediamonds.svg	10	yes	53	1	666
6.6.1	mac	2022-12-14	19:15:42	19:25:25	581562	62e0c93d54972f434349eda3	16919031	1	main_slash	7	advance_on_keypress_SLASH	74	stimuli_distractor_trianglediamonds.svg	stimuli_target_circlediamonds.svg	10	yes	57	0	298
6.6.1	mac	2022-12-14	19:15:42	19:25:27	583292	62e0c93d54972f434349eda3	16919031	1	main_slash	7	main_slash	75	stimuli_target_trianglesquares.svg	stimuli_distractor_trianglediamonds.svg	18	yes	53	1	805
6.6.1	mac	2022-12-14	19:15:42	19:25:27	583292	62e0c93d54972f434349eda3	16919031	1	main_slash	7	advance_on_keypress_SLASH	76	stimuli_target_trianglesquares.svg	stimuli_distractor_trianglediamonds.svg	18	yes	57	0	293
6.6.1	mac	2022-12-14	19:15:42	19:25:29	585305	62e0c93d54972f434349eda3	16919031	1	main_slash	7	main_slash	77	stimuli_distractor_trianglediamonds.svg	stimuli_target_diamondsquares.svg	28	yes	53	1	1097
6.6.1	mac	2022-12-14	19:15:42	19:25:29	585305	62e0c93d54972f434349eda3	16919031	1	main_slash	7	advance_on_keypress_SLASH	78	stimuli_distractor_trianglediamonds.svg	stimuli_target_diamondsquares.svg	28	yes	57	0	12073
6.6.1	mac	2022-12-14	19:15:42	19:25:42	598644	62e0c93d54972f434349eda3	16919031	1	main_slash	7	main_slash	79	stimuli_target_circletriangles.svg	stimuli_distractor_trianglediamonds.svg	1	yes	53	1	624
6.6.1	mac	2022-12-14	19:15:42	19:25:42	598644	62e0c93d54972f434349eda3	16919031	1	main_slash	7	advance_on_keypress_SLASH	80	stimuli_target_circletriangles.svg	stimuli_distractor_trianglediamonds.svg	1	yes	57	0	387
6.6.1	mac	2022-12-14	19:15:42	19:25:44	600245	62e0c93d54972f434349eda3	16919031	1	main_slash	7	main_slash	81	stimuli_distractor_trianglediamonds.svg	stimuli_target_trianglecircles.svg	25	yes	53	1	591
6.6.1	mac	2022-12-14	19:15:42	19:25:44	600245	62e0c93d54972f434349eda3	16919031	1	main_slash	7	advance_on_keypress_SLASH	82	stimuli_distractor_trianglediamonds.svg	stimuli_target_trianglecircles.svg	25	yes	57	0	3652
6.6.1	mac	2022-12-14	19:15:42	19:25:50	606524	62e0c93d54972f434349eda3	16919031	1	main_slash	7	main_slash	83	stimuli_distractor_diamondtriangles.svg	stimuli_distractor_trianglediamonds.svg	37	no	0	1	2000
6.6.1	mac	2022-12-14	19:15:42	19:25:50	606524	62e0c93d54972f434349eda3	16919031	1	main_slash	7	advance_on_keypress_SLASH	84	stimuli_distractor_diamondtriangles.svg	stimuli_distractor_trianglediamonds.svg	37	no	57	0	918
6.6.1	mac	2022-12-14	19:15:42	19:25:52	608775	62e0c93d54972f434349eda3	16919031	1	main_slash	7	main_slash	85	stimuli_target_diamondsquares.svg	stimuli_distractor_diamondtriangles.svg	24	yes	53	1	713
6.6.1	mac	2022-12-14	19:15:42	19:25:52	608775	62e0c93d54972f434349eda3	16919031	1	main_slash	7	advance_on_keypress_SLASH	86	stimuli_target_diamondsquares.svg	stimuli_distractor_diamondtriangles.svg	24	yes	57	0	419
6.6.1	mac	2022-12-14	19:15:42	19:25:54	610718	62e0c93d54972f434349eda3	16919031	1	main_slash	7	main_slash	87	stimuli_distractor_diamondtriangles.svg	stimuli_target_trianglesquares.svg	30	yes	53	1	900
6.6.1	mac	2022-12-14	19:15:42	19:25:54	610718	62e0c93d54972f434349eda3	16919031	1	main_slash	7	advance_on_keypress_SLASH	88	stimuli_distractor_diamondtriangles.svg	stimuli_target_trianglesquares.svg	30	yes	57	0	600
6.6.1	mac	2022-12-14	19:15:42	19:25:56	612699	62e0c93d54972f434349eda3	16919031	1	main_slash	7	main_slash	89	stimuli_target_squarediamonds.svg	stimuli_distractor_diamondtriangles.svg	8	yes	53	1	747
6.6.1	mac	2022-12-14	19:15:42	19:25:56	612699	62e0c93d54972f434349eda3	16919031	1	main_slash	7	advance_on_keypress_SLASH	90	stimuli_target_squarediamonds.svg	stimuli_distractor_diamondtriangles.svg	8	yes	57	0	561
6.6.1	mac	2022-12-14	19:15:42	19:25:58	614560	62e0c93d54972f434349eda3	16919031	1	main_slash	7	main_slash	91	stimuli_distractor_trianglediamonds.svg	stimuli_target_diamondcircles.svg	27	yes	53	1	685
6.6.1	mac	2022-12-14	19:15:42	19:25:58	614560	62e0c93d54972f434349eda3	16919031	1	main_slash	7	advance_on_keypress_SLASH	92	stimuli_distractor_trianglediamonds.svg	stimuli_target_diamondcircles.svg	27	yes	57	0	117434
6.6.1	mac	2022-12-14	19:15:42	19:27:57	733185	62e0c93d54972f434349eda3	16919031	1	main_slash	7	main_slash	93	stimuli_target_circlediamonds.svg	stimuli_distractor_diamondtriangles.svg	6	yes	53	1	548
6.6.1	mac	2022-12-14	19:15:42	19:27:57	733185	62e0c93d54972f434349eda3	16919031	1	main_slash	7	advance_on_keypress_SLASH	94	stimuli_target_circlediamonds.svg	stimuli_distractor_diamondtriangles.svg	6	yes	57	0	863
6.6.1	mac	2022-12-14	19:15:42	19:27:59	735255	62e0c93d54972f434349eda3	16919031	1	main_slash	7	main_slash	95	stimuli_distractor_trianglediamonds.svg	stimuli_target_diamondsquares.svg	28	yes	53	1	573
6.6.1	mac	2022-12-14	19:15:42	19:27:59	735255	62e0c93d54972f434349eda3	16919031	1	main_slash	7	advance_on_keypress_SLASH	96	stimuli_distractor_trianglediamonds.svg	stimuli_target_diamondsquares.svg	28	yes	57	0	474
6.6.1	mac	2022-12-14	19:15:42	19:28:01	736862	62e0c93d54972f434349eda3	16919031	1	main_slash	7	main_slash	97	stimuli_distractor_trianglediamonds.svg	stimuli_target_circlediamonds.svg	10	yes	53	1	497
6.6.1	mac	2022-12-14	19:15:42	19:28:01	736862	62e0c93d54972f434349eda3	16919031	1	main_slash	7	advance_on_keypress_SLASH	98	stimuli_distractor_trianglediamonds.svg	stimuli_target_circlediamonds.svg	10	yes	57	0	361
6.6.1	mac	2022-12-14	19:15:42	19:28:02	738468	62e0c93d54972f434349eda3	16919031	1	main_slash	7	main_slash	99	stimuli_target_trianglecircles.svg	stimuli_distractor_diamondtriangles.svg	21	yes	53	1	596
6.6.1	mac	2022-12-14	19:15:42	19:28:02	738468	62e0c93d54972f434349eda3	16919031	1	main_slash	7	advance_on_keypress_SLASH	100	stimuli_target_trianglecircles.svg	stimuli_distractor_diamondtriangles.svg	21	yes	57	0	509
6.6.1	mac	2022-12-14	19:15:42	19:28:04	740208	62e0c93d54972f434349eda3	16919031	1	main_slash	7	main_slash	101	stimuli_distractor_diamondtriangles.svg	stimuli_target_diamondsquares.svg	32	yes	53	1	609
6.6.1	mac	2022-12-14	19:15:42	19:28:04	740208	62e0c93d54972f434349eda3	16919031	1	main_slash	7	advance_on_keypress_SLASH	102	stimuli_distractor_diamondtriangles.svg	stimuli_target_diamondsquares.svg	32	yes	57	0	542
6.6.1	mac	2022-12-14	19:15:42	19:28:06	742014	62e0c93d54972f434349eda3	16919031	1	main_slash	7	main_slash	103	stimuli_target_circletriangles.svg	stimuli_distractor_trianglediamonds.svg	1	yes	53	1	625
6.6.1	mac	2022-12-14	19:15:42	19:28:06	742014	62e0c93d54972f434349eda3	16919031	1	main_slash	7	advance_on_keypress_SLASH	104	stimuli_target_circletriangles.svg	stimuli_distractor_trianglediamonds.svg	1	yes	57	0	542
6.6.1	mac	2022-12-14	19:15:42	19:28:09	745176	62e0c93d54972f434349eda3	16919031	1	main_slash	7	main_slash	105	stimuli_distractor_diamondtriangles.svg	stimuli_distractor_trianglediamonds.svg	38	no	0	1	2000
6.6.1	mac	2022-12-14	19:15:42	19:28:09	745176	62e0c93d54972f434349eda3	16919031	1	main_slash	7	advance_on_keypress_SLASH	106	stimuli_distractor_diamondtriangles.svg	stimuli_distractor_trianglediamonds.svg	38	no	57	0	444
6.6.1	mac	2022-12-14	19:15:42	19:28:11	746923	62e0c93d54972f434349eda3	16919031	1	main_slash	7	main_slash	107	stimuli_target_diamondcircles.svg	stimuli_distractor_trianglediamonds.svg	19	yes	53	1	667
6.6.1	mac	2022-12-14	19:15:42	19:28:11	746923	62e0c93d54972f434349eda3	16919031	1	main_slash	7	advance_on_keypress_SLASH	108	stimuli_target_diamondcircles.svg	stimuli_distractor_trianglediamonds.svg	19	yes	57	0	716
6.6.1	mac	2022-12-14	19:15:42	19:28:13	748901	62e0c93d54972f434349eda3	16919031	1	main_slash	7	main_slash	109	stimuli_target_squarediamonds.svg	stimuli_distractor_trianglediamonds.svg	4	yes	53	1	639
6.6.1	mac	2022-12-14	19:15:42	19:28:13	748901	62e0c93d54972f434349eda3	16919031	1	main_slash	7	advance_on_keypress_SLASH	110	stimuli_target_squarediamonds.svg	stimuli_distractor_trianglediamonds.svg	4	yes	57	0	2173
6.6.1	mac	2022-12-14	19:15:42	19:28:16	752246	62e0c93d54972f434349eda3	16919031	1	main_slash	7	main_slash	111	stimuli_distractor_trianglediamonds.svg	stimuli_target_circletriangles.svg	9	yes	53	1	531
6.6.1	mac	2022-12-14	19:15:42	19:28:16	752246	62e0c93d54972f434349eda3	16919031	1	main_slash	7	advance_on_keypress_SLASH	112	stimuli_distractor_trianglediamonds.svg	stimuli_target_circletriangles.svg	9	yes	57	0	839
6.6.1	mac	2022-12-14	19:15:42	19:28:18	754289	62e0c93d54972f434349eda3	16919031	1	main_slash	7	main_slash	113	stimuli_target_trianglecircles.svg	stimuli_distractor_trianglediamonds.svg	17	yes	53	1	563
6.6.1	mac	2022-12-14	19:15:42	19:28:18	754289	62e0c93d54972f434349eda3	16919031	1	main_slash	7	advance_on_keypress_SLASH	114	stimuli_target_trianglecircles.svg	stimuli_distractor_trianglediamonds.svg	17	yes	57	0	19610
6.6.1	mac	2022-12-14	19:15:42	19:28:39	775011	62e0c93d54972f434349eda3	16919031	1	main_slash	7	main_slash	115	stimuli_target_trianglesquares.svg	stimuli_distractor_trianglediamonds.svg	18	yes	53	1	475
6.6.1	mac	2022-12-14	19:15:42	19:28:39	775011	62e0c93d54972f434349eda3	16919031	1	main_slash	7	advance_on_keypress_SLASH	116	stimuli_target_trianglesquares.svg	stimuli_distractor_trianglediamonds.svg	18	yes	57	0	411
6.6.1	mac	2022-12-14	19:15:42	19:28:40	776590	62e0c93d54972f434349eda3	16919031	1	main_slash	7	main_slash	117	stimuli_target_squaretriangles.svg	stimuli_distractor_trianglediamonds.svg	3	yes	53	1	534
6.6.1	mac	2022-12-14	19:15:42	19:28:40	776590	62e0c93d54972f434349eda3	16919031	1	main_slash	7	advance_on_keypress_SLASH	118	stimuli_target_squaretriangles.svg	stimuli_distractor_trianglediamonds.svg	3	yes	57	0	325
6.6.1	mac	2022-12-14	19:15:42	19:28:42	778019	62e0c93d54972f434349eda3	16919031	1	main_slash	7	main_slash	119	stimuli_distractor_trianglediamonds.svg	stimuli_target_squaretriangles.svg	11	yes	53	1	470
6.6.1	mac	2022-12-14	19:15:42	19:28:42	778019	62e0c93d54972f434349eda3	16919031	1	main_slash	7	advance_on_keypress_SLASH	120	stimuli_distractor_trianglediamonds.svg	stimuli_target_squaretriangles.svg	11	yes	57	0	333
6.6.1	mac	2022-12-14	19:15:42	19:28:43	779374	62e0c93d54972f434349eda3	16919031	1	main_slash	7	main_slash	121	stimuli_target_circlediamonds.svg	stimuli_distractor_trianglediamonds.svg	2	yes	53	1	391
6.6.1	mac	2022-12-14	19:15:42	19:28:43	779374	62e0c93d54972f434349eda3	16919031	1	main_slash	7	advance_on_keypress_SLASH	122	stimuli_target_circlediamonds.svg	stimuli_distractor_trianglediamonds.svg	2	yes	57	0	417
6.6.1	mac	2022-12-14	19:15:42	19:28:46	782405	62e0c93d54972f434349eda3	16919031	1	main_slash	7	main_slash	123	stimuli_distractor_trianglediamonds.svg	stimuli_distractor_trianglediamonds.svg	33	no	0	1	2000
6.6.1	mac	2022-12-14	19:15:42	19:28:46	782405	62e0c93d54972f434349eda3	16919031	1	main_slash	7	advance_on_keypress_SLASH	124	stimuli_distractor_trianglediamonds.svg	stimuli_distractor_trianglediamonds.svg	33	no	57	0	244
6.6.1	mac	2022-12-14	19:15:42	19:28:47	783667	62e0c93d54972f434349eda3	16919031	1	main_slash	7	main_slash	125	stimuli_target_diamondcircles.svg	stimuli_distractor_diamondtriangles.svg	23	yes	53	1	390
6.6.1	mac	2022-12-14	19:15:42	19:28:47	783667	62e0c93d54972f434349eda3	16919031	1	main_slash	7	advance_on_keypress_SLASH	126	stimuli_target_diamondcircles.svg	stimuli_distractor_diamondtriangles.svg	23	yes	57	0	419
6.6.1	mac	2022-12-14	19:15:42	19:28:49	785173	62e0c93d54972f434349eda3	16919031	1	main_slash	7	main_slash	127	stimuli_distractor_diamondtriangles.svg	stimuli_target_diamondcircles.svg	31	yes	53	1	450
6.6.1	mac	2022-12-14	19:15:42	19:28:49	785173	62e0c93d54972f434349eda3	16919031	1	main_slash	7	advance_on_keypress_SLASH	128	stimuli_distractor_diamondtriangles.svg	stimuli_target_diamondcircles.svg	31	yes	57	0	403
6.6.1	mac	2022-12-14	19:15:42	19:28:50	786638	62e0c93d54972f434349eda3	16919031	1	main_slash	7	main_slash	129	stimuli_distractor_diamondtriangles.svg	stimuli_target_trianglecircles.svg	29	yes	53	1	417
6.6.1	mac	2022-12-14	19:15:42	19:28:50	786638	62e0c93d54972f434349eda3	16919031	1	main_slash	7	advance_on_keypress_SLASH	130	stimuli_distractor_diamondtriangles.svg	stimuli_target_trianglecircles.svg	29	yes	57	0	365
6.6.1	mac	2022-12-14	19:15:42	19:28:53	789630	62e0c93d54972f434349eda3	16919031	1	main_slash	7	main_slash	131	stimuli_distractor_trianglediamonds.svg	stimuli_distractor_diamondtriangles.svg	35	no	0	1	2000
6.6.1	mac	2022-12-14	19:15:42	19:28:53	789630	62e0c93d54972f434349eda3	16919031	1	main_slash	7	advance_on_keypress_SLASH	132	stimuli_distractor_trianglediamonds.svg	stimuli_distractor_diamondtriangles.svg	35	no	57	0	304
6.6.1	mac	2022-12-14	19:15:42	19:28:56	792566	62e0c93d54972f434349eda3	16919031	1	main_slash	7	main_slash	133	stimuli_distractor_trianglediamonds.svg	stimuli_distractor_diamondtriangles.svg	36	no	0	1	2000
6.6.1	mac	2022-12-14	19:15:42	19:28:56	792566	62e0c93d54972f434349eda3	16919031	1	main_slash	7	advance_on_keypress_SLASH	134	stimuli_distractor_trianglediamonds.svg	stimuli_distractor_diamondtriangles.svg	36	no	57	0	239
6.6.1	mac	2022-12-14	19:15:42	19:28:59	795445	62e0c93d54972f434349eda3	16919031	1	main_slash	7	main_slash	135	stimuli_distractor_diamondtriangles.svg	stimuli_distractor_diamondtriangles.svg	40	no	0	1	2000
6.6.1	mac	2022-12-14	19:15:42	19:28:59	795445	62e0c93d54972f434349eda3	16919031	1	main_slash	7	advance_on_keypress_SLASH	136	stimuli_distractor_diamondtriangles.svg	stimuli_distractor_diamondtriangles.svg	40	no	57	0	435
6.6.1	mac	2022-12-14	19:15:42	19:29:01	796987	62e0c93d54972f434349eda3	16919031	1	main_slash	7	main_slash	137	stimuli_distractor_diamondtriangles.svg	stimuli_target_squarediamonds.svg	16	yes	53	1	484
6.6.1	mac	2022-12-14	19:15:42	19:29:01	796987	62e0c93d54972f434349eda3	16919031	1	main_slash	7	advance_on_keypress_SLASH	138	stimuli_distractor_diamondtriangles.svg	stimuli_target_squarediamonds.svg	16	yes	57	0	484
6.6.1	mac	2022-12-14	19:15:42	19:29:04	800100	62e0c93d54972f434349eda3	16919031	1	main_slash	7	main_slash	139	stimuli_distractor_trianglediamonds.svg	stimuli_distractor_trianglediamonds.svg	34	no	0	1	2000
6.6.1	mac	2022-12-14	19:15:42	19:29:04	800100	62e0c93d54972f434349eda3	16919031	1	main_slash	7	advance_on_keypress_SLASH	140	stimuli_distractor_trianglediamonds.svg	stimuli_distractor_trianglediamonds.svg	34	no	57	0	257
6.6.1	mac	2022-12-14	19:15:42	19:29:05	801380	62e0c93d54972f434349eda3	16919031	1	main_slash	7	main_slash	141	stimuli_distractor_diamondtriangles.svg	stimuli_target_circletriangles.svg	13	yes	53	1	399
6.6.1	mac	2022-12-14	19:15:42	19:29:05	801380	62e0c93d54972f434349eda3	16919031	1	main_slash	7	advance_on_keypress_SLASH	142	stimuli_distractor_diamondtriangles.svg	stimuli_target_circletriangles.svg	13	yes	57	0	405
6.6.1	mac	2022-12-14	19:15:42	19:29:07	803014	62e0c93d54972f434349eda3	16919031	1	main_slash	7	main_slash	143	stimuli_target_trianglesquares.svg	stimuli_distractor_diamondtriangles.svg	22	yes	53	1	602
6.6.1	mac	2022-12-14	19:15:42	19:29:07	803014	62e0c93d54972f434349eda3	16919031	1	main_slash	7	advance_on_keypress_SLASH	144	stimuli_target_trianglesquares.svg	stimuli_distractor_diamondtriangles.svg	22	yes	57	0	568
6.6.1	mac	2022-12-14	19:15:42	19:29:09	805007	62e0c93d54972f434349eda3	16919031	1	main_slash	7	main_slash	145	stimuli_distractor_diamondtriangles.svg	stimuli_target_squaretriangles.svg	15	yes	53	1	792
6.6.1	mac	2022-12-14	19:15:42	19:29:09	805007	62e0c93d54972f434349eda3	16919031	1	main_slash	7	advance_on_keypress_SLASH	146	stimuli_distractor_diamondtriangles.svg	stimuli_target_squaretriangles.svg	15	yes	57	0	388
6.6.1	mac	2022-12-14	19:15:42	19:29:10	806487	62e0c93d54972f434349eda3	16919031	1	main_slash	7	main_slash	147	stimuli_target_circletriangles.svg	stimuli_distractor_diamondtriangles.svg	5	yes	53	1	462
6.6.1	mac	2022-12-14	19:15:42	19:29:10	806487	62e0c93d54972f434349eda3	16919031	1	main_slash	7	advance_on_keypress_SLASH	148	stimuli_target_circletriangles.svg	stimuli_distractor_diamondtriangles.svg	5	yes	57	0	12903
6.6.1	mac	2022-12-14	19:15:42	19:29:24	820468	62e0c93d54972f434349eda3	16919031	1	main_slash	7	main_slash	149	stimuli_distractor_trianglediamonds.svg	stimuli_target_squarediamonds.svg	12	yes	53	1	437
6.6.1	mac	2022-12-14	19:15:42	19:29:24	820468	62e0c93d54972f434349eda3	16919031	1	main_slash	7	advance_on_keypress_SLASH	150	stimuli_distractor_trianglediamonds.svg	stimuli_target_squarediamonds.svg	12	yes	57	0	395
6.6.1	mac	2022-12-14	19:15:42	19:29:26	822058	62e0c93d54972f434349eda3	16919031	1	main_slash	7	main_slash	151	stimuli_target_diamondsquares.svg	stimuli_distractor_trianglediamonds.svg	20	yes	53	1	558
6.6.1	mac	2022-12-14	19:15:42	19:29:26	822058	62e0c93d54972f434349eda3	16919031	1	main_slash	7	advance_on_keypress_SLASH	152	stimuli_target_diamondsquares.svg	stimuli_distractor_trianglediamonds.svg	20	yes	57	0	331
6.6.1	mac	2022-12-14	19:15:42	19:29:27	823564	62e0c93d54972f434349eda3	16919031	1	main_slash	7	main_slash	153	stimuli_distractor_trianglediamonds.svg	stimuli_target_trianglesquares.svg	26	yes	53	1	555
6.6.1	mac	2022-12-14	19:15:42	19:29:27	823564	62e0c93d54972f434349eda3	16919031	1	main_slash	7	advance_on_keypress_SLASH	154	stimuli_distractor_trianglediamonds.svg	stimuli_target_trianglesquares.svg	26	yes	57	0	333
6.6.1	mac	2022-12-14	19:15:42	19:29:30	826525	62e0c93d54972f434349eda3	16919031	1	main_slash	7	main_slash	155	stimuli_distractor_diamondtriangles.svg	stimuli_distractor_diamondtriangles.svg	39	no	0	1	2000
6.6.1	mac	2022-12-14	19:15:42	19:29:30	826525	62e0c93d54972f434349eda3	16919031	1	main_slash	7	advance_on_keypress_SLASH	156	stimuli_distractor_diamondtriangles.svg	stimuli_distractor_diamondtriangles.svg	39	no	57	0	282
6.6.1	mac	2022-12-14	19:15:42	19:29:32	827834	62e0c93d54972f434349eda3	16919031	1	main_slash	7	main_slash	157	stimuli_distractor_diamondtriangles.svg	stimuli_target_circlediamonds.svg	14	yes	53	1	398
6.6.1	mac	2022-12-14	19:15:42	19:29:32	827834	62e0c93d54972f434349eda3	16919031	1	main_slash	7	advance_on_keypress_SLASH	158	stimuli_distractor_diamondtriangles.svg	stimuli_target_circlediamonds.svg	14	yes	57	0	415
6.6.1	mac	2022-12-14	19:15:42	19:29:33	829349	62e0c93d54972f434349eda3	16919031	1	main_slash	7	main_slash	159	stimuli_target_squaretriangles.svg	stimuli_distractor_diamondtriangles.svg	7	yes	53	1	473
6.6.1	mac	2022-12-14	19:15:42	19:29:33	829349	62e0c93d54972f434349eda3	16919031	1	main_slash	7	advance_on_keypress_SLASH	160	stimuli_target_squaretriangles.svg	stimuli_distractor_diamondtriangles.svg	7	yes	57	0	377
6.6.1	mac	2022-12-14	19:15:42	19:31:13	929490	62e0c93d54972f434349eda3	16919031	1	practice_z	9	practice_z	1	stimuli_distractor_trianglediamonds.svg	stimuli_target_diamondcircles.svg	12	yes	44	1	402
6.6.1	mac	2022-12-14	19:15:42	19:31:13	929490	62e0c93d54972f434349eda3	16919031	1	practice_z	9	advance_on_keypress_ZEE	2	stimuli_distractor_trianglediamonds.svg	stimuli_target_diamondcircles.svg	12	yes	57	0	403
6.6.1	mac	2022-12-14	19:15:42	19:31:17	933521	62e0c93d54972f434349eda3	16919031	1	practice_z	9	practice_z	3	stimuli_distractor_diamondtriangles.svg	stimuli_distractor_diamondtriangles.svg	13	no	0	1	2000
6.6.1	mac	2022-12-14	19:15:42	19:31:17	933521	62e0c93d54972f434349eda3	16919031	1	practice_z	9	advance_on_keypress_ZEE	4	stimuli_distractor_diamondtriangles.svg	stimuli_distractor_diamondtriangles.svg	13	no	57	0	391
6.6.1	mac	2022-12-14	19:15:42	19:31:20	936002	62e0c93d54972f434349eda3	16919031	1	practice_z	9	practice_z	5	stimuli_distractor_diamondtriangles.svg	stimuli_target_circletriangles.svg	7	yes	44	1	457
6.6.1	mac	2022-12-14	19:15:42	19:31:20	936002	62e0c93d54972f434349eda3	16919031	1	practice_z	9	advance_on_keypress_ZEE	6	stimuli_distractor_diamondtriangles.svg	stimuli_target_circletriangles.svg	7	yes	57	0	4286
6.6.1	mac	2022-12-14	19:15:42	19:31:26	942311	62e0c93d54972f434349eda3	16919031	1	practice_z	9	practice_z	7	stimuli_distractor_trianglediamonds.svg	stimuli_target_circlediamonds.svg	10	yes	44	1	383
6.6.1	mac	2022-12-14	19:15:42	19:31:26	942311	62e0c93d54972f434349eda3	16919031	1	practice_z	9	advance_on_keypress_ZEE	8	stimuli_distractor_trianglediamonds.svg	stimuli_target_circlediamonds.svg	10	yes	57	0	335
6.6.1	mac	2022-12-14	19:15:42	19:31:28	944758	62e0c93d54972f434349eda3	16919031	1	practice_z	9	practice_z	9	stimuli_distractor_trianglediamonds.svg	stimuli_target_squarediamonds.svg	11	yes	44	1	476
6.6.1	mac	2022-12-14	19:15:42	19:31:28	944758	62e0c93d54972f434349eda3	16919031	1	practice_z	9	advance_on_keypress_ZEE	10	stimuli_distractor_trianglediamonds.svg	stimuli_target_squarediamonds.svg	11	yes	57	0	412
6.6.1	mac	2022-12-14	19:15:42	19:31:31	947182	62e0c93d54972f434349eda3	16919031	1	practice_z	9	practice_z	11	stimuli_target_circlediamonds.svg	stimuli_distractor_diamondtriangles.svg	1	yes	44	1	392
6.6.1	mac	2022-12-14	19:15:42	19:31:31	947182	62e0c93d54972f434349eda3	16919031	1	practice_z	9	advance_on_keypress_ZEE	12	stimuli_target_circlediamonds.svg	stimuli_distractor_diamondtriangles.svg	1	yes	57	0	478
6.6.1	mac	2022-12-14	19:15:42	19:31:34	949900	62e0c93d54972f434349eda3	16919031	1	practice_z	9	practice_z	13	stimuli_target_diamondsquares.svg	stimuli_distractor_diamondtriangles.svg	3	yes	44	1	617
6.6.1	mac	2022-12-14	19:15:42	19:31:34	949900	62e0c93d54972f434349eda3	16919031	1	practice_z	9	advance_on_keypress_ZEE	14	stimuli_target_diamondsquares.svg	stimuli_distractor_diamondtriangles.svg	3	yes	57	0	516
6.6.1	mac	2022-12-14	19:15:42	19:31:38	954030	62e0c93d54972f434349eda3	16919031	1	practice_z	9	practice_z	15	stimuli_distractor_diamondtriangles.svg	stimuli_distractor_trianglediamonds.svg	14	no	0	1	2000
6.6.1	mac	2022-12-14	19:15:42	19:31:38	954030	62e0c93d54972f434349eda3	16919031	1	practice_z	9	advance_on_keypress_ZEE	16	stimuli_distractor_diamondtriangles.svg	stimuli_distractor_trianglediamonds.svg	14	no	57	0	1576
6.6.1	mac	2022-12-14	19:15:42	19:31:41	957659	62e0c93d54972f434349eda3	16919031	1	practice_z	9	practice_z	17	stimuli_target_circlediamonds.svg	stimuli_distractor_trianglediamonds.svg	4	yes	44	1	399
6.6.1	mac	2022-12-14	19:15:42	19:31:41	957659	62e0c93d54972f434349eda3	16919031	1	practice_z	9	advance_on_keypress_ZEE	18	stimuli_target_circlediamonds.svg	stimuli_distractor_trianglediamonds.svg	4	yes	57	0	611
6.6.1	mac	2022-12-14	19:15:42	19:31:44	960444	62e0c93d54972f434349eda3	16919031	1	practice_z	9	practice_z	19	stimuli_distractor_diamondtriangles.svg	stimuli_target_diamondcircles.svg	8	yes	44	1	529
6.6.1	mac	2022-12-14	19:15:42	19:31:44	960444	62e0c93d54972f434349eda3	16919031	1	practice_z	9	advance_on_keypress_ZEE	20	stimuli_distractor_diamondtriangles.svg	stimuli_target_diamondcircles.svg	8	yes	57	0	723
6.6.1	mac	2022-12-14	19:15:42	19:31:47	963313	62e0c93d54972f434349eda3	16919031	1	practice_z	9	practice_z	21	stimuli_target_diamondsquares.svg	stimuli_distractor_trianglediamonds.svg	6	yes	44	1	514
6.6.1	mac	2022-12-14	19:15:42	19:31:47	963313	62e0c93d54972f434349eda3	16919031	1	practice_z	9	advance_on_keypress_ZEE	22	stimuli_target_diamondsquares.svg	stimuli_distractor_trianglediamonds.svg	6	yes	57	0	824
6.6.1	mac	2022-12-14	19:15:42	19:31:50	966183	62e0c93d54972f434349eda3	16919031	1	practice_z	9	practice_z	23	stimuli_distractor_diamondtriangles.svg	stimuli_target_trianglecircles.svg	9	yes	44	1	405
6.6.1	mac	2022-12-14	19:15:42	19:31:50	966183	62e0c93d54972f434349eda3	16919031	1	practice_z	9	advance_on_keypress_ZEE	24	stimuli_distractor_diamondtriangles.svg	stimuli_target_trianglecircles.svg	9	yes	57	0	746
6.6.1	mac	2022-12-14	19:15:42	19:31:54	970573	62e0c93d54972f434349eda3	16919031	1	practice_z	9	practice_z	25	stimuli_distractor_trianglediamonds.svg	stimuli_distractor_trianglediamonds.svg	15	no	0	1	2000
6.6.1	mac	2022-12-14	19:15:42	19:31:54	970573	62e0c93d54972f434349eda3	16919031	1	practice_z	9	advance_on_keypress_ZEE	26	stimuli_distractor_trianglediamonds.svg	stimuli_distractor_trianglediamonds.svg	15	no	57	0	51957
6.6.1	mac	2022-12-14	19:15:42	19:32:48	1024581	62e0c93d54972f434349eda3	16919031	1	practice_z	9	practice_z	27	stimuli_target_squarediamonds.svg	stimuli_distractor_diamondtriangles.svg	2	yes	44	1	420
6.6.1	mac	2022-12-14	19:15:42	19:32:48	1024581	62e0c93d54972f434349eda3	16919031	1	practice_z	9	advance_on_keypress_ZEE	28	stimuli_target_squarediamonds.svg	stimuli_distractor_diamondtriangles.svg	2	yes	57	0	485
6.6.1	mac	2022-12-14	19:15:42	19:32:51	1027158	62e0c93d54972f434349eda3	16919031	1	practice_z	9	practice_z	29	stimuli_target_squarediamonds.svg	stimuli_distractor_trianglediamonds.svg	5	yes	44	1	466
6.6.1	mac	2022-12-14	19:15:42	19:32:51	1027158	62e0c93d54972f434349eda3	16919031	1	practice_z	9	advance_on_keypress_ZEE	30	stimuli_target_squarediamonds.svg	stimuli_distractor_trianglediamonds.svg	5	yes	57	0	590
6.6.1	mac	2022-12-14	19:15:42	19:32:55	1031382	62e0c93d54972f434349eda3	16919031	1	practice_z	9	practice_z	31	stimuli_distractor_trianglediamonds.svg	stimuli_distractor_diamondtriangles.svg	16	no	0	1	2000
6.6.1	mac	2022-12-14	19:15:42	19:32:55	1031382	62e0c93d54972f434349eda3	16919031	1	practice_z	9	advance_on_keypress_ZEE	32	stimuli_distractor_trianglediamonds.svg	stimuli_distractor_diamondtriangles.svg	16	no	57	0	3132
6.6.1	mac	2022-12-14	19:15:42	19:37:12	1286394	62e0c93d54972f434349eda3	16919031	1	main_z	11	main_z	1	stimuli_distractor_diamondtriangles.svg	stimuli_target_circletriangles.svg	13	yes	44	1	485
6.6.1	mac	2022-12-14	19:15:42	19:37:12	1286394	62e0c93d54972f434349eda3	16919031	1	main_z	11	advance_on_keypress_ZEE	2	stimuli_distractor_diamondtriangles.svg	stimuli_target_circletriangles.svg	13	yes	57	0	396
6.6.1	mac	2022-12-14	19:15:42	19:37:14	1287884	62e0c93d54972f434349eda3	16919031	1	main_z	11	main_z	3	stimuli_distractor_diamondtriangles.svg	stimuli_target_trianglecircles.svg	29	yes	44	1	461
6.6.1	mac	2022-12-14	19:15:42	19:37:14	1287884	62e0c93d54972f434349eda3	16919031	1	main_z	11	advance_on_keypress_ZEE	4	stimuli_distractor_diamondtriangles.svg	stimuli_target_trianglecircles.svg	29	yes	57	0	376
6.6.1	mac	2022-12-14	19:15:42	19:37:17	1290884	62e0c93d54972f434349eda3	16919031	1	main_z	11	main_z	5	stimuli_distractor_diamondtriangles.svg	stimuli_distractor_diamondtriangles.svg	40	no	0	1	2000
6.6.1	mac	2022-12-14	19:15:42	19:37:17	1290884	62e0c93d54972f434349eda3	16919031	1	main_z	11	advance_on_keypress_ZEE	6	stimuli_distractor_diamondtriangles.svg	stimuli_distractor_diamondtriangles.svg	40	no	57	0	36668
6.6.1	mac	2022-12-14	19:15:42	19:37:54	1328638	62e0c93d54972f434349eda3	16919031	1	main_z	11	main_z	7	stimuli_distractor_trianglediamonds.svg	stimuli_target_squarediamonds.svg	12	yes	44	1	462
6.6.1	mac	2022-12-14	19:15:42	19:37:54	1328638	62e0c93d54972f434349eda3	16919031	1	main_z	11	advance_on_keypress_ZEE	8	stimuli_distractor_trianglediamonds.svg	stimuli_target_squarediamonds.svg	12	yes	57	0	379
6.6.1	mac	2022-12-14	19:15:42	19:37:56	1330028	62e0c93d54972f434349eda3	16919031	1	main_z	11	main_z	9	stimuli_distractor_trianglediamonds.svg	stimuli_target_circletriangles.svg	9	yes	44	1	389
6.6.1	mac	2022-12-14	19:15:42	19:37:56	1330028	62e0c93d54972f434349eda3	16919031	1	main_z	11	advance_on_keypress_ZEE	10	stimuli_distractor_trianglediamonds.svg	stimuli_target_circletriangles.svg	9	yes	57	0	323
6.6.1	mac	2022-12-14	19:15:42	19:37:57	1331356	62e0c93d54972f434349eda3	16919031	1	main_z	11	main_z	11	stimuli_distractor_diamondtriangles.svg	stimuli_target_diamondcircles.svg	31	yes	44	1	370
6.6.1	mac	2022-12-14	19:15:42	19:37:57	1331356	62e0c93d54972f434349eda3	16919031	1	main_z	11	advance_on_keypress_ZEE	12	stimuli_distractor_diamondtriangles.svg	stimuli_target_diamondcircles.svg	31	yes	57	0	300
6.6.1	mac	2022-12-14	19:15:42	19:37:58	1332608	62e0c93d54972f434349eda3	16919031	1	main_z	11	main_z	13	stimuli_distractor_trianglediamonds.svg	stimuli_target_squaretriangles.svg	11	yes	44	1	311
6.6.1	mac	2022-12-14	19:15:42	19:37:58	1332608	62e0c93d54972f434349eda3	16919031	1	main_z	11	advance_on_keypress_ZEE	14	stimuli_distractor_trianglediamonds.svg	stimuli_target_squaretriangles.svg	11	yes	57	0	896
6.6.1	mac	2022-12-14	19:15:42	19:38:02	1336128	62e0c93d54972f434349eda3	16919031	1	main_z	11	main_z	15	stimuli_distractor_diamondtriangles.svg	stimuli_distractor_diamondtriangles.svg	39	no	0	1	2000
6.6.1	mac	2022-12-14	19:15:42	19:38:02	1336128	62e0c93d54972f434349eda3	16919031	1	main_z	11	advance_on_keypress_ZEE	16	stimuli_distractor_diamondtriangles.svg	stimuli_distractor_diamondtriangles.svg	39	no	57	0	317
6.6.1	mac	2022-12-14	19:15:42	19:38:03	1337436	62e0c93d54972f434349eda3	16919031	1	main_z	11	main_z	17	stimuli_target_trianglesquares.svg	stimuli_distractor_diamondtriangles.svg	22	yes	44	1	363
6.6.1	mac	2022-12-14	19:15:42	19:38:03	1337436	62e0c93d54972f434349eda3	16919031	1	main_z	11	advance_on_keypress_ZEE	18	stimuli_target_trianglesquares.svg	stimuli_distractor_diamondtriangles.svg	22	yes	57	0	349
6.6.1	mac	2022-12-14	19:15:42	19:38:05	1338762	62e0c93d54972f434349eda3	16919031	1	main_z	11	main_z	19	stimuli_distractor_trianglediamonds.svg	stimuli_target_circlediamonds.svg	10	yes	44	1	341
6.6.1	mac	2022-12-14	19:15:42	19:38:05	1338762	62e0c93d54972f434349eda3	16919031	1	main_z	11	advance_on_keypress_ZEE	20	stimuli_distractor_trianglediamonds.svg	stimuli_target_circlediamonds.svg	10	yes	57	0	336
6.6.1	mac	2022-12-14	19:15:42	19:38:06	1340135	62e0c93d54972f434349eda3	16919031	1	main_z	11	main_z	21	stimuli_target_squarediamonds.svg	stimuli_distractor_trianglediamonds.svg	4	yes	44	1	404
6.6.1	mac	2022-12-14	19:15:42	19:38:06	1340135	62e0c93d54972f434349eda3	16919031	1	main_z	11	advance_on_keypress_ZEE	22	stimuli_target_squarediamonds.svg	stimuli_distractor_trianglediamonds.svg	4	yes	57	0	28489
6.6.1	mac	2022-12-14	19:15:42	19:38:35	1369712	62e0c93d54972f434349eda3	16919031	1	main_z	11	main_z	23	stimuli_target_diamondcircles.svg	stimuli_distractor_trianglediamonds.svg	19	yes	44	1	444
6.6.1	mac	2022-12-14	19:15:42	19:38:35	1369712	62e0c93d54972f434349eda3	16919031	1	main_z	11	advance_on_keypress_ZEE	24	stimuli_target_diamondcircles.svg	stimuli_distractor_trianglediamonds.svg	19	yes	57	0	503
6.6.1	mac	2022-12-14	19:15:42	19:38:37	1371221	62e0c93d54972f434349eda3	16919031	1	main_z	11	main_z	25	stimuli_target_circletriangles.svg	stimuli_distractor_diamondtriangles.svg	5	yes	44	1	373
6.6.1	mac	2022-12-14	19:15:42	19:38:37	1371221	62e0c93d54972f434349eda3	16919031	1	main_z	11	advance_on_keypress_ZEE	26	stimuli_target_circletriangles.svg	stimuli_distractor_diamondtriangles.svg	5	yes	57	0	402
6.6.1	mac	2022-12-14	19:15:42	19:38:40	1374257	62e0c93d54972f434349eda3	16919031	1	main_z	11	main_z	27	stimuli_distractor_trianglediamonds.svg	stimuli_distractor_trianglediamonds.svg	34	no	0	1	2000
6.6.1	mac	2022-12-14	19:15:42	19:38:40	1374257	62e0c93d54972f434349eda3	16919031	1	main_z	11	advance_on_keypress_ZEE	28	stimuli_distractor_trianglediamonds.svg	stimuli_distractor_trianglediamonds.svg	34	no	57	0	436
6.6.1	mac	2022-12-14	19:15:42	19:38:42	1376089	62e0c93d54972f434349eda3	16919031	1	main_z	11	main_z	29	stimuli_distractor_trianglediamonds.svg	stimuli_target_trianglesquares.svg	26	yes	44	1	767
6.6.1	mac	2022-12-14	19:15:42	19:38:42	1376089	62e0c93d54972f434349eda3	16919031	1	main_z	11	advance_on_keypress_ZEE	30	stimuli_distractor_trianglediamonds.svg	stimuli_target_trianglesquares.svg	26	yes	57	0	9018
6.6.1	mac	2022-12-14	19:15:42	19:38:52	1386369	62e0c93d54972f434349eda3	16919031	1	main_z	11	main_z	31	stimuli_distractor_trianglediamonds.svg	stimuli_target_diamondsquares.svg	28	yes	44	1	618
6.6.1	mac	2022-12-14	19:15:42	19:38:52	1386369	62e0c93d54972f434349eda3	16919031	1	main_z	11	advance_on_keypress_ZEE	32	stimuli_distractor_trianglediamonds.svg	stimuli_target_diamondsquares.svg	28	yes	57	0	606
6.6.1	mac	2022-12-14	19:15:42	19:38:54	1388254	62e0c93d54972f434349eda3	16919031	1	main_z	11	main_z	33	stimuli_target_circletriangles.svg	stimuli_distractor_trianglediamonds.svg	1	yes	44	1	637
6.6.1	mac	2022-12-14	19:15:42	19:38:54	1388254	62e0c93d54972f434349eda3	16919031	1	main_z	11	advance_on_keypress_ZEE	34	stimuli_target_circletriangles.svg	stimuli_distractor_trianglediamonds.svg	1	yes	57	0	599
6.6.1	mac	2022-12-14	19:15:42	19:38:56	1389798	62e0c93d54972f434349eda3	16919031	1	main_z	11	main_z	35	stimuli_target_diamondcircles.svg	stimuli_distractor_diamondtriangles.svg	23	yes	44	1	331
6.6.1	mac	2022-12-14	19:15:42	19:38:56	1389798	62e0c93d54972f434349eda3	16919031	1	main_z	11	advance_on_keypress_ZEE	36	stimuli_target_diamondcircles.svg	stimuli_distractor_diamondtriangles.svg	23	yes	57	0	365
6.6.1	mac	2022-12-14	19:15:42	19:38:57	1391525	62e0c93d54972f434349eda3	16919031	1	main_z	11	main_z	37	stimuli_distractor_diamondtriangles.svg	stimuli_distractor_trianglediamonds.svg	37	no	44	0	729
6.6.1	mac	2022-12-14	19:15:42	19:38:57	1391525	62e0c93d54972f434349eda3	16919031	1	main_z	11	advance_on_keypress_ZEE	38	stimuli_distractor_diamondtriangles.svg	stimuli_distractor_trianglediamonds.svg	37	no	57	0	633
6.6.1	mac	2022-12-14	19:15:42	19:38:59	1393473	62e0c93d54972f434349eda3	16919031	1	main_z	11	main_z	39	stimuli_target_squarediamonds.svg	stimuli_distractor_diamondtriangles.svg	8	yes	44	1	693
6.6.1	mac	2022-12-14	19:15:42	19:38:59	1393473	62e0c93d54972f434349eda3	16919031	1	main_z	11	advance_on_keypress_ZEE	40	stimuli_target_squarediamonds.svg	stimuli_distractor_diamondtriangles.svg	8	yes	57	0	545
6.6.1	mac	2022-12-14	19:15:42	19:39:01	1395292	62e0c93d54972f434349eda3	16919031	1	main_z	11	main_z	41	stimuli_distractor_diamondtriangles.svg	stimuli_target_trianglesquares.svg	30	yes	44	1	644
6.6.1	mac	2022-12-14	19:15:42	19:39:01	1395292	62e0c93d54972f434349eda3	16919031	1	main_z	11	advance_on_keypress_ZEE	42	stimuli_distractor_diamondtriangles.svg	stimuli_target_trianglesquares.svg	30	yes	57	0	13780
6.6.1	mac	2022-12-14	19:15:42	19:39:16	1410111	62e0c93d54972f434349eda3	16919031	1	main_z	11	main_z	43	stimuli_target_circlediamonds.svg	stimuli_distractor_diamondtriangles.svg	6	yes	44	1	393
6.6.1	mac	2022-12-14	19:15:42	19:39:16	1410111	62e0c93d54972f434349eda3	16919031	1	main_z	11	advance_on_keypress_ZEE	44	stimuli_target_circlediamonds.svg	stimuli_distractor_diamondtriangles.svg	6	yes	57	0	392
6.6.1	mac	2022-12-14	19:15:42	19:39:17	1411558	62e0c93d54972f434349eda3	16919031	1	main_z	11	main_z	45	stimuli_target_diamondsquares.svg	stimuli_distractor_diamondtriangles.svg	24	yes	44	1	427
6.6.1	mac	2022-12-14	19:15:42	19:39:17	1411558	62e0c93d54972f434349eda3	16919031	1	main_z	11	advance_on_keypress_ZEE	46	stimuli_target_diamondsquares.svg	stimuli_distractor_diamondtriangles.svg	24	yes	57	0	304
6.6.1	mac	2022-12-14	19:15:42	19:39:19	1412861	62e0c93d54972f434349eda3	16919031	1	main_z	11	main_z	47	stimuli_target_squaretriangles.svg	stimuli_distractor_diamondtriangles.svg	7	yes	44	1	368
6.6.1	mac	2022-12-14	19:15:42	19:39:19	1412861	62e0c93d54972f434349eda3	16919031	1	main_z	11	advance_on_keypress_ZEE	48	stimuli_target_squaretriangles.svg	stimuli_distractor_diamondtriangles.svg	7	yes	57	0	288
6.6.1	mac	2022-12-14	19:15:42	19:39:20	1414196	62e0c93d54972f434349eda3	16919031	1	main_z	11	main_z	49	stimuli_target_squaretriangles.svg	stimuli_distractor_trianglediamonds.svg	3	yes	44	1	407
6.6.1	mac	2022-12-14	19:15:42	19:39:20	1414196	62e0c93d54972f434349eda3	16919031	1	main_z	11	advance_on_keypress_ZEE	50	stimuli_target_squaretriangles.svg	stimuli_distractor_trianglediamonds.svg	3	yes	57	0	298
6.6.1	mac	2022-12-14	19:15:42	19:39:21	1415550	62e0c93d54972f434349eda3	16919031	1	main_z	11	main_z	51	stimuli_distractor_diamondtriangles.svg	stimuli_target_circlediamonds.svg	14	yes	44	1	415
6.6.1	mac	2022-12-14	19:15:42	19:39:21	1415550	62e0c93d54972f434349eda3	16919031	1	main_z	11	advance_on_keypress_ZEE	52	stimuli_distractor_diamondtriangles.svg	stimuli_target_circlediamonds.svg	14	yes	57	0	336
6.6.1	mac	2022-12-14	19:15:42	19:39:23	1416969	62e0c93d54972f434349eda3	16919031	1	main_z	11	main_z	53	stimuli_target_trianglecircles.svg	stimuli_distractor_trianglediamonds.svg	17	yes	44	1	455
6.6.1	mac	2022-12-14	19:15:42	19:39:23	1416969	62e0c93d54972f434349eda3	16919031	1	main_z	11	advance_on_keypress_ZEE	54	stimuli_target_trianglecircles.svg	stimuli_distractor_trianglediamonds.svg	17	yes	57	0	354
6.6.1	mac	2022-12-14	19:15:42	19:39:24	1418357	62e0c93d54972f434349eda3	16919031	1	main_z	11	main_z	55	stimuli_target_circlediamonds.svg	stimuli_distractor_trianglediamonds.svg	2	yes	44	1	397
6.6.1	mac	2022-12-14	19:15:42	19:39:24	1418357	62e0c93d54972f434349eda3	16919031	1	main_z	11	advance_on_keypress_ZEE	56	stimuli_target_circlediamonds.svg	stimuli_distractor_trianglediamonds.svg	2	yes	57	0	341
6.6.1	mac	2022-12-14	19:15:42	19:39:27	1421322	62e0c93d54972f434349eda3	16919031	1	main_z	11	main_z	57	stimuli_distractor_trianglediamonds.svg	stimuli_distractor_diamondtriangles.svg	35	no	0	1	2000
6.6.1	mac	2022-12-14	19:15:42	19:39:27	1421322	62e0c93d54972f434349eda3	16919031	1	main_z	11	advance_on_keypress_ZEE	58	stimuli_distractor_trianglediamonds.svg	stimuli_distractor_diamondtriangles.svg	35	no	57	0	432
6.6.1	mac	2022-12-14	19:15:42	19:39:29	1423015	62e0c93d54972f434349eda3	16919031	1	main_z	11	main_z	59	stimuli_distractor_diamondtriangles.svg	stimuli_target_squarediamonds.svg	16	yes	44	1	614
6.6.1	mac	2022-12-14	19:15:42	19:39:29	1423015	62e0c93d54972f434349eda3	16919031	1	main_z	11	advance_on_keypress_ZEE	60	stimuli_distractor_diamondtriangles.svg	stimuli_target_squarediamonds.svg	16	yes	57	0	294
6.6.1	mac	2022-12-14	19:15:42	19:39:30	1424523	62e0c93d54972f434349eda3	16919031	1	main_z	11	main_z	61	stimuli_target_trianglesquares.svg	stimuli_distractor_trianglediamonds.svg	18	yes	44	1	592
6.6.1	mac	2022-12-14	19:15:42	19:39:30	1424523	62e0c93d54972f434349eda3	16919031	1	main_z	11	advance_on_keypress_ZEE	62	stimuli_target_trianglesquares.svg	stimuli_distractor_trianglediamonds.svg	18	yes	57	0	327
6.6.1	mac	2022-12-14	19:15:42	19:39:32	1426092	62e0c93d54972f434349eda3	16919031	1	main_z	11	main_z	63	stimuli_distractor_diamondtriangles.svg	stimuli_target_diamondsquares.svg	32	yes	44	1	615
6.6.1	mac	2022-12-14	19:15:42	19:39:32	1426092	62e0c93d54972f434349eda3	16919031	1	main_z	11	advance_on_keypress_ZEE	64	stimuli_distractor_diamondtriangles.svg	stimuli_target_diamondsquares.svg	32	yes	57	0	334
6.6.1	mac	2022-12-14	19:15:42	19:39:33	1427670	62e0c93d54972f434349eda3	16919031	1	main_z	11	main_z	65	stimuli_distractor_trianglediamonds.svg	stimuli_target_diamondcircles.svg	27	yes	44	1	611
6.6.1	mac	2022-12-14	19:15:42	19:39:33	1427670	62e0c93d54972f434349eda3	16919031	1	main_z	11	advance_on_keypress_ZEE	66	stimuli_distractor_trianglediamonds.svg	stimuli_target_diamondcircles.svg	27	yes	57	0	300
6.6.1	mac	2022-12-14	19:15:42	19:39:36	1430603	62e0c93d54972f434349eda3	16919031	1	main_z	11	main_z	67	stimuli_distractor_trianglediamonds.svg	stimuli_distractor_diamondtriangles.svg	36	no	0	1	2000
6.6.1	mac	2022-12-14	19:15:42	19:39:36	1430603	62e0c93d54972f434349eda3	16919031	1	main_z	11	advance_on_keypress_ZEE	68	stimuli_distractor_trianglediamonds.svg	stimuli_distractor_diamondtriangles.svg	36	no	57	0	471
6.6.1	mac	2022-12-14	19:15:42	19:39:38	1432284	62e0c93d54972f434349eda3	16919031	1	main_z	11	main_z	69	stimuli_distractor_diamondtriangles.svg	stimuli_target_squaretriangles.svg	15	yes	44	1	585
6.6.1	mac	2022-12-14	19:15:42	19:39:38	1432284	62e0c93d54972f434349eda3	16919031	1	main_z	11	advance_on_keypress_ZEE	70	stimuli_distractor_diamondtriangles.svg	stimuli_target_squaretriangles.svg	15	yes	57	0	357
6.6.1	mac	2022-12-14	19:15:42	19:39:40	1433754	62e0c93d54972f434349eda3	16919031	1	main_z	11	main_z	71	stimuli_target_trianglecircles.svg	stimuli_distractor_diamondtriangles.svg	21	yes	44	1	489
6.6.1	mac	2022-12-14	19:15:42	19:39:40	1433754	62e0c93d54972f434349eda3	16919031	1	main_z	11	advance_on_keypress_ZEE	72	stimuli_target_trianglecircles.svg	stimuli_distractor_diamondtriangles.svg	21	yes	57	0	320
6.6.1	mac	2022-12-14	19:15:42	19:39:41	1435284	62e0c93d54972f434349eda3	16919031	1	main_z	11	main_z	73	stimuli_distractor_trianglediamonds.svg	stimuli_target_trianglecircles.svg	25	yes	44	1	573
6.6.1	mac	2022-12-14	19:15:42	19:39:41	1435284	62e0c93d54972f434349eda3	16919031	1	main_z	11	advance_on_keypress_ZEE	74	stimuli_distractor_trianglediamonds.svg	stimuli_target_trianglecircles.svg	25	yes	57	0	370
6.6.1	mac	2022-12-14	19:15:42	19:39:43	1436782	62e0c93d54972f434349eda3	16919031	1	main_z	11	main_z	75	stimuli_target_diamondsquares.svg	stimuli_distractor_trianglediamonds.svg	20	yes	44	1	489
6.6.1	mac	2022-12-14	19:15:42	19:39:43	1436782	62e0c93d54972f434349eda3	16919031	1	main_z	11	advance_on_keypress_ZEE	76	stimuli_target_diamondsquares.svg	stimuli_distractor_trianglediamonds.svg	20	yes	57	0	1552
6.6.1	mac	2022-12-14	19:15:42	19:39:47	1440964	62e0c93d54972f434349eda3	16919031	1	main_z	11	main_z	77	stimuli_distractor_trianglediamonds.svg	stimuli_distractor_trianglediamonds.svg	33	no	0	1	2000
6.6.1	mac	2022-12-14	19:15:42	19:39:47	1440964	62e0c93d54972f434349eda3	16919031	1	main_z	11	advance_on_keypress_ZEE	78	stimuli_distractor_trianglediamonds.svg	stimuli_distractor_trianglediamonds.svg	33	no	57	0	46195
6.6.1	mac	2022-12-14	19:15:42	19:40:36	1489791	62e0c93d54972f434349eda3	16919031	1	main_z	11	main_z	79	stimuli_distractor_diamondtriangles.svg	stimuli_distractor_trianglediamonds.svg	38	no	0	1	2000
6.6.1	mac	2022-12-14	19:15:42	19:40:36	1489791	62e0c93d54972f434349eda3	16919031	1	main_z	11	advance_on_keypress_ZEE	80	stimuli_distractor_diamondtriangles.svg	stimuli_distractor_trianglediamonds.svg	38	no	57	0	258
6.6.1	mac	2022-12-14	19:15:42	19:40:37	1491020	62e0c93d54972f434349eda3	16919031	1	main_z	11	main_z	81	stimuli_target_diamondcircles.svg	stimuli_distractor_diamondtriangles.svg	23	yes	44	1	332
6.6.1	mac	2022-12-14	19:15:42	19:40:37	1491020	62e0c93d54972f434349eda3	16919031	1	main_z	11	advance_on_keypress_ZEE	82	stimuli_target_diamondcircles.svg	stimuli_distractor_diamondtriangles.svg	23	yes	57	0	530
6.6.1	mac	2022-12-14	19:15:42	19:40:38	1492600	62e0c93d54972f434349eda3	16919031	1	main_z	11	main_z	83	stimuli_target_squaretriangles.svg	stimuli_distractor_diamondtriangles.svg	7	yes	44	1	415
6.6.1	mac	2022-12-14	19:15:42	19:40:38	1492600	62e0c93d54972f434349eda3	16919031	1	main_z	11	advance_on_keypress_ZEE	84	stimuli_target_squaretriangles.svg	stimuli_distractor_diamondtriangles.svg	7	yes	57	0	2917
6.6.1	mac	2022-12-14	19:15:42	19:40:42	1496664	62e0c93d54972f434349eda3	16919031	1	main_z	11	main_z	85	stimuli_target_diamondsquares.svg	stimuli_distractor_diamondtriangles.svg	24	yes	44	1	527
6.6.1	mac	2022-12-14	19:15:42	19:40:42	1496664	62e0c93d54972f434349eda3	16919031	1	main_z	11	advance_on_keypress_ZEE	86	stimuli_target_diamondsquares.svg	stimuli_distractor_diamondtriangles.svg	24	yes	57	0	588
6.6.1	mac	2022-12-14	19:15:42	19:40:46	1499883	62e0c93d54972f434349eda3	16919031	1	main_z	11	main_z	87	stimuli_distractor_diamondtriangles.svg	stimuli_distractor_trianglediamonds.svg	38	no	0	1	2000
6.6.1	mac	2022-12-14	19:15:42	19:40:46	1499883	62e0c93d54972f434349eda3	16919031	1	main_z	11	advance_on_keypress_ZEE	88	stimuli_distractor_diamondtriangles.svg	stimuli_distractor_trianglediamonds.svg	38	no	57	0	393
6.6.1	mac	2022-12-14	19:15:42	19:40:47	1501320	62e0c93d54972f434349eda3	16919031	1	main_z	11	main_z	89	stimuli_target_trianglecircles.svg	stimuli_distractor_diamondtriangles.svg	21	yes	44	1	424
6.6.1	mac	2022-12-14	19:15:42	19:40:47	1501320	62e0c93d54972f434349eda3	16919031	1	main_z	11	advance_on_keypress_ZEE	90	stimuli_target_trianglecircles.svg	stimuli_distractor_diamondtriangles.svg	21	yes	57	0	449
6.6.1	mac	2022-12-14	19:15:42	19:40:49	1502859	62e0c93d54972f434349eda3	16919031	1	main_z	11	main_z	91	stimuli_target_circlediamonds.svg	stimuli_distractor_diamondtriangles.svg	6	yes	44	1	449
6.6.1	mac	2022-12-14	19:15:42	19:40:49	1502859	62e0c93d54972f434349eda3	16919031	1	main_z	11	advance_on_keypress_ZEE	92	stimuli_target_circlediamonds.svg	stimuli_distractor_diamondtriangles.svg	6	yes	57	0	527
6.6.1	mac	2022-12-14	19:15:42	19:40:51	1505250	62e0c93d54972f434349eda3	16919031	1	main_z	11	main_z	93	stimuli_distractor_diamondtriangles.svg	stimuli_target_diamondsquares.svg	32	yes	44	1	1242
6.6.1	mac	2022-12-14	19:15:42	19:40:51	1505250	62e0c93d54972f434349eda3	16919031	1	main_z	11	advance_on_keypress_ZEE	94	stimuli_distractor_diamondtriangles.svg	stimuli_target_diamondsquares.svg	32	yes	57	0	726
6.6.1	mac	2022-12-14	19:15:42	19:40:53	1507131	62e0c93d54972f434349eda3	16919031	1	main_z	11	main_z	95	stimuli_distractor_diamondtriangles.svg	stimuli_target_squaretriangles.svg	15	yes	44	1	534
6.6.1	mac	2022-12-14	19:15:42	19:40:53	1507131	62e0c93d54972f434349eda3	16919031	1	main_z	11	advance_on_keypress_ZEE	96	stimuli_distractor_diamondtriangles.svg	stimuli_target_squaretriangles.svg	15	yes	57	0	1208
6.6.1	mac	2022-12-14	19:15:42	19:40:55	1509598	62e0c93d54972f434349eda3	16919031	1	main_z	11	main_z	97	stimuli_target_circletriangles.svg	stimuli_distractor_diamondtriangles.svg	5	yes	44	1	629
6.6.1	mac	2022-12-14	19:15:42	19:40:55	1509598	62e0c93d54972f434349eda3	16919031	1	main_z	11	advance_on_keypress_ZEE	98	stimuli_target_circletriangles.svg	stimuli_distractor_diamondtriangles.svg	5	yes	57	0	441
6.6.1	mac	2022-12-14	19:15:42	19:40:57	1511240	62e0c93d54972f434349eda3	16919031	1	main_z	11	main_z	99	stimuli_distractor_diamondtriangles.svg	stimuli_target_trianglesquares.svg	30	yes	44	1	571
6.6.1	mac	2022-12-14	19:15:42	19:40:57	1511240	62e0c93d54972f434349eda3	16919031	1	main_z	11	advance_on_keypress_ZEE	100	stimuli_distractor_diamondtriangles.svg	stimuli_target_trianglesquares.svg	30	yes	57	0	486
6.6.1	mac	2022-12-14	19:15:42	19:40:59	1512995	62e0c93d54972f434349eda3	16919031	1	main_z	11	main_z	101	stimuli_distractor_diamondtriangles.svg	stimuli_target_trianglecircles.svg	29	yes	44	1	628
6.6.1	mac	2022-12-14	19:15:42	19:40:59	1512995	62e0c93d54972f434349eda3	16919031	1	main_z	11	advance_on_keypress_ZEE	102	stimuli_distractor_diamondtriangles.svg	stimuli_target_trianglecircles.svg	29	yes	57	0	364
6.6.1	mac	2022-12-14	19:15:42	19:41:00	1514664	62e0c93d54972f434349eda3	16919031	1	main_z	11	main_z	103	stimuli_target_squarediamonds.svg	stimuli_distractor_diamondtriangles.svg	8	yes	44	1	665
6.6.1	mac	2022-12-14	19:15:42	19:41:00	1514664	62e0c93d54972f434349eda3	16919031	1	main_z	11	advance_on_keypress_ZEE	104	stimuli_target_squarediamonds.svg	stimuli_distractor_diamondtriangles.svg	8	yes	57	0	310
6.6.1	mac	2022-12-14	19:15:42	19:41:02	1516321	62e0c93d54972f434349eda3	16919031	1	main_z	11	main_z	105	stimuli_target_circlediamonds.svg	stimuli_distractor_trianglediamonds.svg	2	yes	44	1	725
6.6.1	mac	2022-12-14	19:15:42	19:41:02	1516321	62e0c93d54972f434349eda3	16919031	1	main_z	11	advance_on_keypress_ZEE	106	stimuli_target_circlediamonds.svg	stimuli_distractor_trianglediamonds.svg	2	yes	57	0	326
6.6.1	mac	2022-12-14	19:15:42	19:41:04	1517826	62e0c93d54972f434349eda3	16919031	1	main_z	11	main_z	107	stimuli_distractor_diamondtriangles.svg	stimuli_target_circletriangles.svg	13	yes	44	1	548
6.6.1	mac	2022-12-14	19:15:42	19:41:04	1517826	62e0c93d54972f434349eda3	16919031	1	main_z	11	advance_on_keypress_ZEE	108	stimuli_distractor_diamondtriangles.svg	stimuli_target_circletriangles.svg	13	yes	57	0	340
6.6.1	mac	2022-12-14	19:15:42	19:41:05	1519385	62e0c93d54972f434349eda3	16919031	1	main_z	11	main_z	109	stimuli_distractor_diamondtriangles.svg	stimuli_target_circlediamonds.svg	14	yes	44	1	594
6.6.1	mac	2022-12-14	19:15:42	19:41:05	1519385	62e0c93d54972f434349eda3	16919031	1	main_z	11	advance_on_keypress_ZEE	110	stimuli_distractor_diamondtriangles.svg	stimuli_target_circlediamonds.svg	14	yes	57	0	485
6.6.1	mac	2022-12-14	19:15:42	19:41:07	1521030	62e0c93d54972f434349eda3	16919031	1	main_z	11	main_z	111	stimuli_target_diamondsquares.svg	stimuli_distractor_trianglediamonds.svg	20	yes	44	1	523
6.6.1	mac	2022-12-14	19:15:42	19:41:07	1521030	62e0c93d54972f434349eda3	16919031	1	main_z	11	advance_on_keypress_ZEE	112	stimuli_target_diamondsquares.svg	stimuli_distractor_trianglediamonds.svg	20	yes	57	0	346
6.6.1	mac	2022-12-14	19:15:42	19:41:08	1522600	62e0c93d54972f434349eda3	16919031	1	main_z	11	main_z	113	stimuli_distractor_trianglediamonds.svg	stimuli_target_trianglecircles.svg	25	yes	44	1	578
6.6.1	mac	2022-12-14	19:15:42	19:41:08	1522600	62e0c93d54972f434349eda3	16919031	1	main_z	11	advance_on_keypress_ZEE	114	stimuli_distractor_trianglediamonds.svg	stimuli_target_trianglecircles.svg	25	yes	57	0	415
6.6.1	mac	2022-12-14	19:15:42	19:41:10	1524282	62e0c93d54972f434349eda3	16919031	1	main_z	11	main_z	115	stimuli_distractor_trianglediamonds.svg	stimuli_target_squaretriangles.svg	11	yes	44	1	629
6.6.1	mac	2022-12-14	19:15:42	19:41:10	1524282	62e0c93d54972f434349eda3	16919031	1	main_z	11	advance_on_keypress_ZEE	116	stimuli_distractor_trianglediamonds.svg	stimuli_target_squaretriangles.svg	11	yes	57	0	372
6.6.1	mac	2022-12-14	19:15:42	19:41:12	1526048	62e0c93d54972f434349eda3	16919031	1	main_z	11	main_z	117	stimuli_distractor_trianglediamonds.svg	stimuli_target_trianglesquares.svg	26	yes	44	1	763
6.6.1	mac	2022-12-14	19:15:42	19:41:12	1526048	62e0c93d54972f434349eda3	16919031	1	main_z	11	advance_on_keypress_ZEE	118	stimuli_distractor_trianglediamonds.svg	stimuli_target_trianglesquares.svg	26	yes	57	0	453
6.6.1	mac	2022-12-14	19:15:42	19:41:14	1527819	62e0c93d54972f434349eda3	16919031	1	main_z	11	main_z	119	stimuli_distractor_trianglediamonds.svg	stimuli_distractor_trianglediamonds.svg	33	no	44	0	683
6.6.1	mac	2022-12-14	19:15:42	19:41:14	1527819	62e0c93d54972f434349eda3	16919031	1	main_z	11	advance_on_keypress_ZEE	120	stimuli_distractor_trianglediamonds.svg	stimuli_distractor_trianglediamonds.svg	33	no	57	0	543
6.6.1	mac	2022-12-14	19:15:42	19:41:16	1529831	62e0c93d54972f434349eda3	16919031	1	main_z	11	main_z	121	stimuli_target_trianglecircles.svg	stimuli_distractor_trianglediamonds.svg	17	yes	44	1	845
6.6.1	mac	2022-12-14	19:15:42	19:41:16	1529831	62e0c93d54972f434349eda3	16919031	1	main_z	11	advance_on_keypress_ZEE	122	stimuli_target_trianglecircles.svg	stimuli_distractor_trianglediamonds.svg	17	yes	57	0	568
6.6.1	mac	2022-12-14	19:15:42	19:41:19	1533033	62e0c93d54972f434349eda3	16919031	1	main_z	11	main_z	123	stimuli_distractor_trianglediamonds.svg	stimuli_distractor_diamondtriangles.svg	35	no	0	1	2000
6.6.1	mac	2022-12-14	19:15:42	19:41:19	1533033	62e0c93d54972f434349eda3	16919031	1	main_z	11	advance_on_keypress_ZEE	124	stimuli_distractor_trianglediamonds.svg	stimuli_distractor_diamondtriangles.svg	35	no	57	0	404
6.6.1	mac	2022-12-14	19:15:42	19:41:20	1534567	62e0c93d54972f434349eda3	16919031	1	main_z	11	main_z	125	stimuli_target_trianglesquares.svg	stimuli_distractor_diamondtriangles.svg	22	yes	44	1	503
6.6.1	mac	2022-12-14	19:15:42	19:41:20	1534567	62e0c93d54972f434349eda3	16919031	1	main_z	11	advance_on_keypress_ZEE	126	stimuli_target_trianglesquares.svg	stimuli_distractor_diamondtriangles.svg	22	yes	57	0	390
6.6.1	mac	2022-12-14	19:15:42	19:41:23	1537592	62e0c93d54972f434349eda3	16919031	1	main_z	11	main_z	127	stimuli_distractor_diamondtriangles.svg	stimuli_distractor_trianglediamonds.svg	37	no	0	1	2000
6.6.1	mac	2022-12-14	19:15:42	19:41:23	1537592	62e0c93d54972f434349eda3	16919031	1	main_z	11	advance_on_keypress_ZEE	128	stimuli_distractor_diamondtriangles.svg	stimuli_distractor_trianglediamonds.svg	37	no	57	0	380
6.6.1	mac	2022-12-14	19:15:42	19:41:25	1539091	62e0c93d54972f434349eda3	16919031	1	main_z	11	main_z	129	stimuli_distractor_diamondtriangles.svg	stimuli_target_squarediamonds.svg	16	yes	44	1	502
6.6.1	mac	2022-12-14	19:15:42	19:41:25	1539091	62e0c93d54972f434349eda3	16919031	1	main_z	11	advance_on_keypress_ZEE	130	stimuli_distractor_diamondtriangles.svg	stimuli_target_squarediamonds.svg	16	yes	57	0	347
6.6.1	mac	2022-12-14	19:15:42	19:41:27	1540779	62e0c93d54972f434349eda3	16919031	1	main_z	11	main_z	131	stimuli_target_squaretriangles.svg	stimuli_distractor_trianglediamonds.svg	3	yes	44	1	695
6.6.1	mac	2022-12-14	19:15:42	19:41:27	1540779	62e0c93d54972f434349eda3	16919031	1	main_z	11	advance_on_keypress_ZEE	132	stimuli_target_squaretriangles.svg	stimuli_distractor_trianglediamonds.svg	3	yes	57	0	585
6.6.1	mac	2022-12-14	19:15:42	19:41:29	1542925	62e0c93d54972f434349eda3	16919031	1	main_z	11	main_z	133	stimuli_distractor_trianglediamonds.svg	stimuli_target_diamondsquares.svg	28	yes	44	1	923
6.6.1	mac	2022-12-14	19:15:42	19:41:29	1542925	62e0c93d54972f434349eda3	16919031	1	main_z	11	advance_on_keypress_ZEE	134	stimuli_distractor_trianglediamonds.svg	stimuli_target_diamondsquares.svg	28	yes	57	0	488
6.6.1	mac	2022-12-14	19:15:42	19:41:32	1546035	62e0c93d54972f434349eda3	16919031	1	main_z	11	main_z	135	stimuli_distractor_diamondtriangles.svg	stimuli_distractor_diamondtriangles.svg	40	no	0	1	2000
6.6.1	mac	2022-12-14	19:15:42	19:41:32	1546035	62e0c93d54972f434349eda3	16919031	1	main_z	11	advance_on_keypress_ZEE	136	stimuli_distractor_diamondtriangles.svg	stimuli_distractor_diamondtriangles.svg	40	no	57	0	745
6.6.1	mac	2022-12-14	19:15:42	19:41:34	1547828	62e0c93d54972f434349eda3	16919031	1	main_z	11	main_z	137	stimuli_target_circletriangles.svg	stimuli_distractor_trianglediamonds.svg	1	yes	44	1	427
6.6.1	mac	2022-12-14	19:15:42	19:41:34	1547828	62e0c93d54972f434349eda3	16919031	1	main_z	11	advance_on_keypress_ZEE	138	stimuli_target_circletriangles.svg	stimuli_distractor_trianglediamonds.svg	1	yes	57	0	398
6.6.1	mac	2022-12-14	19:15:42	19:41:35	1549276	62e0c93d54972f434349eda3	16919031	1	main_z	11	main_z	139	stimuli_distractor_diamondtriangles.svg	stimuli_target_diamondcircles.svg	31	yes	44	1	428
6.6.1	mac	2022-12-14	19:15:42	19:41:35	1549276	62e0c93d54972f434349eda3	16919031	1	main_z	11	advance_on_keypress_ZEE	140	stimuli_distractor_diamondtriangles.svg	stimuli_target_diamondcircles.svg	31	yes	57	0	304
6.6.1	mac	2022-12-14	19:15:42	19:41:38	1552208	62e0c93d54972f434349eda3	16919031	1	main_z	11	main_z	141	stimuli_distractor_trianglediamonds.svg	stimuli_distractor_trianglediamonds.svg	34	no	0	1	2000
6.6.1	mac	2022-12-14	19:15:42	19:41:38	1552208	62e0c93d54972f434349eda3	16919031	1	main_z	11	advance_on_keypress_ZEE	142	stimuli_distractor_trianglediamonds.svg	stimuli_distractor_trianglediamonds.svg	34	no	57	0	532
6.6.1	mac	2022-12-14	19:15:42	19:41:40	1553815	62e0c93d54972f434349eda3	16919031	1	main_z	11	main_z	143	stimuli_target_squarediamonds.svg	stimuli_distractor_trianglediamonds.svg	4	yes	44	1	441
6.6.1	mac	2022-12-14	19:15:42	19:41:40	1553815	62e0c93d54972f434349eda3	16919031	1	main_z	11	advance_on_keypress_ZEE	144	stimuli_target_squarediamonds.svg	stimuli_distractor_trianglediamonds.svg	4	yes	57	0	531
6.6.1	mac	2022-12-14	19:15:42	19:41:41	1555491	62e0c93d54972f434349eda3	16919031	1	main_z	11	main_z	145	stimuli_target_trianglesquares.svg	stimuli_distractor_trianglediamonds.svg	18	yes	44	1	520
6.6.1	mac	2022-12-14	19:15:42	19:41:41	1555491	62e0c93d54972f434349eda3	16919031	1	main_z	11	advance_on_keypress_ZEE	146	stimuli_target_trianglesquares.svg	stimuli_distractor_trianglediamonds.svg	18	yes	57	0	495
6.6.1	mac	2022-12-14	19:15:42	19:41:43	1557185	62e0c93d54972f434349eda3	16919031	1	main_z	11	main_z	147	stimuli_distractor_trianglediamonds.svg	stimuli_target_circlediamonds.svg	10	yes	44	1	582
6.6.1	mac	2022-12-14	19:15:42	19:41:43	1557185	62e0c93d54972f434349eda3	16919031	1	main_z	11	advance_on_keypress_ZEE	148	stimuli_distractor_trianglediamonds.svg	stimuli_target_circlediamonds.svg	10	yes	57	0	557
6.6.1	mac	2022-12-14	19:15:42	19:41:45	1558835	62e0c93d54972f434349eda3	16919031	1	main_z	11	main_z	149	stimuli_target_diamondcircles.svg	stimuli_distractor_trianglediamonds.svg	19	yes	44	1	467
6.6.1	mac	2022-12-14	19:15:42	19:41:45	1558835	62e0c93d54972f434349eda3	16919031	1	main_z	11	advance_on_keypress_ZEE	150	stimuli_target_diamondcircles.svg	stimuli_distractor_trianglediamonds.svg	19	yes	57	0	489
6.6.1	mac	2022-12-14	19:15:42	19:41:48	1561947	62e0c93d54972f434349eda3	16919031	1	main_z	11	main_z	151	stimuli_distractor_trianglediamonds.svg	stimuli_distractor_diamondtriangles.svg	36	no	0	1	2000
6.6.1	mac	2022-12-14	19:15:42	19:41:48	1561947	62e0c93d54972f434349eda3	16919031	1	main_z	11	advance_on_keypress_ZEE	152	stimuli_distractor_trianglediamonds.svg	stimuli_distractor_diamondtriangles.svg	36	no	57	0	247
6.6.1	mac	2022-12-14	19:15:42	19:41:49	1563263	62e0c93d54972f434349eda3	16919031	1	main_z	11	main_z	153	stimuli_distractor_trianglediamonds.svg	stimuli_target_circletriangles.svg	9	yes	44	1	438
6.6.1	mac	2022-12-14	19:15:42	19:41:49	1563263	62e0c93d54972f434349eda3	16919031	1	main_z	11	advance_on_keypress_ZEE	154	stimuli_distractor_trianglediamonds.svg	stimuli_target_circletriangles.svg	9	yes	57	0	374
6.6.1	mac	2022-12-14	19:15:42	19:41:51	1564764	62e0c93d54972f434349eda3	16919031	1	main_z	11	main_z	155	stimuli_distractor_trianglediamonds.svg	stimuli_target_diamondcircles.svg	27	yes	44	1	491
6.6.1	mac	2022-12-14	19:15:42	19:41:51	1564764	62e0c93d54972f434349eda3	16919031	1	main_z	11	advance_on_keypress_ZEE	156	stimuli_distractor_trianglediamonds.svg	stimuli_target_diamondcircles.svg	27	yes	57	0	341
6.6.1	mac	2022-12-14	19:15:42	19:41:52	1566332	62e0c93d54972f434349eda3	16919031	1	main_z	11	main_z	157	stimuli_distractor_trianglediamonds.svg	stimuli_target_squarediamonds.svg	12	yes	44	1	596
6.6.1	mac	2022-12-14	19:15:42	19:41:52	1566332	62e0c93d54972f434349eda3	16919031	1	main_z	11	advance_on_keypress_ZEE	158	stimuli_distractor_trianglediamonds.svg	stimuli_target_squarediamonds.svg	12	yes	57	0	483
6.6.1	mac	2022-12-14	19:15:42	19:41:54	1568071	62e0c93d54972f434349eda3	16919031	1	main_z	11	main_z	159	stimuli_distractor_diamondtriangles.svg	stimuli_distractor_diamondtriangles.svg	39	no	44	0	619
6.6.1	mac	2022-12-14	19:15:42	19:41:54	1568071	62e0c93d54972f434349eda3	16919031	1	main_z	11	advance_on_keypress_ZEE	160	stimuli_distractor_diamondtriangles.svg	stimuli_distractor_diamondtriangles.svg	39	no	57	0	515