build	computer.platform	date	time	timestamp	time_elapsed_ms	subject	group	session	blockcode	blocknum	trialcode	trialnum	stimulus_left	stimulus_right	stim_index	target_present	response	correct	latency
6.6.1	win	2022-12-28	08:49:22	08:52:05	160019	61002c88afbf9f75e079b6e8	666978088	1	practice_z	5	practice_z	1	stimuli_target_circlediamonds.svg	stimuli_distractor_diamondtriangles.svg	1	yes	44	1	598
6.6.1	win	2022-12-28	08:49:22	08:52:05	160019	61002c88afbf9f75e079b6e8	666978088	1	practice_z	5	advance_on_keypress_ZEE	2	stimuli_target_circlediamonds.svg	stimuli_distractor_diamondtriangles.svg	1	yes	57	0	1814
6.6.1	win	2022-12-28	08:49:22	08:52:09	164042	61002c88afbf9f75e079b6e8	666978088	1	practice_z	5	practice_z	3	stimuli_target_squarediamonds.svg	stimuli_distractor_trianglediamonds.svg	5	yes	44	1	555
6.6.1	win	2022-12-28	08:49:22	08:52:09	164042	61002c88afbf9f75e079b6e8	666978088	1	practice_z	5	advance_on_keypress_ZEE	4	stimuli_target_squarediamonds.svg	stimuli_distractor_trianglediamonds.svg	5	yes	57	0	1195
6.6.1	win	2022-12-28	08:49:22	08:52:14	168888	61002c88afbf9f75e079b6e8	666978088	1	practice_z	5	practice_z	5	stimuli_target_diamondsquares.svg	stimuli_distractor_diamondtriangles.svg	3	yes	0	0	2000
6.6.1	win	2022-12-28	08:49:22	08:52:14	168888	61002c88afbf9f75e079b6e8	666978088	1	practice_z	5	advance_on_keypress_ZEE	6	stimuli_target_diamondsquares.svg	stimuli_distractor_diamondtriangles.svg	3	yes	57	0	1059
6.6.1	win	2022-12-28	08:49:22	08:52:17	172125	61002c88afbf9f75e079b6e8	666978088	1	practice_z	5	practice_z	7	stimuli_target_squarediamonds.svg	stimuli_distractor_diamondtriangles.svg	2	yes	44	1	537
6.6.1	win	2022-12-28	08:49:22	08:52:17	172125	61002c88afbf9f75e079b6e8	666978088	1	practice_z	5	advance_on_keypress_ZEE	8	stimuli_target_squarediamonds.svg	stimuli_distractor_diamondtriangles.svg	2	yes	57	0	1470
6.6.1	win	2022-12-28	08:49:22	08:52:21	176415	61002c88afbf9f75e079b6e8	666978088	1	practice_z	5	practice_z	9	stimuli_target_diamondsquares.svg	stimuli_distractor_trianglediamonds.svg	6	yes	44	1	1177
6.6.1	win	2022-12-28	08:49:22	08:52:21	176415	61002c88afbf9f75e079b6e8	666978088	1	practice_z	5	advance_on_keypress_ZEE	10	stimuli_target_diamondsquares.svg	stimuli_distractor_trianglediamonds.svg	6	yes	57	0	713
6.6.1	win	2022-12-28	08:49:22	08:52:24	179303	61002c88afbf9f75e079b6e8	666978088	1	practice_z	5	practice_z	11	stimuli_distractor_diamondtriangles.svg	stimuli_target_trianglecircles.svg	9	yes	44	1	512
6.6.1	win	2022-12-28	08:49:22	08:52:24	179303	61002c88afbf9f75e079b6e8	666978088	1	practice_z	5	advance_on_keypress_ZEE	12	stimuli_distractor_diamondtriangles.svg	stimuli_target_trianglecircles.svg	9	yes	57	0	740
6.6.1	win	2022-12-28	08:49:22	08:52:27	182380	61002c88afbf9f75e079b6e8	666978088	1	practice_z	5	practice_z	13	stimuli_distractor_diamondtriangles.svg	stimuli_target_circletriangles.svg	7	yes	44	1	692
6.6.1	win	2022-12-28	08:49:22	08:52:27	182380	61002c88afbf9f75e079b6e8	666978088	1	practice_z	5	advance_on_keypress_ZEE	14	stimuli_distractor_diamondtriangles.svg	stimuli_target_circletriangles.svg	7	yes	57	0	1872
6.6.1	win	2022-12-28	08:49:22	08:52:31	186478	61002c88afbf9f75e079b6e8	666978088	1	practice_z	5	practice_z	15	stimuli_distractor_diamondtriangles.svg	stimuli_target_diamondcircles.svg	8	yes	44	1	573
6.6.1	win	2022-12-28	08:49:22	08:52:31	186478	61002c88afbf9f75e079b6e8	666978088	1	practice_z	5	advance_on_keypress_ZEE	16	stimuli_distractor_diamondtriangles.svg	stimuli_target_diamondcircles.svg	8	yes	57	0	702
6.6.1	win	2022-12-28	08:49:22	08:52:34	189283	61002c88afbf9f75e079b6e8	666978088	1	practice_z	5	practice_z	17	stimuli_distractor_trianglediamonds.svg	stimuli_target_diamondcircles.svg	12	yes	44	1	445
6.6.1	win	2022-12-28	08:49:22	08:52:34	189283	61002c88afbf9f75e079b6e8	666978088	1	practice_z	5	advance_on_keypress_ZEE	18	stimuli_distractor_trianglediamonds.svg	stimuli_target_diamondcircles.svg	12	yes	57	0	981
6.6.1	win	2022-12-28	08:49:22	08:52:39	193921	61002c88afbf9f75e079b6e8	666978088	1	practice_z	5	practice_z	19	stimuli_distractor_trianglediamonds.svg	stimuli_target_squarediamonds.svg	11	yes	0	0	2000
6.6.1	win	2022-12-28	08:49:22	08:52:39	193921	61002c88afbf9f75e079b6e8	666978088	1	practice_z	5	advance_on_keypress_ZEE	20	stimuli_distractor_trianglediamonds.svg	stimuli_target_squarediamonds.svg	11	yes	57	0	722
6.6.1	win	2022-12-28	08:49:22	08:52:42	196671	61002c88afbf9f75e079b6e8	666978088	1	practice_z	5	practice_z	21	stimuli_target_circlediamonds.svg	stimuli_distractor_trianglediamonds.svg	4	yes	44	1	370
6.6.1	win	2022-12-28	08:49:22	08:52:42	196671	61002c88afbf9f75e079b6e8	666978088	1	practice_z	5	advance_on_keypress_ZEE	22	stimuli_target_circlediamonds.svg	stimuli_distractor_trianglediamonds.svg	4	yes	57	0	432
6.6.1	win	2022-12-28	08:49:22	08:52:46	200756	61002c88afbf9f75e079b6e8	666978088	1	practice_z	5	practice_z	23	stimuli_distractor_trianglediamonds.svg	stimuli_distractor_diamondtriangles.svg	16	no	0	1	2000
6.6.1	win	2022-12-28	08:49:22	08:52:46	200756	61002c88afbf9f75e079b6e8	666978088	1	practice_z	5	advance_on_keypress_ZEE	24	stimuli_distractor_trianglediamonds.svg	stimuli_distractor_diamondtriangles.svg	16	no	57	0	527
6.6.1	win	2022-12-28	08:49:22	08:52:50	204939	61002c88afbf9f75e079b6e8	666978088	1	practice_z	5	practice_z	25	stimuli_distractor_diamondtriangles.svg	stimuli_distractor_diamondtriangles.svg	13	no	0	1	2000
6.6.1	win	2022-12-28	08:49:22	08:52:50	204939	61002c88afbf9f75e079b6e8	666978088	1	practice_z	5	advance_on_keypress_ZEE	26	stimuli_distractor_diamondtriangles.svg	stimuli_distractor_diamondtriangles.svg	13	no	57	0	469
6.6.1	win	2022-12-28	08:49:22	08:52:54	209055	61002c88afbf9f75e079b6e8	666978088	1	practice_z	5	practice_z	27	stimuli_distractor_diamondtriangles.svg	stimuli_distractor_trianglediamonds.svg	14	no	0	1	2000
6.6.1	win	2022-12-28	08:49:22	08:52:54	209055	61002c88afbf9f75e079b6e8	666978088	1	practice_z	5	advance_on_keypress_ZEE	28	stimuli_distractor_diamondtriangles.svg	stimuli_distractor_trianglediamonds.svg	14	no	57	0	467
6.6.1	win	2022-12-28	08:49:22	08:52:58	213172	61002c88afbf9f75e079b6e8	666978088	1	practice_z	5	practice_z	29	stimuli_distractor_trianglediamonds.svg	stimuli_distractor_trianglediamonds.svg	15	no	0	1	2000
6.6.1	win	2022-12-28	08:49:22	08:52:58	213172	61002c88afbf9f75e079b6e8	666978088	1	practice_z	5	advance_on_keypress_ZEE	30	stimuli_distractor_trianglediamonds.svg	stimuli_distractor_trianglediamonds.svg	15	no	57	0	422
6.6.1	win	2022-12-28	08:49:22	08:53:01	216172	61002c88afbf9f75e079b6e8	666978088	1	practice_z	5	practice_z	31	stimuli_distractor_trianglediamonds.svg	stimuli_target_circlediamonds.svg	10	yes	44	1	933
6.6.1	win	2022-12-28	08:49:22	08:53:01	216172	61002c88afbf9f75e079b6e8	666978088	1	practice_z	5	advance_on_keypress_ZEE	32	stimuli_distractor_trianglediamonds.svg	stimuli_target_circlediamonds.svg	10	yes	57	0	709
6.6.1	win	2022-12-28	08:49:22	08:53:10	225299	61002c88afbf9f75e079b6e8	666978088	1	main_z	7	main_z	1	stimuli_distractor_trianglediamonds.svg	stimuli_target_trianglesquares.svg	26	yes	44	1	1544
6.6.1	win	2022-12-28	08:49:22	08:53:10	225299	61002c88afbf9f75e079b6e8	666978088	1	main_z	7	advance_on_keypress_ZEE	2	stimuli_distractor_trianglediamonds.svg	stimuli_target_trianglesquares.svg	26	yes	57	0	1238
6.6.1	win	2022-12-28	08:49:22	08:53:13	228188	61002c88afbf9f75e079b6e8	666978088	1	main_z	7	main_z	3	stimuli_target_trianglesquares.svg	stimuli_distractor_diamondtriangles.svg	22	yes	44	1	999
6.6.1	win	2022-12-28	08:49:22	08:53:13	228188	61002c88afbf9f75e079b6e8	666978088	1	main_z	7	advance_on_keypress_ZEE	4	stimuli_target_trianglesquares.svg	stimuli_distractor_diamondtriangles.svg	22	yes	57	0	920
6.6.1	win	2022-12-28	08:49:22	08:53:16	230859	61002c88afbf9f75e079b6e8	666978088	1	main_z	7	main_z	5	stimuli_distractor_trianglediamonds.svg	stimuli_target_squaretriangles.svg	11	yes	44	1	1104
6.6.1	win	2022-12-28	08:49:22	08:53:16	230859	61002c88afbf9f75e079b6e8	666978088	1	main_z	7	advance_on_keypress_ZEE	6	stimuli_distractor_trianglediamonds.svg	stimuli_target_squaretriangles.svg	11	yes	57	0	607
6.6.1	win	2022-12-28	08:49:22	08:53:19	234106	61002c88afbf9f75e079b6e8	666978088	1	main_z	7	main_z	7	stimuli_distractor_trianglediamonds.svg	stimuli_distractor_trianglediamonds.svg	33	no	0	1	2000
6.6.1	win	2022-12-28	08:49:22	08:53:19	234106	61002c88afbf9f75e079b6e8	666978088	1	main_z	7	advance_on_keypress_ZEE	8	stimuli_distractor_trianglediamonds.svg	stimuli_distractor_trianglediamonds.svg	33	no	57	0	607
6.6.1	win	2022-12-28	08:49:22	08:53:22	237356	61002c88afbf9f75e079b6e8	666978088	1	main_z	7	main_z	9	stimuli_distractor_diamondtriangles.svg	stimuli_distractor_trianglediamonds.svg	38	no	0	1	2000
6.6.1	win	2022-12-28	08:49:22	08:53:22	237356	61002c88afbf9f75e079b6e8	666978088	1	main_z	7	advance_on_keypress_ZEE	10	stimuli_distractor_diamondtriangles.svg	stimuli_distractor_trianglediamonds.svg	38	no	57	0	625
6.6.1	win	2022-12-28	08:49:22	08:53:26	240623	61002c88afbf9f75e079b6e8	666978088	1	main_z	7	main_z	11	stimuli_distractor_diamondtriangles.svg	stimuli_distractor_diamondtriangles.svg	39	no	0	1	2000
6.6.1	win	2022-12-28	08:49:22	08:53:26	240623	61002c88afbf9f75e079b6e8	666978088	1	main_z	7	advance_on_keypress_ZEE	12	stimuli_distractor_diamondtriangles.svg	stimuli_distractor_diamondtriangles.svg	39	no	57	0	746
6.6.1	win	2022-12-28	08:49:22	08:53:28	242678	61002c88afbf9f75e079b6e8	666978088	1	main_z	7	main_z	13	stimuli_distractor_trianglediamonds.svg	stimuli_target_diamondsquares.svg	28	yes	44	1	672
6.6.1	win	2022-12-28	08:49:22	08:53:28	242678	61002c88afbf9f75e079b6e8	666978088	1	main_z	7	advance_on_keypress_ZEE	14	stimuli_distractor_trianglediamonds.svg	stimuli_target_diamondsquares.svg	28	yes	57	0	1058
6.6.1	win	2022-12-28	08:49:22	08:53:31	245768	61002c88afbf9f75e079b6e8	666978088	1	main_z	7	main_z	15	stimuli_distractor_diamondtriangles.svg	stimuli_target_trianglesquares.svg	30	yes	44	1	1395
6.6.1	win	2022-12-28	08:49:22	08:53:31	245768	61002c88afbf9f75e079b6e8	666978088	1	main_z	7	advance_on_keypress_ZEE	16	stimuli_distractor_diamondtriangles.svg	stimuli_target_trianglesquares.svg	30	yes	57	0	722
6.6.1	win	2022-12-28	08:49:22	08:53:33	247947	61002c88afbf9f75e079b6e8	666978088	1	main_z	7	main_z	17	stimuli_target_diamondsquares.svg	stimuli_distractor_trianglediamonds.svg	20	yes	44	1	808
6.6.1	win	2022-12-28	08:49:22	08:53:33	247947	61002c88afbf9f75e079b6e8	666978088	1	main_z	7	advance_on_keypress_ZEE	18	stimuli_target_diamondsquares.svg	stimuli_distractor_trianglediamonds.svg	20	yes	57	0	901
6.6.1	win	2022-12-28	08:49:22	08:53:35	250077	61002c88afbf9f75e079b6e8	666978088	1	main_z	7	main_z	19	stimuli_target_circletriangles.svg	stimuli_distractor_trianglediamonds.svg	1	yes	44	1	588
6.6.1	win	2022-12-28	08:49:22	08:53:35	250077	61002c88afbf9f75e079b6e8	666978088	1	main_z	7	advance_on_keypress_ZEE	20	stimuli_target_circletriangles.svg	stimuli_distractor_trianglediamonds.svg	1	yes	57	0	2566
6.6.1	win	2022-12-28	08:49:22	08:53:39	253883	61002c88afbf9f75e079b6e8	666978088	1	main_z	7	main_z	21	stimuli_target_squaretriangles.svg	stimuli_distractor_diamondtriangles.svg	7	yes	44	1	593
6.6.1	win	2022-12-28	08:49:22	08:53:39	253883	61002c88afbf9f75e079b6e8	666978088	1	main_z	7	advance_on_keypress_ZEE	22	stimuli_target_squaretriangles.svg	stimuli_distractor_diamondtriangles.svg	7	yes	57	0	729
6.6.1	win	2022-12-28	08:49:22	08:53:41	256058	61002c88afbf9f75e079b6e8	666978088	1	main_z	7	main_z	23	stimuli_distractor_diamondtriangles.svg	stimuli_target_squaretriangles.svg	15	yes	44	1	802
6.6.1	win	2022-12-28	08:49:22	08:53:41	256058	61002c88afbf9f75e079b6e8	666978088	1	main_z	7	advance_on_keypress_ZEE	24	stimuli_distractor_diamondtriangles.svg	stimuli_target_squaretriangles.svg	15	yes	57	0	1304
6.6.1	win	2022-12-28	08:49:22	08:53:45	260007	61002c88afbf9f75e079b6e8	666978088	1	main_z	7	main_z	25	stimuli_distractor_diamondtriangles.svg	stimuli_distractor_trianglediamonds.svg	37	no	0	1	2000
6.6.1	win	2022-12-28	08:49:22	08:53:45	260007	61002c88afbf9f75e079b6e8	666978088	1	main_z	7	advance_on_keypress_ZEE	26	stimuli_distractor_diamondtriangles.svg	stimuli_distractor_trianglediamonds.svg	37	no	57	0	785
6.6.1	win	2022-12-28	08:49:22	08:53:47	262335	61002c88afbf9f75e079b6e8	666978088	1	main_z	7	main_z	27	stimuli_distractor_diamondtriangles.svg	stimuli_target_diamondsquares.svg	32	yes	44	1	895
6.6.1	win	2022-12-28	08:49:22	08:53:47	262335	61002c88afbf9f75e079b6e8	666978088	1	main_z	7	advance_on_keypress_ZEE	28	stimuli_distractor_diamondtriangles.svg	stimuli_target_diamondsquares.svg	32	yes	57	0	1272
6.6.1	win	2022-12-28	08:49:22	08:53:50	264818	61002c88afbf9f75e079b6e8	666978088	1	main_z	7	main_z	29	stimuli_target_squarediamonds.svg	stimuli_distractor_trianglediamonds.svg	4	yes	44	1	561
6.6.1	win	2022-12-28	08:49:22	08:53:50	264818	61002c88afbf9f75e079b6e8	666978088	1	main_z	7	advance_on_keypress_ZEE	30	stimuli_target_squarediamonds.svg	stimuli_distractor_trianglediamonds.svg	4	yes	57	0	1293
6.6.1	win	2022-12-28	08:49:22	08:53:52	267282	61002c88afbf9f75e079b6e8	666978088	1	main_z	7	main_z	31	stimuli_target_squaretriangles.svg	stimuli_distractor_trianglediamonds.svg	3	yes	44	1	525
6.6.1	win	2022-12-28	08:49:22	08:53:52	267282	61002c88afbf9f75e079b6e8	666978088	1	main_z	7	advance_on_keypress_ZEE	32	stimuli_target_squaretriangles.svg	stimuli_distractor_trianglediamonds.svg	3	yes	57	0	1134
6.6.1	win	2022-12-28	08:49:22	08:53:54	269422	61002c88afbf9f75e079b6e8	666978088	1	main_z	7	main_z	33	stimuli_target_diamondcircles.svg	stimuli_distractor_trianglediamonds.svg	19	yes	44	1	349
6.6.1	win	2022-12-28	08:49:22	08:53:54	269422	61002c88afbf9f75e079b6e8	666978088	1	main_z	7	advance_on_keypress_ZEE	34	stimuli_target_diamondcircles.svg	stimuli_distractor_trianglediamonds.svg	19	yes	57	0	1043
6.6.1	win	2022-12-28	08:49:22	08:53:56	271501	61002c88afbf9f75e079b6e8	666978088	1	main_z	7	main_z	35	stimuli_target_trianglecircles.svg	stimuli_distractor_diamondtriangles.svg	21	yes	44	1	394
6.6.1	win	2022-12-28	08:49:22	08:53:56	271501	61002c88afbf9f75e079b6e8	666978088	1	main_z	7	advance_on_keypress_ZEE	36	stimuli_target_trianglecircles.svg	stimuli_distractor_diamondtriangles.svg	21	yes	57	0	1543
6.6.1	win	2022-12-28	08:49:22	08:53:59	274217	61002c88afbf9f75e079b6e8	666978088	1	main_z	7	main_z	37	stimuli_distractor_trianglediamonds.svg	stimuli_target_squarediamonds.svg	12	yes	44	1	527
6.6.1	win	2022-12-28	08:49:22	08:53:59	274217	61002c88afbf9f75e079b6e8	666978088	1	main_z	7	advance_on_keypress_ZEE	38	stimuli_distractor_trianglediamonds.svg	stimuli_target_squarediamonds.svg	12	yes	57	0	1064
6.6.1	win	2022-12-28	08:49:22	08:54:01	276275	61002c88afbf9f75e079b6e8	666978088	1	main_z	7	main_z	39	stimuli_target_circlediamonds.svg	stimuli_distractor_trianglediamonds.svg	2	yes	44	1	335
6.6.1	win	2022-12-28	08:49:22	08:54:01	276275	61002c88afbf9f75e079b6e8	666978088	1	main_z	7	advance_on_keypress_ZEE	40	stimuli_target_circlediamonds.svg	stimuli_distractor_trianglediamonds.svg	2	yes	57	0	1300
6.6.1	win	2022-12-28	08:49:22	08:54:04	278979	61002c88afbf9f75e079b6e8	666978088	1	main_z	7	main_z	41	stimuli_distractor_diamondtriangles.svg	stimuli_target_circletriangles.svg	13	yes	44	1	755
6.6.1	win	2022-12-28	08:49:22	08:54:04	278979	61002c88afbf9f75e079b6e8	666978088	1	main_z	7	advance_on_keypress_ZEE	42	stimuli_distractor_diamondtriangles.svg	stimuli_target_circletriangles.svg	13	yes	57	0	1200
6.6.1	win	2022-12-28	08:49:22	08:54:06	281244	61002c88afbf9f75e079b6e8	666978088	1	main_z	7	main_z	43	stimuli_target_trianglecircles.svg	stimuli_distractor_trianglediamonds.svg	17	yes	44	1	420
6.6.1	win	2022-12-28	08:49:22	08:54:06	281244	61002c88afbf9f75e079b6e8	666978088	1	main_z	7	advance_on_keypress_ZEE	44	stimuli_target_trianglecircles.svg	stimuli_distractor_trianglediamonds.svg	17	yes	57	0	1717
6.6.1	win	2022-12-28	08:49:22	08:54:09	283958	61002c88afbf9f75e079b6e8	666978088	1	main_z	7	main_z	45	stimuli_distractor_trianglediamonds.svg	stimuli_target_circlediamonds.svg	10	yes	44	1	351
6.6.1	win	2022-12-28	08:49:22	08:54:09	283958	61002c88afbf9f75e079b6e8	666978088	1	main_z	7	advance_on_keypress_ZEE	46	stimuli_distractor_trianglediamonds.svg	stimuli_target_circlediamonds.svg	10	yes	57	0	774
6.6.1	win	2022-12-28	08:49:22	08:54:11	285710	61002c88afbf9f75e079b6e8	666978088	1	main_z	7	main_z	47	stimuli_distractor_diamondtriangles.svg	stimuli_target_trianglecircles.svg	29	yes	44	1	336
6.6.1	win	2022-12-28	08:49:22	08:54:11	285710	61002c88afbf9f75e079b6e8	666978088	1	main_z	7	advance_on_keypress_ZEE	48	stimuli_distractor_diamondtriangles.svg	stimuli_target_trianglecircles.svg	29	yes	57	0	1339
6.6.1	win	2022-12-28	08:49:22	08:54:13	288077	61002c88afbf9f75e079b6e8	666978088	1	main_z	7	main_z	49	stimuli_distractor_trianglediamonds.svg	stimuli_target_circletriangles.svg	9	yes	44	1	386
6.6.1	win	2022-12-28	08:49:22	08:54:13	288077	61002c88afbf9f75e079b6e8	666978088	1	main_z	7	advance_on_keypress_ZEE	50	stimuli_distractor_trianglediamonds.svg	stimuli_target_circletriangles.svg	9	yes	57	0	877
6.6.1	win	2022-12-28	08:49:22	08:54:15	290115	61002c88afbf9f75e079b6e8	666978088	1	main_z	7	main_z	51	stimuli_distractor_trianglediamonds.svg	stimuli_distractor_diamondtriangles.svg	36	no	44	0	524
6.6.1	win	2022-12-28	08:49:22	08:54:15	290115	61002c88afbf9f75e079b6e8	666978088	1	main_z	7	advance_on_keypress_ZEE	52	stimuli_distractor_trianglediamonds.svg	stimuli_distractor_diamondtriangles.svg	36	no	57	0	1155
6.6.1	win	2022-12-28	08:49:22	08:54:17	292419	61002c88afbf9f75e079b6e8	666978088	1	main_z	7	main_z	53	stimuli_target_squarediamonds.svg	stimuli_distractor_diamondtriangles.svg	8	yes	44	1	495
6.6.1	win	2022-12-28	08:49:22	08:54:17	292419	61002c88afbf9f75e079b6e8	666978088	1	main_z	7	advance_on_keypress_ZEE	54	stimuli_target_squarediamonds.svg	stimuli_distractor_diamondtriangles.svg	8	yes	57	0	945
6.6.1	win	2022-12-28	08:49:22	08:54:21	296008	61002c88afbf9f75e079b6e8	666978088	1	main_z	7	main_z	55	stimuli_distractor_trianglediamonds.svg	stimuli_distractor_trianglediamonds.svg	34	no	0	1	2000
6.6.1	win	2022-12-28	08:49:22	08:54:21	296008	61002c88afbf9f75e079b6e8	666978088	1	main_z	7	advance_on_keypress_ZEE	56	stimuli_distractor_trianglediamonds.svg	stimuli_distractor_trianglediamonds.svg	34	no	57	0	1958
6.6.1	win	2022-12-28	08:49:22	08:54:26	300608	61002c88afbf9f75e079b6e8	666978088	1	main_z	7	main_z	57	stimuli_distractor_diamondtriangles.svg	stimuli_distractor_diamondtriangles.svg	40	no	0	1	2000
6.6.1	win	2022-12-28	08:49:22	08:54:26	300608	61002c88afbf9f75e079b6e8	666978088	1	main_z	7	advance_on_keypress_ZEE	58	stimuli_distractor_diamondtriangles.svg	stimuli_distractor_diamondtriangles.svg	40	no	57	0	24
6.6.1	win	2022-12-28	08:49:22	08:54:27	302063	61002c88afbf9f75e079b6e8	666978088	1	main_z	7	main_z	59	stimuli_distractor_diamondtriangles.svg	stimuli_target_diamondcircles.svg	31	yes	44	1	788
6.6.1	win	2022-12-28	08:49:22	08:54:27	302063	61002c88afbf9f75e079b6e8	666978088	1	main_z	7	advance_on_keypress_ZEE	60	stimuli_distractor_diamondtriangles.svg	stimuli_target_diamondcircles.svg	31	yes	57	0	2260
6.6.1	win	2022-12-28	08:49:22	08:54:30	305492	61002c88afbf9f75e079b6e8	666978088	1	main_z	7	main_z	61	stimuli_distractor_diamondtriangles.svg	stimuli_target_circlediamonds.svg	14	yes	44	1	534
6.6.1	win	2022-12-28	08:49:22	08:54:30	305492	61002c88afbf9f75e079b6e8	666978088	1	main_z	7	advance_on_keypress_ZEE	62	stimuli_distractor_diamondtriangles.svg	stimuli_target_circlediamonds.svg	14	yes	57	0	1214
6.6.1	win	2022-12-28	08:49:22	08:54:34	309342	61002c88afbf9f75e079b6e8	666978088	1	main_z	7	main_z	63	stimuli_distractor_trianglediamonds.svg	stimuli_distractor_diamondtriangles.svg	35	no	0	1	2000
6.6.1	win	2022-12-28	08:49:22	08:54:34	309342	61002c88afbf9f75e079b6e8	666978088	1	main_z	7	advance_on_keypress_ZEE	64	stimuli_distractor_trianglediamonds.svg	stimuli_distractor_diamondtriangles.svg	35	no	57	0	1167
6.6.1	win	2022-12-28	08:49:22	08:54:36	311473	61002c88afbf9f75e079b6e8	666978088	1	main_z	7	main_z	65	stimuli_target_diamondcircles.svg	stimuli_distractor_diamondtriangles.svg	23	yes	44	1	315
6.6.1	win	2022-12-28	08:49:22	08:54:36	311473	61002c88afbf9f75e079b6e8	666978088	1	main_z	7	advance_on_keypress_ZEE	66	stimuli_target_diamondcircles.svg	stimuli_distractor_diamondtriangles.svg	23	yes	57	0	1488
6.6.1	win	2022-12-28	08:49:22	08:54:39	314142	61002c88afbf9f75e079b6e8	666978088	1	main_z	7	main_z	67	stimuli_target_diamondsquares.svg	stimuli_distractor_diamondtriangles.svg	24	yes	44	1	534
6.6.1	win	2022-12-28	08:49:22	08:54:39	314142	61002c88afbf9f75e079b6e8	666978088	1	main_z	7	advance_on_keypress_ZEE	68	stimuli_target_diamondsquares.svg	stimuli_distractor_diamondtriangles.svg	24	yes	57	0	1089
6.6.1	win	2022-12-28	08:49:22	08:54:41	316278	61002c88afbf9f75e079b6e8	666978088	1	main_z	7	main_z	69	stimuli_target_circlediamonds.svg	stimuli_distractor_diamondtriangles.svg	6	yes	44	1	403
6.6.1	win	2022-12-28	08:49:22	08:54:41	316278	61002c88afbf9f75e079b6e8	666978088	1	main_z	7	advance_on_keypress_ZEE	70	stimuli_target_circlediamonds.svg	stimuli_distractor_diamondtriangles.svg	6	yes	57	0	1585
6.6.1	win	2022-12-28	08:49:22	08:54:44	319049	61002c88afbf9f75e079b6e8	666978088	1	main_z	7	main_z	71	stimuli_target_trianglesquares.svg	stimuli_distractor_trianglediamonds.svg	18	yes	44	1	541
6.6.1	win	2022-12-28	08:49:22	08:54:44	319049	61002c88afbf9f75e079b6e8	666978088	1	main_z	7	advance_on_keypress_ZEE	72	stimuli_target_trianglesquares.svg	stimuli_distractor_trianglediamonds.svg	18	yes	57	0	982
6.6.1	win	2022-12-28	08:49:22	08:54:46	321564	61002c88afbf9f75e079b6e8	666978088	1	main_z	7	main_z	73	stimuli_distractor_diamondtriangles.svg	stimuli_target_squarediamonds.svg	16	yes	44	1	872
6.6.1	win	2022-12-28	08:49:22	08:54:46	321564	61002c88afbf9f75e079b6e8	666978088	1	main_z	7	advance_on_keypress_ZEE	74	stimuli_distractor_diamondtriangles.svg	stimuli_target_squarediamonds.svg	16	yes	57	0	1156
6.6.1	win	2022-12-28	08:49:22	08:54:49	323742	61002c88afbf9f75e079b6e8	666978088	1	main_z	7	main_z	75	stimuli_distractor_trianglediamonds.svg	stimuli_target_trianglecircles.svg	25	yes	44	1	372
6.6.1	win	2022-12-28	08:49:22	08:54:49	323742	61002c88afbf9f75e079b6e8	666978088	1	main_z	7	advance_on_keypress_ZEE	76	stimuli_distractor_trianglediamonds.svg	stimuli_target_trianglecircles.svg	25	yes	57	0	1084
6.6.1	win	2022-12-28	08:49:22	08:54:51	325922	61002c88afbf9f75e079b6e8	666978088	1	main_z	7	main_z	77	stimuli_distractor_trianglediamonds.svg	stimuli_target_diamondcircles.svg	27	yes	44	1	447
6.6.1	win	2022-12-28	08:49:22	08:54:51	325922	61002c88afbf9f75e079b6e8	666978088	1	main_z	7	advance_on_keypress_ZEE	78	stimuli_distractor_trianglediamonds.svg	stimuli_target_diamondcircles.svg	27	yes	57	0	1025
6.6.1	win	2022-12-28	08:49:22	08:54:54	329592	61002c88afbf9f75e079b6e8	666978088	1	main_z	7	main_z	79	stimuli_target_circletriangles.svg	stimuli_distractor_diamondtriangles.svg	5	yes	0	0	2000
6.6.1	win	2022-12-28	08:49:22	08:54:54	329592	61002c88afbf9f75e079b6e8	666978088	1	main_z	7	advance_on_keypress_ZEE	80	stimuli_target_circletriangles.svg	stimuli_distractor_diamondtriangles.svg	5	yes	57	0	666
6.6.1	win	2022-12-28	08:49:22	08:54:56	331269	61002c88afbf9f75e079b6e8	666978088	1	main_z	7	main_z	81	stimuli_target_circletriangles.svg	stimuli_distractor_diamondtriangles.svg	5	yes	44	1	360
6.6.1	win	2022-12-28	08:49:22	08:54:56	331269	61002c88afbf9f75e079b6e8	666978088	1	main_z	7	advance_on_keypress_ZEE	82	stimuli_target_circletriangles.svg	stimuli_distractor_diamondtriangles.svg	5	yes	57	0	761
6.6.1	win	2022-12-28	08:49:22	08:54:58	333194	61002c88afbf9f75e079b6e8	666978088	1	main_z	7	main_z	83	stimuli_target_diamondsquares.svg	stimuli_distractor_diamondtriangles.svg	24	yes	44	1	518
6.6.1	win	2022-12-28	08:49:22	08:54:58	333194	61002c88afbf9f75e079b6e8	666978088	1	main_z	7	advance_on_keypress_ZEE	84	stimuli_target_diamondsquares.svg	stimuli_distractor_diamondtriangles.svg	24	yes	57	0	763
6.6.1	win	2022-12-28	08:49:22	08:55:01	336593	61002c88afbf9f75e079b6e8	666978088	1	main_z	7	main_z	85	stimuli_distractor_diamondtriangles.svg	stimuli_distractor_diamondtriangles.svg	39	no	0	1	2000
6.6.1	win	2022-12-28	08:49:22	08:55:01	336593	61002c88afbf9f75e079b6e8	666978088	1	main_z	7	advance_on_keypress_ZEE	86	stimuli_distractor_diamondtriangles.svg	stimuli_distractor_diamondtriangles.svg	39	no	57	0	504
6.6.1	win	2022-12-28	08:49:22	08:55:05	339743	61002c88afbf9f75e079b6e8	666978088	1	main_z	7	main_z	87	stimuli_distractor_diamondtriangles.svg	stimuli_distractor_trianglediamonds.svg	38	no	0	1	2000
6.6.1	win	2022-12-28	08:49:22	08:55:05	339743	61002c88afbf9f75e079b6e8	666978088	1	main_z	7	advance_on_keypress_ZEE	88	stimuli_distractor_diamondtriangles.svg	stimuli_distractor_trianglediamonds.svg	38	no	57	0	3046
6.6.1	win	2022-12-28	08:49:22	08:55:09	343851	61002c88afbf9f75e079b6e8	666978088	1	main_z	7	main_z	89	stimuli_distractor_trianglediamonds.svg	stimuli_target_diamondcircles.svg	27	yes	44	1	425
6.6.1	win	2022-12-28	08:49:22	08:55:09	343851	61002c88afbf9f75e079b6e8	666978088	1	main_z	7	advance_on_keypress_ZEE	90	stimuli_distractor_trianglediamonds.svg	stimuli_target_diamondcircles.svg	27	yes	57	0	891
6.6.1	win	2022-12-28	08:49:22	08:55:12	347393	61002c88afbf9f75e079b6e8	666978088	1	main_z	7	main_z	91	stimuli_distractor_trianglediamonds.svg	stimuli_distractor_diamondtriangles.svg	36	no	0	1	2000
6.6.1	win	2022-12-28	08:49:22	08:55:12	347393	61002c88afbf9f75e079b6e8	666978088	1	main_z	7	advance_on_keypress_ZEE	92	stimuli_distractor_trianglediamonds.svg	stimuli_distractor_diamondtriangles.svg	36	no	57	0	600
6.6.1	win	2022-12-28	08:49:22	08:55:14	349130	61002c88afbf9f75e079b6e8	666978088	1	main_z	7	main_z	93	stimuli_distractor_diamondtriangles.svg	stimuli_target_trianglecircles.svg	29	yes	44	1	487
6.6.1	win	2022-12-28	08:49:22	08:55:14	349130	61002c88afbf9f75e079b6e8	666978088	1	main_z	7	advance_on_keypress_ZEE	94	stimuli_distractor_diamondtriangles.svg	stimuli_target_trianglecircles.svg	29	yes	57	0	946
6.6.1	win	2022-12-28	08:49:22	08:55:16	351033	61002c88afbf9f75e079b6e8	666978088	1	main_z	7	main_z	95	stimuli_target_circlediamonds.svg	stimuli_distractor_diamondtriangles.svg	6	yes	44	1	323
6.6.1	win	2022-12-28	08:49:22	08:55:16	351033	61002c88afbf9f75e079b6e8	666978088	1	main_z	7	advance_on_keypress_ZEE	96	stimuli_target_circlediamonds.svg	stimuli_distractor_diamondtriangles.svg	6	yes	57	0	1242
6.6.1	win	2022-12-28	08:49:22	08:55:18	353392	61002c88afbf9f75e079b6e8	666978088	1	main_z	7	main_z	97	stimuli_target_diamondsquares.svg	stimuli_distractor_trianglediamonds.svg	20	yes	44	1	482
6.6.1	win	2022-12-28	08:49:22	08:55:18	353392	61002c88afbf9f75e079b6e8	666978088	1	main_z	7	advance_on_keypress_ZEE	98	stimuli_target_diamondsquares.svg	stimuli_distractor_trianglediamonds.svg	20	yes	57	0	755
6.6.1	win	2022-12-28	08:49:22	08:55:20	355567	61002c88afbf9f75e079b6e8	666978088	1	main_z	7	main_z	99	stimuli_distractor_trianglediamonds.svg	stimuli_target_trianglesquares.svg	26	yes	44	1	773
6.6.1	win	2022-12-28	08:49:22	08:55:20	355567	61002c88afbf9f75e079b6e8	666978088	1	main_z	7	advance_on_keypress_ZEE	100	stimuli_distractor_trianglediamonds.svg	stimuli_target_trianglesquares.svg	26	yes	57	0	874
6.6.1	win	2022-12-28	08:49:22	08:55:22	357478	61002c88afbf9f75e079b6e8	666978088	1	main_z	7	main_z	101	stimuli_distractor_trianglediamonds.svg	stimuli_target_trianglecircles.svg	25	yes	44	1	385
6.6.1	win	2022-12-28	08:49:22	08:55:22	357478	61002c88afbf9f75e079b6e8	666978088	1	main_z	7	advance_on_keypress_ZEE	102	stimuli_distractor_trianglediamonds.svg	stimuli_target_trianglecircles.svg	25	yes	57	0	764
6.6.1	win	2022-12-28	08:49:22	08:55:24	359331	61002c88afbf9f75e079b6e8	666978088	1	main_z	7	main_z	103	stimuli_target_circlediamonds.svg	stimuli_distractor_trianglediamonds.svg	2	yes	44	1	454
6.6.1	win	2022-12-28	08:49:22	08:55:24	359331	61002c88afbf9f75e079b6e8	666978088	1	main_z	7	advance_on_keypress_ZEE	104	stimuli_target_circlediamonds.svg	stimuli_distractor_trianglediamonds.svg	2	yes	57	0	860
6.6.1	win	2022-12-28	08:49:22	08:55:28	362827	61002c88afbf9f75e079b6e8	666978088	1	main_z	7	main_z	105	stimuli_distractor_trianglediamonds.svg	stimuli_distractor_diamondtriangles.svg	35	no	0	1	2000
6.6.1	win	2022-12-28	08:49:22	08:55:28	362827	61002c88afbf9f75e079b6e8	666978088	1	main_z	7	advance_on_keypress_ZEE	106	stimuli_distractor_trianglediamonds.svg	stimuli_distractor_diamondtriangles.svg	35	no	57	0	621
6.6.1	win	2022-12-28	08:49:22	08:55:29	364477	61002c88afbf9f75e079b6e8	666978088	1	main_z	7	main_z	107	stimuli_target_diamondcircles.svg	stimuli_distractor_trianglediamonds.svg	19	yes	44	1	378
6.6.1	win	2022-12-28	08:49:22	08:55:29	364477	61002c88afbf9f75e079b6e8	666978088	1	main_z	7	advance_on_keypress_ZEE	108	stimuli_target_diamondcircles.svg	stimuli_distractor_trianglediamonds.svg	19	yes	57	0	762
6.6.1	win	2022-12-28	08:49:22	08:55:33	367877	61002c88afbf9f75e079b6e8	666978088	1	main_z	7	main_z	109	stimuli_distractor_diamondtriangles.svg	stimuli_target_squaretriangles.svg	15	yes	0	0	2000
6.6.1	win	2022-12-28	08:49:22	08:55:33	367877	61002c88afbf9f75e079b6e8	666978088	1	main_z	7	advance_on_keypress_ZEE	110	stimuli_distractor_diamondtriangles.svg	stimuli_target_squaretriangles.svg	15	yes	57	0	582
6.6.1	win	2022-12-28	08:49:22	08:55:35	369956	61002c88afbf9f75e079b6e8	666978088	1	main_z	7	main_z	111	stimuli_distractor_diamondtriangles.svg	stimuli_target_trianglesquares.svg	30	yes	44	1	846
6.6.1	win	2022-12-28	08:49:22	08:55:35	369956	61002c88afbf9f75e079b6e8	666978088	1	main_z	7	advance_on_keypress_ZEE	112	stimuli_distractor_diamondtriangles.svg	stimuli_target_trianglesquares.svg	30	yes	57	0	792
6.6.1	win	2022-12-28	08:49:22	08:55:37	371743	61002c88afbf9f75e079b6e8	666978088	1	main_z	7	main_z	113	stimuli_target_trianglesquares.svg	stimuli_distractor_diamondtriangles.svg	22	yes	44	1	349
6.6.1	win	2022-12-28	08:49:22	08:55:37	371743	61002c88afbf9f75e079b6e8	666978088	1	main_z	7	advance_on_keypress_ZEE	114	stimuli_target_trianglesquares.svg	stimuli_distractor_diamondtriangles.svg	22	yes	57	0	3281
6.6.1	win	2022-12-28	08:49:22	08:55:41	376035	61002c88afbf9f75e079b6e8	666978088	1	main_z	7	main_z	115	stimuli_distractor_diamondtriangles.svg	stimuli_target_diamondcircles.svg	31	yes	44	1	358
6.6.1	win	2022-12-28	08:49:22	08:55:41	376035	61002c88afbf9f75e079b6e8	666978088	1	main_z	7	advance_on_keypress_ZEE	116	stimuli_distractor_diamondtriangles.svg	stimuli_target_diamondcircles.svg	31	yes	57	0	813
6.6.1	win	2022-12-28	08:49:22	08:55:43	378083	61002c88afbf9f75e079b6e8	666978088	1	main_z	7	main_z	117	stimuli_distractor_trianglediamonds.svg	stimuli_target_circlediamonds.svg	10	yes	44	1	589
6.6.1	win	2022-12-28	08:49:22	08:55:43	378083	61002c88afbf9f75e079b6e8	666978088	1	main_z	7	advance_on_keypress_ZEE	118	stimuli_distractor_trianglediamonds.svg	stimuli_target_circlediamonds.svg	10	yes	57	0	704
6.6.1	win	2022-12-28	08:49:22	08:55:45	379846	61002c88afbf9f75e079b6e8	666978088	1	main_z	7	main_z	119	stimuli_target_squarediamonds.svg	stimuli_distractor_trianglediamonds.svg	4	yes	44	1	402
6.6.1	win	2022-12-28	08:49:22	08:55:45	379846	61002c88afbf9f75e079b6e8	666978088	1	main_z	7	advance_on_keypress_ZEE	120	stimuli_target_squarediamonds.svg	stimuli_distractor_trianglediamonds.svg	4	yes	57	0	650
6.6.1	win	2022-12-28	08:49:22	08:55:46	381488	61002c88afbf9f75e079b6e8	666978088	1	main_z	7	main_z	121	stimuli_target_squarediamonds.svg	stimuli_distractor_diamondtriangles.svg	8	yes	44	1	344
6.6.1	win	2022-12-28	08:49:22	08:55:46	381488	61002c88afbf9f75e079b6e8	666978088	1	main_z	7	advance_on_keypress_ZEE	122	stimuli_target_squarediamonds.svg	stimuli_distractor_diamondtriangles.svg	8	yes	57	0	681
6.6.1	win	2022-12-28	08:49:22	08:55:48	383395	61002c88afbf9f75e079b6e8	666978088	1	main_z	7	main_z	123	stimuli_distractor_trianglediamonds.svg	stimuli_target_squaretriangles.svg	11	yes	44	1	568
6.6.1	win	2022-12-28	08:49:22	08:55:48	383395	61002c88afbf9f75e079b6e8	666978088	1	main_z	7	advance_on_keypress_ZEE	124	stimuli_distractor_trianglediamonds.svg	stimuli_target_squaretriangles.svg	11	yes	57	0	622
6.6.1	win	2022-12-28	08:49:22	08:55:50	385056	61002c88afbf9f75e079b6e8	666978088	1	main_z	7	main_z	125	stimuli_distractor_trianglediamonds.svg	stimuli_target_squarediamonds.svg	12	yes	44	1	395
6.6.1	win	2022-12-28	08:49:22	08:55:50	385056	61002c88afbf9f75e079b6e8	666978088	1	main_z	7	advance_on_keypress_ZEE	126	stimuli_distractor_trianglediamonds.svg	stimuli_target_squarediamonds.svg	12	yes	57	0	873
6.6.1	win	2022-12-28	08:49:22	08:55:53	388578	61002c88afbf9f75e079b6e8	666978088	1	main_z	7	main_z	127	stimuli_distractor_diamondtriangles.svg	stimuli_target_circletriangles.svg	13	yes	0	0	2000
6.6.1	win	2022-12-28	08:49:22	08:55:53	388578	61002c88afbf9f75e079b6e8	666978088	1	main_z	7	advance_on_keypress_ZEE	128	stimuli_distractor_diamondtriangles.svg	stimuli_target_circletriangles.svg	13	yes	57	0	1924
6.6.1	win	2022-12-28	08:49:22	08:55:56	391563	61002c88afbf9f75e079b6e8	666978088	1	main_z	7	main_z	129	stimuli_distractor_trianglediamonds.svg	stimuli_target_circletriangles.svg	9	yes	44	1	419
6.6.1	win	2022-12-28	08:49:22	08:55:56	391563	61002c88afbf9f75e079b6e8	666978088	1	main_z	7	advance_on_keypress_ZEE	130	stimuli_distractor_trianglediamonds.svg	stimuli_target_circletriangles.svg	9	yes	57	0	728
6.6.1	win	2022-12-28	08:49:22	08:55:58	393329	61002c88afbf9f75e079b6e8	666978088	1	main_z	7	main_z	131	stimuli_target_squaretriangles.svg	stimuli_distractor_trianglediamonds.svg	3	yes	44	1	401
6.6.1	win	2022-12-28	08:49:22	08:55:58	393329	61002c88afbf9f75e079b6e8	666978088	1	main_z	7	advance_on_keypress_ZEE	132	stimuli_target_squaretriangles.svg	stimuli_distractor_trianglediamonds.svg	3	yes	57	0	765
6.6.1	win	2022-12-28	08:49:22	08:56:00	395076	61002c88afbf9f75e079b6e8	666978088	1	main_z	7	main_z	133	stimuli_distractor_trianglediamonds.svg	stimuli_target_diamondsquares.svg	28	yes	44	1	332
6.6.1	win	2022-12-28	08:49:22	08:56:00	395076	61002c88afbf9f75e079b6e8	666978088	1	main_z	7	advance_on_keypress_ZEE	134	stimuli_distractor_trianglediamonds.svg	stimuli_target_diamondsquares.svg	28	yes	57	0	871
6.6.1	win	2022-12-28	08:49:22	08:56:03	398595	61002c88afbf9f75e079b6e8	666978088	1	main_z	7	main_z	135	stimuli_distractor_diamondtriangles.svg	stimuli_distractor_diamondtriangles.svg	40	no	0	1	2000
6.6.1	win	2022-12-28	08:49:22	08:56:03	398595	61002c88afbf9f75e079b6e8	666978088	1	main_z	7	advance_on_keypress_ZEE	136	stimuli_distractor_diamondtriangles.svg	stimuli_distractor_diamondtriangles.svg	40	no	57	0	617
6.6.1	win	2022-12-28	08:49:22	08:56:05	400310	61002c88afbf9f75e079b6e8	666978088	1	main_z	7	main_z	137	stimuli_distractor_diamondtriangles.svg	stimuli_target_diamondsquares.svg	32	yes	44	1	449
6.6.1	win	2022-12-28	08:49:22	08:56:05	400310	61002c88afbf9f75e079b6e8	666978088	1	main_z	7	advance_on_keypress_ZEE	138	stimuli_distractor_diamondtriangles.svg	stimuli_target_diamondsquares.svg	32	yes	57	0	704
6.6.1	win	2022-12-28	08:49:22	08:56:07	402056	61002c88afbf9f75e079b6e8	666978088	1	main_z	7	main_z	139	stimuli_target_circletriangles.svg	stimuli_distractor_trianglediamonds.svg	1	yes	44	1	395
6.6.1	win	2022-12-28	08:49:22	08:56:07	402056	61002c88afbf9f75e079b6e8	666978088	1	main_z	7	advance_on_keypress_ZEE	140	stimuli_target_circletriangles.svg	stimuli_distractor_trianglediamonds.svg	1	yes	57	0	856
6.6.1	win	2022-12-28	08:49:22	08:56:09	404044	61002c88afbf9f75e079b6e8	666978088	1	main_z	7	main_z	141	stimuli_target_diamondcircles.svg	stimuli_distractor_diamondtriangles.svg	23	yes	44	1	483
6.6.1	win	2022-12-28	08:49:22	08:56:09	404044	61002c88afbf9f75e079b6e8	666978088	1	main_z	7	advance_on_keypress_ZEE	142	stimuli_target_diamondcircles.svg	stimuli_distractor_diamondtriangles.svg	23	yes	57	0	693
6.6.1	win	2022-12-28	08:49:22	08:56:11	405744	61002c88afbf9f75e079b6e8	666978088	1	main_z	7	main_z	143	stimuli_target_trianglecircles.svg	stimuli_distractor_diamondtriangles.svg	21	yes	44	1	366
6.6.1	win	2022-12-28	08:49:22	08:56:11	405744	61002c88afbf9f75e079b6e8	666978088	1	main_z	7	advance_on_keypress_ZEE	144	stimuli_target_trianglecircles.svg	stimuli_distractor_diamondtriangles.svg	21	yes	57	0	699
6.6.1	win	2022-12-28	08:49:22	08:56:12	407448	61002c88afbf9f75e079b6e8	666978088	1	main_z	7	main_z	145	stimuli_target_squaretriangles.svg	stimuli_distractor_diamondtriangles.svg	7	yes	44	1	353
6.6.1	win	2022-12-28	08:49:22	08:56:12	407448	61002c88afbf9f75e079b6e8	666978088	1	main_z	7	advance_on_keypress_ZEE	146	stimuli_target_squaretriangles.svg	stimuli_distractor_diamondtriangles.svg	7	yes	57	0	610
6.6.1	win	2022-12-28	08:49:22	08:56:16	410695	61002c88afbf9f75e079b6e8	666978088	1	main_z	7	main_z	147	stimuli_distractor_trianglediamonds.svg	stimuli_distractor_trianglediamonds.svg	33	no	0	1	2000
6.6.1	win	2022-12-28	08:49:22	08:56:16	410695	61002c88afbf9f75e079b6e8	666978088	1	main_z	7	advance_on_keypress_ZEE	148	stimuli_distractor_trianglediamonds.svg	stimuli_distractor_trianglediamonds.svg	33	no	57	0	807
6.6.1	win	2022-12-28	08:49:22	08:56:17	412491	61002c88afbf9f75e079b6e8	666978088	1	main_z	7	main_z	149	stimuli_target_trianglecircles.svg	stimuli_distractor_trianglediamonds.svg	17	yes	44	1	346
6.6.1	win	2022-12-28	08:49:22	08:56:17	412491	61002c88afbf9f75e079b6e8	666978088	1	main_z	7	advance_on_keypress_ZEE	150	stimuli_target_trianglecircles.svg	stimuli_distractor_trianglediamonds.svg	17	yes	57	0	569
6.6.1	win	2022-12-28	08:49:22	08:56:21	415712	61002c88afbf9f75e079b6e8	666978088	1	main_z	7	main_z	151	stimuli_distractor_trianglediamonds.svg	stimuli_distractor_trianglediamonds.svg	34	no	0	1	2000
6.6.1	win	2022-12-28	08:49:22	08:56:21	415712	61002c88afbf9f75e079b6e8	666978088	1	main_z	7	advance_on_keypress_ZEE	152	stimuli_distractor_trianglediamonds.svg	stimuli_distractor_trianglediamonds.svg	34	no	57	0	598
6.6.1	win	2022-12-28	08:49:22	08:56:24	418962	61002c88afbf9f75e079b6e8	666978088	1	main_z	7	main_z	153	stimuli_distractor_diamondtriangles.svg	stimuli_distractor_trianglediamonds.svg	37	no	0	1	2000
6.6.1	win	2022-12-28	08:49:22	08:56:24	418962	61002c88afbf9f75e079b6e8	666978088	1	main_z	7	advance_on_keypress_ZEE	154	stimuli_distractor_diamondtriangles.svg	stimuli_distractor_trianglediamonds.svg	37	no	57	0	476
6.6.1	win	2022-12-28	08:49:22	08:56:25	420554	61002c88afbf9f75e079b6e8	666978088	1	main_z	7	main_z	155	stimuli_distractor_diamondtriangles.svg	stimuli_target_circlediamonds.svg	14	yes	44	1	475
6.6.1	win	2022-12-28	08:49:22	08:56:25	420554	61002c88afbf9f75e079b6e8	666978088	1	main_z	7	advance_on_keypress_ZEE	156	stimuli_distractor_diamondtriangles.svg	stimuli_target_circlediamonds.svg	14	yes	57	0	586
6.6.1	win	2022-12-28	08:49:22	08:56:27	422179	61002c88afbf9f75e079b6e8	666978088	1	main_z	7	main_z	157	stimuli_target_trianglesquares.svg	stimuli_distractor_trianglediamonds.svg	18	yes	44	1	369
6.6.1	win	2022-12-28	08:49:22	08:56:27	422179	61002c88afbf9f75e079b6e8	666978088	1	main_z	7	advance_on_keypress_ZEE	158	stimuli_target_trianglesquares.svg	stimuli_distractor_trianglediamonds.svg	18	yes	57	0	777
6.6.1	win	2022-12-28	08:49:22	08:56:30	425596	61002c88afbf9f75e079b6e8	666978088	1	main_z	7	main_z	159	stimuli_distractor_diamondtriangles.svg	stimuli_target_squarediamonds.svg	16	yes	0	0	2000
6.6.1	win	2022-12-28	08:49:22	08:56:30	425596	61002c88afbf9f75e079b6e8	666978088	1	main_z	7	advance_on_keypress_ZEE	160	stimuli_distractor_diamondtriangles.svg	stimuli_target_squarediamonds.svg	16	yes	57	0	491
6.6.1	win	2022-12-28	08:49:22	08:57:05	459831	61002c88afbf9f75e079b6e8	666978088	1	practice_slash	9	practice_slash	1	stimuli_distractor_trianglediamonds.svg	stimuli_distractor_trianglediamonds.svg	15	no	0	1	2000
6.6.1	win	2022-12-28	08:49:22	08:57:05	459831	61002c88afbf9f75e079b6e8	666978088	1	practice_slash	9	advance_on_keypress_SLASH	2	stimuli_distractor_trianglediamonds.svg	stimuli_distractor_trianglediamonds.svg	15	no	57	0	1839
6.6.1	win	2022-12-28	08:49:22	08:57:09	463742	61002c88afbf9f75e079b6e8	666978088	1	practice_slash	9	practice_slash	3	stimuli_target_diamondsquares.svg	stimuli_distractor_diamondtriangles.svg	3	yes	53	1	428
6.6.1	win	2022-12-28	08:49:22	08:57:09	463742	61002c88afbf9f75e079b6e8	666978088	1	practice_slash	9	advance_on_keypress_SLASH	4	stimuli_target_diamondsquares.svg	stimuli_distractor_diamondtriangles.svg	3	yes	57	0	524
6.6.1	win	2022-12-28	08:49:22	08:57:13	467915	61002c88afbf9f75e079b6e8	666978088	1	practice_slash	9	practice_slash	5	stimuli_distractor_trianglediamonds.svg	stimuli_target_squarediamonds.svg	11	yes	0	0	2000
6.6.1	win	2022-12-28	08:49:22	08:57:13	467915	61002c88afbf9f75e079b6e8	666978088	1	practice_slash	9	advance_on_keypress_SLASH	6	stimuli_distractor_trianglediamonds.svg	stimuli_target_squarediamonds.svg	11	yes	57	0	988
6.6.1	win	2022-12-28	08:49:22	08:57:17	472548	61002c88afbf9f75e079b6e8	666978088	1	practice_slash	9	practice_slash	7	stimuli_distractor_diamondtriangles.svg	stimuli_distractor_trianglediamonds.svg	14	no	0	1	2000
6.6.1	win	2022-12-28	08:49:22	08:57:17	472548	61002c88afbf9f75e079b6e8	666978088	1	practice_slash	9	advance_on_keypress_SLASH	8	stimuli_distractor_diamondtriangles.svg	stimuli_distractor_trianglediamonds.svg	14	no	57	0	408
6.6.1	win	2022-12-28	08:49:22	08:57:20	474991	61002c88afbf9f75e079b6e8	666978088	1	practice_slash	9	practice_slash	9	stimuli_distractor_trianglediamonds.svg	stimuli_target_circlediamonds.svg	10	yes	53	1	393
6.6.1	win	2022-12-28	08:49:22	08:57:20	474991	61002c88afbf9f75e079b6e8	666978088	1	practice_slash	9	advance_on_keypress_SLASH	10	stimuli_distractor_trianglediamonds.svg	stimuli_target_circlediamonds.svg	10	yes	57	0	482
6.6.1	win	2022-12-28	08:49:22	08:57:23	477662	61002c88afbf9f75e079b6e8	666978088	1	practice_slash	9	practice_slash	11	stimuli_distractor_diamondtriangles.svg	stimuli_target_diamondcircles.svg	8	yes	53	1	530
6.6.1	win	2022-12-28	08:49:22	08:57:23	477662	61002c88afbf9f75e079b6e8	666978088	1	practice_slash	9	advance_on_keypress_SLASH	12	stimuli_distractor_diamondtriangles.svg	stimuli_target_diamondcircles.svg	8	yes	57	0	531
6.6.1	win	2022-12-28	08:49:22	08:57:25	480234	61002c88afbf9f75e079b6e8	666978088	1	practice_slash	9	practice_slash	13	stimuli_distractor_trianglediamonds.svg	stimuli_target_diamondcircles.svg	12	yes	53	1	386
6.6.1	win	2022-12-28	08:49:22	08:57:25	480234	61002c88afbf9f75e079b6e8	666978088	1	practice_slash	9	advance_on_keypress_SLASH	14	stimuli_distractor_trianglediamonds.svg	stimuli_target_diamondcircles.svg	12	yes	57	0	528
6.6.1	win	2022-12-28	08:49:22	08:57:28	482890	61002c88afbf9f75e079b6e8	666978088	1	practice_slash	9	practice_slash	15	stimuli_target_diamondsquares.svg	stimuli_distractor_trianglediamonds.svg	6	yes	53	1	475
6.6.1	win	2022-12-28	08:49:22	08:57:28	482890	61002c88afbf9f75e079b6e8	666978088	1	practice_slash	9	advance_on_keypress_SLASH	16	stimuli_target_diamondsquares.svg	stimuli_distractor_trianglediamonds.svg	6	yes	57	0	445
6.6.1	win	2022-12-28	08:49:22	08:57:30	485547	61002c88afbf9f75e079b6e8	666978088	1	practice_slash	9	practice_slash	17	stimuli_target_squarediamonds.svg	stimuli_distractor_diamondtriangles.svg	2	yes	53	1	548
6.6.1	win	2022-12-28	08:49:22	08:57:30	485547	61002c88afbf9f75e079b6e8	666978088	1	practice_slash	9	advance_on_keypress_SLASH	18	stimuli_target_squarediamonds.svg	stimuli_distractor_diamondtriangles.svg	2	yes	57	0	309
6.6.1	win	2022-12-28	08:49:22	08:57:33	487942	61002c88afbf9f75e079b6e8	666978088	1	practice_slash	9	practice_slash	19	stimuli_distractor_trianglediamonds.svg	stimuli_distractor_diamondtriangles.svg	16	no	53	0	443
6.6.1	win	2022-12-28	08:49:22	08:57:33	487942	61002c88afbf9f75e079b6e8	666978088	1	practice_slash	9	advance_on_keypress_SLASH	20	stimuli_distractor_trianglediamonds.svg	stimuli_distractor_diamondtriangles.svg	16	no	57	0	423
6.6.1	win	2022-12-28	08:49:22	08:57:35	490451	61002c88afbf9f75e079b6e8	666978088	1	practice_slash	9	practice_slash	21	stimuli_target_squarediamonds.svg	stimuli_distractor_trianglediamonds.svg	5	yes	53	1	436
6.6.1	win	2022-12-28	08:49:22	08:57:35	490451	61002c88afbf9f75e079b6e8	666978088	1	practice_slash	9	advance_on_keypress_SLASH	22	stimuli_target_squarediamonds.svg	stimuli_distractor_trianglediamonds.svg	5	yes	57	0	284
6.6.1	win	2022-12-28	08:49:22	08:57:38	492825	61002c88afbf9f75e079b6e8	666978088	1	practice_slash	9	practice_slash	23	stimuli_distractor_diamondtriangles.svg	stimuli_target_trianglecircles.svg	9	yes	53	1	443
6.6.1	win	2022-12-28	08:49:22	08:57:38	492825	61002c88afbf9f75e079b6e8	666978088	1	practice_slash	9	advance_on_keypress_SLASH	24	stimuli_distractor_diamondtriangles.svg	stimuli_target_trianglecircles.svg	9	yes	57	0	283
6.6.1	win	2022-12-28	08:49:22	08:57:42	496765	61002c88afbf9f75e079b6e8	666978088	1	practice_slash	9	practice_slash	25	stimuli_distractor_diamondtriangles.svg	stimuli_distractor_diamondtriangles.svg	13	no	0	1	2000
6.6.1	win	2022-12-28	08:49:22	08:57:42	496765	61002c88afbf9f75e079b6e8	666978088	1	practice_slash	9	advance_on_keypress_SLASH	26	stimuli_distractor_diamondtriangles.svg	stimuli_distractor_diamondtriangles.svg	13	no	57	0	406
6.6.1	win	2022-12-28	08:49:22	08:57:44	499181	61002c88afbf9f75e079b6e8	666978088	1	practice_slash	9	practice_slash	27	stimuli_distractor_diamondtriangles.svg	stimuli_target_circletriangles.svg	7	yes	53	1	365
6.6.1	win	2022-12-28	08:49:22	08:57:44	499181	61002c88afbf9f75e079b6e8	666978088	1	practice_slash	9	advance_on_keypress_SLASH	28	stimuli_distractor_diamondtriangles.svg	stimuli_target_circletriangles.svg	7	yes	57	0	654
6.6.1	win	2022-12-28	08:49:22	08:57:47	501945	61002c88afbf9f75e079b6e8	666978088	1	practice_slash	9	practice_slash	29	stimuli_target_circlediamonds.svg	stimuli_distractor_diamondtriangles.svg	1	yes	53	1	463
6.6.1	win	2022-12-28	08:49:22	08:57:47	501945	61002c88afbf9f75e079b6e8	666978088	1	practice_slash	9	advance_on_keypress_SLASH	30	stimuli_target_circlediamonds.svg	stimuli_distractor_diamondtriangles.svg	1	yes	57	0	498
6.6.1	win	2022-12-28	08:49:22	08:57:49	504506	61002c88afbf9f75e079b6e8	666978088	1	practice_slash	9	practice_slash	31	stimuli_target_circlediamonds.svg	stimuli_distractor_trianglediamonds.svg	4	yes	53	1	407
6.6.1	win	2022-12-28	08:49:22	08:57:49	504506	61002c88afbf9f75e079b6e8	666978088	1	practice_slash	9	advance_on_keypress_SLASH	32	stimuli_target_circlediamonds.svg	stimuli_distractor_trianglediamonds.svg	4	yes	57	0	440
6.6.1	win	2022-12-28	08:49:22	08:57:55	509822	61002c88afbf9f75e079b6e8	666978088	1	main_slash	11	main_slash	1	stimuli_distractor_diamondtriangles.svg	stimuli_target_diamondsquares.svg	32	yes	53	1	657
6.6.1	win	2022-12-28	08:49:22	08:57:55	509822	61002c88afbf9f75e079b6e8	666978088	1	main_slash	11	advance_on_keypress_SLASH	2	stimuli_distractor_diamondtriangles.svg	stimuli_target_diamondsquares.svg	32	yes	57	0	801
6.6.1	win	2022-12-28	08:49:22	08:57:57	511742	61002c88afbf9f75e079b6e8	666978088	1	main_slash	11	main_slash	3	stimuli_distractor_diamondtriangles.svg	stimuli_target_diamondcircles.svg	31	yes	53	1	460
6.6.1	win	2022-12-28	08:49:22	08:57:57	511742	61002c88afbf9f75e079b6e8	666978088	1	main_slash	11	advance_on_keypress_SLASH	4	stimuli_distractor_diamondtriangles.svg	stimuli_target_diamondcircles.svg	31	yes	57	0	687
6.6.1	win	2022-12-28	08:49:22	08:57:58	513499	61002c88afbf9f75e079b6e8	666978088	1	main_slash	11	main_slash	5	stimuli_distractor_diamondtriangles.svg	stimuli_target_circletriangles.svg	13	yes	53	1	417
6.6.1	win	2022-12-28	08:49:22	08:57:58	513499	61002c88afbf9f75e079b6e8	666978088	1	main_slash	11	advance_on_keypress_SLASH	6	stimuli_distractor_diamondtriangles.svg	stimuli_target_circletriangles.svg	13	yes	57	0	527
6.6.1	win	2022-12-28	08:49:22	08:58:00	515113	61002c88afbf9f75e079b6e8	666978088	1	main_slash	11	main_slash	7	stimuli_target_squaretriangles.svg	stimuli_distractor_diamondtriangles.svg	7	yes	53	1	448
6.6.1	win	2022-12-28	08:49:22	08:58:00	515113	61002c88afbf9f75e079b6e8	666978088	1	main_slash	11	advance_on_keypress_SLASH	8	stimuli_target_squaretriangles.svg	stimuli_distractor_diamondtriangles.svg	7	yes	57	0	572
6.6.1	win	2022-12-28	08:49:22	08:58:02	516730	61002c88afbf9f75e079b6e8	666978088	1	main_slash	11	main_slash	9	stimuli_distractor_diamondtriangles.svg	stimuli_target_squaretriangles.svg	15	yes	53	1	398
6.6.1	win	2022-12-28	08:49:22	08:58:02	516730	61002c88afbf9f75e079b6e8	666978088	1	main_slash	11	advance_on_keypress_SLASH	10	stimuli_distractor_diamondtriangles.svg	stimuli_target_squaretriangles.svg	15	yes	57	0	653
6.6.1	win	2022-12-28	08:49:22	08:58:03	518362	61002c88afbf9f75e079b6e8	666978088	1	main_slash	11	main_slash	11	stimuli_target_squaretriangles.svg	stimuli_distractor_trianglediamonds.svg	3	yes	53	1	330
6.6.1	win	2022-12-28	08:49:22	08:58:03	518362	61002c88afbf9f75e079b6e8	666978088	1	main_slash	11	advance_on_keypress_SLASH	12	stimuli_target_squaretriangles.svg	stimuli_distractor_trianglediamonds.svg	3	yes	57	0	462
6.6.1	win	2022-12-28	08:49:22	08:58:06	521466	61002c88afbf9f75e079b6e8	666978088	1	main_slash	11	main_slash	13	stimuli_distractor_diamondtriangles.svg	stimuli_distractor_diamondtriangles.svg	39	no	0	1	2000
6.6.1	win	2022-12-28	08:49:22	08:58:06	521466	61002c88afbf9f75e079b6e8	666978088	1	main_slash	11	advance_on_keypress_SLASH	14	stimuli_distractor_diamondtriangles.svg	stimuli_distractor_diamondtriangles.svg	39	no	57	0	725
6.6.1	win	2022-12-28	08:49:22	08:58:08	523156	61002c88afbf9f75e079b6e8	666978088	1	main_slash	11	main_slash	15	stimuli_target_diamondcircles.svg	stimuli_distractor_diamondtriangles.svg	23	yes	53	1	324
6.6.1	win	2022-12-28	08:49:22	08:58:08	523156	61002c88afbf9f75e079b6e8	666978088	1	main_slash	11	advance_on_keypress_SLASH	16	stimuli_target_diamondcircles.svg	stimuli_distractor_diamondtriangles.svg	23	yes	57	0	600
6.6.1	win	2022-12-28	08:49:22	08:58:10	524805	61002c88afbf9f75e079b6e8	666978088	1	main_slash	11	main_slash	17	stimuli_target_squarediamonds.svg	stimuli_distractor_trianglediamonds.svg	4	yes	53	1	389
6.6.1	win	2022-12-28	08:49:22	08:58:10	524805	61002c88afbf9f75e079b6e8	666978088	1	main_slash	11	advance_on_keypress_SLASH	18	stimuli_target_squarediamonds.svg	stimuli_distractor_trianglediamonds.svg	4	yes	57	0	609
6.6.1	win	2022-12-28	08:49:22	08:58:11	526443	61002c88afbf9f75e079b6e8	666978088	1	main_slash	11	main_slash	19	stimuli_target_circletriangles.svg	stimuli_distractor_trianglediamonds.svg	1	yes	53	1	394
6.6.1	win	2022-12-28	08:49:22	08:58:11	526443	61002c88afbf9f75e079b6e8	666978088	1	main_slash	11	advance_on_keypress_SLASH	20	stimuli_target_circletriangles.svg	stimuli_distractor_trianglediamonds.svg	1	yes	57	0	931
6.6.1	win	2022-12-28	08:49:22	08:58:13	528362	61002c88afbf9f75e079b6e8	666978088	1	main_slash	11	main_slash	21	stimuli_distractor_diamondtriangles.svg	stimuli_target_trianglecircles.svg	29	yes	53	1	330
6.6.1	win	2022-12-28	08:49:22	08:58:13	528362	61002c88afbf9f75e079b6e8	666978088	1	main_slash	11	advance_on_keypress_SLASH	22	stimuli_distractor_diamondtriangles.svg	stimuli_target_trianglecircles.svg	29	yes	57	0	747
6.6.1	win	2022-12-28	08:49:22	08:58:15	530115	61002c88afbf9f75e079b6e8	666978088	1	main_slash	11	main_slash	23	stimuli_distractor_trianglediamonds.svg	stimuli_target_diamondcircles.svg	27	yes	53	1	349
6.6.1	win	2022-12-28	08:49:22	08:58:15	530115	61002c88afbf9f75e079b6e8	666978088	1	main_slash	11	advance_on_keypress_SLASH	24	stimuli_distractor_trianglediamonds.svg	stimuli_target_diamondcircles.svg	27	yes	57	0	695
6.6.1	win	2022-12-28	08:49:22	08:58:17	531832	61002c88afbf9f75e079b6e8	666978088	1	main_slash	11	main_slash	25	stimuli_target_circlediamonds.svg	stimuli_distractor_diamondtriangles.svg	6	yes	53	1	370
6.6.1	win	2022-12-28	08:49:22	08:58:17	531832	61002c88afbf9f75e079b6e8	666978088	1	main_slash	11	advance_on_keypress_SLASH	26	stimuli_target_circlediamonds.svg	stimuli_distractor_diamondtriangles.svg	6	yes	57	0	1011
6.6.1	win	2022-12-28	08:49:22	08:58:20	535483	61002c88afbf9f75e079b6e8	666978088	1	main_slash	11	main_slash	27	stimuli_distractor_diamondtriangles.svg	stimuli_distractor_diamondtriangles.svg	40	no	0	1	2000
6.6.1	win	2022-12-28	08:49:22	08:58:20	535483	61002c88afbf9f75e079b6e8	666978088	1	main_slash	11	advance_on_keypress_SLASH	28	stimuli_distractor_diamondtriangles.svg	stimuli_distractor_diamondtriangles.svg	40	no	57	0	657
6.6.1	win	2022-12-28	08:49:22	08:58:22	537178	61002c88afbf9f75e079b6e8	666978088	1	main_slash	11	main_slash	29	stimuli_distractor_trianglediamonds.svg	stimuli_target_circlediamonds.svg	10	yes	53	1	395
6.6.1	win	2022-12-28	08:49:22	08:58:22	537178	61002c88afbf9f75e079b6e8	666978088	1	main_slash	11	advance_on_keypress_SLASH	30	stimuli_distractor_trianglediamonds.svg	stimuli_target_circlediamonds.svg	10	yes	57	0	755
6.6.1	win	2022-12-28	08:49:22	08:58:24	539060	61002c88afbf9f75e079b6e8	666978088	1	main_slash	11	main_slash	31	stimuli_target_trianglesquares.svg	stimuli_distractor_trianglediamonds.svg	18	yes	53	1	477
6.6.1	win	2022-12-28	08:49:22	08:58:24	539060	61002c88afbf9f75e079b6e8	666978088	1	main_slash	11	advance_on_keypress_SLASH	32	stimuli_target_trianglesquares.svg	stimuli_distractor_trianglediamonds.svg	18	yes	57	0	924
6.6.1	win	2022-12-28	08:49:22	08:58:28	542633	61002c88afbf9f75e079b6e8	666978088	1	main_slash	11	main_slash	33	stimuli_distractor_diamondtriangles.svg	stimuli_distractor_trianglediamonds.svg	37	no	0	1	2000
6.6.1	win	2022-12-28	08:49:22	08:58:28	542633	61002c88afbf9f75e079b6e8	666978088	1	main_slash	11	advance_on_keypress_SLASH	34	stimuli_distractor_diamondtriangles.svg	stimuli_distractor_trianglediamonds.svg	37	no	57	0	405
6.6.1	win	2022-12-28	08:49:22	08:58:29	544153	61002c88afbf9f75e079b6e8	666978088	1	main_slash	11	main_slash	35	stimuli_distractor_trianglediamonds.svg	stimuli_target_squaretriangles.svg	11	yes	53	1	470
6.6.1	win	2022-12-28	08:49:22	08:58:29	544153	61002c88afbf9f75e079b6e8	666978088	1	main_slash	11	advance_on_keypress_SLASH	36	stimuli_distractor_trianglediamonds.svg	stimuli_target_squaretriangles.svg	11	yes	57	0	700
6.6.1	win	2022-12-28	08:49:22	08:58:31	545894	61002c88afbf9f75e079b6e8	666978088	1	main_slash	11	main_slash	37	stimuli_distractor_trianglediamonds.svg	stimuli_target_diamondsquares.svg	28	yes	53	1	394
6.6.1	win	2022-12-28	08:49:22	08:58:31	545894	61002c88afbf9f75e079b6e8	666978088	1	main_slash	11	advance_on_keypress_SLASH	38	stimuli_distractor_trianglediamonds.svg	stimuli_target_diamondsquares.svg	28	yes	57	0	599
6.6.1	win	2022-12-28	08:49:22	08:58:32	547475	61002c88afbf9f75e079b6e8	666978088	1	main_slash	11	main_slash	39	stimuli_target_trianglecircles.svg	stimuli_distractor_diamondtriangles.svg	21	yes	53	1	325
6.6.1	win	2022-12-28	08:49:22	08:58:32	547475	61002c88afbf9f75e079b6e8	666978088	1	main_slash	11	advance_on_keypress_SLASH	40	stimuli_target_trianglecircles.svg	stimuli_distractor_diamondtriangles.svg	21	yes	57	0	695
6.6.1	win	2022-12-28	08:49:22	08:58:36	550817	61002c88afbf9f75e079b6e8	666978088	1	main_slash	11	main_slash	41	stimuli_distractor_diamondtriangles.svg	stimuli_distractor_trianglediamonds.svg	38	no	0	1	2000
6.6.1	win	2022-12-28	08:49:22	08:58:36	550817	61002c88afbf9f75e079b6e8	666978088	1	main_slash	11	advance_on_keypress_SLASH	42	stimuli_distractor_diamondtriangles.svg	stimuli_distractor_trianglediamonds.svg	38	no	57	0	528
6.6.1	win	2022-12-28	08:49:22	08:58:38	552755	61002c88afbf9f75e079b6e8	666978088	1	main_slash	11	main_slash	43	stimuli_distractor_diamondtriangles.svg	stimuli_target_squarediamonds.svg	16	yes	53	1	772
6.6.1	win	2022-12-28	08:49:22	08:58:38	552755	61002c88afbf9f75e079b6e8	666978088	1	main_slash	11	advance_on_keypress_SLASH	44	stimuli_distractor_diamondtriangles.svg	stimuli_target_squarediamonds.svg	16	yes	57	0	658
6.6.1	win	2022-12-28	08:49:22	08:58:41	556067	61002c88afbf9f75e079b6e8	666978088	1	main_slash	11	main_slash	45	stimuli_distractor_trianglediamonds.svg	stimuli_distractor_diamondtriangles.svg	36	no	0	1	2000
6.6.1	win	2022-12-28	08:49:22	08:58:41	556067	61002c88afbf9f75e079b6e8	666978088	1	main_slash	11	advance_on_keypress_SLASH	46	stimuli_distractor_trianglediamonds.svg	stimuli_distractor_diamondtriangles.svg	36	no	57	0	410
6.6.1	win	2022-12-28	08:49:22	08:58:42	557582	61002c88afbf9f75e079b6e8	666978088	1	main_slash	11	main_slash	47	stimuli_target_trianglecircles.svg	stimuli_distractor_trianglediamonds.svg	17	yes	53	1	465
6.6.1	win	2022-12-28	08:49:22	08:58:42	557582	61002c88afbf9f75e079b6e8	666978088	1	main_slash	11	advance_on_keypress_SLASH	48	stimuli_target_trianglecircles.svg	stimuli_distractor_trianglediamonds.svg	17	yes	57	0	651
6.6.1	win	2022-12-28	08:49:22	08:58:46	560884	61002c88afbf9f75e079b6e8	666978088	1	main_slash	11	main_slash	49	stimuli_distractor_trianglediamonds.svg	stimuli_distractor_trianglediamonds.svg	34	no	0	1	2000
6.6.1	win	2022-12-28	08:49:22	08:58:46	560884	61002c88afbf9f75e079b6e8	666978088	1	main_slash	11	advance_on_keypress_SLASH	50	stimuli_distractor_trianglediamonds.svg	stimuli_distractor_trianglediamonds.svg	34	no	57	0	433
6.6.1	win	2022-12-28	08:49:22	08:58:47	562350	61002c88afbf9f75e079b6e8	666978088	1	main_slash	11	main_slash	51	stimuli_target_diamondcircles.svg	stimuli_distractor_trianglediamonds.svg	19	yes	53	1	378
6.6.1	win	2022-12-28	08:49:22	08:58:47	562350	61002c88afbf9f75e079b6e8	666978088	1	main_slash	11	advance_on_keypress_SLASH	52	stimuli_target_diamondcircles.svg	stimuli_distractor_trianglediamonds.svg	19	yes	57	0	739
6.6.1	win	2022-12-28	08:49:22	08:58:49	564308	61002c88afbf9f75e079b6e8	666978088	1	main_slash	11	main_slash	53	stimuli_target_squarediamonds.svg	stimuli_distractor_diamondtriangles.svg	8	yes	53	1	574
6.6.1	win	2022-12-28	08:49:22	08:58:49	564308	61002c88afbf9f75e079b6e8	666978088	1	main_slash	11	advance_on_keypress_SLASH	54	stimuli_target_squarediamonds.svg	stimuli_distractor_diamondtriangles.svg	8	yes	57	0	598
6.6.1	win	2022-12-28	08:49:22	08:58:51	566010	61002c88afbf9f75e079b6e8	666978088	1	main_slash	11	main_slash	55	stimuli_distractor_diamondtriangles.svg	stimuli_target_circlediamonds.svg	14	yes	53	1	443
6.6.1	win	2022-12-28	08:49:22	08:58:51	566010	61002c88afbf9f75e079b6e8	666978088	1	main_slash	11	advance_on_keypress_SLASH	56	stimuli_distractor_diamondtriangles.svg	stimuli_target_circlediamonds.svg	14	yes	57	0	553
6.6.1	win	2022-12-28	08:49:22	08:58:53	567676	61002c88afbf9f75e079b6e8	666978088	1	main_slash	11	main_slash	57	stimuli_target_trianglesquares.svg	stimuli_distractor_diamondtriangles.svg	22	yes	53	1	459
6.6.1	win	2022-12-28	08:49:22	08:58:53	567676	61002c88afbf9f75e079b6e8	666978088	1	main_slash	11	advance_on_keypress_SLASH	58	stimuli_target_trianglesquares.svg	stimuli_distractor_diamondtriangles.svg	22	yes	57	0	781
6.6.1	win	2022-12-28	08:49:22	08:58:55	569813	61002c88afbf9f75e079b6e8	666978088	1	main_slash	11	main_slash	59	stimuli_distractor_trianglediamonds.svg	stimuli_target_squarediamonds.svg	12	yes	53	1	696
6.6.1	win	2022-12-28	08:49:22	08:58:55	569813	61002c88afbf9f75e079b6e8	666978088	1	main_slash	11	advance_on_keypress_SLASH	60	stimuli_distractor_trianglediamonds.svg	stimuli_target_squarediamonds.svg	12	yes	57	0	629
6.6.1	win	2022-12-28	08:49:22	08:58:57	571707	61002c88afbf9f75e079b6e8	666978088	1	main_slash	11	main_slash	61	stimuli_target_diamondsquares.svg	stimuli_distractor_trianglediamonds.svg	20	yes	53	1	623
6.6.1	win	2022-12-28	08:49:22	08:58:57	571707	61002c88afbf9f75e079b6e8	666978088	1	main_slash	11	advance_on_keypress_SLASH	62	stimuli_target_diamondsquares.svg	stimuli_distractor_trianglediamonds.svg	20	yes	57	0	560
6.6.1	win	2022-12-28	08:49:22	08:58:58	573516	61002c88afbf9f75e079b6e8	666978088	1	main_slash	11	main_slash	63	stimuli_target_diamondsquares.svg	stimuli_distractor_diamondtriangles.svg	24	yes	53	1	599
6.6.1	win	2022-12-28	08:49:22	08:58:58	573516	61002c88afbf9f75e079b6e8	666978088	1	main_slash	11	advance_on_keypress_SLASH	64	stimuli_target_diamondsquares.svg	stimuli_distractor_diamondtriangles.svg	24	yes	57	0	524
6.6.1	win	2022-12-28	08:49:22	08:59:00	575114	61002c88afbf9f75e079b6e8	666978088	1	main_slash	11	main_slash	65	stimuli_distractor_trianglediamonds.svg	stimuli_target_circletriangles.svg	9	yes	53	1	430
6.6.1	win	2022-12-28	08:49:22	08:59:00	575114	61002c88afbf9f75e079b6e8	666978088	1	main_slash	11	advance_on_keypress_SLASH	66	stimuli_distractor_trianglediamonds.svg	stimuli_target_circletriangles.svg	9	yes	57	0	572
6.6.1	win	2022-12-28	08:49:22	08:59:02	576717	61002c88afbf9f75e079b6e8	666978088	1	main_slash	11	main_slash	67	stimuli_target_circlediamonds.svg	stimuli_distractor_trianglediamonds.svg	2	yes	53	1	380
6.6.1	win	2022-12-28	08:49:22	08:59:02	576717	61002c88afbf9f75e079b6e8	666978088	1	main_slash	11	advance_on_keypress_SLASH	68	stimuli_target_circlediamonds.svg	stimuli_distractor_trianglediamonds.svg	2	yes	57	0	3933
6.6.1	win	2022-12-28	08:49:22	08:59:07	581605	61002c88afbf9f75e079b6e8	666978088	1	main_slash	11	main_slash	69	stimuli_distractor_trianglediamonds.svg	stimuli_target_trianglecircles.svg	25	yes	53	1	304
6.6.1	win	2022-12-28	08:49:22	08:59:07	581605	61002c88afbf9f75e079b6e8	666978088	1	main_slash	11	advance_on_keypress_SLASH	70	stimuli_distractor_trianglediamonds.svg	stimuli_target_trianglecircles.svg	25	yes	57	0	788
6.6.1	win	2022-12-28	08:49:22	08:59:08	583365	61002c88afbf9f75e079b6e8	666978088	1	main_slash	11	main_slash	71	stimuli_distractor_trianglediamonds.svg	stimuli_distractor_diamondtriangles.svg	35	no	53	0	331
6.6.1	win	2022-12-28	08:49:22	08:59:08	583365	61002c88afbf9f75e079b6e8	666978088	1	main_slash	11	advance_on_keypress_SLASH	72	stimuli_distractor_trianglediamonds.svg	stimuli_distractor_diamondtriangles.svg	35	no	57	0	972
6.6.1	win	2022-12-28	08:49:22	08:59:10	585329	61002c88afbf9f75e079b6e8	666978088	1	main_slash	11	main_slash	73	stimuli_target_circletriangles.svg	stimuli_distractor_diamondtriangles.svg	5	yes	53	1	345
6.6.1	win	2022-12-28	08:49:22	08:59:10	585329	61002c88afbf9f75e079b6e8	666978088	1	main_slash	11	advance_on_keypress_SLASH	74	stimuli_target_circletriangles.svg	stimuli_distractor_diamondtriangles.svg	5	yes	57	0	526
6.6.1	win	2022-12-28	08:49:22	08:59:12	586998	61002c88afbf9f75e079b6e8	666978088	1	main_slash	11	main_slash	75	stimuli_distractor_trianglediamonds.svg	stimuli_target_trianglesquares.svg	26	yes	53	1	497
6.6.1	win	2022-12-28	08:49:22	08:59:12	586998	61002c88afbf9f75e079b6e8	666978088	1	main_slash	11	advance_on_keypress_SLASH	76	stimuli_distractor_trianglediamonds.svg	stimuli_target_trianglesquares.svg	26	yes	57	0	553
6.6.1	win	2022-12-28	08:49:22	08:59:13	588560	61002c88afbf9f75e079b6e8	666978088	1	main_slash	11	main_slash	77	stimuli_distractor_diamondtriangles.svg	stimuli_target_trianglesquares.svg	30	yes	53	1	359
6.6.1	win	2022-12-28	08:49:22	08:59:13	588560	61002c88afbf9f75e079b6e8	666978088	1	main_slash	11	advance_on_keypress_SLASH	78	stimuli_distractor_diamondtriangles.svg	stimuli_target_trianglesquares.svg	30	yes	57	0	547
6.6.1	win	2022-12-28	08:49:22	08:59:17	591751	61002c88afbf9f75e079b6e8	666978088	1	main_slash	11	main_slash	79	stimuli_distractor_trianglediamonds.svg	stimuli_distractor_trianglediamonds.svg	33	no	0	1	2000
6.6.1	win	2022-12-28	08:49:22	08:59:17	591751	61002c88afbf9f75e079b6e8	666978088	1	main_slash	11	advance_on_keypress_SLASH	80	stimuli_distractor_trianglediamonds.svg	stimuli_distractor_trianglediamonds.svg	33	no	57	0	476
6.6.1	win	2022-12-28	08:49:22	08:59:18	593350	61002c88afbf9f75e079b6e8	666978088	1	main_slash	11	main_slash	81	stimuli_distractor_diamondtriangles.svg	stimuli_target_circletriangles.svg	13	yes	53	1	482
6.6.1	win	2022-12-28	08:49:22	08:59:18	593350	61002c88afbf9f75e079b6e8	666978088	1	main_slash	11	advance_on_keypress_SLASH	82	stimuli_distractor_diamondtriangles.svg	stimuli_target_circletriangles.svg	13	yes	57	0	577
6.6.1	win	2022-12-28	08:49:22	08:59:20	594976	61002c88afbf9f75e079b6e8	666978088	1	main_slash	11	main_slash	83	stimuli_target_squarediamonds.svg	stimuli_distractor_diamondtriangles.svg	8	yes	53	1	408
6.6.1	win	2022-12-28	08:49:22	08:59:20	594976	61002c88afbf9f75e079b6e8	666978088	1	main_slash	11	advance_on_keypress_SLASH	84	stimuli_target_squarediamonds.svg	stimuli_distractor_diamondtriangles.svg	8	yes	57	0	453
6.6.1	win	2022-12-28	08:49:22	08:59:21	596476	61002c88afbf9f75e079b6e8	666978088	1	main_slash	11	main_slash	85	stimuli_target_trianglecircles.svg	stimuli_distractor_trianglediamonds.svg	17	yes	53	1	391
6.6.1	win	2022-12-28	08:49:22	08:59:21	596476	61002c88afbf9f75e079b6e8	666978088	1	main_slash	11	advance_on_keypress_SLASH	86	stimuli_target_trianglecircles.svg	stimuli_distractor_trianglediamonds.svg	17	yes	57	0	493
6.6.1	win	2022-12-28	08:49:22	08:59:23	597965	61002c88afbf9f75e079b6e8	666978088	1	main_slash	11	main_slash	87	stimuli_distractor_trianglediamonds.svg	stimuli_distractor_trianglediamonds.svg	33	no	53	0	347
6.6.1	win	2022-12-28	08:49:22	08:59:23	597965	61002c88afbf9f75e079b6e8	666978088	1	main_slash	11	advance_on_keypress_SLASH	88	stimuli_distractor_trianglediamonds.svg	stimuli_distractor_trianglediamonds.svg	33	no	57	0	1184
6.6.1	win	2022-12-28	08:49:22	08:59:25	600220	61002c88afbf9f75e079b6e8	666978088	1	main_slash	11	main_slash	89	stimuli_distractor_diamondtriangles.svg	stimuli_target_circlediamonds.svg	14	yes	53	1	419
6.6.1	win	2022-12-28	08:49:22	08:59:25	600220	61002c88afbf9f75e079b6e8	666978088	1	main_slash	11	advance_on_keypress_SLASH	90	stimuli_distractor_diamondtriangles.svg	stimuli_target_circlediamonds.svg	14	yes	57	0	582
6.6.1	win	2022-12-28	08:49:22	08:59:27	601968	61002c88afbf9f75e079b6e8	666978088	1	main_slash	11	main_slash	91	stimuli_target_trianglesquares.svg	stimuli_distractor_trianglediamonds.svg	18	yes	53	1	508
6.6.1	win	2022-12-28	08:49:22	08:59:27	601968	61002c88afbf9f75e079b6e8	666978088	1	main_slash	11	advance_on_keypress_SLASH	92	stimuli_target_trianglesquares.svg	stimuli_distractor_trianglediamonds.svg	18	yes	57	0	464
6.6.1	win	2022-12-28	08:49:22	08:59:28	603509	61002c88afbf9f75e079b6e8	666978088	1	main_slash	11	main_slash	93	stimuli_target_squaretriangles.svg	stimuli_distractor_trianglediamonds.svg	3	yes	53	1	424
6.6.1	win	2022-12-28	08:49:22	08:59:28	603509	61002c88afbf9f75e079b6e8	666978088	1	main_slash	11	advance_on_keypress_SLASH	94	stimuli_target_squaretriangles.svg	stimuli_distractor_trianglediamonds.svg	3	yes	57	0	431
6.6.1	win	2022-12-28	08:49:22	08:59:30	605056	61002c88afbf9f75e079b6e8	666978088	1	main_slash	11	main_slash	95	stimuli_distractor_trianglediamonds.svg	stimuli_target_diamondcircles.svg	27	yes	53	1	454
6.6.1	win	2022-12-28	08:49:22	08:59:30	605056	61002c88afbf9f75e079b6e8	666978088	1	main_slash	11	advance_on_keypress_SLASH	96	stimuli_distractor_trianglediamonds.svg	stimuli_target_diamondcircles.svg	27	yes	57	0	437
6.6.1	win	2022-12-28	08:49:22	08:59:31	606569	61002c88afbf9f75e079b6e8	666978088	1	main_slash	11	main_slash	97	stimuli_target_diamondsquares.svg	stimuli_distractor_diamondtriangles.svg	24	yes	53	1	434
6.6.1	win	2022-12-28	08:49:22	08:59:31	606569	61002c88afbf9f75e079b6e8	666978088	1	main_slash	11	advance_on_keypress_SLASH	98	stimuli_target_diamondsquares.svg	stimuli_distractor_diamondtriangles.svg	24	yes	57	0	561
6.6.1	win	2022-12-28	08:49:22	08:59:33	608183	61002c88afbf9f75e079b6e8	666978088	1	main_slash	11	main_slash	99	stimuli_distractor_diamondtriangles.svg	stimuli_target_diamondsquares.svg	32	yes	53	1	415
6.6.1	win	2022-12-28	08:49:22	08:59:33	608183	61002c88afbf9f75e079b6e8	666978088	1	main_slash	11	advance_on_keypress_SLASH	100	stimuli_distractor_diamondtriangles.svg	stimuli_target_diamondsquares.svg	32	yes	57	0	605
6.6.1	win	2022-12-28	08:49:22	08:59:36	611435	61002c88afbf9f75e079b6e8	666978088	1	main_slash	11	main_slash	101	stimuli_distractor_diamondtriangles.svg	stimuli_target_squaretriangles.svg	15	yes	0	0	2000
6.6.1	win	2022-12-28	08:49:22	08:59:36	611435	61002c88afbf9f75e079b6e8	666978088	1	main_slash	11	advance_on_keypress_SLASH	102	stimuli_distractor_diamondtriangles.svg	stimuli_target_squaretriangles.svg	15	yes	57	0	388
6.6.1	win	2022-12-28	08:49:22	08:59:39	614469	61002c88afbf9f75e079b6e8	666978088	1	main_slash	11	main_slash	103	stimuli_distractor_trianglediamonds.svg	stimuli_distractor_diamondtriangles.svg	35	no	0	1	2000
6.6.1	win	2022-12-28	08:49:22	08:59:39	614469	61002c88afbf9f75e079b6e8	666978088	1	main_slash	11	advance_on_keypress_SLASH	104	stimuli_distractor_trianglediamonds.svg	stimuli_distractor_diamondtriangles.svg	35	no	57	0	424
6.6.1	win	2022-12-28	08:49:22	08:59:42	617536	61002c88afbf9f75e079b6e8	666978088	1	main_slash	11	main_slash	105	stimuli_distractor_diamondtriangles.svg	stimuli_distractor_diamondtriangles.svg	40	no	0	1	2000
6.6.1	win	2022-12-28	08:49:22	08:59:42	617536	61002c88afbf9f75e079b6e8	666978088	1	main_slash	11	advance_on_keypress_SLASH	106	stimuli_distractor_diamondtriangles.svg	stimuli_distractor_diamondtriangles.svg	40	no	57	0	526
6.6.1	win	2022-12-28	08:49:22	08:59:44	619102	61002c88afbf9f75e079b6e8	666978088	1	main_slash	11	main_slash	107	stimuli_target_diamondcircles.svg	stimuli_distractor_trianglediamonds.svg	19	yes	53	1	400
6.6.1	win	2022-12-28	08:49:22	08:59:44	619102	61002c88afbf9f75e079b6e8	666978088	1	main_slash	11	advance_on_keypress_SLASH	108	stimuli_target_diamondcircles.svg	stimuli_distractor_trianglediamonds.svg	19	yes	57	0	635
6.6.1	win	2022-12-28	08:49:22	08:59:46	620747	61002c88afbf9f75e079b6e8	666978088	1	main_slash	11	main_slash	109	stimuli_target_circletriangles.svg	stimuli_distractor_trianglediamonds.svg	1	yes	53	1	362
6.6.1	win	2022-12-28	08:49:22	08:59:46	620747	61002c88afbf9f75e079b6e8	666978088	1	main_slash	11	advance_on_keypress_SLASH	110	stimuli_target_circletriangles.svg	stimuli_distractor_trianglediamonds.svg	1	yes	57	0	607
6.6.1	win	2022-12-28	08:49:22	08:59:49	624002	61002c88afbf9f75e079b6e8	666978088	1	main_slash	11	main_slash	111	stimuli_distractor_trianglediamonds.svg	stimuli_distractor_diamondtriangles.svg	36	no	0	1	2000
6.6.1	win	2022-12-28	08:49:22	08:59:49	624002	61002c88afbf9f75e079b6e8	666978088	1	main_slash	11	advance_on_keypress_SLASH	112	stimuli_distractor_trianglediamonds.svg	stimuli_distractor_diamondtriangles.svg	36	no	57	0	347
6.6.1	win	2022-12-28	08:49:22	08:59:50	625346	61002c88afbf9f75e079b6e8	666978088	1	main_slash	11	main_slash	113	stimuli_distractor_trianglediamonds.svg	stimuli_target_trianglecircles.svg	25	yes	53	1	360
6.6.1	win	2022-12-28	08:49:22	08:59:50	625346	61002c88afbf9f75e079b6e8	666978088	1	main_slash	11	advance_on_keypress_SLASH	114	stimuli_distractor_trianglediamonds.svg	stimuli_target_trianglecircles.svg	25	yes	57	0	545
6.6.1	win	2022-12-28	08:49:22	08:59:52	626973	61002c88afbf9f75e079b6e8	666978088	1	main_slash	11	main_slash	115	stimuli_target_circletriangles.svg	stimuli_distractor_diamondtriangles.svg	5	yes	53	1	437
6.6.1	win	2022-12-28	08:49:22	08:59:52	626973	61002c88afbf9f75e079b6e8	666978088	1	main_slash	11	advance_on_keypress_SLASH	116	stimuli_target_circletriangles.svg	stimuli_distractor_diamondtriangles.svg	5	yes	57	0	700
6.6.1	win	2022-12-28	08:49:22	08:59:54	628673	61002c88afbf9f75e079b6e8	666978088	1	main_slash	11	main_slash	117	stimuli_distractor_diamondtriangles.svg	stimuli_target_diamondcircles.svg	31	yes	53	1	354
6.6.1	win	2022-12-28	08:49:22	08:59:54	628673	61002c88afbf9f75e079b6e8	666978088	1	main_slash	11	advance_on_keypress_SLASH	118	stimuli_distractor_diamondtriangles.svg	stimuli_target_diamondcircles.svg	31	yes	57	0	547
6.6.1	win	2022-12-28	08:49:22	08:59:55	630179	61002c88afbf9f75e079b6e8	666978088	1	main_slash	11	main_slash	119	stimuli_distractor_diamondtriangles.svg	stimuli_target_trianglecircles.svg	29	yes	53	1	327
6.6.1	win	2022-12-28	08:49:22	08:59:55	630179	61002c88afbf9f75e079b6e8	666978088	1	main_slash	11	advance_on_keypress_SLASH	120	stimuli_distractor_diamondtriangles.svg	stimuli_target_trianglecircles.svg	29	yes	57	0	782
6.6.1	win	2022-12-28	08:49:22	08:59:59	633619	61002c88afbf9f75e079b6e8	666978088	1	main_slash	11	main_slash	121	stimuli_distractor_trianglediamonds.svg	stimuli_distractor_trianglediamonds.svg	34	no	0	1	2000
6.6.1	win	2022-12-28	08:49:22	08:59:59	633619	61002c88afbf9f75e079b6e8	666978088	1	main_slash	11	advance_on_keypress_SLASH	122	stimuli_distractor_trianglediamonds.svg	stimuli_distractor_trianglediamonds.svg	34	no	57	0	368
6.6.1	win	2022-12-28	08:49:22	09:00:02	636636	61002c88afbf9f75e079b6e8	666978088	1	main_slash	11	main_slash	123	stimuli_distractor_diamondtriangles.svg	stimuli_distractor_trianglediamonds.svg	37	no	0	1	2000
6.6.1	win	2022-12-28	08:49:22	09:00:02	636636	61002c88afbf9f75e079b6e8	666978088	1	main_slash	11	advance_on_keypress_SLASH	124	stimuli_distractor_diamondtriangles.svg	stimuli_distractor_trianglediamonds.svg	37	no	57	0	657
6.6.1	win	2022-12-28	08:49:22	09:00:03	638394	61002c88afbf9f75e079b6e8	666978088	1	main_slash	11	main_slash	125	stimuli_distractor_trianglediamonds.svg	stimuli_target_trianglesquares.svg	26	yes	53	1	458
6.6.1	win	2022-12-28	08:49:22	09:00:03	638394	61002c88afbf9f75e079b6e8	666978088	1	main_slash	11	advance_on_keypress_SLASH	126	stimuli_distractor_trianglediamonds.svg	stimuli_target_trianglesquares.svg	26	yes	57	0	603
6.6.1	win	2022-12-28	08:49:22	09:00:05	640099	61002c88afbf9f75e079b6e8	666978088	1	main_slash	11	main_slash	127	stimuli_target_squarediamonds.svg	stimuli_distractor_trianglediamonds.svg	4	yes	53	1	446
6.6.1	win	2022-12-28	08:49:22	09:00:05	640099	61002c88afbf9f75e079b6e8	666978088	1	main_slash	11	advance_on_keypress_SLASH	128	stimuli_target_squarediamonds.svg	stimuli_distractor_trianglediamonds.svg	4	yes	57	0	502
6.6.1	win	2022-12-28	08:49:22	09:00:08	643253	61002c88afbf9f75e079b6e8	666978088	1	main_slash	11	main_slash	129	stimuli_distractor_diamondtriangles.svg	stimuli_target_squarediamonds.svg	16	yes	0	0	2000
6.6.1	win	2022-12-28	08:49:22	09:00:08	643253	61002c88afbf9f75e079b6e8	666978088	1	main_slash	11	advance_on_keypress_SLASH	130	stimuli_distractor_diamondtriangles.svg	stimuli_target_squarediamonds.svg	16	yes	57	0	560
6.6.1	win	2022-12-28	08:49:22	09:00:10	644789	61002c88afbf9f75e079b6e8	666978088	1	main_slash	11	main_slash	131	stimuli_target_circlediamonds.svg	stimuli_distractor_diamondtriangles.svg	6	yes	53	1	336
6.6.1	win	2022-12-28	08:49:22	09:00:10	644789	61002c88afbf9f75e079b6e8	666978088	1	main_slash	11	advance_on_keypress_SLASH	132	stimuli_target_circlediamonds.svg	stimuli_distractor_diamondtriangles.svg	6	yes	57	0	535
6.6.1	win	2022-12-28	08:49:22	09:00:12	646622	61002c88afbf9f75e079b6e8	666978088	1	main_slash	11	main_slash	133	stimuli_target_trianglesquares.svg	stimuli_distractor_diamondtriangles.svg	22	yes	53	1	652
6.6.1	win	2022-12-28	08:49:22	09:00:12	646622	61002c88afbf9f75e079b6e8	666978088	1	main_slash	11	advance_on_keypress_SLASH	134	stimuli_target_trianglesquares.svg	stimuli_distractor_diamondtriangles.svg	22	yes	57	0	674
6.6.1	win	2022-12-28	08:49:22	09:00:14	648790	61002c88afbf9f75e079b6e8	666978088	1	main_slash	11	main_slash	135	stimuli_distractor_trianglediamonds.svg	stimuli_target_squaretriangles.svg	11	yes	53	1	854
6.6.1	win	2022-12-28	08:49:22	09:00:14	648790	61002c88afbf9f75e079b6e8	666978088	1	main_slash	11	advance_on_keypress_SLASH	136	stimuli_distractor_trianglediamonds.svg	stimuli_target_squaretriangles.svg	11	yes	57	0	591
6.6.1	win	2022-12-28	08:49:22	09:00:15	650438	61002c88afbf9f75e079b6e8	666978088	1	main_slash	11	main_slash	137	stimuli_distractor_trianglediamonds.svg	stimuli_target_circletriangles.svg	9	yes	53	1	418
6.6.1	win	2022-12-28	08:49:22	09:00:15	650438	61002c88afbf9f75e079b6e8	666978088	1	main_slash	11	advance_on_keypress_SLASH	138	stimuli_distractor_trianglediamonds.svg	stimuli_target_circletriangles.svg	9	yes	57	0	517
6.6.1	win	2022-12-28	08:49:22	09:00:17	652120	61002c88afbf9f75e079b6e8	666978088	1	main_slash	11	main_slash	139	stimuli_target_squaretriangles.svg	stimuli_distractor_diamondtriangles.svg	7	yes	53	1	509
6.6.1	win	2022-12-28	08:49:22	09:00:17	652120	61002c88afbf9f75e079b6e8	666978088	1	main_slash	11	advance_on_keypress_SLASH	140	stimuli_target_squaretriangles.svg	stimuli_distractor_diamondtriangles.svg	7	yes	57	0	572
6.6.1	win	2022-12-28	08:49:22	09:00:20	655337	61002c88afbf9f75e079b6e8	666978088	1	main_slash	11	main_slash	141	stimuli_distractor_diamondtriangles.svg	stimuli_distractor_trianglediamonds.svg	38	no	0	1	2000
6.6.1	win	2022-12-28	08:49:22	09:00:20	655337	61002c88afbf9f75e079b6e8	666978088	1	main_slash	11	advance_on_keypress_SLASH	142	stimuli_distractor_diamondtriangles.svg	stimuli_distractor_trianglediamonds.svg	38	no	57	0	757
6.6.1	win	2022-12-28	08:49:22	09:00:22	657200	61002c88afbf9f75e079b6e8	666978088	1	main_slash	11	main_slash	143	stimuli_target_trianglecircles.svg	stimuli_distractor_diamondtriangles.svg	21	yes	53	1	463
6.6.1	win	2022-12-28	08:49:22	09:00:22	657200	61002c88afbf9f75e079b6e8	666978088	1	main_slash	11	advance_on_keypress_SLASH	144	stimuli_target_trianglecircles.svg	stimuli_distractor_diamondtriangles.svg	21	yes	57	0	540
6.6.1	win	2022-12-28	08:49:22	09:00:24	659243	61002c88afbf9f75e079b6e8	666978088	1	main_slash	11	main_slash	145	stimuli_distractor_diamondtriangles.svg	stimuli_target_trianglesquares.svg	30	yes	53	1	856
6.6.1	win	2022-12-28	08:49:22	09:00:24	659243	61002c88afbf9f75e079b6e8	666978088	1	main_slash	11	advance_on_keypress_SLASH	146	stimuli_distractor_diamondtriangles.svg	stimuli_target_trianglesquares.svg	30	yes	57	0	848
6.6.1	win	2022-12-28	08:49:22	09:00:26	661105	61002c88afbf9f75e079b6e8	666978088	1	main_slash	11	main_slash	147	stimuli_target_diamondcircles.svg	stimuli_distractor_diamondtriangles.svg	23	yes	53	1	351
6.6.1	win	2022-12-28	08:49:22	09:00:26	661105	61002c88afbf9f75e079b6e8	666978088	1	main_slash	11	advance_on_keypress_SLASH	148	stimuli_target_diamondcircles.svg	stimuli_distractor_diamondtriangles.svg	23	yes	57	0	505
6.6.1	win	2022-12-28	08:49:22	09:00:29	664254	61002c88afbf9f75e079b6e8	666978088	1	main_slash	11	main_slash	149	stimuli_distractor_trianglediamonds.svg	stimuli_target_squarediamonds.svg	12	yes	0	0	2000
6.6.1	win	2022-12-28	08:49:22	09:00:29	664254	61002c88afbf9f75e079b6e8	666978088	1	main_slash	11	advance_on_keypress_SLASH	150	stimuli_distractor_trianglediamonds.svg	stimuli_target_squarediamonds.svg	12	yes	57	0	446
6.6.1	win	2022-12-28	08:49:22	09:00:31	665728	61002c88afbf9f75e079b6e8	666978088	1	main_slash	11	main_slash	151	stimuli_target_circlediamonds.svg	stimuli_distractor_trianglediamonds.svg	2	yes	53	1	391
6.6.1	win	2022-12-28	08:49:22	09:00:31	665728	61002c88afbf9f75e079b6e8	666978088	1	main_slash	11	advance_on_keypress_SLASH	152	stimuli_target_circlediamonds.svg	stimuli_distractor_trianglediamonds.svg	2	yes	57	0	644
6.6.1	win	2022-12-28	08:49:22	09:00:33	667669	61002c88afbf9f75e079b6e8	666978088	1	main_slash	11	main_slash	153	stimuli_distractor_trianglediamonds.svg	stimuli_target_circlediamonds.svg	10	yes	53	1	649
6.6.1	win	2022-12-28	08:49:22	09:00:33	667669	61002c88afbf9f75e079b6e8	666978088	1	main_slash	11	advance_on_keypress_SLASH	154	stimuli_distractor_trianglediamonds.svg	stimuli_target_circlediamonds.svg	10	yes	57	0	589
6.6.1	win	2022-12-28	08:49:22	09:00:34	669354	61002c88afbf9f75e079b6e8	666978088	1	main_slash	11	main_slash	155	stimuli_distractor_trianglediamonds.svg	stimuli_target_diamondsquares.svg	28	yes	53	1	450
6.6.1	win	2022-12-28	08:49:22	09:00:34	669354	61002c88afbf9f75e079b6e8	666978088	1	main_slash	11	advance_on_keypress_SLASH	156	stimuli_distractor_trianglediamonds.svg	stimuli_target_diamondsquares.svg	28	yes	57	0	585
6.6.1	win	2022-12-28	08:49:22	09:00:37	672588	61002c88afbf9f75e079b6e8	666978088	1	main_slash	11	main_slash	157	stimuli_distractor_diamondtriangles.svg	stimuli_distractor_diamondtriangles.svg	39	no	0	1	2000
6.6.1	win	2022-12-28	08:49:22	09:00:37	672588	61002c88afbf9f75e079b6e8	666978088	1	main_slash	11	advance_on_keypress_SLASH	158	stimuli_distractor_diamondtriangles.svg	stimuli_distractor_diamondtriangles.svg	39	no	57	0	343
6.6.1	win	2022-12-28	08:49:22	09:00:39	674028	61002c88afbf9f75e079b6e8	666978088	1	main_slash	11	main_slash	159	stimuli_target_diamondsquares.svg	stimuli_distractor_trianglediamonds.svg	20	yes	53	1	457
6.6.1	win	2022-12-28	08:49:22	09:00:39	674028	61002c88afbf9f75e079b6e8	666978088	1	main_slash	11	advance_on_keypress_SLASH	160	stimuli_target_diamondsquares.svg	stimuli_distractor_trianglediamonds.svg	20	yes	57	0	567