build	computer.platform	date	time	timestamp	time_elapsed_ms	subject	group	session	blockcode	blocknum	trialcode	trialnum	stimulus_left	stimulus_right	stim_index	target_present	response	correct	latency
6.6.1	win	2022-11-07	13:50:24	13:53:24	178446	5d5315f889849a0001a76d1a	11209517	1	practice_slash	5	practice_slash	1	stimuli_distractor_trianglediamonds.svg	stimuli_distractor_diamondtriangles.svg	16	no	0	1	2000
6.6.1	win	2022-11-07	13:50:24	13:53:24	178446	5d5315f889849a0001a76d1a	11209517	1	practice_slash	5	advance_on_keypress_SLASH	2	stimuli_distractor_trianglediamonds.svg	stimuli_distractor_diamondtriangles.svg	16	no	57	0	1319
6.6.1	win	2022-11-07	13:50:24	13:53:28	181792	5d5315f889849a0001a76d1a	11209517	1	practice_slash	5	practice_slash	3	stimuli_distractor_diamondtriangles.svg	stimuli_target_diamondcircles.svg	8	yes	53	1	377
6.6.1	win	2022-11-07	13:50:24	13:53:28	181792	5d5315f889849a0001a76d1a	11209517	1	practice_slash	5	advance_on_keypress_SLASH	4	stimuli_distractor_diamondtriangles.svg	stimuli_target_diamondcircles.svg	8	yes	57	0	1137
6.6.1	win	2022-11-07	13:50:24	13:53:31	185004	5d5315f889849a0001a76d1a	11209517	1	practice_slash	5	practice_slash	5	stimuli_distractor_diamondtriangles.svg	stimuli_target_circletriangles.svg	7	yes	53	1	426
6.6.1	win	2022-11-07	13:50:24	13:53:31	185004	5d5315f889849a0001a76d1a	11209517	1	practice_slash	5	advance_on_keypress_SLASH	6	stimuli_distractor_diamondtriangles.svg	stimuli_target_circletriangles.svg	7	yes	57	0	753
6.6.1	win	2022-11-07	13:50:24	13:53:34	187932	5d5315f889849a0001a76d1a	11209517	1	practice_slash	5	practice_slash	7	stimuli_target_diamondsquares.svg	stimuli_distractor_diamondtriangles.svg	3	yes	53	1	521
6.6.1	win	2022-11-07	13:50:24	13:53:34	187932	5d5315f889849a0001a76d1a	11209517	1	practice_slash	5	advance_on_keypress_SLASH	8	stimuli_target_diamondsquares.svg	stimuli_distractor_diamondtriangles.svg	3	yes	57	0	1036
6.6.1	win	2022-11-07	13:50:24	13:53:38	192610	5d5315f889849a0001a76d1a	11209517	1	practice_slash	5	practice_slash	9	stimuli_distractor_diamondtriangles.svg	stimuli_distractor_diamondtriangles.svg	13	no	0	1	2000
6.6.1	win	2022-11-07	13:50:24	13:53:38	192610	5d5315f889849a0001a76d1a	11209517	1	practice_slash	5	advance_on_keypress_SLASH	10	stimuli_distractor_diamondtriangles.svg	stimuli_distractor_diamondtriangles.svg	13	no	57	0	1249
6.6.1	win	2022-11-07	13:50:24	13:53:43	197510	5d5315f889849a0001a76d1a	11209517	1	practice_slash	5	practice_slash	11	stimuli_distractor_diamondtriangles.svg	stimuli_distractor_trianglediamonds.svg	14	no	0	1	2000
6.6.1	win	2022-11-07	13:50:24	13:53:43	197510	5d5315f889849a0001a76d1a	11209517	1	practice_slash	5	advance_on_keypress_SLASH	12	stimuli_distractor_diamondtriangles.svg	stimuli_distractor_trianglediamonds.svg	14	no	57	0	654
6.6.1	win	2022-11-07	13:50:24	13:53:46	200588	5d5315f889849a0001a76d1a	11209517	1	practice_slash	5	practice_slash	13	stimuli_distractor_trianglediamonds.svg	stimuli_target_squarediamonds.svg	11	yes	53	1	779
6.6.1	win	2022-11-07	13:50:24	13:53:46	200588	5d5315f889849a0001a76d1a	11209517	1	practice_slash	5	advance_on_keypress_SLASH	14	stimuli_distractor_trianglediamonds.svg	stimuli_target_squarediamonds.svg	11	yes	57	0	595
6.6.1	win	2022-11-07	13:50:24	13:53:49	203276	5d5315f889849a0001a76d1a	11209517	1	practice_slash	5	practice_slash	15	stimuli_distractor_diamondtriangles.svg	stimuli_target_trianglecircles.svg	9	yes	53	1	434
6.6.1	win	2022-11-07	13:50:24	13:53:49	203276	5d5315f889849a0001a76d1a	11209517	1	practice_slash	5	advance_on_keypress_SLASH	16	stimuli_distractor_diamondtriangles.svg	stimuli_target_trianglecircles.svg	9	yes	57	0	712
6.6.1	win	2022-11-07	13:50:24	13:53:52	206060	5d5315f889849a0001a76d1a	11209517	1	practice_slash	5	practice_slash	17	stimuli_distractor_trianglediamonds.svg	stimuli_target_circlediamonds.svg	10	yes	53	1	418
6.6.1	win	2022-11-07	13:50:24	13:53:52	206060	5d5315f889849a0001a76d1a	11209517	1	practice_slash	5	advance_on_keypress_SLASH	18	stimuli_distractor_trianglediamonds.svg	stimuli_target_circlediamonds.svg	10	yes	57	0	1672
6.6.1	win	2022-11-07	13:50:24	13:53:56	209788	5d5315f889849a0001a76d1a	11209517	1	practice_slash	5	practice_slash	19	stimuli_target_circlediamonds.svg	stimuli_distractor_trianglediamonds.svg	4	yes	53	1	413
6.6.1	win	2022-11-07	13:50:24	13:53:56	209788	5d5315f889849a0001a76d1a	11209517	1	practice_slash	5	advance_on_keypress_SLASH	20	stimuli_target_circlediamonds.svg	stimuli_distractor_trianglediamonds.svg	4	yes	57	0	516
6.6.1	win	2022-11-07	13:50:24	13:53:58	212339	5d5315f889849a0001a76d1a	11209517	1	practice_slash	5	practice_slash	21	stimuli_target_circlediamonds.svg	stimuli_distractor_diamondtriangles.svg	1	yes	53	1	375
6.6.1	win	2022-11-07	13:50:24	13:53:58	212339	5d5315f889849a0001a76d1a	11209517	1	practice_slash	5	advance_on_keypress_SLASH	22	stimuli_target_circlediamonds.svg	stimuli_distractor_diamondtriangles.svg	1	yes	57	0	222
6.6.1	win	2022-11-07	13:50:24	13:54:00	214620	5d5315f889849a0001a76d1a	11209517	1	practice_slash	5	practice_slash	23	stimuli_target_squarediamonds.svg	stimuli_distractor_diamondtriangles.svg	2	yes	53	1	413
6.6.1	win	2022-11-07	13:50:24	13:54:00	214620	5d5315f889849a0001a76d1a	11209517	1	practice_slash	5	advance_on_keypress_SLASH	24	stimuli_target_squarediamonds.svg	stimuli_distractor_diamondtriangles.svg	2	yes	57	0	1427
6.6.1	win	2022-11-07	13:50:24	13:54:04	218088	5d5315f889849a0001a76d1a	11209517	1	practice_slash	5	practice_slash	25	stimuli_target_squarediamonds.svg	stimuli_distractor_trianglediamonds.svg	5	yes	53	1	370
6.6.1	win	2022-11-07	13:50:24	13:54:04	218088	5d5315f889849a0001a76d1a	11209517	1	practice_slash	5	advance_on_keypress_SLASH	26	stimuli_target_squarediamonds.svg	stimuli_distractor_trianglediamonds.svg	5	yes	57	0	488
6.6.1	win	2022-11-07	13:50:24	13:54:06	220572	5d5315f889849a0001a76d1a	11209517	1	practice_slash	5	practice_slash	27	stimuli_distractor_trianglediamonds.svg	stimuli_target_diamondcircles.svg	12	yes	53	1	349
6.6.1	win	2022-11-07	13:50:24	13:54:06	220572	5d5315f889849a0001a76d1a	11209517	1	practice_slash	5	advance_on_keypress_SLASH	28	stimuli_distractor_trianglediamonds.svg	stimuli_target_diamondcircles.svg	12	yes	57	0	1190
6.6.1	win	2022-11-07	13:50:24	13:54:10	223772	5d5315f889849a0001a76d1a	11209517	1	practice_slash	5	practice_slash	29	stimuli_target_diamondsquares.svg	stimuli_distractor_trianglediamonds.svg	6	yes	53	1	366
6.6.1	win	2022-11-07	13:50:24	13:54:10	223772	5d5315f889849a0001a76d1a	11209517	1	practice_slash	5	advance_on_keypress_SLASH	30	stimuli_target_diamondsquares.svg	stimuli_distractor_trianglediamonds.svg	6	yes	57	0	678
6.6.1	win	2022-11-07	13:50:24	13:54:14	228106	5d5315f889849a0001a76d1a	11209517	1	practice_slash	5	practice_slash	31	stimuli_distractor_trianglediamonds.svg	stimuli_distractor_trianglediamonds.svg	15	no	0	1	2000
6.6.1	win	2022-11-07	13:50:24	13:54:14	228106	5d5315f889849a0001a76d1a	11209517	1	practice_slash	5	advance_on_keypress_SLASH	32	stimuli_distractor_trianglediamonds.svg	stimuli_distractor_trianglediamonds.svg	15	no	57	0	490
6.6.1	win	2022-11-07	13:50:24	13:54:57	271394	5d5315f889849a0001a76d1a	11209517	1	main_slash	7	main_slash	1	stimuli_distractor_diamondtriangles.svg	stimuli_distractor_trianglediamonds.svg	38	no	53	0	478
6.6.1	win	2022-11-07	13:50:24	13:54:57	271394	5d5315f889849a0001a76d1a	11209517	1	main_slash	7	advance_on_keypress_SLASH	2	stimuli_distractor_diamondtriangles.svg	stimuli_distractor_trianglediamonds.svg	38	no	57	0	2411
6.6.1	win	2022-11-07	13:50:24	13:55:01	274914	5d5315f889849a0001a76d1a	11209517	1	main_slash	7	main_slash	3	stimuli_target_trianglesquares.svg	stimuli_distractor_trianglediamonds.svg	18	yes	53	1	466
6.6.1	win	2022-11-07	13:50:24	13:55:01	274914	5d5315f889849a0001a76d1a	11209517	1	main_slash	7	advance_on_keypress_SLASH	4	stimuli_target_trianglesquares.svg	stimuli_distractor_trianglediamonds.svg	18	yes	57	0	1310
6.6.1	win	2022-11-07	13:50:24	13:55:05	278865	5d5315f889849a0001a76d1a	11209517	1	main_slash	7	main_slash	5	stimuli_distractor_trianglediamonds.svg	stimuli_distractor_trianglediamonds.svg	34	no	0	1	2000
6.6.1	win	2022-11-07	13:50:24	13:55:05	278865	5d5315f889849a0001a76d1a	11209517	1	main_slash	7	advance_on_keypress_SLASH	6	stimuli_distractor_trianglediamonds.svg	stimuli_distractor_trianglediamonds.svg	34	no	57	0	785
6.6.1	win	2022-11-07	13:50:24	13:55:07	280722	5d5315f889849a0001a76d1a	11209517	1	main_slash	7	main_slash	7	stimuli_target_circletriangles.svg	stimuli_distractor_trianglediamonds.svg	1	yes	53	1	424
6.6.1	win	2022-11-07	13:50:24	13:55:07	280722	5d5315f889849a0001a76d1a	11209517	1	main_slash	7	advance_on_keypress_SLASH	8	stimuli_target_circletriangles.svg	stimuli_distractor_trianglediamonds.svg	1	yes	57	0	2119
6.6.1	win	2022-11-07	13:50:24	13:55:10	283842	5d5315f889849a0001a76d1a	11209517	1	main_slash	7	main_slash	9	stimuli_target_diamondcircles.svg	stimuli_distractor_diamondtriangles.svg	23	yes	53	1	361
6.6.1	win	2022-11-07	13:50:24	13:55:10	283842	5d5315f889849a0001a76d1a	11209517	1	main_slash	7	advance_on_keypress_SLASH	10	stimuli_target_diamondcircles.svg	stimuli_distractor_diamondtriangles.svg	23	yes	57	0	1195
6.6.1	win	2022-11-07	13:50:24	13:55:12	286002	5d5315f889849a0001a76d1a	11209517	1	main_slash	7	main_slash	11	stimuli_distractor_diamondtriangles.svg	stimuli_target_diamondcircles.svg	31	yes	53	1	338
6.6.1	win	2022-11-07	13:50:24	13:55:12	286002	5d5315f889849a0001a76d1a	11209517	1	main_slash	7	advance_on_keypress_SLASH	12	stimuli_distractor_diamondtriangles.svg	stimuli_target_diamondcircles.svg	31	yes	57	0	1492
6.6.1	win	2022-11-07	13:50:24	13:55:14	288482	5d5315f889849a0001a76d1a	11209517	1	main_slash	7	main_slash	13	stimuli_distractor_diamondtriangles.svg	stimuli_target_circletriangles.svg	13	yes	53	1	352
6.6.1	win	2022-11-07	13:50:24	13:55:14	288482	5d5315f889849a0001a76d1a	11209517	1	main_slash	7	advance_on_keypress_SLASH	14	stimuli_distractor_diamondtriangles.svg	stimuli_target_circletriangles.svg	13	yes	57	0	577
6.6.1	win	2022-11-07	13:50:24	13:55:16	290114	5d5315f889849a0001a76d1a	11209517	1	main_slash	7	main_slash	15	stimuli_target_circlediamonds.svg	stimuli_distractor_diamondtriangles.svg	6	yes	53	1	417
6.6.1	win	2022-11-07	13:50:24	13:55:16	290114	5d5315f889849a0001a76d1a	11209517	1	main_slash	7	advance_on_keypress_SLASH	16	stimuli_target_circlediamonds.svg	stimuli_distractor_diamondtriangles.svg	6	yes	57	0	479
6.6.1	win	2022-11-07	13:50:24	13:55:19	293247	5d5315f889849a0001a76d1a	11209517	1	main_slash	7	main_slash	17	stimuli_distractor_diamondtriangles.svg	stimuli_distractor_trianglediamonds.svg	37	no	0	1	2000
6.6.1	win	2022-11-07	13:50:24	13:55:19	293247	5d5315f889849a0001a76d1a	11209517	1	main_slash	7	advance_on_keypress_SLASH	18	stimuli_distractor_diamondtriangles.svg	stimuli_distractor_trianglediamonds.svg	37	no	57	0	819
6.6.1	win	2022-11-07	13:50:24	13:55:21	295122	5d5315f889849a0001a76d1a	11209517	1	main_slash	7	main_slash	19	stimuli_distractor_trianglediamonds.svg	stimuli_target_squaretriangles.svg	11	yes	53	1	409
6.6.1	win	2022-11-07	13:50:24	13:55:21	295122	5d5315f889849a0001a76d1a	11209517	1	main_slash	7	advance_on_keypress_SLASH	20	stimuli_distractor_trianglediamonds.svg	stimuli_target_squaretriangles.svg	11	yes	57	0	952
6.6.1	win	2022-11-07	13:50:24	13:55:23	297234	5d5315f889849a0001a76d1a	11209517	1	main_slash	7	main_slash	21	stimuli_distractor_trianglediamonds.svg	stimuli_target_diamondsquares.svg	28	yes	53	1	521
6.6.1	win	2022-11-07	13:50:24	13:55:23	297234	5d5315f889849a0001a76d1a	11209517	1	main_slash	7	advance_on_keypress_SLASH	22	stimuli_distractor_trianglediamonds.svg	stimuli_target_diamondsquares.svg	28	yes	57	0	1315
6.6.1	win	2022-11-07	13:50:24	13:55:25	299577	5d5315f889849a0001a76d1a	11209517	1	main_slash	7	main_slash	23	stimuli_distractor_trianglediamonds.svg	stimuli_target_circlediamonds.svg	10	yes	53	1	374
6.6.1	win	2022-11-07	13:50:24	13:55:25	299577	5d5315f889849a0001a76d1a	11209517	1	main_slash	7	advance_on_keypress_SLASH	24	stimuli_distractor_trianglediamonds.svg	stimuli_target_circlediamonds.svg	10	yes	57	0	1286
6.6.1	win	2022-11-07	13:50:24	13:55:28	302674	5d5315f889849a0001a76d1a	11209517	1	main_slash	7	main_slash	25	stimuli_distractor_trianglediamonds.svg	stimuli_target_trianglesquares.svg	26	yes	53	1	1162
6.6.1	win	2022-11-07	13:50:24	13:55:28	302674	5d5315f889849a0001a76d1a	11209517	1	main_slash	7	advance_on_keypress_SLASH	26	stimuli_distractor_trianglediamonds.svg	stimuli_target_trianglesquares.svg	26	yes	57	0	1467
6.6.1	win	2022-11-07	13:50:24	13:55:31	305177	5d5315f889849a0001a76d1a	11209517	1	main_slash	7	main_slash	27	stimuli_distractor_trianglediamonds.svg	stimuli_target_diamondcircles.svg	27	yes	53	1	375
6.6.1	win	2022-11-07	13:50:24	13:55:31	305177	5d5315f889849a0001a76d1a	11209517	1	main_slash	7	advance_on_keypress_SLASH	28	stimuli_distractor_trianglediamonds.svg	stimuli_target_diamondcircles.svg	27	yes	57	0	615
6.6.1	win	2022-11-07	13:50:24	13:55:34	308445	5d5315f889849a0001a76d1a	11209517	1	main_slash	7	main_slash	29	stimuli_distractor_trianglediamonds.svg	stimuli_distractor_trianglediamonds.svg	33	no	0	1	2000
6.6.1	win	2022-11-07	13:50:24	13:55:34	308445	5d5315f889849a0001a76d1a	11209517	1	main_slash	7	advance_on_keypress_SLASH	30	stimuli_distractor_trianglediamonds.svg	stimuli_distractor_trianglediamonds.svg	33	no	57	0	613
6.6.1	win	2022-11-07	13:50:24	13:55:38	311711	5d5315f889849a0001a76d1a	11209517	1	main_slash	7	main_slash	31	stimuli_distractor_trianglediamonds.svg	stimuli_distractor_diamondtriangles.svg	36	no	0	1	2000
6.6.1	win	2022-11-07	13:50:24	13:55:38	311711	5d5315f889849a0001a76d1a	11209517	1	main_slash	7	advance_on_keypress_SLASH	32	stimuli_distractor_trianglediamonds.svg	stimuli_distractor_diamondtriangles.svg	36	no	57	0	707
6.6.1	win	2022-11-07	13:50:24	13:55:39	313458	5d5315f889849a0001a76d1a	11209517	1	main_slash	7	main_slash	33	stimuli_distractor_trianglediamonds.svg	stimuli_target_squarediamonds.svg	12	yes	53	1	397
6.6.1	win	2022-11-07	13:50:24	13:55:39	313458	5d5315f889849a0001a76d1a	11209517	1	main_slash	7	advance_on_keypress_SLASH	34	stimuli_distractor_trianglediamonds.svg	stimuli_target_squarediamonds.svg	12	yes	57	0	605
6.6.1	win	2022-11-07	13:50:24	13:55:41	315234	5d5315f889849a0001a76d1a	11209517	1	main_slash	7	main_slash	35	stimuli_target_squaretriangles.svg	stimuli_distractor_trianglediamonds.svg	3	yes	53	1	524
6.6.1	win	2022-11-07	13:50:24	13:55:41	315234	5d5315f889849a0001a76d1a	11209517	1	main_slash	7	advance_on_keypress_SLASH	36	stimuli_target_squaretriangles.svg	stimuli_distractor_trianglediamonds.svg	3	yes	57	0	662
6.6.1	win	2022-11-07	13:50:24	13:55:43	316898	5d5315f889849a0001a76d1a	11209517	1	main_slash	7	main_slash	37	stimuli_distractor_trianglediamonds.svg	stimuli_target_circletriangles.svg	9	yes	53	1	354
6.6.1	win	2022-11-07	13:50:24	13:55:43	316898	5d5315f889849a0001a76d1a	11209517	1	main_slash	7	advance_on_keypress_SLASH	38	stimuli_distractor_trianglediamonds.svg	stimuli_target_circletriangles.svg	9	yes	57	0	564
6.6.1	win	2022-11-07	13:50:24	13:55:44	318466	5d5315f889849a0001a76d1a	11209517	1	main_slash	7	main_slash	39	stimuli_target_trianglecircles.svg	stimuli_distractor_trianglediamonds.svg	17	yes	53	1	356
6.6.1	win	2022-11-07	13:50:24	13:55:44	318466	5d5315f889849a0001a76d1a	11209517	1	main_slash	7	advance_on_keypress_SLASH	40	stimuli_target_trianglecircles.svg	stimuli_distractor_trianglediamonds.svg	17	yes	57	0	629
6.6.1	win	2022-11-07	13:50:24	13:55:46	320146	5d5315f889849a0001a76d1a	11209517	1	main_slash	7	main_slash	41	stimuli_target_diamondsquares.svg	stimuli_distractor_trianglediamonds.svg	20	yes	53	1	403
6.6.1	win	2022-11-07	13:50:24	13:55:46	320146	5d5315f889849a0001a76d1a	11209517	1	main_slash	7	advance_on_keypress_SLASH	42	stimuli_target_diamondsquares.svg	stimuli_distractor_trianglediamonds.svg	20	yes	57	0	690
6.6.1	win	2022-11-07	13:50:24	13:55:48	321890	5d5315f889849a0001a76d1a	11209517	1	main_slash	7	main_slash	43	stimuli_target_squarediamonds.svg	stimuli_distractor_trianglediamonds.svg	4	yes	53	1	414
6.6.1	win	2022-11-07	13:50:24	13:55:48	321890	5d5315f889849a0001a76d1a	11209517	1	main_slash	7	advance_on_keypress_SLASH	44	stimuli_target_squarediamonds.svg	stimuli_distractor_trianglediamonds.svg	4	yes	57	0	476
6.6.1	win	2022-11-07	13:50:24	13:55:49	323362	5d5315f889849a0001a76d1a	11209517	1	main_slash	7	main_slash	45	stimuli_distractor_diamondtriangles.svg	stimuli_target_trianglesquares.svg	30	yes	53	1	352
6.6.1	win	2022-11-07	13:50:24	13:55:49	323362	5d5315f889849a0001a76d1a	11209517	1	main_slash	7	advance_on_keypress_SLASH	46	stimuli_distractor_diamondtriangles.svg	stimuli_target_trianglesquares.svg	30	yes	57	0	274
6.6.1	win	2022-11-07	13:50:24	13:55:51	324802	5d5315f889849a0001a76d1a	11209517	1	main_slash	7	main_slash	47	stimuli_target_squarediamonds.svg	stimuli_distractor_diamondtriangles.svg	8	yes	53	1	526
6.6.1	win	2022-11-07	13:50:24	13:55:51	324802	5d5315f889849a0001a76d1a	11209517	1	main_slash	7	advance_on_keypress_SLASH	48	stimuli_target_squarediamonds.svg	stimuli_distractor_diamondtriangles.svg	8	yes	57	0	504
6.6.1	win	2022-11-07	13:50:24	13:55:52	326306	5d5315f889849a0001a76d1a	11209517	1	main_slash	7	main_slash	49	stimuli_distractor_trianglediamonds.svg	stimuli_distractor_diamondtriangles.svg	35	no	53	0	364
6.6.1	win	2022-11-07	13:50:24	13:55:52	326306	5d5315f889849a0001a76d1a	11209517	1	main_slash	7	advance_on_keypress_SLASH	50	stimuli_distractor_trianglediamonds.svg	stimuli_distractor_diamondtriangles.svg	35	no	57	0	1052
6.6.1	win	2022-11-07	13:50:24	13:55:54	328306	5d5315f889849a0001a76d1a	11209517	1	main_slash	7	main_slash	51	stimuli_distractor_diamondtriangles.svg	stimuli_target_circlediamonds.svg	14	yes	53	1	297
6.6.1	win	2022-11-07	13:50:24	13:55:54	328306	5d5315f889849a0001a76d1a	11209517	1	main_slash	7	advance_on_keypress_SLASH	52	stimuli_distractor_diamondtriangles.svg	stimuli_target_circlediamonds.svg	14	yes	57	0	268
6.6.1	win	2022-11-07	13:50:24	13:55:55	329607	5d5315f889849a0001a76d1a	11209517	1	main_slash	7	main_slash	53	stimuli_distractor_diamondtriangles.svg	stimuli_target_trianglecircles.svg	29	yes	53	1	377
6.6.1	win	2022-11-07	13:50:24	13:55:55	329607	5d5315f889849a0001a76d1a	11209517	1	main_slash	7	advance_on_keypress_SLASH	54	stimuli_distractor_diamondtriangles.svg	stimuli_target_trianglecircles.svg	29	yes	57	0	505
6.6.1	win	2022-11-07	13:50:24	13:55:57	331090	5d5315f889849a0001a76d1a	11209517	1	main_slash	7	main_slash	55	stimuli_distractor_diamondtriangles.svg	stimuli_target_squaretriangles.svg	15	yes	53	1	331
6.6.1	win	2022-11-07	13:50:24	13:55:57	331090	5d5315f889849a0001a76d1a	11209517	1	main_slash	7	advance_on_keypress_SLASH	56	stimuli_distractor_diamondtriangles.svg	stimuli_target_squaretriangles.svg	15	yes	57	0	189
6.6.1	win	2022-11-07	13:50:24	13:55:58	332338	5d5315f889849a0001a76d1a	11209517	1	main_slash	7	main_slash	57	stimuli_target_squaretriangles.svg	stimuli_distractor_diamondtriangles.svg	7	yes	53	1	413
6.6.1	win	2022-11-07	13:50:24	13:55:58	332338	5d5315f889849a0001a76d1a	11209517	1	main_slash	7	advance_on_keypress_SLASH	58	stimuli_target_squaretriangles.svg	stimuli_distractor_diamondtriangles.svg	7	yes	57	0	204
6.6.1	win	2022-11-07	13:50:24	13:56:01	335192	5d5315f889849a0001a76d1a	11209517	1	main_slash	7	main_slash	59	stimuli_distractor_diamondtriangles.svg	stimuli_distractor_diamondtriangles.svg	40	no	0	1	2000
6.6.1	win	2022-11-07	13:50:24	13:56:01	335192	5d5315f889849a0001a76d1a	11209517	1	main_slash	7	advance_on_keypress_SLASH	60	stimuli_distractor_diamondtriangles.svg	stimuli_distractor_diamondtriangles.svg	40	no	57	0	6266
6.6.1	win	2022-11-07	13:50:24	13:56:08	342674	5d5315f889849a0001a76d1a	11209517	1	main_slash	7	main_slash	61	stimuli_target_diamondcircles.svg	stimuli_distractor_trianglediamonds.svg	19	yes	53	1	566
6.6.1	win	2022-11-07	13:50:24	13:56:08	342674	5d5315f889849a0001a76d1a	11209517	1	main_slash	7	advance_on_keypress_SLASH	62	stimuli_target_diamondcircles.svg	stimuli_distractor_trianglediamonds.svg	19	yes	57	0	543
6.6.1	win	2022-11-07	13:50:24	13:56:10	344274	5d5315f889849a0001a76d1a	11209517	1	main_slash	7	main_slash	63	stimuli_target_circletriangles.svg	stimuli_distractor_diamondtriangles.svg	5	yes	53	1	417
6.6.1	win	2022-11-07	13:50:24	13:56:10	344274	5d5315f889849a0001a76d1a	11209517	1	main_slash	7	advance_on_keypress_SLASH	64	stimuli_target_circletriangles.svg	stimuli_distractor_diamondtriangles.svg	5	yes	57	0	224
6.6.1	win	2022-11-07	13:50:24	13:56:11	345554	5d5315f889849a0001a76d1a	11209517	1	main_slash	7	main_slash	65	stimuli_target_diamondsquares.svg	stimuli_distractor_diamondtriangles.svg	24	yes	53	1	414
6.6.1	win	2022-11-07	13:50:24	13:56:11	345554	5d5315f889849a0001a76d1a	11209517	1	main_slash	7	advance_on_keypress_SLASH	66	stimuli_target_diamondsquares.svg	stimuli_distractor_diamondtriangles.svg	24	yes	57	0	220
6.6.1	win	2022-11-07	13:50:24	13:56:13	346994	5d5315f889849a0001a76d1a	11209517	1	main_slash	7	main_slash	67	stimuli_distractor_diamondtriangles.svg	stimuli_target_squarediamonds.svg	16	yes	53	1	570
6.6.1	win	2022-11-07	13:50:24	13:56:13	346994	5d5315f889849a0001a76d1a	11209517	1	main_slash	7	advance_on_keypress_SLASH	68	stimuli_distractor_diamondtriangles.svg	stimuli_target_squarediamonds.svg	16	yes	57	0	291
6.6.1	win	2022-11-07	13:50:24	13:56:14	348242	5d5315f889849a0001a76d1a	11209517	1	main_slash	7	main_slash	69	stimuli_distractor_diamondtriangles.svg	stimuli_distractor_diamondtriangles.svg	39	no	53	0	319
6.6.1	win	2022-11-07	13:50:24	13:56:14	348242	5d5315f889849a0001a76d1a	11209517	1	main_slash	7	advance_on_keypress_SLASH	70	stimuli_distractor_diamondtriangles.svg	stimuli_distractor_diamondtriangles.svg	39	no	57	0	1297
6.6.1	win	2022-11-07	13:50:24	13:56:16	350594	5d5315f889849a0001a76d1a	11209517	1	main_slash	7	main_slash	71	stimuli_target_circlediamonds.svg	stimuli_distractor_trianglediamonds.svg	2	yes	53	1	404
6.6.1	win	2022-11-07	13:50:24	13:56:16	350594	5d5315f889849a0001a76d1a	11209517	1	main_slash	7	advance_on_keypress_SLASH	72	stimuli_target_circlediamonds.svg	stimuli_distractor_trianglediamonds.svg	2	yes	57	0	292
6.6.1	win	2022-11-07	13:50:24	13:56:18	352018	5d5315f889849a0001a76d1a	11209517	1	main_slash	7	main_slash	73	stimuli_target_trianglesquares.svg	stimuli_distractor_diamondtriangles.svg	22	yes	53	1	495
6.6.1	win	2022-11-07	13:50:24	13:56:18	352018	5d5315f889849a0001a76d1a	11209517	1	main_slash	7	advance_on_keypress_SLASH	74	stimuli_target_trianglesquares.svg	stimuli_distractor_diamondtriangles.svg	22	yes	57	0	331
6.6.1	win	2022-11-07	13:50:24	13:56:19	353426	5d5315f889849a0001a76d1a	11209517	1	main_slash	7	main_slash	75	stimuli_target_trianglecircles.svg	stimuli_distractor_diamondtriangles.svg	21	yes	53	1	420
6.6.1	win	2022-11-07	13:50:24	13:56:19	353426	5d5315f889849a0001a76d1a	11209517	1	main_slash	7	advance_on_keypress_SLASH	76	stimuli_target_trianglecircles.svg	stimuli_distractor_diamondtriangles.svg	21	yes	57	0	227
6.6.1	win	2022-11-07	13:50:24	13:56:21	354754	5d5315f889849a0001a76d1a	11209517	1	main_slash	7	main_slash	77	stimuli_distractor_diamondtriangles.svg	stimuli_target_diamondsquares.svg	32	yes	53	1	465
6.6.1	win	2022-11-07	13:50:24	13:56:21	354754	5d5315f889849a0001a76d1a	11209517	1	main_slash	7	advance_on_keypress_SLASH	78	stimuli_distractor_diamondtriangles.svg	stimuli_target_diamondsquares.svg	32	yes	57	0	237
6.6.1	win	2022-11-07	13:50:24	13:56:22	356082	5d5315f889849a0001a76d1a	11209517	1	main_slash	7	main_slash	79	stimuli_distractor_trianglediamonds.svg	stimuli_target_trianglecircles.svg	25	yes	53	1	443
6.6.1	win	2022-11-07	13:50:24	13:56:22	356082	5d5315f889849a0001a76d1a	11209517	1	main_slash	7	advance_on_keypress_SLASH	80	stimuli_distractor_trianglediamonds.svg	stimuli_target_trianglecircles.svg	25	yes	57	0	201
6.6.1	win	2022-11-07	13:50:24	13:56:23	357378	5d5315f889849a0001a76d1a	11209517	1	main_slash	7	main_slash	81	stimuli_target_trianglecircles.svg	stimuli_distractor_diamondtriangles.svg	21	yes	53	1	456
6.6.1	win	2022-11-07	13:50:24	13:56:23	357378	5d5315f889849a0001a76d1a	11209517	1	main_slash	7	advance_on_keypress_SLASH	82	stimuli_target_trianglecircles.svg	stimuli_distractor_diamondtriangles.svg	21	yes	57	0	181
6.6.1	win	2022-11-07	13:50:24	13:56:24	358626	5d5315f889849a0001a76d1a	11209517	1	main_slash	7	main_slash	83	stimuli_distractor_trianglediamonds.svg	stimuli_target_diamondsquares.svg	28	yes	53	1	421
6.6.1	win	2022-11-07	13:50:24	13:56:24	358626	5d5315f889849a0001a76d1a	11209517	1	main_slash	7	advance_on_keypress_SLASH	84	stimuli_distractor_trianglediamonds.svg	stimuli_target_diamondsquares.svg	28	yes	57	0	243
6.6.1	win	2022-11-07	13:50:24	13:56:26	360002	5d5315f889849a0001a76d1a	11209517	1	main_slash	7	main_slash	85	stimuli_distractor_trianglediamonds.svg	stimuli_distractor_diamondtriangles.svg	35	no	53	0	497
6.6.1	win	2022-11-07	13:50:24	13:56:26	360002	5d5315f889849a0001a76d1a	11209517	1	main_slash	7	advance_on_keypress_SLASH	86	stimuli_distractor_trianglediamonds.svg	stimuli_distractor_diamondtriangles.svg	35	no	57	0	332
6.6.1	win	2022-11-07	13:50:24	13:56:27	361522	5d5315f889849a0001a76d1a	11209517	1	main_slash	7	main_slash	87	stimuli_distractor_diamondtriangles.svg	stimuli_target_squaretriangles.svg	15	yes	53	1	534
6.6.1	win	2022-11-07	13:50:24	13:56:27	361522	5d5315f889849a0001a76d1a	11209517	1	main_slash	7	advance_on_keypress_SLASH	88	stimuli_distractor_diamondtriangles.svg	stimuli_target_squaretriangles.svg	15	yes	57	0	208
6.6.1	win	2022-11-07	13:50:24	13:56:30	364372	5d5315f889849a0001a76d1a	11209517	1	main_slash	7	main_slash	89	stimuli_distractor_trianglediamonds.svg	stimuli_distractor_diamondtriangles.svg	36	no	0	1	2000
6.6.1	win	2022-11-07	13:50:24	13:56:30	364372	5d5315f889849a0001a76d1a	11209517	1	main_slash	7	advance_on_keypress_SLASH	90	stimuli_distractor_trianglediamonds.svg	stimuli_distractor_diamondtriangles.svg	36	no	57	0	2478
6.6.1	win	2022-11-07	13:50:24	13:56:34	368130	5d5315f889849a0001a76d1a	11209517	1	main_slash	7	main_slash	91	stimuli_target_diamondsquares.svg	stimuli_distractor_diamondtriangles.svg	24	yes	53	1	642
6.6.1	win	2022-11-07	13:50:24	13:56:34	368130	5d5315f889849a0001a76d1a	11209517	1	main_slash	7	advance_on_keypress_SLASH	92	stimuli_target_diamondsquares.svg	stimuli_distractor_diamondtriangles.svg	24	yes	57	0	248
6.6.1	win	2022-11-07	13:50:24	13:56:35	369490	5d5315f889849a0001a76d1a	11209517	1	main_slash	7	main_slash	93	stimuli_distractor_diamondtriangles.svg	stimuli_target_diamondcircles.svg	31	yes	53	1	469
6.6.1	win	2022-11-07	13:50:24	13:56:35	369490	5d5315f889849a0001a76d1a	11209517	1	main_slash	7	advance_on_keypress_SLASH	94	stimuli_distractor_diamondtriangles.svg	stimuli_target_diamondcircles.svg	31	yes	57	0	178
6.6.1	win	2022-11-07	13:50:24	13:56:37	370738	5d5315f889849a0001a76d1a	11209517	1	main_slash	7	main_slash	95	stimuli_target_circletriangles.svg	stimuli_distractor_trianglediamonds.svg	1	yes	53	1	434
6.6.1	win	2022-11-07	13:50:24	13:56:37	370738	5d5315f889849a0001a76d1a	11209517	1	main_slash	7	advance_on_keypress_SLASH	96	stimuli_target_circletriangles.svg	stimuli_distractor_trianglediamonds.svg	1	yes	57	0	224
6.6.1	win	2022-11-07	13:50:24	13:56:38	372018	5d5315f889849a0001a76d1a	11209517	1	main_slash	7	main_slash	97	stimuli_distractor_diamondtriangles.svg	stimuli_distractor_trianglediamonds.svg	37	no	53	0	414
6.6.1	win	2022-11-07	13:50:24	13:56:38	372018	5d5315f889849a0001a76d1a	11209517	1	main_slash	7	advance_on_keypress_SLASH	98	stimuli_distractor_diamondtriangles.svg	stimuli_distractor_trianglediamonds.svg	37	no	57	0	573
6.6.1	win	2022-11-07	13:50:24	13:56:40	374130	5d5315f889849a0001a76d1a	11209517	1	main_slash	7	main_slash	99	stimuli_target_squaretriangles.svg	stimuli_distractor_diamondtriangles.svg	7	yes	53	1	893
6.6.1	win	2022-11-07	13:50:24	13:56:40	374130	5d5315f889849a0001a76d1a	11209517	1	main_slash	7	advance_on_keypress_SLASH	100	stimuli_target_squaretriangles.svg	stimuli_distractor_diamondtriangles.svg	7	yes	57	0	329
6.6.1	win	2022-11-07	13:50:24	13:56:43	377104	5d5315f889849a0001a76d1a	11209517	1	main_slash	7	main_slash	101	stimuli_distractor_trianglediamonds.svg	stimuli_distractor_trianglediamonds.svg	34	no	0	1	2000
6.6.1	win	2022-11-07	13:50:24	13:56:43	377104	5d5315f889849a0001a76d1a	11209517	1	main_slash	7	advance_on_keypress_SLASH	102	stimuli_distractor_trianglediamonds.svg	stimuli_distractor_trianglediamonds.svg	34	no	57	0	1010
6.6.1	win	2022-11-07	13:50:24	13:56:47	380753	5d5315f889849a0001a76d1a	11209517	1	main_slash	7	main_slash	103	stimuli_distractor_diamondtriangles.svg	stimuli_distractor_diamondtriangles.svg	40	no	0	1	2000
6.6.1	win	2022-11-07	13:50:24	13:56:47	380753	5d5315f889849a0001a76d1a	11209517	1	main_slash	7	advance_on_keypress_SLASH	104	stimuli_distractor_diamondtriangles.svg	stimuli_distractor_diamondtriangles.svg	40	no	57	0	1409
6.6.1	win	2022-11-07	13:50:24	13:56:49	383394	5d5315f889849a0001a76d1a	11209517	1	main_slash	7	main_slash	105	stimuli_target_trianglesquares.svg	stimuli_distractor_trianglediamonds.svg	18	yes	53	1	591
6.6.1	win	2022-11-07	13:50:24	13:56:49	383394	5d5315f889849a0001a76d1a	11209517	1	main_slash	7	advance_on_keypress_SLASH	106	stimuli_target_trianglesquares.svg	stimuli_distractor_trianglediamonds.svg	18	yes	57	0	167
6.6.1	win	2022-11-07	13:50:24	13:56:50	384594	5d5315f889849a0001a76d1a	11209517	1	main_slash	7	main_slash	107	stimuli_distractor_diamondtriangles.svg	stimuli_target_diamondsquares.svg	32	yes	53	1	392
6.6.1	win	2022-11-07	13:50:24	13:56:50	384594	5d5315f889849a0001a76d1a	11209517	1	main_slash	7	advance_on_keypress_SLASH	108	stimuli_distractor_diamondtriangles.svg	stimuli_target_diamondsquares.svg	32	yes	57	0	136
6.6.1	win	2022-11-07	13:50:24	13:56:52	385762	5d5315f889849a0001a76d1a	11209517	1	main_slash	7	main_slash	109	stimuli_distractor_diamondtriangles.svg	stimuli_target_circlediamonds.svg	14	yes	53	1	393
6.6.1	win	2022-11-07	13:50:24	13:56:52	385762	5d5315f889849a0001a76d1a	11209517	1	main_slash	7	advance_on_keypress_SLASH	110	stimuli_distractor_diamondtriangles.svg	stimuli_target_circlediamonds.svg	14	yes	57	0	121
6.6.1	win	2022-11-07	13:50:24	13:56:53	386946	5d5315f889849a0001a76d1a	11209517	1	main_slash	7	main_slash	111	stimuli_distractor_trianglediamonds.svg	stimuli_target_squaretriangles.svg	11	yes	53	1	427
6.6.1	win	2022-11-07	13:50:24	13:56:53	386946	5d5315f889849a0001a76d1a	11209517	1	main_slash	7	advance_on_keypress_SLASH	112	stimuli_distractor_trianglediamonds.svg	stimuli_target_squaretriangles.svg	11	yes	57	0	106
6.6.1	win	2022-11-07	13:50:24	13:56:54	388018	5d5315f889849a0001a76d1a	11209517	1	main_slash	7	main_slash	113	stimuli_target_circlediamonds.svg	stimuli_distractor_trianglediamonds.svg	2	yes	53	1	332
6.6.1	win	2022-11-07	13:50:24	13:56:54	388018	5d5315f889849a0001a76d1a	11209517	1	main_slash	7	advance_on_keypress_SLASH	114	stimuli_target_circlediamonds.svg	stimuli_distractor_trianglediamonds.svg	2	yes	57	0	95
6.6.1	win	2022-11-07	13:50:24	13:56:55	389106	5d5315f889849a0001a76d1a	11209517	1	main_slash	7	main_slash	115	stimuli_distractor_trianglediamonds.svg	stimuli_target_circlediamonds.svg	10	yes	53	1	354
6.6.1	win	2022-11-07	13:50:24	13:56:55	389106	5d5315f889849a0001a76d1a	11209517	1	main_slash	7	advance_on_keypress_SLASH	116	stimuli_distractor_trianglediamonds.svg	stimuli_target_circlediamonds.svg	10	yes	57	0	67
6.6.1	win	2022-11-07	13:50:24	13:56:56	390162	5d5315f889849a0001a76d1a	11209517	1	main_slash	7	main_slash	117	stimuli_distractor_trianglediamonds.svg	stimuli_target_diamondcircles.svg	27	yes	53	1	343
6.6.1	win	2022-11-07	13:50:24	13:56:56	390162	5d5315f889849a0001a76d1a	11209517	1	main_slash	7	advance_on_keypress_SLASH	118	stimuli_distractor_trianglediamonds.svg	stimuli_target_diamondcircles.svg	27	yes	57	0	105
6.6.1	win	2022-11-07	13:50:24	13:56:57	391330	5d5315f889849a0001a76d1a	11209517	1	main_slash	7	main_slash	119	stimuli_distractor_diamondtriangles.svg	stimuli_target_trianglesquares.svg	30	yes	53	1	428
6.6.1	win	2022-11-07	13:50:24	13:56:57	391330	5d5315f889849a0001a76d1a	11209517	1	main_slash	7	advance_on_keypress_SLASH	120	stimuli_distractor_diamondtriangles.svg	stimuli_target_trianglesquares.svg	30	yes	57	0	379
6.6.1	win	2022-11-07	13:50:24	13:56:58	392690	5d5315f889849a0001a76d1a	11209517	1	main_slash	7	main_slash	121	stimuli_distractor_diamondtriangles.svg	stimuli_distractor_diamondtriangles.svg	39	no	53	0	338
6.6.1	win	2022-11-07	13:50:24	13:56:58	392690	5d5315f889849a0001a76d1a	11209517	1	main_slash	7	advance_on_keypress_SLASH	122	stimuli_distractor_diamondtriangles.svg	stimuli_distractor_diamondtriangles.svg	39	no	57	0	133
6.6.1	win	2022-11-07	13:50:24	13:57:00	394162	5d5315f889849a0001a76d1a	11209517	1	main_slash	7	main_slash	123	stimuli_target_trianglesquares.svg	stimuli_distractor_diamondtriangles.svg	22	yes	53	1	694
6.6.1	win	2022-11-07	13:50:24	13:57:00	394162	5d5315f889849a0001a76d1a	11209517	1	main_slash	7	advance_on_keypress_SLASH	124	stimuli_target_trianglesquares.svg	stimuli_distractor_diamondtriangles.svg	22	yes	57	0	89
6.6.1	win	2022-11-07	13:50:24	13:57:01	395266	5d5315f889849a0001a76d1a	11209517	1	main_slash	7	main_slash	125	stimuli_distractor_trianglediamonds.svg	stimuli_target_trianglecircles.svg	25	yes	53	1	365
6.6.1	win	2022-11-07	13:50:24	13:57:01	395266	5d5315f889849a0001a76d1a	11209517	1	main_slash	7	advance_on_keypress_SLASH	126	stimuli_distractor_trianglediamonds.svg	stimuli_target_trianglecircles.svg	25	yes	57	0	93
6.6.1	win	2022-11-07	13:50:24	13:57:02	396338	5d5315f889849a0001a76d1a	11209517	1	main_slash	7	main_slash	127	stimuli_target_squarediamonds.svg	stimuli_distractor_diamondtriangles.svg	8	yes	53	1	337
6.6.1	win	2022-11-07	13:50:24	13:57:02	396338	5d5315f889849a0001a76d1a	11209517	1	main_slash	7	advance_on_keypress_SLASH	128	stimuli_target_squarediamonds.svg	stimuli_distractor_diamondtriangles.svg	8	yes	57	0	115
6.6.1	win	2022-11-07	13:50:24	13:57:03	397378	5d5315f889849a0001a76d1a	11209517	1	main_slash	7	main_slash	129	stimuli_distractor_trianglediamonds.svg	stimuli_target_trianglesquares.svg	26	yes	53	1	277
6.6.1	win	2022-11-07	13:50:24	13:57:03	397378	5d5315f889849a0001a76d1a	11209517	1	main_slash	7	advance_on_keypress_SLASH	130	stimuli_distractor_trianglediamonds.svg	stimuli_target_trianglesquares.svg	26	yes	57	0	105
6.6.1	win	2022-11-07	13:50:24	13:57:04	398499	5d5315f889849a0001a76d1a	11209517	1	main_slash	7	main_slash	131	stimuli_distractor_diamondtriangles.svg	stimuli_target_circletriangles.svg	13	yes	53	1	380
6.6.1	win	2022-11-07	13:50:24	13:57:04	398499	5d5315f889849a0001a76d1a	11209517	1	main_slash	7	advance_on_keypress_SLASH	132	stimuli_distractor_diamondtriangles.svg	stimuli_target_circletriangles.svg	13	yes	57	0	93
6.6.1	win	2022-11-07	13:50:24	13:57:05	399586	5d5315f889849a0001a76d1a	11209517	1	main_slash	7	main_slash	133	stimuli_distractor_diamondtriangles.svg	stimuli_target_trianglecircles.svg	29	yes	53	1	352
6.6.1	win	2022-11-07	13:50:24	13:57:05	399586	5d5315f889849a0001a76d1a	11209517	1	main_slash	7	advance_on_keypress_SLASH	134	stimuli_distractor_diamondtriangles.svg	stimuli_target_trianglecircles.svg	29	yes	57	0	81
6.6.1	win	2022-11-07	13:50:24	13:57:06	400626	5d5315f889849a0001a76d1a	11209517	1	main_slash	7	main_slash	135	stimuli_target_diamondcircles.svg	stimuli_distractor_trianglediamonds.svg	19	yes	53	1	309
6.6.1	win	2022-11-07	13:50:24	13:57:06	400626	5d5315f889849a0001a76d1a	11209517	1	main_slash	7	advance_on_keypress_SLASH	136	stimuli_target_diamondcircles.svg	stimuli_distractor_trianglediamonds.svg	19	yes	57	0	120
6.6.1	win	2022-11-07	13:50:24	13:57:08	401730	5d5315f889849a0001a76d1a	11209517	1	main_slash	7	main_slash	137	stimuli_target_circlediamonds.svg	stimuli_distractor_diamondtriangles.svg	6	yes	53	1	346
6.6.1	win	2022-11-07	13:50:24	13:57:08	401730	5d5315f889849a0001a76d1a	11209517	1	main_slash	7	advance_on_keypress_SLASH	138	stimuli_target_circlediamonds.svg	stimuli_distractor_diamondtriangles.svg	6	yes	57	0	108
6.6.1	win	2022-11-07	13:50:24	13:57:09	402882	5d5315f889849a0001a76d1a	11209517	1	main_slash	7	main_slash	139	stimuli_target_squaretriangles.svg	stimuli_distractor_trianglediamonds.svg	3	yes	53	1	398
6.6.1	win	2022-11-07	13:50:24	13:57:09	402882	5d5315f889849a0001a76d1a	11209517	1	main_slash	7	advance_on_keypress_SLASH	140	stimuli_target_squaretriangles.svg	stimuli_distractor_trianglediamonds.svg	3	yes	57	0	109
6.6.1	win	2022-11-07	13:50:24	13:57:10	403970	5d5315f889849a0001a76d1a	11209517	1	main_slash	7	main_slash	141	stimuli_target_trianglecircles.svg	stimuli_distractor_trianglediamonds.svg	17	yes	53	1	336
6.6.1	win	2022-11-07	13:50:24	13:57:10	403970	5d5315f889849a0001a76d1a	11209517	1	main_slash	7	advance_on_keypress_SLASH	142	stimuli_target_trianglecircles.svg	stimuli_distractor_trianglediamonds.svg	17	yes	57	0	130
6.6.1	win	2022-11-07	13:50:24	13:57:11	405282	5d5315f889849a0001a76d1a	11209517	1	main_slash	7	main_slash	143	stimuli_distractor_diamondtriangles.svg	stimuli_target_squarediamonds.svg	16	yes	53	1	532
6.6.1	win	2022-11-07	13:50:24	13:57:11	405282	5d5315f889849a0001a76d1a	11209517	1	main_slash	7	advance_on_keypress_SLASH	144	stimuli_distractor_diamondtriangles.svg	stimuli_target_squarediamonds.svg	16	yes	57	0	126
6.6.1	win	2022-11-07	13:50:24	13:57:12	406354	5d5315f889849a0001a76d1a	11209517	1	main_slash	7	main_slash	145	stimuli_target_circletriangles.svg	stimuli_distractor_diamondtriangles.svg	5	yes	53	1	304
6.6.1	win	2022-11-07	13:50:24	13:57:12	406354	5d5315f889849a0001a76d1a	11209517	1	main_slash	7	advance_on_keypress_SLASH	146	stimuli_target_circletriangles.svg	stimuli_distractor_diamondtriangles.svg	5	yes	57	0	163
6.6.1	win	2022-11-07	13:50:24	13:57:13	407618	5d5315f889849a0001a76d1a	11209517	1	main_slash	7	main_slash	147	stimuli_target_diamondsquares.svg	stimuli_distractor_trianglediamonds.svg	20	yes	53	1	451
6.6.1	win	2022-11-07	13:50:24	13:57:13	407618	5d5315f889849a0001a76d1a	11209517	1	main_slash	7	advance_on_keypress_SLASH	148	stimuli_target_diamondsquares.svg	stimuli_distractor_trianglediamonds.svg	20	yes	57	0	129
6.6.1	win	2022-11-07	13:50:24	13:57:14	408706	5d5315f889849a0001a76d1a	11209517	1	main_slash	7	main_slash	149	stimuli_distractor_trianglediamonds.svg	stimuli_distractor_trianglediamonds.svg	33	no	53	0	306
6.6.1	win	2022-11-07	13:50:24	13:57:14	408706	5d5315f889849a0001a76d1a	11209517	1	main_slash	7	advance_on_keypress_SLASH	150	stimuli_distractor_trianglediamonds.svg	stimuli_distractor_trianglediamonds.svg	33	no	57	0	1462
6.6.1	win	2022-11-07	13:50:24	13:57:17	411314	5d5315f889849a0001a76d1a	11209517	1	main_slash	7	main_slash	151	stimuli_distractor_trianglediamonds.svg	stimuli_target_squarediamonds.svg	12	yes	53	1	515
6.6.1	win	2022-11-07	13:50:24	13:57:17	411314	5d5315f889849a0001a76d1a	11209517	1	main_slash	7	advance_on_keypress_SLASH	152	stimuli_distractor_trianglediamonds.svg	stimuli_target_squarediamonds.svg	12	yes	57	0	157
6.6.1	win	2022-11-07	13:50:24	13:57:18	412546	5d5315f889849a0001a76d1a	11209517	1	main_slash	7	main_slash	153	stimuli_target_diamondcircles.svg	stimuli_distractor_diamondtriangles.svg	23	yes	53	1	430
6.6.1	win	2022-11-07	13:50:24	13:57:18	412546	5d5315f889849a0001a76d1a	11209517	1	main_slash	7	advance_on_keypress_SLASH	154	stimuli_target_diamondcircles.svg	stimuli_distractor_diamondtriangles.svg	23	yes	57	0	124
6.6.1	win	2022-11-07	13:50:24	13:57:20	413714	5d5315f889849a0001a76d1a	11209517	1	main_slash	7	main_slash	155	stimuli_target_squarediamonds.svg	stimuli_distractor_trianglediamonds.svg	4	yes	53	1	398
6.6.1	win	2022-11-07	13:50:24	13:57:20	413714	5d5315f889849a0001a76d1a	11209517	1	main_slash	7	advance_on_keypress_SLASH	156	stimuli_target_squarediamonds.svg	stimuli_distractor_trianglediamonds.svg	4	yes	57	0	110
6.6.1	win	2022-11-07	13:50:24	13:57:21	414898	5d5315f889849a0001a76d1a	11209517	1	main_slash	7	main_slash	157	stimuli_distractor_trianglediamonds.svg	stimuli_target_circletriangles.svg	9	yes	53	1	432
6.6.1	win	2022-11-07	13:50:24	13:57:21	414898	5d5315f889849a0001a76d1a	11209517	1	main_slash	7	advance_on_keypress_SLASH	158	stimuli_distractor_trianglediamonds.svg	stimuli_target_circletriangles.svg	9	yes	57	0	94
6.6.1	win	2022-11-07	13:50:24	13:57:22	416162	5d5315f889849a0001a76d1a	11209517	1	main_slash	7	main_slash	159	stimuli_distractor_diamondtriangles.svg	stimuli_distractor_trianglediamonds.svg	38	no	53	0	530
6.6.1	win	2022-11-07	13:50:24	13:57:22	416162	5d5315f889849a0001a76d1a	11209517	1	main_slash	7	advance_on_keypress_SLASH	160	stimuli_distractor_diamondtriangles.svg	stimuli_distractor_trianglediamonds.svg	38	no	57	0	204
6.6.1	win	2022-11-07	13:50:24	13:57:39	433516	5d5315f889849a0001a76d1a	11209517	1	practice_z	9	practice_z	1	stimuli_target_squarediamonds.svg	stimuli_distractor_trianglediamonds.svg	5	yes	44	1	417
6.6.1	win	2022-11-07	13:50:24	13:57:39	433516	5d5315f889849a0001a76d1a	11209517	1	practice_z	9	advance_on_keypress_ZEE	2	stimuli_target_squarediamonds.svg	stimuli_distractor_trianglediamonds.svg	5	yes	57	0	936
6.6.1	win	2022-11-07	13:50:24	13:57:42	436540	5d5315f889849a0001a76d1a	11209517	1	practice_z	9	practice_z	3	stimuli_target_circlediamonds.svg	stimuli_distractor_diamondtriangles.svg	1	yes	44	1	441
6.6.1	win	2022-11-07	13:50:24	13:57:42	436540	5d5315f889849a0001a76d1a	11209517	1	practice_z	9	advance_on_keypress_ZEE	4	stimuli_target_circlediamonds.svg	stimuli_distractor_diamondtriangles.svg	1	yes	57	0	608
6.6.1	win	2022-11-07	13:50:24	13:57:45	439340	5d5315f889849a0001a76d1a	11209517	1	practice_z	9	practice_z	5	stimuli_distractor_trianglediamonds.svg	stimuli_target_diamondcircles.svg	12	yes	44	1	558
6.6.1	win	2022-11-07	13:50:24	13:57:45	439340	5d5315f889849a0001a76d1a	11209517	1	practice_z	9	advance_on_keypress_ZEE	6	stimuli_distractor_trianglediamonds.svg	stimuli_target_diamondcircles.svg	12	yes	57	0	720
6.6.1	win	2022-11-07	13:50:24	13:57:49	443698	5d5315f889849a0001a76d1a	11209517	1	practice_z	9	practice_z	7	stimuli_distractor_trianglediamonds.svg	stimuli_distractor_diamondtriangles.svg	16	no	0	1	2000
6.6.1	win	2022-11-07	13:50:24	13:57:49	443698	5d5315f889849a0001a76d1a	11209517	1	practice_z	9	advance_on_keypress_ZEE	8	stimuli_distractor_trianglediamonds.svg	stimuli_distractor_diamondtriangles.svg	16	no	57	0	610
6.6.1	win	2022-11-07	13:50:24	13:57:52	446350	5d5315f889849a0001a76d1a	11209517	1	practice_z	9	practice_z	9	stimuli_target_squarediamonds.svg	stimuli_distractor_diamondtriangles.svg	2	yes	44	1	384
6.6.1	win	2022-11-07	13:50:24	13:57:52	446350	5d5315f889849a0001a76d1a	11209517	1	practice_z	9	advance_on_keypress_ZEE	10	stimuli_target_squarediamonds.svg	stimuli_distractor_diamondtriangles.svg	2	yes	57	0	536
6.6.1	win	2022-11-07	13:50:24	13:57:56	450531	5d5315f889849a0001a76d1a	11209517	1	practice_z	9	practice_z	11	stimuli_distractor_diamondtriangles.svg	stimuli_distractor_diamondtriangles.svg	13	no	0	1	2000
6.6.1	win	2022-11-07	13:50:24	13:57:56	450531	5d5315f889849a0001a76d1a	11209517	1	practice_z	9	advance_on_keypress_ZEE	12	stimuli_distractor_diamondtriangles.svg	stimuli_distractor_diamondtriangles.svg	13	no	57	0	625
6.6.1	win	2022-11-07	13:50:24	13:57:59	453420	5d5315f889849a0001a76d1a	11209517	1	practice_z	9	practice_z	13	stimuli_distractor_diamondtriangles.svg	stimuli_target_diamondcircles.svg	8	yes	44	1	623
6.6.1	win	2022-11-07	13:50:24	13:57:59	453420	5d5315f889849a0001a76d1a	11209517	1	practice_z	9	advance_on_keypress_ZEE	14	stimuli_distractor_diamondtriangles.svg	stimuli_target_diamondcircles.svg	8	yes	57	0	542
6.6.1	win	2022-11-07	13:50:24	13:58:02	456396	5d5315f889849a0001a76d1a	11209517	1	practice_z	9	practice_z	15	stimuli_target_diamondsquares.svg	stimuli_distractor_diamondtriangles.svg	3	yes	44	1	800
6.6.1	win	2022-11-07	13:50:24	13:58:02	456396	5d5315f889849a0001a76d1a	11209517	1	practice_z	9	advance_on_keypress_ZEE	16	stimuli_target_diamondsquares.svg	stimuli_distractor_diamondtriangles.svg	3	yes	57	0	535
6.6.1	win	2022-11-07	13:50:24	13:58:05	459277	5d5315f889849a0001a76d1a	11209517	1	practice_z	9	practice_z	17	stimuli_distractor_diamondtriangles.svg	stimuli_target_trianglecircles.svg	9	yes	44	1	697
6.6.1	win	2022-11-07	13:50:24	13:58:05	459277	5d5315f889849a0001a76d1a	11209517	1	practice_z	9	advance_on_keypress_ZEE	18	stimuli_distractor_diamondtriangles.svg	stimuli_target_trianglecircles.svg	9	yes	57	0	452
6.6.1	win	2022-11-07	13:50:24	13:58:08	462092	5d5315f889849a0001a76d1a	11209517	1	practice_z	9	practice_z	19	stimuli_target_diamondsquares.svg	stimuli_distractor_trianglediamonds.svg	6	yes	44	1	713
6.6.1	win	2022-11-07	13:50:24	13:58:08	462092	5d5315f889849a0001a76d1a	11209517	1	practice_z	9	advance_on_keypress_ZEE	20	stimuli_target_diamondsquares.svg	stimuli_distractor_trianglediamonds.svg	6	yes	57	0	676
6.6.1	win	2022-11-07	13:50:24	13:58:11	464926	5d5315f889849a0001a76d1a	11209517	1	practice_z	9	practice_z	21	stimuli_distractor_trianglediamonds.svg	stimuli_target_circlediamonds.svg	10	yes	44	1	512
6.6.1	win	2022-11-07	13:50:24	13:58:11	464926	5d5315f889849a0001a76d1a	11209517	1	practice_z	9	advance_on_keypress_ZEE	22	stimuli_distractor_trianglediamonds.svg	stimuli_target_circlediamonds.svg	10	yes	57	0	371
6.6.1	win	2022-11-07	13:50:24	13:58:15	468946	5d5315f889849a0001a76d1a	11209517	1	practice_z	9	practice_z	23	stimuli_distractor_trianglediamonds.svg	stimuli_distractor_trianglediamonds.svg	15	no	0	1	2000
6.6.1	win	2022-11-07	13:50:24	13:58:15	468946	5d5315f889849a0001a76d1a	11209517	1	practice_z	9	advance_on_keypress_ZEE	24	stimuli_distractor_trianglediamonds.svg	stimuli_distractor_trianglediamonds.svg	15	no	57	0	579
6.6.1	win	2022-11-07	13:50:24	13:58:17	471644	5d5315f889849a0001a76d1a	11209517	1	practice_z	9	practice_z	25	stimuli_distractor_diamondtriangles.svg	stimuli_distractor_trianglediamonds.svg	14	no	44	0	466
6.6.1	win	2022-11-07	13:50:24	13:58:17	471644	5d5315f889849a0001a76d1a	11209517	1	practice_z	9	advance_on_keypress_ZEE	26	stimuli_distractor_diamondtriangles.svg	stimuli_distractor_trianglediamonds.svg	14	no	57	0	679
6.6.1	win	2022-11-07	13:50:24	13:58:20	474444	5d5315f889849a0001a76d1a	11209517	1	practice_z	9	practice_z	27	stimuli_target_circlediamonds.svg	stimuli_distractor_trianglediamonds.svg	4	yes	44	1	466
6.6.1	win	2022-11-07	13:50:24	13:58:20	474444	5d5315f889849a0001a76d1a	11209517	1	practice_z	9	advance_on_keypress_ZEE	28	stimuli_target_circlediamonds.svg	stimuli_distractor_trianglediamonds.svg	4	yes	57	0	551
6.6.1	win	2022-11-07	13:50:24	13:58:23	477212	5d5315f889849a0001a76d1a	11209517	1	practice_z	9	practice_z	29	stimuli_distractor_trianglediamonds.svg	stimuli_target_squarediamonds.svg	11	yes	44	1	568
6.6.1	win	2022-11-07	13:50:24	13:58:23	477212	5d5315f889849a0001a76d1a	11209517	1	practice_z	9	advance_on_keypress_ZEE	30	stimuli_distractor_trianglediamonds.svg	stimuli_target_squarediamonds.svg	11	yes	57	0	393
6.6.1	win	2022-11-07	13:50:24	13:58:26	479758	5d5315f889849a0001a76d1a	11209517	1	practice_z	9	practice_z	31	stimuli_distractor_diamondtriangles.svg	stimuli_target_circletriangles.svg	7	yes	44	1	512
6.6.1	win	2022-11-07	13:50:24	13:58:26	479758	5d5315f889849a0001a76d1a	11209517	1	practice_z	9	advance_on_keypress_ZEE	32	stimuli_distractor_diamondtriangles.svg	stimuli_target_circletriangles.svg	7	yes	57	0	371
6.6.1	win	2022-11-07	13:50:24	13:58:32	486002	5d5315f889849a0001a76d1a	11209517	1	main_z	11	main_z	1	stimuli_target_trianglesquares.svg	stimuli_distractor_trianglediamonds.svg	18	yes	44	1	361
6.6.1	win	2022-11-07	13:50:24	13:58:32	486002	5d5315f889849a0001a76d1a	11209517	1	main_z	11	advance_on_keypress_ZEE	2	stimuli_target_trianglesquares.svg	stimuli_distractor_trianglediamonds.svg	18	yes	57	0	618
6.6.1	win	2022-11-07	13:50:24	13:58:34	487714	5d5315f889849a0001a76d1a	11209517	1	main_z	11	main_z	3	stimuli_target_diamondcircles.svg	stimuli_distractor_trianglediamonds.svg	19	yes	44	1	440
6.6.1	win	2022-11-07	13:50:24	13:58:34	487714	5d5315f889849a0001a76d1a	11209517	1	main_z	11	advance_on_keypress_ZEE	4	stimuli_target_diamondcircles.svg	stimuli_distractor_trianglediamonds.svg	19	yes	57	0	278
6.6.1	win	2022-11-07	13:50:24	13:58:35	488962	5d5315f889849a0001a76d1a	11209517	1	main_z	11	main_z	5	stimuli_distractor_diamondtriangles.svg	stimuli_target_circletriangles.svg	13	yes	44	1	338
6.6.1	win	2022-11-07	13:50:24	13:58:35	488962	5d5315f889849a0001a76d1a	11209517	1	main_z	11	advance_on_keypress_ZEE	6	stimuli_distractor_diamondtriangles.svg	stimuli_target_circletriangles.svg	13	yes	57	0	196
6.6.1	win	2022-11-07	13:50:24	13:58:36	490188	5d5315f889849a0001a76d1a	11209517	1	main_z	11	main_z	7	stimuli_distractor_trianglediamonds.svg	stimuli_target_circletriangles.svg	9	yes	44	1	371
6.6.1	win	2022-11-07	13:50:24	13:58:36	490188	5d5315f889849a0001a76d1a	11209517	1	main_z	11	advance_on_keypress_ZEE	8	stimuli_distractor_trianglediamonds.svg	stimuli_target_circletriangles.svg	9	yes	57	0	147
6.6.1	win	2022-11-07	13:50:24	13:58:37	491378	5d5315f889849a0001a76d1a	11209517	1	main_z	11	main_z	9	stimuli_target_trianglesquares.svg	stimuli_distractor_diamondtriangles.svg	22	yes	44	1	388
6.6.1	win	2022-11-07	13:50:24	13:58:37	491378	5d5315f889849a0001a76d1a	11209517	1	main_z	11	advance_on_keypress_ZEE	10	stimuli_target_trianglesquares.svg	stimuli_distractor_diamondtriangles.svg	22	yes	57	0	164
6.6.1	win	2022-11-07	13:50:24	13:58:38	492482	5d5315f889849a0001a76d1a	11209517	1	main_z	11	main_z	11	stimuli_target_squaretriangles.svg	stimuli_distractor_trianglediamonds.svg	3	yes	44	1	292
6.6.1	win	2022-11-07	13:50:24	13:58:38	492482	5d5315f889849a0001a76d1a	11209517	1	main_z	11	advance_on_keypress_ZEE	12	stimuli_target_squaretriangles.svg	stimuli_distractor_trianglediamonds.svg	3	yes	57	0	168
6.6.1	win	2022-11-07	13:50:24	13:58:40	493778	5d5315f889849a0001a76d1a	11209517	1	main_z	11	main_z	13	stimuli_target_trianglecircles.svg	stimuli_distractor_trianglediamonds.svg	17	yes	44	1	488
6.6.1	win	2022-11-07	13:50:24	13:58:40	493778	5d5315f889849a0001a76d1a	11209517	1	main_z	11	advance_on_keypress_ZEE	14	stimuli_target_trianglecircles.svg	stimuli_distractor_trianglediamonds.svg	17	yes	57	0	276
6.6.1	win	2022-11-07	13:50:24	13:58:41	495071	5d5315f889849a0001a76d1a	11209517	1	main_z	11	main_z	15	stimuli_distractor_trianglediamonds.svg	stimuli_target_squarediamonds.svg	12	yes	44	1	370
6.6.1	win	2022-11-07	13:50:24	13:58:41	495071	5d5315f889849a0001a76d1a	11209517	1	main_z	11	advance_on_keypress_ZEE	16	stimuli_distractor_trianglediamonds.svg	stimuli_target_squarediamonds.svg	12	yes	57	0	192
6.6.1	win	2022-11-07	13:50:24	13:58:43	497570	5d5315f889849a0001a76d1a	11209517	1	main_z	11	main_z	17	stimuli_distractor_trianglediamonds.svg	stimuli_target_trianglecircles.svg	25	yes	44	1	1664
6.6.1	win	2022-11-07	13:50:24	13:58:43	497570	5d5315f889849a0001a76d1a	11209517	1	main_z	11	advance_on_keypress_ZEE	18	stimuli_distractor_trianglediamonds.svg	stimuli_target_trianglecircles.svg	25	yes	57	0	429
6.6.1	win	2022-11-07	13:50:24	13:58:45	498962	5d5315f889849a0001a76d1a	11209517	1	main_z	11	main_z	19	stimuli_target_circlediamonds.svg	stimuli_distractor_diamondtriangles.svg	6	yes	44	1	306
6.6.1	win	2022-11-07	13:50:24	13:58:45	498962	5d5315f889849a0001a76d1a	11209517	1	main_z	11	advance_on_keypress_ZEE	20	stimuli_target_circlediamonds.svg	stimuli_distractor_diamondtriangles.svg	6	yes	57	0	261
6.6.1	win	2022-11-07	13:50:24	13:58:46	500162	5d5315f889849a0001a76d1a	11209517	1	main_z	11	main_z	21	stimuli_distractor_diamondtriangles.svg	stimuli_distractor_diamondtriangles.svg	40	no	44	0	306
6.6.1	win	2022-11-07	13:50:24	13:58:46	500162	5d5315f889849a0001a76d1a	11209517	1	main_z	11	advance_on_keypress_ZEE	22	stimuli_distractor_diamondtriangles.svg	stimuli_distractor_diamondtriangles.svg	40	no	57	0	870
6.6.1	win	2022-11-07	13:50:24	13:58:49	503673	5d5315f889849a0001a76d1a	11209517	1	main_z	11	main_z	23	stimuli_distractor_diamondtriangles.svg	stimuli_target_squaretriangles.svg	15	yes	0	0	2000
6.6.1	win	2022-11-07	13:50:24	13:58:49	503673	5d5315f889849a0001a76d1a	11209517	1	main_z	11	advance_on_keypress_ZEE	24	stimuli_distractor_diamondtriangles.svg	stimuli_target_squaretriangles.svg	15	yes	57	0	761
6.6.1	win	2022-11-07	13:50:24	13:58:51	505474	5d5315f889849a0001a76d1a	11209517	1	main_z	11	main_z	25	stimuli_distractor_trianglediamonds.svg	stimuli_distractor_diamondtriangles.svg	36	no	44	0	402
6.6.1	win	2022-11-07	13:50:24	13:58:51	505474	5d5315f889849a0001a76d1a	11209517	1	main_z	11	advance_on_keypress_ZEE	26	stimuli_distractor_trianglediamonds.svg	stimuli_distractor_diamondtriangles.svg	36	no	57	0	274
6.6.1	win	2022-11-07	13:50:24	13:58:53	506946	5d5315f889849a0001a76d1a	11209517	1	main_z	11	main_z	27	stimuli_distractor_diamondtriangles.svg	stimuli_target_squarediamonds.svg	16	yes	44	1	558
6.6.1	win	2022-11-07	13:50:24	13:58:53	506946	5d5315f889849a0001a76d1a	11209517	1	main_z	11	advance_on_keypress_ZEE	28	stimuli_distractor_diamondtriangles.svg	stimuli_target_squarediamonds.svg	16	yes	57	0	231
6.6.1	win	2022-11-07	13:50:24	13:58:54	508226	5d5315f889849a0001a76d1a	11209517	1	main_z	11	main_z	29	stimuli_distractor_diamondtriangles.svg	stimuli_target_trianglecircles.svg	29	yes	44	1	404
6.6.1	win	2022-11-07	13:50:24	13:58:54	508226	5d5315f889849a0001a76d1a	11209517	1	main_z	11	advance_on_keypress_ZEE	30	stimuli_distractor_diamondtriangles.svg	stimuli_target_trianglecircles.svg	29	yes	57	0	147
6.6.1	win	2022-11-07	13:50:24	13:58:55	509403	5d5315f889849a0001a76d1a	11209517	1	main_z	11	main_z	31	stimuli_target_diamondcircles.svg	stimuli_distractor_diamondtriangles.svg	23	yes	44	1	373
6.6.1	win	2022-11-07	13:50:24	13:58:55	509403	5d5315f889849a0001a76d1a	11209517	1	main_z	11	advance_on_keypress_ZEE	32	stimuli_target_diamondcircles.svg	stimuli_distractor_diamondtriangles.svg	23	yes	57	0	149
6.6.1	win	2022-11-07	13:50:24	13:58:56	510514	5d5315f889849a0001a76d1a	11209517	1	main_z	11	main_z	33	stimuli_target_squaretriangles.svg	stimuli_distractor_diamondtriangles.svg	7	yes	44	1	309
6.6.1	win	2022-11-07	13:50:24	13:58:56	510514	5d5315f889849a0001a76d1a	11209517	1	main_z	11	advance_on_keypress_ZEE	34	stimuli_target_squaretriangles.svg	stimuli_distractor_diamondtriangles.svg	7	yes	57	0	153
6.6.1	win	2022-11-07	13:50:24	13:58:57	511650	5d5315f889849a0001a76d1a	11209517	1	main_z	11	main_z	35	stimuli_target_circletriangles.svg	stimuli_distractor_trianglediamonds.svg	1	yes	44	1	345
6.6.1	win	2022-11-07	13:50:24	13:58:57	511650	5d5315f889849a0001a76d1a	11209517	1	main_z	11	advance_on_keypress_ZEE	36	stimuli_target_circletriangles.svg	stimuli_distractor_trianglediamonds.svg	1	yes	57	0	140
6.6.1	win	2022-11-07	13:50:24	13:58:59	512786	5d5315f889849a0001a76d1a	11209517	1	main_z	11	main_z	37	stimuli_distractor_trianglediamonds.svg	stimuli_target_squaretriangles.svg	11	yes	44	1	365
6.6.1	win	2022-11-07	13:50:24	13:58:59	512786	5d5315f889849a0001a76d1a	11209517	1	main_z	11	advance_on_keypress_ZEE	38	stimuli_distractor_trianglediamonds.svg	stimuli_target_squaretriangles.svg	11	yes	57	0	142
6.6.1	win	2022-11-07	13:50:24	13:59:00	513952	5d5315f889849a0001a76d1a	11209517	1	main_z	11	main_z	39	stimuli_distractor_diamondtriangles.svg	stimuli_target_diamondcircles.svg	31	yes	44	1	370
6.6.1	win	2022-11-07	13:50:24	13:59:00	513952	5d5315f889849a0001a76d1a	11209517	1	main_z	11	advance_on_keypress_ZEE	40	stimuli_distractor_diamondtriangles.svg	stimuli_target_diamondcircles.svg	31	yes	57	0	159
6.6.1	win	2022-11-07	13:50:24	13:59:03	516754	5d5315f889849a0001a76d1a	11209517	1	main_z	11	main_z	41	stimuli_distractor_trianglediamonds.svg	stimuli_distractor_trianglediamonds.svg	34	no	0	1	2000
6.6.1	win	2022-11-07	13:50:24	13:59:03	516754	5d5315f889849a0001a76d1a	11209517	1	main_z	11	advance_on_keypress_ZEE	42	stimuli_distractor_trianglediamonds.svg	stimuli_distractor_trianglediamonds.svg	34	no	57	0	879
6.6.1	win	2022-11-07	13:50:24	13:59:05	518754	5d5315f889849a0001a76d1a	11209517	1	main_z	11	main_z	43	stimuli_distractor_trianglediamonds.svg	stimuli_target_diamondsquares.svg	28	yes	44	1	467
6.6.1	win	2022-11-07	13:50:24	13:59:05	518754	5d5315f889849a0001a76d1a	11209517	1	main_z	11	advance_on_keypress_ZEE	44	stimuli_distractor_trianglediamonds.svg	stimuli_target_diamondsquares.svg	28	yes	57	0	272
6.6.1	win	2022-11-07	13:50:24	13:59:07	521670	5d5315f889849a0001a76d1a	11209517	1	main_z	11	main_z	45	stimuli_distractor_trianglediamonds.svg	stimuli_distractor_trianglediamonds.svg	33	no	0	1	2000
6.6.1	win	2022-11-07	13:50:24	13:59:07	521670	5d5315f889849a0001a76d1a	11209517	1	main_z	11	advance_on_keypress_ZEE	46	stimuli_distractor_trianglediamonds.svg	stimuli_distractor_trianglediamonds.svg	33	no	57	0	299
6.6.1	win	2022-11-07	13:50:24	13:59:09	523010	5d5315f889849a0001a76d1a	11209517	1	main_z	11	main_z	47	stimuli_distractor_diamondtriangles.svg	stimuli_target_trianglesquares.svg	30	yes	44	1	390
6.6.1	win	2022-11-07	13:50:24	13:59:09	523010	5d5315f889849a0001a76d1a	11209517	1	main_z	11	advance_on_keypress_ZEE	48	stimuli_distractor_diamondtriangles.svg	stimuli_target_trianglesquares.svg	30	yes	57	0	182
6.6.1	win	2022-11-07	13:50:24	13:59:10	524290	5d5315f889849a0001a76d1a	11209517	1	main_z	11	main_z	49	stimuli_distractor_trianglediamonds.svg	stimuli_target_circlediamonds.svg	10	yes	44	1	454
6.6.1	win	2022-11-07	13:50:24	13:59:10	524290	5d5315f889849a0001a76d1a	11209517	1	main_z	11	advance_on_keypress_ZEE	50	stimuli_distractor_trianglediamonds.svg	stimuli_target_circlediamonds.svg	10	yes	57	0	195
6.6.1	win	2022-11-07	13:50:24	13:59:11	525538	5d5315f889849a0001a76d1a	11209517	1	main_z	11	main_z	51	stimuli_target_squarediamonds.svg	stimuli_distractor_diamondtriangles.svg	8	yes	44	1	418
6.6.1	win	2022-11-07	13:50:24	13:59:11	525538	5d5315f889849a0001a76d1a	11209517	1	main_z	11	advance_on_keypress_ZEE	52	stimuli_target_squarediamonds.svg	stimuli_distractor_diamondtriangles.svg	8	yes	57	0	177
6.6.1	win	2022-11-07	13:50:24	13:59:14	528353	5d5315f889849a0001a76d1a	11209517	1	main_z	11	main_z	53	stimuli_distractor_diamondtriangles.svg	stimuli_distractor_diamondtriangles.svg	39	no	0	1	2000
6.6.1	win	2022-11-07	13:50:24	13:59:14	528353	5d5315f889849a0001a76d1a	11209517	1	main_z	11	advance_on_keypress_ZEE	54	stimuli_distractor_diamondtriangles.svg	stimuli_distractor_diamondtriangles.svg	39	no	57	0	273
6.6.1	win	2022-11-07	13:50:24	13:59:17	531269	5d5315f889849a0001a76d1a	11209517	1	main_z	11	main_z	55	stimuli_distractor_diamondtriangles.svg	stimuli_distractor_trianglediamonds.svg	38	no	0	1	2000
6.6.1	win	2022-11-07	13:50:24	13:59:17	531269	5d5315f889849a0001a76d1a	11209517	1	main_z	11	advance_on_keypress_ZEE	56	stimuli_distractor_diamondtriangles.svg	stimuli_distractor_trianglediamonds.svg	38	no	57	0	380
6.6.1	win	2022-11-07	13:50:24	13:59:19	532866	5d5315f889849a0001a76d1a	11209517	1	main_z	11	main_z	57	stimuli_target_squarediamonds.svg	stimuli_distractor_trianglediamonds.svg	4	yes	44	1	564
6.6.1	win	2022-11-07	13:50:24	13:59:19	532866	5d5315f889849a0001a76d1a	11209517	1	main_z	11	advance_on_keypress_ZEE	58	stimuli_target_squarediamonds.svg	stimuli_distractor_trianglediamonds.svg	4	yes	57	0	157
6.6.1	win	2022-11-07	13:50:24	13:59:20	534658	5d5315f889849a0001a76d1a	11209517	1	main_z	11	main_z	59	stimuli_distractor_diamondtriangles.svg	stimuli_distractor_trianglediamonds.svg	37	no	44	0	989
6.6.1	win	2022-11-07	13:50:24	13:59:20	534658	5d5315f889849a0001a76d1a	11209517	1	main_z	11	advance_on_keypress_ZEE	60	stimuli_distractor_diamondtriangles.svg	stimuli_distractor_trianglediamonds.svg	37	no	57	0	293
6.6.1	win	2022-11-07	13:50:24	13:59:22	536034	5d5315f889849a0001a76d1a	11209517	1	main_z	11	main_z	61	stimuli_distractor_diamondtriangles.svg	stimuli_target_circlediamonds.svg	14	yes	44	1	449
6.6.1	win	2022-11-07	13:50:24	13:59:22	536034	5d5315f889849a0001a76d1a	11209517	1	main_z	11	advance_on_keypress_ZEE	62	stimuli_distractor_diamondtriangles.svg	stimuli_target_circlediamonds.svg	14	yes	57	0	190
6.6.1	win	2022-11-07	13:50:24	13:59:23	537330	5d5315f889849a0001a76d1a	11209517	1	main_z	11	main_z	63	stimuli_target_diamondsquares.svg	stimuli_distractor_trianglediamonds.svg	20	yes	44	1	462
6.6.1	win	2022-11-07	13:50:24	13:59:23	537330	5d5315f889849a0001a76d1a	11209517	1	main_z	11	advance_on_keypress_ZEE	64	stimuli_target_diamondsquares.svg	stimuli_distractor_trianglediamonds.svg	20	yes	57	0	427
6.6.1	win	2022-11-07	13:50:24	13:59:25	538786	5d5315f889849a0001a76d1a	11209517	1	main_z	11	main_z	65	stimuli_target_circletriangles.svg	stimuli_distractor_diamondtriangles.svg	5	yes	44	1	401
6.6.1	win	2022-11-07	13:50:24	13:59:25	538786	5d5315f889849a0001a76d1a	11209517	1	main_z	11	advance_on_keypress_ZEE	66	stimuli_target_circletriangles.svg	stimuli_distractor_diamondtriangles.svg	5	yes	57	0	289
6.6.1	win	2022-11-07	13:50:24	13:59:26	540210	5d5315f889849a0001a76d1a	11209517	1	main_z	11	main_z	67	stimuli_distractor_trianglediamonds.svg	stimuli_target_diamondcircles.svg	27	yes	44	1	492
6.6.1	win	2022-11-07	13:50:24	13:59:26	540210	5d5315f889849a0001a76d1a	11209517	1	main_z	11	advance_on_keypress_ZEE	68	stimuli_distractor_trianglediamonds.svg	stimuli_target_diamondcircles.svg	27	yes	57	0	168
6.6.1	win	2022-11-07	13:50:24	13:59:27	541410	5d5315f889849a0001a76d1a	11209517	1	main_z	11	main_z	69	stimuli_target_circlediamonds.svg	stimuli_distractor_trianglediamonds.svg	2	yes	44	1	392
6.6.1	win	2022-11-07	13:50:24	13:59:27	541410	5d5315f889849a0001a76d1a	11209517	1	main_z	11	advance_on_keypress_ZEE	70	stimuli_target_circlediamonds.svg	stimuli_distractor_trianglediamonds.svg	2	yes	57	0	152
6.6.1	win	2022-11-07	13:50:24	13:59:29	542754	5d5315f889849a0001a76d1a	11209517	1	main_z	11	main_z	71	stimuli_distractor_trianglediamonds.svg	stimuli_target_trianglesquares.svg	26	yes	44	1	553
6.6.1	win	2022-11-07	13:50:24	13:59:29	542754	5d5315f889849a0001a76d1a	11209517	1	main_z	11	advance_on_keypress_ZEE	72	stimuli_distractor_trianglediamonds.svg	stimuli_target_trianglesquares.svg	26	yes	57	0	274
6.6.1	win	2022-11-07	13:50:24	13:59:30	544034	5d5315f889849a0001a76d1a	11209517	1	main_z	11	main_z	73	stimuli_target_diamondsquares.svg	stimuli_distractor_diamondtriangles.svg	24	yes	44	1	366
6.6.1	win	2022-11-07	13:50:24	13:59:30	544034	5d5315f889849a0001a76d1a	11209517	1	main_z	11	advance_on_keypress_ZEE	74	stimuli_target_diamondsquares.svg	stimuli_distractor_diamondtriangles.svg	24	yes	57	0	191
6.6.1	win	2022-11-07	13:50:24	13:59:31	545282	5d5315f889849a0001a76d1a	11209517	1	main_z	11	main_z	75	stimuli_target_trianglecircles.svg	stimuli_distractor_diamondtriangles.svg	21	yes	44	1	415
6.6.1	win	2022-11-07	13:50:24	13:59:31	545282	5d5315f889849a0001a76d1a	11209517	1	main_z	11	advance_on_keypress_ZEE	76	stimuli_target_trianglecircles.svg	stimuli_distractor_diamondtriangles.svg	21	yes	57	0	157
6.6.1	win	2022-11-07	13:50:24	13:59:32	546450	5d5315f889849a0001a76d1a	11209517	1	main_z	11	main_z	77	stimuli_distractor_diamondtriangles.svg	stimuli_target_diamondsquares.svg	32	yes	44	1	366
6.6.1	win	2022-11-07	13:50:24	13:59:32	546450	5d5315f889849a0001a76d1a	11209517	1	main_z	11	advance_on_keypress_ZEE	78	stimuli_distractor_diamondtriangles.svg	stimuli_target_diamondsquares.svg	32	yes	57	0	175
6.6.1	win	2022-11-07	13:50:24	13:59:35	549267	5d5315f889849a0001a76d1a	11209517	1	main_z	11	main_z	79	stimuli_distractor_trianglediamonds.svg	stimuli_distractor_diamondtriangles.svg	35	no	0	1	2000
6.6.1	win	2022-11-07	13:50:24	13:59:35	549267	5d5315f889849a0001a76d1a	11209517	1	main_z	11	advance_on_keypress_ZEE	80	stimuli_distractor_trianglediamonds.svg	stimuli_distractor_diamondtriangles.svg	35	no	57	0	543
6.6.1	win	2022-11-07	13:50:24	13:59:37	550978	5d5315f889849a0001a76d1a	11209517	1	main_z	11	main_z	81	stimuli_target_circlediamonds.svg	stimuli_distractor_diamondtriangles.svg	6	yes	44	1	528
6.6.1	win	2022-11-07	13:50:24	13:59:37	550978	5d5315f889849a0001a76d1a	11209517	1	main_z	11	advance_on_keypress_ZEE	82	stimuli_target_circlediamonds.svg	stimuli_distractor_diamondtriangles.svg	6	yes	57	0	203
6.6.1	win	2022-11-07	13:50:24	13:59:38	552242	5d5315f889849a0001a76d1a	11209517	1	main_z	11	main_z	83	stimuli_distractor_diamondtriangles.svg	stimuli_distractor_trianglediamonds.svg	38	no	44	0	425
6.6.1	win	2022-11-07	13:50:24	13:59:38	552242	5d5315f889849a0001a76d1a	11209517	1	main_z	11	advance_on_keypress_ZEE	84	stimuli_distractor_diamondtriangles.svg	stimuli_distractor_trianglediamonds.svg	38	no	57	0	184
6.6.1	win	2022-11-07	13:50:24	13:59:39	553458	5d5315f889849a0001a76d1a	11209517	1	main_z	11	main_z	85	stimuli_distractor_diamondtriangles.svg	stimuli_target_circletriangles.svg	13	yes	44	1	391
6.6.1	win	2022-11-07	13:50:24	13:59:39	553458	5d5315f889849a0001a76d1a	11209517	1	main_z	11	advance_on_keypress_ZEE	86	stimuli_distractor_diamondtriangles.svg	stimuli_target_circletriangles.svg	13	yes	57	0	152
6.6.1	win	2022-11-07	13:50:24	13:59:40	554610	5d5315f889849a0001a76d1a	11209517	1	main_z	11	main_z	87	stimuli_distractor_trianglediamonds.svg	stimuli_target_diamondsquares.svg	28	yes	44	1	360
6.6.1	win	2022-11-07	13:50:24	13:59:40	554610	5d5315f889849a0001a76d1a	11209517	1	main_z	11	advance_on_keypress_ZEE	88	stimuli_distractor_trianglediamonds.svg	stimuli_target_diamondsquares.svg	28	yes	57	0	186
6.6.1	win	2022-11-07	13:50:24	13:59:42	555814	5d5315f889849a0001a76d1a	11209517	1	main_z	11	main_z	89	stimuli_distractor_trianglediamonds.svg	stimuli_target_circlediamonds.svg	10	yes	44	1	377
6.6.1	win	2022-11-07	13:50:24	13:59:42	555814	5d5315f889849a0001a76d1a	11209517	1	main_z	11	advance_on_keypress_ZEE	90	stimuli_distractor_trianglediamonds.svg	stimuli_target_circlediamonds.svg	10	yes	57	0	105
6.6.1	win	2022-11-07	13:50:24	13:59:43	556914	5d5315f889849a0001a76d1a	11209517	1	main_z	11	main_z	91	stimuli_target_squarediamonds.svg	stimuli_distractor_trianglediamonds.svg	4	yes	44	1	348
6.6.1	win	2022-11-07	13:50:24	13:59:43	556914	5d5315f889849a0001a76d1a	11209517	1	main_z	11	advance_on_keypress_ZEE	92	stimuli_target_squarediamonds.svg	stimuli_distractor_trianglediamonds.svg	4	yes	57	0	141
6.6.1	win	2022-11-07	13:50:24	13:59:44	558081	5d5315f889849a0001a76d1a	11209517	1	main_z	11	main_z	93	stimuli_distractor_trianglediamonds.svg	stimuli_distractor_trianglediamonds.svg	34	no	44	0	367
6.6.1	win	2022-11-07	13:50:24	13:59:44	558081	5d5315f889849a0001a76d1a	11209517	1	main_z	11	advance_on_keypress_ZEE	94	stimuli_distractor_trianglediamonds.svg	stimuli_distractor_trianglediamonds.svg	34	no	57	0	911
6.6.1	win	2022-11-07	13:50:24	13:59:46	560114	5d5315f889849a0001a76d1a	11209517	1	main_z	11	main_z	95	stimuli_target_diamondcircles.svg	stimuli_distractor_diamondtriangles.svg	23	yes	44	1	482
6.6.1	win	2022-11-07	13:50:24	13:59:46	560114	5d5315f889849a0001a76d1a	11209517	1	main_z	11	advance_on_keypress_ZEE	96	stimuli_target_diamondcircles.svg	stimuli_distractor_diamondtriangles.svg	23	yes	57	0	142
6.6.1	win	2022-11-07	13:50:24	13:59:47	561285	5d5315f889849a0001a76d1a	11209517	1	main_z	11	main_z	97	stimuli_distractor_trianglediamonds.svg	stimuli_target_squaretriangles.svg	11	yes	44	1	383
6.6.1	win	2022-11-07	13:50:24	13:59:47	561285	5d5315f889849a0001a76d1a	11209517	1	main_z	11	advance_on_keypress_ZEE	98	stimuli_distractor_trianglediamonds.svg	stimuli_target_squaretriangles.svg	11	yes	57	0	271
6.6.1	win	2022-11-07	13:50:24	13:59:48	562626	5d5315f889849a0001a76d1a	11209517	1	main_z	11	main_z	99	stimuli_target_trianglecircles.svg	stimuli_distractor_diamondtriangles.svg	21	yes	44	1	427
6.6.1	win	2022-11-07	13:50:24	13:59:48	562626	5d5315f889849a0001a76d1a	11209517	1	main_z	11	advance_on_keypress_ZEE	100	stimuli_target_trianglecircles.svg	stimuli_distractor_diamondtriangles.svg	21	yes	57	0	234
6.6.1	win	2022-11-07	13:50:24	13:59:50	564018	5d5315f889849a0001a76d1a	11209517	1	main_z	11	main_z	101	stimuli_distractor_diamondtriangles.svg	stimuli_target_squaretriangles.svg	15	yes	44	1	519
6.6.1	win	2022-11-07	13:50:24	13:59:50	564018	5d5315f889849a0001a76d1a	11209517	1	main_z	11	advance_on_keypress_ZEE	102	stimuli_distractor_diamondtriangles.svg	stimuli_target_squaretriangles.svg	15	yes	57	0	178
6.6.1	win	2022-11-07	13:50:24	13:59:53	566832	5d5315f889849a0001a76d1a	11209517	1	main_z	11	main_z	103	stimuli_distractor_diamondtriangles.svg	stimuli_distractor_diamondtriangles.svg	40	no	0	1	2000
6.6.1	win	2022-11-07	13:50:24	13:59:53	566832	5d5315f889849a0001a76d1a	11209517	1	main_z	11	advance_on_keypress_ZEE	104	stimuli_distractor_diamondtriangles.svg	stimuli_distractor_diamondtriangles.svg	40	no	57	0	290
6.6.1	win	2022-11-07	13:50:24	13:59:54	568162	5d5315f889849a0001a76d1a	11209517	1	main_z	11	main_z	105	stimuli_distractor_trianglediamonds.svg	stimuli_target_diamondcircles.svg	27	yes	44	1	397
6.6.1	win	2022-11-07	13:50:24	13:59:54	568162	5d5315f889849a0001a76d1a	11209517	1	main_z	11	advance_on_keypress_ZEE	106	stimuli_distractor_trianglediamonds.svg	stimuli_target_diamondcircles.svg	27	yes	57	0	125
6.6.1	win	2022-11-07	13:50:24	13:59:55	569330	5d5315f889849a0001a76d1a	11209517	1	main_z	11	main_z	107	stimuli_target_squaretriangles.svg	stimuli_distractor_trianglediamonds.svg	3	yes	44	1	399
6.6.1	win	2022-11-07	13:50:24	13:59:55	569330	5d5315f889849a0001a76d1a	11209517	1	main_z	11	advance_on_keypress_ZEE	108	stimuli_target_squaretriangles.svg	stimuli_distractor_trianglediamonds.svg	3	yes	57	0	126
6.6.1	win	2022-11-07	13:50:24	13:59:56	570546	5d5315f889849a0001a76d1a	11209517	1	main_z	11	main_z	109	stimuli_distractor_trianglediamonds.svg	stimuli_target_trianglesquares.svg	26	yes	44	1	448
6.6.1	win	2022-11-07	13:50:24	13:59:56	570546	5d5315f889849a0001a76d1a	11209517	1	main_z	11	advance_on_keypress_ZEE	110	stimuli_distractor_trianglediamonds.svg	stimuli_target_trianglesquares.svg	26	yes	57	0	190
6.6.1	win	2022-11-07	13:50:24	13:59:58	571746	5d5315f889849a0001a76d1a	11209517	1	main_z	11	main_z	111	stimuli_target_squarediamonds.svg	stimuli_distractor_diamondtriangles.svg	8	yes	44	1	365
6.6.1	win	2022-11-07	13:50:24	13:59:58	571746	5d5315f889849a0001a76d1a	11209517	1	main_z	11	advance_on_keypress_ZEE	112	stimuli_target_squarediamonds.svg	stimuli_distractor_diamondtriangles.svg	8	yes	57	0	126
6.6.1	win	2022-11-07	13:50:24	13:59:59	572914	5d5315f889849a0001a76d1a	11209517	1	main_z	11	main_z	113	stimuli_target_trianglesquares.svg	stimuli_distractor_diamondtriangles.svg	22	yes	44	1	400
6.6.1	win	2022-11-07	13:50:24	13:59:59	572914	5d5315f889849a0001a76d1a	11209517	1	main_z	11	advance_on_keypress_ZEE	114	stimuli_target_trianglesquares.svg	stimuli_distractor_diamondtriangles.svg	22	yes	57	0	127
6.6.1	win	2022-11-07	13:50:24	14:00:00	574290	5d5315f889849a0001a76d1a	11209517	1	main_z	11	main_z	115	stimuli_distractor_diamondtriangles.svg	stimuli_distractor_trianglediamonds.svg	37	no	44	0	609
6.6.1	win	2022-11-07	13:50:24	14:00:00	574290	5d5315f889849a0001a76d1a	11209517	1	main_z	11	advance_on_keypress_ZEE	116	stimuli_distractor_diamondtriangles.svg	stimuli_distractor_trianglediamonds.svg	37	no	57	0	185
6.6.1	win	2022-11-07	13:50:24	14:00:01	575506	5d5315f889849a0001a76d1a	11209517	1	main_z	11	main_z	117	stimuli_target_circletriangles.svg	stimuli_distractor_trianglediamonds.svg	1	yes	44	1	392
6.6.1	win	2022-11-07	13:50:24	14:00:01	575506	5d5315f889849a0001a76d1a	11209517	1	main_z	11	advance_on_keypress_ZEE	118	stimuli_target_circletriangles.svg	stimuli_distractor_trianglediamonds.svg	1	yes	57	0	120
6.6.1	win	2022-11-07	13:50:24	14:00:02	576645	5d5315f889849a0001a76d1a	11209517	1	main_z	11	main_z	119	stimuli_target_diamondsquares.svg	stimuli_distractor_trianglediamonds.svg	20	yes	44	1	378
6.6.1	win	2022-11-07	13:50:24	14:00:02	576645	5d5315f889849a0001a76d1a	11209517	1	main_z	11	advance_on_keypress_ZEE	120	stimuli_target_diamondsquares.svg	stimuli_distractor_trianglediamonds.svg	20	yes	57	0	106
6.6.1	win	2022-11-07	13:50:24	14:00:04	577810	5d5315f889849a0001a76d1a	11209517	1	main_z	11	main_z	121	stimuli_distractor_trianglediamonds.svg	stimuli_target_trianglecircles.svg	25	yes	44	1	413
6.6.1	win	2022-11-07	13:50:24	14:00:04	577810	5d5315f889849a0001a76d1a	11209517	1	main_z	11	advance_on_keypress_ZEE	122	stimuli_distractor_trianglediamonds.svg	stimuli_target_trianglecircles.svg	25	yes	57	0	108
6.6.1	win	2022-11-07	13:50:24	14:00:05	578898	5d5315f889849a0001a76d1a	11209517	1	main_z	11	main_z	123	stimuli_distractor_diamondtriangles.svg	stimuli_target_diamondcircles.svg	31	yes	44	1	335
6.6.1	win	2022-11-07	13:50:24	14:00:05	578898	5d5315f889849a0001a76d1a	11209517	1	main_z	11	advance_on_keypress_ZEE	124	stimuli_distractor_diamondtriangles.svg	stimuli_target_diamondcircles.svg	31	yes	57	0	96
6.6.1	win	2022-11-07	13:50:24	14:00:06	579970	5d5315f889849a0001a76d1a	11209517	1	main_z	11	main_z	125	stimuli_distractor_diamondtriangles.svg	stimuli_distractor_diamondtriangles.svg	39	no	44	0	323
6.6.1	win	2022-11-07	13:50:24	14:00:06	579970	5d5315f889849a0001a76d1a	11209517	1	main_z	11	advance_on_keypress_ZEE	126	stimuli_distractor_diamondtriangles.svg	stimuli_distractor_diamondtriangles.svg	39	no	57	0	838
6.6.1	win	2022-11-07	13:50:24	14:00:08	581961	5d5315f889849a0001a76d1a	11209517	1	main_z	11	main_z	127	stimuli_target_circlediamonds.svg	stimuli_distractor_trianglediamonds.svg	2	yes	44	1	509
6.6.1	win	2022-11-07	13:50:24	14:00:08	581961	5d5315f889849a0001a76d1a	11209517	1	main_z	11	advance_on_keypress_ZEE	128	stimuli_target_circlediamonds.svg	stimuli_distractor_trianglediamonds.svg	2	yes	57	0	134
6.6.1	win	2022-11-07	13:50:24	14:00:09	583186	5d5315f889849a0001a76d1a	11209517	1	main_z	11	main_z	129	stimuli_distractor_trianglediamonds.svg	stimuli_target_squarediamonds.svg	12	yes	44	1	440
6.6.1	win	2022-11-07	13:50:24	14:00:09	583186	5d5315f889849a0001a76d1a	11209517	1	main_z	11	advance_on_keypress_ZEE	130	stimuli_distractor_trianglediamonds.svg	stimuli_target_squarediamonds.svg	12	yes	57	0	150
6.6.1	win	2022-11-07	13:50:24	14:00:10	584338	5d5315f889849a0001a76d1a	11209517	1	main_z	11	main_z	131	stimuli_distractor_diamondtriangles.svg	stimuli_target_trianglecircles.svg	29	yes	44	1	358
6.6.1	win	2022-11-07	13:50:24	14:00:10	584338	5d5315f889849a0001a76d1a	11209517	1	main_z	11	advance_on_keypress_ZEE	132	stimuli_distractor_diamondtriangles.svg	stimuli_target_trianglecircles.svg	29	yes	57	0	136
6.6.1	win	2022-11-07	13:50:24	14:00:11	585442	5d5315f889849a0001a76d1a	11209517	1	main_z	11	main_z	133	stimuli_distractor_diamondtriangles.svg	stimuli_target_diamondsquares.svg	32	yes	44	1	329
6.6.1	win	2022-11-07	13:50:24	14:00:11	585442	5d5315f889849a0001a76d1a	11209517	1	main_z	11	advance_on_keypress_ZEE	134	stimuli_distractor_diamondtriangles.svg	stimuli_target_diamondsquares.svg	32	yes	57	0	187
6.6.1	win	2022-11-07	13:50:24	14:00:12	586690	5d5315f889849a0001a76d1a	11209517	1	main_z	11	main_z	135	stimuli_target_diamondcircles.svg	stimuli_distractor_trianglediamonds.svg	19	yes	44	1	411
6.6.1	win	2022-11-07	13:50:24	14:00:12	586690	5d5315f889849a0001a76d1a	11209517	1	main_z	11	advance_on_keypress_ZEE	136	stimuli_target_diamondcircles.svg	stimuli_distractor_trianglediamonds.svg	19	yes	57	0	170
6.6.1	win	2022-11-07	13:50:24	14:00:14	587858	5d5315f889849a0001a76d1a	11209517	1	main_z	11	main_z	137	stimuli_distractor_diamondtriangles.svg	stimuli_target_circlediamonds.svg	14	yes	44	1	362
6.6.1	win	2022-11-07	13:50:24	14:00:14	587858	5d5315f889849a0001a76d1a	11209517	1	main_z	11	advance_on_keypress_ZEE	138	stimuli_distractor_diamondtriangles.svg	stimuli_target_circlediamonds.svg	14	yes	57	0	203
6.6.1	win	2022-11-07	13:50:24	14:00:17	590713	5d5315f889849a0001a76d1a	11209517	1	main_z	11	main_z	139	stimuli_distractor_trianglediamonds.svg	stimuli_distractor_trianglediamonds.svg	33	no	0	1	2000
6.6.1	win	2022-11-07	13:50:24	14:00:17	590713	5d5315f889849a0001a76d1a	11209517	1	main_z	11	advance_on_keypress_ZEE	140	stimuli_distractor_trianglediamonds.svg	stimuli_distractor_trianglediamonds.svg	33	no	57	0	1001
6.6.1	win	2022-11-07	13:50:24	14:00:19	592802	5d5315f889849a0001a76d1a	11209517	1	main_z	11	main_z	141	stimuli_distractor_trianglediamonds.svg	stimuli_target_circletriangles.svg	9	yes	44	1	440
6.6.1	win	2022-11-07	13:50:24	14:00:19	592802	5d5315f889849a0001a76d1a	11209517	1	main_z	11	advance_on_keypress_ZEE	142	stimuli_distractor_trianglediamonds.svg	stimuli_target_circletriangles.svg	9	yes	57	0	230
6.6.1	win	2022-11-07	13:50:24	14:00:20	594082	5d5315f889849a0001a76d1a	11209517	1	main_z	11	main_z	143	stimuli_target_trianglesquares.svg	stimuli_distractor_trianglediamonds.svg	18	yes	44	1	404
6.6.1	win	2022-11-07	13:50:24	14:00:20	594082	5d5315f889849a0001a76d1a	11209517	1	main_z	11	advance_on_keypress_ZEE	144	stimuli_target_trianglesquares.svg	stimuli_distractor_trianglediamonds.svg	18	yes	57	0	179
6.6.1	win	2022-11-07	13:50:24	14:00:21	595202	5d5315f889849a0001a76d1a	11209517	1	main_z	11	main_z	145	stimuli_target_trianglecircles.svg	stimuli_distractor_trianglediamonds.svg	17	yes	44	1	290
6.6.1	win	2022-11-07	13:50:24	14:00:21	595202	5d5315f889849a0001a76d1a	11209517	1	main_z	11	advance_on_keypress_ZEE	146	stimuli_target_trianglecircles.svg	stimuli_distractor_trianglediamonds.svg	17	yes	57	0	182
6.6.1	win	2022-11-07	13:50:24	14:00:22	596338	5d5315f889849a0001a76d1a	11209517	1	main_z	11	main_z	147	stimuli_distractor_diamondtriangles.svg	stimuli_target_squarediamonds.svg	16	yes	44	1	310
6.6.1	win	2022-11-07	13:50:24	14:00:22	596338	5d5315f889849a0001a76d1a	11209517	1	main_z	11	advance_on_keypress_ZEE	148	stimuli_distractor_diamondtriangles.svg	stimuli_target_squarediamonds.svg	16	yes	57	0	153
6.6.1	win	2022-11-07	13:50:24	14:00:23	597554	5d5315f889849a0001a76d1a	11209517	1	main_z	11	main_z	149	stimuli_target_circletriangles.svg	stimuli_distractor_diamondtriangles.svg	5	yes	44	1	426
6.6.1	win	2022-11-07	13:50:24	14:00:23	597554	5d5315f889849a0001a76d1a	11209517	1	main_z	11	advance_on_keypress_ZEE	150	stimuli_target_circletriangles.svg	stimuli_distractor_diamondtriangles.svg	5	yes	57	0	201
6.6.1	win	2022-11-07	13:50:24	14:00:24	598674	5d5315f889849a0001a76d1a	11209517	1	main_z	11	main_z	151	stimuli_target_diamondsquares.svg	stimuli_distractor_diamondtriangles.svg	24	yes	44	1	280
6.6.1	win	2022-11-07	13:50:24	14:00:24	598674	5d5315f889849a0001a76d1a	11209517	1	main_z	11	advance_on_keypress_ZEE	152	stimuli_target_diamondsquares.svg	stimuli_distractor_diamondtriangles.svg	24	yes	57	0	124
6.6.1	win	2022-11-07	13:50:24	14:00:26	599794	5d5315f889849a0001a76d1a	11209517	1	main_z	11	main_z	153	stimuli_distractor_diamondtriangles.svg	stimuli_target_trianglesquares.svg	30	yes	44	1	350
6.6.1	win	2022-11-07	13:50:24	14:00:26	599794	5d5315f889849a0001a76d1a	11209517	1	main_z	11	advance_on_keypress_ZEE	154	stimuli_distractor_diamondtriangles.svg	stimuli_target_trianglesquares.svg	30	yes	57	0	159
6.6.1	win	2022-11-07	13:50:24	14:00:27	600946	5d5315f889849a0001a76d1a	11209517	1	main_z	11	main_z	155	stimuli_target_squaretriangles.svg	stimuli_distractor_diamondtriangles.svg	7	yes	44	1	352
6.6.1	win	2022-11-07	13:50:24	14:00:27	600946	5d5315f889849a0001a76d1a	11209517	1	main_z	11	advance_on_keypress_ZEE	156	stimuli_target_squaretriangles.svg	stimuli_distractor_diamondtriangles.svg	7	yes	57	0	113
6.6.1	win	2022-11-07	13:50:24	14:00:28	602092	5d5315f889849a0001a76d1a	11209517	1	main_z	11	main_z	157	stimuli_distractor_trianglediamonds.svg	stimuli_distractor_diamondtriangles.svg	35	no	44	0	371
6.6.1	win	2022-11-07	13:50:24	14:00:28	602092	5d5315f889849a0001a76d1a	11209517	1	main_z	11	advance_on_keypress_ZEE	158	stimuli_distractor_trianglediamonds.svg	stimuli_distractor_diamondtriangles.svg	35	no	57	0	195
6.6.1	win	2022-11-07	13:50:24	14:00:29	603394	5d5315f889849a0001a76d1a	11209517	1	main_z	11	main_z	159	stimuli_distractor_trianglediamonds.svg	stimuli_distractor_diamondtriangles.svg	36	no	44	0	467
6.6.1	win	2022-11-07	13:50:24	14:00:29	603394	5d5315f889849a0001a76d1a	11209517	1	main_z	11	advance_on_keypress_ZEE	160	stimuli_distractor_trianglediamonds.svg	stimuli_distractor_diamondtriangles.svg	36	no	57	0	783