build	computer.platform	date	time	timestamp	time_elapsed_ms	subject	group	session	blockcode	blocknum	trialcode	trialnum	stimulus_left	stimulus_right	stim_index	target_present	response	correct	latency
6.6.1	win	2022-12-16	14:18:05	14:20:49	162085	5ccc60abe787e000167f8143	164143567	1	practice_slash	5	practice_slash	1	stimuli_target_circlediamonds.svg	stimuli_distractor_diamondtriangles.svg	1	yes	53	1	448
6.6.1	win	2022-12-16	14:18:05	14:20:49	162085	5ccc60abe787e000167f8143	164143567	1	practice_slash	5	advance_on_keypress_SLASH	2	stimuli_target_circlediamonds.svg	stimuli_distractor_diamondtriangles.svg	1	yes	57	0	1526
6.6.1	win	2022-12-16	14:18:05	14:20:52	165885	5ccc60abe787e000167f8143	164143567	1	practice_slash	5	practice_slash	3	stimuli_distractor_diamondtriangles.svg	stimuli_distractor_diamondtriangles.svg	13	no	53	0	523
6.6.1	win	2022-12-16	14:18:05	14:20:52	165885	5ccc60abe787e000167f8143	164143567	1	practice_slash	5	advance_on_keypress_SLASH	4	stimuli_distractor_diamondtriangles.svg	stimuli_distractor_diamondtriangles.svg	13	no	57	0	349
6.6.1	win	2022-12-16	14:18:05	14:20:55	168382	5ccc60abe787e000167f8143	164143567	1	practice_slash	5	practice_slash	5	stimuli_target_circlediamonds.svg	stimuli_distractor_trianglediamonds.svg	4	yes	53	1	389
6.6.1	win	2022-12-16	14:18:05	14:20:55	168382	5ccc60abe787e000167f8143	164143567	1	practice_slash	5	advance_on_keypress_SLASH	6	stimuli_target_circlediamonds.svg	stimuli_distractor_trianglediamonds.svg	4	yes	57	0	460
6.6.1	win	2022-12-16	14:18:05	14:20:57	170965	5ccc60abe787e000167f8143	164143567	1	practice_slash	5	practice_slash	7	stimuli_target_squarediamonds.svg	stimuli_distractor_trianglediamonds.svg	5	yes	53	1	504
6.6.1	win	2022-12-16	14:18:05	14:20:57	170965	5ccc60abe787e000167f8143	164143567	1	practice_slash	5	advance_on_keypress_SLASH	8	stimuli_target_squarediamonds.svg	stimuli_distractor_trianglediamonds.svg	5	yes	57	0	156
6.6.1	win	2022-12-16	14:18:05	14:21:00	173244	5ccc60abe787e000167f8143	164143567	1	practice_slash	5	practice_slash	9	stimuli_target_diamondsquares.svg	stimuli_distractor_trianglediamonds.svg	6	yes	53	1	356
6.6.1	win	2022-12-16	14:18:05	14:21:00	173244	5ccc60abe787e000167f8143	164143567	1	practice_slash	5	advance_on_keypress_SLASH	10	stimuli_target_diamondsquares.svg	stimuli_distractor_trianglediamonds.svg	6	yes	57	0	121
6.6.1	win	2022-12-16	14:18:05	14:21:02	175484	5ccc60abe787e000167f8143	164143567	1	practice_slash	5	practice_slash	11	stimuli_distractor_diamondtriangles.svg	stimuli_target_trianglecircles.svg	9	yes	53	1	435
6.6.1	win	2022-12-16	14:18:05	14:21:02	175484	5ccc60abe787e000167f8143	164143567	1	practice_slash	5	advance_on_keypress_SLASH	12	stimuli_distractor_diamondtriangles.svg	stimuli_target_trianglecircles.svg	9	yes	57	0	302
6.6.1	win	2022-12-16	14:18:05	14:21:04	177676	5ccc60abe787e000167f8143	164143567	1	practice_slash	5	practice_slash	13	stimuli_target_squarediamonds.svg	stimuli_distractor_diamondtriangles.svg	2	yes	53	1	212
6.6.1	win	2022-12-16	14:18:05	14:21:04	177676	5ccc60abe787e000167f8143	164143567	1	practice_slash	5	advance_on_keypress_SLASH	14	stimuli_target_squarediamonds.svg	stimuli_distractor_diamondtriangles.svg	2	yes	57	0	381
6.6.1	win	2022-12-16	14:18:05	14:21:07	180092	5ccc60abe787e000167f8143	164143567	1	practice_slash	5	practice_slash	15	stimuli_distractor_trianglediamonds.svg	stimuli_target_squarediamonds.svg	11	yes	53	1	357
6.6.1	win	2022-12-16	14:18:05	14:21:07	180092	5ccc60abe787e000167f8143	164143567	1	practice_slash	5	advance_on_keypress_SLASH	16	stimuli_distractor_trianglediamonds.svg	stimuli_target_squarediamonds.svg	11	yes	57	0	270
6.6.1	win	2022-12-16	14:18:05	14:21:09	182235	5ccc60abe787e000167f8143	164143567	1	practice_slash	5	practice_slash	17	stimuli_distractor_trianglediamonds.svg	stimuli_distractor_diamondtriangles.svg	16	no	53	0	191
6.6.1	win	2022-12-16	14:18:05	14:21:09	182235	5ccc60abe787e000167f8143	164143567	1	practice_slash	5	advance_on_keypress_SLASH	18	stimuli_distractor_trianglediamonds.svg	stimuli_distractor_diamondtriangles.svg	16	no	57	0	174
6.6.1	win	2022-12-16	14:18:05	14:21:11	184436	5ccc60abe787e000167f8143	164143567	1	practice_slash	5	practice_slash	19	stimuli_distractor_trianglediamonds.svg	stimuli_target_circlediamonds.svg	10	yes	53	1	347
6.6.1	win	2022-12-16	14:18:05	14:21:11	184436	5ccc60abe787e000167f8143	164143567	1	practice_slash	5	advance_on_keypress_SLASH	20	stimuli_distractor_trianglediamonds.svg	stimuli_target_circlediamonds.svg	10	yes	57	0	365
6.6.1	win	2022-12-16	14:18:05	14:21:13	186963	5ccc60abe787e000167f8143	164143567	1	practice_slash	5	practice_slash	21	stimuli_target_diamondsquares.svg	stimuli_distractor_diamondtriangles.svg	3	yes	53	1	548
6.6.1	win	2022-12-16	14:18:05	14:21:13	186963	5ccc60abe787e000167f8143	164143567	1	practice_slash	5	advance_on_keypress_SLASH	22	stimuli_target_diamondsquares.svg	stimuli_distractor_diamondtriangles.svg	3	yes	57	0	901
6.6.1	win	2022-12-16	14:18:05	14:21:16	189803	5ccc60abe787e000167f8143	164143567	1	practice_slash	5	practice_slash	23	stimuli_distractor_trianglediamonds.svg	stimuli_target_diamondcircles.svg	12	yes	53	1	260
6.6.1	win	2022-12-16	14:18:05	14:21:16	189803	5ccc60abe787e000167f8143	164143567	1	practice_slash	5	advance_on_keypress_SLASH	24	stimuli_distractor_trianglediamonds.svg	stimuli_target_diamondcircles.svg	12	yes	57	0	366
6.6.1	win	2022-12-16	14:18:05	14:21:19	192115	5ccc60abe787e000167f8143	164143567	1	practice_slash	5	practice_slash	25	stimuli_distractor_diamondtriangles.svg	stimuli_target_diamondcircles.svg	8	yes	53	1	255
6.6.1	win	2022-12-16	14:18:05	14:21:19	192115	5ccc60abe787e000167f8143	164143567	1	practice_slash	5	advance_on_keypress_SLASH	26	stimuli_distractor_diamondtriangles.svg	stimuli_target_diamondcircles.svg	8	yes	57	0	390
6.6.1	win	2022-12-16	14:18:05	14:21:21	194427	5ccc60abe787e000167f8143	164143567	1	practice_slash	5	practice_slash	27	stimuli_distractor_trianglediamonds.svg	stimuli_distractor_trianglediamonds.svg	15	no	53	0	244
6.6.1	win	2022-12-16	14:18:05	14:21:21	194427	5ccc60abe787e000167f8143	164143567	1	practice_slash	5	advance_on_keypress_SLASH	28	stimuli_distractor_trianglediamonds.svg	stimuli_distractor_trianglediamonds.svg	15	no	57	0	70
6.6.1	win	2022-12-16	14:18:05	14:21:25	198179	5ccc60abe787e000167f8143	164143567	1	practice_slash	5	practice_slash	29	stimuli_distractor_diamondtriangles.svg	stimuli_distractor_trianglediamonds.svg	14	no	0	1	2003
6.6.1	win	2022-12-16	14:18:05	14:21:25	198179	5ccc60abe787e000167f8143	164143567	1	practice_slash	5	advance_on_keypress_SLASH	30	stimuli_distractor_diamondtriangles.svg	stimuli_distractor_trianglediamonds.svg	14	no	57	0	410
6.6.1	win	2022-12-16	14:18:05	14:21:27	200682	5ccc60abe787e000167f8143	164143567	1	practice_slash	5	practice_slash	31	stimuli_distractor_diamondtriangles.svg	stimuli_target_circletriangles.svg	7	yes	53	1	408
6.6.1	win	2022-12-16	14:18:05	14:21:27	200682	5ccc60abe787e000167f8143	164143567	1	practice_slash	5	advance_on_keypress_SLASH	32	stimuli_distractor_diamondtriangles.svg	stimuli_target_circletriangles.svg	7	yes	57	0	461
6.6.1	win	2022-12-16	14:18:05	14:21:34	207249	5ccc60abe787e000167f8143	164143567	1	main_slash	7	main_slash	1	stimuli_distractor_diamondtriangles.svg	stimuli_distractor_diamondtriangles.svg	39	no	53	0	400
6.6.1	win	2022-12-16	14:18:05	14:21:34	207249	5ccc60abe787e000167f8143	164143567	1	main_slash	7	advance_on_keypress_SLASH	2	stimuli_distractor_diamondtriangles.svg	stimuli_distractor_diamondtriangles.svg	39	no	57	0	830
6.6.1	win	2022-12-16	14:18:05	14:21:36	209289	5ccc60abe787e000167f8143	164143567	1	main_slash	7	main_slash	3	stimuli_distractor_trianglediamonds.svg	stimuli_target_diamondsquares.svg	28	yes	53	1	602
6.6.1	win	2022-12-16	14:18:05	14:21:36	209289	5ccc60abe787e000167f8143	164143567	1	main_slash	7	advance_on_keypress_SLASH	4	stimuli_distractor_trianglediamonds.svg	stimuli_target_diamondsquares.svg	28	yes	57	0	620
6.6.1	win	2022-12-16	14:18:05	14:21:38	211001	5ccc60abe787e000167f8143	164143567	1	main_slash	7	main_slash	5	stimuli_distractor_trianglediamonds.svg	stimuli_target_trianglecircles.svg	25	yes	53	1	481
6.6.1	win	2022-12-16	14:18:05	14:21:38	211001	5ccc60abe787e000167f8143	164143567	1	main_slash	7	advance_on_keypress_SLASH	6	stimuli_distractor_trianglediamonds.svg	stimuli_target_trianglecircles.svg	25	yes	57	0	533
6.6.1	win	2022-12-16	14:18:05	14:21:39	212713	5ccc60abe787e000167f8143	164143567	1	main_slash	7	main_slash	7	stimuli_distractor_diamondtriangles.svg	stimuli_target_trianglesquares.svg	30	yes	53	1	499
6.6.1	win	2022-12-16	14:18:05	14:21:39	212713	5ccc60abe787e000167f8143	164143567	1	main_slash	7	advance_on_keypress_SLASH	8	stimuli_distractor_diamondtriangles.svg	stimuli_target_trianglesquares.svg	30	yes	57	0	473
6.6.1	win	2022-12-16	14:18:05	14:21:41	214416	5ccc60abe787e000167f8143	164143567	1	main_slash	7	main_slash	9	stimuli_distractor_diamondtriangles.svg	stimuli_target_squaretriangles.svg	15	yes	53	1	546
6.6.1	win	2022-12-16	14:18:05	14:21:41	214416	5ccc60abe787e000167f8143	164143567	1	main_slash	7	advance_on_keypress_SLASH	10	stimuli_distractor_diamondtriangles.svg	stimuli_target_squaretriangles.svg	15	yes	57	0	454
6.6.1	win	2022-12-16	14:18:05	14:21:43	216137	5ccc60abe787e000167f8143	164143567	1	main_slash	7	main_slash	11	stimuli_target_circlediamonds.svg	stimuli_distractor_diamondtriangles.svg	6	yes	53	1	653
6.6.1	win	2022-12-16	14:18:05	14:21:43	216137	5ccc60abe787e000167f8143	164143567	1	main_slash	7	advance_on_keypress_SLASH	12	stimuli_target_circlediamonds.svg	stimuli_distractor_diamondtriangles.svg	6	yes	57	0	742
6.6.1	win	2022-12-16	14:18:05	14:21:46	219490	5ccc60abe787e000167f8143	164143567	1	main_slash	7	main_slash	13	stimuli_distractor_diamondtriangles.svg	stimuli_distractor_trianglediamonds.svg	37	no	0	1	2003
6.6.1	win	2022-12-16	14:18:05	14:21:46	219490	5ccc60abe787e000167f8143	164143567	1	main_slash	7	advance_on_keypress_SLASH	14	stimuli_distractor_diamondtriangles.svg	stimuli_distractor_trianglediamonds.svg	37	no	57	0	453
6.6.1	win	2022-12-16	14:18:05	14:21:47	220840	5ccc60abe787e000167f8143	164143567	1	main_slash	7	main_slash	15	stimuli_distractor_diamondtriangles.svg	stimuli_target_circletriangles.svg	13	yes	53	1	289
6.6.1	win	2022-12-16	14:18:05	14:21:47	220840	5ccc60abe787e000167f8143	164143567	1	main_slash	7	advance_on_keypress_SLASH	16	stimuli_distractor_diamondtriangles.svg	stimuli_target_circletriangles.svg	13	yes	57	0	526
6.6.1	win	2022-12-16	14:18:05	14:21:49	222848	5ccc60abe787e000167f8143	164143567	1	main_slash	7	main_slash	17	stimuli_distractor_trianglediamonds.svg	stimuli_target_trianglesquares.svg	26	yes	53	1	874
6.6.1	win	2022-12-16	14:18:05	14:21:49	222848	5ccc60abe787e000167f8143	164143567	1	main_slash	7	advance_on_keypress_SLASH	18	stimuli_distractor_trianglediamonds.svg	stimuli_target_trianglesquares.svg	26	yes	57	0	576
6.6.1	win	2022-12-16	14:18:05	14:21:51	224400	5ccc60abe787e000167f8143	164143567	1	main_slash	7	main_slash	19	stimuli_distractor_diamondtriangles.svg	stimuli_target_circlediamonds.svg	14	yes	53	1	362
6.6.1	win	2022-12-16	14:18:05	14:21:51	224400	5ccc60abe787e000167f8143	164143567	1	main_slash	7	advance_on_keypress_SLASH	20	stimuli_distractor_diamondtriangles.svg	stimuli_target_circlediamonds.svg	14	yes	57	0	512
6.6.1	win	2022-12-16	14:18:05	14:21:52	225952	5ccc60abe787e000167f8143	164143567	1	main_slash	7	main_slash	21	stimuli_target_circletriangles.svg	stimuli_distractor_diamondtriangles.svg	5	yes	53	1	425
6.6.1	win	2022-12-16	14:18:05	14:21:52	225952	5ccc60abe787e000167f8143	164143567	1	main_slash	7	advance_on_keypress_SLASH	22	stimuli_target_circletriangles.svg	stimuli_distractor_diamondtriangles.svg	5	yes	57	0	542
6.6.1	win	2022-12-16	14:18:05	14:21:54	227520	5ccc60abe787e000167f8143	164143567	1	main_slash	7	main_slash	23	stimuli_distractor_diamondtriangles.svg	stimuli_target_trianglecircles.svg	29	yes	53	1	347
6.6.1	win	2022-12-16	14:18:05	14:21:54	227520	5ccc60abe787e000167f8143	164143567	1	main_slash	7	advance_on_keypress_SLASH	24	stimuli_distractor_diamondtriangles.svg	stimuli_target_trianglecircles.svg	29	yes	57	0	465
6.6.1	win	2022-12-16	14:18:05	14:21:55	228912	5ccc60abe787e000167f8143	164143567	1	main_slash	7	main_slash	25	stimuli_distractor_trianglediamonds.svg	stimuli_target_diamondcircles.svg	27	yes	53	1	314
6.6.1	win	2022-12-16	14:18:05	14:21:55	228912	5ccc60abe787e000167f8143	164143567	1	main_slash	7	advance_on_keypress_SLASH	26	stimuli_distractor_trianglediamonds.svg	stimuli_target_diamondcircles.svg	27	yes	57	0	524
6.6.1	win	2022-12-16	14:18:05	14:21:57	230400	5ccc60abe787e000167f8143	164143567	1	main_slash	7	main_slash	27	stimuli_distractor_diamondtriangles.svg	stimuli_target_squarediamonds.svg	16	yes	53	1	354
6.6.1	win	2022-12-16	14:18:05	14:21:57	230400	5ccc60abe787e000167f8143	164143567	1	main_slash	7	advance_on_keypress_SLASH	28	stimuli_distractor_diamondtriangles.svg	stimuli_target_squarediamonds.svg	16	yes	57	0	502
6.6.1	win	2022-12-16	14:18:05	14:22:00	233519	5ccc60abe787e000167f8143	164143567	1	main_slash	7	main_slash	29	stimuli_distractor_trianglediamonds.svg	stimuli_distractor_diamondtriangles.svg	35	no	0	1	2003
6.6.1	win	2022-12-16	14:18:05	14:22:00	233519	5ccc60abe787e000167f8143	164143567	1	main_slash	7	advance_on_keypress_SLASH	30	stimuli_distractor_trianglediamonds.svg	stimuli_distractor_diamondtriangles.svg	35	no	57	0	798
6.6.1	win	2022-12-16	14:18:05	14:22:02	235359	5ccc60abe787e000167f8143	164143567	1	main_slash	7	main_slash	31	stimuli_target_squaretriangles.svg	stimuli_distractor_trianglediamonds.svg	3	yes	53	1	434
6.6.1	win	2022-12-16	14:18:05	14:22:02	235359	5ccc60abe787e000167f8143	164143567	1	main_slash	7	advance_on_keypress_SLASH	32	stimuli_target_squaretriangles.svg	stimuli_distractor_trianglediamonds.svg	3	yes	57	0	558
6.6.1	win	2022-12-16	14:18:05	14:22:04	237151	5ccc60abe787e000167f8143	164143567	1	main_slash	7	main_slash	33	stimuli_target_diamondcircles.svg	stimuli_distractor_diamondtriangles.svg	23	yes	53	1	626
6.6.1	win	2022-12-16	14:18:05	14:22:04	237151	5ccc60abe787e000167f8143	164143567	1	main_slash	7	advance_on_keypress_SLASH	34	stimuli_target_diamondcircles.svg	stimuli_distractor_diamondtriangles.svg	23	yes	57	0	542
6.6.1	win	2022-12-16	14:18:05	14:22:05	238863	5ccc60abe787e000167f8143	164143567	1	main_slash	7	main_slash	35	stimuli_distractor_diamondtriangles.svg	stimuli_distractor_diamondtriangles.svg	40	no	53	0	555
6.6.1	win	2022-12-16	14:18:05	14:22:05	238863	5ccc60abe787e000167f8143	164143567	1	main_slash	7	advance_on_keypress_SLASH	36	stimuli_distractor_diamondtriangles.svg	stimuli_distractor_diamondtriangles.svg	40	no	57	0	462
6.6.1	win	2022-12-16	14:18:05	14:22:07	240326	5ccc60abe787e000167f8143	164143567	1	main_slash	7	main_slash	37	stimuli_target_circletriangles.svg	stimuli_distractor_trianglediamonds.svg	1	yes	53	1	393
6.6.1	win	2022-12-16	14:18:05	14:22:07	240326	5ccc60abe787e000167f8143	164143567	1	main_slash	7	advance_on_keypress_SLASH	38	stimuli_target_circletriangles.svg	stimuli_distractor_trianglediamonds.svg	1	yes	57	0	454
6.6.1	win	2022-12-16	14:18:05	14:22:10	243392	5ccc60abe787e000167f8143	164143567	1	main_slash	7	main_slash	39	stimuli_distractor_diamondtriangles.svg	stimuli_distractor_trianglediamonds.svg	38	no	0	1	2003
6.6.1	win	2022-12-16	14:18:05	14:22:10	243392	5ccc60abe787e000167f8143	164143567	1	main_slash	7	advance_on_keypress_SLASH	40	stimuli_distractor_diamondtriangles.svg	stimuli_distractor_trianglediamonds.svg	38	no	57	0	300
6.6.1	win	2022-12-16	14:18:05	14:22:11	244726	5ccc60abe787e000167f8143	164143567	1	main_slash	7	main_slash	41	stimuli_target_squaretriangles.svg	stimuli_distractor_diamondtriangles.svg	7	yes	53	1	357
6.6.1	win	2022-12-16	14:18:05	14:22:11	244726	5ccc60abe787e000167f8143	164143567	1	main_slash	7	advance_on_keypress_SLASH	42	stimuli_target_squaretriangles.svg	stimuli_distractor_diamondtriangles.svg	7	yes	57	0	438
6.6.1	win	2022-12-16	14:18:05	14:22:14	247782	5ccc60abe787e000167f8143	164143567	1	main_slash	7	main_slash	43	stimuli_distractor_trianglediamonds.svg	stimuli_distractor_diamondtriangles.svg	36	no	0	1	2003
6.6.1	win	2022-12-16	14:18:05	14:22:14	247782	5ccc60abe787e000167f8143	164143567	1	main_slash	7	advance_on_keypress_SLASH	44	stimuli_distractor_trianglediamonds.svg	stimuli_distractor_diamondtriangles.svg	36	no	57	0	320
6.6.1	win	2022-12-16	14:18:05	14:22:17	250721	5ccc60abe787e000167f8143	164143567	1	main_slash	7	main_slash	45	stimuli_target_diamondsquares.svg	stimuli_distractor_trianglediamonds.svg	20	yes	0	0	2003
6.6.1	win	2022-12-16	14:18:05	14:22:17	250721	5ccc60abe787e000167f8143	164143567	1	main_slash	7	advance_on_keypress_SLASH	46	stimuli_target_diamondsquares.svg	stimuli_distractor_trianglediamonds.svg	20	yes	57	0	300
6.6.1	win	2022-12-16	14:18:05	14:22:19	252182	5ccc60abe787e000167f8143	164143567	1	main_slash	7	main_slash	47	stimuli_distractor_diamondtriangles.svg	stimuli_target_diamondsquares.svg	32	yes	53	1	550
6.6.1	win	2022-12-16	14:18:05	14:22:19	252182	5ccc60abe787e000167f8143	164143567	1	main_slash	7	advance_on_keypress_SLASH	48	stimuli_distractor_diamondtriangles.svg	stimuli_target_diamondsquares.svg	32	yes	57	0	509
6.6.1	win	2022-12-16	14:18:05	14:22:20	253646	5ccc60abe787e000167f8143	164143567	1	main_slash	7	main_slash	49	stimuli_distractor_trianglediamonds.svg	stimuli_target_circlediamonds.svg	10	yes	53	1	339
6.6.1	win	2022-12-16	14:18:05	14:22:20	253646	5ccc60abe787e000167f8143	164143567	1	main_slash	7	advance_on_keypress_SLASH	50	stimuli_distractor_trianglediamonds.svg	stimuli_target_circlediamonds.svg	10	yes	57	0	486
6.6.1	win	2022-12-16	14:18:05	14:22:22	255126	5ccc60abe787e000167f8143	164143567	1	main_slash	7	main_slash	51	stimuli_distractor_trianglediamonds.svg	stimuli_target_squaretriangles.svg	11	yes	53	1	385
6.6.1	win	2022-12-16	14:18:05	14:22:22	255126	5ccc60abe787e000167f8143	164143567	1	main_slash	7	advance_on_keypress_SLASH	52	stimuli_distractor_trianglediamonds.svg	stimuli_target_squaretriangles.svg	11	yes	57	0	454
6.6.1	win	2022-12-16	14:18:05	14:22:23	256869	5ccc60abe787e000167f8143	164143567	1	main_slash	7	main_slash	53	stimuli_target_trianglecircles.svg	stimuli_distractor_trianglediamonds.svg	17	yes	53	1	682
6.6.1	win	2022-12-16	14:18:05	14:22:23	256869	5ccc60abe787e000167f8143	164143567	1	main_slash	7	advance_on_keypress_SLASH	54	stimuli_target_trianglecircles.svg	stimuli_distractor_trianglediamonds.svg	17	yes	57	0	390
6.6.1	win	2022-12-16	14:18:05	14:22:25	258357	5ccc60abe787e000167f8143	164143567	1	main_slash	7	main_slash	55	stimuli_target_trianglesquares.svg	stimuli_distractor_diamondtriangles.svg	22	yes	53	1	490
6.6.1	win	2022-12-16	14:18:05	14:22:25	258357	5ccc60abe787e000167f8143	164143567	1	main_slash	7	advance_on_keypress_SLASH	56	stimuli_target_trianglesquares.svg	stimuli_distractor_diamondtriangles.svg	22	yes	57	0	414
6.6.1	win	2022-12-16	14:18:05	14:22:28	261383	5ccc60abe787e000167f8143	164143567	1	main_slash	7	main_slash	57	stimuli_distractor_trianglediamonds.svg	stimuli_distractor_trianglediamonds.svg	34	no	0	1	2003
6.6.1	win	2022-12-16	14:18:05	14:22:28	261383	5ccc60abe787e000167f8143	164143567	1	main_slash	7	advance_on_keypress_SLASH	58	stimuli_distractor_trianglediamonds.svg	stimuli_distractor_trianglediamonds.svg	34	no	57	0	526
6.6.1	win	2022-12-16	14:18:05	14:22:29	262813	5ccc60abe787e000167f8143	164143567	1	main_slash	7	main_slash	59	stimuli_target_circlediamonds.svg	stimuli_distractor_trianglediamonds.svg	2	yes	53	1	290
6.6.1	win	2022-12-16	14:18:05	14:22:29	262813	5ccc60abe787e000167f8143	164143567	1	main_slash	7	advance_on_keypress_SLASH	60	stimuli_target_circlediamonds.svg	stimuli_distractor_trianglediamonds.svg	2	yes	57	0	413
6.6.1	win	2022-12-16	14:18:05	14:22:31	264325	5ccc60abe787e000167f8143	164143567	1	main_slash	7	main_slash	61	stimuli_target_squarediamonds.svg	stimuli_distractor_trianglediamonds.svg	4	yes	53	1	490
6.6.1	win	2022-12-16	14:18:05	14:22:31	264325	5ccc60abe787e000167f8143	164143567	1	main_slash	7	advance_on_keypress_SLASH	62	stimuli_target_squarediamonds.svg	stimuli_distractor_trianglediamonds.svg	4	yes	57	0	398
6.6.1	win	2022-12-16	14:18:05	14:22:32	265709	5ccc60abe787e000167f8143	164143567	1	main_slash	7	main_slash	63	stimuli_distractor_trianglediamonds.svg	stimuli_target_circletriangles.svg	9	yes	53	1	377
6.6.1	win	2022-12-16	14:18:05	14:22:32	265709	5ccc60abe787e000167f8143	164143567	1	main_slash	7	advance_on_keypress_SLASH	64	stimuli_distractor_trianglediamonds.svg	stimuli_target_circletriangles.svg	9	yes	57	0	372
6.6.1	win	2022-12-16	14:18:05	14:22:34	267237	5ccc60abe787e000167f8143	164143567	1	main_slash	7	main_slash	65	stimuli_target_trianglesquares.svg	stimuli_distractor_trianglediamonds.svg	18	yes	53	1	545
6.6.1	win	2022-12-16	14:18:05	14:22:34	267237	5ccc60abe787e000167f8143	164143567	1	main_slash	7	advance_on_keypress_SLASH	66	stimuli_target_trianglesquares.svg	stimuli_distractor_trianglediamonds.svg	18	yes	57	0	406
6.6.1	win	2022-12-16	14:18:05	14:22:35	268493	5ccc60abe787e000167f8143	164143567	1	main_slash	7	main_slash	67	stimuli_distractor_diamondtriangles.svg	stimuli_target_diamondcircles.svg	31	yes	53	1	239
6.6.1	win	2022-12-16	14:18:05	14:22:35	268493	5ccc60abe787e000167f8143	164143567	1	main_slash	7	advance_on_keypress_SLASH	68	stimuli_distractor_diamondtriangles.svg	stimuli_target_diamondcircles.svg	31	yes	57	0	438
6.6.1	win	2022-12-16	14:18:05	14:22:36	269804	5ccc60abe787e000167f8143	164143567	1	main_slash	7	main_slash	69	stimuli_distractor_trianglediamonds.svg	stimuli_target_squarediamonds.svg	12	yes	53	1	266
6.6.1	win	2022-12-16	14:18:05	14:22:36	269804	5ccc60abe787e000167f8143	164143567	1	main_slash	7	advance_on_keypress_SLASH	70	stimuli_distractor_trianglediamonds.svg	stimuli_target_squarediamonds.svg	12	yes	57	0	390
6.6.1	win	2022-12-16	14:18:05	14:22:38	271092	5ccc60abe787e000167f8143	164143567	1	main_slash	7	main_slash	71	stimuli_target_trianglecircles.svg	stimuli_distractor_diamondtriangles.svg	21	yes	53	1	290
6.6.1	win	2022-12-16	14:18:05	14:22:38	271092	5ccc60abe787e000167f8143	164143567	1	main_slash	7	advance_on_keypress_SLASH	72	stimuli_target_trianglecircles.svg	stimuli_distractor_diamondtriangles.svg	21	yes	57	0	406
6.6.1	win	2022-12-16	14:18:05	14:22:39	272412	5ccc60abe787e000167f8143	164143567	1	main_slash	7	main_slash	73	stimuli_target_squarediamonds.svg	stimuli_distractor_diamondtriangles.svg	8	yes	53	1	306
6.6.1	win	2022-12-16	14:18:05	14:22:39	272412	5ccc60abe787e000167f8143	164143567	1	main_slash	7	advance_on_keypress_SLASH	74	stimuli_target_squarediamonds.svg	stimuli_distractor_diamondtriangles.svg	8	yes	57	0	380
6.6.1	win	2022-12-16	14:18:05	14:22:40	273580	5ccc60abe787e000167f8143	164143567	1	main_slash	7	main_slash	75	stimuli_target_diamondsquares.svg	stimuli_distractor_diamondtriangles.svg	24	yes	53	1	178
6.6.1	win	2022-12-16	14:18:05	14:22:40	273580	5ccc60abe787e000167f8143	164143567	1	main_slash	7	advance_on_keypress_SLASH	76	stimuli_target_diamondsquares.svg	stimuli_distractor_diamondtriangles.svg	24	yes	57	0	622
6.6.1	win	2022-12-16	14:18:05	14:22:42	274988	5ccc60abe787e000167f8143	164143567	1	main_slash	7	main_slash	77	stimuli_target_diamondcircles.svg	stimuli_distractor_trianglediamonds.svg	19	yes	53	1	172
6.6.1	win	2022-12-16	14:18:05	14:22:42	274988	5ccc60abe787e000167f8143	164143567	1	main_slash	7	advance_on_keypress_SLASH	78	stimuli_target_diamondcircles.svg	stimuli_distractor_trianglediamonds.svg	19	yes	57	0	462
6.6.1	win	2022-12-16	14:18:05	14:22:43	276228	5ccc60abe787e000167f8143	164143567	1	main_slash	7	main_slash	79	stimuli_distractor_trianglediamonds.svg	stimuli_distractor_trianglediamonds.svg	33	no	53	0	170
6.6.1	win	2022-12-16	14:18:05	14:22:43	276228	5ccc60abe787e000167f8143	164143567	1	main_slash	7	advance_on_keypress_SLASH	80	stimuli_distractor_trianglediamonds.svg	stimuli_distractor_trianglediamonds.svg	33	no	57	0	326
6.6.1	win	2022-12-16	14:18:05	14:22:44	277492	5ccc60abe787e000167f8143	164143567	1	main_slash	7	main_slash	81	stimuli_distractor_diamondtriangles.svg	stimuli_distractor_trianglediamonds.svg	38	no	53	0	330
6.6.1	win	2022-12-16	14:18:05	14:22:44	277492	5ccc60abe787e000167f8143	164143567	1	main_slash	7	advance_on_keypress_SLASH	82	stimuli_distractor_diamondtriangles.svg	stimuli_distractor_trianglediamonds.svg	38	no	57	0	431
6.6.1	win	2022-12-16	14:18:05	14:22:45	278908	5ccc60abe787e000167f8143	164143567	1	main_slash	7	main_slash	83	stimuli_target_squaretriangles.svg	stimuli_distractor_trianglediamonds.svg	3	yes	53	1	378
6.6.1	win	2022-12-16	14:18:05	14:22:45	278908	5ccc60abe787e000167f8143	164143567	1	main_slash	7	advance_on_keypress_SLASH	84	stimuli_target_squaretriangles.svg	stimuli_distractor_trianglediamonds.svg	3	yes	57	0	381
6.6.1	win	2022-12-16	14:18:05	14:22:48	281901	5ccc60abe787e000167f8143	164143567	1	main_slash	7	main_slash	85	stimuli_distractor_diamondtriangles.svg	stimuli_distractor_trianglediamonds.svg	37	no	0	1	2003
6.6.1	win	2022-12-16	14:18:05	14:22:48	281901	5ccc60abe787e000167f8143	164143567	1	main_slash	7	advance_on_keypress_SLASH	86	stimuli_distractor_diamondtriangles.svg	stimuli_distractor_trianglediamonds.svg	37	no	57	0	388
6.6.1	win	2022-12-16	14:18:05	14:22:50	283252	5ccc60abe787e000167f8143	164143567	1	main_slash	7	main_slash	87	stimuli_distractor_trianglediamonds.svg	stimuli_target_trianglesquares.svg	26	yes	53	1	354
6.6.1	win	2022-12-16	14:18:05	14:22:50	283252	5ccc60abe787e000167f8143	164143567	1	main_slash	7	advance_on_keypress_SLASH	88	stimuli_distractor_trianglediamonds.svg	stimuli_target_trianglesquares.svg	26	yes	57	0	358
6.6.1	win	2022-12-16	14:18:05	14:22:51	284555	5ccc60abe787e000167f8143	164143567	1	main_slash	7	main_slash	89	stimuli_target_trianglesquares.svg	stimuli_distractor_trianglediamonds.svg	18	yes	53	1	336
6.6.1	win	2022-12-16	14:18:05	14:22:51	284555	5ccc60abe787e000167f8143	164143567	1	main_slash	7	advance_on_keypress_SLASH	90	stimuli_target_trianglesquares.svg	stimuli_distractor_trianglediamonds.svg	18	yes	57	0	486
6.6.1	win	2022-12-16	14:18:05	14:22:53	286083	5ccc60abe787e000167f8143	164143567	1	main_slash	7	main_slash	91	stimuli_target_diamondsquares.svg	stimuli_distractor_trianglediamonds.svg	20	yes	53	1	432
6.6.1	win	2022-12-16	14:18:05	14:22:53	286083	5ccc60abe787e000167f8143	164143567	1	main_slash	7	advance_on_keypress_SLASH	92	stimuli_target_diamondsquares.svg	stimuli_distractor_trianglediamonds.svg	20	yes	57	0	438
6.6.1	win	2022-12-16	14:18:05	14:22:54	287947	5ccc60abe787e000167f8143	164143567	1	main_slash	7	main_slash	93	stimuli_distractor_diamondtriangles.svg	stimuli_target_trianglesquares.svg	30	yes	53	1	816
6.6.1	win	2022-12-16	14:18:05	14:22:54	287947	5ccc60abe787e000167f8143	164143567	1	main_slash	7	advance_on_keypress_SLASH	94	stimuli_distractor_diamondtriangles.svg	stimuli_target_trianglesquares.svg	30	yes	57	0	556
6.6.1	win	2022-12-16	14:18:05	14:22:56	289563	5ccc60abe787e000167f8143	164143567	1	main_slash	7	main_slash	95	stimuli_distractor_trianglediamonds.svg	stimuli_target_squaretriangles.svg	11	yes	53	1	445
6.6.1	win	2022-12-16	14:18:05	14:22:56	289563	5ccc60abe787e000167f8143	164143567	1	main_slash	7	advance_on_keypress_SLASH	96	stimuli_distractor_trianglediamonds.svg	stimuli_target_squaretriangles.svg	11	yes	57	0	438
6.6.1	win	2022-12-16	14:18:05	14:22:58	291163	5ccc60abe787e000167f8143	164143567	1	main_slash	7	main_slash	97	stimuli_distractor_trianglediamonds.svg	stimuli_distractor_diamondtriangles.svg	36	no	53	0	554
6.6.1	win	2022-12-16	14:18:05	14:22:58	291163	5ccc60abe787e000167f8143	164143567	1	main_slash	7	advance_on_keypress_SLASH	98	stimuli_distractor_trianglediamonds.svg	stimuli_distractor_diamondtriangles.svg	36	no	57	0	414
6.6.1	win	2022-12-16	14:18:05	14:23:01	294189	5ccc60abe787e000167f8143	164143567	1	main_slash	7	main_slash	99	stimuli_target_diamondsquares.svg	stimuli_distractor_diamondtriangles.svg	24	yes	0	0	2003
6.6.1	win	2022-12-16	14:18:05	14:23:01	294189	5ccc60abe787e000167f8143	164143567	1	main_slash	7	advance_on_keypress_SLASH	100	stimuli_target_diamondsquares.svg	stimuli_distractor_diamondtriangles.svg	24	yes	57	0	267
6.6.1	win	2022-12-16	14:18:05	14:23:02	295627	5ccc60abe787e000167f8143	164143567	1	main_slash	7	main_slash	101	stimuli_target_trianglecircles.svg	stimuli_distractor_trianglediamonds.svg	17	yes	53	1	561
6.6.1	win	2022-12-16	14:18:05	14:23:02	295627	5ccc60abe787e000167f8143	164143567	1	main_slash	7	advance_on_keypress_SLASH	102	stimuli_target_trianglecircles.svg	stimuli_distractor_trianglediamonds.svg	17	yes	57	0	438
6.6.1	win	2022-12-16	14:18:05	14:23:04	297338	5ccc60abe787e000167f8143	164143567	1	main_slash	7	main_slash	103	stimuli_target_squarediamonds.svg	stimuli_distractor_diamondtriangles.svg	8	yes	53	1	666
6.6.1	win	2022-12-16	14:18:05	14:23:04	297338	5ccc60abe787e000167f8143	164143567	1	main_slash	7	advance_on_keypress_SLASH	104	stimuli_target_squarediamonds.svg	stimuli_distractor_diamondtriangles.svg	8	yes	57	0	430
6.6.1	win	2022-12-16	14:18:05	14:23:07	300380	5ccc60abe787e000167f8143	164143567	1	main_slash	7	main_slash	105	stimuli_distractor_trianglediamonds.svg	stimuli_distractor_diamondtriangles.svg	35	no	0	1	2003
6.6.1	win	2022-12-16	14:18:05	14:23:07	300380	5ccc60abe787e000167f8143	164143567	1	main_slash	7	advance_on_keypress_SLASH	106	stimuli_distractor_trianglediamonds.svg	stimuli_distractor_diamondtriangles.svg	35	no	57	0	653
6.6.1	win	2022-12-16	14:18:05	14:23:09	301994	5ccc60abe787e000167f8143	164143567	1	main_slash	7	main_slash	107	stimuli_target_circlediamonds.svg	stimuli_distractor_diamondtriangles.svg	6	yes	53	1	354
6.6.1	win	2022-12-16	14:18:05	14:23:09	301994	5ccc60abe787e000167f8143	164143567	1	main_slash	7	advance_on_keypress_SLASH	108	stimuli_target_circlediamonds.svg	stimuli_distractor_diamondtriangles.svg	6	yes	57	0	598
6.6.1	win	2022-12-16	14:18:05	14:23:10	303674	5ccc60abe787e000167f8143	164143567	1	main_slash	7	main_slash	109	stimuli_target_trianglecircles.svg	stimuli_distractor_diamondtriangles.svg	21	yes	53	1	474
6.6.1	win	2022-12-16	14:18:05	14:23:10	303674	5ccc60abe787e000167f8143	164143567	1	main_slash	7	advance_on_keypress_SLASH	110	stimuli_target_trianglecircles.svg	stimuli_distractor_diamondtriangles.svg	21	yes	57	0	593
6.6.1	win	2022-12-16	14:18:05	14:23:13	306887	5ccc60abe787e000167f8143	164143567	1	main_slash	7	main_slash	111	stimuli_distractor_diamondtriangles.svg	stimuli_distractor_diamondtriangles.svg	39	no	0	1	2003
6.6.1	win	2022-12-16	14:18:05	14:23:13	306887	5ccc60abe787e000167f8143	164143567	1	main_slash	7	advance_on_keypress_SLASH	112	stimuli_distractor_diamondtriangles.svg	stimuli_distractor_diamondtriangles.svg	39	no	57	0	233
6.6.1	win	2022-12-16	14:18:05	14:23:15	308250	5ccc60abe787e000167f8143	164143567	1	main_slash	7	main_slash	113	stimuli_distractor_diamondtriangles.svg	stimuli_target_trianglecircles.svg	29	yes	53	1	515
6.6.1	win	2022-12-16	14:18:05	14:23:15	308250	5ccc60abe787e000167f8143	164143567	1	main_slash	7	advance_on_keypress_SLASH	114	stimuli_distractor_diamondtriangles.svg	stimuli_target_trianglecircles.svg	29	yes	57	0	390
6.6.1	win	2022-12-16	14:18:05	14:23:16	309785	5ccc60abe787e000167f8143	164143567	1	main_slash	7	main_slash	115	stimuli_distractor_trianglediamonds.svg	stimuli_target_diamondcircles.svg	27	yes	53	1	536
6.6.1	win	2022-12-16	14:18:05	14:23:16	309785	5ccc60abe787e000167f8143	164143567	1	main_slash	7	advance_on_keypress_SLASH	116	stimuli_distractor_trianglediamonds.svg	stimuli_target_diamondcircles.svg	27	yes	57	0	374
6.6.1	win	2022-12-16	14:18:05	14:23:19	312777	5ccc60abe787e000167f8143	164143567	1	main_slash	7	main_slash	117	stimuli_distractor_trianglediamonds.svg	stimuli_distractor_trianglediamonds.svg	34	no	0	1	2003
6.6.1	win	2022-12-16	14:18:05	14:23:19	312777	5ccc60abe787e000167f8143	164143567	1	main_slash	7	advance_on_keypress_SLASH	118	stimuli_distractor_trianglediamonds.svg	stimuli_distractor_trianglediamonds.svg	34	no	57	0	229
6.6.1	win	2022-12-16	14:18:05	14:23:20	313913	5ccc60abe787e000167f8143	164143567	1	main_slash	7	main_slash	119	stimuli_distractor_diamondtriangles.svg	stimuli_target_diamondsquares.svg	32	yes	53	1	298
6.6.1	win	2022-12-16	14:18:05	14:23:20	313913	5ccc60abe787e000167f8143	164143567	1	main_slash	7	advance_on_keypress_SLASH	120	stimuli_distractor_diamondtriangles.svg	stimuli_target_diamondsquares.svg	32	yes	57	0	438
6.6.1	win	2022-12-16	14:18:05	14:23:22	315305	5ccc60abe787e000167f8143	164143567	1	main_slash	7	main_slash	121	stimuli_distractor_diamondtriangles.svg	stimuli_target_circletriangles.svg	13	yes	53	1	346
6.6.1	win	2022-12-16	14:18:05	14:23:22	315305	5ccc60abe787e000167f8143	164143567	1	main_slash	7	advance_on_keypress_SLASH	122	stimuli_distractor_diamondtriangles.svg	stimuli_target_circletriangles.svg	13	yes	57	0	430
6.6.1	win	2022-12-16	14:18:05	14:23:23	316739	5ccc60abe787e000167f8143	164143567	1	main_slash	7	main_slash	123	stimuli_distractor_diamondtriangles.svg	stimuli_target_squaretriangles.svg	15	yes	53	1	389
6.6.1	win	2022-12-16	14:18:05	14:23:23	316739	5ccc60abe787e000167f8143	164143567	1	main_slash	7	advance_on_keypress_SLASH	124	stimuli_distractor_diamondtriangles.svg	stimuli_target_squaretriangles.svg	15	yes	57	0	431
6.6.1	win	2022-12-16	14:18:05	14:23:26	319791	5ccc60abe787e000167f8143	164143567	1	main_slash	7	main_slash	125	stimuli_distractor_trianglediamonds.svg	stimuli_distractor_trianglediamonds.svg	33	no	0	1	2003
6.6.1	win	2022-12-16	14:18:05	14:23:26	319791	5ccc60abe787e000167f8143	164143567	1	main_slash	7	advance_on_keypress_SLASH	126	stimuli_distractor_trianglediamonds.svg	stimuli_distractor_trianglediamonds.svg	33	no	57	0	192
6.6.1	win	2022-12-16	14:18:05	14:23:27	320945	5ccc60abe787e000167f8143	164143567	1	main_slash	7	main_slash	127	stimuli_target_diamondcircles.svg	stimuli_distractor_trianglediamonds.svg	19	yes	53	1	353
6.6.1	win	2022-12-16	14:18:05	14:23:27	320945	5ccc60abe787e000167f8143	164143567	1	main_slash	7	advance_on_keypress_SLASH	128	stimuli_target_diamondcircles.svg	stimuli_distractor_trianglediamonds.svg	19	yes	57	0	461
6.6.1	win	2022-12-16	14:18:05	14:23:31	324018	5ccc60abe787e000167f8143	164143567	1	main_slash	7	main_slash	129	stimuli_distractor_diamondtriangles.svg	stimuli_distractor_diamondtriangles.svg	40	no	0	1	2003
6.6.1	win	2022-12-16	14:18:05	14:23:31	324018	5ccc60abe787e000167f8143	164143567	1	main_slash	7	advance_on_keypress_SLASH	130	stimuli_distractor_diamondtriangles.svg	stimuli_distractor_diamondtriangles.svg	40	no	57	0	240
6.6.1	win	2022-12-16	14:18:05	14:23:32	325224	5ccc60abe787e000167f8143	164143567	1	main_slash	7	main_slash	131	stimuli_distractor_trianglediamonds.svg	stimuli_target_circlediamonds.svg	10	yes	53	1	354
6.6.1	win	2022-12-16	14:18:05	14:23:32	325224	5ccc60abe787e000167f8143	164143567	1	main_slash	7	advance_on_keypress_SLASH	132	stimuli_distractor_trianglediamonds.svg	stimuli_target_circlediamonds.svg	10	yes	57	0	446
6.6.1	win	2022-12-16	14:18:05	14:23:33	326688	5ccc60abe787e000167f8143	164143567	1	main_slash	7	main_slash	133	stimuli_distractor_trianglediamonds.svg	stimuli_target_circletriangles.svg	9	yes	53	1	404
6.6.1	win	2022-12-16	14:18:05	14:23:33	326688	5ccc60abe787e000167f8143	164143567	1	main_slash	7	advance_on_keypress_SLASH	134	stimuli_distractor_trianglediamonds.svg	stimuli_target_circletriangles.svg	9	yes	57	0	486
6.6.1	win	2022-12-16	14:18:05	14:23:35	328312	5ccc60abe787e000167f8143	164143567	1	main_slash	7	main_slash	135	stimuli_distractor_diamondtriangles.svg	stimuli_target_diamondcircles.svg	31	yes	53	1	528
6.6.1	win	2022-12-16	14:18:05	14:23:35	328312	5ccc60abe787e000167f8143	164143567	1	main_slash	7	advance_on_keypress_SLASH	136	stimuli_distractor_diamondtriangles.svg	stimuli_target_diamondcircles.svg	31	yes	57	0	438
6.6.1	win	2022-12-16	14:18:05	14:23:36	329752	5ccc60abe787e000167f8143	164143567	1	main_slash	7	main_slash	137	stimuli_distractor_diamondtriangles.svg	stimuli_target_circlediamonds.svg	14	yes	53	1	394
6.6.1	win	2022-12-16	14:18:05	14:23:36	329752	5ccc60abe787e000167f8143	164143567	1	main_slash	7	advance_on_keypress_SLASH	138	stimuli_distractor_diamondtriangles.svg	stimuli_target_circlediamonds.svg	14	yes	57	0	430
6.6.1	win	2022-12-16	14:18:05	14:23:38	331232	5ccc60abe787e000167f8143	164143567	1	main_slash	7	main_slash	139	stimuli_target_circletriangles.svg	stimuli_distractor_diamondtriangles.svg	5	yes	53	1	441
6.6.1	win	2022-12-16	14:18:05	14:23:38	331232	5ccc60abe787e000167f8143	164143567	1	main_slash	7	advance_on_keypress_SLASH	140	stimuli_target_circletriangles.svg	stimuli_distractor_diamondtriangles.svg	5	yes	57	0	374
6.6.1	win	2022-12-16	14:18:05	14:23:39	332792	5ccc60abe787e000167f8143	164143567	1	main_slash	7	main_slash	141	stimuli_distractor_trianglediamonds.svg	stimuli_target_diamondsquares.svg	28	yes	53	1	575
6.6.1	win	2022-12-16	14:18:05	14:23:39	332792	5ccc60abe787e000167f8143	164143567	1	main_slash	7	advance_on_keypress_SLASH	142	stimuli_distractor_trianglediamonds.svg	stimuli_target_diamondsquares.svg	28	yes	57	0	342
6.6.1	win	2022-12-16	14:18:05	14:23:41	334120	5ccc60abe787e000167f8143	164143567	1	main_slash	7	main_slash	143	stimuli_distractor_trianglediamonds.svg	stimuli_target_trianglecircles.svg	25	yes	53	1	377
6.6.1	win	2022-12-16	14:18:05	14:23:41	334120	5ccc60abe787e000167f8143	164143567	1	main_slash	7	advance_on_keypress_SLASH	144	stimuli_distractor_trianglediamonds.svg	stimuli_target_trianglecircles.svg	25	yes	57	0	446
6.6.1	win	2022-12-16	14:18:05	14:23:42	335552	5ccc60abe787e000167f8143	164143567	1	main_slash	7	main_slash	145	stimuli_target_diamondcircles.svg	stimuli_distractor_diamondtriangles.svg	23	yes	53	1	377
6.6.1	win	2022-12-16	14:18:05	14:23:42	335552	5ccc60abe787e000167f8143	164143567	1	main_slash	7	advance_on_keypress_SLASH	146	stimuli_target_diamondcircles.svg	stimuli_distractor_diamondtriangles.svg	23	yes	57	0	358
6.6.1	win	2022-12-16	14:18:05	14:23:43	336872	5ccc60abe787e000167f8143	164143567	1	main_slash	7	main_slash	147	stimuli_distractor_trianglediamonds.svg	stimuli_target_squarediamonds.svg	12	yes	53	1	354
6.6.1	win	2022-12-16	14:18:05	14:23:43	336872	5ccc60abe787e000167f8143	164143567	1	main_slash	7	advance_on_keypress_SLASH	148	stimuli_distractor_trianglediamonds.svg	stimuli_target_squarediamonds.svg	12	yes	57	0	406
6.6.1	win	2022-12-16	14:18:05	14:23:45	338200	5ccc60abe787e000167f8143	164143567	1	main_slash	7	main_slash	149	stimuli_target_circletriangles.svg	stimuli_distractor_trianglediamonds.svg	1	yes	53	1	314
6.6.1	win	2022-12-16	14:18:05	14:23:45	338200	5ccc60abe787e000167f8143	164143567	1	main_slash	7	advance_on_keypress_SLASH	150	stimuli_target_circletriangles.svg	stimuli_distractor_trianglediamonds.svg	1	yes	57	0	342
6.6.1	win	2022-12-16	14:18:05	14:23:46	339423	5ccc60abe787e000167f8143	164143567	1	main_slash	7	main_slash	151	stimuli_distractor_diamondtriangles.svg	stimuli_target_squarediamonds.svg	16	yes	53	1	274
6.6.1	win	2022-12-16	14:18:05	14:23:46	339423	5ccc60abe787e000167f8143	164143567	1	main_slash	7	advance_on_keypress_SLASH	152	stimuli_distractor_diamondtriangles.svg	stimuli_target_squarediamonds.svg	16	yes	57	0	462
6.6.1	win	2022-12-16	14:18:05	14:23:47	340839	5ccc60abe787e000167f8143	164143567	1	main_slash	7	main_slash	153	stimuli_target_squaretriangles.svg	stimuli_distractor_diamondtriangles.svg	7	yes	53	1	346
6.6.1	win	2022-12-16	14:18:05	14:23:47	340839	5ccc60abe787e000167f8143	164143567	1	main_slash	7	advance_on_keypress_SLASH	154	stimuli_target_squaretriangles.svg	stimuli_distractor_diamondtriangles.svg	7	yes	57	0	468
6.6.1	win	2022-12-16	14:18:05	14:23:49	342111	5ccc60abe787e000167f8143	164143567	1	main_slash	7	main_slash	155	stimuli_target_trianglesquares.svg	stimuli_distractor_diamondtriangles.svg	22	yes	53	1	192
6.6.1	win	2022-12-16	14:18:05	14:23:49	342111	5ccc60abe787e000167f8143	164143567	1	main_slash	7	advance_on_keypress_SLASH	156	stimuli_target_trianglesquares.svg	stimuli_distractor_diamondtriangles.svg	22	yes	57	0	1910
6.6.1	win	2022-12-16	14:18:05	14:23:51	344783	5ccc60abe787e000167f8143	164143567	1	main_slash	7	main_slash	157	stimuli_target_squarediamonds.svg	stimuli_distractor_trianglediamonds.svg	4	yes	53	1	154
6.6.1	win	2022-12-16	14:18:05	14:23:51	344783	5ccc60abe787e000167f8143	164143567	1	main_slash	7	advance_on_keypress_SLASH	158	stimuli_target_squarediamonds.svg	stimuli_distractor_trianglediamonds.svg	4	yes	57	0	455
6.6.1	win	2022-12-16	14:18:05	14:23:53	346095	5ccc60abe787e000167f8143	164143567	1	main_slash	7	main_slash	159	stimuli_target_circlediamonds.svg	stimuli_distractor_trianglediamonds.svg	2	yes	53	1	247
6.6.1	win	2022-12-16	14:18:05	14:23:53	346095	5ccc60abe787e000167f8143	164143567	1	main_slash	7	advance_on_keypress_SLASH	160	stimuli_target_circlediamonds.svg	stimuli_distractor_trianglediamonds.svg	2	yes	57	0	446
6.6.1	win	2022-12-16	14:18:05	14:24:18	371262	5ccc60abe787e000167f8143	164143567	1	practice_z	9	practice_z	1	stimuli_distractor_trianglediamonds.svg	stimuli_distractor_diamondtriangles.svg	16	no	44	0	502
6.6.1	win	2022-12-16	14:18:05	14:24:18	371262	5ccc60abe787e000167f8143	164143567	1	practice_z	9	advance_on_keypress_ZEE	2	stimuli_distractor_trianglediamonds.svg	stimuli_distractor_diamondtriangles.svg	16	no	57	0	322
6.6.1	win	2022-12-16	14:18:05	14:24:20	373677	5ccc60abe787e000167f8143	164143567	1	practice_z	9	practice_z	3	stimuli_distractor_trianglediamonds.svg	stimuli_target_squarediamonds.svg	11	yes	44	1	346
6.6.1	win	2022-12-16	14:18:05	14:24:20	373677	5ccc60abe787e000167f8143	164143567	1	practice_z	9	advance_on_keypress_ZEE	4	stimuli_distractor_trianglediamonds.svg	stimuli_target_squarediamonds.svg	11	yes	57	0	172
6.6.1	win	2022-12-16	14:18:05	14:24:22	375909	5ccc60abe787e000167f8143	164143567	1	practice_z	9	practice_z	5	stimuli_target_squarediamonds.svg	stimuli_distractor_diamondtriangles.svg	2	yes	44	1	381
6.6.1	win	2022-12-16	14:18:05	14:24:22	375909	5ccc60abe787e000167f8143	164143567	1	practice_z	9	advance_on_keypress_ZEE	6	stimuli_target_squarediamonds.svg	stimuli_distractor_diamondtriangles.svg	2	yes	57	0	112
6.6.1	win	2022-12-16	14:18:05	14:24:26	379712	5ccc60abe787e000167f8143	164143567	1	practice_z	9	practice_z	7	stimuli_distractor_diamondtriangles.svg	stimuli_distractor_diamondtriangles.svg	13	no	0	1	2003
6.6.1	win	2022-12-16	14:18:05	14:24:26	379712	5ccc60abe787e000167f8143	164143567	1	practice_z	9	advance_on_keypress_ZEE	8	stimuli_distractor_diamondtriangles.svg	stimuli_distractor_diamondtriangles.svg	13	no	57	0	315
6.6.1	win	2022-12-16	14:18:05	14:24:30	383710	5ccc60abe787e000167f8143	164143567	1	practice_z	9	practice_z	9	stimuli_distractor_diamondtriangles.svg	stimuli_distractor_trianglediamonds.svg	14	no	0	1	2003
6.6.1	win	2022-12-16	14:18:05	14:24:30	383710	5ccc60abe787e000167f8143	164143567	1	practice_z	9	advance_on_keypress_ZEE	10	stimuli_distractor_diamondtriangles.svg	stimuli_distractor_trianglediamonds.svg	14	no	57	0	188
6.6.1	win	2022-12-16	14:18:05	14:24:32	385884	5ccc60abe787e000167f8143	164143567	1	practice_z	9	practice_z	11	stimuli_distractor_diamondtriangles.svg	stimuli_target_diamondcircles.svg	8	yes	44	1	311
6.6.1	win	2022-12-16	14:18:05	14:24:32	385884	5ccc60abe787e000167f8143	164143567	1	practice_z	9	advance_on_keypress_ZEE	12	stimuli_distractor_diamondtriangles.svg	stimuli_target_diamondcircles.svg	8	yes	57	0	174
6.6.1	win	2022-12-16	14:18:05	14:24:35	388236	5ccc60abe787e000167f8143	164143567	1	practice_z	9	practice_z	13	stimuli_target_diamondsquares.svg	stimuli_distractor_trianglediamonds.svg	6	yes	44	1	502
6.6.1	win	2022-12-16	14:18:05	14:24:35	388236	5ccc60abe787e000167f8143	164143567	1	practice_z	9	advance_on_keypress_ZEE	14	stimuli_target_diamondsquares.svg	stimuli_distractor_trianglediamonds.svg	6	yes	57	0	309
6.6.1	win	2022-12-16	14:18:05	14:24:37	390620	5ccc60abe787e000167f8143	164143567	1	practice_z	9	practice_z	15	stimuli_target_circlediamonds.svg	stimuli_distractor_trianglediamonds.svg	4	yes	44	1	393
6.6.1	win	2022-12-16	14:18:05	14:24:37	390620	5ccc60abe787e000167f8143	164143567	1	practice_z	9	advance_on_keypress_ZEE	16	stimuli_target_circlediamonds.svg	stimuli_distractor_trianglediamonds.svg	4	yes	57	0	325
6.6.1	win	2022-12-16	14:18:05	14:24:39	392956	5ccc60abe787e000167f8143	164143567	1	practice_z	9	practice_z	17	stimuli_distractor_trianglediamonds.svg	stimuli_target_circlediamonds.svg	10	yes	44	1	331
6.6.1	win	2022-12-16	14:18:05	14:24:39	392956	5ccc60abe787e000167f8143	164143567	1	practice_z	9	advance_on_keypress_ZEE	18	stimuli_distractor_trianglediamonds.svg	stimuli_target_circlediamonds.svg	10	yes	57	0	150
6.6.1	win	2022-12-16	14:18:05	14:24:43	396788	5ccc60abe787e000167f8143	164143567	1	practice_z	9	practice_z	19	stimuli_distractor_trianglediamonds.svg	stimuli_distractor_trianglediamonds.svg	15	no	0	1	2003
6.6.1	win	2022-12-16	14:18:05	14:24:43	396788	5ccc60abe787e000167f8143	164143567	1	practice_z	9	advance_on_keypress_ZEE	20	stimuli_distractor_trianglediamonds.svg	stimuli_distractor_trianglediamonds.svg	15	no	57	0	37
6.6.1	win	2022-12-16	14:18:05	14:24:45	398724	5ccc60abe787e000167f8143	164143567	1	practice_z	9	practice_z	21	stimuli_distractor_diamondtriangles.svg	stimuli_target_trianglecircles.svg	9	yes	44	1	213
6.6.1	win	2022-12-16	14:18:05	14:24:45	398724	5ccc60abe787e000167f8143	164143567	1	practice_z	9	advance_on_keypress_ZEE	22	stimuli_distractor_diamondtriangles.svg	stimuli_target_trianglecircles.svg	9	yes	57	0	328
6.6.1	win	2022-12-16	14:18:05	14:24:48	401099	5ccc60abe787e000167f8143	164143567	1	practice_z	9	practice_z	23	stimuli_target_circlediamonds.svg	stimuli_distractor_diamondtriangles.svg	1	yes	44	1	363
6.6.1	win	2022-12-16	14:18:05	14:24:48	401099	5ccc60abe787e000167f8143	164143567	1	practice_z	9	advance_on_keypress_ZEE	24	stimuli_target_circlediamonds.svg	stimuli_distractor_diamondtriangles.svg	1	yes	57	0	166
6.6.1	win	2022-12-16	14:18:05	14:24:50	403459	5ccc60abe787e000167f8143	164143567	1	practice_z	9	practice_z	25	stimuli_distractor_diamondtriangles.svg	stimuli_target_circletriangles.svg	7	yes	44	1	514
6.6.1	win	2022-12-16	14:18:05	14:24:50	403459	5ccc60abe787e000167f8143	164143567	1	practice_z	9	advance_on_keypress_ZEE	26	stimuli_distractor_diamondtriangles.svg	stimuli_target_circletriangles.svg	7	yes	57	0	245
6.6.1	win	2022-12-16	14:18:05	14:24:52	405771	5ccc60abe787e000167f8143	164143567	1	practice_z	9	practice_z	27	stimuli_target_squarediamonds.svg	stimuli_distractor_trianglediamonds.svg	5	yes	44	1	387
6.6.1	win	2022-12-16	14:18:05	14:24:52	405771	5ccc60abe787e000167f8143	164143567	1	practice_z	9	advance_on_keypress_ZEE	28	stimuli_target_squarediamonds.svg	stimuli_distractor_trianglediamonds.svg	5	yes	57	0	262
6.6.1	win	2022-12-16	14:18:05	14:24:55	408067	5ccc60abe787e000167f8143	164143567	1	practice_z	9	practice_z	29	stimuli_distractor_trianglediamonds.svg	stimuli_target_diamondcircles.svg	12	yes	44	1	354
6.6.1	win	2022-12-16	14:18:05	14:24:55	408067	5ccc60abe787e000167f8143	164143567	1	practice_z	9	advance_on_keypress_ZEE	30	stimuli_distractor_trianglediamonds.svg	stimuli_target_diamondcircles.svg	12	yes	57	0	22
6.6.1	win	2022-12-16	14:18:05	14:24:57	410179	5ccc60abe787e000167f8143	164143567	1	practice_z	9	practice_z	31	stimuli_target_diamondsquares.svg	stimuli_distractor_diamondtriangles.svg	3	yes	44	1	411
6.6.1	win	2022-12-16	14:18:05	14:24:57	410179	5ccc60abe787e000167f8143	164143567	1	practice_z	9	advance_on_keypress_ZEE	32	stimuli_target_diamondsquares.svg	stimuli_distractor_diamondtriangles.svg	3	yes	57	0	291
6.6.1	win	2022-12-16	14:18:05	14:25:02	415712	5ccc60abe787e000167f8143	164143567	1	main_z	11	main_z	1	stimuli_distractor_trianglediamonds.svg	stimuli_distractor_trianglediamonds.svg	33	no	0	1	2003
6.6.1	win	2022-12-16	14:18:05	14:25:02	415712	5ccc60abe787e000167f8143	164143567	1	main_z	11	advance_on_keypress_ZEE	2	stimuli_distractor_trianglediamonds.svg	stimuli_distractor_trianglediamonds.svg	33	no	57	0	271
6.6.1	win	2022-12-16	14:18:05	14:25:03	416842	5ccc60abe787e000167f8143	164143567	1	main_z	11	main_z	3	stimuli_distractor_diamondtriangles.svg	stimuli_distractor_diamondtriangles.svg	40	no	44	0	249
6.6.1	win	2022-12-16	14:18:05	14:25:03	416842	5ccc60abe787e000167f8143	164143567	1	main_z	11	advance_on_keypress_ZEE	4	stimuli_distractor_diamondtriangles.svg	stimuli_distractor_diamondtriangles.svg	40	no	57	0	284
6.6.1	win	2022-12-16	14:18:05	14:25:06	419818	5ccc60abe787e000167f8143	164143567	1	main_z	11	main_z	5	stimuli_distractor_diamondtriangles.svg	stimuli_distractor_trianglediamonds.svg	37	no	0	1	2003
6.6.1	win	2022-12-16	14:18:05	14:25:06	419818	5ccc60abe787e000167f8143	164143567	1	main_z	11	advance_on_keypress_ZEE	6	stimuli_distractor_diamondtriangles.svg	stimuli_distractor_trianglediamonds.svg	37	no	57	0	197
6.6.1	win	2022-12-16	14:18:05	14:25:08	421065	5ccc60abe787e000167f8143	164143567	1	main_z	11	main_z	7	stimuli_distractor_trianglediamonds.svg	stimuli_target_diamondcircles.svg	27	yes	44	1	438
6.6.1	win	2022-12-16	14:18:05	14:25:08	421065	5ccc60abe787e000167f8143	164143567	1	main_z	11	advance_on_keypress_ZEE	8	stimuli_distractor_trianglediamonds.svg	stimuli_target_diamondcircles.svg	27	yes	57	0	646
6.6.1	win	2022-12-16	14:18:05	14:25:09	422841	5ccc60abe787e000167f8143	164143567	1	main_z	11	main_z	9	stimuli_target_trianglesquares.svg	stimuli_distractor_diamondtriangles.svg	22	yes	44	1	455
6.6.1	win	2022-12-16	14:18:05	14:25:09	422841	5ccc60abe787e000167f8143	164143567	1	main_z	11	advance_on_keypress_ZEE	10	stimuli_target_trianglesquares.svg	stimuli_distractor_diamondtriangles.svg	22	yes	57	0	462
6.6.1	win	2022-12-16	14:18:05	14:25:11	424361	5ccc60abe787e000167f8143	164143567	1	main_z	11	main_z	11	stimuli_target_diamondcircles.svg	stimuli_distractor_trianglediamonds.svg	19	yes	44	1	444
6.6.1	win	2022-12-16	14:18:05	14:25:11	424361	5ccc60abe787e000167f8143	164143567	1	main_z	11	advance_on_keypress_ZEE	12	stimuli_target_diamondcircles.svg	stimuli_distractor_trianglediamonds.svg	19	yes	57	0	398
6.6.1	win	2022-12-16	14:18:05	14:25:13	426305	5ccc60abe787e000167f8143	164143567	1	main_z	11	main_z	13	stimuli_target_squaretriangles.svg	stimuli_distractor_trianglediamonds.svg	3	yes	44	1	938
6.6.1	win	2022-12-16	14:18:05	14:25:13	426305	5ccc60abe787e000167f8143	164143567	1	main_z	11	advance_on_keypress_ZEE	14	stimuli_target_squaretriangles.svg	stimuli_distractor_trianglediamonds.svg	3	yes	57	0	486
6.6.1	win	2022-12-16	14:18:05	14:25:14	427793	5ccc60abe787e000167f8143	164143567	1	main_z	11	main_z	15	stimuli_distractor_trianglediamonds.svg	stimuli_target_squaretriangles.svg	11	yes	44	1	394
6.6.1	win	2022-12-16	14:18:05	14:25:14	427793	5ccc60abe787e000167f8143	164143567	1	main_z	11	advance_on_keypress_ZEE	16	stimuli_distractor_trianglediamonds.svg	stimuli_target_squaretriangles.svg	11	yes	57	0	354
6.6.1	win	2022-12-16	14:18:05	14:25:16	429161	5ccc60abe787e000167f8143	164143567	1	main_z	11	main_z	17	stimuli_distractor_diamondtriangles.svg	stimuli_target_squaretriangles.svg	15	yes	44	1	401
6.6.1	win	2022-12-16	14:18:05	14:25:16	429161	5ccc60abe787e000167f8143	164143567	1	main_z	11	advance_on_keypress_ZEE	18	stimuli_distractor_diamondtriangles.svg	stimuli_target_squaretriangles.svg	15	yes	57	0	310
6.6.1	win	2022-12-16	14:18:05	14:25:17	430441	5ccc60abe787e000167f8143	164143567	1	main_z	11	main_z	19	stimuli_target_circlediamonds.svg	stimuli_distractor_trianglediamonds.svg	2	yes	44	1	355
6.6.1	win	2022-12-16	14:18:05	14:25:17	430441	5ccc60abe787e000167f8143	164143567	1	main_z	11	advance_on_keypress_ZEE	20	stimuli_target_circlediamonds.svg	stimuli_distractor_trianglediamonds.svg	2	yes	57	0	286
6.6.1	win	2022-12-16	14:18:05	14:25:18	431768	5ccc60abe787e000167f8143	164143567	1	main_z	11	main_z	21	stimuli_distractor_trianglediamonds.svg	stimuli_target_trianglecircles.svg	25	yes	44	1	434
6.6.1	win	2022-12-16	14:18:05	14:25:18	431768	5ccc60abe787e000167f8143	164143567	1	main_z	11	advance_on_keypress_ZEE	22	stimuli_distractor_trianglediamonds.svg	stimuli_target_trianglecircles.svg	25	yes	57	0	310
6.6.1	win	2022-12-16	14:18:05	14:25:21	434690	5ccc60abe787e000167f8143	164143567	1	main_z	11	main_z	23	stimuli_distractor_trianglediamonds.svg	stimuli_distractor_diamondtriangles.svg	35	no	0	1	2003
6.6.1	win	2022-12-16	14:18:05	14:25:21	434690	5ccc60abe787e000167f8143	164143567	1	main_z	11	advance_on_keypress_ZEE	24	stimuli_distractor_trianglediamonds.svg	stimuli_distractor_diamondtriangles.svg	35	no	57	0	557
6.6.1	win	2022-12-16	14:18:05	14:25:23	436168	5ccc60abe787e000167f8143	164143567	1	main_z	11	main_z	25	stimuli_target_squaretriangles.svg	stimuli_distractor_diamondtriangles.svg	7	yes	44	1	243
6.6.1	win	2022-12-16	14:18:05	14:25:23	436168	5ccc60abe787e000167f8143	164143567	1	main_z	11	advance_on_keypress_ZEE	26	stimuli_target_squaretriangles.svg	stimuli_distractor_diamondtriangles.svg	7	yes	57	0	382
6.6.1	win	2022-12-16	14:18:05	14:25:24	437536	5ccc60abe787e000167f8143	164143567	1	main_z	11	main_z	27	stimuli_target_circletriangles.svg	stimuli_distractor_trianglediamonds.svg	1	yes	44	1	378
6.6.1	win	2022-12-16	14:18:05	14:25:24	437536	5ccc60abe787e000167f8143	164143567	1	main_z	11	advance_on_keypress_ZEE	28	stimuli_target_circletriangles.svg	stimuli_distractor_trianglediamonds.svg	1	yes	57	0	438
6.6.1	win	2022-12-16	14:18:05	14:25:25	438848	5ccc60abe787e000167f8143	164143567	1	main_z	11	main_z	29	stimuli_target_circlediamonds.svg	stimuli_distractor_diamondtriangles.svg	6	yes	44	1	261
6.6.1	win	2022-12-16	14:18:05	14:25:25	438848	5ccc60abe787e000167f8143	164143567	1	main_z	11	advance_on_keypress_ZEE	30	stimuli_target_circlediamonds.svg	stimuli_distractor_diamondtriangles.svg	6	yes	57	0	385
6.6.1	win	2022-12-16	14:18:05	14:25:27	440272	5ccc60abe787e000167f8143	164143567	1	main_z	11	main_z	31	stimuli_distractor_trianglediamonds.svg	stimuli_target_diamondsquares.svg	28	yes	44	1	423
6.6.1	win	2022-12-16	14:18:05	14:25:27	440272	5ccc60abe787e000167f8143	164143567	1	main_z	11	advance_on_keypress_ZEE	32	stimuli_distractor_trianglediamonds.svg	stimuli_target_diamondsquares.svg	28	yes	57	0	462
6.6.1	win	2022-12-16	14:18:05	14:25:28	441600	5ccc60abe787e000167f8143	164143567	1	main_z	11	main_z	33	stimuli_distractor_diamondtriangles.svg	stimuli_target_trianglecircles.svg	29	yes	44	1	252
6.6.1	win	2022-12-16	14:18:05	14:25:28	441600	5ccc60abe787e000167f8143	164143567	1	main_z	11	advance_on_keypress_ZEE	34	stimuli_distractor_diamondtriangles.svg	stimuli_target_trianglecircles.svg	29	yes	57	0	390
6.6.1	win	2022-12-16	14:18:05	14:25:30	443224	5ccc60abe787e000167f8143	164143567	1	main_z	11	main_z	35	stimuli_distractor_diamondtriangles.svg	stimuli_distractor_diamondtriangles.svg	39	no	44	0	625
6.6.1	win	2022-12-16	14:18:05	14:25:30	443224	5ccc60abe787e000167f8143	164143567	1	main_z	11	advance_on_keypress_ZEE	36	stimuli_distractor_diamondtriangles.svg	stimuli_distractor_diamondtriangles.svg	39	no	57	0	458
6.6.1	win	2022-12-16	14:18:05	14:25:31	444711	5ccc60abe787e000167f8143	164143567	1	main_z	11	main_z	37	stimuli_target_circletriangles.svg	stimuli_distractor_diamondtriangles.svg	5	yes	44	1	417
6.6.1	win	2022-12-16	14:18:05	14:25:31	444711	5ccc60abe787e000167f8143	164143567	1	main_z	11	advance_on_keypress_ZEE	38	stimuli_target_circletriangles.svg	stimuli_distractor_diamondtriangles.svg	5	yes	57	0	430
6.6.1	win	2022-12-16	14:18:05	14:25:33	446208	5ccc60abe787e000167f8143	164143567	1	main_z	11	main_z	39	stimuli_distractor_trianglediamonds.svg	stimuli_target_circletriangles.svg	9	yes	44	1	457
6.6.1	win	2022-12-16	14:18:05	14:25:33	446208	5ccc60abe787e000167f8143	164143567	1	main_z	11	advance_on_keypress_ZEE	40	stimuli_distractor_trianglediamonds.svg	stimuli_target_circletriangles.svg	9	yes	57	0	429
6.6.1	win	2022-12-16	14:18:05	14:25:34	447927	5ccc60abe787e000167f8143	164143567	1	main_z	11	main_z	41	stimuli_target_diamondsquares.svg	stimuli_distractor_trianglediamonds.svg	20	yes	44	1	682
6.6.1	win	2022-12-16	14:18:05	14:25:34	447927	5ccc60abe787e000167f8143	164143567	1	main_z	11	advance_on_keypress_ZEE	42	stimuli_target_diamondsquares.svg	stimuli_distractor_trianglediamonds.svg	20	yes	57	0	382
6.6.1	win	2022-12-16	14:18:05	14:25:37	450923	5ccc60abe787e000167f8143	164143567	1	main_z	11	main_z	43	stimuli_distractor_trianglediamonds.svg	stimuli_distractor_trianglediamonds.svg	34	no	0	1	2003
6.6.1	win	2022-12-16	14:18:05	14:25:37	450923	5ccc60abe787e000167f8143	164143567	1	main_z	11	advance_on_keypress_ZEE	44	stimuli_distractor_trianglediamonds.svg	stimuli_distractor_trianglediamonds.svg	34	no	57	0	394
6.6.1	win	2022-12-16	14:18:05	14:25:39	452239	5ccc60abe787e000167f8143	164143567	1	main_z	11	main_z	45	stimuli_distractor_trianglediamonds.svg	stimuli_target_circlediamonds.svg	10	yes	44	1	314
6.6.1	win	2022-12-16	14:18:05	14:25:39	452239	5ccc60abe787e000167f8143	164143567	1	main_z	11	advance_on_keypress_ZEE	46	stimuli_distractor_trianglediamonds.svg	stimuli_target_circlediamonds.svg	10	yes	57	0	342
6.6.1	win	2022-12-16	14:18:05	14:25:40	453495	5ccc60abe787e000167f8143	164143567	1	main_z	11	main_z	47	stimuli_distractor_diamondtriangles.svg	stimuli_target_squarediamonds.svg	16	yes	44	1	306
6.6.1	win	2022-12-16	14:18:05	14:25:40	453495	5ccc60abe787e000167f8143	164143567	1	main_z	11	advance_on_keypress_ZEE	48	stimuli_distractor_diamondtriangles.svg	stimuli_target_squarediamonds.svg	16	yes	57	0	302
6.6.1	win	2022-12-16	14:18:05	14:25:41	454751	5ccc60abe787e000167f8143	164143567	1	main_z	11	main_z	49	stimuli_target_squarediamonds.svg	stimuli_distractor_trianglediamonds.svg	4	yes	44	1	346
6.6.1	win	2022-12-16	14:18:05	14:25:41	454751	5ccc60abe787e000167f8143	164143567	1	main_z	11	advance_on_keypress_ZEE	50	stimuli_target_squarediamonds.svg	stimuli_distractor_trianglediamonds.svg	4	yes	57	0	309
6.6.1	win	2022-12-16	14:18:05	14:25:43	456192	5ccc60abe787e000167f8143	164143567	1	main_z	11	main_z	51	stimuli_distractor_diamondtriangles.svg	stimuli_target_trianglesquares.svg	30	yes	44	1	522
6.6.1	win	2022-12-16	14:18:05	14:25:43	456192	5ccc60abe787e000167f8143	164143567	1	main_z	11	advance_on_keypress_ZEE	52	stimuli_distractor_diamondtriangles.svg	stimuli_target_trianglesquares.svg	30	yes	57	0	308
6.6.1	win	2022-12-16	14:18:05	14:25:46	459112	5ccc60abe787e000167f8143	164143567	1	main_z	11	main_z	53	stimuli_distractor_diamondtriangles.svg	stimuli_distractor_trianglediamonds.svg	38	no	0	1	2003
6.6.1	win	2022-12-16	14:18:05	14:25:46	459112	5ccc60abe787e000167f8143	164143567	1	main_z	11	advance_on_keypress_ZEE	54	stimuli_distractor_diamondtriangles.svg	stimuli_distractor_trianglediamonds.svg	38	no	57	0	188
6.6.1	win	2022-12-16	14:18:05	14:25:47	460150	5ccc60abe787e000167f8143	164143567	1	main_z	11	main_z	55	stimuli_distractor_trianglediamonds.svg	stimuli_distractor_diamondtriangles.svg	36	no	44	0	242
6.6.1	win	2022-12-16	14:18:05	14:25:47	460150	5ccc60abe787e000167f8143	164143567	1	main_z	11	advance_on_keypress_ZEE	56	stimuli_distractor_trianglediamonds.svg	stimuli_distractor_diamondtriangles.svg	36	no	57	0	342
6.6.1	win	2022-12-16	14:18:05	14:25:48	461470	5ccc60abe787e000167f8143	164143567	1	main_z	11	main_z	57	stimuli_target_diamondcircles.svg	stimuli_distractor_diamondtriangles.svg	23	yes	44	1	370
6.6.1	win	2022-12-16	14:18:05	14:25:48	461470	5ccc60abe787e000167f8143	164143567	1	main_z	11	advance_on_keypress_ZEE	58	stimuli_target_diamondcircles.svg	stimuli_distractor_diamondtriangles.svg	23	yes	57	0	441
6.6.1	win	2022-12-16	14:18:05	14:25:50	463054	5ccc60abe787e000167f8143	164143567	1	main_z	11	main_z	59	stimuli_target_diamondsquares.svg	stimuli_distractor_diamondtriangles.svg	24	yes	44	1	530
6.6.1	win	2022-12-16	14:18:05	14:25:50	463054	5ccc60abe787e000167f8143	164143567	1	main_z	11	advance_on_keypress_ZEE	60	stimuli_target_diamondsquares.svg	stimuli_distractor_diamondtriangles.svg	24	yes	57	0	350
6.6.1	win	2022-12-16	14:18:05	14:25:51	464358	5ccc60abe787e000167f8143	164143567	1	main_z	11	main_z	61	stimuli_distractor_trianglediamonds.svg	stimuli_target_squarediamonds.svg	12	yes	44	1	346
6.6.1	win	2022-12-16	14:18:05	14:25:51	464358	5ccc60abe787e000167f8143	164143567	1	main_z	11	advance_on_keypress_ZEE	62	stimuli_distractor_trianglediamonds.svg	stimuli_target_squarediamonds.svg	12	yes	57	0	326
6.6.1	win	2022-12-16	14:18:05	14:25:52	465878	5ccc60abe787e000167f8143	164143567	1	main_z	11	main_z	63	stimuli_target_trianglesquares.svg	stimuli_distractor_trianglediamonds.svg	18	yes	44	1	586
6.6.1	win	2022-12-16	14:18:05	14:25:52	465878	5ccc60abe787e000167f8143	164143567	1	main_z	11	advance_on_keypress_ZEE	64	stimuli_target_trianglesquares.svg	stimuli_distractor_trianglediamonds.svg	18	yes	57	0	348
6.6.1	win	2022-12-16	14:18:05	14:25:54	467118	5ccc60abe787e000167f8143	164143567	1	main_z	11	main_z	65	stimuli_distractor_diamondtriangles.svg	stimuli_target_diamondcircles.svg	31	yes	44	1	282
6.6.1	win	2022-12-16	14:18:05	14:25:54	467118	5ccc60abe787e000167f8143	164143567	1	main_z	11	advance_on_keypress_ZEE	66	stimuli_distractor_diamondtriangles.svg	stimuli_target_diamondcircles.svg	31	yes	57	0	278
6.6.1	win	2022-12-16	14:18:05	14:25:55	468246	5ccc60abe787e000167f8143	164143567	1	main_z	11	main_z	67	stimuli_distractor_diamondtriangles.svg	stimuli_target_diamondsquares.svg	32	yes	44	1	242
6.6.1	win	2022-12-16	14:18:05	14:25:55	468246	5ccc60abe787e000167f8143	164143567	1	main_z	11	advance_on_keypress_ZEE	68	stimuli_distractor_diamondtriangles.svg	stimuli_target_diamondsquares.svg	32	yes	57	0	380
6.6.1	win	2022-12-16	14:18:05	14:25:56	469582	5ccc60abe787e000167f8143	164143567	1	main_z	11	main_z	69	stimuli_distractor_trianglediamonds.svg	stimuli_target_trianglesquares.svg	26	yes	44	1	339
6.6.1	win	2022-12-16	14:18:05	14:25:56	469582	5ccc60abe787e000167f8143	164143567	1	main_z	11	advance_on_keypress_ZEE	70	stimuli_distractor_trianglediamonds.svg	stimuli_target_trianglesquares.svg	26	yes	57	0	310
6.6.1	win	2022-12-16	14:18:05	14:25:57	470862	5ccc60abe787e000167f8143	164143567	1	main_z	11	main_z	71	stimuli_target_squarediamonds.svg	stimuli_distractor_diamondtriangles.svg	8	yes	44	1	361
6.6.1	win	2022-12-16	14:18:05	14:25:57	470862	5ccc60abe787e000167f8143	164143567	1	main_z	11	advance_on_keypress_ZEE	72	stimuli_target_squarediamonds.svg	stimuli_distractor_diamondtriangles.svg	8	yes	57	0	294
6.6.1	win	2022-12-16	14:18:05	14:25:59	472118	5ccc60abe787e000167f8143	164143567	1	main_z	11	main_z	73	stimuli_target_trianglecircles.svg	stimuli_distractor_diamondtriangles.svg	21	yes	44	1	353
6.6.1	win	2022-12-16	14:18:05	14:25:59	472118	5ccc60abe787e000167f8143	164143567	1	main_z	11	advance_on_keypress_ZEE	74	stimuli_target_trianglecircles.svg	stimuli_distractor_diamondtriangles.svg	21	yes	57	0	246
6.6.1	win	2022-12-16	14:18:05	14:26:00	473302	5ccc60abe787e000167f8143	164143567	1	main_z	11	main_z	75	stimuli_target_trianglecircles.svg	stimuli_distractor_trianglediamonds.svg	17	yes	44	1	330
6.6.1	win	2022-12-16	14:18:05	14:26:00	473302	5ccc60abe787e000167f8143	164143567	1	main_z	11	advance_on_keypress_ZEE	76	stimuli_target_trianglecircles.svg	stimuli_distractor_trianglediamonds.svg	17	yes	57	0	302
6.6.1	win	2022-12-16	14:18:05	14:26:01	474589	5ccc60abe787e000167f8143	164143567	1	main_z	11	main_z	77	stimuli_distractor_diamondtriangles.svg	stimuli_target_circlediamonds.svg	14	yes	44	1	371
6.6.1	win	2022-12-16	14:18:05	14:26:01	474589	5ccc60abe787e000167f8143	164143567	1	main_z	11	advance_on_keypress_ZEE	78	stimuli_distractor_diamondtriangles.svg	stimuli_target_circlediamonds.svg	14	yes	57	0	310
6.6.1	win	2022-12-16	14:18:05	14:26:02	475813	5ccc60abe787e000167f8143	164143567	1	main_z	11	main_z	79	stimuli_distractor_diamondtriangles.svg	stimuli_target_circletriangles.svg	13	yes	44	1	306
6.6.1	win	2022-12-16	14:18:05	14:26:02	475813	5ccc60abe787e000167f8143	164143567	1	main_z	11	advance_on_keypress_ZEE	80	stimuli_distractor_diamondtriangles.svg	stimuli_target_circletriangles.svg	13	yes	57	0	286
6.6.1	win	2022-12-16	14:18:05	14:26:04	477189	5ccc60abe787e000167f8143	164143567	1	main_z	11	main_z	81	stimuli_target_squarediamonds.svg	stimuli_distractor_trianglediamonds.svg	4	yes	44	1	482
6.6.1	win	2022-12-16	14:18:05	14:26:04	477189	5ccc60abe787e000167f8143	164143567	1	main_z	11	advance_on_keypress_ZEE	82	stimuli_target_squarediamonds.svg	stimuli_distractor_trianglediamonds.svg	4	yes	57	0	318
6.6.1	win	2022-12-16	14:18:05	14:26:05	478485	5ccc60abe787e000167f8143	164143567	1	main_z	11	main_z	83	stimuli_distractor_trianglediamonds.svg	stimuli_target_squaretriangles.svg	11	yes	44	1	365
6.6.1	win	2022-12-16	14:18:05	14:26:05	478485	5ccc60abe787e000167f8143	164143567	1	main_z	11	advance_on_keypress_ZEE	84	stimuli_distractor_trianglediamonds.svg	stimuli_target_squaretriangles.svg	11	yes	57	0	270
6.6.1	win	2022-12-16	14:18:05	14:26:06	479605	5ccc60abe787e000167f8143	164143567	1	main_z	11	main_z	85	stimuli_target_squaretriangles.svg	stimuli_distractor_diamondtriangles.svg	7	yes	44	1	242
6.6.1	win	2022-12-16	14:18:05	14:26:06	479605	5ccc60abe787e000167f8143	164143567	1	main_z	11	advance_on_keypress_ZEE	86	stimuli_target_squaretriangles.svg	stimuli_distractor_diamondtriangles.svg	7	yes	57	0	322
6.6.1	win	2022-12-16	14:18:05	14:26:07	480749	5ccc60abe787e000167f8143	164143567	1	main_z	11	main_z	87	stimuli_distractor_diamondtriangles.svg	stimuli_distractor_diamondtriangles.svg	40	no	44	0	210
6.6.1	win	2022-12-16	14:18:05	14:26:07	480749	5ccc60abe787e000167f8143	164143567	1	main_z	11	advance_on_keypress_ZEE	88	stimuli_distractor_diamondtriangles.svg	stimuli_distractor_diamondtriangles.svg	40	no	57	0	562
6.6.1	win	2022-12-16	14:18:05	14:26:09	482525	5ccc60abe787e000167f8143	164143567	1	main_z	11	main_z	89	stimuli_distractor_diamondtriangles.svg	stimuli_distractor_trianglediamonds.svg	38	no	44	0	601
6.6.1	win	2022-12-16	14:18:05	14:26:09	482525	5ccc60abe787e000167f8143	164143567	1	main_z	11	advance_on_keypress_ZEE	90	stimuli_distractor_diamondtriangles.svg	stimuli_distractor_trianglediamonds.svg	38	no	57	0	366
6.6.1	win	2022-12-16	14:18:05	14:26:10	483821	5ccc60abe787e000167f8143	164143567	1	main_z	11	main_z	91	stimuli_target_trianglecircles.svg	stimuli_distractor_trianglediamonds.svg	17	yes	44	1	313
6.6.1	win	2022-12-16	14:18:05	14:26:10	483821	5ccc60abe787e000167f8143	164143567	1	main_z	11	advance_on_keypress_ZEE	92	stimuli_target_trianglecircles.svg	stimuli_distractor_trianglediamonds.svg	17	yes	57	0	334
6.6.1	win	2022-12-16	14:18:05	14:26:12	485164	5ccc60abe787e000167f8143	164143567	1	main_z	11	main_z	93	stimuli_distractor_trianglediamonds.svg	stimuli_target_circletriangles.svg	9	yes	44	1	401
6.6.1	win	2022-12-16	14:18:05	14:26:12	485164	5ccc60abe787e000167f8143	164143567	1	main_z	11	advance_on_keypress_ZEE	94	stimuli_distractor_trianglediamonds.svg	stimuli_target_circletriangles.svg	9	yes	57	0	286
6.6.1	win	2022-12-16	14:18:05	14:26:13	486500	5ccc60abe787e000167f8143	164143567	1	main_z	11	main_z	95	stimuli_distractor_trianglediamonds.svg	stimuli_target_diamondsquares.svg	28	yes	44	1	442
6.6.1	win	2022-12-16	14:18:05	14:26:13	486500	5ccc60abe787e000167f8143	164143567	1	main_z	11	advance_on_keypress_ZEE	96	stimuli_distractor_trianglediamonds.svg	stimuli_target_diamondsquares.svg	28	yes	57	0	230
6.6.1	win	2022-12-16	14:18:05	14:26:14	487756	5ccc60abe787e000167f8143	164143567	1	main_z	11	main_z	97	stimuli_target_trianglecircles.svg	stimuli_distractor_diamondtriangles.svg	21	yes	44	1	418
6.6.1	win	2022-12-16	14:18:05	14:26:14	487756	5ccc60abe787e000167f8143	164143567	1	main_z	11	advance_on_keypress_ZEE	98	stimuli_target_trianglecircles.svg	stimuli_distractor_diamondtriangles.svg	21	yes	57	0	286
6.6.1	win	2022-12-16	14:18:05	14:26:16	489100	5ccc60abe787e000167f8143	164143567	1	main_z	11	main_z	99	stimuli_distractor_diamondtriangles.svg	stimuli_target_trianglecircles.svg	29	yes	44	1	447
6.6.1	win	2022-12-16	14:18:05	14:26:16	489100	5ccc60abe787e000167f8143	164143567	1	main_z	11	advance_on_keypress_ZEE	100	stimuli_distractor_diamondtriangles.svg	stimuli_target_trianglecircles.svg	29	yes	57	0	238
6.6.1	win	2022-12-16	14:18:05	14:26:17	490308	5ccc60abe787e000167f8143	164143567	1	main_z	11	main_z	101	stimuli_target_diamondcircles.svg	stimuli_distractor_diamondtriangles.svg	23	yes	44	1	349
6.6.1	win	2022-12-16	14:18:05	14:26:17	490308	5ccc60abe787e000167f8143	164143567	1	main_z	11	advance_on_keypress_ZEE	102	stimuli_target_diamondcircles.svg	stimuli_distractor_diamondtriangles.svg	23	yes	57	0	323
6.6.1	win	2022-12-16	14:18:05	14:26:18	491620	5ccc60abe787e000167f8143	164143567	1	main_z	11	main_z	103	stimuli_distractor_trianglediamonds.svg	stimuli_distractor_trianglediamonds.svg	34	no	44	0	378
6.6.1	win	2022-12-16	14:18:05	14:26:18	491620	5ccc60abe787e000167f8143	164143567	1	main_z	11	advance_on_keypress_ZEE	104	stimuli_distractor_trianglediamonds.svg	stimuli_distractor_trianglediamonds.svg	34	no	57	0	550
6.6.1	win	2022-12-16	14:18:05	14:26:20	493116	5ccc60abe787e000167f8143	164143567	1	main_z	11	main_z	105	stimuli_target_circletriangles.svg	stimuli_distractor_diamondtriangles.svg	5	yes	44	1	338
6.6.1	win	2022-12-16	14:18:05	14:26:20	493116	5ccc60abe787e000167f8143	164143567	1	main_z	11	advance_on_keypress_ZEE	106	stimuli_target_circletriangles.svg	stimuli_distractor_diamondtriangles.svg	5	yes	57	0	478
6.6.1	win	2022-12-16	14:18:05	14:26:21	494620	5ccc60abe787e000167f8143	164143567	1	main_z	11	main_z	107	stimuli_distractor_trianglediamonds.svg	stimuli_target_circlediamonds.svg	10	yes	44	1	418
6.6.1	win	2022-12-16	14:18:05	14:26:21	494620	5ccc60abe787e000167f8143	164143567	1	main_z	11	advance_on_keypress_ZEE	108	stimuli_distractor_trianglediamonds.svg	stimuli_target_circlediamonds.svg	10	yes	57	0	342
6.6.1	win	2022-12-16	14:18:05	14:26:23	496084	5ccc60abe787e000167f8143	164143567	1	main_z	11	main_z	109	stimuli_distractor_diamondtriangles.svg	stimuli_target_trianglesquares.svg	30	yes	44	1	513
6.6.1	win	2022-12-16	14:18:05	14:26:23	496084	5ccc60abe787e000167f8143	164143567	1	main_z	11	advance_on_keypress_ZEE	110	stimuli_distractor_diamondtriangles.svg	stimuli_target_trianglesquares.svg	30	yes	57	0	253
6.6.1	win	2022-12-16	14:18:05	14:26:24	497404	5ccc60abe787e000167f8143	164143567	1	main_z	11	main_z	111	stimuli_target_squaretriangles.svg	stimuli_distractor_trianglediamonds.svg	3	yes	44	1	454
6.6.1	win	2022-12-16	14:18:05	14:26:24	497404	5ccc60abe787e000167f8143	164143567	1	main_z	11	advance_on_keypress_ZEE	112	stimuli_target_squaretriangles.svg	stimuli_distractor_trianglediamonds.svg	3	yes	57	0	342
6.6.1	win	2022-12-16	14:18:05	14:26:25	498812	5ccc60abe787e000167f8143	164143567	1	main_z	11	main_z	113	stimuli_distractor_diamondtriangles.svg	stimuli_target_circletriangles.svg	13	yes	44	1	457
6.6.1	win	2022-12-16	14:18:05	14:26:25	498812	5ccc60abe787e000167f8143	164143567	1	main_z	11	advance_on_keypress_ZEE	114	stimuli_distractor_diamondtriangles.svg	stimuli_target_circletriangles.svg	13	yes	57	0	374
6.6.1	win	2022-12-16	14:18:05	14:26:27	500067	5ccc60abe787e000167f8143	164143567	1	main_z	11	main_z	115	stimuli_distractor_trianglediamonds.svg	stimuli_target_squarediamonds.svg	12	yes	44	1	273
6.6.1	win	2022-12-16	14:18:05	14:26:27	500067	5ccc60abe787e000167f8143	164143567	1	main_z	11	advance_on_keypress_ZEE	116	stimuli_distractor_trianglediamonds.svg	stimuli_target_squarediamonds.svg	12	yes	57	0	398
6.6.1	win	2022-12-16	14:18:05	14:26:28	501315	5ccc60abe787e000167f8143	164143567	1	main_z	11	main_z	117	stimuli_distractor_trianglediamonds.svg	stimuli_distractor_trianglediamonds.svg	33	no	44	0	242
6.6.1	win	2022-12-16	14:18:05	14:26:28	501315	5ccc60abe787e000167f8143	164143567	1	main_z	11	advance_on_keypress_ZEE	118	stimuli_distractor_trianglediamonds.svg	stimuli_distractor_trianglediamonds.svg	33	no	57	0	646
6.6.1	win	2022-12-16	14:18:05	14:26:29	502963	5ccc60abe787e000167f8143	164143567	1	main_z	11	main_z	119	stimuli_distractor_trianglediamonds.svg	stimuli_target_trianglesquares.svg	26	yes	44	1	394
6.6.1	win	2022-12-16	14:18:05	14:26:29	502963	5ccc60abe787e000167f8143	164143567	1	main_z	11	advance_on_keypress_ZEE	120	stimuli_distractor_trianglediamonds.svg	stimuli_target_trianglesquares.svg	26	yes	57	0	318
6.6.1	win	2022-12-16	14:18:05	14:26:31	504387	5ccc60abe787e000167f8143	164143567	1	main_z	11	main_z	121	stimuli_target_trianglesquares.svg	stimuli_distractor_diamondtriangles.svg	22	yes	44	1	430
6.6.1	win	2022-12-16	14:18:05	14:26:31	504387	5ccc60abe787e000167f8143	164143567	1	main_z	11	advance_on_keypress_ZEE	122	stimuli_target_trianglesquares.svg	stimuli_distractor_diamondtriangles.svg	22	yes	57	0	342
6.6.1	win	2022-12-16	14:18:05	14:26:32	505787	5ccc60abe787e000167f8143	164143567	1	main_z	11	main_z	123	stimuli_distractor_trianglediamonds.svg	stimuli_distractor_diamondtriangles.svg	36	no	44	0	450
6.6.1	win	2022-12-16	14:18:05	14:26:32	505787	5ccc60abe787e000167f8143	164143567	1	main_z	11	advance_on_keypress_ZEE	124	stimuli_distractor_trianglediamonds.svg	stimuli_distractor_diamondtriangles.svg	36	no	57	0	358
6.6.1	win	2022-12-16	14:18:05	14:26:34	507187	5ccc60abe787e000167f8143	164143567	1	main_z	11	main_z	125	stimuli_distractor_trianglediamonds.svg	stimuli_target_diamondcircles.svg	27	yes	44	1	434
6.6.1	win	2022-12-16	14:18:05	14:26:34	507187	5ccc60abe787e000167f8143	164143567	1	main_z	11	advance_on_keypress_ZEE	126	stimuli_distractor_trianglediamonds.svg	stimuli_target_diamondcircles.svg	27	yes	57	0	350
6.6.1	win	2022-12-16	14:18:05	14:26:35	508595	5ccc60abe787e000167f8143	164143567	1	main_z	11	main_z	127	stimuli_distractor_diamondtriangles.svg	stimuli_target_diamondcircles.svg	31	yes	44	1	444
6.6.1	win	2022-12-16	14:18:05	14:26:35	508595	5ccc60abe787e000167f8143	164143567	1	main_z	11	advance_on_keypress_ZEE	128	stimuli_distractor_diamondtriangles.svg	stimuli_target_diamondcircles.svg	31	yes	57	0	238
6.6.1	win	2022-12-16	14:18:05	14:26:36	509964	5ccc60abe787e000167f8143	164143567	1	main_z	11	main_z	129	stimuli_distractor_diamondtriangles.svg	stimuli_target_diamondsquares.svg	32	yes	44	1	522
6.6.1	win	2022-12-16	14:18:05	14:26:36	509964	5ccc60abe787e000167f8143	164143567	1	main_z	11	advance_on_keypress_ZEE	130	stimuli_distractor_diamondtriangles.svg	stimuli_target_diamondsquares.svg	32	yes	57	0	325
6.6.1	win	2022-12-16	14:18:05	14:26:39	512900	5ccc60abe787e000167f8143	164143567	1	main_z	11	main_z	131	stimuli_distractor_diamondtriangles.svg	stimuli_distractor_diamondtriangles.svg	39	no	0	1	2003
6.6.1	win	2022-12-16	14:18:05	14:26:39	512900	5ccc60abe787e000167f8143	164143567	1	main_z	11	advance_on_keypress_ZEE	132	stimuli_distractor_diamondtriangles.svg	stimuli_distractor_diamondtriangles.svg	39	no	57	0	310
6.6.1	win	2022-12-16	14:18:05	14:26:41	514098	5ccc60abe787e000167f8143	164143567	1	main_z	11	main_z	133	stimuli_distractor_trianglediamonds.svg	stimuli_target_trianglecircles.svg	25	yes	44	1	273
6.6.1	win	2022-12-16	14:18:05	14:26:41	514098	5ccc60abe787e000167f8143	164143567	1	main_z	11	advance_on_keypress_ZEE	134	stimuli_distractor_trianglediamonds.svg	stimuli_target_trianglecircles.svg	25	yes	57	0	302
6.6.1	win	2022-12-16	14:18:05	14:26:42	515538	5ccc60abe787e000167f8143	164143567	1	main_z	11	main_z	135	stimuli_target_diamondsquares.svg	stimuli_distractor_diamondtriangles.svg	24	yes	44	1	530
6.6.1	win	2022-12-16	14:18:05	14:26:42	515538	5ccc60abe787e000167f8143	164143567	1	main_z	11	advance_on_keypress_ZEE	136	stimuli_target_diamondsquares.svg	stimuli_distractor_diamondtriangles.svg	24	yes	57	0	346
6.6.1	win	2022-12-16	14:18:05	14:26:45	518506	5ccc60abe787e000167f8143	164143567	1	main_z	11	main_z	137	stimuli_distractor_trianglediamonds.svg	stimuli_distractor_diamondtriangles.svg	35	no	0	1	2003
6.6.1	win	2022-12-16	14:18:05	14:26:45	518506	5ccc60abe787e000167f8143	164143567	1	main_z	11	advance_on_keypress_ZEE	138	stimuli_distractor_trianglediamonds.svg	stimuli_distractor_diamondtriangles.svg	35	no	57	0	211
6.6.1	win	2022-12-16	14:18:05	14:26:46	519618	5ccc60abe787e000167f8143	164143567	1	main_z	11	main_z	139	stimuli_distractor_diamondtriangles.svg	stimuli_distractor_trianglediamonds.svg	37	no	44	0	290
6.6.1	win	2022-12-16	14:18:05	14:26:46	519618	5ccc60abe787e000167f8143	164143567	1	main_z	11	advance_on_keypress_ZEE	140	stimuli_distractor_diamondtriangles.svg	stimuli_distractor_trianglediamonds.svg	37	no	57	0	342
6.6.1	win	2022-12-16	14:18:05	14:26:48	521026	5ccc60abe787e000167f8143	164143567	1	main_z	11	main_z	141	stimuli_target_circlediamonds.svg	stimuli_distractor_trianglediamonds.svg	2	yes	44	1	458
6.6.1	win	2022-12-16	14:18:05	14:26:48	521026	5ccc60abe787e000167f8143	164143567	1	main_z	11	advance_on_keypress_ZEE	142	stimuli_target_circlediamonds.svg	stimuli_distractor_trianglediamonds.svg	2	yes	57	0	334
6.6.1	win	2022-12-16	14:18:05	14:26:49	522538	5ccc60abe787e000167f8143	164143567	1	main_z	11	main_z	143	stimuli_target_circletriangles.svg	stimuli_distractor_trianglediamonds.svg	1	yes	44	1	569
6.6.1	win	2022-12-16	14:18:05	14:26:49	522538	5ccc60abe787e000167f8143	164143567	1	main_z	11	advance_on_keypress_ZEE	144	stimuli_target_circletriangles.svg	stimuli_distractor_trianglediamonds.svg	1	yes	57	0	326
6.6.1	win	2022-12-16	14:18:05	14:26:51	524082	5ccc60abe787e000167f8143	164143567	1	main_z	11	main_z	145	stimuli_distractor_diamondtriangles.svg	stimuli_target_circlediamonds.svg	14	yes	44	1	537
6.6.1	win	2022-12-16	14:18:05	14:26:51	524082	5ccc60abe787e000167f8143	164143567	1	main_z	11	advance_on_keypress_ZEE	146	stimuli_distractor_diamondtriangles.svg	stimuli_target_circlediamonds.svg	14	yes	57	0	430
6.6.1	win	2022-12-16	14:18:05	14:26:52	525634	5ccc60abe787e000167f8143	164143567	1	main_z	11	main_z	147	stimuli_distractor_diamondtriangles.svg	stimuli_target_squaretriangles.svg	15	yes	44	1	512
6.6.1	win	2022-12-16	14:18:05	14:26:52	525634	5ccc60abe787e000167f8143	164143567	1	main_z	11	advance_on_keypress_ZEE	148	stimuli_distractor_diamondtriangles.svg	stimuli_target_squaretriangles.svg	15	yes	57	0	262
6.6.1	win	2022-12-16	14:18:05	14:26:53	526962	5ccc60abe787e000167f8143	164143567	1	main_z	11	main_z	149	stimuli_target_squarediamonds.svg	stimuli_distractor_diamondtriangles.svg	8	yes	44	1	457
6.6.1	win	2022-12-16	14:18:05	14:26:53	526962	5ccc60abe787e000167f8143	164143567	1	main_z	11	advance_on_keypress_ZEE	150	stimuli_target_squarediamonds.svg	stimuli_distractor_diamondtriangles.svg	8	yes	57	0	310
6.6.1	win	2022-12-16	14:18:05	14:26:55	528457	5ccc60abe787e000167f8143	164143567	1	main_z	11	main_z	151	stimuli_target_diamondsquares.svg	stimuli_distractor_trianglediamonds.svg	20	yes	44	1	573
6.6.1	win	2022-12-16	14:18:05	14:26:55	528457	5ccc60abe787e000167f8143	164143567	1	main_z	11	advance_on_keypress_ZEE	152	stimuli_target_diamondsquares.svg	stimuli_distractor_trianglediamonds.svg	20	yes	57	0	326
6.6.1	win	2022-12-16	14:18:05	14:26:56	529857	5ccc60abe787e000167f8143	164143567	1	main_z	11	main_z	153	stimuli_target_diamondcircles.svg	stimuli_distractor_trianglediamonds.svg	19	yes	44	1	466
6.6.1	win	2022-12-16	14:18:05	14:26:56	529857	5ccc60abe787e000167f8143	164143567	1	main_z	11	advance_on_keypress_ZEE	154	stimuli_target_diamondcircles.svg	stimuli_distractor_trianglediamonds.svg	19	yes	57	0	366
6.6.1	win	2022-12-16	14:18:05	14:26:58	531393	5ccc60abe787e000167f8143	164143567	1	main_z	11	main_z	155	stimuli_target_trianglesquares.svg	stimuli_distractor_trianglediamonds.svg	18	yes	44	1	562
6.6.1	win	2022-12-16	14:18:05	14:26:58	531393	5ccc60abe787e000167f8143	164143567	1	main_z	11	advance_on_keypress_ZEE	156	stimuli_target_trianglesquares.svg	stimuli_distractor_trianglediamonds.svg	18	yes	57	0	262
6.6.1	win	2022-12-16	14:18:05	14:26:59	532665	5ccc60abe787e000167f8143	164143567	1	main_z	11	main_z	157	stimuli_target_circlediamonds.svg	stimuli_distractor_diamondtriangles.svg	6	yes	44	1	402
6.6.1	win	2022-12-16	14:18:05	14:26:59	532665	5ccc60abe787e000167f8143	164143567	1	main_z	11	advance_on_keypress_ZEE	158	stimuli_target_circlediamonds.svg	stimuli_distractor_diamondtriangles.svg	6	yes	57	0	294
6.6.1	win	2022-12-16	14:18:05	14:27:00	533953	5ccc60abe787e000167f8143	164143567	1	main_z	11	main_z	159	stimuli_distractor_diamondtriangles.svg	stimuli_target_squarediamonds.svg	16	yes	44	1	386
6.6.1	win	2022-12-16	14:18:05	14:27:00	533953	5ccc60abe787e000167f8143	164143567	1	main_z	11	advance_on_keypress_ZEE	160	stimuli_distractor_diamondtriangles.svg	stimuli_target_squarediamonds.svg	16	yes	57	0	270