build	computer.platform	date	time	timestamp	time_elapsed_ms	subject	group	session	blockcode	blocknum	trialcode	trialnum	stimulus_left	stimulus_right	stim_index	target_present	response	correct	latency
6.6.1	mac	2022-12-19	22:19:38	22:21:51	130740	5f2280c4a4474574b3704136	641237765	1	practice_slash	5	practice_slash	1	stimuli_target_circlediamonds.svg	stimuli_distractor_diamondtriangles.svg	1	yes	53	1	1217
6.6.1	mac	2022-12-19	22:19:38	22:21:51	130740	5f2280c4a4474574b3704136	641237765	1	practice_slash	5	advance_on_keypress_SLASH	2	stimuli_target_circlediamonds.svg	stimuli_distractor_diamondtriangles.svg	1	yes	57	0	2014
6.6.1	mac	2022-12-19	22:19:38	22:21:56	136404	5f2280c4a4474574b3704136	641237765	1	practice_slash	5	practice_slash	3	stimuli_distractor_trianglediamonds.svg	stimuli_distractor_diamondtriangles.svg	16	no	0	1	2000
6.6.1	mac	2022-12-19	22:19:38	22:21:56	136404	5f2280c4a4474574b3704136	641237765	1	practice_slash	5	advance_on_keypress_SLASH	4	stimuli_distractor_trianglediamonds.svg	stimuli_distractor_diamondtriangles.svg	16	no	57	0	875
6.6.1	mac	2022-12-19	22:19:38	22:21:59	139569	5f2280c4a4474574b3704136	641237765	1	practice_slash	5	practice_slash	5	stimuli_distractor_trianglediamonds.svg	stimuli_target_circlediamonds.svg	10	yes	53	1	652
6.6.1	mac	2022-12-19	22:19:38	22:21:59	139569	5f2280c4a4474574b3704136	641237765	1	practice_slash	5	advance_on_keypress_SLASH	6	stimuli_distractor_trianglediamonds.svg	stimuli_target_circlediamonds.svg	10	yes	57	0	1675
6.6.1	mac	2022-12-19	22:19:38	22:22:05	144881	5f2280c4a4474574b3704136	641237765	1	practice_slash	5	practice_slash	7	stimuli_target_diamondsquares.svg	stimuli_distractor_diamondtriangles.svg	3	yes	0	0	2000
6.6.1	mac	2022-12-19	22:19:38	22:22:05	144881	5f2280c4a4474574b3704136	641237765	1	practice_slash	5	advance_on_keypress_SLASH	8	stimuli_target_diamondsquares.svg	stimuli_distractor_diamondtriangles.svg	3	yes	57	0	1207
6.6.1	mac	2022-12-19	22:19:38	22:22:10	149738	5f2280c4a4474574b3704136	641237765	1	practice_slash	5	practice_slash	9	stimuli_distractor_diamondtriangles.svg	stimuli_distractor_trianglediamonds.svg	14	no	0	1	2000
6.6.1	mac	2022-12-19	22:19:38	22:22:10	149738	5f2280c4a4474574b3704136	641237765	1	practice_slash	5	advance_on_keypress_SLASH	10	stimuli_distractor_diamondtriangles.svg	stimuli_distractor_trianglediamonds.svg	14	no	57	0	735
6.6.1	mac	2022-12-19	22:19:38	22:22:14	154110	5f2280c4a4474574b3704136	641237765	1	practice_slash	5	practice_slash	11	stimuli_distractor_diamondtriangles.svg	stimuli_distractor_diamondtriangles.svg	13	no	0	1	2000
6.6.1	mac	2022-12-19	22:19:38	22:22:14	154110	5f2280c4a4474574b3704136	641237765	1	practice_slash	5	advance_on_keypress_SLASH	12	stimuli_distractor_diamondtriangles.svg	stimuli_distractor_diamondtriangles.svg	13	no	57	0	450
6.6.1	mac	2022-12-19	22:19:38	22:22:17	157185	5f2280c4a4474574b3704136	641237765	1	practice_slash	5	practice_slash	13	stimuli_distractor_trianglediamonds.svg	stimuli_target_diamondcircles.svg	12	yes	53	1	985
6.6.1	mac	2022-12-19	22:19:38	22:22:17	157185	5f2280c4a4474574b3704136	641237765	1	practice_slash	5	advance_on_keypress_SLASH	14	stimuli_distractor_trianglediamonds.svg	stimuli_target_diamondcircles.svg	12	yes	57	0	614
6.6.1	mac	2022-12-19	22:19:38	22:22:21	161421	5f2280c4a4474574b3704136	641237765	1	practice_slash	5	practice_slash	15	stimuli_target_diamondsquares.svg	stimuli_distractor_trianglediamonds.svg	6	yes	0	0	2000
6.6.1	mac	2022-12-19	22:19:38	22:22:21	161421	5f2280c4a4474574b3704136	641237765	1	practice_slash	5	advance_on_keypress_SLASH	16	stimuli_target_diamondsquares.svg	stimuli_distractor_trianglediamonds.svg	6	yes	57	0	1087
6.6.1	mac	2022-12-19	22:19:38	22:22:25	165084	5f2280c4a4474574b3704136	641237765	1	practice_slash	5	practice_slash	17	stimuli_target_circlediamonds.svg	stimuli_distractor_trianglediamonds.svg	4	yes	53	1	934
6.6.1	mac	2022-12-19	22:19:38	22:22:25	165084	5f2280c4a4474574b3704136	641237765	1	practice_slash	5	advance_on_keypress_SLASH	18	stimuli_target_circlediamonds.svg	stimuli_distractor_trianglediamonds.svg	4	yes	57	0	3140
6.6.1	mac	2022-12-19	22:19:38	22:22:31	170873	5f2280c4a4474574b3704136	641237765	1	practice_slash	5	practice_slash	19	stimuli_distractor_trianglediamonds.svg	stimuli_target_squarediamonds.svg	11	yes	53	1	1013
6.6.1	mac	2022-12-19	22:19:38	22:22:31	170873	5f2280c4a4474574b3704136	641237765	1	practice_slash	5	advance_on_keypress_SLASH	20	stimuli_distractor_trianglediamonds.svg	stimuli_target_squarediamonds.svg	11	yes	57	0	701
6.6.1	mac	2022-12-19	22:19:38	22:22:34	173837	5f2280c4a4474574b3704136	641237765	1	practice_slash	5	practice_slash	21	stimuli_target_squarediamonds.svg	stimuli_distractor_diamondtriangles.svg	2	yes	53	1	623
6.6.1	mac	2022-12-19	22:19:38	22:22:34	173837	5f2280c4a4474574b3704136	641237765	1	practice_slash	5	advance_on_keypress_SLASH	22	stimuli_target_squarediamonds.svg	stimuli_distractor_diamondtriangles.svg	2	yes	57	0	507
6.6.1	mac	2022-12-19	22:19:38	22:22:36	176594	5f2280c4a4474574b3704136	641237765	1	practice_slash	5	practice_slash	23	stimuli_distractor_diamondtriangles.svg	stimuli_target_circletriangles.svg	7	yes	53	1	616
6.6.1	mac	2022-12-19	22:19:38	22:22:36	176594	5f2280c4a4474574b3704136	641237765	1	practice_slash	5	advance_on_keypress_SLASH	24	stimuli_distractor_diamondtriangles.svg	stimuli_target_circletriangles.svg	7	yes	57	0	434
6.6.1	mac	2022-12-19	22:19:38	22:22:39	179201	5f2280c4a4474574b3704136	641237765	1	practice_slash	5	practice_slash	25	stimuli_distractor_diamondtriangles.svg	stimuli_target_diamondcircles.svg	8	yes	53	1	532
6.6.1	mac	2022-12-19	22:19:38	22:22:39	179201	5f2280c4a4474574b3704136	641237765	1	practice_slash	5	advance_on_keypress_SLASH	26	stimuli_distractor_diamondtriangles.svg	stimuli_target_diamondcircles.svg	8	yes	57	0	451
6.6.1	mac	2022-12-19	22:19:38	22:22:42	181843	5f2280c4a4474574b3704136	641237765	1	practice_slash	5	practice_slash	27	stimuli_target_squarediamonds.svg	stimuli_distractor_trianglediamonds.svg	5	yes	53	1	550
6.6.1	mac	2022-12-19	22:19:38	22:22:42	181843	5f2280c4a4474574b3704136	641237765	1	practice_slash	5	advance_on_keypress_SLASH	28	stimuli_target_squarediamonds.svg	stimuli_distractor_trianglediamonds.svg	5	yes	57	0	609
6.6.1	mac	2022-12-19	22:19:38	22:22:45	184892	5f2280c4a4474574b3704136	641237765	1	practice_slash	5	practice_slash	29	stimuli_distractor_diamondtriangles.svg	stimuli_target_trianglecircles.svg	9	yes	53	1	806
6.6.1	mac	2022-12-19	22:19:38	22:22:45	184892	5f2280c4a4474574b3704136	641237765	1	practice_slash	5	advance_on_keypress_SLASH	30	stimuli_distractor_diamondtriangles.svg	stimuli_target_trianglecircles.svg	9	yes	57	0	330
6.6.1	mac	2022-12-19	22:19:38	22:22:49	188862	5f2280c4a4474574b3704136	641237765	1	practice_slash	5	practice_slash	31	stimuli_distractor_trianglediamonds.svg	stimuli_distractor_trianglediamonds.svg	15	no	0	1	2000
6.6.1	mac	2022-12-19	22:19:38	22:22:49	188862	5f2280c4a4474574b3704136	641237765	1	practice_slash	5	advance_on_keypress_SLASH	32	stimuli_distractor_trianglediamonds.svg	stimuli_distractor_trianglediamonds.svg	15	no	57	0	524
6.6.1	mac	2022-12-19	22:19:38	22:22:59	199064	5f2280c4a4474574b3704136	641237765	1	main_slash	7	main_slash	1	stimuli_target_squaretriangles.svg	stimuli_distractor_trianglediamonds.svg	3	yes	53	1	640
6.6.1	mac	2022-12-19	22:19:38	22:22:59	199064	5f2280c4a4474574b3704136	641237765	1	main_slash	7	advance_on_keypress_SLASH	2	stimuli_target_squaretriangles.svg	stimuli_distractor_trianglediamonds.svg	3	yes	57	0	1197
6.6.1	mac	2022-12-19	22:19:38	22:23:01	201337	5f2280c4a4474574b3704136	641237765	1	main_slash	7	main_slash	3	stimuli_target_circlediamonds.svg	stimuli_distractor_diamondtriangles.svg	6	yes	53	1	433
6.6.1	mac	2022-12-19	22:19:38	22:23:01	201337	5f2280c4a4474574b3704136	641237765	1	main_slash	7	advance_on_keypress_SLASH	4	stimuli_target_circlediamonds.svg	stimuli_distractor_diamondtriangles.svg	6	yes	57	0	613
6.6.1	mac	2022-12-19	22:19:38	22:23:03	202913	5f2280c4a4474574b3704136	641237765	1	main_slash	7	main_slash	5	stimuli_target_squarediamonds.svg	stimuli_distractor_trianglediamonds.svg	4	yes	53	1	342
6.6.1	mac	2022-12-19	22:19:38	22:23:03	202913	5f2280c4a4474574b3704136	641237765	1	main_slash	7	advance_on_keypress_SLASH	6	stimuli_target_squarediamonds.svg	stimuli_distractor_trianglediamonds.svg	4	yes	57	0	396
6.6.1	mac	2022-12-19	22:19:38	22:23:04	204400	5f2280c4a4474574b3704136	641237765	1	main_slash	7	main_slash	7	stimuli_target_trianglecircles.svg	stimuli_distractor_trianglediamonds.svg	17	yes	53	1	453
6.6.1	mac	2022-12-19	22:19:38	22:23:04	204400	5f2280c4a4474574b3704136	641237765	1	main_slash	7	advance_on_keypress_SLASH	8	stimuli_target_trianglecircles.svg	stimuli_distractor_trianglediamonds.svg	17	yes	57	0	401
6.6.1	mac	2022-12-19	22:19:38	22:23:07	207433	5f2280c4a4474574b3704136	641237765	1	main_slash	7	main_slash	9	stimuli_distractor_diamondtriangles.svg	stimuli_distractor_trianglediamonds.svg	38	no	0	1	2000
6.6.1	mac	2022-12-19	22:19:38	22:23:07	207433	5f2280c4a4474574b3704136	641237765	1	main_slash	7	advance_on_keypress_SLASH	10	stimuli_distractor_diamondtriangles.svg	stimuli_distractor_trianglediamonds.svg	38	no	57	0	675
6.6.1	mac	2022-12-19	22:19:38	22:23:11	210736	5f2280c4a4474574b3704136	641237765	1	main_slash	7	main_slash	11	stimuli_distractor_diamondtriangles.svg	stimuli_distractor_trianglediamonds.svg	37	no	0	1	2000
6.6.1	mac	2022-12-19	22:19:38	22:23:11	210736	5f2280c4a4474574b3704136	641237765	1	main_slash	7	advance_on_keypress_SLASH	12	stimuli_distractor_diamondtriangles.svg	stimuli_distractor_trianglediamonds.svg	37	no	57	0	593
6.6.1	mac	2022-12-19	22:19:38	22:23:13	212984	5f2280c4a4474574b3704136	641237765	1	main_slash	7	main_slash	13	stimuli_target_trianglesquares.svg	stimuli_distractor_diamondtriangles.svg	22	yes	53	1	1020
6.6.1	mac	2022-12-19	22:19:38	22:23:13	212984	5f2280c4a4474574b3704136	641237765	1	main_slash	7	advance_on_keypress_SLASH	14	stimuli_target_trianglesquares.svg	stimuli_distractor_diamondtriangles.svg	22	yes	57	0	891
6.6.1	mac	2022-12-19	22:19:38	22:23:15	214867	5f2280c4a4474574b3704136	641237765	1	main_slash	7	main_slash	15	stimuli_distractor_trianglediamonds.svg	stimuli_target_squaretriangles.svg	11	yes	53	1	349
6.6.1	mac	2022-12-19	22:19:38	22:23:15	214867	5f2280c4a4474574b3704136	641237765	1	main_slash	7	advance_on_keypress_SLASH	16	stimuli_distractor_trianglediamonds.svg	stimuli_target_squaretriangles.svg	11	yes	57	0	410
6.6.1	mac	2022-12-19	22:19:38	22:23:16	216597	5f2280c4a4474574b3704136	641237765	1	main_slash	7	main_slash	17	stimuli_distractor_trianglediamonds.svg	stimuli_distractor_diamondtriangles.svg	36	no	53	0	691
6.6.1	mac	2022-12-19	22:19:38	22:23:16	216597	5f2280c4a4474574b3704136	641237765	1	main_slash	7	advance_on_keypress_SLASH	18	stimuli_distractor_trianglediamonds.svg	stimuli_distractor_diamondtriangles.svg	36	no	57	0	441
6.6.1	mac	2022-12-19	22:19:38	22:23:18	218120	5f2280c4a4474574b3704136	641237765	1	main_slash	7	main_slash	19	stimuli_target_trianglesquares.svg	stimuli_distractor_trianglediamonds.svg	18	yes	53	1	450
6.6.1	mac	2022-12-19	22:19:38	22:23:18	218120	5f2280c4a4474574b3704136	641237765	1	main_slash	7	advance_on_keypress_SLASH	20	stimuli_target_trianglesquares.svg	stimuli_distractor_trianglediamonds.svg	18	yes	57	0	423
6.6.1	mac	2022-12-19	22:19:38	22:23:20	219704	5f2280c4a4474574b3704136	641237765	1	main_slash	7	main_slash	21	stimuli_distractor_trianglediamonds.svg	stimuli_target_circlediamonds.svg	10	yes	53	1	515
6.6.1	mac	2022-12-19	22:19:38	22:23:20	219704	5f2280c4a4474574b3704136	641237765	1	main_slash	7	advance_on_keypress_SLASH	22	stimuli_distractor_trianglediamonds.svg	stimuli_target_circlediamonds.svg	10	yes	57	0	353
6.6.1	mac	2022-12-19	22:19:38	22:23:21	221161	5f2280c4a4474574b3704136	641237765	1	main_slash	7	main_slash	23	stimuli_target_squarediamonds.svg	stimuli_distractor_diamondtriangles.svg	8	yes	53	1	481
6.6.1	mac	2022-12-19	22:19:38	22:23:21	221161	5f2280c4a4474574b3704136	641237765	1	main_slash	7	advance_on_keypress_SLASH	24	stimuli_target_squarediamonds.svg	stimuli_distractor_diamondtriangles.svg	8	yes	57	0	387
6.6.1	mac	2022-12-19	22:19:38	22:23:23	222629	5f2280c4a4474574b3704136	641237765	1	main_slash	7	main_slash	25	stimuli_target_trianglecircles.svg	stimuli_distractor_diamondtriangles.svg	21	yes	53	1	454
6.6.1	mac	2022-12-19	22:19:38	22:23:23	222629	5f2280c4a4474574b3704136	641237765	1	main_slash	7	advance_on_keypress_SLASH	26	stimuli_target_trianglecircles.svg	stimuli_distractor_diamondtriangles.svg	21	yes	57	0	356
6.6.1	mac	2022-12-19	22:19:38	22:23:26	225623	5f2280c4a4474574b3704136	641237765	1	main_slash	7	main_slash	27	stimuli_distractor_trianglediamonds.svg	stimuli_distractor_trianglediamonds.svg	33	no	0	1	2000
6.6.1	mac	2022-12-19	22:19:38	22:23:26	225623	5f2280c4a4474574b3704136	641237765	1	main_slash	7	advance_on_keypress_SLASH	28	stimuli_distractor_trianglediamonds.svg	stimuli_distractor_trianglediamonds.svg	33	no	57	0	440
6.6.1	mac	2022-12-19	22:19:38	22:23:27	227067	5f2280c4a4474574b3704136	641237765	1	main_slash	7	main_slash	29	stimuli_target_circletriangles.svg	stimuli_distractor_diamondtriangles.svg	5	yes	53	1	363
6.6.1	mac	2022-12-19	22:19:38	22:23:27	227067	5f2280c4a4474574b3704136	641237765	1	main_slash	7	advance_on_keypress_SLASH	30	stimuli_target_circletriangles.svg	stimuli_distractor_diamondtriangles.svg	5	yes	57	0	449
6.6.1	mac	2022-12-19	22:19:38	22:23:30	230141	5f2280c4a4474574b3704136	641237765	1	main_slash	7	main_slash	31	stimuli_distractor_diamondtriangles.svg	stimuli_distractor_diamondtriangles.svg	40	no	0	1	2000
6.6.1	mac	2022-12-19	22:19:38	22:23:30	230141	5f2280c4a4474574b3704136	641237765	1	main_slash	7	advance_on_keypress_SLASH	32	stimuli_distractor_diamondtriangles.svg	stimuli_distractor_diamondtriangles.svg	40	no	57	0	582
6.6.1	mac	2022-12-19	22:19:38	22:23:32	231863	5f2280c4a4474574b3704136	641237765	1	main_slash	7	main_slash	33	stimuli_distractor_diamondtriangles.svg	stimuli_target_circlediamonds.svg	14	yes	53	1	507
6.6.1	mac	2022-12-19	22:19:38	22:23:32	231863	5f2280c4a4474574b3704136	641237765	1	main_slash	7	advance_on_keypress_SLASH	34	stimuli_distractor_diamondtriangles.svg	stimuli_target_circlediamonds.svg	14	yes	57	0	531
6.6.1	mac	2022-12-19	22:19:38	22:23:33	233399	5f2280c4a4474574b3704136	641237765	1	main_slash	7	main_slash	35	stimuli_distractor_diamondtriangles.svg	stimuli_target_circletriangles.svg	13	yes	53	1	374
6.6.1	mac	2022-12-19	22:19:38	22:23:33	233399	5f2280c4a4474574b3704136	641237765	1	main_slash	7	advance_on_keypress_SLASH	36	stimuli_distractor_diamondtriangles.svg	stimuli_target_circletriangles.svg	13	yes	57	0	409
6.6.1	mac	2022-12-19	22:19:38	22:23:35	235016	5f2280c4a4474574b3704136	641237765	1	main_slash	7	main_slash	37	stimuli_distractor_trianglediamonds.svg	stimuli_target_diamondcircles.svg	27	yes	53	1	571
6.6.1	mac	2022-12-19	22:19:38	22:23:35	235016	5f2280c4a4474574b3704136	641237765	1	main_slash	7	advance_on_keypress_SLASH	38	stimuli_distractor_trianglediamonds.svg	stimuli_target_diamondcircles.svg	27	yes	57	0	420
6.6.1	mac	2022-12-19	22:19:38	22:23:36	236511	5f2280c4a4474574b3704136	641237765	1	main_slash	7	main_slash	39	stimuli_target_diamondcircles.svg	stimuli_distractor_diamondtriangles.svg	23	yes	53	1	451
6.6.1	mac	2022-12-19	22:19:38	22:23:36	236511	5f2280c4a4474574b3704136	641237765	1	main_slash	7	advance_on_keypress_SLASH	40	stimuli_target_diamondcircles.svg	stimuli_distractor_diamondtriangles.svg	23	yes	57	0	375
6.6.1	mac	2022-12-19	22:19:38	22:23:38	237994	5f2280c4a4474574b3704136	641237765	1	main_slash	7	main_slash	41	stimuli_distractor_diamondtriangles.svg	stimuli_target_squarediamonds.svg	16	yes	53	1	476
6.6.1	mac	2022-12-19	22:19:38	22:23:38	237994	5f2280c4a4474574b3704136	641237765	1	main_slash	7	advance_on_keypress_SLASH	42	stimuli_distractor_diamondtriangles.svg	stimuli_target_squarediamonds.svg	16	yes	57	0	419
6.6.1	mac	2022-12-19	22:19:38	22:23:39	239461	5f2280c4a4474574b3704136	641237765	1	main_slash	7	main_slash	43	stimuli_distractor_diamondtriangles.svg	stimuli_target_trianglecircles.svg	29	yes	53	1	422
6.6.1	mac	2022-12-19	22:19:38	22:23:39	239461	5f2280c4a4474574b3704136	641237765	1	main_slash	7	advance_on_keypress_SLASH	44	stimuli_distractor_diamondtriangles.svg	stimuli_target_trianglecircles.svg	29	yes	57	0	413
6.6.1	mac	2022-12-19	22:19:38	22:23:41	241435	5f2280c4a4474574b3704136	641237765	1	main_slash	7	main_slash	45	stimuli_target_diamondsquares.svg	stimuli_distractor_diamondtriangles.svg	24	yes	53	1	929
6.6.1	mac	2022-12-19	22:19:38	22:23:41	241435	5f2280c4a4474574b3704136	641237765	1	main_slash	7	advance_on_keypress_SLASH	46	stimuli_target_diamondsquares.svg	stimuli_distractor_diamondtriangles.svg	24	yes	57	0	374
6.6.1	mac	2022-12-19	22:19:38	22:23:43	242907	5f2280c4a4474574b3704136	641237765	1	main_slash	7	main_slash	47	stimuli_target_diamondcircles.svg	stimuli_distractor_trianglediamonds.svg	19	yes	53	1	466
6.6.1	mac	2022-12-19	22:19:38	22:23:43	242907	5f2280c4a4474574b3704136	641237765	1	main_slash	7	advance_on_keypress_SLASH	48	stimuli_target_diamondcircles.svg	stimuli_distractor_trianglediamonds.svg	19	yes	57	0	465
6.6.1	mac	2022-12-19	22:19:38	22:23:46	246003	5f2280c4a4474574b3704136	641237765	1	main_slash	7	main_slash	49	stimuli_distractor_trianglediamonds.svg	stimuli_distractor_diamondtriangles.svg	35	no	0	1	2000
6.6.1	mac	2022-12-19	22:19:38	22:23:46	246003	5f2280c4a4474574b3704136	641237765	1	main_slash	7	advance_on_keypress_SLASH	50	stimuli_distractor_trianglediamonds.svg	stimuli_distractor_diamondtriangles.svg	35	no	57	0	461
6.6.1	mac	2022-12-19	22:19:38	22:23:49	249094	5f2280c4a4474574b3704136	641237765	1	main_slash	7	main_slash	51	stimuli_distractor_diamondtriangles.svg	stimuli_distractor_diamondtriangles.svg	39	no	0	1	2000
6.6.1	mac	2022-12-19	22:19:38	22:23:49	249094	5f2280c4a4474574b3704136	641237765	1	main_slash	7	advance_on_keypress_SLASH	52	stimuli_distractor_diamondtriangles.svg	stimuli_distractor_diamondtriangles.svg	39	no	57	0	437
6.6.1	mac	2022-12-19	22:19:38	22:23:51	250804	5f2280c4a4474574b3704136	641237765	1	main_slash	7	main_slash	53	stimuli_distractor_diamondtriangles.svg	stimuli_target_squaretriangles.svg	15	yes	53	1	635
6.6.1	mac	2022-12-19	22:19:38	22:23:51	250804	5f2280c4a4474574b3704136	641237765	1	main_slash	7	advance_on_keypress_SLASH	54	stimuli_distractor_diamondtriangles.svg	stimuli_target_squaretriangles.svg	15	yes	57	0	589
6.6.1	mac	2022-12-19	22:19:38	22:23:52	252542	5f2280c4a4474574b3704136	641237765	1	main_slash	7	main_slash	55	stimuli_distractor_trianglediamonds.svg	stimuli_target_squarediamonds.svg	12	yes	53	1	514
6.6.1	mac	2022-12-19	22:19:38	22:23:52	252542	5f2280c4a4474574b3704136	641237765	1	main_slash	7	advance_on_keypress_SLASH	56	stimuli_distractor_trianglediamonds.svg	stimuli_target_squarediamonds.svg	12	yes	57	0	443
6.6.1	mac	2022-12-19	22:19:38	22:23:54	254565	5f2280c4a4474574b3704136	641237765	1	main_slash	7	main_slash	57	stimuli_distractor_trianglediamonds.svg	stimuli_target_diamondsquares.svg	28	yes	53	1	935
6.6.1	mac	2022-12-19	22:19:38	22:23:54	254565	5f2280c4a4474574b3704136	641237765	1	main_slash	7	advance_on_keypress_SLASH	58	stimuli_distractor_trianglediamonds.svg	stimuli_target_diamondsquares.svg	28	yes	57	0	418
6.6.1	mac	2022-12-19	22:19:38	22:23:56	256085	5f2280c4a4474574b3704136	641237765	1	main_slash	7	main_slash	59	stimuli_distractor_diamondtriangles.svg	stimuli_target_trianglesquares.svg	30	yes	53	1	473
6.6.1	mac	2022-12-19	22:19:38	22:23:56	256085	5f2280c4a4474574b3704136	641237765	1	main_slash	7	advance_on_keypress_SLASH	60	stimuli_distractor_diamondtriangles.svg	stimuli_target_trianglesquares.svg	30	yes	57	0	489
6.6.1	mac	2022-12-19	22:19:38	22:23:58	257876	5f2280c4a4474574b3704136	641237765	1	main_slash	7	main_slash	61	stimuli_distractor_trianglediamonds.svg	stimuli_target_trianglesquares.svg	26	yes	53	1	681
6.6.1	mac	2022-12-19	22:19:38	22:23:58	257876	5f2280c4a4474574b3704136	641237765	1	main_slash	7	advance_on_keypress_SLASH	62	stimuli_distractor_trianglediamonds.svg	stimuli_target_trianglesquares.svg	26	yes	57	0	568
6.6.1	mac	2022-12-19	22:19:38	22:23:59	259582	5f2280c4a4474574b3704136	641237765	1	main_slash	7	main_slash	63	stimuli_target_squaretriangles.svg	stimuli_distractor_diamondtriangles.svg	7	yes	53	1	496
6.6.1	mac	2022-12-19	22:19:38	22:23:59	259582	5f2280c4a4474574b3704136	641237765	1	main_slash	7	advance_on_keypress_SLASH	64	stimuli_target_squaretriangles.svg	stimuli_distractor_diamondtriangles.svg	7	yes	57	0	348
6.6.1	mac	2022-12-19	22:19:38	22:24:01	261116	5f2280c4a4474574b3704136	641237765	1	main_slash	7	main_slash	65	stimuli_distractor_diamondtriangles.svg	stimuli_target_diamondcircles.svg	31	yes	53	1	544
6.6.1	mac	2022-12-19	22:19:38	22:24:01	261116	5f2280c4a4474574b3704136	641237765	1	main_slash	7	advance_on_keypress_SLASH	66	stimuli_distractor_diamondtriangles.svg	stimuli_target_diamondcircles.svg	31	yes	57	0	320
6.6.1	mac	2022-12-19	22:19:38	22:24:04	264055	5f2280c4a4474574b3704136	641237765	1	main_slash	7	main_slash	67	stimuli_distractor_trianglediamonds.svg	stimuli_distractor_trianglediamonds.svg	34	no	0	1	2000
6.6.1	mac	2022-12-19	22:19:38	22:24:04	264055	5f2280c4a4474574b3704136	641237765	1	main_slash	7	advance_on_keypress_SLASH	68	stimuli_distractor_trianglediamonds.svg	stimuli_distractor_trianglediamonds.svg	34	no	57	0	386
6.6.1	mac	2022-12-19	22:19:38	22:24:05	265594	5f2280c4a4474574b3704136	641237765	1	main_slash	7	main_slash	69	stimuli_distractor_diamondtriangles.svg	stimuli_target_diamondsquares.svg	32	yes	53	1	529
6.6.1	mac	2022-12-19	22:19:38	22:24:05	265594	5f2280c4a4474574b3704136	641237765	1	main_slash	7	advance_on_keypress_SLASH	70	stimuli_distractor_diamondtriangles.svg	stimuli_target_diamondsquares.svg	32	yes	57	0	353
6.6.1	mac	2022-12-19	22:19:38	22:24:07	266942	5f2280c4a4474574b3704136	641237765	1	main_slash	7	main_slash	71	stimuli_distractor_trianglediamonds.svg	stimuli_target_circletriangles.svg	9	yes	53	1	357
6.6.1	mac	2022-12-19	22:19:38	22:24:07	266942	5f2280c4a4474574b3704136	641237765	1	main_slash	7	advance_on_keypress_SLASH	72	stimuli_distractor_trianglediamonds.svg	stimuli_target_circletriangles.svg	9	yes	57	0	299
6.6.1	mac	2022-12-19	22:19:38	22:24:08	268206	5f2280c4a4474574b3704136	641237765	1	main_slash	7	main_slash	73	stimuli_target_circletriangles.svg	stimuli_distractor_trianglediamonds.svg	1	yes	53	1	336
6.6.1	mac	2022-12-19	22:19:38	22:24:08	268206	5f2280c4a4474574b3704136	641237765	1	main_slash	7	advance_on_keypress_SLASH	74	stimuli_target_circletriangles.svg	stimuli_distractor_trianglediamonds.svg	1	yes	57	0	273
6.6.1	mac	2022-12-19	22:19:38	22:24:09	269484	5f2280c4a4474574b3704136	641237765	1	main_slash	7	main_slash	75	stimuli_distractor_trianglediamonds.svg	stimuli_target_trianglecircles.svg	25	yes	53	1	362
6.6.1	mac	2022-12-19	22:19:38	22:24:09	269484	5f2280c4a4474574b3704136	641237765	1	main_slash	7	advance_on_keypress_SLASH	76	stimuli_distractor_trianglediamonds.svg	stimuli_target_trianglecircles.svg	25	yes	57	0	267
6.6.1	mac	2022-12-19	22:19:38	22:24:11	270746	5f2280c4a4474574b3704136	641237765	1	main_slash	7	main_slash	77	stimuli_target_diamondsquares.svg	stimuli_distractor_trianglediamonds.svg	20	yes	53	1	369
6.6.1	mac	2022-12-19	22:19:38	22:24:11	270746	5f2280c4a4474574b3704136	641237765	1	main_slash	7	advance_on_keypress_SLASH	78	stimuli_target_diamondsquares.svg	stimuli_distractor_trianglediamonds.svg	20	yes	57	0	246
6.6.1	mac	2022-12-19	22:19:38	22:24:12	271952	5f2280c4a4474574b3704136	641237765	1	main_slash	7	main_slash	79	stimuli_target_circlediamonds.svg	stimuli_distractor_trianglediamonds.svg	2	yes	53	1	311
6.6.1	mac	2022-12-19	22:19:38	22:24:12	271952	5f2280c4a4474574b3704136	641237765	1	main_slash	7	advance_on_keypress_SLASH	80	stimuli_target_circlediamonds.svg	stimuli_distractor_trianglediamonds.svg	2	yes	57	0	261
6.6.1	mac	2022-12-19	22:19:38	22:24:13	273185	5f2280c4a4474574b3704136	641237765	1	main_slash	7	main_slash	81	stimuli_distractor_diamondtriangles.svg	stimuli_target_trianglecircles.svg	29	yes	53	1	340
6.6.1	mac	2022-12-19	22:19:38	22:24:13	273185	5f2280c4a4474574b3704136	641237765	1	main_slash	7	advance_on_keypress_SLASH	82	stimuli_distractor_diamondtriangles.svg	stimuli_target_trianglecircles.svg	29	yes	57	0	236
6.6.1	mac	2022-12-19	22:19:38	22:24:14	274436	5f2280c4a4474574b3704136	641237765	1	main_slash	7	main_slash	83	stimuli_distractor_diamondtriangles.svg	stimuli_target_circlediamonds.svg	14	yes	53	1	378
6.6.1	mac	2022-12-19	22:19:38	22:24:14	274436	5f2280c4a4474574b3704136	641237765	1	main_slash	7	advance_on_keypress_SLASH	84	stimuli_distractor_diamondtriangles.svg	stimuli_target_circlediamonds.svg	14	yes	57	0	249
6.6.1	mac	2022-12-19	22:19:38	22:24:16	275690	5f2280c4a4474574b3704136	641237765	1	main_slash	7	main_slash	85	stimuli_target_circletriangles.svg	stimuli_distractor_trianglediamonds.svg	1	yes	53	1	365
6.6.1	mac	2022-12-19	22:19:38	22:24:16	275690	5f2280c4a4474574b3704136	641237765	1	main_slash	7	advance_on_keypress_SLASH	86	stimuli_target_circletriangles.svg	stimuli_distractor_trianglediamonds.svg	1	yes	57	0	220
6.6.1	mac	2022-12-19	22:19:38	22:24:17	276911	5f2280c4a4474574b3704136	641237765	1	main_slash	7	main_slash	87	stimuli_target_squaretriangles.svg	stimuli_distractor_trianglediamonds.svg	3	yes	53	1	364
6.6.1	mac	2022-12-19	22:19:38	22:24:17	276911	5f2280c4a4474574b3704136	641237765	1	main_slash	7	advance_on_keypress_SLASH	88	stimuli_target_squaretriangles.svg	stimuli_distractor_trianglediamonds.svg	3	yes	57	0	304
6.6.1	mac	2022-12-19	22:19:38	22:24:18	278205	5f2280c4a4474574b3704136	641237765	1	main_slash	7	main_slash	89	stimuli_distractor_diamondtriangles.svg	stimuli_distractor_diamondtriangles.svg	40	no	53	0	367
6.6.1	mac	2022-12-19	22:19:38	22:24:18	278205	5f2280c4a4474574b3704136	641237765	1	main_slash	7	advance_on_keypress_SLASH	90	stimuli_distractor_diamondtriangles.svg	stimuli_distractor_diamondtriangles.svg	40	no	57	0	509
6.6.1	mac	2022-12-19	22:19:38	22:24:21	281344	5f2280c4a4474574b3704136	641237765	1	main_slash	7	main_slash	91	stimuli_distractor_trianglediamonds.svg	stimuli_distractor_diamondtriangles.svg	35	no	0	1	2000
6.6.1	mac	2022-12-19	22:19:38	22:24:21	281344	5f2280c4a4474574b3704136	641237765	1	main_slash	7	advance_on_keypress_SLASH	92	stimuli_distractor_trianglediamonds.svg	stimuli_distractor_diamondtriangles.svg	35	no	57	0	754
6.6.1	mac	2022-12-19	22:19:38	22:24:23	283086	5f2280c4a4474574b3704136	641237765	1	main_slash	7	main_slash	93	stimuli_target_circlediamonds.svg	stimuli_distractor_diamondtriangles.svg	6	yes	53	1	363
6.6.1	mac	2022-12-19	22:19:38	22:24:23	283086	5f2280c4a4474574b3704136	641237765	1	main_slash	7	advance_on_keypress_SLASH	94	stimuli_target_circlediamonds.svg	stimuli_distractor_diamondtriangles.svg	6	yes	57	0	241
6.6.1	mac	2022-12-19	22:19:38	22:24:26	285975	5f2280c4a4474574b3704136	641237765	1	main_slash	7	main_slash	95	stimuli_distractor_diamondtriangles.svg	stimuli_distractor_trianglediamonds.svg	38	no	0	1	2000
6.6.1	mac	2022-12-19	22:19:38	22:24:26	285975	5f2280c4a4474574b3704136	641237765	1	main_slash	7	advance_on_keypress_SLASH	96	stimuli_distractor_diamondtriangles.svg	stimuli_distractor_trianglediamonds.svg	38	no	57	0	352
6.6.1	mac	2022-12-19	22:19:38	22:24:27	287459	5f2280c4a4474574b3704136	641237765	1	main_slash	7	main_slash	97	stimuli_target_diamondsquares.svg	stimuli_distractor_trianglediamonds.svg	20	yes	53	1	487
6.6.1	mac	2022-12-19	22:19:38	22:24:27	287459	5f2280c4a4474574b3704136	641237765	1	main_slash	7	advance_on_keypress_SLASH	98	stimuli_target_diamondsquares.svg	stimuli_distractor_trianglediamonds.svg	20	yes	57	0	266
6.6.1	mac	2022-12-19	22:19:38	22:24:29	288679	5f2280c4a4474574b3704136	641237765	1	main_slash	7	main_slash	99	stimuli_target_squarediamonds.svg	stimuli_distractor_diamondtriangles.svg	8	yes	53	1	331
6.6.1	mac	2022-12-19	22:19:38	22:24:29	288679	5f2280c4a4474574b3704136	641237765	1	main_slash	7	advance_on_keypress_SLASH	100	stimuli_target_squarediamonds.svg	stimuli_distractor_diamondtriangles.svg	8	yes	57	0	234
6.6.1	mac	2022-12-19	22:19:38	22:24:30	289933	5f2280c4a4474574b3704136	641237765	1	main_slash	7	main_slash	101	stimuli_target_squaretriangles.svg	stimuli_distractor_diamondtriangles.svg	7	yes	53	1	380
6.6.1	mac	2022-12-19	22:19:38	22:24:30	289933	5f2280c4a4474574b3704136	641237765	1	main_slash	7	advance_on_keypress_SLASH	102	stimuli_target_squaretriangles.svg	stimuli_distractor_diamondtriangles.svg	7	yes	57	0	234
6.6.1	mac	2022-12-19	22:19:38	22:24:31	291158	5f2280c4a4474574b3704136	641237765	1	main_slash	7	main_slash	103	stimuli_distractor_trianglediamonds.svg	stimuli_target_diamondsquares.svg	28	yes	53	1	369
6.6.1	mac	2022-12-19	22:19:38	22:24:31	291158	5f2280c4a4474574b3704136	641237765	1	main_slash	7	advance_on_keypress_SLASH	104	stimuli_distractor_trianglediamonds.svg	stimuli_target_diamondsquares.svg	28	yes	57	0	199
6.6.1	mac	2022-12-19	22:19:38	22:24:32	292447	5f2280c4a4474574b3704136	641237765	1	main_slash	7	main_slash	105	stimuli_distractor_trianglediamonds.svg	stimuli_target_circletriangles.svg	9	yes	53	1	464
6.6.1	mac	2022-12-19	22:19:38	22:24:32	292447	5f2280c4a4474574b3704136	641237765	1	main_slash	7	advance_on_keypress_SLASH	106	stimuli_distractor_trianglediamonds.svg	stimuli_target_circletriangles.svg	9	yes	57	0	204
6.6.1	mac	2022-12-19	22:19:38	22:24:34	293646	5f2280c4a4474574b3704136	641237765	1	main_slash	7	main_slash	107	stimuli_distractor_diamondtriangles.svg	stimuli_target_squaretriangles.svg	15	yes	53	1	359
6.6.1	mac	2022-12-19	22:19:38	22:24:34	293646	5f2280c4a4474574b3704136	641237765	1	main_slash	7	advance_on_keypress_SLASH	108	stimuli_distractor_diamondtriangles.svg	stimuli_target_squaretriangles.svg	15	yes	57	0	247
6.6.1	mac	2022-12-19	22:19:38	22:24:35	294940	5f2280c4a4474574b3704136	641237765	1	main_slash	7	main_slash	109	stimuli_target_diamondcircles.svg	stimuli_distractor_diamondtriangles.svg	23	yes	53	1	401
6.6.1	mac	2022-12-19	22:19:38	22:24:35	294940	5f2280c4a4474574b3704136	641237765	1	main_slash	7	advance_on_keypress_SLASH	110	stimuli_target_diamondcircles.svg	stimuli_distractor_diamondtriangles.svg	23	yes	57	0	235
6.6.1	mac	2022-12-19	22:19:38	22:24:36	296156	5f2280c4a4474574b3704136	641237765	1	main_slash	7	main_slash	111	stimuli_target_trianglecircles.svg	stimuli_distractor_diamondtriangles.svg	21	yes	53	1	344
6.6.1	mac	2022-12-19	22:19:38	22:24:36	296156	5f2280c4a4474574b3704136	641237765	1	main_slash	7	advance_on_keypress_SLASH	112	stimuli_target_trianglecircles.svg	stimuli_distractor_diamondtriangles.svg	21	yes	57	0	242
6.6.1	mac	2022-12-19	22:19:38	22:24:39	299012	5f2280c4a4474574b3704136	641237765	1	main_slash	7	main_slash	113	stimuli_distractor_trianglediamonds.svg	stimuli_distractor_diamondtriangles.svg	36	no	0	1	2000
6.6.1	mac	2022-12-19	22:19:38	22:24:39	299012	5f2280c4a4474574b3704136	641237765	1	main_slash	7	advance_on_keypress_SLASH	114	stimuli_distractor_trianglediamonds.svg	stimuli_distractor_diamondtriangles.svg	36	no	57	0	370
6.6.1	mac	2022-12-19	22:19:38	22:24:40	300380	5f2280c4a4474574b3704136	641237765	1	main_slash	7	main_slash	115	stimuli_distractor_diamondtriangles.svg	stimuli_target_trianglesquares.svg	30	yes	53	1	376
6.6.1	mac	2022-12-19	22:19:38	22:24:40	300380	5f2280c4a4474574b3704136	641237765	1	main_slash	7	advance_on_keypress_SLASH	116	stimuli_distractor_diamondtriangles.svg	stimuli_target_trianglesquares.svg	30	yes	57	0	270
6.6.1	mac	2022-12-19	22:19:38	22:24:42	301618	5f2280c4a4474574b3704136	641237765	1	main_slash	7	main_slash	117	stimuli_target_trianglesquares.svg	stimuli_distractor_trianglediamonds.svg	18	yes	53	1	347
6.6.1	mac	2022-12-19	22:19:38	22:24:42	301618	5f2280c4a4474574b3704136	641237765	1	main_slash	7	advance_on_keypress_SLASH	118	stimuli_target_trianglesquares.svg	stimuli_distractor_trianglediamonds.svg	18	yes	57	0	210
6.6.1	mac	2022-12-19	22:19:38	22:24:43	302977	5f2280c4a4474574b3704136	641237765	1	main_slash	7	main_slash	119	stimuli_distractor_diamondtriangles.svg	stimuli_distractor_trianglediamonds.svg	37	no	53	0	501
6.6.1	mac	2022-12-19	22:19:38	22:24:43	302977	5f2280c4a4474574b3704136	641237765	1	main_slash	7	advance_on_keypress_SLASH	120	stimuli_distractor_diamondtriangles.svg	stimuli_distractor_trianglediamonds.svg	37	no	57	0	269
6.6.1	mac	2022-12-19	22:19:38	22:24:44	304501	5f2280c4a4474574b3704136	641237765	1	main_slash	7	main_slash	121	stimuli_distractor_trianglediamonds.svg	stimuli_target_trianglecircles.svg	25	yes	53	1	615
6.6.1	mac	2022-12-19	22:19:38	22:24:44	304501	5f2280c4a4474574b3704136	641237765	1	main_slash	7	advance_on_keypress_SLASH	122	stimuli_distractor_trianglediamonds.svg	stimuli_target_trianglecircles.svg	25	yes	57	0	337
6.6.1	mac	2022-12-19	22:19:38	22:24:46	306414	5f2280c4a4474574b3704136	641237765	1	main_slash	7	main_slash	123	stimuli_distractor_diamondtriangles.svg	stimuli_target_diamondsquares.svg	32	yes	53	1	938
6.6.1	mac	2022-12-19	22:19:38	22:24:46	306414	5f2280c4a4474574b3704136	641237765	1	main_slash	7	advance_on_keypress_SLASH	124	stimuli_distractor_diamondtriangles.svg	stimuli_target_diamondsquares.svg	32	yes	57	0	389
6.6.1	mac	2022-12-19	22:19:38	22:24:49	309442	5f2280c4a4474574b3704136	641237765	1	main_slash	7	main_slash	125	stimuli_distractor_diamondtriangles.svg	stimuli_distractor_diamondtriangles.svg	39	no	0	1	2000
6.6.1	mac	2022-12-19	22:19:38	22:24:49	309442	5f2280c4a4474574b3704136	641237765	1	main_slash	7	advance_on_keypress_SLASH	126	stimuli_distractor_diamondtriangles.svg	stimuli_distractor_diamondtriangles.svg	39	no	57	0	262
6.6.1	mac	2022-12-19	22:19:38	22:24:51	310834	5f2280c4a4474574b3704136	641237765	1	main_slash	7	main_slash	127	stimuli_distractor_trianglediamonds.svg	stimuli_target_squarediamonds.svg	12	yes	53	1	496
6.6.1	mac	2022-12-19	22:19:38	22:24:51	310834	5f2280c4a4474574b3704136	641237765	1	main_slash	7	advance_on_keypress_SLASH	128	stimuli_distractor_trianglediamonds.svg	stimuli_target_squarediamonds.svg	12	yes	57	0	359
6.6.1	mac	2022-12-19	22:19:38	22:24:53	312922	5f2280c4a4474574b3704136	641237765	1	main_slash	7	main_slash	129	stimuli_distractor_trianglediamonds.svg	stimuli_target_trianglesquares.svg	26	yes	53	1	1097
6.6.1	mac	2022-12-19	22:19:38	22:24:53	312922	5f2280c4a4474574b3704136	641237765	1	main_slash	7	advance_on_keypress_SLASH	130	stimuli_distractor_trianglediamonds.svg	stimuli_target_trianglesquares.svg	26	yes	57	0	977
6.6.1	mac	2022-12-19	22:19:38	22:24:55	314973	5f2280c4a4474574b3704136	641237765	1	main_slash	7	main_slash	131	stimuli_target_circletriangles.svg	stimuli_distractor_diamondtriangles.svg	5	yes	53	1	430
6.6.1	mac	2022-12-19	22:19:38	22:24:55	314973	5f2280c4a4474574b3704136	641237765	1	main_slash	7	advance_on_keypress_SLASH	132	stimuli_target_circletriangles.svg	stimuli_distractor_diamondtriangles.svg	5	yes	57	0	334
6.6.1	mac	2022-12-19	22:19:38	22:24:56	316276	5f2280c4a4474574b3704136	641237765	1	main_slash	7	main_slash	133	stimuli_distractor_trianglediamonds.svg	stimuli_target_squaretriangles.svg	11	yes	53	1	331
6.6.1	mac	2022-12-19	22:19:38	22:24:56	316276	5f2280c4a4474574b3704136	641237765	1	main_slash	7	advance_on_keypress_SLASH	134	stimuli_distractor_trianglediamonds.svg	stimuli_target_squaretriangles.svg	11	yes	57	0	249
6.6.1	mac	2022-12-19	22:19:38	22:24:59	319165	5f2280c4a4474574b3704136	641237765	1	main_slash	7	main_slash	135	stimuli_distractor_trianglediamonds.svg	stimuli_distractor_trianglediamonds.svg	34	no	0	1	2000
6.6.1	mac	2022-12-19	22:19:38	22:24:59	319165	5f2280c4a4474574b3704136	641237765	1	main_slash	7	advance_on_keypress_SLASH	136	stimuli_distractor_trianglediamonds.svg	stimuli_distractor_trianglediamonds.svg	34	no	57	0	271
6.6.1	mac	2022-12-19	22:19:38	22:25:01	320668	5f2280c4a4474574b3704136	641237765	1	main_slash	7	main_slash	137	stimuli_target_diamondsquares.svg	stimuli_distractor_diamondtriangles.svg	24	yes	53	1	590
6.6.1	mac	2022-12-19	22:19:38	22:25:01	320668	5f2280c4a4474574b3704136	641237765	1	main_slash	7	advance_on_keypress_SLASH	138	stimuli_target_diamondsquares.svg	stimuli_distractor_diamondtriangles.svg	24	yes	57	0	373
6.6.1	mac	2022-12-19	22:19:38	22:25:02	322023	5f2280c4a4474574b3704136	641237765	1	main_slash	7	main_slash	139	stimuli_distractor_diamondtriangles.svg	stimuli_target_squarediamonds.svg	16	yes	53	1	353
6.6.1	mac	2022-12-19	22:19:38	22:25:02	322023	5f2280c4a4474574b3704136	641237765	1	main_slash	7	advance_on_keypress_SLASH	140	stimuli_distractor_diamondtriangles.svg	stimuli_target_squarediamonds.svg	16	yes	57	0	245
6.6.1	mac	2022-12-19	22:19:38	22:25:03	323284	5f2280c4a4474574b3704136	641237765	1	main_slash	7	main_slash	141	stimuli_distractor_trianglediamonds.svg	stimuli_target_diamondcircles.svg	27	yes	53	1	387
6.6.1	mac	2022-12-19	22:19:38	22:25:03	323284	5f2280c4a4474574b3704136	641237765	1	main_slash	7	advance_on_keypress_SLASH	142	stimuli_distractor_trianglediamonds.svg	stimuli_target_diamondcircles.svg	27	yes	57	0	268
6.6.1	mac	2022-12-19	22:19:38	22:25:04	324504	5f2280c4a4474574b3704136	641237765	1	main_slash	7	main_slash	143	stimuli_target_diamondcircles.svg	stimuli_distractor_trianglediamonds.svg	19	yes	53	1	325
6.6.1	mac	2022-12-19	22:19:38	22:25:04	324504	5f2280c4a4474574b3704136	641237765	1	main_slash	7	advance_on_keypress_SLASH	144	stimuli_target_diamondcircles.svg	stimuli_distractor_trianglediamonds.svg	19	yes	57	0	230
6.6.1	mac	2022-12-19	22:19:38	22:25:06	325669	5f2280c4a4474574b3704136	641237765	1	main_slash	7	main_slash	145	stimuli_distractor_trianglediamonds.svg	stimuli_target_circlediamonds.svg	10	yes	53	1	307
6.6.1	mac	2022-12-19	22:19:38	22:25:06	325669	5f2280c4a4474574b3704136	641237765	1	main_slash	7	advance_on_keypress_SLASH	146	stimuli_distractor_trianglediamonds.svg	stimuli_target_circlediamonds.svg	10	yes	57	0	203
6.6.1	mac	2022-12-19	22:19:38	22:25:07	326788	5f2280c4a4474574b3704136	641237765	1	main_slash	7	main_slash	147	stimuli_distractor_diamondtriangles.svg	stimuli_target_circletriangles.svg	13	yes	53	1	294
6.6.1	mac	2022-12-19	22:19:38	22:25:07	326788	5f2280c4a4474574b3704136	641237765	1	main_slash	7	advance_on_keypress_SLASH	148	stimuli_distractor_diamondtriangles.svg	stimuli_target_circletriangles.svg	13	yes	57	0	208
6.6.1	mac	2022-12-19	22:19:38	22:25:08	327850	5f2280c4a4474574b3704136	641237765	1	main_slash	7	main_slash	149	stimuli_target_trianglesquares.svg	stimuli_distractor_diamondtriangles.svg	22	yes	53	1	223
6.6.1	mac	2022-12-19	22:19:38	22:25:08	327850	5f2280c4a4474574b3704136	641237765	1	main_slash	7	advance_on_keypress_SLASH	150	stimuli_target_trianglesquares.svg	stimuli_distractor_diamondtriangles.svg	22	yes	57	0	209
6.6.1	mac	2022-12-19	22:19:38	22:25:09	329014	5f2280c4a4474574b3704136	641237765	1	main_slash	7	main_slash	151	stimuli_target_trianglecircles.svg	stimuli_distractor_trianglediamonds.svg	17	yes	53	1	322
6.6.1	mac	2022-12-19	22:19:38	22:25:09	329014	5f2280c4a4474574b3704136	641237765	1	main_slash	7	advance_on_keypress_SLASH	152	stimuli_target_trianglecircles.svg	stimuli_distractor_trianglediamonds.svg	17	yes	57	0	385
6.6.1	mac	2022-12-19	22:19:38	22:25:10	330345	5f2280c4a4474574b3704136	641237765	1	main_slash	7	main_slash	153	stimuli_target_circlediamonds.svg	stimuli_distractor_trianglediamonds.svg	2	yes	53	1	320
6.6.1	mac	2022-12-19	22:19:38	22:25:10	330345	5f2280c4a4474574b3704136	641237765	1	main_slash	7	advance_on_keypress_SLASH	154	stimuli_target_circlediamonds.svg	stimuli_distractor_trianglediamonds.svg	2	yes	57	0	159
6.6.1	mac	2022-12-19	22:19:38	22:25:11	331381	5f2280c4a4474574b3704136	641237765	1	main_slash	7	main_slash	155	stimuli_distractor_trianglediamonds.svg	stimuli_distractor_trianglediamonds.svg	33	no	53	0	246
6.6.1	mac	2022-12-19	22:19:38	22:25:11	331381	5f2280c4a4474574b3704136	641237765	1	main_slash	7	advance_on_keypress_SLASH	156	stimuli_distractor_trianglediamonds.svg	stimuli_distractor_trianglediamonds.svg	33	no	57	0	592
6.6.1	mac	2022-12-19	22:19:38	22:25:13	333266	5f2280c4a4474574b3704136	641237765	1	main_slash	7	main_slash	157	stimuli_distractor_diamondtriangles.svg	stimuli_target_diamondcircles.svg	31	yes	53	1	659
6.6.1	mac	2022-12-19	22:19:38	22:25:13	333266	5f2280c4a4474574b3704136	641237765	1	main_slash	7	advance_on_keypress_SLASH	158	stimuli_distractor_diamondtriangles.svg	stimuli_target_diamondcircles.svg	31	yes	57	0	204
6.6.1	mac	2022-12-19	22:19:38	22:25:15	334620	5f2280c4a4474574b3704136	641237765	1	main_slash	7	main_slash	159	stimuli_target_squarediamonds.svg	stimuli_distractor_trianglediamonds.svg	4	yes	53	1	525
6.6.1	mac	2022-12-19	22:19:38	22:25:15	334620	5f2280c4a4474574b3704136	641237765	1	main_slash	7	advance_on_keypress_SLASH	160	stimuli_target_squarediamonds.svg	stimuli_distractor_trianglediamonds.svg	4	yes	57	0	187
6.6.1	mac	2022-12-19	22:19:38	22:25:36	355676	5f2280c4a4474574b3704136	641237765	1	practice_z	9	practice_z	1	stimuli_target_circlediamonds.svg	stimuli_distractor_diamondtriangles.svg	1	yes	44	1	350
6.6.1	mac	2022-12-19	22:19:38	22:25:36	355676	5f2280c4a4474574b3704136	641237765	1	practice_z	9	advance_on_keypress_ZEE	2	stimuli_target_circlediamonds.svg	stimuli_distractor_diamondtriangles.svg	1	yes	57	0	361
6.6.1	mac	2022-12-19	22:19:38	22:25:38	358012	5f2280c4a4474574b3704136	641237765	1	practice_z	9	practice_z	3	stimuli_distractor_diamondtriangles.svg	stimuli_target_circletriangles.svg	7	yes	44	1	333
6.6.1	mac	2022-12-19	22:19:38	22:25:38	358012	5f2280c4a4474574b3704136	641237765	1	practice_z	9	advance_on_keypress_ZEE	4	stimuli_distractor_diamondtriangles.svg	stimuli_target_circletriangles.svg	7	yes	57	0	352
6.6.1	mac	2022-12-19	22:19:38	22:25:40	360370	5f2280c4a4474574b3704136	641237765	1	practice_z	9	practice_z	5	stimuli_distractor_diamondtriangles.svg	stimuli_distractor_trianglediamonds.svg	14	no	44	0	370
6.6.1	mac	2022-12-19	22:19:38	22:25:40	360370	5f2280c4a4474574b3704136	641237765	1	practice_z	9	advance_on_keypress_ZEE	6	stimuli_distractor_diamondtriangles.svg	stimuli_distractor_trianglediamonds.svg	14	no	57	0	588
6.6.1	mac	2022-12-19	22:19:38	22:25:44	364587	5f2280c4a4474574b3704136	641237765	1	practice_z	9	practice_z	7	stimuli_distractor_trianglediamonds.svg	stimuli_distractor_trianglediamonds.svg	15	no	0	1	2000
6.6.1	mac	2022-12-19	22:19:38	22:25:44	364587	5f2280c4a4474574b3704136	641237765	1	practice_z	9	advance_on_keypress_ZEE	8	stimuli_distractor_trianglediamonds.svg	stimuli_distractor_trianglediamonds.svg	15	no	57	0	571
6.6.1	mac	2022-12-19	22:19:38	22:25:47	367398	5f2280c4a4474574b3704136	641237765	1	practice_z	9	practice_z	9	stimuli_target_diamondsquares.svg	stimuli_distractor_trianglediamonds.svg	6	yes	44	1	604
6.6.1	mac	2022-12-19	22:19:38	22:25:47	367398	5f2280c4a4474574b3704136	641237765	1	practice_z	9	advance_on_keypress_ZEE	10	stimuli_target_diamondsquares.svg	stimuli_distractor_trianglediamonds.svg	6	yes	57	0	429
6.6.1	mac	2022-12-19	22:19:38	22:25:50	370020	5f2280c4a4474574b3704136	641237765	1	practice_z	9	practice_z	11	stimuli_distractor_trianglediamonds.svg	stimuli_target_diamondcircles.svg	12	yes	44	1	565
6.6.1	mac	2022-12-19	22:19:38	22:25:50	370020	5f2280c4a4474574b3704136	641237765	1	practice_z	9	advance_on_keypress_ZEE	12	stimuli_distractor_trianglediamonds.svg	stimuli_target_diamondcircles.svg	12	yes	57	0	478
6.6.1	mac	2022-12-19	22:19:38	22:25:53	372887	5f2280c4a4474574b3704136	641237765	1	practice_z	9	practice_z	13	stimuli_target_diamondsquares.svg	stimuli_distractor_diamondtriangles.svg	3	yes	44	1	762
6.6.1	mac	2022-12-19	22:19:38	22:25:53	372887	5f2280c4a4474574b3704136	641237765	1	practice_z	9	advance_on_keypress_ZEE	14	stimuli_target_diamondsquares.svg	stimuli_distractor_diamondtriangles.svg	3	yes	57	0	446
6.6.1	mac	2022-12-19	22:19:38	22:25:57	376973	5f2280c4a4474574b3704136	641237765	1	practice_z	9	practice_z	15	stimuli_distractor_diamondtriangles.svg	stimuli_distractor_diamondtriangles.svg	13	no	0	1	2000
6.6.1	mac	2022-12-19	22:19:38	22:25:57	376973	5f2280c4a4474574b3704136	641237765	1	practice_z	9	advance_on_keypress_ZEE	16	stimuli_distractor_diamondtriangles.svg	stimuli_distractor_diamondtriangles.svg	13	no	57	0	457
6.6.1	mac	2022-12-19	22:19:38	22:25:59	379539	5f2280c4a4474574b3704136	641237765	1	practice_z	9	practice_z	17	stimuli_target_squarediamonds.svg	stimuli_distractor_diamondtriangles.svg	2	yes	44	1	477
6.6.1	mac	2022-12-19	22:19:38	22:25:59	379539	5f2280c4a4474574b3704136	641237765	1	practice_z	9	advance_on_keypress_ZEE	18	stimuli_target_squarediamonds.svg	stimuli_distractor_diamondtriangles.svg	2	yes	57	0	406
6.6.1	mac	2022-12-19	22:19:38	22:26:02	382011	5f2280c4a4474574b3704136	641237765	1	practice_z	9	practice_z	19	stimuli_distractor_trianglediamonds.svg	stimuli_target_squarediamonds.svg	11	yes	44	1	415
6.6.1	mac	2022-12-19	22:19:38	22:26:02	382011	5f2280c4a4474574b3704136	641237765	1	practice_z	9	advance_on_keypress_ZEE	20	stimuli_distractor_trianglediamonds.svg	stimuli_target_squarediamonds.svg	11	yes	57	0	411
6.6.1	mac	2022-12-19	22:19:38	22:26:04	384580	5f2280c4a4474574b3704136	641237765	1	practice_z	9	practice_z	21	stimuli_target_squarediamonds.svg	stimuli_distractor_trianglediamonds.svg	5	yes	44	1	510
6.6.1	mac	2022-12-19	22:19:38	22:26:04	384580	5f2280c4a4474574b3704136	641237765	1	practice_z	9	advance_on_keypress_ZEE	22	stimuli_target_squarediamonds.svg	stimuli_distractor_trianglediamonds.svg	5	yes	57	0	261
6.6.1	mac	2022-12-19	22:19:38	22:26:07	386867	5f2280c4a4474574b3704136	641237765	1	practice_z	9	practice_z	23	stimuli_distractor_diamondtriangles.svg	stimuli_target_trianglecircles.svg	9	yes	44	1	395
6.6.1	mac	2022-12-19	22:19:38	22:26:07	386867	5f2280c4a4474574b3704136	641237765	1	practice_z	9	advance_on_keypress_ZEE	24	stimuli_distractor_diamondtriangles.svg	stimuli_target_trianglecircles.svg	9	yes	57	0	468
6.6.1	mac	2022-12-19	22:19:38	22:26:09	389291	5f2280c4a4474574b3704136	641237765	1	practice_z	9	practice_z	25	stimuli_target_circlediamonds.svg	stimuli_distractor_trianglediamonds.svg	4	yes	44	1	331
6.6.1	mac	2022-12-19	22:19:38	22:26:09	389291	5f2280c4a4474574b3704136	641237765	1	practice_z	9	advance_on_keypress_ZEE	26	stimuli_target_circlediamonds.svg	stimuli_distractor_trianglediamonds.svg	4	yes	57	0	408
6.6.1	mac	2022-12-19	22:19:38	22:26:12	391647	5f2280c4a4474574b3704136	641237765	1	practice_z	9	practice_z	27	stimuli_distractor_trianglediamonds.svg	stimuli_target_circlediamonds.svg	10	yes	44	1	313
6.6.1	mac	2022-12-19	22:19:38	22:26:12	391647	5f2280c4a4474574b3704136	641237765	1	practice_z	9	advance_on_keypress_ZEE	28	stimuli_distractor_trianglediamonds.svg	stimuli_target_circlediamonds.svg	10	yes	57	0	322
6.6.1	mac	2022-12-19	22:19:38	22:26:14	394257	5f2280c4a4474574b3704136	641237765	1	practice_z	9	practice_z	29	stimuli_distractor_diamondtriangles.svg	stimuli_target_diamondcircles.svg	8	yes	44	1	650
6.6.1	mac	2022-12-19	22:19:38	22:26:14	394257	5f2280c4a4474574b3704136	641237765	1	practice_z	9	advance_on_keypress_ZEE	30	stimuli_distractor_diamondtriangles.svg	stimuli_target_diamondcircles.svg	8	yes	57	0	341
6.6.1	mac	2022-12-19	22:19:38	22:26:18	398231	5f2280c4a4474574b3704136	641237765	1	practice_z	9	practice_z	31	stimuli_distractor_trianglediamonds.svg	stimuli_distractor_diamondtriangles.svg	16	no	0	1	2000
6.6.1	mac	2022-12-19	22:19:38	22:26:18	398231	5f2280c4a4474574b3704136	641237765	1	practice_z	9	advance_on_keypress_ZEE	32	stimuli_distractor_trianglediamonds.svg	stimuli_distractor_diamondtriangles.svg	16	no	57	0	507
6.6.1	mac	2022-12-19	22:19:38	22:26:26	405975	5f2280c4a4474574b3704136	641237765	1	main_z	11	main_z	1	stimuli_distractor_trianglediamonds.svg	stimuli_distractor_diamondtriangles.svg	35	no	0	1	2000
6.6.1	mac	2022-12-19	22:19:38	22:26:26	405975	5f2280c4a4474574b3704136	641237765	1	main_z	11	advance_on_keypress_ZEE	2	stimuli_distractor_trianglediamonds.svg	stimuli_distractor_diamondtriangles.svg	35	no	57	0	345
6.6.1	mac	2022-12-19	22:19:38	22:26:27	407304	5f2280c4a4474574b3704136	641237765	1	main_z	11	main_z	3	stimuli_target_squarediamonds.svg	stimuli_distractor_trianglediamonds.svg	4	yes	44	1	357
6.6.1	mac	2022-12-19	22:19:38	22:26:27	407304	5f2280c4a4474574b3704136	641237765	1	main_z	11	advance_on_keypress_ZEE	4	stimuli_target_squarediamonds.svg	stimuli_distractor_trianglediamonds.svg	4	yes	57	0	627
6.6.1	mac	2022-12-19	22:19:38	22:26:29	408895	5f2280c4a4474574b3704136	641237765	1	main_z	11	main_z	5	stimuli_target_circlediamonds.svg	stimuli_distractor_diamondtriangles.svg	6	yes	44	1	336
6.6.1	mac	2022-12-19	22:19:38	22:26:29	408895	5f2280c4a4474574b3704136	641237765	1	main_z	11	advance_on_keypress_ZEE	6	stimuli_target_circlediamonds.svg	stimuli_distractor_diamondtriangles.svg	6	yes	57	0	476
6.6.1	mac	2022-12-19	22:19:38	22:26:32	411992	5f2280c4a4474574b3704136	641237765	1	main_z	11	main_z	7	stimuli_distractor_trianglediamonds.svg	stimuli_distractor_trianglediamonds.svg	34	no	0	1	2000
6.6.1	mac	2022-12-19	22:19:38	22:26:32	411992	5f2280c4a4474574b3704136	641237765	1	main_z	11	advance_on_keypress_ZEE	8	stimuli_distractor_trianglediamonds.svg	stimuli_distractor_trianglediamonds.svg	34	no	57	0	517
6.6.1	mac	2022-12-19	22:19:38	22:26:33	413543	5f2280c4a4474574b3704136	641237765	1	main_z	11	main_z	9	stimuli_distractor_trianglediamonds.svg	stimuli_target_squaretriangles.svg	11	yes	44	1	398
6.6.1	mac	2022-12-19	22:19:38	22:26:33	413543	5f2280c4a4474574b3704136	641237765	1	main_z	11	advance_on_keypress_ZEE	10	stimuli_distractor_trianglediamonds.svg	stimuli_target_squaretriangles.svg	11	yes	57	0	388
6.6.1	mac	2022-12-19	22:19:38	22:26:35	414893	5f2280c4a4474574b3704136	641237765	1	main_z	11	main_z	11	stimuli_target_trianglecircles.svg	stimuli_distractor_diamondtriangles.svg	21	yes	44	1	329
6.6.1	mac	2022-12-19	22:19:38	22:26:35	414893	5f2280c4a4474574b3704136	641237765	1	main_z	11	advance_on_keypress_ZEE	12	stimuli_target_trianglecircles.svg	stimuli_distractor_diamondtriangles.svg	21	yes	57	0	383
6.6.1	mac	2022-12-19	22:19:38	22:26:38	417912	5f2280c4a4474574b3704136	641237765	1	main_z	11	main_z	13	stimuli_distractor_diamondtriangles.svg	stimuli_distractor_trianglediamonds.svg	37	no	0	1	2000
6.6.1	mac	2022-12-19	22:19:38	22:26:38	417912	5f2280c4a4474574b3704136	641237765	1	main_z	11	advance_on_keypress_ZEE	14	stimuli_distractor_diamondtriangles.svg	stimuli_distractor_trianglediamonds.svg	37	no	57	0	265
6.6.1	mac	2022-12-19	22:19:38	22:26:39	419158	5f2280c4a4474574b3704136	641237765	1	main_z	11	main_z	15	stimuli_distractor_diamondtriangles.svg	stimuli_target_circletriangles.svg	13	yes	44	1	339
6.6.1	mac	2022-12-19	22:19:38	22:26:39	419158	5f2280c4a4474574b3704136	641237765	1	main_z	11	advance_on_keypress_ZEE	16	stimuli_distractor_diamondtriangles.svg	stimuli_target_circletriangles.svg	13	yes	57	0	406
6.6.1	mac	2022-12-19	22:19:38	22:26:40	420414	5f2280c4a4474574b3704136	641237765	1	main_z	11	main_z	17	stimuli_target_diamondcircles.svg	stimuli_distractor_diamondtriangles.svg	23	yes	44	1	231
6.6.1	mac	2022-12-19	22:19:38	22:26:40	420414	5f2280c4a4474574b3704136	641237765	1	main_z	11	advance_on_keypress_ZEE	18	stimuli_target_diamondcircles.svg	stimuli_distractor_diamondtriangles.svg	23	yes	57	0	463
6.6.1	mac	2022-12-19	22:19:38	22:26:43	423515	5f2280c4a4474574b3704136	641237765	1	main_z	11	main_z	19	stimuli_distractor_diamondtriangles.svg	stimuli_distractor_diamondtriangles.svg	39	no	0	1	2000
6.6.1	mac	2022-12-19	22:19:38	22:26:43	423515	5f2280c4a4474574b3704136	641237765	1	main_z	11	advance_on_keypress_ZEE	20	stimuli_distractor_diamondtriangles.svg	stimuli_distractor_diamondtriangles.svg	39	no	57	0	294
6.6.1	mac	2022-12-19	22:19:38	22:26:45	424787	5f2280c4a4474574b3704136	641237765	1	main_z	11	main_z	21	stimuli_distractor_trianglediamonds.svg	stimuli_target_squarediamonds.svg	12	yes	44	1	332
6.6.1	mac	2022-12-19	22:19:38	22:26:45	424787	5f2280c4a4474574b3704136	641237765	1	main_z	11	advance_on_keypress_ZEE	22	stimuli_distractor_trianglediamonds.svg	stimuli_target_squarediamonds.svg	12	yes	57	0	318
6.6.1	mac	2022-12-19	22:19:38	22:26:48	427739	5f2280c4a4474574b3704136	641237765	1	main_z	11	main_z	23	stimuli_distractor_diamondtriangles.svg	stimuli_distractor_trianglediamonds.svg	38	no	0	1	2000
6.6.1	mac	2022-12-19	22:19:38	22:26:48	427739	5f2280c4a4474574b3704136	641237765	1	main_z	11	advance_on_keypress_ZEE	24	stimuli_distractor_diamondtriangles.svg	stimuli_distractor_trianglediamonds.svg	38	no	57	0	256
6.6.1	mac	2022-12-19	22:19:38	22:26:49	429026	5f2280c4a4474574b3704136	641237765	1	main_z	11	main_z	25	stimuli_distractor_diamondtriangles.svg	stimuli_target_diamondsquares.svg	32	yes	44	1	396
6.6.1	mac	2022-12-19	22:19:38	22:26:49	429026	5f2280c4a4474574b3704136	641237765	1	main_z	11	advance_on_keypress_ZEE	26	stimuli_distractor_diamondtriangles.svg	stimuli_target_diamondsquares.svg	32	yes	57	0	454
6.6.1	mac	2022-12-19	22:19:38	22:26:51	431537	5f2280c4a4474574b3704136	641237765	1	main_z	11	main_z	27	stimuli_distractor_diamondtriangles.svg	stimuli_target_circlediamonds.svg	14	yes	44	1	1420
6.6.1	mac	2022-12-19	22:19:38	22:26:51	431537	5f2280c4a4474574b3704136	641237765	1	main_z	11	advance_on_keypress_ZEE	28	stimuli_distractor_diamondtriangles.svg	stimuli_target_circlediamonds.svg	14	yes	57	0	614
6.6.1	mac	2022-12-19	22:19:38	22:26:53	433187	5f2280c4a4474574b3704136	641237765	1	main_z	11	main_z	29	stimuli_distractor_diamondtriangles.svg	stimuli_target_trianglesquares.svg	30	yes	44	1	404
6.6.1	mac	2022-12-19	22:19:38	22:26:53	433187	5f2280c4a4474574b3704136	641237765	1	main_z	11	advance_on_keypress_ZEE	30	stimuli_distractor_diamondtriangles.svg	stimuli_target_trianglesquares.svg	30	yes	57	0	407
6.6.1	mac	2022-12-19	22:19:38	22:26:54	434518	5f2280c4a4474574b3704136	641237765	1	main_z	11	main_z	31	stimuli_distractor_trianglediamonds.svg	stimuli_target_circlediamonds.svg	10	yes	44	1	293
6.6.1	mac	2022-12-19	22:19:38	22:26:54	434518	5f2280c4a4474574b3704136	641237765	1	main_z	11	advance_on_keypress_ZEE	32	stimuli_distractor_trianglediamonds.svg	stimuli_target_circlediamonds.svg	10	yes	57	0	303
6.6.1	mac	2022-12-19	22:19:38	22:26:56	435802	5f2280c4a4474574b3704136	641237765	1	main_z	11	main_z	33	stimuli_target_circletriangles.svg	stimuli_distractor_trianglediamonds.svg	1	yes	44	1	344
6.6.1	mac	2022-12-19	22:19:38	22:26:56	435802	5f2280c4a4474574b3704136	641237765	1	main_z	11	advance_on_keypress_ZEE	34	stimuli_target_circletriangles.svg	stimuli_distractor_trianglediamonds.svg	1	yes	57	0	329
6.6.1	mac	2022-12-19	22:19:38	22:26:59	438757	5f2280c4a4474574b3704136	641237765	1	main_z	11	main_z	35	stimuli_distractor_trianglediamonds.svg	stimuli_distractor_diamondtriangles.svg	36	no	0	1	2000
6.6.1	mac	2022-12-19	22:19:38	22:26:59	438757	5f2280c4a4474574b3704136	641237765	1	main_z	11	advance_on_keypress_ZEE	36	stimuli_distractor_trianglediamonds.svg	stimuli_distractor_diamondtriangles.svg	36	no	57	0	405
6.6.1	mac	2022-12-19	22:19:38	22:27:00	440152	5f2280c4a4474574b3704136	641237765	1	main_z	11	main_z	37	stimuli_target_diamondcircles.svg	stimuli_distractor_trianglediamonds.svg	19	yes	44	1	354
6.6.1	mac	2022-12-19	22:19:38	22:27:00	440152	5f2280c4a4474574b3704136	641237765	1	main_z	11	advance_on_keypress_ZEE	38	stimuli_target_diamondcircles.svg	stimuli_distractor_trianglediamonds.svg	19	yes	57	0	284
6.6.1	mac	2022-12-19	22:19:38	22:27:03	443058	5f2280c4a4474574b3704136	641237765	1	main_z	11	main_z	39	stimuli_distractor_diamondtriangles.svg	stimuli_distractor_diamondtriangles.svg	40	no	0	1	2000
6.6.1	mac	2022-12-19	22:19:38	22:27:03	443058	5f2280c4a4474574b3704136	641237765	1	main_z	11	advance_on_keypress_ZEE	40	stimuli_distractor_diamondtriangles.svg	stimuli_distractor_diamondtriangles.svg	40	no	57	0	319
6.6.1	mac	2022-12-19	22:19:38	22:27:06	446011	5f2280c4a4474574b3704136	641237765	1	main_z	11	main_z	41	stimuli_distractor_trianglediamonds.svg	stimuli_distractor_trianglediamonds.svg	33	no	0	1	2000
6.6.1	mac	2022-12-19	22:19:38	22:27:06	446011	5f2280c4a4474574b3704136	641237765	1	main_z	11	advance_on_keypress_ZEE	42	stimuli_distractor_trianglediamonds.svg	stimuli_distractor_trianglediamonds.svg	33	no	57	0	309
6.6.1	mac	2022-12-19	22:19:38	22:27:07	447370	5f2280c4a4474574b3704136	641237765	1	main_z	11	main_z	43	stimuli_distractor_trianglediamonds.svg	stimuli_target_diamondcircles.svg	27	yes	44	1	402
6.6.1	mac	2022-12-19	22:19:38	22:27:07	447370	5f2280c4a4474574b3704136	641237765	1	main_z	11	advance_on_keypress_ZEE	44	stimuli_distractor_trianglediamonds.svg	stimuli_target_diamondcircles.svg	27	yes	57	0	334
6.6.1	mac	2022-12-19	22:19:38	22:27:09	448631	5f2280c4a4474574b3704136	641237765	1	main_z	11	main_z	45	stimuli_distractor_trianglediamonds.svg	stimuli_target_trianglesquares.svg	26	yes	44	1	291
6.6.1	mac	2022-12-19	22:19:38	22:27:09	448631	5f2280c4a4474574b3704136	641237765	1	main_z	11	advance_on_keypress_ZEE	46	stimuli_distractor_trianglediamonds.svg	stimuli_target_trianglesquares.svg	26	yes	57	0	383
6.6.1	mac	2022-12-19	22:19:38	22:27:10	450017	5f2280c4a4474574b3704136	641237765	1	main_z	11	main_z	47	stimuli_target_circletriangles.svg	stimuli_distractor_diamondtriangles.svg	5	yes	44	1	375
6.6.1	mac	2022-12-19	22:19:38	22:27:10	450017	5f2280c4a4474574b3704136	641237765	1	main_z	11	advance_on_keypress_ZEE	48	stimuli_target_circletriangles.svg	stimuli_distractor_diamondtriangles.svg	5	yes	57	0	260
6.6.1	mac	2022-12-19	22:19:38	22:27:11	451178	5f2280c4a4474574b3704136	641237765	1	main_z	11	main_z	49	stimuli_target_squaretriangles.svg	stimuli_distractor_diamondtriangles.svg	7	yes	44	1	272
6.6.1	mac	2022-12-19	22:19:38	22:27:11	451178	5f2280c4a4474574b3704136	641237765	1	main_z	11	advance_on_keypress_ZEE	50	stimuli_target_squaretriangles.svg	stimuli_distractor_diamondtriangles.svg	7	yes	57	0	328
6.6.1	mac	2022-12-19	22:19:38	22:27:12	452467	5f2280c4a4474574b3704136	641237765	1	main_z	11	main_z	51	stimuli_distractor_diamondtriangles.svg	stimuli_target_diamondcircles.svg	31	yes	44	1	332
6.6.1	mac	2022-12-19	22:19:38	22:27:12	452467	5f2280c4a4474574b3704136	641237765	1	main_z	11	advance_on_keypress_ZEE	52	stimuli_distractor_diamondtriangles.svg	stimuli_target_diamondcircles.svg	31	yes	57	0	214
6.6.1	mac	2022-12-19	22:19:38	22:27:14	453609	5f2280c4a4474574b3704136	641237765	1	main_z	11	main_z	53	stimuli_distractor_trianglediamonds.svg	stimuli_target_diamondsquares.svg	28	yes	44	1	297
6.6.1	mac	2022-12-19	22:19:38	22:27:14	453609	5f2280c4a4474574b3704136	641237765	1	main_z	11	advance_on_keypress_ZEE	54	stimuli_distractor_trianglediamonds.svg	stimuli_target_diamondsquares.svg	28	yes	57	0	231
6.6.1	mac	2022-12-19	22:19:38	22:27:15	454683	5f2280c4a4474574b3704136	641237765	1	main_z	11	main_z	55	stimuli_distractor_trianglediamonds.svg	stimuli_target_circletriangles.svg	9	yes	44	1	224
6.6.1	mac	2022-12-19	22:19:38	22:27:15	454683	5f2280c4a4474574b3704136	641237765	1	main_z	11	advance_on_keypress_ZEE	56	stimuli_distractor_trianglediamonds.svg	stimuli_target_circletriangles.svg	9	yes	57	0	157
6.6.1	mac	2022-12-19	22:19:38	22:27:16	455800	5f2280c4a4474574b3704136	641237765	1	main_z	11	main_z	57	stimuli_target_diamondsquares.svg	stimuli_distractor_trianglediamonds.svg	20	yes	44	1	328
6.6.1	mac	2022-12-19	22:19:38	22:27:16	455800	5f2280c4a4474574b3704136	641237765	1	main_z	11	advance_on_keypress_ZEE	58	stimuli_target_diamondsquares.svg	stimuli_distractor_trianglediamonds.svg	20	yes	57	0	227
6.6.1	mac	2022-12-19	22:19:38	22:27:17	456947	5f2280c4a4474574b3704136	641237765	1	main_z	11	main_z	59	stimuli_distractor_diamondtriangles.svg	stimuli_target_squarediamonds.svg	16	yes	44	1	293
6.6.1	mac	2022-12-19	22:19:38	22:27:17	456947	5f2280c4a4474574b3704136	641237765	1	main_z	11	advance_on_keypress_ZEE	60	stimuli_distractor_diamondtriangles.svg	stimuli_target_squarediamonds.svg	16	yes	57	0	221
6.6.1	mac	2022-12-19	22:19:38	22:27:18	458099	5f2280c4a4474574b3704136	641237765	1	main_z	11	main_z	61	stimuli_target_trianglesquares.svg	stimuli_distractor_trianglediamonds.svg	18	yes	44	1	297
6.6.1	mac	2022-12-19	22:19:38	22:27:18	458099	5f2280c4a4474574b3704136	641237765	1	main_z	11	advance_on_keypress_ZEE	62	stimuli_target_trianglesquares.svg	stimuli_distractor_trianglediamonds.svg	18	yes	57	0	167
6.6.1	mac	2022-12-19	22:19:38	22:27:19	459178	5f2280c4a4474574b3704136	641237765	1	main_z	11	main_z	63	stimuli_distractor_diamondtriangles.svg	stimuli_target_squaretriangles.svg	15	yes	44	1	273
6.6.1	mac	2022-12-19	22:19:38	22:27:19	459178	5f2280c4a4474574b3704136	641237765	1	main_z	11	advance_on_keypress_ZEE	64	stimuli_distractor_diamondtriangles.svg	stimuli_target_squaretriangles.svg	15	yes	57	0	210
6.6.1	mac	2022-12-19	22:19:38	22:27:20	460255	5f2280c4a4474574b3704136	641237765	1	main_z	11	main_z	65	stimuli_target_circlediamonds.svg	stimuli_distractor_trianglediamonds.svg	2	yes	44	1	237
6.6.1	mac	2022-12-19	22:19:38	22:27:20	460255	5f2280c4a4474574b3704136	641237765	1	main_z	11	advance_on_keypress_ZEE	66	stimuli_target_circlediamonds.svg	stimuli_distractor_trianglediamonds.svg	2	yes	57	0	163
6.6.1	mac	2022-12-19	22:19:38	22:27:21	461409	5f2280c4a4474574b3704136	641237765	1	main_z	11	main_z	67	stimuli_distractor_diamondtriangles.svg	stimuli_target_trianglecircles.svg	29	yes	44	1	360
6.6.1	mac	2022-12-19	22:19:38	22:27:21	461409	5f2280c4a4474574b3704136	641237765	1	main_z	11	advance_on_keypress_ZEE	68	stimuli_distractor_diamondtriangles.svg	stimuli_target_trianglecircles.svg	29	yes	57	0	199
6.6.1	mac	2022-12-19	22:19:38	22:27:22	462512	5f2280c4a4474574b3704136	641237765	1	main_z	11	main_z	69	stimuli_target_trianglecircles.svg	stimuli_distractor_trianglediamonds.svg	17	yes	44	1	280
6.6.1	mac	2022-12-19	22:19:38	22:27:22	462512	5f2280c4a4474574b3704136	641237765	1	main_z	11	advance_on_keypress_ZEE	70	stimuli_target_trianglecircles.svg	stimuli_distractor_trianglediamonds.svg	17	yes	57	0	232
6.6.1	mac	2022-12-19	22:19:38	22:27:24	463653	5f2280c4a4474574b3704136	641237765	1	main_z	11	main_z	71	stimuli_distractor_trianglediamonds.svg	stimuli_target_trianglecircles.svg	25	yes	44	1	285
6.6.1	mac	2022-12-19	22:19:38	22:27:24	463653	5f2280c4a4474574b3704136	641237765	1	main_z	11	advance_on_keypress_ZEE	72	stimuli_distractor_trianglediamonds.svg	stimuli_target_trianglecircles.svg	25	yes	57	0	210
6.6.1	mac	2022-12-19	22:19:38	22:27:25	464784	5f2280c4a4474574b3704136	641237765	1	main_z	11	main_z	73	stimuli_target_squarediamonds.svg	stimuli_distractor_diamondtriangles.svg	8	yes	44	1	275
6.6.1	mac	2022-12-19	22:19:38	22:27:25	464784	5f2280c4a4474574b3704136	641237765	1	main_z	11	advance_on_keypress_ZEE	74	stimuli_target_squarediamonds.svg	stimuli_distractor_diamondtriangles.svg	8	yes	57	0	162
6.6.1	mac	2022-12-19	22:19:38	22:27:26	465821	5f2280c4a4474574b3704136	641237765	1	main_z	11	main_z	75	stimuli_target_trianglesquares.svg	stimuli_distractor_diamondtriangles.svg	22	yes	44	1	242
6.6.1	mac	2022-12-19	22:19:38	22:27:26	465821	5f2280c4a4474574b3704136	641237765	1	main_z	11	advance_on_keypress_ZEE	76	stimuli_target_trianglesquares.svg	stimuli_distractor_diamondtriangles.svg	22	yes	57	0	171
6.6.1	mac	2022-12-19	22:19:38	22:27:27	466812	5f2280c4a4474574b3704136	641237765	1	main_z	11	main_z	77	stimuli_target_diamondsquares.svg	stimuli_distractor_diamondtriangles.svg	24	yes	44	1	185
6.6.1	mac	2022-12-19	22:19:38	22:27:27	466812	5f2280c4a4474574b3704136	641237765	1	main_z	11	advance_on_keypress_ZEE	78	stimuli_target_diamondsquares.svg	stimuli_distractor_diamondtriangles.svg	24	yes	57	0	152
6.6.1	mac	2022-12-19	22:19:38	22:27:28	467851	5f2280c4a4474574b3704136	641237765	1	main_z	11	main_z	79	stimuli_target_squaretriangles.svg	stimuli_distractor_trianglediamonds.svg	3	yes	44	1	259
6.6.1	mac	2022-12-19	22:19:38	22:27:28	467851	5f2280c4a4474574b3704136	641237765	1	main_z	11	advance_on_keypress_ZEE	80	stimuli_target_squaretriangles.svg	stimuli_distractor_trianglediamonds.svg	3	yes	57	0	123
6.6.1	mac	2022-12-19	22:19:38	22:27:29	468808	5f2280c4a4474574b3704136	641237765	1	main_z	11	main_z	81	stimuli_distractor_diamondtriangles.svg	stimuli_target_diamondsquares.svg	32	yes	44	1	214
6.6.1	mac	2022-12-19	22:19:38	22:27:29	468808	5f2280c4a4474574b3704136	641237765	1	main_z	11	advance_on_keypress_ZEE	82	stimuli_distractor_diamondtriangles.svg	stimuli_target_diamondsquares.svg	32	yes	57	0	199
6.6.1	mac	2022-12-19	22:19:38	22:27:30	469884	5f2280c4a4474574b3704136	641237765	1	main_z	11	main_z	83	stimuli_target_diamondsquares.svg	stimuli_distractor_diamondtriangles.svg	24	yes	44	1	235
6.6.1	mac	2022-12-19	22:19:38	22:27:30	469884	5f2280c4a4474574b3704136	641237765	1	main_z	11	advance_on_keypress_ZEE	84	stimuli_target_diamondsquares.svg	stimuli_distractor_diamondtriangles.svg	24	yes	57	0	191
6.6.1	mac	2022-12-19	22:19:38	22:27:31	470887	5f2280c4a4474574b3704136	641237765	1	main_z	11	main_z	85	stimuli_target_trianglecircles.svg	stimuli_distractor_diamondtriangles.svg	21	yes	44	1	196
6.6.1	mac	2022-12-19	22:19:38	22:27:31	470887	5f2280c4a4474574b3704136	641237765	1	main_z	11	advance_on_keypress_ZEE	86	stimuli_target_trianglecircles.svg	stimuli_distractor_diamondtriangles.svg	21	yes	57	0	232
6.6.1	mac	2022-12-19	22:19:38	22:27:32	471972	5f2280c4a4474574b3704136	641237765	1	main_z	11	main_z	87	stimuli_distractor_diamondtriangles.svg	stimuli_target_circletriangles.svg	13	yes	44	1	224
6.6.1	mac	2022-12-19	22:19:38	22:27:32	471972	5f2280c4a4474574b3704136	641237765	1	main_z	11	advance_on_keypress_ZEE	88	stimuli_distractor_diamondtriangles.svg	stimuli_target_circletriangles.svg	13	yes	57	0	189
6.6.1	mac	2022-12-19	22:19:38	22:27:33	473054	5f2280c4a4474574b3704136	641237765	1	main_z	11	main_z	89	stimuli_distractor_trianglediamonds.svg	stimuli_target_squarediamonds.svg	12	yes	44	1	251
6.6.1	mac	2022-12-19	22:19:38	22:27:33	473054	5f2280c4a4474574b3704136	641237765	1	main_z	11	advance_on_keypress_ZEE	90	stimuli_distractor_trianglediamonds.svg	stimuli_target_squarediamonds.svg	12	yes	57	0	174
6.6.1	mac	2022-12-19	22:19:38	22:27:34	474107	5f2280c4a4474574b3704136	641237765	1	main_z	11	main_z	91	stimuli_distractor_trianglediamonds.svg	stimuli_distractor_trianglediamonds.svg	33	no	44	0	261
6.6.1	mac	2022-12-19	22:19:38	22:27:34	474107	5f2280c4a4474574b3704136	641237765	1	main_z	11	advance_on_keypress_ZEE	92	stimuli_distractor_trianglediamonds.svg	stimuli_distractor_trianglediamonds.svg	33	no	57	0	690
6.6.1	mac	2022-12-19	22:19:38	22:27:36	475834	5f2280c4a4474574b3704136	641237765	1	main_z	11	main_z	93	stimuli_distractor_diamondtriangles.svg	stimuli_target_trianglesquares.svg	30	yes	44	1	409
6.6.1	mac	2022-12-19	22:19:38	22:27:36	475834	5f2280c4a4474574b3704136	641237765	1	main_z	11	advance_on_keypress_ZEE	94	stimuli_distractor_diamondtriangles.svg	stimuli_target_trianglesquares.svg	30	yes	57	0	157
6.6.1	mac	2022-12-19	22:19:38	22:27:37	476880	5f2280c4a4474574b3704136	641237765	1	main_z	11	main_z	95	stimuli_target_diamondcircles.svg	stimuli_distractor_diamondtriangles.svg	23	yes	44	1	256
6.6.1	mac	2022-12-19	22:19:38	22:27:37	476880	5f2280c4a4474574b3704136	641237765	1	main_z	11	advance_on_keypress_ZEE	96	stimuli_target_diamondcircles.svg	stimuli_distractor_diamondtriangles.svg	23	yes	57	0	138
6.6.1	mac	2022-12-19	22:19:38	22:27:38	477984	5f2280c4a4474574b3704136	641237765	1	main_z	11	main_z	97	stimuli_distractor_trianglediamonds.svg	stimuli_target_diamondsquares.svg	28	yes	44	1	331
6.6.1	mac	2022-12-19	22:19:38	22:27:38	477984	5f2280c4a4474574b3704136	641237765	1	main_z	11	advance_on_keypress_ZEE	98	stimuli_distractor_trianglediamonds.svg	stimuli_target_diamondsquares.svg	28	yes	57	0	124
6.6.1	mac	2022-12-19	22:19:38	22:27:39	478946	5f2280c4a4474574b3704136	641237765	1	main_z	11	main_z	99	stimuli_distractor_diamondtriangles.svg	stimuli_target_squaretriangles.svg	15	yes	44	1	222
6.6.1	mac	2022-12-19	22:19:38	22:27:39	478946	5f2280c4a4474574b3704136	641237765	1	main_z	11	advance_on_keypress_ZEE	100	stimuli_distractor_diamondtriangles.svg	stimuli_target_squaretriangles.svg	15	yes	57	0	136
6.6.1	mac	2022-12-19	22:19:38	22:27:40	479975	5f2280c4a4474574b3704136	641237765	1	main_z	11	main_z	101	stimuli_target_squarediamonds.svg	stimuli_distractor_trianglediamonds.svg	4	yes	44	1	257
6.6.1	mac	2022-12-19	22:19:38	22:27:40	479975	5f2280c4a4474574b3704136	641237765	1	main_z	11	advance_on_keypress_ZEE	102	stimuli_target_squarediamonds.svg	stimuli_distractor_trianglediamonds.svg	4	yes	57	0	144
6.6.1	mac	2022-12-19	22:19:38	22:27:41	481050	5f2280c4a4474574b3704136	641237765	1	main_z	11	main_z	103	stimuli_distractor_trianglediamonds.svg	stimuli_target_diamondcircles.svg	27	yes	44	1	296
6.6.1	mac	2022-12-19	22:19:38	22:27:41	481050	5f2280c4a4474574b3704136	641237765	1	main_z	11	advance_on_keypress_ZEE	104	stimuli_distractor_trianglediamonds.svg	stimuli_target_diamondcircles.svg	27	yes	57	0	180
6.6.1	mac	2022-12-19	22:19:38	22:27:42	482080	5f2280c4a4474574b3704136	641237765	1	main_z	11	main_z	105	stimuli_distractor_trianglediamonds.svg	stimuli_distractor_trianglediamonds.svg	34	no	44	0	221
6.6.1	mac	2022-12-19	22:19:38	22:27:42	482080	5f2280c4a4474574b3704136	641237765	1	main_z	11	advance_on_keypress_ZEE	106	stimuli_distractor_trianglediamonds.svg	stimuli_distractor_trianglediamonds.svg	34	no	57	0	1184
6.6.1	mac	2022-12-19	22:19:38	22:27:44	484310	5f2280c4a4474574b3704136	641237765	1	main_z	11	main_z	107	stimuli_target_circlediamonds.svg	stimuli_distractor_trianglediamonds.svg	2	yes	44	1	413
6.6.1	mac	2022-12-19	22:19:38	22:27:44	484310	5f2280c4a4474574b3704136	641237765	1	main_z	11	advance_on_keypress_ZEE	108	stimuli_target_circlediamonds.svg	stimuli_distractor_trianglediamonds.svg	2	yes	57	0	150
6.6.1	mac	2022-12-19	22:19:38	22:27:45	485412	5f2280c4a4474574b3704136	641237765	1	main_z	11	main_z	109	stimuli_distractor_trianglediamonds.svg	stimuli_target_trianglesquares.svg	26	yes	44	1	324
6.6.1	mac	2022-12-19	22:19:38	22:27:45	485412	5f2280c4a4474574b3704136	641237765	1	main_z	11	advance_on_keypress_ZEE	110	stimuli_distractor_trianglediamonds.svg	stimuli_target_trianglesquares.svg	26	yes	57	0	172
6.6.1	mac	2022-12-19	22:19:38	22:27:46	486576	5f2280c4a4474574b3704136	641237765	1	main_z	11	main_z	111	stimuli_distractor_trianglediamonds.svg	stimuli_target_trianglecircles.svg	25	yes	44	1	355
6.6.1	mac	2022-12-19	22:19:38	22:27:46	486576	5f2280c4a4474574b3704136	641237765	1	main_z	11	advance_on_keypress_ZEE	112	stimuli_distractor_trianglediamonds.svg	stimuli_target_trianglecircles.svg	25	yes	57	0	147
6.6.1	mac	2022-12-19	22:19:38	22:27:49	489353	5f2280c4a4474574b3704136	641237765	1	main_z	11	main_z	113	stimuli_distractor_diamondtriangles.svg	stimuli_distractor_diamondtriangles.svg	39	no	0	1	2000
6.6.1	mac	2022-12-19	22:19:38	22:27:49	489353	5f2280c4a4474574b3704136	641237765	1	main_z	11	advance_on_keypress_ZEE	114	stimuli_distractor_diamondtriangles.svg	stimuli_distractor_diamondtriangles.svg	39	no	57	0	494
6.6.1	mac	2022-12-19	22:19:38	22:27:51	490782	5f2280c4a4474574b3704136	641237765	1	main_z	11	main_z	115	stimuli_target_trianglesquares.svg	stimuli_distractor_trianglediamonds.svg	18	yes	44	1	312
6.6.1	mac	2022-12-19	22:19:38	22:27:51	490782	5f2280c4a4474574b3704136	641237765	1	main_z	11	advance_on_keypress_ZEE	116	stimuli_target_trianglesquares.svg	stimuli_distractor_trianglediamonds.svg	18	yes	57	0	164
6.6.1	mac	2022-12-19	22:19:38	22:27:53	493572	5f2280c4a4474574b3704136	641237765	1	main_z	11	main_z	117	stimuli_distractor_diamondtriangles.svg	stimuli_distractor_trianglediamonds.svg	38	no	0	1	2000
6.6.1	mac	2022-12-19	22:19:38	22:27:53	493572	5f2280c4a4474574b3704136	641237765	1	main_z	11	advance_on_keypress_ZEE	118	stimuli_distractor_diamondtriangles.svg	stimuli_distractor_trianglediamonds.svg	38	no	57	0	377
6.6.1	mac	2022-12-19	22:19:38	22:27:55	494899	5f2280c4a4474574b3704136	641237765	1	main_z	11	main_z	119	stimuli_distractor_diamondtriangles.svg	stimuli_distractor_trianglediamonds.svg	37	no	44	0	312
6.6.1	mac	2022-12-19	22:19:38	22:27:55	494899	5f2280c4a4474574b3704136	641237765	1	main_z	11	advance_on_keypress_ZEE	120	stimuli_distractor_diamondtriangles.svg	stimuli_distractor_trianglediamonds.svg	37	no	57	0	337
6.6.1	mac	2022-12-19	22:19:38	22:27:56	496288	5f2280c4a4474574b3704136	641237765	1	main_z	11	main_z	121	stimuli_distractor_diamondtriangles.svg	stimuli_target_circlediamonds.svg	14	yes	44	1	417
6.6.1	mac	2022-12-19	22:19:38	22:27:56	496288	5f2280c4a4474574b3704136	641237765	1	main_z	11	advance_on_keypress_ZEE	122	stimuli_distractor_diamondtriangles.svg	stimuli_target_circlediamonds.svg	14	yes	57	0	117
6.6.1	mac	2022-12-19	22:19:38	22:27:57	497370	5f2280c4a4474574b3704136	641237765	1	main_z	11	main_z	123	stimuli_target_squaretriangles.svg	stimuli_distractor_diamondtriangles.svg	7	yes	44	1	336
6.6.1	mac	2022-12-19	22:19:38	22:27:57	497370	5f2280c4a4474574b3704136	641237765	1	main_z	11	advance_on_keypress_ZEE	124	stimuli_target_squaretriangles.svg	stimuli_distractor_diamondtriangles.svg	7	yes	57	0	118
6.6.1	mac	2022-12-19	22:19:38	22:27:58	498411	5f2280c4a4474574b3704136	641237765	1	main_z	11	main_z	125	stimuli_target_circletriangles.svg	stimuli_distractor_trianglediamonds.svg	1	yes	44	1	288
6.6.1	mac	2022-12-19	22:19:38	22:27:58	498411	5f2280c4a4474574b3704136	641237765	1	main_z	11	advance_on_keypress_ZEE	126	stimuli_target_circletriangles.svg	stimuli_distractor_trianglediamonds.svg	1	yes	57	0	136
6.6.1	mac	2022-12-19	22:19:38	22:27:59	499523	5f2280c4a4474574b3704136	641237765	1	main_z	11	main_z	127	stimuli_distractor_diamondtriangles.svg	stimuli_target_diamondcircles.svg	31	yes	44	1	339
6.6.1	mac	2022-12-19	22:19:38	22:27:59	499523	5f2280c4a4474574b3704136	641237765	1	main_z	11	advance_on_keypress_ZEE	128	stimuli_distractor_diamondtriangles.svg	stimuli_target_diamondcircles.svg	31	yes	57	0	147
6.6.1	mac	2022-12-19	22:19:38	22:28:00	500592	5f2280c4a4474574b3704136	641237765	1	main_z	11	main_z	129	stimuli_distractor_trianglediamonds.svg	stimuli_target_circletriangles.svg	9	yes	44	1	296
6.6.1	mac	2022-12-19	22:19:38	22:28:00	500592	5f2280c4a4474574b3704136	641237765	1	main_z	11	advance_on_keypress_ZEE	130	stimuli_distractor_trianglediamonds.svg	stimuli_target_circletriangles.svg	9	yes	57	0	156
6.6.1	mac	2022-12-19	22:19:38	22:28:02	501687	5f2280c4a4474574b3704136	641237765	1	main_z	11	main_z	131	stimuli_target_circletriangles.svg	stimuli_distractor_diamondtriangles.svg	5	yes	44	1	308
6.6.1	mac	2022-12-19	22:19:38	22:28:02	501687	5f2280c4a4474574b3704136	641237765	1	main_z	11	advance_on_keypress_ZEE	132	stimuli_target_circletriangles.svg	stimuli_distractor_diamondtriangles.svg	5	yes	57	0	142
6.6.1	mac	2022-12-19	22:19:38	22:28:04	504463	5f2280c4a4474574b3704136	641237765	1	main_z	11	main_z	133	stimuli_distractor_trianglediamonds.svg	stimuli_distractor_diamondtriangles.svg	36	no	0	1	2000
6.6.1	mac	2022-12-19	22:19:38	22:28:04	504463	5f2280c4a4474574b3704136	641237765	1	main_z	11	advance_on_keypress_ZEE	134	stimuli_distractor_trianglediamonds.svg	stimuli_distractor_diamondtriangles.svg	36	no	57	0	325
6.6.1	mac	2022-12-19	22:19:38	22:28:06	505838	5f2280c4a4474574b3704136	641237765	1	main_z	11	main_z	135	stimuli_distractor_trianglediamonds.svg	stimuli_target_squaretriangles.svg	11	yes	44	1	415
6.6.1	mac	2022-12-19	22:19:38	22:28:06	505838	5f2280c4a4474574b3704136	641237765	1	main_z	11	advance_on_keypress_ZEE	136	stimuli_distractor_trianglediamonds.svg	stimuli_target_squaretriangles.svg	11	yes	57	0	152
6.6.1	mac	2022-12-19	22:19:38	22:28:07	506910	5f2280c4a4474574b3704136	641237765	1	main_z	11	main_z	137	stimuli_target_squarediamonds.svg	stimuli_distractor_diamondtriangles.svg	8	yes	44	1	296
6.6.1	mac	2022-12-19	22:19:38	22:28:07	506910	5f2280c4a4474574b3704136	641237765	1	main_z	11	advance_on_keypress_ZEE	138	stimuli_target_squarediamonds.svg	stimuli_distractor_diamondtriangles.svg	8	yes	57	0	153
6.6.1	mac	2022-12-19	22:19:38	22:28:08	507994	5f2280c4a4474574b3704136	641237765	1	main_z	11	main_z	139	stimuli_distractor_diamondtriangles.svg	stimuli_target_squarediamonds.svg	16	yes	44	1	307
6.6.1	mac	2022-12-19	22:19:38	22:28:08	507994	5f2280c4a4474574b3704136	641237765	1	main_z	11	advance_on_keypress_ZEE	140	stimuli_distractor_diamondtriangles.svg	stimuli_target_squarediamonds.svg	16	yes	57	0	111
6.6.1	mac	2022-12-19	22:19:38	22:28:09	509023	5f2280c4a4474574b3704136	641237765	1	main_z	11	main_z	141	stimuli_target_trianglecircles.svg	stimuli_distractor_trianglediamonds.svg	17	yes	44	1	282
6.6.1	mac	2022-12-19	22:19:38	22:28:09	509023	5f2280c4a4474574b3704136	641237765	1	main_z	11	advance_on_keypress_ZEE	142	stimuli_target_trianglecircles.svg	stimuli_distractor_trianglediamonds.svg	17	yes	57	0	104
6.6.1	mac	2022-12-19	22:19:38	22:28:10	510070	5f2280c4a4474574b3704136	641237765	1	main_z	11	main_z	143	stimuli_distractor_diamondtriangles.svg	stimuli_distractor_diamondtriangles.svg	40	no	44	0	308
6.6.1	mac	2022-12-19	22:19:38	22:28:10	510070	5f2280c4a4474574b3704136	641237765	1	main_z	11	advance_on_keypress_ZEE	144	stimuli_distractor_diamondtriangles.svg	stimuli_distractor_diamondtriangles.svg	40	no	57	0	616
6.6.1	mac	2022-12-19	22:19:38	22:28:12	511701	5f2280c4a4474574b3704136	641237765	1	main_z	11	main_z	145	stimuli_target_squaretriangles.svg	stimuli_distractor_trianglediamonds.svg	3	yes	44	1	391
6.6.1	mac	2022-12-19	22:19:38	22:28:12	511701	5f2280c4a4474574b3704136	641237765	1	main_z	11	advance_on_keypress_ZEE	146	stimuli_target_squaretriangles.svg	stimuli_distractor_trianglediamonds.svg	3	yes	57	0	163
6.6.1	mac	2022-12-19	22:19:38	22:28:13	512875	5f2280c4a4474574b3704136	641237765	1	main_z	11	main_z	147	stimuli_distractor_trianglediamonds.svg	stimuli_target_circlediamonds.svg	10	yes	44	1	378
6.6.1	mac	2022-12-19	22:19:38	22:28:13	512875	5f2280c4a4474574b3704136	641237765	1	main_z	11	advance_on_keypress_ZEE	148	stimuli_distractor_trianglediamonds.svg	stimuli_target_circlediamonds.svg	10	yes	57	0	131
6.6.1	mac	2022-12-19	22:19:38	22:28:14	514105	5f2280c4a4474574b3704136	641237765	1	main_z	11	main_z	149	stimuli_target_trianglesquares.svg	stimuli_distractor_diamondtriangles.svg	22	yes	44	1	474
6.6.1	mac	2022-12-19	22:19:38	22:28:14	514105	5f2280c4a4474574b3704136	641237765	1	main_z	11	advance_on_keypress_ZEE	150	stimuli_target_trianglesquares.svg	stimuli_distractor_diamondtriangles.svg	22	yes	57	0	128
6.6.1	mac	2022-12-19	22:19:38	22:28:15	515249	5f2280c4a4474574b3704136	641237765	1	main_z	11	main_z	151	stimuli_distractor_diamondtriangles.svg	stimuli_target_trianglecircles.svg	29	yes	44	1	391
6.6.1	mac	2022-12-19	22:19:38	22:28:15	515249	5f2280c4a4474574b3704136	641237765	1	main_z	11	advance_on_keypress_ZEE	152	stimuli_distractor_diamondtriangles.svg	stimuli_target_trianglecircles.svg	29	yes	57	0	102
6.6.1	mac	2022-12-19	22:19:38	22:28:16	516262	5f2280c4a4474574b3704136	641237765	1	main_z	11	main_z	153	stimuli_target_diamondcircles.svg	stimuli_distractor_trianglediamonds.svg	19	yes	44	1	284
6.6.1	mac	2022-12-19	22:19:38	22:28:16	516262	5f2280c4a4474574b3704136	641237765	1	main_z	11	advance_on_keypress_ZEE	154	stimuli_target_diamondcircles.svg	stimuli_distractor_trianglediamonds.svg	19	yes	57	0	121
6.6.1	mac	2022-12-19	22:19:38	22:28:17	517331	5f2280c4a4474574b3704136	641237765	1	main_z	11	main_z	155	stimuli_target_circlediamonds.svg	stimuli_distractor_diamondtriangles.svg	6	yes	44	1	315
6.6.1	mac	2022-12-19	22:19:38	22:28:17	517331	5f2280c4a4474574b3704136	641237765	1	main_z	11	advance_on_keypress_ZEE	156	stimuli_target_circlediamonds.svg	stimuli_distractor_diamondtriangles.svg	6	yes	57	0	100
6.6.1	mac	2022-12-19	22:19:38	22:28:18	518360	5f2280c4a4474574b3704136	641237765	1	main_z	11	main_z	157	stimuli_distractor_trianglediamonds.svg	stimuli_distractor_diamondtriangles.svg	35	no	44	0	291
6.6.1	mac	2022-12-19	22:19:38	22:28:18	518360	5f2280c4a4474574b3704136	641237765	1	main_z	11	advance_on_keypress_ZEE	158	stimuli_distractor_trianglediamonds.svg	stimuli_distractor_diamondtriangles.svg	35	no	57	0	373
6.6.1	mac	2022-12-19	22:19:38	22:28:20	519888	5f2280c4a4474574b3704136	641237765	1	main_z	11	main_z	159	stimuli_target_diamondsquares.svg	stimuli_distractor_trianglediamonds.svg	20	yes	44	1	520
6.6.1	mac	2022-12-19	22:19:38	22:28:20	519888	5f2280c4a4474574b3704136	641237765	1	main_z	11	advance_on_keypress_ZEE	160	stimuli_target_diamondsquares.svg	stimuli_distractor_trianglediamonds.svg	20	yes	57	0	157