build	computer.platform	date	time	timestamp	time_elapsed_ms	subject	group	session	blockcode	blocknum	trialcode	trialnum	stimulus_left	stimulus_right	stim_index	target_present	response	correct	latency
6.6.1	win	2022-12-15	07:11:56	07:16:35	278276	5786d6076475d400015a959e	172693384	1	practice_z	5	practice_z	1	stimuli_target_diamondsquares.svg	stimuli_distractor_trianglediamonds.svg	6	yes	44	1	532
6.6.1	win	2022-12-15	07:11:56	07:16:35	278276	5786d6076475d400015a959e	172693384	1	practice_z	5	advance_on_keypress_ZEE	2	stimuli_target_diamondsquares.svg	stimuli_distractor_trianglediamonds.svg	6	yes	57	0	1610
6.6.1	win	2022-12-15	07:11:56	07:16:40	283526	5786d6076475d400015a959e	172693384	1	practice_z	5	practice_z	3	stimuli_target_diamondsquares.svg	stimuli_distractor_diamondtriangles.svg	3	yes	0	0	2003
6.6.1	win	2022-12-15	07:11:56	07:16:40	283526	5786d6076475d400015a959e	172693384	1	practice_z	5	advance_on_keypress_ZEE	4	stimuli_target_diamondsquares.svg	stimuli_distractor_diamondtriangles.svg	3	yes	57	0	623
6.6.1	win	2022-12-15	07:11:56	07:16:44	286698	5786d6076475d400015a959e	172693384	1	practice_z	5	practice_z	5	stimuli_target_circlediamonds.svg	stimuli_distractor_diamondtriangles.svg	1	yes	44	1	930
6.6.1	win	2022-12-15	07:11:56	07:16:44	286698	5786d6076475d400015a959e	172693384	1	practice_z	5	advance_on_keypress_ZEE	6	stimuli_target_circlediamonds.svg	stimuli_distractor_diamondtriangles.svg	1	yes	57	0	622
6.6.1	win	2022-12-15	07:11:56	07:16:47	289762	5786d6076475d400015a959e	172693384	1	practice_z	5	practice_z	7	stimuli_distractor_trianglediamonds.svg	stimuli_target_diamondcircles.svg	12	yes	44	1	814
6.6.1	win	2022-12-15	07:11:56	07:16:47	289762	5786d6076475d400015a959e	172693384	1	practice_z	5	advance_on_keypress_ZEE	8	stimuli_distractor_trianglediamonds.svg	stimuli_target_diamondcircles.svg	12	yes	57	0	674
6.6.1	win	2022-12-15	07:11:56	07:16:50	292996	5786d6076475d400015a959e	172693384	1	practice_z	5	practice_z	9	stimuli_target_squarediamonds.svg	stimuli_distractor_diamondtriangles.svg	2	yes	44	1	928
6.6.1	win	2022-12-15	07:11:56	07:16:50	292996	5786d6076475d400015a959e	172693384	1	practice_z	5	advance_on_keypress_ZEE	10	stimuli_target_squarediamonds.svg	stimuli_distractor_diamondtriangles.svg	2	yes	57	0	676
6.6.1	win	2022-12-15	07:11:56	07:16:53	296035	5786d6076475d400015a959e	172693384	1	practice_z	5	practice_z	11	stimuli_distractor_diamondtriangles.svg	stimuli_target_circletriangles.svg	7	yes	44	1	732
6.6.1	win	2022-12-15	07:11:56	07:16:53	296035	5786d6076475d400015a959e	172693384	1	practice_z	5	advance_on_keypress_ZEE	12	stimuli_distractor_diamondtriangles.svg	stimuli_target_circletriangles.svg	7	yes	57	0	454
6.6.1	win	2022-12-15	07:11:56	07:16:56	299210	5786d6076475d400015a959e	172693384	1	practice_z	5	practice_z	13	stimuli_target_circlediamonds.svg	stimuli_distractor_trianglediamonds.svg	4	yes	44	1	1089
6.6.1	win	2022-12-15	07:11:56	07:16:56	299210	5786d6076475d400015a959e	172693384	1	practice_z	5	advance_on_keypress_ZEE	14	stimuli_target_circlediamonds.svg	stimuli_distractor_trianglediamonds.svg	4	yes	57	0	543
6.6.1	win	2022-12-15	07:11:56	07:17:00	303380	5786d6076475d400015a959e	172693384	1	practice_z	5	practice_z	15	stimuli_distractor_trianglediamonds.svg	stimuli_distractor_trianglediamonds.svg	15	no	0	1	2003
6.6.1	win	2022-12-15	07:11:56	07:17:00	303380	5786d6076475d400015a959e	172693384	1	practice_z	5	advance_on_keypress_ZEE	16	stimuli_distractor_trianglediamonds.svg	stimuli_distractor_trianglediamonds.svg	15	no	57	0	340
6.6.1	win	2022-12-15	07:11:56	07:17:03	306242	5786d6076475d400015a959e	172693384	1	practice_z	5	practice_z	17	stimuli_target_squarediamonds.svg	stimuli_distractor_trianglediamonds.svg	5	yes	44	1	905
6.6.1	win	2022-12-15	07:11:56	07:17:03	306242	5786d6076475d400015a959e	172693384	1	practice_z	5	advance_on_keypress_ZEE	18	stimuli_target_squarediamonds.svg	stimuli_distractor_trianglediamonds.svg	5	yes	57	0	638
6.6.1	win	2022-12-15	07:11:56	07:17:07	310534	5786d6076475d400015a959e	172693384	1	practice_z	5	practice_z	19	stimuli_distractor_trianglediamonds.svg	stimuli_distractor_diamondtriangles.svg	16	no	0	1	2003
6.6.1	win	2022-12-15	07:11:56	07:17:07	310534	5786d6076475d400015a959e	172693384	1	practice_z	5	advance_on_keypress_ZEE	20	stimuli_distractor_trianglediamonds.svg	stimuli_distractor_diamondtriangles.svg	16	no	57	0	309
6.6.1	win	2022-12-15	07:11:56	07:17:10	313307	5786d6076475d400015a959e	172693384	1	practice_z	5	practice_z	21	stimuli_distractor_trianglediamonds.svg	stimuli_target_circlediamonds.svg	10	yes	44	1	809
6.6.1	win	2022-12-15	07:11:56	07:17:10	313307	5786d6076475d400015a959e	172693384	1	practice_z	5	advance_on_keypress_ZEE	22	stimuli_distractor_trianglediamonds.svg	stimuli_target_circlediamonds.svg	10	yes	57	0	559
6.6.1	win	2022-12-15	07:11:56	07:17:13	316373	5786d6076475d400015a959e	172693384	1	practice_z	5	practice_z	23	stimuli_distractor_diamondtriangles.svg	stimuli_target_trianglecircles.svg	9	yes	44	1	869
6.6.1	win	2022-12-15	07:11:56	07:17:13	316373	5786d6076475d400015a959e	172693384	1	practice_z	5	advance_on_keypress_ZEE	24	stimuli_distractor_diamondtriangles.svg	stimuli_target_trianglecircles.svg	9	yes	57	0	1115
6.6.1	win	2022-12-15	07:11:56	07:17:18	321158	5786d6076475d400015a959e	172693384	1	practice_z	5	practice_z	25	stimuli_distractor_diamondtriangles.svg	stimuli_distractor_diamondtriangles.svg	13	no	0	1	2003
6.6.1	win	2022-12-15	07:11:56	07:17:18	321158	5786d6076475d400015a959e	172693384	1	practice_z	5	advance_on_keypress_ZEE	26	stimuli_distractor_diamondtriangles.svg	stimuli_distractor_diamondtriangles.svg	13	no	57	0	459
6.6.1	win	2022-12-15	07:11:56	07:17:21	324120	5786d6076475d400015a959e	172693384	1	practice_z	5	practice_z	27	stimuli_distractor_diamondtriangles.svg	stimuli_target_diamondcircles.svg	8	yes	44	1	868
6.6.1	win	2022-12-15	07:11:56	07:17:21	324120	5786d6076475d400015a959e	172693384	1	practice_z	5	advance_on_keypress_ZEE	28	stimuli_distractor_diamondtriangles.svg	stimuli_target_diamondcircles.svg	8	yes	57	0	688
6.6.1	win	2022-12-15	07:11:56	07:17:25	328450	5786d6076475d400015a959e	172693384	1	practice_z	5	practice_z	29	stimuli_distractor_diamondtriangles.svg	stimuli_distractor_trianglediamonds.svg	14	no	0	1	2003
6.6.1	win	2022-12-15	07:11:56	07:17:25	328450	5786d6076475d400015a959e	172693384	1	practice_z	5	advance_on_keypress_ZEE	30	stimuli_distractor_diamondtriangles.svg	stimuli_distractor_trianglediamonds.svg	14	no	57	0	281
6.6.1	win	2022-12-15	07:11:56	07:17:28	331244	5786d6076475d400015a959e	172693384	1	practice_z	5	practice_z	31	stimuli_distractor_trianglediamonds.svg	stimuli_target_squarediamonds.svg	11	yes	44	1	877
6.6.1	win	2022-12-15	07:11:56	07:17:28	331244	5786d6076475d400015a959e	172693384	1	practice_z	5	advance_on_keypress_ZEE	32	stimuli_distractor_trianglediamonds.svg	stimuli_target_squarediamonds.svg	11	yes	57	0	448
6.6.1	win	2022-12-15	07:11:56	07:17:49	352568	5786d6076475d400015a959e	172693384	1	main_z	7	main_z	1	stimuli_target_squarediamonds.svg	stimuli_distractor_diamondtriangles.svg	8	yes	44	1	1052
6.6.1	win	2022-12-15	07:11:56	07:17:49	352568	5786d6076475d400015a959e	172693384	1	main_z	7	advance_on_keypress_ZEE	2	stimuli_target_squarediamonds.svg	stimuli_distractor_diamondtriangles.svg	8	yes	57	0	1019
6.6.1	win	2022-12-15	07:11:56	07:17:53	356227	5786d6076475d400015a959e	172693384	1	main_z	7	main_z	3	stimuli_target_diamondsquares.svg	stimuli_distractor_trianglediamonds.svg	20	yes	0	0	2003
6.6.1	win	2022-12-15	07:11:56	07:17:53	356227	5786d6076475d400015a959e	172693384	1	main_z	7	advance_on_keypress_ZEE	4	stimuli_target_diamondsquares.svg	stimuli_distractor_trianglediamonds.svg	20	yes	57	0	448
6.6.1	win	2022-12-15	07:11:56	07:17:56	359317	5786d6076475d400015a959e	172693384	1	main_z	7	main_z	5	stimuli_distractor_trianglediamonds.svg	stimuli_distractor_diamondtriangles.svg	35	no	0	1	2003
6.6.1	win	2022-12-15	07:11:56	07:17:56	359317	5786d6076475d400015a959e	172693384	1	main_z	7	advance_on_keypress_ZEE	6	stimuli_distractor_trianglediamonds.svg	stimuli_distractor_diamondtriangles.svg	35	no	57	0	325
6.6.1	win	2022-12-15	07:11:56	07:17:58	361036	5786d6076475d400015a959e	172693384	1	main_z	7	main_z	7	stimuli_distractor_diamondtriangles.svg	stimuli_target_diamondcircles.svg	31	yes	44	1	761
6.6.1	win	2022-12-15	07:11:56	07:17:58	361036	5786d6076475d400015a959e	172693384	1	main_z	7	advance_on_keypress_ZEE	8	stimuli_distractor_diamondtriangles.svg	stimuli_target_diamondcircles.svg	31	yes	57	0	709
6.6.1	win	2022-12-15	07:11:56	07:18:00	363330	5786d6076475d400015a959e	172693384	1	main_z	7	main_z	9	stimuli_distractor_diamondtriangles.svg	stimuli_target_trianglesquares.svg	30	yes	44	1	953
6.6.1	win	2022-12-15	07:11:56	07:18:00	363330	5786d6076475d400015a959e	172693384	1	main_z	7	advance_on_keypress_ZEE	10	stimuli_distractor_diamondtriangles.svg	stimuli_target_trianglesquares.svg	30	yes	57	0	725
6.6.1	win	2022-12-15	07:11:56	07:18:04	366678	5786d6076475d400015a959e	172693384	1	main_z	7	main_z	11	stimuli_distractor_diamondtriangles.svg	stimuli_distractor_trianglediamonds.svg	37	no	0	1	2003
6.6.1	win	2022-12-15	07:11:56	07:18:04	366678	5786d6076475d400015a959e	172693384	1	main_z	7	advance_on_keypress_ZEE	12	stimuli_distractor_diamondtriangles.svg	stimuli_distractor_trianglediamonds.svg	37	no	57	0	314
6.6.1	win	2022-12-15	07:11:56	07:18:06	369613	5786d6076475d400015a959e	172693384	1	main_z	7	main_z	13	stimuli_distractor_diamondtriangles.svg	stimuli_distractor_diamondtriangles.svg	40	no	0	1	2003
6.6.1	win	2022-12-15	07:11:56	07:18:06	369613	5786d6076475d400015a959e	172693384	1	main_z	7	advance_on_keypress_ZEE	14	stimuli_distractor_diamondtriangles.svg	stimuli_distractor_diamondtriangles.svg	40	no	57	0	528
6.6.1	win	2022-12-15	07:11:56	07:18:09	371669	5786d6076475d400015a959e	172693384	1	main_z	7	main_z	15	stimuli_target_circlediamonds.svg	stimuli_distractor_diamondtriangles.svg	6	yes	44	1	901
6.6.1	win	2022-12-15	07:11:56	07:18:09	371669	5786d6076475d400015a959e	172693384	1	main_z	7	advance_on_keypress_ZEE	16	stimuli_target_circlediamonds.svg	stimuli_distractor_diamondtriangles.svg	6	yes	57	0	1114
6.6.1	win	2022-12-15	07:11:56	07:18:11	374240	5786d6076475d400015a959e	172693384	1	main_z	7	main_z	17	stimuli_distractor_diamondtriangles.svg	stimuli_target_diamondsquares.svg	32	yes	44	1	829
6.6.1	win	2022-12-15	07:11:56	07:18:11	374240	5786d6076475d400015a959e	172693384	1	main_z	7	advance_on_keypress_ZEE	18	stimuli_distractor_diamondtriangles.svg	stimuli_target_diamondsquares.svg	32	yes	57	0	805
6.6.1	win	2022-12-15	07:11:56	07:18:13	376591	5786d6076475d400015a959e	172693384	1	main_z	7	main_z	19	stimuli_target_trianglecircles.svg	stimuli_distractor_diamondtriangles.svg	21	yes	44	1	904
6.6.1	win	2022-12-15	07:11:56	07:18:13	376591	5786d6076475d400015a959e	172693384	1	main_z	7	advance_on_keypress_ZEE	20	stimuli_target_trianglecircles.svg	stimuli_distractor_diamondtriangles.svg	21	yes	57	0	600
6.6.1	win	2022-12-15	07:11:56	07:18:17	379817	5786d6076475d400015a959e	172693384	1	main_z	7	main_z	21	stimuli_distractor_trianglediamonds.svg	stimuli_distractor_trianglediamonds.svg	33	no	0	1	2003
6.6.1	win	2022-12-15	07:11:56	07:18:17	379817	5786d6076475d400015a959e	172693384	1	main_z	7	advance_on_keypress_ZEE	22	stimuli_distractor_trianglediamonds.svg	stimuli_distractor_trianglediamonds.svg	33	no	57	0	315
6.6.1	win	2022-12-15	07:11:56	07:18:18	381614	5786d6076475d400015a959e	172693384	1	main_z	7	main_z	23	stimuli_target_squaretriangles.svg	stimuli_distractor_diamondtriangles.svg	7	yes	44	1	851
6.6.1	win	2022-12-15	07:11:56	07:18:18	381614	5786d6076475d400015a959e	172693384	1	main_z	7	advance_on_keypress_ZEE	24	stimuli_target_squaretriangles.svg	stimuli_distractor_diamondtriangles.svg	7	yes	57	0	724
6.6.1	win	2022-12-15	07:11:56	07:18:21	383878	5786d6076475d400015a959e	172693384	1	main_z	7	main_z	25	stimuli_target_trianglecircles.svg	stimuli_distractor_trianglediamonds.svg	17	yes	44	1	926
6.6.1	win	2022-12-15	07:11:56	07:18:21	383878	5786d6076475d400015a959e	172693384	1	main_z	7	advance_on_keypress_ZEE	26	stimuli_target_trianglecircles.svg	stimuli_distractor_trianglediamonds.svg	17	yes	57	0	653
6.6.1	win	2022-12-15	07:11:56	07:18:24	387149	5786d6076475d400015a959e	172693384	1	main_z	7	main_z	27	stimuli_distractor_diamondtriangles.svg	stimuli_distractor_trianglediamonds.svg	38	no	0	1	2003
6.6.1	win	2022-12-15	07:11:56	07:18:24	387149	5786d6076475d400015a959e	172693384	1	main_z	7	advance_on_keypress_ZEE	28	stimuli_distractor_diamondtriangles.svg	stimuli_distractor_trianglediamonds.svg	38	no	57	0	388
6.6.1	win	2022-12-15	07:11:56	07:18:26	389025	5786d6076475d400015a959e	172693384	1	main_z	7	main_z	29	stimuli_target_circletriangles.svg	stimuli_distractor_diamondtriangles.svg	5	yes	44	1	842
6.6.1	win	2022-12-15	07:11:56	07:18:26	389025	5786d6076475d400015a959e	172693384	1	main_z	7	advance_on_keypress_ZEE	30	stimuli_target_circletriangles.svg	stimuli_distractor_diamondtriangles.svg	5	yes	57	0	624
6.6.1	win	2022-12-15	07:11:56	07:18:28	391086	5786d6076475d400015a959e	172693384	1	main_z	7	main_z	31	stimuli_target_diamondcircles.svg	stimuli_distractor_diamondtriangles.svg	23	yes	44	1	794
6.6.1	win	2022-12-15	07:11:56	07:18:28	391086	5786d6076475d400015a959e	172693384	1	main_z	7	advance_on_keypress_ZEE	32	stimuli_target_diamondcircles.svg	stimuli_distractor_diamondtriangles.svg	23	yes	57	0	631
6.6.1	win	2022-12-15	07:11:56	07:18:30	393155	5786d6076475d400015a959e	172693384	1	main_z	7	main_z	33	stimuli_distractor_diamondtriangles.svg	stimuli_target_squarediamonds.svg	16	yes	44	1	795
6.6.1	win	2022-12-15	07:11:56	07:18:30	393155	5786d6076475d400015a959e	172693384	1	main_z	7	advance_on_keypress_ZEE	34	stimuli_distractor_diamondtriangles.svg	stimuli_target_squarediamonds.svg	16	yes	57	0	519
6.6.1	win	2022-12-15	07:11:56	07:18:32	395182	5786d6076475d400015a959e	172693384	1	main_z	7	main_z	35	stimuli_distractor_trianglediamonds.svg	stimuli_target_circletriangles.svg	9	yes	44	1	882
6.6.1	win	2022-12-15	07:11:56	07:18:32	395182	5786d6076475d400015a959e	172693384	1	main_z	7	advance_on_keypress_ZEE	36	stimuli_distractor_trianglediamonds.svg	stimuli_target_circletriangles.svg	9	yes	57	0	639
6.6.1	win	2022-12-15	07:11:56	07:18:34	397289	5786d6076475d400015a959e	172693384	1	main_z	7	main_z	37	stimuli_distractor_diamondtriangles.svg	stimuli_target_circletriangles.svg	13	yes	44	1	825
6.6.1	win	2022-12-15	07:11:56	07:18:34	397289	5786d6076475d400015a959e	172693384	1	main_z	7	advance_on_keypress_ZEE	38	stimuli_distractor_diamondtriangles.svg	stimuli_target_circletriangles.svg	13	yes	57	0	1617
6.6.1	win	2022-12-15	07:11:56	07:18:37	400370	5786d6076475d400015a959e	172693384	1	main_z	7	main_z	39	stimuli_distractor_trianglediamonds.svg	stimuli_target_squaretriangles.svg	11	yes	44	1	835
6.6.1	win	2022-12-15	07:11:56	07:18:37	400370	5786d6076475d400015a959e	172693384	1	main_z	7	advance_on_keypress_ZEE	40	stimuli_distractor_trianglediamonds.svg	stimuli_target_squaretriangles.svg	11	yes	57	0	608
6.6.1	win	2022-12-15	07:11:56	07:18:39	402513	5786d6076475d400015a959e	172693384	1	main_z	7	main_z	41	stimuli_target_circlediamonds.svg	stimuli_distractor_trianglediamonds.svg	2	yes	44	1	898
6.6.1	win	2022-12-15	07:11:56	07:18:39	402513	5786d6076475d400015a959e	172693384	1	main_z	7	advance_on_keypress_ZEE	42	stimuli_target_circlediamonds.svg	stimuli_distractor_trianglediamonds.svg	2	yes	57	0	667
6.6.1	win	2022-12-15	07:11:56	07:18:42	404684	5786d6076475d400015a959e	172693384	1	main_z	7	main_z	43	stimuli_distractor_diamondtriangles.svg	stimuli_target_squaretriangles.svg	15	yes	44	1	863
6.6.1	win	2022-12-15	07:11:56	07:18:42	404684	5786d6076475d400015a959e	172693384	1	main_z	7	advance_on_keypress_ZEE	44	stimuli_distractor_diamondtriangles.svg	stimuli_target_squaretriangles.svg	15	yes	57	0	570
6.6.1	win	2022-12-15	07:11:56	07:18:44	406802	5786d6076475d400015a959e	172693384	1	main_z	7	main_z	45	stimuli_target_squarediamonds.svg	stimuli_distractor_trianglediamonds.svg	4	yes	44	1	914
6.6.1	win	2022-12-15	07:11:56	07:18:44	406802	5786d6076475d400015a959e	172693384	1	main_z	7	advance_on_keypress_ZEE	46	stimuli_target_squarediamonds.svg	stimuli_distractor_trianglediamonds.svg	4	yes	57	0	3139
6.6.1	win	2022-12-15	07:11:56	07:18:49	412573	5786d6076475d400015a959e	172693384	1	main_z	7	main_z	47	stimuli_distractor_diamondtriangles.svg	stimuli_distractor_diamondtriangles.svg	39	no	0	1	2003
6.6.1	win	2022-12-15	07:11:56	07:18:49	412573	5786d6076475d400015a959e	172693384	1	main_z	7	advance_on_keypress_ZEE	48	stimuli_distractor_diamondtriangles.svg	stimuli_distractor_diamondtriangles.svg	39	no	57	0	333
6.6.1	win	2022-12-15	07:11:56	07:18:51	414454	5786d6076475d400015a959e	172693384	1	main_z	7	main_z	49	stimuli_target_circletriangles.svg	stimuli_distractor_trianglediamonds.svg	1	yes	44	1	925
6.6.1	win	2022-12-15	07:11:56	07:18:51	414454	5786d6076475d400015a959e	172693384	1	main_z	7	advance_on_keypress_ZEE	50	stimuli_target_circletriangles.svg	stimuli_distractor_trianglediamonds.svg	1	yes	57	0	822
6.6.1	win	2022-12-15	07:11:56	07:18:54	416868	5786d6076475d400015a959e	172693384	1	main_z	7	main_z	51	stimuli_target_trianglesquares.svg	stimuli_distractor_diamondtriangles.svg	22	yes	44	1	980
6.6.1	win	2022-12-15	07:11:56	07:18:54	416868	5786d6076475d400015a959e	172693384	1	main_z	7	advance_on_keypress_ZEE	52	stimuli_target_trianglesquares.svg	stimuli_distractor_diamondtriangles.svg	22	yes	57	0	631
6.6.1	win	2022-12-15	07:11:56	07:18:56	419064	5786d6076475d400015a959e	172693384	1	main_z	7	main_z	53	stimuli_distractor_trianglediamonds.svg	stimuli_target_diamondcircles.svg	27	yes	44	1	945
6.6.1	win	2022-12-15	07:11:56	07:18:56	419064	5786d6076475d400015a959e	172693384	1	main_z	7	advance_on_keypress_ZEE	54	stimuli_distractor_trianglediamonds.svg	stimuli_target_diamondcircles.svg	27	yes	57	0	630
6.6.1	win	2022-12-15	07:11:56	07:18:58	421228	5786d6076475d400015a959e	172693384	1	main_z	7	main_z	55	stimuli_distractor_diamondtriangles.svg	stimuli_target_trianglecircles.svg	29	yes	44	1	891
6.6.1	win	2022-12-15	07:11:56	07:18:58	421228	5786d6076475d400015a959e	172693384	1	main_z	7	advance_on_keypress_ZEE	56	stimuli_distractor_diamondtriangles.svg	stimuli_target_trianglecircles.svg	29	yes	57	0	556
6.6.1	win	2022-12-15	07:11:56	07:19:00	423287	5786d6076475d400015a959e	172693384	1	main_z	7	main_z	57	stimuli_distractor_trianglediamonds.svg	stimuli_target_trianglesquares.svg	26	yes	44	1	850
6.6.1	win	2022-12-15	07:11:56	07:19:00	423287	5786d6076475d400015a959e	172693384	1	main_z	7	advance_on_keypress_ZEE	58	stimuli_distractor_trianglediamonds.svg	stimuli_target_trianglesquares.svg	26	yes	57	0	516
6.6.1	win	2022-12-15	07:11:56	07:19:02	425387	5786d6076475d400015a959e	172693384	1	main_z	7	main_z	59	stimuli_distractor_diamondtriangles.svg	stimuli_target_circlediamonds.svg	14	yes	44	1	942
6.6.1	win	2022-12-15	07:11:56	07:19:02	425387	5786d6076475d400015a959e	172693384	1	main_z	7	advance_on_keypress_ZEE	60	stimuli_distractor_diamondtriangles.svg	stimuli_target_circlediamonds.svg	14	yes	57	0	611
6.6.1	win	2022-12-15	07:11:56	07:19:04	427432	5786d6076475d400015a959e	172693384	1	main_z	7	main_z	61	stimuli_target_squaretriangles.svg	stimuli_distractor_trianglediamonds.svg	3	yes	44	1	808
6.6.1	win	2022-12-15	07:11:56	07:19:04	427432	5786d6076475d400015a959e	172693384	1	main_z	7	advance_on_keypress_ZEE	62	stimuli_target_squaretriangles.svg	stimuli_distractor_trianglediamonds.svg	3	yes	57	0	671
6.6.1	win	2022-12-15	07:11:56	07:19:08	430746	5786d6076475d400015a959e	172693384	1	main_z	7	main_z	63	stimuli_target_diamondsquares.svg	stimuli_distractor_diamondtriangles.svg	24	yes	0	0	2003
6.6.1	win	2022-12-15	07:11:56	07:19:08	430746	5786d6076475d400015a959e	172693384	1	main_z	7	advance_on_keypress_ZEE	64	stimuli_target_diamondsquares.svg	stimuli_distractor_diamondtriangles.svg	24	yes	57	0	470
6.6.1	win	2022-12-15	07:11:56	07:19:10	432665	5786d6076475d400015a959e	172693384	1	main_z	7	main_z	65	stimuli_target_trianglesquares.svg	stimuli_distractor_trianglediamonds.svg	18	yes	44	1	822
6.6.1	win	2022-12-15	07:11:56	07:19:10	432665	5786d6076475d400015a959e	172693384	1	main_z	7	advance_on_keypress_ZEE	66	stimuli_target_trianglesquares.svg	stimuli_distractor_trianglediamonds.svg	18	yes	57	0	546
6.6.1	win	2022-12-15	07:11:56	07:19:13	435853	5786d6076475d400015a959e	172693384	1	main_z	7	main_z	67	stimuli_distractor_trianglediamonds.svg	stimuli_target_diamondsquares.svg	28	yes	0	0	2003
6.6.1	win	2022-12-15	07:11:56	07:19:13	435853	5786d6076475d400015a959e	172693384	1	main_z	7	advance_on_keypress_ZEE	68	stimuli_distractor_trianglediamonds.svg	stimuli_target_diamondsquares.svg	28	yes	57	0	619
6.6.1	win	2022-12-15	07:11:56	07:19:15	437890	5786d6076475d400015a959e	172693384	1	main_z	7	main_z	69	stimuli_distractor_trianglediamonds.svg	stimuli_target_trianglecircles.svg	25	yes	44	1	802
6.6.1	win	2022-12-15	07:11:56	07:19:15	437890	5786d6076475d400015a959e	172693384	1	main_z	7	advance_on_keypress_ZEE	70	stimuli_distractor_trianglediamonds.svg	stimuli_target_trianglecircles.svg	25	yes	57	0	562
6.6.1	win	2022-12-15	07:11:56	07:19:18	441088	5786d6076475d400015a959e	172693384	1	main_z	7	main_z	71	stimuli_distractor_trianglediamonds.svg	stimuli_distractor_trianglediamonds.svg	34	no	0	1	2003
6.6.1	win	2022-12-15	07:11:56	07:19:18	441088	5786d6076475d400015a959e	172693384	1	main_z	7	advance_on_keypress_ZEE	72	stimuli_distractor_trianglediamonds.svg	stimuli_distractor_trianglediamonds.svg	34	no	57	0	362
6.6.1	win	2022-12-15	07:11:56	07:19:20	442901	5786d6076475d400015a959e	172693384	1	main_z	7	main_z	73	stimuli_distractor_trianglediamonds.svg	stimuli_target_circlediamonds.svg	10	yes	44	1	810
6.6.1	win	2022-12-15	07:11:56	07:19:20	442901	5786d6076475d400015a959e	172693384	1	main_z	7	advance_on_keypress_ZEE	74	stimuli_distractor_trianglediamonds.svg	stimuli_target_circlediamonds.svg	10	yes	57	0	578
6.6.1	win	2022-12-15	07:11:56	07:19:22	444936	5786d6076475d400015a959e	172693384	1	main_z	7	main_z	75	stimuli_distractor_trianglediamonds.svg	stimuli_target_squarediamonds.svg	12	yes	44	1	830
6.6.1	win	2022-12-15	07:11:56	07:19:22	444936	5786d6076475d400015a959e	172693384	1	main_z	7	advance_on_keypress_ZEE	76	stimuli_distractor_trianglediamonds.svg	stimuli_target_squarediamonds.svg	12	yes	57	0	511
6.6.1	win	2022-12-15	07:11:56	07:19:24	446884	5786d6076475d400015a959e	172693384	1	main_z	7	main_z	77	stimuli_target_diamondcircles.svg	stimuli_distractor_trianglediamonds.svg	19	yes	44	1	810
6.6.1	win	2022-12-15	07:11:56	07:19:24	446884	5786d6076475d400015a959e	172693384	1	main_z	7	advance_on_keypress_ZEE	78	stimuli_target_diamondcircles.svg	stimuli_distractor_trianglediamonds.svg	19	yes	57	0	507
6.6.1	win	2022-12-15	07:11:56	07:19:27	450031	5786d6076475d400015a959e	172693384	1	main_z	7	main_z	79	stimuli_distractor_trianglediamonds.svg	stimuli_distractor_diamondtriangles.svg	36	no	0	1	2003
6.6.1	win	2022-12-15	07:11:56	07:19:27	450031	5786d6076475d400015a959e	172693384	1	main_z	7	advance_on_keypress_ZEE	80	stimuli_distractor_trianglediamonds.svg	stimuli_distractor_diamondtriangles.svg	36	no	57	0	497
6.6.1	win	2022-12-15	07:11:56	07:19:29	452062	5786d6076475d400015a959e	172693384	1	main_z	7	main_z	81	stimuli_target_circletriangles.svg	stimuli_distractor_trianglediamonds.svg	1	yes	44	1	897
6.6.1	win	2022-12-15	07:11:56	07:19:29	452062	5786d6076475d400015a959e	172693384	1	main_z	7	advance_on_keypress_ZEE	82	stimuli_target_circletriangles.svg	stimuli_distractor_trianglediamonds.svg	1	yes	57	0	572
6.6.1	win	2022-12-15	07:11:56	07:19:31	454135	5786d6076475d400015a959e	172693384	1	main_z	7	main_z	83	stimuli_distractor_trianglediamonds.svg	stimuli_target_diamondcircles.svg	27	yes	44	1	860
6.6.1	win	2022-12-15	07:11:56	07:19:31	454135	5786d6076475d400015a959e	172693384	1	main_z	7	advance_on_keypress_ZEE	84	stimuli_distractor_trianglediamonds.svg	stimuli_target_diamondcircles.svg	27	yes	57	0	629
6.6.1	win	2022-12-15	07:11:56	07:19:33	456287	5786d6076475d400015a959e	172693384	1	main_z	7	main_z	85	stimuli_distractor_trianglediamonds.svg	stimuli_target_circletriangles.svg	9	yes	44	1	878
6.6.1	win	2022-12-15	07:11:56	07:19:33	456287	5786d6076475d400015a959e	172693384	1	main_z	7	advance_on_keypress_ZEE	86	stimuli_distractor_trianglediamonds.svg	stimuli_target_circletriangles.svg	9	yes	57	0	564
6.6.1	win	2022-12-15	07:11:56	07:19:35	458335	5786d6076475d400015a959e	172693384	1	main_z	7	main_z	87	stimuli_target_circletriangles.svg	stimuli_distractor_diamondtriangles.svg	5	yes	44	1	846
6.6.1	win	2022-12-15	07:11:56	07:19:35	458335	5786d6076475d400015a959e	172693384	1	main_z	7	advance_on_keypress_ZEE	88	stimuli_target_circletriangles.svg	stimuli_distractor_diamondtriangles.svg	5	yes	57	0	634
6.6.1	win	2022-12-15	07:11:56	07:19:37	460554	5786d6076475d400015a959e	172693384	1	main_z	7	main_z	89	stimuli_target_squarediamonds.svg	stimuli_distractor_trianglediamonds.svg	4	yes	44	1	934
6.6.1	win	2022-12-15	07:11:56	07:19:37	460554	5786d6076475d400015a959e	172693384	1	main_z	7	advance_on_keypress_ZEE	90	stimuli_target_squarediamonds.svg	stimuli_distractor_trianglediamonds.svg	4	yes	57	0	458
6.6.1	win	2022-12-15	07:11:56	07:19:39	462480	5786d6076475d400015a959e	172693384	1	main_z	7	main_z	91	stimuli_target_trianglesquares.svg	stimuli_distractor_trianglediamonds.svg	18	yes	44	1	837
6.6.1	win	2022-12-15	07:11:56	07:19:39	462480	5786d6076475d400015a959e	172693384	1	main_z	7	advance_on_keypress_ZEE	92	stimuli_target_trianglesquares.svg	stimuli_distractor_trianglediamonds.svg	18	yes	57	0	538
6.6.1	win	2022-12-15	07:11:56	07:19:41	464621	5786d6076475d400015a959e	172693384	1	main_z	7	main_z	93	stimuli_target_squarediamonds.svg	stimuli_distractor_diamondtriangles.svg	8	yes	44	1	959
6.6.1	win	2022-12-15	07:11:56	07:19:41	464621	5786d6076475d400015a959e	172693384	1	main_z	7	advance_on_keypress_ZEE	94	stimuli_target_squarediamonds.svg	stimuli_distractor_diamondtriangles.svg	8	yes	57	0	553
6.6.1	win	2022-12-15	07:11:56	07:19:44	466731	5786d6076475d400015a959e	172693384	1	main_z	7	main_z	95	stimuli_target_trianglesquares.svg	stimuli_distractor_diamondtriangles.svg	22	yes	44	1	919
6.6.1	win	2022-12-15	07:11:56	07:19:44	466731	5786d6076475d400015a959e	172693384	1	main_z	7	advance_on_keypress_ZEE	96	stimuli_target_trianglesquares.svg	stimuli_distractor_diamondtriangles.svg	22	yes	57	0	494
6.6.1	win	2022-12-15	07:11:56	07:19:46	469010	5786d6076475d400015a959e	172693384	1	main_z	7	main_z	97	stimuli_distractor_diamondtriangles.svg	stimuli_target_diamondsquares.svg	32	yes	44	1	1150
6.6.1	win	2022-12-15	07:11:56	07:19:46	469010	5786d6076475d400015a959e	172693384	1	main_z	7	advance_on_keypress_ZEE	98	stimuli_distractor_diamondtriangles.svg	stimuli_target_diamondsquares.svg	32	yes	57	0	522
6.6.1	win	2022-12-15	07:11:56	07:19:49	472168	5786d6076475d400015a959e	172693384	1	main_z	7	main_z	99	stimuli_distractor_trianglediamonds.svg	stimuli_distractor_trianglediamonds.svg	34	no	0	1	2003
6.6.1	win	2022-12-15	07:11:56	07:19:49	472168	5786d6076475d400015a959e	172693384	1	main_z	7	advance_on_keypress_ZEE	100	stimuli_distractor_trianglediamonds.svg	stimuli_distractor_trianglediamonds.svg	34	no	57	0	376
6.6.1	win	2022-12-15	07:11:56	07:19:52	475176	5786d6076475d400015a959e	172693384	1	main_z	7	main_z	101	stimuli_distractor_diamondtriangles.svg	stimuli_distractor_diamondtriangles.svg	39	no	0	1	2003
6.6.1	win	2022-12-15	07:11:56	07:19:52	475176	5786d6076475d400015a959e	172693384	1	main_z	7	advance_on_keypress_ZEE	102	stimuli_distractor_diamondtriangles.svg	stimuli_distractor_diamondtriangles.svg	39	no	57	0	334
6.6.1	win	2022-12-15	07:11:56	07:19:55	478151	5786d6076475d400015a959e	172693384	1	main_z	7	main_z	103	stimuli_distractor_diamondtriangles.svg	stimuli_distractor_diamondtriangles.svg	40	no	0	1	2003
6.6.1	win	2022-12-15	07:11:56	07:19:55	478151	5786d6076475d400015a959e	172693384	1	main_z	7	advance_on_keypress_ZEE	104	stimuli_distractor_diamondtriangles.svg	stimuli_distractor_diamondtriangles.svg	40	no	57	0	294
6.6.1	win	2022-12-15	07:11:56	07:19:57	480102	5786d6076475d400015a959e	172693384	1	main_z	7	main_z	105	stimuli_distractor_diamondtriangles.svg	stimuli_target_squaretriangles.svg	15	yes	44	1	1016
6.6.1	win	2022-12-15	07:11:56	07:19:57	480102	5786d6076475d400015a959e	172693384	1	main_z	7	advance_on_keypress_ZEE	106	stimuli_distractor_diamondtriangles.svg	stimuli_target_squaretriangles.svg	15	yes	57	0	567
6.6.1	win	2022-12-15	07:11:56	07:20:00	482668	5786d6076475d400015a959e	172693384	1	main_z	7	main_z	107	stimuli_distractor_trianglediamonds.svg	stimuli_target_circlediamonds.svg	10	yes	44	1	1374
6.6.1	win	2022-12-15	07:11:56	07:20:00	482668	5786d6076475d400015a959e	172693384	1	main_z	7	advance_on_keypress_ZEE	108	stimuli_distractor_trianglediamonds.svg	stimuli_target_circlediamonds.svg	10	yes	57	0	511
6.6.1	win	2022-12-15	07:11:56	07:20:02	484792	5786d6076475d400015a959e	172693384	1	main_z	7	main_z	109	stimuli_target_diamondcircles.svg	stimuli_distractor_diamondtriangles.svg	23	yes	44	1	987
6.6.1	win	2022-12-15	07:11:56	07:20:02	484792	5786d6076475d400015a959e	172693384	1	main_z	7	advance_on_keypress_ZEE	110	stimuli_target_diamondcircles.svg	stimuli_distractor_diamondtriangles.svg	23	yes	57	0	453
6.6.1	win	2022-12-15	07:11:56	07:20:04	486746	5786d6076475d400015a959e	172693384	1	main_z	7	main_z	111	stimuli_distractor_diamondtriangles.svg	stimuli_target_diamondcircles.svg	31	yes	44	1	887
6.6.1	win	2022-12-15	07:11:56	07:20:04	486746	5786d6076475d400015a959e	172693384	1	main_z	7	advance_on_keypress_ZEE	112	stimuli_distractor_diamondtriangles.svg	stimuli_target_diamondcircles.svg	31	yes	57	0	428
6.6.1	win	2022-12-15	07:11:56	07:20:06	488976	5786d6076475d400015a959e	172693384	1	main_z	7	main_z	113	stimuli_distractor_diamondtriangles.svg	stimuli_target_trianglecircles.svg	29	yes	44	1	1163
6.6.1	win	2022-12-15	07:11:56	07:20:06	488976	5786d6076475d400015a959e	172693384	1	main_z	7	advance_on_keypress_ZEE	114	stimuli_distractor_diamondtriangles.svg	stimuli_target_trianglecircles.svg	29	yes	57	0	467
6.6.1	win	2022-12-15	07:11:56	07:20:08	491046	5786d6076475d400015a959e	172693384	1	main_z	7	main_z	115	stimuli_target_diamondcircles.svg	stimuli_distractor_trianglediamonds.svg	19	yes	44	1	982
6.6.1	win	2022-12-15	07:11:56	07:20:08	491046	5786d6076475d400015a959e	172693384	1	main_z	7	advance_on_keypress_ZEE	116	stimuli_target_diamondcircles.svg	stimuli_distractor_trianglediamonds.svg	19	yes	57	0	404
6.6.1	win	2022-12-15	07:11:56	07:20:10	493196	5786d6076475d400015a959e	172693384	1	main_z	7	main_z	117	stimuli_distractor_diamondtriangles.svg	stimuli_target_squarediamonds.svg	16	yes	44	1	1113
6.6.1	win	2022-12-15	07:11:56	07:20:10	493196	5786d6076475d400015a959e	172693384	1	main_z	7	advance_on_keypress_ZEE	118	stimuli_distractor_diamondtriangles.svg	stimuli_target_squarediamonds.svg	16	yes	57	0	451
6.6.1	win	2022-12-15	07:11:56	07:20:13	496291	5786d6076475d400015a959e	172693384	1	main_z	7	main_z	119	stimuli_distractor_trianglediamonds.svg	stimuli_distractor_diamondtriangles.svg	36	no	0	1	2003
6.6.1	win	2022-12-15	07:11:56	07:20:13	496291	5786d6076475d400015a959e	172693384	1	main_z	7	advance_on_keypress_ZEE	120	stimuli_distractor_trianglediamonds.svg	stimuli_distractor_diamondtriangles.svg	36	no	57	0	308
6.6.1	win	2022-12-15	07:11:56	07:20:15	498210	5786d6076475d400015a959e	172693384	1	main_z	7	main_z	121	stimuli_target_diamondsquares.svg	stimuli_distractor_trianglediamonds.svg	20	yes	44	1	978
6.6.1	win	2022-12-15	07:11:56	07:20:15	498210	5786d6076475d400015a959e	172693384	1	main_z	7	advance_on_keypress_ZEE	122	stimuli_target_diamondsquares.svg	stimuli_distractor_trianglediamonds.svg	20	yes	57	0	468
6.6.1	win	2022-12-15	07:11:56	07:20:17	500329	5786d6076475d400015a959e	172693384	1	main_z	7	main_z	123	stimuli_distractor_trianglediamonds.svg	stimuli_target_trianglecircles.svg	25	yes	44	1	1023
6.6.1	win	2022-12-15	07:11:56	07:20:17	500329	5786d6076475d400015a959e	172693384	1	main_z	7	advance_on_keypress_ZEE	124	stimuli_distractor_trianglediamonds.svg	stimuli_target_trianglecircles.svg	25	yes	57	0	470
6.6.1	win	2022-12-15	07:11:56	07:20:19	502357	5786d6076475d400015a959e	172693384	1	main_z	7	main_z	125	stimuli_target_circlediamonds.svg	stimuli_distractor_trianglediamonds.svg	2	yes	44	1	920
6.6.1	win	2022-12-15	07:11:56	07:20:19	502357	5786d6076475d400015a959e	172693384	1	main_z	7	advance_on_keypress_ZEE	126	stimuli_target_circlediamonds.svg	stimuli_distractor_trianglediamonds.svg	2	yes	57	0	400
6.6.1	win	2022-12-15	07:11:56	07:20:21	504355	5786d6076475d400015a959e	172693384	1	main_z	7	main_z	127	stimuli_target_squaretriangles.svg	stimuli_distractor_diamondtriangles.svg	7	yes	44	1	951
6.6.1	win	2022-12-15	07:11:56	07:20:21	504355	5786d6076475d400015a959e	172693384	1	main_z	7	advance_on_keypress_ZEE	128	stimuli_target_squaretriangles.svg	stimuli_distractor_diamondtriangles.svg	7	yes	57	0	443
6.6.1	win	2022-12-15	07:11:56	07:20:23	506356	5786d6076475d400015a959e	172693384	1	main_z	7	main_z	129	stimuli_distractor_trianglediamonds.svg	stimuli_target_diamondsquares.svg	28	yes	44	1	932
6.6.1	win	2022-12-15	07:11:56	07:20:23	506356	5786d6076475d400015a959e	172693384	1	main_z	7	advance_on_keypress_ZEE	130	stimuli_distractor_trianglediamonds.svg	stimuli_target_diamondsquares.svg	28	yes	57	0	391
6.6.1	win	2022-12-15	07:11:56	07:20:26	509376	5786d6076475d400015a959e	172693384	1	main_z	7	main_z	131	stimuli_distractor_trianglediamonds.svg	stimuli_distractor_diamondtriangles.svg	35	no	0	1	2003
6.6.1	win	2022-12-15	07:11:56	07:20:26	509376	5786d6076475d400015a959e	172693384	1	main_z	7	advance_on_keypress_ZEE	132	stimuli_distractor_trianglediamonds.svg	stimuli_distractor_diamondtriangles.svg	35	no	57	0	511
6.6.1	win	2022-12-15	07:11:56	07:20:28	511394	5786d6076475d400015a959e	172693384	1	main_z	7	main_z	133	stimuli_distractor_diamondtriangles.svg	stimuli_target_circletriangles.svg	13	yes	44	1	868
6.6.1	win	2022-12-15	07:11:56	07:20:28	511394	5786d6076475d400015a959e	172693384	1	main_z	7	advance_on_keypress_ZEE	134	stimuli_distractor_diamondtriangles.svg	stimuli_target_circletriangles.svg	13	yes	57	0	495
6.6.1	win	2022-12-15	07:11:56	07:20:31	514537	5786d6076475d400015a959e	172693384	1	main_z	7	main_z	135	stimuli_distractor_diamondtriangles.svg	stimuli_distractor_trianglediamonds.svg	37	no	0	1	2003
6.6.1	win	2022-12-15	07:11:56	07:20:31	514537	5786d6076475d400015a959e	172693384	1	main_z	7	advance_on_keypress_ZEE	136	stimuli_distractor_diamondtriangles.svg	stimuli_distractor_trianglediamonds.svg	37	no	57	0	343
6.6.1	win	2022-12-15	07:11:56	07:20:33	516344	5786d6076475d400015a959e	172693384	1	main_z	7	main_z	137	stimuli_distractor_trianglediamonds.svg	stimuli_target_squarediamonds.svg	12	yes	44	1	835
6.6.1	win	2022-12-15	07:11:56	07:20:33	516344	5786d6076475d400015a959e	172693384	1	main_z	7	advance_on_keypress_ZEE	138	stimuli_distractor_trianglediamonds.svg	stimuli_target_squarediamonds.svg	12	yes	57	0	535
6.6.1	win	2022-12-15	07:11:56	07:20:35	518466	5786d6076475d400015a959e	172693384	1	main_z	7	main_z	139	stimuli_distractor_diamondtriangles.svg	stimuli_target_trianglesquares.svg	30	yes	44	1	955
6.6.1	win	2022-12-15	07:11:56	07:20:35	518466	5786d6076475d400015a959e	172693384	1	main_z	7	advance_on_keypress_ZEE	140	stimuli_distractor_diamondtriangles.svg	stimuli_target_trianglesquares.svg	30	yes	57	0	408
6.6.1	win	2022-12-15	07:11:56	07:20:37	520468	5786d6076475d400015a959e	172693384	1	main_z	7	main_z	141	stimuli_distractor_diamondtriangles.svg	stimuli_target_circlediamonds.svg	14	yes	44	1	966
6.6.1	win	2022-12-15	07:11:56	07:20:37	520468	5786d6076475d400015a959e	172693384	1	main_z	7	advance_on_keypress_ZEE	142	stimuli_distractor_diamondtriangles.svg	stimuli_target_circlediamonds.svg	14	yes	57	0	441
6.6.1	win	2022-12-15	07:11:56	07:20:39	522520	5786d6076475d400015a959e	172693384	1	main_z	7	main_z	143	stimuli_target_trianglecircles.svg	stimuli_distractor_trianglediamonds.svg	17	yes	44	1	992
6.6.1	win	2022-12-15	07:11:56	07:20:39	522520	5786d6076475d400015a959e	172693384	1	main_z	7	advance_on_keypress_ZEE	144	stimuli_target_trianglecircles.svg	stimuli_distractor_trianglediamonds.svg	17	yes	57	0	525
6.6.1	win	2022-12-15	07:11:56	07:20:42	524700	5786d6076475d400015a959e	172693384	1	main_z	7	main_z	145	stimuli_target_squaretriangles.svg	stimuli_distractor_trianglediamonds.svg	3	yes	44	1	1035
6.6.1	win	2022-12-15	07:11:56	07:20:42	524700	5786d6076475d400015a959e	172693384	1	main_z	7	advance_on_keypress_ZEE	146	stimuli_target_squaretriangles.svg	stimuli_distractor_trianglediamonds.svg	3	yes	57	0	434
6.6.1	win	2022-12-15	07:11:56	07:20:43	526575	5786d6076475d400015a959e	172693384	1	main_z	7	main_z	147	stimuli_distractor_trianglediamonds.svg	stimuli_target_squaretriangles.svg	11	yes	44	1	812
6.6.1	win	2022-12-15	07:11:56	07:20:43	526575	5786d6076475d400015a959e	172693384	1	main_z	7	advance_on_keypress_ZEE	148	stimuli_distractor_trianglediamonds.svg	stimuli_target_squaretriangles.svg	11	yes	57	0	648
6.6.1	win	2022-12-15	07:11:56	07:20:46	528786	5786d6076475d400015a959e	172693384	1	main_z	7	main_z	149	stimuli_distractor_trianglediamonds.svg	stimuli_target_trianglesquares.svg	26	yes	44	1	930
6.6.1	win	2022-12-15	07:11:56	07:20:46	528786	5786d6076475d400015a959e	172693384	1	main_z	7	advance_on_keypress_ZEE	150	stimuli_distractor_trianglediamonds.svg	stimuli_target_trianglesquares.svg	26	yes	57	0	473
6.6.1	win	2022-12-15	07:11:56	07:20:48	530942	5786d6076475d400015a959e	172693384	1	main_z	7	main_z	151	stimuli_target_diamondsquares.svg	stimuli_distractor_diamondtriangles.svg	24	yes	44	1	1059
6.6.1	win	2022-12-15	07:11:56	07:20:48	530942	5786d6076475d400015a959e	172693384	1	main_z	7	advance_on_keypress_ZEE	152	stimuli_target_diamondsquares.svg	stimuli_distractor_diamondtriangles.svg	24	yes	57	0	399
6.6.1	win	2022-12-15	07:11:56	07:20:51	533997	5786d6076475d400015a959e	172693384	1	main_z	7	main_z	153	stimuli_distractor_trianglediamonds.svg	stimuli_distractor_trianglediamonds.svg	33	no	0	1	2003
6.6.1	win	2022-12-15	07:11:56	07:20:51	533997	5786d6076475d400015a959e	172693384	1	main_z	7	advance_on_keypress_ZEE	154	stimuli_distractor_trianglediamonds.svg	stimuli_distractor_trianglediamonds.svg	33	no	57	0	355
6.6.1	win	2022-12-15	07:11:56	07:20:53	535995	5786d6076475d400015a959e	172693384	1	main_z	7	main_z	155	stimuli_target_circlediamonds.svg	stimuli_distractor_diamondtriangles.svg	6	yes	44	1	1006
6.6.1	win	2022-12-15	07:11:56	07:20:53	535995	5786d6076475d400015a959e	172693384	1	main_z	7	advance_on_keypress_ZEE	156	stimuli_target_circlediamonds.svg	stimuli_distractor_diamondtriangles.svg	6	yes	57	0	413
6.6.1	win	2022-12-15	07:11:56	07:20:55	537997	5786d6076475d400015a959e	172693384	1	main_z	7	main_z	157	stimuli_target_trianglecircles.svg	stimuli_distractor_diamondtriangles.svg	21	yes	44	1	953
6.6.1	win	2022-12-15	07:11:56	07:20:55	537997	5786d6076475d400015a959e	172693384	1	main_z	7	advance_on_keypress_ZEE	158	stimuli_target_trianglecircles.svg	stimuli_distractor_diamondtriangles.svg	21	yes	57	0	350
6.6.1	win	2022-12-15	07:11:56	07:20:58	540976	5786d6076475d400015a959e	172693384	1	main_z	7	main_z	159	stimuli_distractor_diamondtriangles.svg	stimuli_distractor_trianglediamonds.svg	38	no	0	1	2003
6.6.1	win	2022-12-15	07:11:56	07:20:58	540976	5786d6076475d400015a959e	172693384	1	main_z	7	advance_on_keypress_ZEE	160	stimuli_distractor_diamondtriangles.svg	stimuli_distractor_trianglediamonds.svg	38	no	57	0	580
6.6.1	win	2022-12-15	07:11:56	07:21:55	597767	5786d6076475d400015a959e	172693384	1	practice_slash	9	practice_slash	1	stimuli_distractor_diamondtriangles.svg	stimuli_distractor_trianglediamonds.svg	14	no	0	1	2003
6.6.1	win	2022-12-15	07:11:56	07:21:55	597767	5786d6076475d400015a959e	172693384	1	practice_slash	9	advance_on_keypress_SLASH	2	stimuli_distractor_diamondtriangles.svg	stimuli_distractor_trianglediamonds.svg	14	no	57	0	803
6.6.1	win	2022-12-15	07:11:56	07:21:58	601033	5786d6076475d400015a959e	172693384	1	practice_slash	9	practice_slash	3	stimuli_distractor_trianglediamonds.svg	stimuli_target_diamondcircles.svg	12	yes	53	1	830
6.6.1	win	2022-12-15	07:11:56	07:21:58	601033	5786d6076475d400015a959e	172693384	1	practice_slash	9	advance_on_keypress_SLASH	4	stimuli_distractor_trianglediamonds.svg	stimuli_target_diamondcircles.svg	12	yes	57	0	562
6.6.1	win	2022-12-15	07:11:56	07:22:02	605236	5786d6076475d400015a959e	172693384	1	practice_slash	9	practice_slash	5	stimuli_distractor_trianglediamonds.svg	stimuli_distractor_diamondtriangles.svg	16	no	0	1	2003
6.6.1	win	2022-12-15	07:11:56	07:22:02	605236	5786d6076475d400015a959e	172693384	1	practice_slash	9	advance_on_keypress_SLASH	6	stimuli_distractor_trianglediamonds.svg	stimuli_distractor_diamondtriangles.svg	16	no	57	0	538
6.6.1	win	2022-12-15	07:11:56	07:22:05	608125	5786d6076475d400015a959e	172693384	1	practice_slash	9	practice_slash	7	stimuli_distractor_diamondtriangles.svg	stimuli_target_trianglecircles.svg	9	yes	53	1	726
6.6.1	win	2022-12-15	07:11:56	07:22:05	608125	5786d6076475d400015a959e	172693384	1	practice_slash	9	advance_on_keypress_SLASH	8	stimuli_distractor_diamondtriangles.svg	stimuli_target_trianglecircles.svg	9	yes	57	0	457
6.6.1	win	2022-12-15	07:11:56	07:22:08	611044	5786d6076475d400015a959e	172693384	1	practice_slash	9	practice_slash	9	stimuli_target_squarediamonds.svg	stimuli_distractor_diamondtriangles.svg	2	yes	53	1	826
6.6.1	win	2022-12-15	07:11:56	07:22:08	611044	5786d6076475d400015a959e	172693384	1	practice_slash	9	advance_on_keypress_SLASH	10	stimuli_target_squarediamonds.svg	stimuli_distractor_diamondtriangles.svg	2	yes	57	0	420
6.6.1	win	2022-12-15	07:11:56	07:22:11	613807	5786d6076475d400015a959e	172693384	1	practice_slash	9	practice_slash	11	stimuli_target_diamondsquares.svg	stimuli_distractor_diamondtriangles.svg	3	yes	53	1	701
6.6.1	win	2022-12-15	07:11:56	07:22:11	613807	5786d6076475d400015a959e	172693384	1	practice_slash	9	advance_on_keypress_SLASH	12	stimuli_target_diamondsquares.svg	stimuli_distractor_diamondtriangles.svg	3	yes	57	0	436
6.6.1	win	2022-12-15	07:11:56	07:22:14	616649	5786d6076475d400015a959e	172693384	1	practice_slash	9	practice_slash	13	stimuli_target_circlediamonds.svg	stimuli_distractor_diamondtriangles.svg	1	yes	53	1	751
6.6.1	win	2022-12-15	07:11:56	07:22:14	616649	5786d6076475d400015a959e	172693384	1	practice_slash	9	advance_on_keypress_SLASH	14	stimuli_target_circlediamonds.svg	stimuli_distractor_diamondtriangles.svg	1	yes	57	0	324
6.6.1	win	2022-12-15	07:11:56	07:22:16	619292	5786d6076475d400015a959e	172693384	1	practice_slash	9	practice_slash	15	stimuli_target_squarediamonds.svg	stimuli_distractor_trianglediamonds.svg	5	yes	53	1	685
6.6.1	win	2022-12-15	07:11:56	07:22:16	619292	5786d6076475d400015a959e	172693384	1	practice_slash	9	advance_on_keypress_SLASH	16	stimuli_target_squarediamonds.svg	stimuli_distractor_trianglediamonds.svg	5	yes	57	0	366
6.6.1	win	2022-12-15	07:11:56	07:22:19	621973	5786d6076475d400015a959e	172693384	1	practice_slash	9	practice_slash	17	stimuli_target_circlediamonds.svg	stimuli_distractor_trianglediamonds.svg	4	yes	53	1	676
6.6.1	win	2022-12-15	07:11:56	07:22:19	621973	5786d6076475d400015a959e	172693384	1	practice_slash	9	advance_on_keypress_SLASH	18	stimuli_target_circlediamonds.svg	stimuli_distractor_trianglediamonds.svg	4	yes	57	0	338
6.6.1	win	2022-12-15	07:11:56	07:22:22	624760	5786d6076475d400015a959e	172693384	1	practice_slash	9	practice_slash	19	stimuli_target_diamondsquares.svg	stimuli_distractor_trianglediamonds.svg	6	yes	53	1	790
6.6.1	win	2022-12-15	07:11:56	07:22:22	624760	5786d6076475d400015a959e	172693384	1	practice_slash	9	advance_on_keypress_SLASH	20	stimuli_target_diamondsquares.svg	stimuli_distractor_trianglediamonds.svg	6	yes	57	0	419
6.6.1	win	2022-12-15	07:11:56	07:22:24	627570	5786d6076475d400015a959e	172693384	1	practice_slash	9	practice_slash	21	stimuli_distractor_diamondtriangles.svg	stimuli_distractor_diamondtriangles.svg	13	no	53	0	760
6.6.1	win	2022-12-15	07:11:56	07:22:24	627570	5786d6076475d400015a959e	172693384	1	practice_slash	9	advance_on_keypress_SLASH	22	stimuli_distractor_diamondtriangles.svg	stimuli_distractor_diamondtriangles.svg	13	no	57	0	505
6.6.1	win	2022-12-15	07:11:56	07:22:29	631717	5786d6076475d400015a959e	172693384	1	practice_slash	9	practice_slash	23	stimuli_distractor_trianglediamonds.svg	stimuli_distractor_trianglediamonds.svg	15	no	0	1	2003
6.6.1	win	2022-12-15	07:11:56	07:22:29	631717	5786d6076475d400015a959e	172693384	1	practice_slash	9	advance_on_keypress_SLASH	24	stimuli_distractor_trianglediamonds.svg	stimuli_distractor_trianglediamonds.svg	15	no	57	0	457
6.6.1	win	2022-12-15	07:11:56	07:22:31	634530	5786d6076475d400015a959e	172693384	1	practice_slash	9	practice_slash	25	stimuli_distractor_trianglediamonds.svg	stimuli_target_squarediamonds.svg	11	yes	53	1	703
6.6.1	win	2022-12-15	07:11:56	07:22:31	634530	5786d6076475d400015a959e	172693384	1	practice_slash	9	advance_on_keypress_SLASH	26	stimuli_distractor_trianglediamonds.svg	stimuli_target_squarediamonds.svg	11	yes	57	0	429
6.6.1	win	2022-12-15	07:11:56	07:22:34	637371	5786d6076475d400015a959e	172693384	1	practice_slash	9	practice_slash	27	stimuli_distractor_trianglediamonds.svg	stimuli_target_circlediamonds.svg	10	yes	53	1	747
6.6.1	win	2022-12-15	07:11:56	07:22:34	637371	5786d6076475d400015a959e	172693384	1	practice_slash	9	advance_on_keypress_SLASH	28	stimuli_distractor_trianglediamonds.svg	stimuli_target_circlediamonds.svg	10	yes	57	0	429
6.6.1	win	2022-12-15	07:11:56	07:22:37	640103	5786d6076475d400015a959e	172693384	1	practice_slash	9	practice_slash	29	stimuli_distractor_diamondtriangles.svg	stimuli_target_diamondcircles.svg	8	yes	53	1	664
6.6.1	win	2022-12-15	07:11:56	07:22:37	640103	5786d6076475d400015a959e	172693384	1	practice_slash	9	advance_on_keypress_SLASH	30	stimuli_distractor_diamondtriangles.svg	stimuli_target_diamondcircles.svg	8	yes	57	0	416
6.6.1	win	2022-12-15	07:11:56	07:22:40	642793	5786d6076475d400015a959e	172693384	1	practice_slash	9	practice_slash	31	stimuli_distractor_diamondtriangles.svg	stimuli_target_circletriangles.svg	7	yes	53	1	647
6.6.1	win	2022-12-15	07:11:56	07:22:40	642793	5786d6076475d400015a959e	172693384	1	practice_slash	9	advance_on_keypress_SLASH	32	stimuli_distractor_diamondtriangles.svg	stimuli_target_circletriangles.svg	7	yes	57	0	386
6.6.1	win	2022-12-15	07:11:56	07:22:47	649986	5786d6076475d400015a959e	172693384	1	main_slash	11	main_slash	1	stimuli_distractor_trianglediamonds.svg	stimuli_distractor_diamondtriangles.svg	36	no	53	0	755
6.6.1	win	2022-12-15	07:11:56	07:22:47	649986	5786d6076475d400015a959e	172693384	1	main_slash	11	advance_on_keypress_SLASH	2	stimuli_distractor_trianglediamonds.svg	stimuli_distractor_diamondtriangles.svg	36	no	57	0	820
6.6.1	win	2022-12-15	07:11:56	07:22:49	652110	5786d6076475d400015a959e	172693384	1	main_slash	11	main_slash	3	stimuli_distractor_diamondtriangles.svg	stimuli_target_circlediamonds.svg	14	yes	53	1	688
6.6.1	win	2022-12-15	07:11:56	07:22:49	652110	5786d6076475d400015a959e	172693384	1	main_slash	11	advance_on_keypress_SLASH	4	stimuli_distractor_diamondtriangles.svg	stimuli_target_circlediamonds.svg	14	yes	57	0	771
6.6.1	win	2022-12-15	07:11:56	07:22:52	655499	5786d6076475d400015a959e	172693384	1	main_slash	11	main_slash	5	stimuli_distractor_trianglediamonds.svg	stimuli_distractor_trianglediamonds.svg	34	no	0	1	2003
6.6.1	win	2022-12-15	07:11:56	07:22:52	655499	5786d6076475d400015a959e	172693384	1	main_slash	11	advance_on_keypress_SLASH	6	stimuli_distractor_trianglediamonds.svg	stimuli_distractor_trianglediamonds.svg	34	no	57	0	295
6.6.1	win	2022-12-15	07:11:56	07:22:55	658424	5786d6076475d400015a959e	172693384	1	main_slash	11	main_slash	7	stimuli_distractor_diamondtriangles.svg	stimuli_distractor_diamondtriangles.svg	39	no	0	1	2003
6.6.1	win	2022-12-15	07:11:56	07:22:55	658424	5786d6076475d400015a959e	172693384	1	main_slash	11	advance_on_keypress_SLASH	8	stimuli_distractor_diamondtriangles.svg	stimuli_distractor_diamondtriangles.svg	39	no	57	0	292
6.6.1	win	2022-12-15	07:11:56	07:22:57	660043	5786d6076475d400015a959e	172693384	1	main_slash	11	main_slash	9	stimuli_target_diamondcircles.svg	stimuli_distractor_diamondtriangles.svg	23	yes	53	1	689
6.6.1	win	2022-12-15	07:11:56	07:22:57	660043	5786d6076475d400015a959e	172693384	1	main_slash	11	advance_on_keypress_SLASH	10	stimuli_target_diamondcircles.svg	stimuli_distractor_diamondtriangles.svg	23	yes	57	0	807
6.6.1	win	2022-12-15	07:11:56	07:23:00	663480	5786d6076475d400015a959e	172693384	1	main_slash	11	main_slash	11	stimuli_distractor_trianglediamonds.svg	stimuli_distractor_trianglediamonds.svg	33	no	0	1	2003
6.6.1	win	2022-12-15	07:11:56	07:23:00	663480	5786d6076475d400015a959e	172693384	1	main_slash	11	advance_on_keypress_SLASH	12	stimuli_distractor_trianglediamonds.svg	stimuli_distractor_trianglediamonds.svg	33	no	57	0	333
6.6.1	win	2022-12-15	07:11:56	07:23:02	665092	5786d6076475d400015a959e	172693384	1	main_slash	11	main_slash	13	stimuli_target_squaretriangles.svg	stimuli_distractor_trianglediamonds.svg	3	yes	53	1	657
6.6.1	win	2022-12-15	07:11:56	07:23:02	665092	5786d6076475d400015a959e	172693384	1	main_slash	11	advance_on_keypress_SLASH	14	stimuli_target_squaretriangles.svg	stimuli_distractor_trianglediamonds.svg	3	yes	57	0	669
6.6.1	win	2022-12-15	07:11:56	07:23:04	667088	5786d6076475d400015a959e	172693384	1	main_slash	11	main_slash	15	stimuli_target_circlediamonds.svg	stimuli_distractor_trianglediamonds.svg	2	yes	53	1	690
6.6.1	win	2022-12-15	07:11:56	07:23:04	667088	5786d6076475d400015a959e	172693384	1	main_slash	11	advance_on_keypress_SLASH	16	stimuli_target_circlediamonds.svg	stimuli_distractor_trianglediamonds.svg	2	yes	57	0	560
6.6.1	win	2022-12-15	07:11:56	07:23:06	668995	5786d6076475d400015a959e	172693384	1	main_slash	11	main_slash	17	stimuli_distractor_trianglediamonds.svg	stimuli_target_circletriangles.svg	9	yes	53	1	688
6.6.1	win	2022-12-15	07:11:56	07:23:06	668995	5786d6076475d400015a959e	172693384	1	main_slash	11	advance_on_keypress_SLASH	18	stimuli_distractor_trianglediamonds.svg	stimuli_target_circletriangles.svg	9	yes	57	0	632
6.6.1	win	2022-12-15	07:11:56	07:23:08	670898	5786d6076475d400015a959e	172693384	1	main_slash	11	main_slash	19	stimuli_target_trianglesquares.svg	stimuli_distractor_trianglediamonds.svg	18	yes	53	1	624
6.6.1	win	2022-12-15	07:11:56	07:23:08	670898	5786d6076475d400015a959e	172693384	1	main_slash	11	advance_on_keypress_SLASH	20	stimuli_target_trianglesquares.svg	stimuli_distractor_trianglediamonds.svg	18	yes	57	0	605
6.6.1	win	2022-12-15	07:11:56	07:23:10	672772	5786d6076475d400015a959e	172693384	1	main_slash	11	main_slash	21	stimuli_distractor_diamondtriangles.svg	stimuli_target_trianglecircles.svg	29	yes	53	1	633
6.6.1	win	2022-12-15	07:11:56	07:23:10	672772	5786d6076475d400015a959e	172693384	1	main_slash	11	advance_on_keypress_SLASH	22	stimuli_distractor_diamondtriangles.svg	stimuli_target_trianglecircles.svg	29	yes	57	0	635
6.6.1	win	2022-12-15	07:11:56	07:23:11	674573	5786d6076475d400015a959e	172693384	1	main_slash	11	main_slash	23	stimuli_distractor_diamondtriangles.svg	stimuli_target_circletriangles.svg	13	yes	53	1	531
6.6.1	win	2022-12-15	07:11:56	07:23:11	674573	5786d6076475d400015a959e	172693384	1	main_slash	11	advance_on_keypress_SLASH	24	stimuli_distractor_diamondtriangles.svg	stimuli_target_circletriangles.svg	13	yes	57	0	560
6.6.1	win	2022-12-15	07:11:56	07:23:13	676322	5786d6076475d400015a959e	172693384	1	main_slash	11	main_slash	25	stimuli_target_trianglesquares.svg	stimuli_distractor_diamondtriangles.svg	22	yes	53	1	557
6.6.1	win	2022-12-15	07:11:56	07:23:13	676322	5786d6076475d400015a959e	172693384	1	main_slash	11	advance_on_keypress_SLASH	26	stimuli_target_trianglesquares.svg	stimuli_distractor_diamondtriangles.svg	22	yes	57	0	521
6.6.1	win	2022-12-15	07:11:56	07:23:15	678066	5786d6076475d400015a959e	172693384	1	main_slash	11	main_slash	27	stimuli_target_diamondsquares.svg	stimuli_distractor_trianglediamonds.svg	20	yes	53	1	607
6.6.1	win	2022-12-15	07:11:56	07:23:15	678066	5786d6076475d400015a959e	172693384	1	main_slash	11	advance_on_keypress_SLASH	28	stimuli_target_diamondsquares.svg	stimuli_distractor_trianglediamonds.svg	20	yes	57	0	534
6.6.1	win	2022-12-15	07:11:56	07:23:17	679857	5786d6076475d400015a959e	172693384	1	main_slash	11	main_slash	29	stimuli_distractor_trianglediamonds.svg	stimuli_target_diamondcircles.svg	27	yes	53	1	615
6.6.1	win	2022-12-15	07:11:56	07:23:17	679857	5786d6076475d400015a959e	172693384	1	main_slash	11	advance_on_keypress_SLASH	30	stimuli_distractor_trianglediamonds.svg	stimuli_target_diamondcircles.svg	27	yes	57	0	506
6.6.1	win	2022-12-15	07:11:56	07:23:18	681513	5786d6076475d400015a959e	172693384	1	main_slash	11	main_slash	31	stimuli_target_circletriangles.svg	stimuli_distractor_trianglediamonds.svg	1	yes	53	1	510
6.6.1	win	2022-12-15	07:11:56	07:23:18	681513	5786d6076475d400015a959e	172693384	1	main_slash	11	advance_on_keypress_SLASH	32	stimuli_target_circletriangles.svg	stimuli_distractor_trianglediamonds.svg	1	yes	57	0	488
6.6.1	win	2022-12-15	07:11:56	07:23:22	684639	5786d6076475d400015a959e	172693384	1	main_slash	11	main_slash	33	stimuli_distractor_diamondtriangles.svg	stimuli_distractor_trianglediamonds.svg	37	no	0	1	2003
6.6.1	win	2022-12-15	07:11:56	07:23:22	684639	5786d6076475d400015a959e	172693384	1	main_slash	11	advance_on_keypress_SLASH	34	stimuli_distractor_diamondtriangles.svg	stimuli_distractor_trianglediamonds.svg	37	no	57	0	301
6.6.1	win	2022-12-15	07:11:56	07:23:23	686040	5786d6076475d400015a959e	172693384	1	main_slash	11	main_slash	35	stimuli_distractor_trianglediamonds.svg	stimuli_target_trianglecircles.svg	25	yes	53	1	464
6.6.1	win	2022-12-15	07:11:56	07:23:23	686040	5786d6076475d400015a959e	172693384	1	main_slash	11	advance_on_keypress_SLASH	36	stimuli_distractor_trianglediamonds.svg	stimuli_target_trianglecircles.svg	25	yes	57	0	557
6.6.1	win	2022-12-15	07:11:56	07:23:25	687806	5786d6076475d400015a959e	172693384	1	main_slash	11	main_slash	37	stimuli_distractor_diamondtriangles.svg	stimuli_target_squaretriangles.svg	15	yes	53	1	571
6.6.1	win	2022-12-15	07:11:56	07:23:25	687806	5786d6076475d400015a959e	172693384	1	main_slash	11	advance_on_keypress_SLASH	38	stimuli_distractor_diamondtriangles.svg	stimuli_target_squaretriangles.svg	15	yes	57	0	468
6.6.1	win	2022-12-15	07:11:56	07:23:26	689492	5786d6076475d400015a959e	172693384	1	main_slash	11	main_slash	39	stimuli_target_trianglecircles.svg	stimuli_distractor_diamondtriangles.svg	21	yes	53	1	590
6.6.1	win	2022-12-15	07:11:56	07:23:26	689492	5786d6076475d400015a959e	172693384	1	main_slash	11	advance_on_keypress_SLASH	40	stimuli_target_trianglecircles.svg	stimuli_distractor_diamondtriangles.svg	21	yes	57	0	418
6.6.1	win	2022-12-15	07:11:56	07:23:28	691102	5786d6076475d400015a959e	172693384	1	main_slash	11	main_slash	41	stimuli_distractor_trianglediamonds.svg	stimuli_target_squaretriangles.svg	11	yes	53	1	553
6.6.1	win	2022-12-15	07:11:56	07:23:28	691102	5786d6076475d400015a959e	172693384	1	main_slash	11	advance_on_keypress_SLASH	42	stimuli_distractor_trianglediamonds.svg	stimuli_target_squaretriangles.svg	11	yes	57	0	406
6.6.1	win	2022-12-15	07:11:56	07:23:31	694133	5786d6076475d400015a959e	172693384	1	main_slash	11	main_slash	43	stimuli_distractor_diamondtriangles.svg	stimuli_distractor_trianglediamonds.svg	38	no	0	1	2003
6.6.1	win	2022-12-15	07:11:56	07:23:31	694133	5786d6076475d400015a959e	172693384	1	main_slash	11	advance_on_keypress_SLASH	44	stimuli_distractor_diamondtriangles.svg	stimuli_distractor_trianglediamonds.svg	38	no	57	0	343
6.6.1	win	2022-12-15	07:11:56	07:23:33	695764	5786d6076475d400015a959e	172693384	1	main_slash	11	main_slash	45	stimuli_distractor_trianglediamonds.svg	stimuli_target_diamondsquares.svg	28	yes	53	1	655
6.6.1	win	2022-12-15	07:11:56	07:23:33	695764	5786d6076475d400015a959e	172693384	1	main_slash	11	advance_on_keypress_SLASH	46	stimuli_distractor_trianglediamonds.svg	stimuli_target_diamondsquares.svg	28	yes	57	0	551
6.6.1	win	2022-12-15	07:11:56	07:23:34	697479	5786d6076475d400015a959e	172693384	1	main_slash	11	main_slash	47	stimuli_distractor_diamondtriangles.svg	stimuli_target_squarediamonds.svg	16	yes	53	1	532
6.6.1	win	2022-12-15	07:11:56	07:23:34	697479	5786d6076475d400015a959e	172693384	1	main_slash	11	advance_on_keypress_SLASH	48	stimuli_distractor_diamondtriangles.svg	stimuli_target_squarediamonds.svg	16	yes	57	0	531
6.6.1	win	2022-12-15	07:11:56	07:23:38	700648	5786d6076475d400015a959e	172693384	1	main_slash	11	main_slash	49	stimuli_distractor_trianglediamonds.svg	stimuli_distractor_diamondtriangles.svg	35	no	0	1	2003
6.6.1	win	2022-12-15	07:11:56	07:23:38	700648	5786d6076475d400015a959e	172693384	1	main_slash	11	advance_on_keypress_SLASH	50	stimuli_distractor_trianglediamonds.svg	stimuli_distractor_diamondtriangles.svg	35	no	57	0	459
6.6.1	win	2022-12-15	07:11:56	07:23:39	702272	5786d6076475d400015a959e	172693384	1	main_slash	11	main_slash	51	stimuli_target_squaretriangles.svg	stimuli_distractor_diamondtriangles.svg	7	yes	53	1	531
6.6.1	win	2022-12-15	07:11:56	07:23:39	702272	5786d6076475d400015a959e	172693384	1	main_slash	11	advance_on_keypress_SLASH	52	stimuli_target_squaretriangles.svg	stimuli_distractor_diamondtriangles.svg	7	yes	57	0	471
6.6.1	win	2022-12-15	07:11:56	07:23:41	703916	5786d6076475d400015a959e	172693384	1	main_slash	11	main_slash	53	stimuli_target_diamondsquares.svg	stimuli_distractor_diamondtriangles.svg	24	yes	53	1	543
6.6.1	win	2022-12-15	07:11:56	07:23:41	703916	5786d6076475d400015a959e	172693384	1	main_slash	11	advance_on_keypress_SLASH	54	stimuli_target_diamondsquares.svg	stimuli_distractor_diamondtriangles.svg	24	yes	57	0	799
6.6.1	win	2022-12-15	07:11:56	07:23:43	705810	5786d6076475d400015a959e	172693384	1	main_slash	11	main_slash	55	stimuli_target_circlediamonds.svg	stimuli_distractor_diamondtriangles.svg	6	yes	53	1	475
6.6.1	win	2022-12-15	07:11:56	07:23:43	705810	5786d6076475d400015a959e	172693384	1	main_slash	11	advance_on_keypress_SLASH	56	stimuli_target_circlediamonds.svg	stimuli_distractor_diamondtriangles.svg	6	yes	57	0	666
6.6.1	win	2022-12-15	07:11:56	07:23:44	707605	5786d6076475d400015a959e	172693384	1	main_slash	11	main_slash	57	stimuli_target_trianglecircles.svg	stimuli_distractor_trianglediamonds.svg	17	yes	53	1	499
6.6.1	win	2022-12-15	07:11:56	07:23:44	707605	5786d6076475d400015a959e	172693384	1	main_slash	11	advance_on_keypress_SLASH	58	stimuli_target_trianglecircles.svg	stimuli_distractor_trianglediamonds.svg	17	yes	57	0	436
6.6.1	win	2022-12-15	07:11:56	07:23:46	709197	5786d6076475d400015a959e	172693384	1	main_slash	11	main_slash	59	stimuli_target_diamondcircles.svg	stimuli_distractor_trianglediamonds.svg	19	yes	53	1	511
6.6.1	win	2022-12-15	07:11:56	07:23:46	709197	5786d6076475d400015a959e	172693384	1	main_slash	11	advance_on_keypress_SLASH	60	stimuli_target_diamondcircles.svg	stimuli_distractor_trianglediamonds.svg	19	yes	57	0	348
6.6.1	win	2022-12-15	07:11:56	07:23:48	710742	5786d6076475d400015a959e	172693384	1	main_slash	11	main_slash	61	stimuli_distractor_diamondtriangles.svg	stimuli_target_diamondcircles.svg	31	yes	53	1	561
6.6.1	win	2022-12-15	07:11:56	07:23:48	710742	5786d6076475d400015a959e	172693384	1	main_slash	11	advance_on_keypress_SLASH	62	stimuli_distractor_diamondtriangles.svg	stimuli_target_diamondcircles.svg	31	yes	57	0	349
6.6.1	win	2022-12-15	07:11:56	07:23:49	712257	5786d6076475d400015a959e	172693384	1	main_slash	11	main_slash	63	stimuli_distractor_trianglediamonds.svg	stimuli_target_circlediamonds.svg	10	yes	53	1	529
6.6.1	win	2022-12-15	07:11:56	07:23:49	712257	5786d6076475d400015a959e	172693384	1	main_slash	11	advance_on_keypress_SLASH	64	stimuli_distractor_trianglediamonds.svg	stimuli_target_circlediamonds.svg	10	yes	57	0	321
6.6.1	win	2022-12-15	07:11:56	07:23:52	715226	5786d6076475d400015a959e	172693384	1	main_slash	11	main_slash	65	stimuli_distractor_diamondtriangles.svg	stimuli_distractor_diamondtriangles.svg	40	no	0	1	2003
6.6.1	win	2022-12-15	07:11:56	07:23:52	715226	5786d6076475d400015a959e	172693384	1	main_slash	11	advance_on_keypress_SLASH	66	stimuli_distractor_diamondtriangles.svg	stimuli_distractor_diamondtriangles.svg	40	no	57	0	335
6.6.1	win	2022-12-15	07:11:56	07:23:53	716636	5786d6076475d400015a959e	172693384	1	main_slash	11	main_slash	67	stimuli_target_squarediamonds.svg	stimuli_distractor_trianglediamonds.svg	4	yes	53	1	422
6.6.1	win	2022-12-15	07:11:56	07:23:53	716636	5786d6076475d400015a959e	172693384	1	main_slash	11	advance_on_keypress_SLASH	68	stimuli_target_squarediamonds.svg	stimuli_distractor_trianglediamonds.svg	4	yes	57	0	469
6.6.1	win	2022-12-15	07:11:56	07:23:55	718263	5786d6076475d400015a959e	172693384	1	main_slash	11	main_slash	69	stimuli_target_circletriangles.svg	stimuli_distractor_diamondtriangles.svg	5	yes	53	1	535
6.6.1	win	2022-12-15	07:11:56	07:23:55	718263	5786d6076475d400015a959e	172693384	1	main_slash	11	advance_on_keypress_SLASH	70	stimuli_target_circletriangles.svg	stimuli_distractor_diamondtriangles.svg	5	yes	57	0	369
6.6.1	win	2022-12-15	07:11:56	07:23:57	719792	5786d6076475d400015a959e	172693384	1	main_slash	11	main_slash	71	stimuli_distractor_diamondtriangles.svg	stimuli_target_trianglesquares.svg	30	yes	53	1	539
6.6.1	win	2022-12-15	07:11:56	07:23:57	719792	5786d6076475d400015a959e	172693384	1	main_slash	11	advance_on_keypress_SLASH	72	stimuli_distractor_diamondtriangles.svg	stimuli_target_trianglesquares.svg	30	yes	57	0	396
6.6.1	win	2022-12-15	07:11:56	07:23:58	721367	5786d6076475d400015a959e	172693384	1	main_slash	11	main_slash	73	stimuli_distractor_trianglediamonds.svg	stimuli_target_trianglesquares.svg	26	yes	53	1	545
6.6.1	win	2022-12-15	07:11:56	07:23:58	721367	5786d6076475d400015a959e	172693384	1	main_slash	11	advance_on_keypress_SLASH	74	stimuli_distractor_trianglediamonds.svg	stimuli_target_trianglesquares.svg	26	yes	57	0	349
6.6.1	win	2022-12-15	07:11:56	07:24:00	722961	5786d6076475d400015a959e	172693384	1	main_slash	11	main_slash	75	stimuli_distractor_diamondtriangles.svg	stimuli_target_diamondsquares.svg	32	yes	53	1	611
6.6.1	win	2022-12-15	07:11:56	07:24:00	722961	5786d6076475d400015a959e	172693384	1	main_slash	11	advance_on_keypress_SLASH	76	stimuli_distractor_diamondtriangles.svg	stimuli_target_diamondsquares.svg	32	yes	57	0	357
6.6.1	win	2022-12-15	07:11:56	07:24:01	724536	5786d6076475d400015a959e	172693384	1	main_slash	11	main_slash	77	stimuli_target_squarediamonds.svg	stimuli_distractor_diamondtriangles.svg	8	yes	53	1	587
6.6.1	win	2022-12-15	07:11:56	07:24:01	724536	5786d6076475d400015a959e	172693384	1	main_slash	11	advance_on_keypress_SLASH	78	stimuli_target_squarediamonds.svg	stimuli_distractor_diamondtriangles.svg	8	yes	57	0	283
6.6.1	win	2022-12-15	07:11:56	07:24:03	725995	5786d6076475d400015a959e	172693384	1	main_slash	11	main_slash	79	stimuli_distractor_trianglediamonds.svg	stimuli_target_squarediamonds.svg	12	yes	53	1	536
6.6.1	win	2022-12-15	07:11:56	07:24:03	725995	5786d6076475d400015a959e	172693384	1	main_slash	11	advance_on_keypress_SLASH	80	stimuli_distractor_trianglediamonds.svg	stimuli_target_squarediamonds.svg	12	yes	57	0	280
6.6.1	win	2022-12-15	07:11:56	07:24:04	727366	5786d6076475d400015a959e	172693384	1	main_slash	11	main_slash	81	stimuli_target_circletriangles.svg	stimuli_distractor_trianglediamonds.svg	1	yes	53	1	449
6.6.1	win	2022-12-15	07:11:56	07:24:04	727366	5786d6076475d400015a959e	172693384	1	main_slash	11	advance_on_keypress_SLASH	82	stimuli_target_circletriangles.svg	stimuli_distractor_trianglediamonds.svg	1	yes	57	0	454
6.6.1	win	2022-12-15	07:11:56	07:24:06	728876	5786d6076475d400015a959e	172693384	1	main_slash	11	main_slash	83	stimuli_distractor_diamondtriangles.svg	stimuli_target_circlediamonds.svg	14	yes	53	1	426
6.6.1	win	2022-12-15	07:11:56	07:24:06	728876	5786d6076475d400015a959e	172693384	1	main_slash	11	advance_on_keypress_SLASH	84	stimuli_distractor_diamondtriangles.svg	stimuli_target_circlediamonds.svg	14	yes	57	0	348
6.6.1	win	2022-12-15	07:11:56	07:24:07	730434	5786d6076475d400015a959e	172693384	1	main_slash	11	main_slash	85	stimuli_target_trianglecircles.svg	stimuli_distractor_trianglediamonds.svg	17	yes	53	1	596
6.6.1	win	2022-12-15	07:11:56	07:24:07	730434	5786d6076475d400015a959e	172693384	1	main_slash	11	advance_on_keypress_SLASH	86	stimuli_target_trianglecircles.svg	stimuli_distractor_trianglediamonds.svg	17	yes	57	0	409
6.6.1	win	2022-12-15	07:11:56	07:24:09	731834	5786d6076475d400015a959e	172693384	1	main_slash	11	main_slash	87	stimuli_distractor_trianglediamonds.svg	stimuli_distractor_diamondtriangles.svg	35	no	53	0	365
6.6.1	win	2022-12-15	07:11:56	07:24:09	731834	5786d6076475d400015a959e	172693384	1	main_slash	11	advance_on_keypress_SLASH	88	stimuli_distractor_trianglediamonds.svg	stimuli_distractor_diamondtriangles.svg	35	no	57	0	399
6.6.1	win	2022-12-15	07:11:56	07:24:12	734868	5786d6076475d400015a959e	172693384	1	main_slash	11	main_slash	89	stimuli_distractor_diamondtriangles.svg	stimuli_distractor_diamondtriangles.svg	39	no	0	1	2003
6.6.1	win	2022-12-15	07:11:56	07:24:12	734868	5786d6076475d400015a959e	172693384	1	main_slash	11	advance_on_keypress_SLASH	90	stimuli_distractor_diamondtriangles.svg	stimuli_distractor_diamondtriangles.svg	39	no	57	0	582
6.6.1	win	2022-12-15	07:11:56	07:24:13	736550	5786d6076475d400015a959e	172693384	1	main_slash	11	main_slash	91	stimuli_distractor_diamondtriangles.svg	stimuli_target_circletriangles.svg	13	yes	53	1	478
6.6.1	win	2022-12-15	07:11:56	07:24:13	736550	5786d6076475d400015a959e	172693384	1	main_slash	11	advance_on_keypress_SLASH	92	stimuli_distractor_diamondtriangles.svg	stimuli_target_circletriangles.svg	13	yes	57	0	371
6.6.1	win	2022-12-15	07:11:56	07:24:16	739537	5786d6076475d400015a959e	172693384	1	main_slash	11	main_slash	93	stimuli_distractor_trianglediamonds.svg	stimuli_distractor_diamondtriangles.svg	36	no	0	1	2003
6.6.1	win	2022-12-15	07:11:56	07:24:16	739537	5786d6076475d400015a959e	172693384	1	main_slash	11	advance_on_keypress_SLASH	94	stimuli_distractor_trianglediamonds.svg	stimuli_distractor_diamondtriangles.svg	36	no	57	0	394
6.6.1	win	2022-12-15	07:11:56	07:24:18	741066	5786d6076475d400015a959e	172693384	1	main_slash	11	main_slash	95	stimuli_target_trianglesquares.svg	stimuli_distractor_diamondtriangles.svg	22	yes	53	1	500
6.6.1	win	2022-12-15	07:11:56	07:24:18	741066	5786d6076475d400015a959e	172693384	1	main_slash	11	advance_on_keypress_SLASH	96	stimuli_target_trianglesquares.svg	stimuli_distractor_diamondtriangles.svg	22	yes	57	0	387
6.6.1	win	2022-12-15	07:11:56	07:24:20	742653	5786d6076475d400015a959e	172693384	1	main_slash	11	main_slash	97	stimuli_target_circlediamonds.svg	stimuli_distractor_diamondtriangles.svg	6	yes	53	1	575
6.6.1	win	2022-12-15	07:11:56	07:24:20	742653	5786d6076475d400015a959e	172693384	1	main_slash	11	advance_on_keypress_SLASH	98	stimuli_target_circlediamonds.svg	stimuli_distractor_diamondtriangles.svg	6	yes	57	0	250
6.6.1	win	2022-12-15	07:11:56	07:24:21	744176	5786d6076475d400015a959e	172693384	1	main_slash	11	main_slash	99	stimuli_target_circletriangles.svg	stimuli_distractor_diamondtriangles.svg	5	yes	53	1	632
6.6.1	win	2022-12-15	07:11:56	07:24:21	744176	5786d6076475d400015a959e	172693384	1	main_slash	11	advance_on_keypress_SLASH	100	stimuli_target_circletriangles.svg	stimuli_distractor_diamondtriangles.svg	5	yes	57	0	339
6.6.1	win	2022-12-15	07:11:56	07:24:22	745636	5786d6076475d400015a959e	172693384	1	main_slash	11	main_slash	101	stimuli_distractor_diamondtriangles.svg	stimuli_target_diamondcircles.svg	31	yes	53	1	481
6.6.1	win	2022-12-15	07:11:56	07:24:22	745636	5786d6076475d400015a959e	172693384	1	main_slash	11	advance_on_keypress_SLASH	102	stimuli_distractor_diamondtriangles.svg	stimuli_target_diamondcircles.svg	31	yes	57	0	302
6.6.1	win	2022-12-15	07:11:56	07:24:24	747056	5786d6076475d400015a959e	172693384	1	main_slash	11	main_slash	103	stimuli_distractor_trianglediamonds.svg	stimuli_target_squarediamonds.svg	12	yes	53	1	480
6.6.1	win	2022-12-15	07:11:56	07:24:24	747056	5786d6076475d400015a959e	172693384	1	main_slash	11	advance_on_keypress_SLASH	104	stimuli_distractor_trianglediamonds.svg	stimuli_target_squarediamonds.svg	12	yes	57	0	667
6.6.1	win	2022-12-15	07:11:56	07:24:26	748855	5786d6076475d400015a959e	172693384	1	main_slash	11	main_slash	105	stimuli_target_squaretriangles.svg	stimuli_distractor_diamondtriangles.svg	7	yes	53	1	517
6.6.1	win	2022-12-15	07:11:56	07:24:26	748855	5786d6076475d400015a959e	172693384	1	main_slash	11	advance_on_keypress_SLASH	106	stimuli_target_squaretriangles.svg	stimuli_distractor_diamondtriangles.svg	7	yes	57	0	286
6.6.1	win	2022-12-15	07:11:56	07:24:29	751793	5786d6076475d400015a959e	172693384	1	main_slash	11	main_slash	107	stimuli_distractor_diamondtriangles.svg	stimuli_distractor_trianglediamonds.svg	37	no	0	1	2003
6.6.1	win	2022-12-15	07:11:56	07:24:29	751793	5786d6076475d400015a959e	172693384	1	main_slash	11	advance_on_keypress_SLASH	108	stimuli_distractor_diamondtriangles.svg	stimuli_distractor_trianglediamonds.svg	37	no	57	0	609
6.6.1	win	2022-12-15	07:11:56	07:24:32	755033	5786d6076475d400015a959e	172693384	1	main_slash	11	main_slash	109	stimuli_distractor_diamondtriangles.svg	stimuli_distractor_diamondtriangles.svg	40	no	0	1	2003
6.6.1	win	2022-12-15	07:11:56	07:24:32	755033	5786d6076475d400015a959e	172693384	1	main_slash	11	advance_on_keypress_SLASH	110	stimuli_distractor_diamondtriangles.svg	stimuli_distractor_diamondtriangles.svg	40	no	57	0	322
6.6.1	win	2022-12-15	07:11:56	07:24:33	756441	5786d6076475d400015a959e	172693384	1	main_slash	11	main_slash	111	stimuli_target_trianglesquares.svg	stimuli_distractor_trianglediamonds.svg	18	yes	53	1	457
6.6.1	win	2022-12-15	07:11:56	07:24:33	756441	5786d6076475d400015a959e	172693384	1	main_slash	11	advance_on_keypress_SLASH	112	stimuli_target_trianglesquares.svg	stimuli_distractor_trianglediamonds.svg	18	yes	57	0	428
6.6.1	win	2022-12-15	07:11:56	07:24:35	758073	5786d6076475d400015a959e	172693384	1	main_slash	11	main_slash	113	stimuli_distractor_trianglediamonds.svg	stimuli_target_trianglecircles.svg	25	yes	53	1	544
6.6.1	win	2022-12-15	07:11:56	07:24:35	758073	5786d6076475d400015a959e	172693384	1	main_slash	11	advance_on_keypress_SLASH	114	stimuli_distractor_trianglediamonds.svg	stimuli_target_trianglecircles.svg	25	yes	57	0	303
6.6.1	win	2022-12-15	07:11:56	07:24:36	759537	5786d6076475d400015a959e	172693384	1	main_slash	11	main_slash	115	stimuli_distractor_diamondtriangles.svg	stimuli_target_squarediamonds.svg	16	yes	53	1	533
6.6.1	win	2022-12-15	07:11:56	07:24:36	759537	5786d6076475d400015a959e	172693384	1	main_slash	11	advance_on_keypress_SLASH	116	stimuli_distractor_diamondtriangles.svg	stimuli_target_squarediamonds.svg	16	yes	57	0	278
6.6.1	win	2022-12-15	07:11:56	07:24:38	761379	5786d6076475d400015a959e	172693384	1	main_slash	11	main_slash	117	stimuli_target_diamondsquares.svg	stimuli_distractor_trianglediamonds.svg	20	yes	53	1	925
6.6.1	win	2022-12-15	07:11:56	07:24:38	761379	5786d6076475d400015a959e	172693384	1	main_slash	11	advance_on_keypress_SLASH	118	stimuli_target_diamondsquares.svg	stimuli_distractor_trianglediamonds.svg	20	yes	57	0	276
6.6.1	win	2022-12-15	07:11:56	07:24:40	762756	5786d6076475d400015a959e	172693384	1	main_slash	11	main_slash	119	stimuli_target_circlediamonds.svg	stimuli_distractor_trianglediamonds.svg	2	yes	53	1	469
6.6.1	win	2022-12-15	07:11:56	07:24:40	762756	5786d6076475d400015a959e	172693384	1	main_slash	11	advance_on_keypress_SLASH	120	stimuli_target_circlediamonds.svg	stimuli_distractor_trianglediamonds.svg	2	yes	57	0	327
6.6.1	win	2022-12-15	07:11:56	07:24:41	764235	5786d6076475d400015a959e	172693384	1	main_slash	11	main_slash	121	stimuli_target_trianglecircles.svg	stimuli_distractor_diamondtriangles.svg	21	yes	53	1	514
6.6.1	win	2022-12-15	07:11:56	07:24:41	764235	5786d6076475d400015a959e	172693384	1	main_slash	11	advance_on_keypress_SLASH	122	stimuli_target_trianglecircles.svg	stimuli_distractor_diamondtriangles.svg	21	yes	57	0	320
6.6.1	win	2022-12-15	07:11:56	07:24:43	765680	5786d6076475d400015a959e	172693384	1	main_slash	11	main_slash	123	stimuli_distractor_trianglediamonds.svg	stimuli_target_circletriangles.svg	9	yes	53	1	482
6.6.1	win	2022-12-15	07:11:56	07:24:43	765680	5786d6076475d400015a959e	172693384	1	main_slash	11	advance_on_keypress_SLASH	124	stimuli_distractor_trianglediamonds.svg	stimuli_target_circletriangles.svg	9	yes	57	0	323
6.6.1	win	2022-12-15	07:11:56	07:24:44	767195	5786d6076475d400015a959e	172693384	1	main_slash	11	main_slash	125	stimuli_target_diamondsquares.svg	stimuli_distractor_diamondtriangles.svg	24	yes	53	1	568
6.6.1	win	2022-12-15	07:11:56	07:24:44	767195	5786d6076475d400015a959e	172693384	1	main_slash	11	advance_on_keypress_SLASH	126	stimuli_target_diamondsquares.svg	stimuli_distractor_diamondtriangles.svg	24	yes	57	0	304
6.6.1	win	2022-12-15	07:11:56	07:24:46	768640	5786d6076475d400015a959e	172693384	1	main_slash	11	main_slash	127	stimuli_distractor_diamondtriangles.svg	stimuli_target_diamondsquares.svg	32	yes	53	1	498
6.6.1	win	2022-12-15	07:11:56	07:24:46	768640	5786d6076475d400015a959e	172693384	1	main_slash	11	advance_on_keypress_SLASH	128	stimuli_distractor_diamondtriangles.svg	stimuli_target_diamondsquares.svg	32	yes	57	0	342
6.6.1	win	2022-12-15	07:11:56	07:24:47	770149	5786d6076475d400015a959e	172693384	1	main_slash	11	main_slash	129	stimuli_target_squarediamonds.svg	stimuli_distractor_diamondtriangles.svg	8	yes	53	1	532
6.6.1	win	2022-12-15	07:11:56	07:24:47	770149	5786d6076475d400015a959e	172693384	1	main_slash	11	advance_on_keypress_SLASH	130	stimuli_target_squarediamonds.svg	stimuli_distractor_diamondtriangles.svg	8	yes	57	0	348
6.6.1	win	2022-12-15	07:11:56	07:24:49	771636	5786d6076475d400015a959e	172693384	1	main_slash	11	main_slash	131	stimuli_distractor_trianglediamonds.svg	stimuli_target_circlediamonds.svg	10	yes	53	1	503
6.6.1	win	2022-12-15	07:11:56	07:24:49	771636	5786d6076475d400015a959e	172693384	1	main_slash	11	advance_on_keypress_SLASH	132	stimuli_distractor_trianglediamonds.svg	stimuli_target_circlediamonds.svg	10	yes	57	0	309
6.6.1	win	2022-12-15	07:11:56	07:24:50	773199	5786d6076475d400015a959e	172693384	1	main_slash	11	main_slash	133	stimuli_distractor_trianglediamonds.svg	stimuli_target_diamondcircles.svg	27	yes	53	1	614
6.6.1	win	2022-12-15	07:11:56	07:24:50	773199	5786d6076475d400015a959e	172693384	1	main_slash	11	advance_on_keypress_SLASH	134	stimuli_distractor_trianglediamonds.svg	stimuli_target_diamondcircles.svg	27	yes	57	0	343
6.6.1	win	2022-12-15	07:11:56	07:24:51	774617	5786d6076475d400015a959e	172693384	1	main_slash	11	main_slash	135	stimuli_distractor_trianglediamonds.svg	stimuli_target_trianglesquares.svg	26	yes	53	1	440
6.6.1	win	2022-12-15	07:11:56	07:24:51	774617	5786d6076475d400015a959e	172693384	1	main_slash	11	advance_on_keypress_SLASH	136	stimuli_distractor_trianglediamonds.svg	stimuli_target_trianglesquares.svg	26	yes	57	0	285
6.6.1	win	2022-12-15	07:11:56	07:24:53	776040	5786d6076475d400015a959e	172693384	1	main_slash	11	main_slash	137	stimuli_distractor_trianglediamonds.svg	stimuli_target_squaretriangles.svg	11	yes	53	1	502
6.6.1	win	2022-12-15	07:11:56	07:24:53	776040	5786d6076475d400015a959e	172693384	1	main_slash	11	advance_on_keypress_SLASH	138	stimuli_distractor_trianglediamonds.svg	stimuli_target_squaretriangles.svg	11	yes	57	0	332
6.6.1	win	2022-12-15	07:11:56	07:24:54	777460	5786d6076475d400015a959e	172693384	1	main_slash	11	main_slash	139	stimuli_target_squaretriangles.svg	stimuli_distractor_trianglediamonds.svg	3	yes	53	1	457
6.6.1	win	2022-12-15	07:11:56	07:24:54	777460	5786d6076475d400015a959e	172693384	1	main_slash	11	advance_on_keypress_SLASH	140	stimuli_target_squaretriangles.svg	stimuli_distractor_trianglediamonds.svg	3	yes	57	0	306
6.6.1	win	2022-12-15	07:11:56	07:24:57	780402	5786d6076475d400015a959e	172693384	1	main_slash	11	main_slash	141	stimuli_distractor_trianglediamonds.svg	stimuli_distractor_trianglediamonds.svg	34	no	0	1	2003
6.6.1	win	2022-12-15	07:11:56	07:24:57	780402	5786d6076475d400015a959e	172693384	1	main_slash	11	advance_on_keypress_SLASH	142	stimuli_distractor_trianglediamonds.svg	stimuli_distractor_trianglediamonds.svg	34	no	57	0	555
6.6.1	win	2022-12-15	07:11:56	07:24:59	782050	5786d6076475d400015a959e	172693384	1	main_slash	11	main_slash	143	stimuli_distractor_diamondtriangles.svg	stimuli_target_trianglesquares.svg	30	yes	53	1	445
6.6.1	win	2022-12-15	07:11:56	07:24:59	782050	5786d6076475d400015a959e	172693384	1	main_slash	11	advance_on_keypress_SLASH	144	stimuli_distractor_diamondtriangles.svg	stimuli_target_trianglesquares.svg	30	yes	57	0	359
6.6.1	win	2022-12-15	07:11:56	07:25:02	785042	5786d6076475d400015a959e	172693384	1	main_slash	11	main_slash	145	stimuli_distractor_trianglediamonds.svg	stimuli_distractor_trianglediamonds.svg	33	no	0	1	2003
6.6.1	win	2022-12-15	07:11:56	07:25:02	785042	5786d6076475d400015a959e	172693384	1	main_slash	11	advance_on_keypress_SLASH	146	stimuli_distractor_trianglediamonds.svg	stimuli_distractor_trianglediamonds.svg	33	no	57	0	346
6.6.1	win	2022-12-15	07:11:56	07:25:03	786488	5786d6076475d400015a959e	172693384	1	main_slash	11	main_slash	147	stimuli_target_squarediamonds.svg	stimuli_distractor_trianglediamonds.svg	4	yes	53	1	474
6.6.1	win	2022-12-15	07:11:56	07:25:03	786488	5786d6076475d400015a959e	172693384	1	main_slash	11	advance_on_keypress_SLASH	148	stimuli_target_squarediamonds.svg	stimuli_distractor_trianglediamonds.svg	4	yes	57	0	324
6.6.1	win	2022-12-15	07:11:56	07:25:05	787925	5786d6076475d400015a959e	172693384	1	main_slash	11	main_slash	149	stimuli_distractor_diamondtriangles.svg	stimuli_target_trianglecircles.svg	29	yes	53	1	490
6.6.1	win	2022-12-15	07:11:56	07:25:05	787925	5786d6076475d400015a959e	172693384	1	main_slash	11	advance_on_keypress_SLASH	150	stimuli_distractor_diamondtriangles.svg	stimuli_target_trianglecircles.svg	29	yes	57	0	297
6.6.1	win	2022-12-15	07:11:56	07:25:06	789430	5786d6076475d400015a959e	172693384	1	main_slash	11	main_slash	151	stimuli_distractor_trianglediamonds.svg	stimuli_target_diamondsquares.svg	28	yes	53	1	566
6.6.1	win	2022-12-15	07:11:56	07:25:06	789430	5786d6076475d400015a959e	172693384	1	main_slash	11	advance_on_keypress_SLASH	152	stimuli_distractor_trianglediamonds.svg	stimuli_target_diamondsquares.svg	28	yes	57	0	355
6.6.1	win	2022-12-15	07:11:56	07:25:08	790868	5786d6076475d400015a959e	172693384	1	main_slash	11	main_slash	153	stimuli_distractor_diamondtriangles.svg	stimuli_distractor_trianglediamonds.svg	38	no	53	0	448
6.6.1	win	2022-12-15	07:11:56	07:25:08	790868	5786d6076475d400015a959e	172693384	1	main_slash	11	advance_on_keypress_SLASH	154	stimuli_distractor_diamondtriangles.svg	stimuli_distractor_trianglediamonds.svg	38	no	57	0	391
6.6.1	win	2022-12-15	07:11:56	07:25:10	792819	5786d6076475d400015a959e	172693384	1	main_slash	11	main_slash	155	stimuli_target_diamondcircles.svg	stimuli_distractor_diamondtriangles.svg	23	yes	53	1	918
6.6.1	win	2022-12-15	07:11:56	07:25:10	792819	5786d6076475d400015a959e	172693384	1	main_slash	11	advance_on_keypress_SLASH	156	stimuli_target_diamondcircles.svg	stimuli_distractor_diamondtriangles.svg	23	yes	57	0	247
6.6.1	win	2022-12-15	07:11:56	07:25:13	795715	5786d6076475d400015a959e	172693384	1	main_slash	11	main_slash	157	stimuli_target_diamondcircles.svg	stimuli_distractor_trianglediamonds.svg	19	yes	0	0	2003
6.6.1	win	2022-12-15	07:11:56	07:25:13	795715	5786d6076475d400015a959e	172693384	1	main_slash	11	advance_on_keypress_SLASH	158	stimuli_target_diamondcircles.svg	stimuli_distractor_trianglediamonds.svg	19	yes	57	0	1407
6.6.1	win	2022-12-15	07:11:56	07:25:15	798245	5786d6076475d400015a959e	172693384	1	main_slash	11	main_slash	159	stimuli_distractor_diamondtriangles.svg	stimuli_target_squaretriangles.svg	15	yes	53	1	497
6.6.1	win	2022-12-15	07:11:56	07:25:15	798245	5786d6076475d400015a959e	172693384	1	main_slash	11	advance_on_keypress_SLASH	160	stimuli_distractor_diamondtriangles.svg	stimuli_target_squaretriangles.svg	15	yes	57	0	324