build	computer.platform	date	time	timestamp	time_elapsed_ms	subject	group	session	blockcode	blocknum	trialcode	trialnum	stimulus_left	stimulus_right	stim_index	target_present	response	correct	latency
6.6.1	mac	2022-12-15	12:45:48	12:49:28	219420	6111782b298eff6c31853ea8	791734598	1	practice_z	5	practice_z	1	stimuli_distractor_trianglediamonds.svg	stimuli_target_squarediamonds.svg	11	yes	0	0	2000
6.6.1	mac	2022-12-15	12:45:48	12:49:28	219420	6111782b298eff6c31853ea8	791734598	1	practice_z	5	advance_on_keypress_ZEE	2	stimuli_distractor_trianglediamonds.svg	stimuli_target_squarediamonds.svg	11	yes	57	0	3284
6.6.1	mac	2022-12-15	12:45:48	12:49:35	226334	6111782b298eff6c31853ea8	791734598	1	practice_z	5	practice_z	3	stimuli_target_diamondsquares.svg	stimuli_distractor_diamondtriangles.svg	3	yes	0	0	2000
6.6.1	mac	2022-12-15	12:45:48	12:49:35	226334	6111782b298eff6c31853ea8	791734598	1	practice_z	5	advance_on_keypress_ZEE	4	stimuli_target_diamondsquares.svg	stimuli_distractor_diamondtriangles.svg	3	yes	57	0	1351
6.6.1	mac	2022-12-15	12:45:48	12:49:39	230321	6111782b298eff6c31853ea8	791734598	1	practice_z	5	practice_z	5	stimuli_target_circlediamonds.svg	stimuli_distractor_trianglediamonds.svg	4	yes	44	1	1000
6.6.1	mac	2022-12-15	12:45:48	12:49:39	230321	6111782b298eff6c31853ea8	791734598	1	practice_z	5	advance_on_keypress_ZEE	6	stimuli_target_circlediamonds.svg	stimuli_distractor_trianglediamonds.svg	4	yes	57	0	803
6.6.1	mac	2022-12-15	12:45:48	12:49:43	233713	6111782b298eff6c31853ea8	791734598	1	practice_z	5	practice_z	7	stimuli_distractor_diamondtriangles.svg	stimuli_target_circletriangles.svg	7	yes	44	1	960
6.6.1	mac	2022-12-15	12:45:48	12:49:43	233713	6111782b298eff6c31853ea8	791734598	1	practice_z	5	advance_on_keypress_ZEE	8	stimuli_distractor_diamondtriangles.svg	stimuli_target_circletriangles.svg	7	yes	57	0	2627
6.6.1	mac	2022-12-15	12:45:48	12:49:48	238715	6111782b298eff6c31853ea8	791734598	1	practice_z	5	practice_z	9	stimuli_distractor_trianglediamonds.svg	stimuli_target_circlediamonds.svg	10	yes	44	1	728
6.6.1	mac	2022-12-15	12:45:48	12:49:48	238715	6111782b298eff6c31853ea8	791734598	1	practice_z	5	advance_on_keypress_ZEE	10	stimuli_distractor_trianglediamonds.svg	stimuli_target_circlediamonds.svg	10	yes	57	0	563
6.6.1	mac	2022-12-15	12:45:48	12:49:51	242291	6111782b298eff6c31853ea8	791734598	1	practice_z	5	practice_z	11	stimuli_distractor_diamondtriangles.svg	stimuli_distractor_trianglediamonds.svg	14	no	44	0	1371
6.6.1	mac	2022-12-15	12:45:48	12:49:51	242291	6111782b298eff6c31853ea8	791734598	1	practice_z	5	advance_on_keypress_ZEE	12	stimuli_distractor_diamondtriangles.svg	stimuli_distractor_trianglediamonds.svg	14	no	57	0	827
6.6.1	mac	2022-12-15	12:45:48	12:49:56	246753	6111782b298eff6c31853ea8	791734598	1	practice_z	5	practice_z	13	stimuli_target_diamondsquares.svg	stimuli_distractor_trianglediamonds.svg	6	yes	0	0	2000
6.6.1	mac	2022-12-15	12:45:48	12:49:56	246753	6111782b298eff6c31853ea8	791734598	1	practice_z	5	advance_on_keypress_ZEE	14	stimuli_target_diamondsquares.svg	stimuli_distractor_trianglediamonds.svg	6	yes	57	0	526
6.6.1	mac	2022-12-15	12:45:48	12:49:59	249996	6111782b298eff6c31853ea8	791734598	1	practice_z	5	practice_z	15	stimuli_distractor_trianglediamonds.svg	stimuli_distractor_diamondtriangles.svg	16	no	44	0	1073
6.6.1	mac	2022-12-15	12:45:48	12:49:59	249996	6111782b298eff6c31853ea8	791734598	1	practice_z	5	advance_on_keypress_ZEE	16	stimuli_distractor_trianglediamonds.svg	stimuli_distractor_diamondtriangles.svg	16	no	57	0	1383
6.6.1	mac	2022-12-15	12:45:48	12:50:03	254182	6111782b298eff6c31853ea8	791734598	1	practice_z	5	practice_z	17	stimuli_distractor_diamondtriangles.svg	stimuli_target_diamondcircles.svg	8	yes	44	1	1159
6.6.1	mac	2022-12-15	12:45:48	12:50:03	254182	6111782b298eff6c31853ea8	791734598	1	practice_z	5	advance_on_keypress_ZEE	18	stimuli_distractor_diamondtriangles.svg	stimuli_target_diamondcircles.svg	8	yes	57	0	661
6.6.1	mac	2022-12-15	12:45:48	12:50:07	258485	6111782b298eff6c31853ea8	791734598	1	practice_z	5	practice_z	19	stimuli_distractor_trianglediamonds.svg	stimuli_distractor_trianglediamonds.svg	15	no	0	1	2000
6.6.1	mac	2022-12-15	12:45:48	12:50:07	258485	6111782b298eff6c31853ea8	791734598	1	practice_z	5	advance_on_keypress_ZEE	20	stimuli_distractor_trianglediamonds.svg	stimuli_distractor_trianglediamonds.svg	15	no	57	0	779
6.6.1	mac	2022-12-15	12:45:48	12:50:11	262268	6111782b298eff6c31853ea8	791734598	1	practice_z	5	practice_z	21	stimuli_target_squarediamonds.svg	stimuli_distractor_diamondtriangles.svg	2	yes	44	1	1364
6.6.1	mac	2022-12-15	12:45:48	12:50:11	262268	6111782b298eff6c31853ea8	791734598	1	practice_z	5	advance_on_keypress_ZEE	22	stimuli_target_squarediamonds.svg	stimuli_distractor_diamondtriangles.svg	2	yes	57	0	537
6.6.1	mac	2022-12-15	12:45:48	12:50:14	265337	6111782b298eff6c31853ea8	791734598	1	practice_z	5	practice_z	23	stimuli_target_squarediamonds.svg	stimuli_distractor_trianglediamonds.svg	5	yes	44	1	899
6.6.1	mac	2022-12-15	12:45:48	12:50:14	265337	6111782b298eff6c31853ea8	791734598	1	practice_z	5	advance_on_keypress_ZEE	24	stimuli_target_squarediamonds.svg	stimuli_distractor_trianglediamonds.svg	5	yes	57	0	487
6.6.1	mac	2022-12-15	12:45:48	12:50:18	269452	6111782b298eff6c31853ea8	791734598	1	practice_z	5	practice_z	25	stimuli_distractor_diamondtriangles.svg	stimuli_distractor_diamondtriangles.svg	13	no	0	1	2000
6.6.1	mac	2022-12-15	12:45:48	12:50:18	269452	6111782b298eff6c31853ea8	791734598	1	practice_z	5	advance_on_keypress_ZEE	26	stimuli_distractor_diamondtriangles.svg	stimuli_distractor_diamondtriangles.svg	13	no	57	0	434
6.6.1	mac	2022-12-15	12:45:48	12:50:21	272398	6111782b298eff6c31853ea8	791734598	1	practice_z	5	practice_z	27	stimuli_distractor_diamondtriangles.svg	stimuli_target_trianglecircles.svg	9	yes	44	1	877
6.6.1	mac	2022-12-15	12:45:48	12:50:21	272398	6111782b298eff6c31853ea8	791734598	1	practice_z	5	advance_on_keypress_ZEE	28	stimuli_distractor_diamondtriangles.svg	stimuli_target_trianglecircles.svg	9	yes	57	0	525
6.6.1	mac	2022-12-15	12:45:48	12:50:24	275509	6111782b298eff6c31853ea8	791734598	1	practice_z	5	practice_z	29	stimuli_target_circlediamonds.svg	stimuli_distractor_diamondtriangles.svg	1	yes	44	1	940
6.6.1	mac	2022-12-15	12:45:48	12:50:24	275509	6111782b298eff6c31853ea8	791734598	1	practice_z	5	advance_on_keypress_ZEE	30	stimuli_target_circlediamonds.svg	stimuli_distractor_diamondtriangles.svg	1	yes	57	0	645
6.6.1	mac	2022-12-15	12:45:48	12:50:27	278508	6111782b298eff6c31853ea8	791734598	1	practice_z	5	practice_z	31	stimuli_distractor_trianglediamonds.svg	stimuli_target_diamondcircles.svg	12	yes	44	1	704
6.6.1	mac	2022-12-15	12:45:48	12:50:27	278508	6111782b298eff6c31853ea8	791734598	1	practice_z	5	advance_on_keypress_ZEE	32	stimuli_distractor_trianglediamonds.svg	stimuli_target_diamondcircles.svg	12	yes	57	0	472
6.6.1	mac	2022-12-15	12:45:48	12:51:14	325645	6111782b298eff6c31853ea8	791734598	1	main_z	7	main_z	1	stimuli_distractor_diamondtriangles.svg	stimuli_target_circletriangles.svg	13	yes	44	1	397
6.6.1	mac	2022-12-15	12:45:48	12:51:14	325645	6111782b298eff6c31853ea8	791734598	1	main_z	7	advance_on_keypress_ZEE	2	stimuli_distractor_diamondtriangles.svg	stimuli_target_circletriangles.svg	13	yes	57	0	1049
6.6.1	mac	2022-12-15	12:45:48	12:51:17	327880	6111782b298eff6c31853ea8	791734598	1	main_z	7	main_z	3	stimuli_target_diamondsquares.svg	stimuli_distractor_trianglediamonds.svg	20	yes	44	1	549
6.6.1	mac	2022-12-15	12:45:48	12:51:17	327880	6111782b298eff6c31853ea8	791734598	1	main_z	7	advance_on_keypress_ZEE	4	stimuli_target_diamondsquares.svg	stimuli_distractor_trianglediamonds.svg	20	yes	57	0	511
6.6.1	mac	2022-12-15	12:45:48	12:51:20	331033	6111782b298eff6c31853ea8	791734598	1	main_z	7	main_z	5	stimuli_target_trianglesquares.svg	stimuli_distractor_trianglediamonds.svg	18	yes	0	0	2000
6.6.1	mac	2022-12-15	12:45:48	12:51:20	331033	6111782b298eff6c31853ea8	791734598	1	main_z	7	advance_on_keypress_ZEE	6	stimuli_target_trianglesquares.svg	stimuli_distractor_trianglediamonds.svg	18	yes	57	0	469
6.6.1	mac	2022-12-15	12:45:48	12:51:22	332710	6111782b298eff6c31853ea8	791734598	1	main_z	7	main_z	7	stimuli_distractor_diamondtriangles.svg	stimuli_target_diamondcircles.svg	31	yes	44	1	578
6.6.1	mac	2022-12-15	12:45:48	12:51:22	332710	6111782b298eff6c31853ea8	791734598	1	main_z	7	advance_on_keypress_ZEE	8	stimuli_distractor_diamondtriangles.svg	stimuli_target_diamondcircles.svg	31	yes	57	0	1250
6.6.1	mac	2022-12-15	12:45:48	12:51:24	335357	6111782b298eff6c31853ea8	791734598	1	main_z	7	main_z	9	stimuli_target_circlediamonds.svg	stimuli_distractor_diamondtriangles.svg	6	yes	44	1	755
6.6.1	mac	2022-12-15	12:45:48	12:51:24	335357	6111782b298eff6c31853ea8	791734598	1	main_z	7	advance_on_keypress_ZEE	10	stimuli_target_circlediamonds.svg	stimuli_distractor_diamondtriangles.svg	6	yes	57	0	568
6.6.1	mac	2022-12-15	12:45:48	12:51:27	338550	6111782b298eff6c31853ea8	791734598	1	main_z	7	main_z	11	stimuli_distractor_trianglediamonds.svg	stimuli_distractor_trianglediamonds.svg	33	no	0	1	2000
6.6.1	mac	2022-12-15	12:45:48	12:51:27	338550	6111782b298eff6c31853ea8	791734598	1	main_z	7	advance_on_keypress_ZEE	12	stimuli_distractor_trianglediamonds.svg	stimuli_distractor_trianglediamonds.svg	33	no	57	0	451
6.6.1	mac	2022-12-15	12:45:48	12:51:29	340482	6111782b298eff6c31853ea8	791734598	1	main_z	7	main_z	13	stimuli_distractor_diamondtriangles.svg	stimuli_target_squarediamonds.svg	16	yes	44	1	847
6.6.1	mac	2022-12-15	12:45:48	12:51:29	340482	6111782b298eff6c31853ea8	791734598	1	main_z	7	advance_on_keypress_ZEE	14	stimuli_distractor_diamondtriangles.svg	stimuli_target_squarediamonds.svg	16	yes	57	0	3414
6.6.1	mac	2022-12-15	12:45:48	12:51:34	345132	6111782b298eff6c31853ea8	791734598	1	main_z	7	main_z	15	stimuli_distractor_trianglediamonds.svg	stimuli_target_diamondcircles.svg	27	yes	44	1	599
6.6.1	mac	2022-12-15	12:45:48	12:51:34	345132	6111782b298eff6c31853ea8	791734598	1	main_z	7	advance_on_keypress_ZEE	16	stimuli_distractor_trianglediamonds.svg	stimuli_target_diamondcircles.svg	27	yes	57	0	1276
6.6.1	mac	2022-12-15	12:45:48	12:51:37	348103	6111782b298eff6c31853ea8	791734598	1	main_z	7	main_z	17	stimuli_target_squarediamonds.svg	stimuli_distractor_trianglediamonds.svg	4	yes	44	1	1051
6.6.1	mac	2022-12-15	12:45:48	12:51:37	348103	6111782b298eff6c31853ea8	791734598	1	main_z	7	advance_on_keypress_ZEE	18	stimuli_target_squarediamonds.svg	stimuli_distractor_trianglediamonds.svg	4	yes	57	0	930
6.6.1	mac	2022-12-15	12:45:48	12:51:39	350399	6111782b298eff6c31853ea8	791734598	1	main_z	7	main_z	19	stimuli_distractor_trianglediamonds.svg	stimuli_target_circletriangles.svg	9	yes	44	1	731
6.6.1	mac	2022-12-15	12:45:48	12:51:39	350399	6111782b298eff6c31853ea8	791734598	1	main_z	7	advance_on_keypress_ZEE	20	stimuli_distractor_trianglediamonds.svg	stimuli_target_circletriangles.svg	9	yes	57	0	874
6.6.1	mac	2022-12-15	12:45:48	12:51:42	352950	6111782b298eff6c31853ea8	791734598	1	main_z	7	main_z	21	stimuli_target_trianglecircles.svg	stimuli_distractor_trianglediamonds.svg	17	yes	44	1	1049
6.6.1	mac	2022-12-15	12:45:48	12:51:42	352950	6111782b298eff6c31853ea8	791734598	1	main_z	7	advance_on_keypress_ZEE	22	stimuli_target_trianglecircles.svg	stimuli_distractor_trianglediamonds.svg	17	yes	57	0	281
6.6.1	mac	2022-12-15	12:45:48	12:51:44	354693	6111782b298eff6c31853ea8	791734598	1	main_z	7	main_z	23	stimuli_target_circletriangles.svg	stimuli_distractor_trianglediamonds.svg	1	yes	44	1	825
6.6.1	mac	2022-12-15	12:45:48	12:51:44	354693	6111782b298eff6c31853ea8	791734598	1	main_z	7	advance_on_keypress_ZEE	24	stimuli_target_circletriangles.svg	stimuli_distractor_trianglediamonds.svg	1	yes	57	0	303
6.6.1	mac	2022-12-15	12:45:48	12:51:46	356683	6111782b298eff6c31853ea8	791734598	1	main_z	7	main_z	25	stimuli_distractor_trianglediamonds.svg	stimuli_target_trianglecircles.svg	25	yes	44	1	1048
6.6.1	mac	2022-12-15	12:45:48	12:51:46	356683	6111782b298eff6c31853ea8	791734598	1	main_z	7	advance_on_keypress_ZEE	26	stimuli_distractor_trianglediamonds.svg	stimuli_target_trianglecircles.svg	25	yes	57	0	290
6.6.1	mac	2022-12-15	12:45:48	12:51:48	359601	6111782b298eff6c31853ea8	791734598	1	main_z	7	main_z	27	stimuli_distractor_diamondtriangles.svg	stimuli_distractor_trianglediamonds.svg	38	no	0	1	2000
6.6.1	mac	2022-12-15	12:45:48	12:51:48	359601	6111782b298eff6c31853ea8	791734598	1	main_z	7	advance_on_keypress_ZEE	28	stimuli_distractor_diamondtriangles.svg	stimuli_distractor_trianglediamonds.svg	38	no	57	0	265
6.6.1	mac	2022-12-15	12:45:48	12:51:51	362499	6111782b298eff6c31853ea8	791734598	1	main_z	7	main_z	29	stimuli_distractor_diamondtriangles.svg	stimuli_target_diamondsquares.svg	32	yes	0	0	2000
6.6.1	mac	2022-12-15	12:45:48	12:51:51	362499	6111782b298eff6c31853ea8	791734598	1	main_z	7	advance_on_keypress_ZEE	30	stimuli_distractor_diamondtriangles.svg	stimuli_target_diamondsquares.svg	32	yes	57	0	248
6.6.1	mac	2022-12-15	12:45:48	12:51:54	365383	6111782b298eff6c31853ea8	791734598	1	main_z	7	main_z	31	stimuli_distractor_diamondtriangles.svg	stimuli_distractor_trianglediamonds.svg	37	no	0	1	2000
6.6.1	mac	2022-12-15	12:45:48	12:51:54	365383	6111782b298eff6c31853ea8	791734598	1	main_z	7	advance_on_keypress_ZEE	32	stimuli_distractor_diamondtriangles.svg	stimuli_distractor_trianglediamonds.svg	37	no	57	0	213
6.6.1	mac	2022-12-15	12:45:48	12:51:56	367282	6111782b298eff6c31853ea8	791734598	1	main_z	7	main_z	33	stimuli_target_squaretriangles.svg	stimuli_distractor_diamondtriangles.svg	7	yes	44	1	1046
6.6.1	mac	2022-12-15	12:45:48	12:51:56	367282	6111782b298eff6c31853ea8	791734598	1	main_z	7	advance_on_keypress_ZEE	34	stimuli_target_squaretriangles.svg	stimuli_distractor_diamondtriangles.svg	7	yes	57	0	894
6.6.1	mac	2022-12-15	12:45:48	12:51:59	369774	6111782b298eff6c31853ea8	791734598	1	main_z	7	main_z	35	stimuli_distractor_diamondtriangles.svg	stimuli_target_trianglesquares.svg	30	yes	44	1	957
6.6.1	mac	2022-12-15	12:45:48	12:51:59	369774	6111782b298eff6c31853ea8	791734598	1	main_z	7	advance_on_keypress_ZEE	36	stimuli_distractor_diamondtriangles.svg	stimuli_target_trianglesquares.svg	30	yes	57	0	594
6.6.1	mac	2022-12-15	12:45:48	12:52:01	371839	6111782b298eff6c31853ea8	791734598	1	main_z	7	main_z	37	stimuli_target_squaretriangles.svg	stimuli_distractor_trianglediamonds.svg	3	yes	44	1	839
6.6.1	mac	2022-12-15	12:45:48	12:52:01	371839	6111782b298eff6c31853ea8	791734598	1	main_z	7	advance_on_keypress_ZEE	38	stimuli_target_squaretriangles.svg	stimuli_distractor_trianglediamonds.svg	3	yes	57	0	336
6.6.1	mac	2022-12-15	12:45:48	12:52:03	374039	6111782b298eff6c31853ea8	791734598	1	main_z	7	main_z	39	stimuli_distractor_trianglediamonds.svg	stimuli_distractor_trianglediamonds.svg	34	no	44	0	1237
6.6.1	mac	2022-12-15	12:45:48	12:52:03	374039	6111782b298eff6c31853ea8	791734598	1	main_z	7	advance_on_keypress_ZEE	40	stimuli_distractor_trianglediamonds.svg	stimuli_distractor_trianglediamonds.svg	34	no	57	0	249
6.6.1	mac	2022-12-15	12:45:48	12:52:05	376003	6111782b298eff6c31853ea8	791734598	1	main_z	7	main_z	41	stimuli_distractor_trianglediamonds.svg	stimuli_target_trianglesquares.svg	26	yes	44	1	1086
6.6.1	mac	2022-12-15	12:45:48	12:52:05	376003	6111782b298eff6c31853ea8	791734598	1	main_z	7	advance_on_keypress_ZEE	42	stimuli_distractor_trianglediamonds.svg	stimuli_target_trianglesquares.svg	26	yes	57	0	278
6.6.1	mac	2022-12-15	12:45:48	12:52:07	377812	6111782b298eff6c31853ea8	791734598	1	main_z	7	main_z	43	stimuli_target_trianglecircles.svg	stimuli_distractor_diamondtriangles.svg	21	yes	44	1	894
6.6.1	mac	2022-12-15	12:45:48	12:52:07	377812	6111782b298eff6c31853ea8	791734598	1	main_z	7	advance_on_keypress_ZEE	44	stimuli_target_trianglecircles.svg	stimuli_distractor_diamondtriangles.svg	21	yes	57	0	239
6.6.1	mac	2022-12-15	12:45:48	12:52:09	379687	6111782b298eff6c31853ea8	791734598	1	main_z	7	main_z	45	stimuli_distractor_diamondtriangles.svg	stimuli_target_circlediamonds.svg	14	yes	44	1	1001
6.6.1	mac	2022-12-15	12:45:48	12:52:09	379687	6111782b298eff6c31853ea8	791734598	1	main_z	7	advance_on_keypress_ZEE	46	stimuli_distractor_diamondtriangles.svg	stimuli_target_circlediamonds.svg	14	yes	57	0	221
6.6.1	mac	2022-12-15	12:45:48	12:52:10	381451	6111782b298eff6c31853ea8	791734598	1	main_z	7	main_z	47	stimuli_target_diamondcircles.svg	stimuli_distractor_diamondtriangles.svg	23	yes	44	1	916
6.6.1	mac	2022-12-15	12:45:48	12:52:10	381451	6111782b298eff6c31853ea8	791734598	1	main_z	7	advance_on_keypress_ZEE	48	stimuli_target_diamondcircles.svg	stimuli_distractor_diamondtriangles.svg	23	yes	57	0	198
6.6.1	mac	2022-12-15	12:45:48	12:52:12	383411	6111782b298eff6c31853ea8	791734598	1	main_z	7	main_z	49	stimuli_distractor_trianglediamonds.svg	stimuli_target_squarediamonds.svg	12	yes	44	1	1126
6.6.1	mac	2022-12-15	12:45:48	12:52:12	383411	6111782b298eff6c31853ea8	791734598	1	main_z	7	advance_on_keypress_ZEE	50	stimuli_distractor_trianglediamonds.svg	stimuli_target_squarediamonds.svg	12	yes	57	0	231
6.6.1	mac	2022-12-15	12:45:48	12:52:15	386281	6111782b298eff6c31853ea8	791734598	1	main_z	7	main_z	51	stimuli_distractor_diamondtriangles.svg	stimuli_target_trianglecircles.svg	29	yes	0	0	2000
6.6.1	mac	2022-12-15	12:45:48	12:52:15	386281	6111782b298eff6c31853ea8	791734598	1	main_z	7	advance_on_keypress_ZEE	52	stimuli_distractor_diamondtriangles.svg	stimuli_target_trianglecircles.svg	29	yes	57	0	1563
6.6.1	mac	2022-12-15	12:45:48	12:52:19	390483	6111782b298eff6c31853ea8	791734598	1	main_z	7	main_z	53	stimuli_distractor_diamondtriangles.svg	stimuli_distractor_diamondtriangles.svg	40	no	0	1	2000
6.6.1	mac	2022-12-15	12:45:48	12:52:19	390483	6111782b298eff6c31853ea8	791734598	1	main_z	7	advance_on_keypress_ZEE	54	stimuli_distractor_diamondtriangles.svg	stimuli_distractor_diamondtriangles.svg	40	no	57	0	301
6.6.1	mac	2022-12-15	12:45:48	12:52:22	392775	6111782b298eff6c31853ea8	791734598	1	main_z	7	main_z	55	stimuli_distractor_trianglediamonds.svg	stimuli_target_circlediamonds.svg	10	yes	44	1	1357
6.6.1	mac	2022-12-15	12:45:48	12:52:22	392775	6111782b298eff6c31853ea8	791734598	1	main_z	7	advance_on_keypress_ZEE	56	stimuli_distractor_trianglediamonds.svg	stimuli_target_circlediamonds.svg	10	yes	57	0	261
6.6.1	mac	2022-12-15	12:45:48	12:52:24	395666	6111782b298eff6c31853ea8	791734598	1	main_z	7	main_z	57	stimuli_distractor_diamondtriangles.svg	stimuli_distractor_diamondtriangles.svg	39	no	0	1	2000
6.6.1	mac	2022-12-15	12:45:48	12:52:24	395666	6111782b298eff6c31853ea8	791734598	1	main_z	7	advance_on_keypress_ZEE	58	stimuli_distractor_diamondtriangles.svg	stimuli_distractor_diamondtriangles.svg	39	no	57	0	351
6.6.1	mac	2022-12-15	12:45:48	12:52:27	398436	6111782b298eff6c31853ea8	791734598	1	main_z	7	main_z	59	stimuli_distractor_trianglediamonds.svg	stimuli_distractor_diamondtriangles.svg	35	no	44	0	1784
6.6.1	mac	2022-12-15	12:45:48	12:52:27	398436	6111782b298eff6c31853ea8	791734598	1	main_z	7	advance_on_keypress_ZEE	60	stimuli_distractor_trianglediamonds.svg	stimuli_distractor_diamondtriangles.svg	35	no	57	0	828
6.6.1	mac	2022-12-15	12:45:48	12:52:30	400770	6111782b298eff6c31853ea8	791734598	1	main_z	7	main_z	61	stimuli_target_diamondsquares.svg	stimuli_distractor_diamondtriangles.svg	24	yes	44	1	871
6.6.1	mac	2022-12-15	12:45:48	12:52:30	400770	6111782b298eff6c31853ea8	791734598	1	main_z	7	advance_on_keypress_ZEE	62	stimuli_target_diamondsquares.svg	stimuli_distractor_diamondtriangles.svg	24	yes	57	0	522
6.6.1	mac	2022-12-15	12:45:48	12:52:32	402689	6111782b298eff6c31853ea8	791734598	1	main_z	7	main_z	63	stimuli_target_circlediamonds.svg	stimuli_distractor_trianglediamonds.svg	2	yes	44	1	771
6.6.1	mac	2022-12-15	12:45:48	12:52:32	402689	6111782b298eff6c31853ea8	791734598	1	main_z	7	advance_on_keypress_ZEE	64	stimuli_target_circlediamonds.svg	stimuli_distractor_trianglediamonds.svg	2	yes	57	0	226
6.6.1	mac	2022-12-15	12:45:48	12:52:33	404502	6111782b298eff6c31853ea8	791734598	1	main_z	7	main_z	65	stimuli_target_squarediamonds.svg	stimuli_distractor_diamondtriangles.svg	8	yes	44	1	965
6.6.1	mac	2022-12-15	12:45:48	12:52:33	404502	6111782b298eff6c31853ea8	791734598	1	main_z	7	advance_on_keypress_ZEE	66	stimuli_target_squarediamonds.svg	stimuli_distractor_diamondtriangles.svg	8	yes	57	0	242
6.6.1	mac	2022-12-15	12:45:48	12:52:35	406350	6111782b298eff6c31853ea8	791734598	1	main_z	7	main_z	67	stimuli_distractor_trianglediamonds.svg	stimuli_target_squaretriangles.svg	11	yes	44	1	981
6.6.1	mac	2022-12-15	12:45:48	12:52:35	406350	6111782b298eff6c31853ea8	791734598	1	main_z	7	advance_on_keypress_ZEE	68	stimuli_distractor_trianglediamonds.svg	stimuli_target_squaretriangles.svg	11	yes	57	0	248
6.6.1	mac	2022-12-15	12:45:48	12:52:37	408306	6111782b298eff6c31853ea8	791734598	1	main_z	7	main_z	69	stimuli_target_trianglesquares.svg	stimuli_distractor_diamondtriangles.svg	22	yes	44	1	1069
6.6.1	mac	2022-12-15	12:45:48	12:52:37	408306	6111782b298eff6c31853ea8	791734598	1	main_z	7	advance_on_keypress_ZEE	70	stimuli_target_trianglesquares.svg	stimuli_distractor_diamondtriangles.svg	22	yes	57	0	251
6.6.1	mac	2022-12-15	12:45:48	12:52:40	411183	6111782b298eff6c31853ea8	791734598	1	main_z	7	main_z	71	stimuli_distractor_trianglediamonds.svg	stimuli_distractor_diamondtriangles.svg	36	no	0	1	2000
6.6.1	mac	2022-12-15	12:45:48	12:52:40	411183	6111782b298eff6c31853ea8	791734598	1	main_z	7	advance_on_keypress_ZEE	72	stimuli_distractor_trianglediamonds.svg	stimuli_distractor_diamondtriangles.svg	36	no	57	0	255
6.6.1	mac	2022-12-15	12:45:48	12:52:42	413076	6111782b298eff6c31853ea8	791734598	1	main_z	7	main_z	73	stimuli_target_circletriangles.svg	stimuli_distractor_diamondtriangles.svg	5	yes	44	1	1010
6.6.1	mac	2022-12-15	12:45:48	12:52:42	413076	6111782b298eff6c31853ea8	791734598	1	main_z	7	advance_on_keypress_ZEE	74	stimuli_target_circletriangles.svg	stimuli_distractor_diamondtriangles.svg	5	yes	57	0	223
6.6.1	mac	2022-12-15	12:45:48	12:52:44	414856	6111782b298eff6c31853ea8	791734598	1	main_z	7	main_z	75	stimuli_target_diamondcircles.svg	stimuli_distractor_trianglediamonds.svg	19	yes	44	1	921
6.6.1	mac	2022-12-15	12:45:48	12:52:44	414856	6111782b298eff6c31853ea8	791734598	1	main_z	7	advance_on_keypress_ZEE	76	stimuli_target_diamondcircles.svg	stimuli_distractor_trianglediamonds.svg	19	yes	57	0	183
6.6.1	mac	2022-12-15	12:45:48	12:52:45	416397	6111782b298eff6c31853ea8	791734598	1	main_z	7	main_z	77	stimuli_distractor_diamondtriangles.svg	stimuli_target_squaretriangles.svg	15	yes	44	1	729
6.6.1	mac	2022-12-15	12:45:48	12:52:45	416397	6111782b298eff6c31853ea8	791734598	1	main_z	7	advance_on_keypress_ZEE	78	stimuli_distractor_diamondtriangles.svg	stimuli_target_squaretriangles.svg	15	yes	57	0	177
6.6.1	mac	2022-12-15	12:45:48	12:52:47	417941	6111782b298eff6c31853ea8	791734598	1	main_z	7	main_z	79	stimuli_distractor_trianglediamonds.svg	stimuli_target_diamondsquares.svg	28	yes	44	1	723
6.6.1	mac	2022-12-15	12:45:48	12:52:47	417941	6111782b298eff6c31853ea8	791734598	1	main_z	7	advance_on_keypress_ZEE	80	stimuli_distractor_trianglediamonds.svg	stimuli_target_diamondsquares.svg	28	yes	57	0	211
6.6.1	mac	2022-12-15	12:45:48	12:52:48	419351	6111782b298eff6c31853ea8	791734598	1	main_z	7	main_z	81	stimuli_target_diamondcircles.svg	stimuli_distractor_trianglediamonds.svg	19	yes	44	1	568
6.6.1	mac	2022-12-15	12:45:48	12:52:48	419351	6111782b298eff6c31853ea8	791734598	1	main_z	7	advance_on_keypress_ZEE	82	stimuli_target_diamondcircles.svg	stimuli_distractor_trianglediamonds.svg	19	yes	57	0	252
6.6.1	mac	2022-12-15	12:45:48	12:52:50	420686	6111782b298eff6c31853ea8	791734598	1	main_z	7	main_z	83	stimuli_target_trianglesquares.svg	stimuli_distractor_diamondtriangles.svg	22	yes	44	1	454
6.6.1	mac	2022-12-15	12:45:48	12:52:50	420686	6111782b298eff6c31853ea8	791734598	1	main_z	7	advance_on_keypress_ZEE	84	stimuli_target_trianglesquares.svg	stimuli_distractor_diamondtriangles.svg	22	yes	57	0	237
6.6.1	mac	2022-12-15	12:45:48	12:52:51	422271	6111782b298eff6c31853ea8	791734598	1	main_z	7	main_z	85	stimuli_distractor_trianglediamonds.svg	stimuli_target_trianglesquares.svg	26	yes	44	1	720
6.6.1	mac	2022-12-15	12:45:48	12:52:51	422271	6111782b298eff6c31853ea8	791734598	1	main_z	7	advance_on_keypress_ZEE	86	stimuli_distractor_trianglediamonds.svg	stimuli_target_trianglesquares.svg	26	yes	57	0	178
6.6.1	mac	2022-12-15	12:45:48	12:52:54	425065	6111782b298eff6c31853ea8	791734598	1	main_z	7	main_z	87	stimuli_distractor_diamondtriangles.svg	stimuli_distractor_diamondtriangles.svg	39	no	0	1	2000
6.6.1	mac	2022-12-15	12:45:48	12:52:54	425065	6111782b298eff6c31853ea8	791734598	1	main_z	7	advance_on_keypress_ZEE	88	stimuli_distractor_diamondtriangles.svg	stimuli_distractor_diamondtriangles.svg	39	no	57	0	221
6.6.1	mac	2022-12-15	12:45:48	12:52:56	426822	6111782b298eff6c31853ea8	791734598	1	main_z	7	main_z	89	stimuli_distractor_trianglediamonds.svg	stimuli_target_trianglecircles.svg	25	yes	44	1	906
6.6.1	mac	2022-12-15	12:45:48	12:52:56	426822	6111782b298eff6c31853ea8	791734598	1	main_z	7	advance_on_keypress_ZEE	90	stimuli_distractor_trianglediamonds.svg	stimuli_target_trianglecircles.svg	25	yes	57	0	143
6.6.1	mac	2022-12-15	12:45:48	12:52:58	428711	6111782b298eff6c31853ea8	791734598	1	main_z	7	main_z	91	stimuli_distractor_diamondtriangles.svg	stimuli_target_trianglecircles.svg	29	yes	44	1	1125
6.6.1	mac	2022-12-15	12:45:48	12:52:58	428711	6111782b298eff6c31853ea8	791734598	1	main_z	7	advance_on_keypress_ZEE	92	stimuli_distractor_diamondtriangles.svg	stimuli_target_trianglecircles.svg	29	yes	57	0	127
6.6.1	mac	2022-12-15	12:45:48	12:53:00	431466	6111782b298eff6c31853ea8	791734598	1	main_z	7	main_z	93	stimuli_distractor_trianglediamonds.svg	stimuli_distractor_trianglediamonds.svg	34	no	0	1	2000
6.6.1	mac	2022-12-15	12:45:48	12:53:00	431466	6111782b298eff6c31853ea8	791734598	1	main_z	7	advance_on_keypress_ZEE	94	stimuli_distractor_trianglediamonds.svg	stimuli_distractor_trianglediamonds.svg	34	no	57	0	20859
6.6.1	mac	2022-12-15	12:45:48	12:53:22	453397	6111782b298eff6c31853ea8	791734598	1	main_z	7	main_z	95	stimuli_distractor_trianglediamonds.svg	stimuli_target_squarediamonds.svg	12	yes	44	1	430
6.6.1	mac	2022-12-15	12:45:48	12:53:22	453397	6111782b298eff6c31853ea8	791734598	1	main_z	7	advance_on_keypress_ZEE	96	stimuli_distractor_trianglediamonds.svg	stimuli_target_squarediamonds.svg	12	yes	57	0	34488
6.6.1	mac	2022-12-15	12:45:48	12:53:58	489319	6111782b298eff6c31853ea8	791734598	1	main_z	7	main_z	97	stimuli_target_circletriangles.svg	stimuli_distractor_trianglediamonds.svg	1	yes	44	1	800
6.6.1	mac	2022-12-15	12:45:48	12:53:58	489319	6111782b298eff6c31853ea8	791734598	1	main_z	7	advance_on_keypress_ZEE	98	stimuli_target_circletriangles.svg	stimuli_distractor_trianglediamonds.svg	1	yes	57	0	506
6.6.1	mac	2022-12-15	12:45:48	12:54:00	490773	6111782b298eff6c31853ea8	791734598	1	main_z	7	main_z	99	stimuli_distractor_trianglediamonds.svg	stimuli_distractor_diamondtriangles.svg	36	no	44	0	323
6.6.1	mac	2022-12-15	12:45:48	12:54:00	490773	6111782b298eff6c31853ea8	791734598	1	main_z	7	advance_on_keypress_ZEE	100	stimuli_distractor_trianglediamonds.svg	stimuli_distractor_diamondtriangles.svg	36	no	57	0	185
6.6.1	mac	2022-12-15	12:45:48	12:54:01	492402	6111782b298eff6c31853ea8	791734598	1	main_z	7	main_z	101	stimuli_target_trianglecircles.svg	stimuli_distractor_trianglediamonds.svg	17	yes	44	1	817
6.6.1	mac	2022-12-15	12:45:48	12:54:01	492402	6111782b298eff6c31853ea8	791734598	1	main_z	7	advance_on_keypress_ZEE	102	stimuli_target_trianglecircles.svg	stimuli_distractor_trianglediamonds.svg	17	yes	57	0	294
6.6.1	mac	2022-12-15	12:45:48	12:54:03	493873	6111782b298eff6c31853ea8	791734598	1	main_z	7	main_z	103	stimuli_distractor_diamondtriangles.svg	stimuli_target_diamondsquares.svg	32	yes	44	1	542
6.6.1	mac	2022-12-15	12:45:48	12:54:03	493873	6111782b298eff6c31853ea8	791734598	1	main_z	7	advance_on_keypress_ZEE	104	stimuli_distractor_diamondtriangles.svg	stimuli_target_diamondsquares.svg	32	yes	57	0	157
6.6.1	mac	2022-12-15	12:45:48	12:54:04	495442	6111782b298eff6c31853ea8	791734598	1	main_z	7	main_z	105	stimuli_distractor_trianglediamonds.svg	stimuli_distractor_diamondtriangles.svg	35	no	44	0	790
6.6.1	mac	2022-12-15	12:45:48	12:54:04	495442	6111782b298eff6c31853ea8	791734598	1	main_z	7	advance_on_keypress_ZEE	106	stimuli_distractor_trianglediamonds.svg	stimuli_distractor_diamondtriangles.svg	35	no	57	0	178
6.6.1	mac	2022-12-15	12:45:48	12:54:05	496642	6111782b298eff6c31853ea8	791734598	1	main_z	7	main_z	107	stimuli_target_circlediamonds.svg	stimuli_distractor_diamondtriangles.svg	6	yes	44	1	391
6.6.1	mac	2022-12-15	12:45:48	12:54:05	496642	6111782b298eff6c31853ea8	791734598	1	main_z	7	advance_on_keypress_ZEE	108	stimuli_target_circlediamonds.svg	stimuli_distractor_diamondtriangles.svg	6	yes	57	0	157
6.6.1	mac	2022-12-15	12:45:48	12:54:08	499415	6111782b298eff6c31853ea8	791734598	1	main_z	7	main_z	109	stimuli_distractor_trianglediamonds.svg	stimuli_target_diamondsquares.svg	28	yes	0	0	2000
6.6.1	mac	2022-12-15	12:45:48	12:54:08	499415	6111782b298eff6c31853ea8	791734598	1	main_z	7	advance_on_keypress_ZEE	110	stimuli_distractor_trianglediamonds.svg	stimuli_target_diamondsquares.svg	28	yes	57	0	400
6.6.1	mac	2022-12-15	12:45:48	12:54:11	502445	6111782b298eff6c31853ea8	791734598	1	main_z	7	main_z	111	stimuli_target_diamondsquares.svg	stimuli_distractor_trianglediamonds.svg	20	yes	0	0	2000
6.6.1	mac	2022-12-15	12:45:48	12:54:11	502445	6111782b298eff6c31853ea8	791734598	1	main_z	7	advance_on_keypress_ZEE	112	stimuli_target_diamondsquares.svg	stimuli_distractor_trianglediamonds.svg	20	yes	57	0	5791
6.6.1	mac	2022-12-15	12:45:48	12:54:18	509304	6111782b298eff6c31853ea8	791734598	1	main_z	7	main_z	113	stimuli_distractor_diamondtriangles.svg	stimuli_target_diamondcircles.svg	31	yes	44	1	439
6.6.1	mac	2022-12-15	12:45:48	12:54:18	509304	6111782b298eff6c31853ea8	791734598	1	main_z	7	advance_on_keypress_ZEE	114	stimuli_distractor_diamondtriangles.svg	stimuli_target_diamondcircles.svg	31	yes	57	0	740
6.6.1	mac	2022-12-15	12:45:48	12:54:20	511576	6111782b298eff6c31853ea8	791734598	1	main_z	7	main_z	115	stimuli_target_squaretriangles.svg	stimuli_distractor_diamondtriangles.svg	7	yes	44	1	891
6.6.1	mac	2022-12-15	12:45:48	12:54:20	511576	6111782b298eff6c31853ea8	791734598	1	main_z	7	advance_on_keypress_ZEE	116	stimuli_target_squaretriangles.svg	stimuli_distractor_diamondtriangles.svg	7	yes	57	0	169
6.6.1	mac	2022-12-15	12:45:48	12:54:22	512813	6111782b298eff6c31853ea8	791734598	1	main_z	7	main_z	117	stimuli_target_circlediamonds.svg	stimuli_distractor_trianglediamonds.svg	2	yes	44	1	431
6.6.1	mac	2022-12-15	12:45:48	12:54:22	512813	6111782b298eff6c31853ea8	791734598	1	main_z	7	advance_on_keypress_ZEE	118	stimuli_target_circlediamonds.svg	stimuli_distractor_trianglediamonds.svg	2	yes	57	0	336
6.6.1	mac	2022-12-15	12:45:48	12:54:25	515782	6111782b298eff6c31853ea8	791734598	1	main_z	7	main_z	119	stimuli_distractor_diamondtriangles.svg	stimuli_distractor_trianglediamonds.svg	38	no	0	1	2000
6.6.1	mac	2022-12-15	12:45:48	12:54:25	515782	6111782b298eff6c31853ea8	791734598	1	main_z	7	advance_on_keypress_ZEE	120	stimuli_distractor_diamondtriangles.svg	stimuli_distractor_trianglediamonds.svg	38	no	57	0	691
6.6.1	mac	2022-12-15	12:45:48	12:54:27	517754	6111782b298eff6c31853ea8	791734598	1	main_z	7	main_z	121	stimuli_distractor_diamondtriangles.svg	stimuli_target_squaretriangles.svg	15	yes	44	1	654
6.6.1	mac	2022-12-15	12:45:48	12:54:27	517754	6111782b298eff6c31853ea8	791734598	1	main_z	7	advance_on_keypress_ZEE	122	stimuli_distractor_diamondtriangles.svg	stimuli_target_squaretriangles.svg	15	yes	57	0	192
6.6.1	mac	2022-12-15	12:45:48	12:54:28	518980	6111782b298eff6c31853ea8	791734598	1	main_z	7	main_z	123	stimuli_distractor_trianglediamonds.svg	stimuli_target_circletriangles.svg	9	yes	44	1	415
6.6.1	mac	2022-12-15	12:45:48	12:54:28	518980	6111782b298eff6c31853ea8	791734598	1	main_z	7	advance_on_keypress_ZEE	124	stimuli_distractor_trianglediamonds.svg	stimuli_target_circletriangles.svg	9	yes	57	0	159
6.6.1	mac	2022-12-15	12:45:48	12:54:29	520247	6111782b298eff6c31853ea8	791734598	1	main_z	7	main_z	125	stimuli_distractor_trianglediamonds.svg	stimuli_distractor_trianglediamonds.svg	33	no	44	0	480
6.6.1	mac	2022-12-15	12:45:48	12:54:29	520247	6111782b298eff6c31853ea8	791734598	1	main_z	7	advance_on_keypress_ZEE	126	stimuli_distractor_trianglediamonds.svg	stimuli_distractor_trianglediamonds.svg	33	no	57	0	127
6.6.1	mac	2022-12-15	12:45:48	12:54:30	521395	6111782b298eff6c31853ea8	791734598	1	main_z	7	main_z	127	stimuli_distractor_trianglediamonds.svg	stimuli_target_circlediamonds.svg	10	yes	44	1	396
6.6.1	mac	2022-12-15	12:45:48	12:54:30	521395	6111782b298eff6c31853ea8	791734598	1	main_z	7	advance_on_keypress_ZEE	128	stimuli_distractor_trianglediamonds.svg	stimuli_target_circlediamonds.svg	10	yes	57	0	110
6.6.1	mac	2022-12-15	12:45:48	12:54:31	522517	6111782b298eff6c31853ea8	791734598	1	main_z	7	main_z	129	stimuli_distractor_trianglediamonds.svg	stimuli_target_diamondcircles.svg	27	yes	44	1	382
6.6.1	mac	2022-12-15	12:45:48	12:54:31	522517	6111782b298eff6c31853ea8	791734598	1	main_z	7	advance_on_keypress_ZEE	130	stimuli_distractor_trianglediamonds.svg	stimuli_target_diamondcircles.svg	27	yes	57	0	128
6.6.1	mac	2022-12-15	12:45:48	12:54:33	523760	6111782b298eff6c31853ea8	791734598	1	main_z	7	main_z	131	stimuli_target_squarediamonds.svg	stimuli_distractor_trianglediamonds.svg	4	yes	44	1	478
6.6.1	mac	2022-12-15	12:45:48	12:54:33	523760	6111782b298eff6c31853ea8	791734598	1	main_z	7	advance_on_keypress_ZEE	132	stimuli_target_squarediamonds.svg	stimuli_distractor_trianglediamonds.svg	4	yes	57	0	979
6.6.1	mac	2022-12-15	12:45:48	12:54:36	527382	6111782b298eff6c31853ea8	791734598	1	main_z	7	main_z	133	stimuli_distractor_diamondtriangles.svg	stimuli_target_trianglesquares.svg	30	yes	0	0	2000
6.6.1	mac	2022-12-15	12:45:48	12:54:36	527382	6111782b298eff6c31853ea8	791734598	1	main_z	7	advance_on_keypress_ZEE	134	stimuli_distractor_diamondtriangles.svg	stimuli_target_trianglesquares.svg	30	yes	57	0	459
6.6.1	mac	2022-12-15	12:45:48	12:54:38	528877	6111782b298eff6c31853ea8	791734598	1	main_z	7	main_z	135	stimuli_distractor_diamondtriangles.svg	stimuli_target_circletriangles.svg	13	yes	44	1	394
6.6.1	mac	2022-12-15	12:45:48	12:54:38	528877	6111782b298eff6c31853ea8	791734598	1	main_z	7	advance_on_keypress_ZEE	136	stimuli_distractor_diamondtriangles.svg	stimuli_target_circletriangles.svg	13	yes	57	0	170
6.6.1	mac	2022-12-15	12:45:48	12:54:39	530210	6111782b298eff6c31853ea8	791734598	1	main_z	7	main_z	137	stimuli_target_diamondcircles.svg	stimuli_distractor_diamondtriangles.svg	23	yes	44	1	527
6.6.1	mac	2022-12-15	12:45:48	12:54:39	530210	6111782b298eff6c31853ea8	791734598	1	main_z	7	advance_on_keypress_ZEE	138	stimuli_target_diamondcircles.svg	stimuli_distractor_diamondtriangles.svg	23	yes	57	0	110
6.6.1	mac	2022-12-15	12:45:48	12:54:42	532948	6111782b298eff6c31853ea8	791734598	1	main_z	7	main_z	139	stimuli_distractor_diamondtriangles.svg	stimuli_distractor_trianglediamonds.svg	37	no	0	1	2000
6.6.1	mac	2022-12-15	12:45:48	12:54:42	532948	6111782b298eff6c31853ea8	791734598	1	main_z	7	advance_on_keypress_ZEE	140	stimuli_distractor_diamondtriangles.svg	stimuli_distractor_trianglediamonds.svg	37	no	57	0	484
6.6.1	mac	2022-12-15	12:45:48	12:54:45	536066	6111782b298eff6c31853ea8	791734598	1	main_z	7	main_z	141	stimuli_distractor_diamondtriangles.svg	stimuli_distractor_diamondtriangles.svg	40	no	0	1	2000
6.6.1	mac	2022-12-15	12:45:48	12:54:45	536066	6111782b298eff6c31853ea8	791734598	1	main_z	7	advance_on_keypress_ZEE	142	stimuli_distractor_diamondtriangles.svg	stimuli_distractor_diamondtriangles.svg	40	no	57	0	413
6.6.1	mac	2022-12-15	12:45:48	12:54:47	538084	6111782b298eff6c31853ea8	791734598	1	main_z	7	main_z	143	stimuli_target_circletriangles.svg	stimuli_distractor_diamondtriangles.svg	5	yes	44	1	965
6.6.1	mac	2022-12-15	12:45:48	12:54:47	538084	6111782b298eff6c31853ea8	791734598	1	main_z	7	advance_on_keypress_ZEE	144	stimuli_target_circletriangles.svg	stimuli_distractor_diamondtriangles.svg	5	yes	57	0	153
6.6.1	mac	2022-12-15	12:45:48	12:54:48	539636	6111782b298eff6c31853ea8	791734598	1	main_z	7	main_z	145	stimuli_distractor_diamondtriangles.svg	stimuli_target_squarediamonds.svg	16	yes	44	1	768
6.6.1	mac	2022-12-15	12:45:48	12:54:48	539636	6111782b298eff6c31853ea8	791734598	1	main_z	7	advance_on_keypress_ZEE	146	stimuli_distractor_diamondtriangles.svg	stimuli_target_squarediamonds.svg	16	yes	57	0	117
6.6.1	mac	2022-12-15	12:45:48	12:54:50	541105	6111782b298eff6c31853ea8	791734598	1	main_z	7	main_z	147	stimuli_distractor_diamondtriangles.svg	stimuli_target_circlediamonds.svg	14	yes	44	1	722
6.6.1	mac	2022-12-15	12:45:48	12:54:50	541105	6111782b298eff6c31853ea8	791734598	1	main_z	7	advance_on_keypress_ZEE	148	stimuli_distractor_diamondtriangles.svg	stimuli_target_circlediamonds.svg	14	yes	57	0	1221
6.6.1	mac	2022-12-15	12:45:48	12:54:52	543610	6111782b298eff6c31853ea8	791734598	1	main_z	7	main_z	149	stimuli_target_trianglecircles.svg	stimuli_distractor_diamondtriangles.svg	21	yes	44	1	658
6.6.1	mac	2022-12-15	12:45:48	12:54:52	543610	6111782b298eff6c31853ea8	791734598	1	main_z	7	advance_on_keypress_ZEE	150	stimuli_target_trianglecircles.svg	stimuli_distractor_diamondtriangles.svg	21	yes	57	0	40
6.6.1	mac	2022-12-15	12:45:48	12:54:54	545059	6111782b298eff6c31853ea8	791734598	1	main_z	7	main_z	151	stimuli_target_squaretriangles.svg	stimuli_distractor_trianglediamonds.svg	3	yes	44	1	775
6.6.1	mac	2022-12-15	12:45:48	12:54:54	545059	6111782b298eff6c31853ea8	791734598	1	main_z	7	advance_on_keypress_ZEE	152	stimuli_target_squaretriangles.svg	stimuli_distractor_trianglediamonds.svg	3	yes	57	0	167
6.6.1	mac	2022-12-15	12:45:48	12:54:55	546319	6111782b298eff6c31853ea8	791734598	1	main_z	7	main_z	153	stimuli_target_diamondsquares.svg	stimuli_distractor_diamondtriangles.svg	24	yes	44	1	454
6.6.1	mac	2022-12-15	12:45:48	12:54:55	546319	6111782b298eff6c31853ea8	791734598	1	main_z	7	advance_on_keypress_ZEE	154	stimuli_target_diamondsquares.svg	stimuli_distractor_diamondtriangles.svg	24	yes	57	0	110
6.6.1	mac	2022-12-15	12:45:48	12:54:57	547768	6111782b298eff6c31853ea8	791734598	1	main_z	7	main_z	155	stimuli_target_trianglesquares.svg	stimuli_distractor_trianglediamonds.svg	18	yes	44	1	717
6.6.1	mac	2022-12-15	12:45:48	12:54:57	547768	6111782b298eff6c31853ea8	791734598	1	main_z	7	advance_on_keypress_ZEE	156	stimuli_target_trianglesquares.svg	stimuli_distractor_trianglediamonds.svg	18	yes	57	0	76
6.6.1	mac	2022-12-15	12:45:48	12:54:58	549061	6111782b298eff6c31853ea8	791734598	1	main_z	7	main_z	157	stimuli_distractor_trianglediamonds.svg	stimuli_target_squaretriangles.svg	11	yes	44	1	595
6.6.1	mac	2022-12-15	12:45:48	12:54:58	549061	6111782b298eff6c31853ea8	791734598	1	main_z	7	advance_on_keypress_ZEE	158	stimuli_distractor_trianglediamonds.svg	stimuli_target_squaretriangles.svg	11	yes	57	0	143
6.6.1	mac	2022-12-15	12:45:48	12:54:59	550245	6111782b298eff6c31853ea8	791734598	1	main_z	7	main_z	159	stimuli_target_squarediamonds.svg	stimuli_distractor_diamondtriangles.svg	8	yes	44	1	415
6.6.1	mac	2022-12-15	12:45:48	12:54:59	550245	6111782b298eff6c31853ea8	791734598	1	main_z	7	advance_on_keypress_ZEE	160	stimuli_target_squarediamonds.svg	stimuli_distractor_diamondtriangles.svg	8	yes	57	0	162
6.6.1	mac	2022-12-15	12:45:48	12:55:18	569200	6111782b298eff6c31853ea8	791734598	1	practice_slash	9	practice_slash	1	stimuli_distractor_diamondtriangles.svg	stimuli_distractor_diamondtriangles.svg	13	no	53	0	581
6.6.1	mac	2022-12-15	12:45:48	12:55:18	569200	6111782b298eff6c31853ea8	791734598	1	practice_slash	9	advance_on_keypress_SLASH	2	stimuli_distractor_diamondtriangles.svg	stimuli_distractor_diamondtriangles.svg	13	no	57	0	484
6.6.1	mac	2022-12-15	12:45:48	12:55:21	571838	6111782b298eff6c31853ea8	791734598	1	practice_slash	9	practice_slash	3	stimuli_distractor_trianglediamonds.svg	stimuli_target_circlediamonds.svg	10	yes	53	1	519
6.6.1	mac	2022-12-15	12:45:48	12:55:21	571838	6111782b298eff6c31853ea8	791734598	1	practice_slash	9	advance_on_keypress_SLASH	4	stimuli_distractor_trianglediamonds.svg	stimuli_target_circlediamonds.svg	10	yes	57	0	40350
6.6.1	mac	2022-12-15	12:45:48	12:56:04	614760	6111782b298eff6c31853ea8	791734598	1	practice_slash	9	practice_slash	5	stimuli_target_diamondsquares.svg	stimuli_distractor_diamondtriangles.svg	3	yes	53	1	938
6.6.1	mac	2022-12-15	12:45:48	12:56:04	614760	6111782b298eff6c31853ea8	791734598	1	practice_slash	9	advance_on_keypress_SLASH	6	stimuli_target_diamondsquares.svg	stimuli_distractor_diamondtriangles.svg	3	yes	57	0	410
6.6.1	mac	2022-12-15	12:45:48	12:56:06	617160	6111782b298eff6c31853ea8	791734598	1	practice_slash	9	practice_slash	7	stimuli_distractor_diamondtriangles.svg	stimuli_target_circletriangles.svg	7	yes	53	1	341
6.6.1	mac	2022-12-15	12:45:48	12:56:06	617160	6111782b298eff6c31853ea8	791734598	1	practice_slash	9	advance_on_keypress_SLASH	8	stimuli_distractor_diamondtriangles.svg	stimuli_target_circletriangles.svg	7	yes	57	0	656
6.6.1	mac	2022-12-15	12:45:48	12:56:09	619941	6111782b298eff6c31853ea8	791734598	1	practice_slash	9	practice_slash	9	stimuli_target_squarediamonds.svg	stimuli_distractor_diamondtriangles.svg	2	yes	53	1	488
6.6.1	mac	2022-12-15	12:45:48	12:56:09	619941	6111782b298eff6c31853ea8	791734598	1	practice_slash	9	advance_on_keypress_SLASH	10	stimuli_target_squarediamonds.svg	stimuli_distractor_diamondtriangles.svg	2	yes	57	0	460
6.6.1	mac	2022-12-15	12:45:48	12:56:12	622632	6111782b298eff6c31853ea8	791734598	1	practice_slash	9	practice_slash	11	stimuli_distractor_trianglediamonds.svg	stimuli_target_diamondcircles.svg	12	yes	53	1	594
6.6.1	mac	2022-12-15	12:45:48	12:56:12	622632	6111782b298eff6c31853ea8	791734598	1	practice_slash	9	advance_on_keypress_SLASH	12	stimuli_distractor_trianglediamonds.svg	stimuli_target_diamondcircles.svg	12	yes	57	0	355
6.6.1	mac	2022-12-15	12:45:48	12:56:15	626617	6111782b298eff6c31853ea8	791734598	1	practice_slash	9	practice_slash	13	stimuli_distractor_trianglediamonds.svg	stimuli_distractor_trianglediamonds.svg	15	no	0	1	2000
6.6.1	mac	2022-12-15	12:45:48	12:56:15	626617	6111782b298eff6c31853ea8	791734598	1	practice_slash	9	advance_on_keypress_SLASH	14	stimuli_distractor_trianglediamonds.svg	stimuli_distractor_trianglediamonds.svg	15	no	57	0	387
6.6.1	mac	2022-12-15	12:45:48	12:56:18	629049	6111782b298eff6c31853ea8	791734598	1	practice_slash	9	practice_slash	15	stimuli_target_circlediamonds.svg	stimuli_distractor_diamondtriangles.svg	1	yes	53	1	414
6.6.1	mac	2022-12-15	12:45:48	12:56:18	629049	6111782b298eff6c31853ea8	791734598	1	practice_slash	9	advance_on_keypress_SLASH	16	stimuli_target_circlediamonds.svg	stimuli_distractor_diamondtriangles.svg	1	yes	57	0	605
6.6.1	mac	2022-12-15	12:45:48	12:56:22	633285	6111782b298eff6c31853ea8	791734598	1	practice_slash	9	practice_slash	17	stimuli_distractor_diamondtriangles.svg	stimuli_distractor_trianglediamonds.svg	14	no	0	1	2000
6.6.1	mac	2022-12-15	12:45:48	12:56:22	633285	6111782b298eff6c31853ea8	791734598	1	practice_slash	9	advance_on_keypress_SLASH	18	stimuli_distractor_diamondtriangles.svg	stimuli_distractor_trianglediamonds.svg	14	no	57	0	354
6.6.1	mac	2022-12-15	12:45:48	12:56:26	637267	6111782b298eff6c31853ea8	791734598	1	practice_slash	9	practice_slash	19	stimuli_distractor_trianglediamonds.svg	stimuli_distractor_diamondtriangles.svg	16	no	0	1	2000
6.6.1	mac	2022-12-15	12:45:48	12:56:26	637267	6111782b298eff6c31853ea8	791734598	1	practice_slash	9	advance_on_keypress_SLASH	20	stimuli_distractor_trianglediamonds.svg	stimuli_distractor_diamondtriangles.svg	16	no	57	0	471
6.6.1	mac	2022-12-15	12:45:48	12:56:29	639891	6111782b298eff6c31853ea8	791734598	1	practice_slash	9	practice_slash	21	stimuli_target_circlediamonds.svg	stimuli_distractor_trianglediamonds.svg	4	yes	53	1	520
6.6.1	mac	2022-12-15	12:45:48	12:56:29	639891	6111782b298eff6c31853ea8	791734598	1	practice_slash	9	advance_on_keypress_SLASH	22	stimuli_target_circlediamonds.svg	stimuli_distractor_trianglediamonds.svg	4	yes	57	0	484
6.6.1	mac	2022-12-15	12:45:48	12:56:32	642642	6111782b298eff6c31853ea8	791734598	1	practice_slash	9	practice_slash	23	stimuli_target_squarediamonds.svg	stimuli_distractor_trianglediamonds.svg	5	yes	53	1	639
6.6.1	mac	2022-12-15	12:45:48	12:56:32	642642	6111782b298eff6c31853ea8	791734598	1	practice_slash	9	advance_on_keypress_SLASH	24	stimuli_target_squarediamonds.svg	stimuli_distractor_trianglediamonds.svg	5	yes	57	0	491
6.6.1	mac	2022-12-15	12:45:48	12:56:34	645138	6111782b298eff6c31853ea8	791734598	1	practice_slash	9	practice_slash	25	stimuli_target_diamondsquares.svg	stimuli_distractor_trianglediamonds.svg	6	yes	53	1	352
6.6.1	mac	2022-12-15	12:45:48	12:56:34	645138	6111782b298eff6c31853ea8	791734598	1	practice_slash	9	advance_on_keypress_SLASH	26	stimuli_target_diamondsquares.svg	stimuli_distractor_trianglediamonds.svg	6	yes	57	0	2114
6.6.1	mac	2022-12-15	12:45:48	12:56:38	649470	6111782b298eff6c31853ea8	791734598	1	practice_slash	9	practice_slash	27	stimuli_distractor_trianglediamonds.svg	stimuli_target_squarediamonds.svg	11	yes	53	1	587
6.6.1	mac	2022-12-15	12:45:48	12:56:38	649470	6111782b298eff6c31853ea8	791734598	1	practice_slash	9	advance_on_keypress_SLASH	28	stimuli_distractor_trianglediamonds.svg	stimuli_target_squarediamonds.svg	11	yes	57	0	521
6.6.1	mac	2022-12-15	12:45:48	12:56:41	652411	6111782b298eff6c31853ea8	791734598	1	practice_slash	9	practice_slash	29	stimuli_distractor_diamondtriangles.svg	stimuli_target_trianglecircles.svg	9	yes	53	1	790
6.6.1	mac	2022-12-15	12:45:48	12:56:41	652411	6111782b298eff6c31853ea8	791734598	1	practice_slash	9	advance_on_keypress_SLASH	30	stimuli_distractor_diamondtriangles.svg	stimuli_target_trianglecircles.svg	9	yes	57	0	423
6.6.1	mac	2022-12-15	12:45:48	12:56:44	655006	6111782b298eff6c31853ea8	791734598	1	practice_slash	9	practice_slash	31	stimuli_distractor_diamondtriangles.svg	stimuli_target_diamondcircles.svg	8	yes	53	1	521
6.6.1	mac	2022-12-15	12:45:48	12:56:44	655006	6111782b298eff6c31853ea8	791734598	1	practice_slash	9	advance_on_keypress_SLASH	32	stimuli_distractor_diamondtriangles.svg	stimuli_target_diamondcircles.svg	8	yes	57	0	602
6.6.1	mac	2022-12-15	12:45:48	12:56:50	661299	6111782b298eff6c31853ea8	791734598	1	main_slash	11	main_slash	1	stimuli_distractor_diamondtriangles.svg	stimuli_distractor_trianglediamonds.svg	37	no	53	0	964
6.6.1	mac	2022-12-15	12:45:48	12:56:50	661299	6111782b298eff6c31853ea8	791734598	1	main_slash	11	advance_on_keypress_SLASH	2	stimuli_distractor_diamondtriangles.svg	stimuli_distractor_trianglediamonds.svg	37	no	57	0	215
6.6.1	mac	2022-12-15	12:45:48	12:56:52	662749	6111782b298eff6c31853ea8	791734598	1	main_slash	11	main_slash	3	stimuli_distractor_diamondtriangles.svg	stimuli_target_trianglesquares.svg	30	yes	53	1	600
6.6.1	mac	2022-12-15	12:45:48	12:56:52	662749	6111782b298eff6c31853ea8	791734598	1	main_slash	11	advance_on_keypress_SLASH	4	stimuli_distractor_diamondtriangles.svg	stimuli_target_trianglesquares.svg	30	yes	57	0	437
6.6.1	mac	2022-12-15	12:45:48	12:56:53	664205	6111782b298eff6c31853ea8	791734598	1	main_slash	11	main_slash	5	stimuli_distractor_diamondtriangles.svg	stimuli_target_squaretriangles.svg	15	yes	53	1	389
6.6.1	mac	2022-12-15	12:45:48	12:56:53	664205	6111782b298eff6c31853ea8	791734598	1	main_slash	11	advance_on_keypress_SLASH	6	stimuli_distractor_diamondtriangles.svg	stimuli_target_squaretriangles.svg	15	yes	57	0	293
6.6.1	mac	2022-12-15	12:45:48	12:56:55	665896	6111782b298eff6c31853ea8	791734598	1	main_slash	11	main_slash	7	stimuli_distractor_trianglediamonds.svg	stimuli_target_diamondsquares.svg	28	yes	53	1	759
6.6.1	mac	2022-12-15	12:45:48	12:56:55	665896	6111782b298eff6c31853ea8	791734598	1	main_slash	11	advance_on_keypress_SLASH	8	stimuli_distractor_trianglediamonds.svg	stimuli_target_diamondsquares.svg	28	yes	57	0	294
6.6.1	mac	2022-12-15	12:45:48	12:56:56	667226	6111782b298eff6c31853ea8	791734598	1	main_slash	11	main_slash	9	stimuli_distractor_trianglediamonds.svg	stimuli_target_trianglecircles.svg	25	yes	53	1	394
6.6.1	mac	2022-12-15	12:45:48	12:56:56	667226	6111782b298eff6c31853ea8	791734598	1	main_slash	11	advance_on_keypress_SLASH	10	stimuli_distractor_trianglediamonds.svg	stimuli_target_trianglecircles.svg	25	yes	57	0	275
6.6.1	mac	2022-12-15	12:45:48	12:56:58	668749	6111782b298eff6c31853ea8	791734598	1	main_slash	11	main_slash	11	stimuli_target_circlediamonds.svg	stimuli_distractor_trianglediamonds.svg	2	yes	53	1	615
6.6.1	mac	2022-12-15	12:45:48	12:56:58	668749	6111782b298eff6c31853ea8	791734598	1	main_slash	11	advance_on_keypress_SLASH	12	stimuli_target_circlediamonds.svg	stimuli_distractor_trianglediamonds.svg	2	yes	57	0	202
6.6.1	mac	2022-12-15	12:45:48	12:56:59	670349	6111782b298eff6c31853ea8	791734598	1	main_slash	11	main_slash	13	stimuli_distractor_diamondtriangles.svg	stimuli_target_diamondsquares.svg	32	yes	53	1	765
6.6.1	mac	2022-12-15	12:45:48	12:56:59	670349	6111782b298eff6c31853ea8	791734598	1	main_slash	11	advance_on_keypress_SLASH	14	stimuli_distractor_diamondtriangles.svg	stimuli_target_diamondsquares.svg	32	yes	57	0	276
6.6.1	mac	2022-12-15	12:45:48	12:57:01	671701	6111782b298eff6c31853ea8	791734598	1	main_slash	11	main_slash	15	stimuli_distractor_trianglediamonds.svg	stimuli_distractor_trianglediamonds.svg	34	no	53	0	434
6.6.1	mac	2022-12-15	12:45:48	12:57:01	671701	6111782b298eff6c31853ea8	791734598	1	main_slash	11	advance_on_keypress_SLASH	16	stimuli_distractor_trianglediamonds.svg	stimuli_distractor_trianglediamonds.svg	34	no	57	0	273
6.6.1	mac	2022-12-15	12:45:48	12:57:02	673060	6111782b298eff6c31853ea8	791734598	1	main_slash	11	main_slash	17	stimuli_distractor_diamondtriangles.svg	stimuli_target_diamondcircles.svg	31	yes	53	1	460
6.6.1	mac	2022-12-15	12:45:48	12:57:02	673060	6111782b298eff6c31853ea8	791734598	1	main_slash	11	advance_on_keypress_SLASH	18	stimuli_distractor_diamondtriangles.svg	stimuli_target_diamondcircles.svg	31	yes	57	0	228
6.6.1	mac	2022-12-15	12:45:48	12:57:03	674553	6111782b298eff6c31853ea8	791734598	1	main_slash	11	main_slash	19	stimuli_distractor_diamondtriangles.svg	stimuli_target_circlediamonds.svg	14	yes	53	1	619
6.6.1	mac	2022-12-15	12:45:48	12:57:03	674553	6111782b298eff6c31853ea8	791734598	1	main_slash	11	advance_on_keypress_SLASH	20	stimuli_distractor_diamondtriangles.svg	stimuli_target_circlediamonds.svg	14	yes	57	0	260
6.6.1	mac	2022-12-15	12:45:48	12:57:06	677433	6111782b298eff6c31853ea8	791734598	1	main_slash	11	main_slash	21	stimuli_distractor_trianglediamonds.svg	stimuli_distractor_trianglediamonds.svg	33	no	0	1	2000
6.6.1	mac	2022-12-15	12:45:48	12:57:06	677433	6111782b298eff6c31853ea8	791734598	1	main_slash	11	advance_on_keypress_SLASH	22	stimuli_distractor_trianglediamonds.svg	stimuli_distractor_trianglediamonds.svg	33	no	57	0	521
6.6.1	mac	2022-12-15	12:45:48	12:57:08	679041	6111782b298eff6c31853ea8	791734598	1	main_slash	11	main_slash	23	stimuli_target_trianglesquares.svg	stimuli_distractor_trianglediamonds.svg	18	yes	53	1	460
6.6.1	mac	2022-12-15	12:45:48	12:57:08	679041	6111782b298eff6c31853ea8	791734598	1	main_slash	11	advance_on_keypress_SLASH	24	stimuli_target_trianglesquares.svg	stimuli_distractor_trianglediamonds.svg	18	yes	57	0	666
6.6.1	mac	2022-12-15	12:45:48	12:57:10	680872	6111782b298eff6c31853ea8	791734598	1	main_slash	11	main_slash	25	stimuli_distractor_trianglediamonds.svg	stimuli_distractor_diamondtriangles.svg	36	no	53	0	541
6.6.1	mac	2022-12-15	12:45:48	12:57:10	680872	6111782b298eff6c31853ea8	791734598	1	main_slash	11	advance_on_keypress_SLASH	26	stimuli_distractor_trianglediamonds.svg	stimuli_distractor_diamondtriangles.svg	36	no	57	0	232
6.6.1	mac	2022-12-15	12:45:48	12:57:11	682106	6111782b298eff6c31853ea8	791734598	1	main_slash	11	main_slash	27	stimuli_target_circletriangles.svg	stimuli_distractor_trianglediamonds.svg	1	yes	53	1	371
6.6.1	mac	2022-12-15	12:45:48	12:57:11	682106	6111782b298eff6c31853ea8	791734598	1	main_slash	11	advance_on_keypress_SLASH	28	stimuli_target_circletriangles.svg	stimuli_distractor_trianglediamonds.svg	1	yes	57	0	277
6.6.1	mac	2022-12-15	12:45:48	12:57:12	683325	6111782b298eff6c31853ea8	791734598	1	main_slash	11	main_slash	29	stimuli_distractor_trianglediamonds.svg	stimuli_target_circlediamonds.svg	10	yes	53	1	308
6.6.1	mac	2022-12-15	12:45:48	12:57:12	683325	6111782b298eff6c31853ea8	791734598	1	main_slash	11	advance_on_keypress_SLASH	30	stimuli_distractor_trianglediamonds.svg	stimuli_target_circlediamonds.svg	10	yes	57	0	297
6.6.1	mac	2022-12-15	12:45:48	12:57:13	684523	6111782b298eff6c31853ea8	791734598	1	main_slash	11	main_slash	31	stimuli_distractor_trianglediamonds.svg	stimuli_target_squaretriangles.svg	11	yes	53	1	256
6.6.1	mac	2022-12-15	12:45:48	12:57:13	684523	6111782b298eff6c31853ea8	791734598	1	main_slash	11	advance_on_keypress_SLASH	32	stimuli_distractor_trianglediamonds.svg	stimuli_target_squaretriangles.svg	11	yes	57	0	207
6.6.1	mac	2022-12-15	12:45:48	12:57:14	685620	6111782b298eff6c31853ea8	791734598	1	main_slash	11	main_slash	33	stimuli_distractor_diamondtriangles.svg	stimuli_target_trianglecircles.svg	29	yes	53	1	271
6.6.1	mac	2022-12-15	12:45:48	12:57:14	685620	6111782b298eff6c31853ea8	791734598	1	main_slash	11	advance_on_keypress_SLASH	34	stimuli_distractor_diamondtriangles.svg	stimuli_target_trianglecircles.svg	29	yes	57	0	267
6.6.1	mac	2022-12-15	12:45:48	12:57:16	687342	6111782b298eff6c31853ea8	791734598	1	main_slash	11	main_slash	35	stimuli_distractor_diamondtriangles.svg	stimuli_target_circletriangles.svg	13	yes	53	1	824
6.6.1	mac	2022-12-15	12:45:48	12:57:16	687342	6111782b298eff6c31853ea8	791734598	1	main_slash	11	advance_on_keypress_SLASH	36	stimuli_distractor_diamondtriangles.svg	stimuli_target_circletriangles.svg	13	yes	57	0	189
6.6.1	mac	2022-12-15	12:45:48	12:57:19	690149	6111782b298eff6c31853ea8	791734598	1	main_slash	11	main_slash	37	stimuli_distractor_diamondtriangles.svg	stimuli_distractor_diamondtriangles.svg	39	no	0	1	2000
6.6.1	mac	2022-12-15	12:45:48	12:57:19	690149	6111782b298eff6c31853ea8	791734598	1	main_slash	11	advance_on_keypress_SLASH	38	stimuli_distractor_diamondtriangles.svg	stimuli_distractor_diamondtriangles.svg	39	no	57	0	1073
6.6.1	mac	2022-12-15	12:45:48	12:57:21	692455	6111782b298eff6c31853ea8	791734598	1	main_slash	11	main_slash	39	stimuli_distractor_trianglediamonds.svg	stimuli_target_trianglesquares.svg	26	yes	53	1	603
6.6.1	mac	2022-12-15	12:45:48	12:57:21	692455	6111782b298eff6c31853ea8	791734598	1	main_slash	11	advance_on_keypress_SLASH	40	stimuli_distractor_trianglediamonds.svg	stimuli_target_trianglesquares.svg	26	yes	57	0	369
6.6.1	mac	2022-12-15	12:45:48	12:57:23	694163	6111782b298eff6c31853ea8	791734598	1	main_slash	11	main_slash	41	stimuli_target_diamondsquares.svg	stimuli_distractor_trianglediamonds.svg	20	yes	53	1	711
6.6.1	mac	2022-12-15	12:45:48	12:57:23	694163	6111782b298eff6c31853ea8	791734598	1	main_slash	11	advance_on_keypress_SLASH	42	stimuli_target_diamondsquares.svg	stimuli_distractor_trianglediamonds.svg	20	yes	57	0	268
6.6.1	mac	2022-12-15	12:45:48	12:57:24	695518	6111782b298eff6c31853ea8	791734598	1	main_slash	11	main_slash	43	stimuli_distractor_trianglediamonds.svg	stimuli_target_squarediamonds.svg	12	yes	53	1	451
6.6.1	mac	2022-12-15	12:45:48	12:57:24	695518	6111782b298eff6c31853ea8	791734598	1	main_slash	11	advance_on_keypress_SLASH	44	stimuli_distractor_trianglediamonds.svg	stimuli_target_squarediamonds.svg	12	yes	57	0	288
6.6.1	mac	2022-12-15	12:45:48	12:57:26	697049	6111782b298eff6c31853ea8	791734598	1	main_slash	11	main_slash	45	stimuli_target_diamondcircles.svg	stimuli_distractor_diamondtriangles.svg	23	yes	53	1	616
6.6.1	mac	2022-12-15	12:45:48	12:57:26	697049	6111782b298eff6c31853ea8	791734598	1	main_slash	11	advance_on_keypress_SLASH	46	stimuli_target_diamondcircles.svg	stimuli_distractor_diamondtriangles.svg	23	yes	57	0	241
6.6.1	mac	2022-12-15	12:45:48	12:57:27	698275	6111782b298eff6c31853ea8	791734598	1	main_slash	11	main_slash	47	stimuli_distractor_trianglediamonds.svg	stimuli_target_diamondcircles.svg	27	yes	53	1	358
6.6.1	mac	2022-12-15	12:45:48	12:57:27	698275	6111782b298eff6c31853ea8	791734598	1	main_slash	11	advance_on_keypress_SLASH	48	stimuli_distractor_trianglediamonds.svg	stimuli_target_diamondcircles.svg	27	yes	57	0	289
6.6.1	mac	2022-12-15	12:45:48	12:57:28	699454	6111782b298eff6c31853ea8	791734598	1	main_slash	11	main_slash	49	stimuli_target_diamondsquares.svg	stimuli_distractor_diamondtriangles.svg	24	yes	53	1	271
6.6.1	mac	2022-12-15	12:45:48	12:57:28	699454	6111782b298eff6c31853ea8	791734598	1	main_slash	11	advance_on_keypress_SLASH	50	stimuli_target_diamondsquares.svg	stimuli_distractor_diamondtriangles.svg	24	yes	57	0	326
6.6.1	mac	2022-12-15	12:45:48	12:57:30	700896	6111782b298eff6c31853ea8	791734598	1	main_slash	11	main_slash	51	stimuli_target_trianglesquares.svg	stimuli_distractor_diamondtriangles.svg	22	yes	53	1	495
6.6.1	mac	2022-12-15	12:45:48	12:57:30	700896	6111782b298eff6c31853ea8	791734598	1	main_slash	11	advance_on_keypress_SLASH	52	stimuli_target_trianglesquares.svg	stimuli_distractor_diamondtriangles.svg	22	yes	57	0	303
6.6.1	mac	2022-12-15	12:45:48	12:57:31	702114	6111782b298eff6c31853ea8	791734598	1	main_slash	11	main_slash	53	stimuli_target_circlediamonds.svg	stimuli_distractor_diamondtriangles.svg	6	yes	53	1	280
6.6.1	mac	2022-12-15	12:45:48	12:57:31	702114	6111782b298eff6c31853ea8	791734598	1	main_slash	11	advance_on_keypress_SLASH	54	stimuli_target_circlediamonds.svg	stimuli_distractor_diamondtriangles.svg	6	yes	57	0	247
6.6.1	mac	2022-12-15	12:45:48	12:57:32	703303	6111782b298eff6c31853ea8	791734598	1	main_slash	11	main_slash	55	stimuli_target_squarediamonds.svg	stimuli_distractor_diamondtriangles.svg	8	yes	53	1	303
6.6.1	mac	2022-12-15	12:45:48	12:57:32	703303	6111782b298eff6c31853ea8	791734598	1	main_slash	11	advance_on_keypress_SLASH	56	stimuli_target_squarediamonds.svg	stimuli_distractor_diamondtriangles.svg	8	yes	57	0	295
6.6.1	mac	2022-12-15	12:45:48	12:57:33	704458	6111782b298eff6c31853ea8	791734598	1	main_slash	11	main_slash	57	stimuli_target_squaretriangles.svg	stimuli_distractor_trianglediamonds.svg	3	yes	53	1	225
6.6.1	mac	2022-12-15	12:45:48	12:57:33	704458	6111782b298eff6c31853ea8	791734598	1	main_slash	11	advance_on_keypress_SLASH	58	stimuli_target_squaretriangles.svg	stimuli_distractor_trianglediamonds.svg	3	yes	57	0	252
6.6.1	mac	2022-12-15	12:45:48	12:57:34	705569	6111782b298eff6c31853ea8	791734598	1	main_slash	11	main_slash	59	stimuli_target_trianglecircles.svg	stimuli_distractor_diamondtriangles.svg	21	yes	53	1	236
6.6.1	mac	2022-12-15	12:45:48	12:57:34	705569	6111782b298eff6c31853ea8	791734598	1	main_slash	11	advance_on_keypress_SLASH	60	stimuli_target_trianglecircles.svg	stimuli_distractor_diamondtriangles.svg	21	yes	57	0	220
6.6.1	mac	2022-12-15	12:45:48	12:57:36	706640	6111782b298eff6c31853ea8	791734598	1	main_slash	11	main_slash	61	stimuli_distractor_diamondtriangles.svg	stimuli_distractor_diamondtriangles.svg	40	no	53	0	222
6.6.1	mac	2022-12-15	12:45:48	12:57:36	706640	6111782b298eff6c31853ea8	791734598	1	main_slash	11	advance_on_keypress_SLASH	62	stimuli_distractor_diamondtriangles.svg	stimuli_distractor_diamondtriangles.svg	40	no	57	0	269
6.6.1	mac	2022-12-15	12:45:48	12:57:37	707830	6111782b298eff6c31853ea8	791734598	1	main_slash	11	main_slash	63	stimuli_distractor_trianglediamonds.svg	stimuli_target_circletriangles.svg	9	yes	53	1	295
6.6.1	mac	2022-12-15	12:45:48	12:57:37	707830	6111782b298eff6c31853ea8	791734598	1	main_slash	11	advance_on_keypress_SLASH	64	stimuli_distractor_trianglediamonds.svg	stimuli_target_circletriangles.svg	9	yes	57	0	224
6.6.1	mac	2022-12-15	12:45:48	12:57:38	708968	6111782b298eff6c31853ea8	791734598	1	main_slash	11	main_slash	65	stimuli_target_trianglecircles.svg	stimuli_distractor_trianglediamonds.svg	17	yes	53	1	284
6.6.1	mac	2022-12-15	12:45:48	12:57:38	708968	6111782b298eff6c31853ea8	791734598	1	main_slash	11	advance_on_keypress_SLASH	66	stimuli_target_trianglecircles.svg	stimuli_distractor_trianglediamonds.svg	17	yes	57	0	306
6.6.1	mac	2022-12-15	12:45:48	12:57:39	710221	6111782b298eff6c31853ea8	791734598	1	main_slash	11	main_slash	67	stimuli_target_squarediamonds.svg	stimuli_distractor_trianglediamonds.svg	4	yes	53	1	321
6.6.1	mac	2022-12-15	12:45:48	12:57:39	710221	6111782b298eff6c31853ea8	791734598	1	main_slash	11	advance_on_keypress_SLASH	68	stimuli_target_squarediamonds.svg	stimuli_distractor_trianglediamonds.svg	4	yes	57	0	195
6.6.1	mac	2022-12-15	12:45:48	12:57:40	711351	6111782b298eff6c31853ea8	791734598	1	main_slash	11	main_slash	69	stimuli_distractor_diamondtriangles.svg	stimuli_target_squarediamonds.svg	16	yes	53	1	301
6.6.1	mac	2022-12-15	12:45:48	12:57:40	711351	6111782b298eff6c31853ea8	791734598	1	main_slash	11	advance_on_keypress_SLASH	70	stimuli_distractor_diamondtriangles.svg	stimuli_target_squarediamonds.svg	16	yes	57	0	195
6.6.1	mac	2022-12-15	12:45:48	12:57:42	713116	6111782b298eff6c31853ea8	791734598	1	main_slash	11	main_slash	71	stimuli_target_squaretriangles.svg	stimuli_distractor_diamondtriangles.svg	7	yes	53	1	948
6.6.1	mac	2022-12-15	12:45:48	12:57:42	713116	6111782b298eff6c31853ea8	791734598	1	main_slash	11	advance_on_keypress_SLASH	72	stimuli_target_squaretriangles.svg	stimuli_distractor_diamondtriangles.svg	7	yes	57	0	232
6.6.1	mac	2022-12-15	12:45:48	12:57:43	714432	6111782b298eff6c31853ea8	791734598	1	main_slash	11	main_slash	73	stimuli_target_circletriangles.svg	stimuli_distractor_diamondtriangles.svg	5	yes	53	1	449
6.6.1	mac	2022-12-15	12:45:48	12:57:43	714432	6111782b298eff6c31853ea8	791734598	1	main_slash	11	advance_on_keypress_SLASH	74	stimuli_target_circletriangles.svg	stimuli_distractor_diamondtriangles.svg	5	yes	57	0	245
6.6.1	mac	2022-12-15	12:45:48	12:57:44	715597	6111782b298eff6c31853ea8	791734598	1	main_slash	11	main_slash	75	stimuli_distractor_trianglediamonds.svg	stimuli_distractor_diamondtriangles.svg	35	no	53	0	283
6.6.1	mac	2022-12-15	12:45:48	12:57:44	715597	6111782b298eff6c31853ea8	791734598	1	main_slash	11	advance_on_keypress_SLASH	76	stimuli_distractor_trianglediamonds.svg	stimuli_distractor_diamondtriangles.svg	35	no	57	0	382
6.6.1	mac	2022-12-15	12:45:48	12:57:47	717943	6111782b298eff6c31853ea8	791734598	1	main_slash	11	main_slash	77	stimuli_target_diamondcircles.svg	stimuli_distractor_trianglediamonds.svg	19	yes	53	1	1327
6.6.1	mac	2022-12-15	12:45:48	12:57:47	717943	6111782b298eff6c31853ea8	791734598	1	main_slash	11	advance_on_keypress_SLASH	78	stimuli_target_diamondcircles.svg	stimuli_distractor_trianglediamonds.svg	19	yes	57	0	206
6.6.1	mac	2022-12-15	12:45:48	12:57:50	720782	6111782b298eff6c31853ea8	791734598	1	main_slash	11	main_slash	79	stimuli_distractor_diamondtriangles.svg	stimuli_distractor_trianglediamonds.svg	38	no	0	1	2000
6.6.1	mac	2022-12-15	12:45:48	12:57:50	720782	6111782b298eff6c31853ea8	791734598	1	main_slash	11	advance_on_keypress_SLASH	80	stimuli_distractor_diamondtriangles.svg	stimuli_distractor_trianglediamonds.svg	38	no	57	0	684
6.6.1	mac	2022-12-15	12:45:48	12:57:52	722633	6111782b298eff6c31853ea8	791734598	1	main_slash	11	main_slash	81	stimuli_target_trianglecircles.svg	stimuli_distractor_trianglediamonds.svg	17	yes	53	1	534
6.6.1	mac	2022-12-15	12:45:48	12:57:52	722633	6111782b298eff6c31853ea8	791734598	1	main_slash	11	advance_on_keypress_SLASH	82	stimuli_target_trianglecircles.svg	stimuli_distractor_trianglediamonds.svg	17	yes	57	0	329
6.6.1	mac	2022-12-15	12:45:48	12:57:53	723964	6111782b298eff6c31853ea8	791734598	1	main_slash	11	main_slash	83	stimuli_distractor_diamondtriangles.svg	stimuli_target_squarediamonds.svg	16	yes	53	1	363
6.6.1	mac	2022-12-15	12:45:48	12:57:53	723964	6111782b298eff6c31853ea8	791734598	1	main_slash	11	advance_on_keypress_SLASH	84	stimuli_distractor_diamondtriangles.svg	stimuli_target_squarediamonds.svg	16	yes	57	0	220
6.6.1	mac	2022-12-15	12:45:48	12:57:54	725190	6111782b298eff6c31853ea8	791734598	1	main_slash	11	main_slash	85	stimuli_target_squarediamonds.svg	stimuli_distractor_diamondtriangles.svg	8	yes	53	1	372
6.6.1	mac	2022-12-15	12:45:48	12:57:54	725190	6111782b298eff6c31853ea8	791734598	1	main_slash	11	advance_on_keypress_SLASH	86	stimuli_target_squarediamonds.svg	stimuli_distractor_diamondtriangles.svg	8	yes	57	0	174
6.6.1	mac	2022-12-15	12:45:48	12:57:55	726397	6111782b298eff6c31853ea8	791734598	1	main_slash	11	main_slash	87	stimuli_target_squaretriangles.svg	stimuli_distractor_trianglediamonds.svg	3	yes	53	1	414
6.6.1	mac	2022-12-15	12:45:48	12:57:55	726397	6111782b298eff6c31853ea8	791734598	1	main_slash	11	advance_on_keypress_SLASH	88	stimuli_target_squaretriangles.svg	stimuli_distractor_trianglediamonds.svg	3	yes	57	0	252
6.6.1	mac	2022-12-15	12:45:48	12:57:56	727607	6111782b298eff6c31853ea8	791734598	1	main_slash	11	main_slash	89	stimuli_target_circletriangles.svg	stimuli_distractor_trianglediamonds.svg	1	yes	53	1	323
6.6.1	mac	2022-12-15	12:45:48	12:57:56	727607	6111782b298eff6c31853ea8	791734598	1	main_slash	11	advance_on_keypress_SLASH	90	stimuli_target_circletriangles.svg	stimuli_distractor_trianglediamonds.svg	1	yes	57	0	203
6.6.1	mac	2022-12-15	12:45:48	12:57:58	728790	6111782b298eff6c31853ea8	791734598	1	main_slash	11	main_slash	91	stimuli_distractor_diamondtriangles.svg	stimuli_target_trianglesquares.svg	30	yes	53	1	355
6.6.1	mac	2022-12-15	12:45:48	12:57:58	728790	6111782b298eff6c31853ea8	791734598	1	main_slash	11	advance_on_keypress_SLASH	92	stimuli_distractor_diamondtriangles.svg	stimuli_target_trianglesquares.svg	30	yes	57	0	326
6.6.1	mac	2022-12-15	12:45:48	12:57:59	730193	6111782b298eff6c31853ea8	791734598	1	main_slash	11	main_slash	93	stimuli_distractor_trianglediamonds.svg	stimuli_target_trianglecircles.svg	25	yes	53	1	444
6.6.1	mac	2022-12-15	12:45:48	12:57:59	730193	6111782b298eff6c31853ea8	791734598	1	main_slash	11	advance_on_keypress_SLASH	94	stimuli_distractor_trianglediamonds.svg	stimuli_target_trianglecircles.svg	25	yes	57	0	225
6.6.1	mac	2022-12-15	12:45:48	12:58:00	731428	6111782b298eff6c31853ea8	791734598	1	main_slash	11	main_slash	95	stimuli_distractor_trianglediamonds.svg	stimuli_target_circletriangles.svg	9	yes	53	1	377
6.6.1	mac	2022-12-15	12:45:48	12:58:00	731428	6111782b298eff6c31853ea8	791734598	1	main_slash	11	advance_on_keypress_SLASH	96	stimuli_distractor_trianglediamonds.svg	stimuli_target_circletriangles.svg	9	yes	57	0	263
6.6.1	mac	2022-12-15	12:45:48	12:58:02	732767	6111782b298eff6c31853ea8	791734598	1	main_slash	11	main_slash	97	stimuli_distractor_trianglediamonds.svg	stimuli_distractor_diamondtriangles.svg	36	no	53	0	436
6.6.1	mac	2022-12-15	12:45:48	12:58:02	732767	6111782b298eff6c31853ea8	791734598	1	main_slash	11	advance_on_keypress_SLASH	98	stimuli_distractor_trianglediamonds.svg	stimuli_distractor_diamondtriangles.svg	36	no	57	0	369
6.6.1	mac	2022-12-15	12:45:48	12:58:05	735766	6111782b298eff6c31853ea8	791734598	1	main_slash	11	main_slash	99	stimuli_distractor_trianglediamonds.svg	stimuli_distractor_trianglediamonds.svg	33	no	0	1	2000
6.6.1	mac	2022-12-15	12:45:48	12:58:05	735766	6111782b298eff6c31853ea8	791734598	1	main_slash	11	advance_on_keypress_SLASH	100	stimuli_distractor_trianglediamonds.svg	stimuli_distractor_trianglediamonds.svg	33	no	57	0	499
6.6.1	mac	2022-12-15	12:45:48	12:58:07	737827	6111782b298eff6c31853ea8	791734598	1	main_slash	11	main_slash	101	stimuli_distractor_trianglediamonds.svg	stimuli_target_squarediamonds.svg	12	yes	53	1	926
6.6.1	mac	2022-12-15	12:45:48	12:58:07	737827	6111782b298eff6c31853ea8	791734598	1	main_slash	11	advance_on_keypress_SLASH	102	stimuli_distractor_trianglediamonds.svg	stimuli_target_squarediamonds.svg	12	yes	57	0	438
6.6.1	mac	2022-12-15	12:45:48	12:58:08	739543	6111782b298eff6c31853ea8	791734598	1	main_slash	11	main_slash	103	stimuli_distractor_trianglediamonds.svg	stimuli_target_trianglesquares.svg	26	yes	53	1	642
6.6.1	mac	2022-12-15	12:45:48	12:58:08	739543	6111782b298eff6c31853ea8	791734598	1	main_slash	11	advance_on_keypress_SLASH	104	stimuli_distractor_trianglediamonds.svg	stimuli_target_trianglesquares.svg	26	yes	57	0	341
6.6.1	mac	2022-12-15	12:45:48	12:58:10	741023	6111782b298eff6c31853ea8	791734598	1	main_slash	11	main_slash	105	stimuli_target_diamondsquares.svg	stimuli_distractor_diamondtriangles.svg	24	yes	53	1	506
6.6.1	mac	2022-12-15	12:45:48	12:58:10	741023	6111782b298eff6c31853ea8	791734598	1	main_slash	11	advance_on_keypress_SLASH	106	stimuli_target_diamondsquares.svg	stimuli_distractor_diamondtriangles.svg	24	yes	57	0	365
6.6.1	mac	2022-12-15	12:45:48	12:58:11	742466	6111782b298eff6c31853ea8	791734598	1	main_slash	11	main_slash	107	stimuli_distractor_trianglediamonds.svg	stimuli_target_diamondsquares.svg	28	yes	53	1	449
6.6.1	mac	2022-12-15	12:45:48	12:58:11	742466	6111782b298eff6c31853ea8	791734598	1	main_slash	11	advance_on_keypress_SLASH	108	stimuli_distractor_trianglediamonds.svg	stimuli_target_diamondsquares.svg	28	yes	57	0	566
6.6.1	mac	2022-12-15	12:45:48	12:58:13	744627	6111782b298eff6c31853ea8	791734598	1	main_slash	11	main_slash	109	stimuli_distractor_trianglediamonds.svg	stimuli_target_squaretriangles.svg	11	yes	53	1	959
6.6.1	mac	2022-12-15	12:45:48	12:58:13	744627	6111782b298eff6c31853ea8	791734598	1	main_slash	11	advance_on_keypress_SLASH	110	stimuli_distractor_trianglediamonds.svg	stimuli_target_squaretriangles.svg	11	yes	57	0	282
6.6.1	mac	2022-12-15	12:45:48	12:58:15	745883	6111782b298eff6c31853ea8	791734598	1	main_slash	11	main_slash	111	stimuli_distractor_diamondtriangles.svg	stimuli_target_squaretriangles.svg	15	yes	53	1	333
6.6.1	mac	2022-12-15	12:45:48	12:58:15	745883	6111782b298eff6c31853ea8	791734598	1	main_slash	11	advance_on_keypress_SLASH	112	stimuli_distractor_diamondtriangles.svg	stimuli_target_squaretriangles.svg	15	yes	57	0	247
6.6.1	mac	2022-12-15	12:45:48	12:58:16	747060	6111782b298eff6c31853ea8	791734598	1	main_slash	11	main_slash	113	stimuli_distractor_trianglediamonds.svg	stimuli_distractor_diamondtriangles.svg	35	no	53	0	292
6.6.1	mac	2022-12-15	12:45:48	12:58:16	747060	6111782b298eff6c31853ea8	791734598	1	main_slash	11	advance_on_keypress_SLASH	114	stimuli_distractor_trianglediamonds.svg	stimuli_distractor_diamondtriangles.svg	35	no	57	0	186
6.6.1	mac	2022-12-15	12:45:48	12:58:17	748277	6111782b298eff6c31853ea8	791734598	1	main_slash	11	main_slash	115	stimuli_target_squarediamonds.svg	stimuli_distractor_trianglediamonds.svg	4	yes	53	1	395
6.6.1	mac	2022-12-15	12:45:48	12:58:17	748277	6111782b298eff6c31853ea8	791734598	1	main_slash	11	advance_on_keypress_SLASH	116	stimuli_target_squarediamonds.svg	stimuli_distractor_trianglediamonds.svg	4	yes	57	0	200
6.6.1	mac	2022-12-15	12:45:48	12:58:18	749467	6111782b298eff6c31853ea8	791734598	1	main_slash	11	main_slash	117	stimuli_target_squaretriangles.svg	stimuli_distractor_diamondtriangles.svg	7	yes	53	1	349
6.6.1	mac	2022-12-15	12:45:48	12:58:18	749467	6111782b298eff6c31853ea8	791734598	1	main_slash	11	advance_on_keypress_SLASH	118	stimuli_target_squaretriangles.svg	stimuli_distractor_diamondtriangles.svg	7	yes	57	0	204
6.6.1	mac	2022-12-15	12:45:48	12:58:19	750542	6111782b298eff6c31853ea8	791734598	1	main_slash	11	main_slash	119	stimuli_distractor_diamondtriangles.svg	stimuli_target_circletriangles.svg	13	yes	53	1	242
6.6.1	mac	2022-12-15	12:45:48	12:58:19	750542	6111782b298eff6c31853ea8	791734598	1	main_slash	11	advance_on_keypress_SLASH	120	stimuli_distractor_diamondtriangles.svg	stimuli_target_circletriangles.svg	13	yes	57	0	189
6.6.1	mac	2022-12-15	12:45:48	12:58:21	751659	6111782b298eff6c31853ea8	791734598	1	main_slash	11	main_slash	121	stimuli_distractor_diamondtriangles.svg	stimuli_distractor_trianglediamonds.svg	38	no	53	0	292
6.6.1	mac	2022-12-15	12:45:48	12:58:21	751659	6111782b298eff6c31853ea8	791734598	1	main_slash	11	advance_on_keypress_SLASH	122	stimuli_distractor_diamondtriangles.svg	stimuli_distractor_trianglediamonds.svg	38	no	57	0	213
6.6.1	mac	2022-12-15	12:45:48	12:58:22	753180	6111782b298eff6c31853ea8	791734598	1	main_slash	11	main_slash	123	stimuli_target_trianglecircles.svg	stimuli_distractor_diamondtriangles.svg	21	yes	53	1	661
6.6.1	mac	2022-12-15	12:45:48	12:58:22	753180	6111782b298eff6c31853ea8	791734598	1	main_slash	11	advance_on_keypress_SLASH	124	stimuli_target_trianglecircles.svg	stimuli_distractor_diamondtriangles.svg	21	yes	57	0	196
6.6.1	mac	2022-12-15	12:45:48	12:58:24	754650	6111782b298eff6c31853ea8	791734598	1	main_slash	11	main_slash	125	stimuli_distractor_diamondtriangles.svg	stimuli_target_circlediamonds.svg	14	yes	53	1	632
6.6.1	mac	2022-12-15	12:45:48	12:58:24	754650	6111782b298eff6c31853ea8	791734598	1	main_slash	11	advance_on_keypress_SLASH	126	stimuli_distractor_diamondtriangles.svg	stimuli_target_circlediamonds.svg	14	yes	57	0	229
6.6.1	mac	2022-12-15	12:45:48	12:58:25	755911	6111782b298eff6c31853ea8	791734598	1	main_slash	11	main_slash	127	stimuli_target_circlediamonds.svg	stimuli_distractor_diamondtriangles.svg	6	yes	53	1	395
6.6.1	mac	2022-12-15	12:45:48	12:58:25	755911	6111782b298eff6c31853ea8	791734598	1	main_slash	11	advance_on_keypress_SLASH	128	stimuli_target_circlediamonds.svg	stimuli_distractor_diamondtriangles.svg	6	yes	57	0	229
6.6.1	mac	2022-12-15	12:45:48	12:58:26	757144	6111782b298eff6c31853ea8	791734598	1	main_slash	11	main_slash	129	stimuli_distractor_diamondtriangles.svg	stimuli_distractor_diamondtriangles.svg	40	no	53	0	361
6.6.1	mac	2022-12-15	12:45:48	12:58:26	757144	6111782b298eff6c31853ea8	791734598	1	main_slash	11	advance_on_keypress_SLASH	130	stimuli_distractor_diamondtriangles.svg	stimuli_distractor_diamondtriangles.svg	40	no	57	0	160
6.6.1	mac	2022-12-15	12:45:48	12:58:28	758714	6111782b298eff6c31853ea8	791734598	1	main_slash	11	main_slash	131	stimuli_target_trianglesquares.svg	stimuli_distractor_diamondtriangles.svg	22	yes	53	1	780
6.6.1	mac	2022-12-15	12:45:48	12:58:28	758714	6111782b298eff6c31853ea8	791734598	1	main_slash	11	advance_on_keypress_SLASH	132	stimuli_target_trianglesquares.svg	stimuli_distractor_diamondtriangles.svg	22	yes	57	0	369
6.6.1	mac	2022-12-15	12:45:48	12:58:29	760261	6111782b298eff6c31853ea8	791734598	1	main_slash	11	main_slash	133	stimuli_distractor_trianglediamonds.svg	stimuli_target_circlediamonds.svg	10	yes	53	1	545
6.6.1	mac	2022-12-15	12:45:48	12:58:29	760261	6111782b298eff6c31853ea8	791734598	1	main_slash	11	advance_on_keypress_SLASH	134	stimuli_distractor_trianglediamonds.svg	stimuli_target_circlediamonds.svg	10	yes	57	0	208
6.6.1	mac	2022-12-15	12:45:48	12:58:30	761565	6111782b298eff6c31853ea8	791734598	1	main_slash	11	main_slash	135	stimuli_distractor_trianglediamonds.svg	stimuli_distractor_trianglediamonds.svg	34	no	53	0	465
6.6.1	mac	2022-12-15	12:45:48	12:58:30	761565	6111782b298eff6c31853ea8	791734598	1	main_slash	11	advance_on_keypress_SLASH	136	stimuli_distractor_trianglediamonds.svg	stimuli_distractor_trianglediamonds.svg	34	no	57	0	268
6.6.1	mac	2022-12-15	12:45:48	12:58:32	762795	6111782b298eff6c31853ea8	791734598	1	main_slash	11	main_slash	137	stimuli_target_trianglesquares.svg	stimuli_distractor_trianglediamonds.svg	18	yes	53	1	328
6.6.1	mac	2022-12-15	12:45:48	12:58:32	762795	6111782b298eff6c31853ea8	791734598	1	main_slash	11	advance_on_keypress_SLASH	138	stimuli_target_trianglesquares.svg	stimuli_distractor_trianglediamonds.svg	18	yes	57	0	275
6.6.1	mac	2022-12-15	12:45:48	12:58:33	763963	6111782b298eff6c31853ea8	791734598	1	main_slash	11	main_slash	139	stimuli_target_diamondcircles.svg	stimuli_distractor_trianglediamonds.svg	19	yes	53	1	261
6.6.1	mac	2022-12-15	12:45:48	12:58:33	763963	6111782b298eff6c31853ea8	791734598	1	main_slash	11	advance_on_keypress_SLASH	140	stimuli_target_diamondcircles.svg	stimuli_distractor_trianglediamonds.svg	19	yes	57	0	158
6.6.1	mac	2022-12-15	12:45:48	12:58:34	765126	6111782b298eff6c31853ea8	791734598	1	main_slash	11	main_slash	141	stimuli_distractor_diamondtriangles.svg	stimuli_distractor_diamondtriangles.svg	39	no	53	0	374
6.6.1	mac	2022-12-15	12:45:48	12:58:34	765126	6111782b298eff6c31853ea8	791734598	1	main_slash	11	advance_on_keypress_SLASH	142	stimuli_distractor_diamondtriangles.svg	stimuli_distractor_diamondtriangles.svg	39	no	57	0	308
6.6.1	mac	2022-12-15	12:45:48	12:58:37	768068	6111782b298eff6c31853ea8	791734598	1	main_slash	11	main_slash	143	stimuli_distractor_diamondtriangles.svg	stimuli_distractor_trianglediamonds.svg	37	no	0	1	2000
6.6.1	mac	2022-12-15	12:45:48	12:58:37	768068	6111782b298eff6c31853ea8	791734598	1	main_slash	11	advance_on_keypress_SLASH	144	stimuli_distractor_diamondtriangles.svg	stimuli_distractor_trianglediamonds.svg	37	no	57	0	528
6.6.1	mac	2022-12-15	12:45:48	12:58:39	769657	6111782b298eff6c31853ea8	791734598	1	main_slash	11	main_slash	145	stimuli_distractor_diamondtriangles.svg	stimuli_target_trianglecircles.svg	29	yes	53	1	426
6.6.1	mac	2022-12-15	12:45:48	12:58:39	769657	6111782b298eff6c31853ea8	791734598	1	main_slash	11	advance_on_keypress_SLASH	146	stimuli_distractor_diamondtriangles.svg	stimuli_target_trianglecircles.svg	29	yes	57	0	248
6.6.1	mac	2022-12-15	12:45:48	12:58:40	771090	6111782b298eff6c31853ea8	791734598	1	main_slash	11	main_slash	147	stimuli_target_circletriangles.svg	stimuli_distractor_diamondtriangles.svg	5	yes	53	1	557
6.6.1	mac	2022-12-15	12:45:48	12:58:40	771090	6111782b298eff6c31853ea8	791734598	1	main_slash	11	advance_on_keypress_SLASH	148	stimuli_target_circletriangles.svg	stimuli_distractor_diamondtriangles.svg	5	yes	57	0	214
6.6.1	mac	2022-12-15	12:45:48	12:58:41	772395	6111782b298eff6c31853ea8	791734598	1	main_slash	11	main_slash	149	stimuli_distractor_diamondtriangles.svg	stimuli_target_diamondcircles.svg	31	yes	53	1	461
6.6.1	mac	2022-12-15	12:45:48	12:58:41	772395	6111782b298eff6c31853ea8	791734598	1	main_slash	11	advance_on_keypress_SLASH	150	stimuli_distractor_diamondtriangles.svg	stimuli_target_diamondcircles.svg	31	yes	57	0	198
6.6.1	mac	2022-12-15	12:45:48	12:58:42	773590	6111782b298eff6c31853ea8	791734598	1	main_slash	11	main_slash	151	stimuli_target_circlediamonds.svg	stimuli_distractor_trianglediamonds.svg	2	yes	53	1	356
6.6.1	mac	2022-12-15	12:45:48	12:58:42	773590	6111782b298eff6c31853ea8	791734598	1	main_slash	11	advance_on_keypress_SLASH	152	stimuli_target_circlediamonds.svg	stimuli_distractor_trianglediamonds.svg	2	yes	57	0	185
6.6.1	mac	2022-12-15	12:45:48	12:58:44	774796	6111782b298eff6c31853ea8	791734598	1	main_slash	11	main_slash	153	stimuli_target_diamondsquares.svg	stimuli_distractor_trianglediamonds.svg	20	yes	53	1	397
6.6.1	mac	2022-12-15	12:45:48	12:58:44	774796	6111782b298eff6c31853ea8	791734598	1	main_slash	11	advance_on_keypress_SLASH	154	stimuli_target_diamondsquares.svg	stimuli_distractor_trianglediamonds.svg	20	yes	57	0	243
6.6.1	mac	2022-12-15	12:45:48	12:58:45	775720	6111782b298eff6c31853ea8	791734598	1	main_slash	11	main_slash	155	stimuli_target_diamondcircles.svg	stimuli_distractor_diamondtriangles.svg	23	yes	53	1	55
6.6.1	mac	2022-12-15	12:45:48	12:58:45	775720	6111782b298eff6c31853ea8	791734598	1	main_slash	11	advance_on_keypress_SLASH	156	stimuli_target_diamondcircles.svg	stimuli_distractor_diamondtriangles.svg	23	yes	57	0	341
6.6.1	mac	2022-12-15	12:45:48	12:58:48	778682	6111782b298eff6c31853ea8	791734598	1	main_slash	11	main_slash	157	stimuli_distractor_diamondtriangles.svg	stimuli_target_diamondsquares.svg	32	yes	0	0	2000
6.6.1	mac	2022-12-15	12:45:48	12:58:48	778682	6111782b298eff6c31853ea8	791734598	1	main_slash	11	advance_on_keypress_SLASH	158	stimuli_distractor_diamondtriangles.svg	stimuli_target_diamondsquares.svg	32	yes	57	0	449
6.6.1	mac	2022-12-15	12:45:48	12:58:49	780340	6111782b298eff6c31853ea8	791734598	1	main_slash	11	main_slash	159	stimuli_distractor_trianglediamonds.svg	stimuli_target_diamondcircles.svg	27	yes	53	1	574
6.6.1	mac	2022-12-15	12:45:48	12:58:49	780340	6111782b298eff6c31853ea8	791734598	1	main_slash	11	advance_on_keypress_SLASH	160	stimuli_distractor_trianglediamonds.svg	stimuli_target_diamondcircles.svg	27	yes	57	0	283