build	computer.platform	date	time	timestamp	time_elapsed_ms	subject	group	session	blockcode	blocknum	trialcode	trialnum	stimulus_left	stimulus_right	stim_index	target_present	response	correct	latency
6.6.1	win	2022-12-14	11:41:18	11:42:43	84269	5e4b793f03c92a08a6d28e3f	397550665	1	practice_slash	5	practice_slash	1	stimuli_target_circlediamonds.svg	stimuli_distractor_trianglediamonds.svg	4	yes	0	0	2003
6.6.1	win	2022-12-14	11:41:18	11:42:43	84269	5e4b793f03c92a08a6d28e3f	397550665	1	practice_slash	5	advance_on_keypress_SLASH	2	stimuli_target_circlediamonds.svg	stimuli_distractor_trianglediamonds.svg	4	yes	57	0	3479
6.6.1	win	2022-12-14	11:41:18	11:42:50	91371	5e4b793f03c92a08a6d28e3f	397550665	1	practice_slash	5	practice_slash	3	stimuli_target_circlediamonds.svg	stimuli_distractor_diamondtriangles.svg	1	yes	0	0	2003
6.6.1	win	2022-12-14	11:41:18	11:42:50	91371	5e4b793f03c92a08a6d28e3f	397550665	1	practice_slash	5	advance_on_keypress_SLASH	4	stimuli_target_circlediamonds.svg	stimuli_distractor_diamondtriangles.svg	1	yes	57	0	5081
6.6.1	win	2022-12-14	11:41:18	11:42:58	99704	5e4b793f03c92a08a6d28e3f	397550665	1	practice_slash	5	practice_slash	5	stimuli_distractor_trianglediamonds.svg	stimuli_distractor_trianglediamonds.svg	15	no	53	0	1629
6.6.1	win	2022-12-14	11:41:18	11:42:58	99704	5e4b793f03c92a08a6d28e3f	397550665	1	practice_slash	5	advance_on_keypress_SLASH	6	stimuli_distractor_trianglediamonds.svg	stimuli_distractor_trianglediamonds.svg	15	no	57	0	511
6.6.1	win	2022-12-14	11:41:18	11:43:02	103839	5e4b793f03c92a08a6d28e3f	397550665	1	practice_slash	5	practice_slash	7	stimuli_distractor_trianglediamonds.svg	stimuli_distractor_diamondtriangles.svg	16	no	0	1	2003
6.6.1	win	2022-12-14	11:41:18	11:43:02	103839	5e4b793f03c92a08a6d28e3f	397550665	1	practice_slash	5	advance_on_keypress_SLASH	8	stimuli_distractor_trianglediamonds.svg	stimuli_distractor_diamondtriangles.svg	16	no	57	0	777
6.6.1	win	2022-12-14	11:41:18	11:43:07	108243	5e4b793f03c92a08a6d28e3f	397550665	1	practice_slash	5	practice_slash	9	stimuli_distractor_diamondtriangles.svg	stimuli_target_trianglecircles.svg	9	yes	0	0	2003
6.6.1	win	2022-12-14	11:41:18	11:43:07	108243	5e4b793f03c92a08a6d28e3f	397550665	1	practice_slash	5	advance_on_keypress_SLASH	10	stimuli_distractor_diamondtriangles.svg	stimuli_target_trianglecircles.svg	9	yes	57	0	3328
6.6.1	win	2022-12-14	11:41:18	11:43:14	115196	5e4b793f03c92a08a6d28e3f	397550665	1	practice_slash	5	practice_slash	11	stimuli_target_squarediamonds.svg	stimuli_distractor_trianglediamonds.svg	5	yes	0	0	2003
6.6.1	win	2022-12-14	11:41:18	11:43:14	115196	5e4b793f03c92a08a6d28e3f	397550665	1	practice_slash	5	advance_on_keypress_SLASH	12	stimuli_target_squarediamonds.svg	stimuli_distractor_trianglediamonds.svg	5	yes	57	0	496
6.6.1	win	2022-12-14	11:41:18	11:43:17	118384	5e4b793f03c92a08a6d28e3f	397550665	1	practice_slash	5	practice_slash	13	stimuli_target_squarediamonds.svg	stimuli_distractor_diamondtriangles.svg	2	yes	53	1	1069
6.6.1	win	2022-12-14	11:41:18	11:43:17	118384	5e4b793f03c92a08a6d28e3f	397550665	1	practice_slash	5	advance_on_keypress_SLASH	14	stimuli_target_squarediamonds.svg	stimuli_distractor_diamondtriangles.svg	2	yes	57	0	801
6.6.1	win	2022-12-14	11:41:18	11:43:20	121746	5e4b793f03c92a08a6d28e3f	397550665	1	practice_slash	5	practice_slash	15	stimuli_distractor_diamondtriangles.svg	stimuli_distractor_diamondtriangles.svg	13	no	53	0	938
6.6.1	win	2022-12-14	11:41:18	11:43:20	121746	5e4b793f03c92a08a6d28e3f	397550665	1	practice_slash	5	advance_on_keypress_SLASH	16	stimuli_distractor_diamondtriangles.svg	stimuli_distractor_diamondtriangles.svg	13	no	57	0	962
6.6.1	win	2022-12-14	11:41:18	11:43:24	125448	5e4b793f03c92a08a6d28e3f	397550665	1	practice_slash	5	practice_slash	17	stimuli_target_diamondsquares.svg	stimuli_distractor_trianglediamonds.svg	6	yes	53	1	1118
6.6.1	win	2022-12-14	11:41:18	11:43:24	125448	5e4b793f03c92a08a6d28e3f	397550665	1	practice_slash	5	advance_on_keypress_SLASH	18	stimuli_target_diamondsquares.svg	stimuli_distractor_trianglediamonds.svg	6	yes	57	0	3242
6.6.1	win	2022-12-14	11:41:18	11:43:31	132316	5e4b793f03c92a08a6d28e3f	397550665	1	practice_slash	5	practice_slash	19	stimuli_distractor_trianglediamonds.svg	stimuli_target_diamondcircles.svg	12	yes	0	0	2003
6.6.1	win	2022-12-14	11:41:18	11:43:31	132316	5e4b793f03c92a08a6d28e3f	397550665	1	practice_slash	5	advance_on_keypress_SLASH	20	stimuli_distractor_trianglediamonds.svg	stimuli_target_diamondcircles.svg	12	yes	57	0	478
6.6.1	win	2022-12-14	11:41:18	11:43:35	136183	5e4b793f03c92a08a6d28e3f	397550665	1	practice_slash	5	practice_slash	21	stimuli_distractor_diamondtriangles.svg	stimuli_distractor_trianglediamonds.svg	14	no	53	0	1770
6.6.1	win	2022-12-14	11:41:18	11:43:35	136183	5e4b793f03c92a08a6d28e3f	397550665	1	practice_slash	5	advance_on_keypress_SLASH	22	stimuli_distractor_diamondtriangles.svg	stimuli_distractor_trianglediamonds.svg	14	no	57	0	301
6.6.1	win	2022-12-14	11:41:18	11:43:38	139044	5e4b793f03c92a08a6d28e3f	397550665	1	practice_slash	5	practice_slash	23	stimuli_target_diamondsquares.svg	stimuli_distractor_diamondtriangles.svg	3	yes	53	1	938
6.6.1	win	2022-12-14	11:41:18	11:43:38	139044	5e4b793f03c92a08a6d28e3f	397550665	1	practice_slash	5	advance_on_keypress_SLASH	24	stimuli_target_diamondsquares.svg	stimuli_distractor_diamondtriangles.svg	3	yes	57	0	451
6.6.1	win	2022-12-14	11:41:18	11:43:42	143156	5e4b793f03c92a08a6d28e3f	397550665	1	practice_slash	5	practice_slash	25	stimuli_distractor_trianglediamonds.svg	stimuli_target_squarediamonds.svg	11	yes	0	0	2003
6.6.1	win	2022-12-14	11:41:18	11:43:42	143156	5e4b793f03c92a08a6d28e3f	397550665	1	practice_slash	5	advance_on_keypress_SLASH	26	stimuli_distractor_trianglediamonds.svg	stimuli_target_squarediamonds.svg	11	yes	57	0	361
6.6.1	win	2022-12-14	11:41:18	11:43:45	146299	5e4b793f03c92a08a6d28e3f	397550665	1	practice_slash	5	practice_slash	27	stimuli_distractor_diamondtriangles.svg	stimuli_target_circletriangles.svg	7	yes	53	1	1158
6.6.1	win	2022-12-14	11:41:18	11:43:45	146299	5e4b793f03c92a08a6d28e3f	397550665	1	practice_slash	5	advance_on_keypress_SLASH	28	stimuli_distractor_diamondtriangles.svg	stimuli_target_circletriangles.svg	7	yes	57	0	401
6.6.1	win	2022-12-14	11:41:18	11:43:48	149272	5e4b793f03c92a08a6d28e3f	397550665	1	practice_slash	5	practice_slash	29	stimuli_distractor_diamondtriangles.svg	stimuli_target_diamondcircles.svg	8	yes	53	1	947
6.6.1	win	2022-12-14	11:41:18	11:43:48	149272	5e4b793f03c92a08a6d28e3f	397550665	1	practice_slash	5	advance_on_keypress_SLASH	30	stimuli_distractor_diamondtriangles.svg	stimuli_target_diamondcircles.svg	8	yes	57	0	362
6.6.1	win	2022-12-14	11:41:18	11:43:51	152273	5e4b793f03c92a08a6d28e3f	397550665	1	practice_slash	5	practice_slash	31	stimuli_distractor_trianglediamonds.svg	stimuli_target_circlediamonds.svg	10	yes	53	1	1020
6.6.1	win	2022-12-14	11:41:18	11:43:51	152273	5e4b793f03c92a08a6d28e3f	397550665	1	practice_slash	5	advance_on_keypress_SLASH	32	stimuli_distractor_trianglediamonds.svg	stimuli_target_circlediamonds.svg	10	yes	57	0	400
6.6.1	win	2022-12-14	11:41:18	11:44:00	161569	5e4b793f03c92a08a6d28e3f	397550665	1	main_slash	7	main_slash	1	stimuli_distractor_diamondtriangles.svg	stimuli_distractor_diamondtriangles.svg	39	no	53	0	1016
6.6.1	win	2022-12-14	11:41:18	11:44:00	161569	5e4b793f03c92a08a6d28e3f	397550665	1	main_slash	7	advance_on_keypress_SLASH	2	stimuli_distractor_diamondtriangles.svg	stimuli_distractor_diamondtriangles.svg	39	no	57	0	650
6.6.1	win	2022-12-14	11:41:18	11:44:03	164060	5e4b793f03c92a08a6d28e3f	397550665	1	main_slash	7	main_slash	3	stimuli_target_trianglesquares.svg	stimuli_distractor_diamondtriangles.svg	22	yes	53	1	1218
6.6.1	win	2022-12-14	11:41:18	11:44:03	164060	5e4b793f03c92a08a6d28e3f	397550665	1	main_slash	7	advance_on_keypress_SLASH	4	stimuli_target_trianglesquares.svg	stimuli_distractor_diamondtriangles.svg	22	yes	57	0	592
6.6.1	win	2022-12-14	11:41:18	11:44:06	167277	5e4b793f03c92a08a6d28e3f	397550665	1	main_slash	7	main_slash	5	stimuli_target_trianglecircles.svg	stimuli_distractor_diamondtriangles.svg	21	yes	0	0	2003
6.6.1	win	2022-12-14	11:41:18	11:44:06	167277	5e4b793f03c92a08a6d28e3f	397550665	1	main_slash	7	advance_on_keypress_SLASH	6	stimuli_target_trianglecircles.svg	stimuli_distractor_diamondtriangles.svg	21	yes	57	0	327
6.6.1	win	2022-12-14	11:41:18	11:44:09	170229	5e4b793f03c92a08a6d28e3f	397550665	1	main_slash	7	main_slash	7	stimuli_distractor_trianglediamonds.svg	stimuli_target_trianglesquares.svg	26	yes	0	0	2003
6.6.1	win	2022-12-14	11:41:18	11:44:09	170229	5e4b793f03c92a08a6d28e3f	397550665	1	main_slash	7	advance_on_keypress_SLASH	8	stimuli_distractor_trianglediamonds.svg	stimuli_target_trianglesquares.svg	26	yes	57	0	267
6.6.1	win	2022-12-14	11:41:18	11:44:11	171955	5e4b793f03c92a08a6d28e3f	397550665	1	main_slash	7	main_slash	9	stimuli_distractor_trianglediamonds.svg	stimuli_distractor_diamondtriangles.svg	36	no	53	0	841
6.6.1	win	2022-12-14	11:41:18	11:44:11	171955	5e4b793f03c92a08a6d28e3f	397550665	1	main_slash	7	advance_on_keypress_SLASH	10	stimuli_distractor_trianglediamonds.svg	stimuli_distractor_diamondtriangles.svg	36	no	57	0	527
6.6.1	win	2022-12-14	11:41:18	11:44:14	175102	5e4b793f03c92a08a6d28e3f	397550665	1	main_slash	7	main_slash	11	stimuli_distractor_trianglediamonds.svg	stimuli_target_circlediamonds.svg	10	yes	0	0	2003
6.6.1	win	2022-12-14	11:41:18	11:44:14	175102	5e4b793f03c92a08a6d28e3f	397550665	1	main_slash	7	advance_on_keypress_SLASH	12	stimuli_distractor_trianglediamonds.svg	stimuli_target_circlediamonds.svg	10	yes	57	0	326
6.6.1	win	2022-12-14	11:41:18	11:44:16	177229	5e4b793f03c92a08a6d28e3f	397550665	1	main_slash	7	main_slash	13	stimuli_distractor_diamondtriangles.svg	stimuli_distractor_diamondtriangles.svg	40	no	53	0	1181
6.6.1	win	2022-12-14	11:41:18	11:44:16	177229	5e4b793f03c92a08a6d28e3f	397550665	1	main_slash	7	advance_on_keypress_SLASH	14	stimuli_distractor_diamondtriangles.svg	stimuli_distractor_diamondtriangles.svg	40	no	57	0	592
6.6.1	win	2022-12-14	11:41:18	11:44:18	179220	5e4b793f03c92a08a6d28e3f	397550665	1	main_slash	7	main_slash	15	stimuli_target_diamondsquares.svg	stimuli_distractor_trianglediamonds.svg	20	yes	53	1	778
6.6.1	win	2022-12-14	11:41:18	11:44:18	179220	5e4b793f03c92a08a6d28e3f	397550665	1	main_slash	7	advance_on_keypress_SLASH	16	stimuli_target_diamondsquares.svg	stimuli_distractor_trianglediamonds.svg	20	yes	57	0	535
6.6.1	win	2022-12-14	11:41:18	11:44:20	180952	5e4b793f03c92a08a6d28e3f	397550665	1	main_slash	7	main_slash	17	stimuli_target_circletriangles.svg	stimuli_distractor_trianglediamonds.svg	1	yes	53	1	578
6.6.1	win	2022-12-14	11:41:18	11:44:20	180952	5e4b793f03c92a08a6d28e3f	397550665	1	main_slash	7	advance_on_keypress_SLASH	18	stimuli_target_circletriangles.svg	stimuli_distractor_trianglediamonds.svg	1	yes	57	0	540
6.6.1	win	2022-12-14	11:41:18	11:44:21	182773	5e4b793f03c92a08a6d28e3f	397550665	1	main_slash	7	main_slash	19	stimuli_target_circlediamonds.svg	stimuli_distractor_trianglediamonds.svg	2	yes	53	1	658
6.6.1	win	2022-12-14	11:41:18	11:44:21	182773	5e4b793f03c92a08a6d28e3f	397550665	1	main_slash	7	advance_on_keypress_SLASH	20	stimuli_target_circlediamonds.svg	stimuli_distractor_trianglediamonds.svg	2	yes	57	0	441
6.6.1	win	2022-12-14	11:41:18	11:44:23	184354	5e4b793f03c92a08a6d28e3f	397550665	1	main_slash	7	main_slash	21	stimuli_distractor_trianglediamonds.svg	stimuli_target_squarediamonds.svg	12	yes	53	1	518
6.6.1	win	2022-12-14	11:41:18	11:44:23	184354	5e4b793f03c92a08a6d28e3f	397550665	1	main_slash	7	advance_on_keypress_SLASH	22	stimuli_distractor_trianglediamonds.svg	stimuli_target_squarediamonds.svg	12	yes	57	0	458
6.6.1	win	2022-12-14	11:41:18	11:44:25	185945	5e4b793f03c92a08a6d28e3f	397550665	1	main_slash	7	main_slash	23	stimuli_distractor_trianglediamonds.svg	stimuli_target_squaretriangles.svg	11	yes	53	1	518
6.6.1	win	2022-12-14	11:41:18	11:44:25	185945	5e4b793f03c92a08a6d28e3f	397550665	1	main_slash	7	advance_on_keypress_SLASH	24	stimuli_distractor_trianglediamonds.svg	stimuli_target_squaretriangles.svg	11	yes	57	0	371
6.6.1	win	2022-12-14	11:41:18	11:44:28	188941	5e4b793f03c92a08a6d28e3f	397550665	1	main_slash	7	main_slash	25	stimuli_target_diamondcircles.svg	stimuli_distractor_diamondtriangles.svg	23	yes	0	0	2003
6.6.1	win	2022-12-14	11:41:18	11:44:28	188941	5e4b793f03c92a08a6d28e3f	397550665	1	main_slash	7	advance_on_keypress_SLASH	26	stimuli_target_diamondcircles.svg	stimuli_distractor_diamondtriangles.svg	23	yes	57	0	351
6.6.1	win	2022-12-14	11:41:18	11:44:31	191913	5e4b793f03c92a08a6d28e3f	397550665	1	main_slash	7	main_slash	27	stimuli_target_diamondcircles.svg	stimuli_distractor_trianglediamonds.svg	19	yes	0	0	2003
6.6.1	win	2022-12-14	11:41:18	11:44:31	191913	5e4b793f03c92a08a6d28e3f	397550665	1	main_slash	7	advance_on_keypress_SLASH	28	stimuli_target_diamondcircles.svg	stimuli_distractor_trianglediamonds.svg	19	yes	57	0	127
6.6.1	win	2022-12-14	11:41:18	11:44:32	192979	5e4b793f03c92a08a6d28e3f	397550665	1	main_slash	7	main_slash	29	stimuli_target_squaretriangles.svg	stimuli_distractor_diamondtriangles.svg	7	yes	53	1	318
6.6.1	win	2022-12-14	11:41:18	11:44:32	192979	5e4b793f03c92a08a6d28e3f	397550665	1	main_slash	7	advance_on_keypress_SLASH	30	stimuli_target_squaretriangles.svg	stimuli_distractor_diamondtriangles.svg	7	yes	57	0	421
6.6.1	win	2022-12-14	11:41:18	11:44:34	195051	5e4b793f03c92a08a6d28e3f	397550665	1	main_slash	7	main_slash	31	stimuli_target_trianglecircles.svg	stimuli_distractor_trianglediamonds.svg	17	yes	53	1	1028
6.6.1	win	2022-12-14	11:41:18	11:44:34	195051	5e4b793f03c92a08a6d28e3f	397550665	1	main_slash	7	advance_on_keypress_SLASH	32	stimuli_target_trianglecircles.svg	stimuli_distractor_trianglediamonds.svg	17	yes	57	0	502
6.6.1	win	2022-12-14	11:41:18	11:44:36	196992	5e4b793f03c92a08a6d28e3f	397550665	1	main_slash	7	main_slash	33	stimuli_distractor_trianglediamonds.svg	stimuli_target_diamondcircles.svg	27	yes	53	1	817
6.6.1	win	2022-12-14	11:41:18	11:44:36	196992	5e4b793f03c92a08a6d28e3f	397550665	1	main_slash	7	advance_on_keypress_SLASH	34	stimuli_distractor_trianglediamonds.svg	stimuli_target_diamondcircles.svg	27	yes	57	0	348
6.6.1	win	2022-12-14	11:41:18	11:44:37	198754	5e4b793f03c92a08a6d28e3f	397550665	1	main_slash	7	main_slash	35	stimuli_distractor_diamondtriangles.svg	stimuli_target_squaretriangles.svg	15	yes	53	1	798
6.6.1	win	2022-12-14	11:41:18	11:44:37	198754	5e4b793f03c92a08a6d28e3f	397550665	1	main_slash	7	advance_on_keypress_SLASH	36	stimuli_distractor_diamondtriangles.svg	stimuli_target_squaretriangles.svg	15	yes	57	0	302
6.6.1	win	2022-12-14	11:41:18	11:44:40	201295	5e4b793f03c92a08a6d28e3f	397550665	1	main_slash	7	main_slash	37	stimuli_distractor_diamondtriangles.svg	stimuli_target_trianglesquares.svg	30	yes	53	1	1617
6.6.1	win	2022-12-14	11:41:18	11:44:40	201295	5e4b793f03c92a08a6d28e3f	397550665	1	main_slash	7	advance_on_keypress_SLASH	38	stimuli_distractor_diamondtriangles.svg	stimuli_target_trianglesquares.svg	30	yes	57	0	321
6.6.1	win	2022-12-14	11:41:18	11:44:43	204241	5e4b793f03c92a08a6d28e3f	397550665	1	main_slash	7	main_slash	39	stimuli_distractor_diamondtriangles.svg	stimuli_distractor_trianglediamonds.svg	37	no	0	1	2003
6.6.1	win	2022-12-14	11:41:18	11:44:43	204241	5e4b793f03c92a08a6d28e3f	397550665	1	main_slash	7	advance_on_keypress_SLASH	40	stimuli_distractor_diamondtriangles.svg	stimuli_distractor_trianglediamonds.svg	37	no	57	0	2
6.6.1	win	2022-12-14	11:41:18	11:44:45	206871	5e4b793f03c92a08a6d28e3f	397550665	1	main_slash	7	main_slash	41	stimuli_target_trianglesquares.svg	stimuli_distractor_trianglediamonds.svg	18	yes	0	0	2003
6.6.1	win	2022-12-14	11:41:18	11:44:45	206871	5e4b793f03c92a08a6d28e3f	397550665	1	main_slash	7	advance_on_keypress_SLASH	42	stimuli_target_trianglesquares.svg	stimuli_distractor_trianglediamonds.svg	18	yes	57	0	149
6.6.1	win	2022-12-14	11:41:18	11:44:48	209645	5e4b793f03c92a08a6d28e3f	397550665	1	main_slash	7	main_slash	43	stimuli_distractor_trianglediamonds.svg	stimuli_target_diamondsquares.svg	28	yes	0	0	2003
6.6.1	win	2022-12-14	11:41:18	11:44:48	209645	5e4b793f03c92a08a6d28e3f	397550665	1	main_slash	7	advance_on_keypress_SLASH	44	stimuli_distractor_trianglediamonds.svg	stimuli_target_diamondsquares.svg	28	yes	57	0	77
6.6.1	win	2022-12-14	11:41:18	11:44:51	212348	5e4b793f03c92a08a6d28e3f	397550665	1	main_slash	7	main_slash	45	stimuli_distractor_diamondtriangles.svg	stimuli_distractor_trianglediamonds.svg	38	no	0	1	2003
6.6.1	win	2022-12-14	11:41:18	11:44:51	212348	5e4b793f03c92a08a6d28e3f	397550665	1	main_slash	7	advance_on_keypress_SLASH	46	stimuli_distractor_diamondtriangles.svg	stimuli_distractor_trianglediamonds.svg	38	no	57	0	165
6.6.1	win	2022-12-14	11:41:18	11:44:52	213833	5e4b793f03c92a08a6d28e3f	397550665	1	main_slash	7	main_slash	47	stimuli_distractor_trianglediamonds.svg	stimuli_distractor_diamondtriangles.svg	35	no	53	0	702
6.6.1	win	2022-12-14	11:41:18	11:44:52	213833	5e4b793f03c92a08a6d28e3f	397550665	1	main_slash	7	advance_on_keypress_SLASH	48	stimuli_distractor_trianglediamonds.svg	stimuli_distractor_diamondtriangles.svg	35	no	57	0	341
6.6.1	win	2022-12-14	11:41:18	11:44:54	215584	5e4b793f03c92a08a6d28e3f	397550665	1	main_slash	7	main_slash	49	stimuli_distractor_diamondtriangles.svg	stimuli_target_circletriangles.svg	13	yes	53	1	788
6.6.1	win	2022-12-14	11:41:18	11:44:54	215584	5e4b793f03c92a08a6d28e3f	397550665	1	main_slash	7	advance_on_keypress_SLASH	50	stimuli_distractor_diamondtriangles.svg	stimuli_target_circletriangles.svg	13	yes	57	0	492
6.6.1	win	2022-12-14	11:41:18	11:44:56	217415	5e4b793f03c92a08a6d28e3f	397550665	1	main_slash	7	main_slash	51	stimuli_distractor_diamondtriangles.svg	stimuli_target_diamondcircles.svg	31	yes	53	1	717
6.6.1	win	2022-12-14	11:41:18	11:44:56	217415	5e4b793f03c92a08a6d28e3f	397550665	1	main_slash	7	advance_on_keypress_SLASH	52	stimuli_distractor_diamondtriangles.svg	stimuli_target_diamondcircles.svg	31	yes	57	0	492
6.6.1	win	2022-12-14	11:41:18	11:44:58	219126	5e4b793f03c92a08a6d28e3f	397550665	1	main_slash	7	main_slash	53	stimuli_distractor_trianglediamonds.svg	stimuli_target_trianglecircles.svg	25	yes	53	1	599
6.6.1	win	2022-12-14	11:41:18	11:44:58	219126	5e4b793f03c92a08a6d28e3f	397550665	1	main_slash	7	advance_on_keypress_SLASH	54	stimuli_distractor_trianglediamonds.svg	stimuli_target_trianglecircles.svg	25	yes	57	0	537
6.6.1	win	2022-12-14	11:41:18	11:45:01	222284	5e4b793f03c92a08a6d28e3f	397550665	1	main_slash	7	main_slash	55	stimuli_distractor_trianglediamonds.svg	stimuli_distractor_trianglediamonds.svg	33	no	0	1	2003
6.6.1	win	2022-12-14	11:41:18	11:45:01	222284	5e4b793f03c92a08a6d28e3f	397550665	1	main_slash	7	advance_on_keypress_SLASH	56	stimuli_distractor_trianglediamonds.svg	stimuli_distractor_trianglediamonds.svg	33	no	57	0	76
6.6.1	win	2022-12-14	11:41:18	11:45:04	224985	5e4b793f03c92a08a6d28e3f	397550665	1	main_slash	7	main_slash	57	stimuli_distractor_trianglediamonds.svg	stimuli_distractor_trianglediamonds.svg	34	no	0	1	2003
6.6.1	win	2022-12-14	11:41:18	11:45:04	224985	5e4b793f03c92a08a6d28e3f	397550665	1	main_slash	7	advance_on_keypress_SLASH	58	stimuli_distractor_trianglediamonds.svg	stimuli_distractor_trianglediamonds.svg	34	no	57	0	77
6.6.1	win	2022-12-14	11:41:18	11:45:05	226461	5e4b793f03c92a08a6d28e3f	397550665	1	main_slash	7	main_slash	59	stimuli_distractor_diamondtriangles.svg	stimuli_target_circlediamonds.svg	14	yes	53	1	782
6.6.1	win	2022-12-14	11:41:18	11:45:05	226461	5e4b793f03c92a08a6d28e3f	397550665	1	main_slash	7	advance_on_keypress_SLASH	60	stimuli_distractor_diamondtriangles.svg	stimuli_target_circlediamonds.svg	14	yes	57	0	340
6.6.1	win	2022-12-14	11:41:18	11:45:07	228403	5e4b793f03c92a08a6d28e3f	397550665	1	main_slash	7	main_slash	61	stimuli_target_squaretriangles.svg	stimuli_distractor_trianglediamonds.svg	3	yes	53	1	978
6.6.1	win	2022-12-14	11:41:18	11:45:07	228403	5e4b793f03c92a08a6d28e3f	397550665	1	main_slash	7	advance_on_keypress_SLASH	62	stimuli_target_squaretriangles.svg	stimuli_distractor_trianglediamonds.svg	3	yes	57	0	296
6.6.1	win	2022-12-14	11:41:18	11:45:09	230574	5e4b793f03c92a08a6d28e3f	397550665	1	main_slash	7	main_slash	63	stimuli_target_diamondsquares.svg	stimuli_distractor_diamondtriangles.svg	24	yes	53	1	1258
6.6.1	win	2022-12-14	11:41:18	11:45:09	230574	5e4b793f03c92a08a6d28e3f	397550665	1	main_slash	7	advance_on_keypress_SLASH	64	stimuli_target_diamondsquares.svg	stimuli_distractor_diamondtriangles.svg	24	yes	57	0	332
6.6.1	win	2022-12-14	11:41:18	11:45:11	232175	5e4b793f03c92a08a6d28e3f	397550665	1	main_slash	7	main_slash	65	stimuli_target_squarediamonds.svg	stimuli_distractor_trianglediamonds.svg	4	yes	53	1	653
6.6.1	win	2022-12-14	11:41:18	11:45:11	232175	5e4b793f03c92a08a6d28e3f	397550665	1	main_slash	7	advance_on_keypress_SLASH	66	stimuli_target_squarediamonds.svg	stimuli_distractor_trianglediamonds.svg	4	yes	57	0	392
6.6.1	win	2022-12-14	11:41:18	11:45:13	234426	5e4b793f03c92a08a6d28e3f	397550665	1	main_slash	7	main_slash	67	stimuli_target_squarediamonds.svg	stimuli_distractor_diamondtriangles.svg	8	yes	53	1	1238
6.6.1	win	2022-12-14	11:41:18	11:45:13	234426	5e4b793f03c92a08a6d28e3f	397550665	1	main_slash	7	advance_on_keypress_SLASH	68	stimuli_target_squarediamonds.svg	stimuli_distractor_diamondtriangles.svg	8	yes	57	0	302
6.6.1	win	2022-12-14	11:41:18	11:45:14	235907	5e4b793f03c92a08a6d28e3f	397550665	1	main_slash	7	main_slash	69	stimuli_target_circlediamonds.svg	stimuli_distractor_diamondtriangles.svg	6	yes	53	1	557
6.6.1	win	2022-12-14	11:41:18	11:45:14	235907	5e4b793f03c92a08a6d28e3f	397550665	1	main_slash	7	advance_on_keypress_SLASH	70	stimuli_target_circlediamonds.svg	stimuli_distractor_diamondtriangles.svg	6	yes	57	0	522
6.6.1	win	2022-12-14	11:41:18	11:45:16	237728	5e4b793f03c92a08a6d28e3f	397550665	1	main_slash	7	main_slash	71	stimuli_distractor_diamondtriangles.svg	stimuli_target_trianglecircles.svg	29	yes	53	1	677
6.6.1	win	2022-12-14	11:41:18	11:45:16	237728	5e4b793f03c92a08a6d28e3f	397550665	1	main_slash	7	advance_on_keypress_SLASH	72	stimuli_distractor_diamondtriangles.svg	stimuli_target_trianglecircles.svg	29	yes	57	0	342
6.6.1	win	2022-12-14	11:41:18	11:45:18	239289	5e4b793f03c92a08a6d28e3f	397550665	1	main_slash	7	main_slash	73	stimuli_distractor_diamondtriangles.svg	stimuli_target_squarediamonds.svg	16	yes	53	1	597
6.6.1	win	2022-12-14	11:41:18	11:45:18	239289	5e4b793f03c92a08a6d28e3f	397550665	1	main_slash	7	advance_on_keypress_SLASH	74	stimuli_distractor_diamondtriangles.svg	stimuli_target_squarediamonds.svg	16	yes	57	0	192
6.6.1	win	2022-12-14	11:41:18	11:45:19	240550	5e4b793f03c92a08a6d28e3f	397550665	1	main_slash	7	main_slash	75	stimuli_distractor_trianglediamonds.svg	stimuli_target_circletriangles.svg	9	yes	53	1	447
6.6.1	win	2022-12-14	11:41:18	11:45:19	240550	5e4b793f03c92a08a6d28e3f	397550665	1	main_slash	7	advance_on_keypress_SLASH	76	stimuli_distractor_trianglediamonds.svg	stimuli_target_circletriangles.svg	9	yes	57	0	301
6.6.1	win	2022-12-14	11:41:18	11:45:21	242031	5e4b793f03c92a08a6d28e3f	397550665	1	main_slash	7	main_slash	77	stimuli_target_circletriangles.svg	stimuli_distractor_diamondtriangles.svg	5	yes	53	1	558
6.6.1	win	2022-12-14	11:41:18	11:45:21	242031	5e4b793f03c92a08a6d28e3f	397550665	1	main_slash	7	advance_on_keypress_SLASH	78	stimuli_target_circletriangles.svg	stimuli_distractor_diamondtriangles.svg	5	yes	57	0	391
6.6.1	win	2022-12-14	11:41:18	11:45:23	243932	5e4b793f03c92a08a6d28e3f	397550665	1	main_slash	7	main_slash	79	stimuli_distractor_diamondtriangles.svg	stimuli_target_diamondsquares.svg	32	yes	53	1	888
6.6.1	win	2022-12-14	11:41:18	11:45:23	243932	5e4b793f03c92a08a6d28e3f	397550665	1	main_slash	7	advance_on_keypress_SLASH	80	stimuli_distractor_diamondtriangles.svg	stimuli_target_diamondsquares.svg	32	yes	57	0	401
6.6.1	win	2022-12-14	11:41:18	11:45:24	245353	5e4b793f03c92a08a6d28e3f	397550665	1	main_slash	7	main_slash	81	stimuli_distractor_trianglediamonds.svg	stimuli_target_diamondcircles.svg	27	yes	53	1	398
6.6.1	win	2022-12-14	11:41:18	11:45:24	245353	5e4b793f03c92a08a6d28e3f	397550665	1	main_slash	7	advance_on_keypress_SLASH	82	stimuli_distractor_trianglediamonds.svg	stimuli_target_diamondcircles.svg	27	yes	57	0	103
6.6.1	win	2022-12-14	11:41:18	11:45:25	246553	5e4b793f03c92a08a6d28e3f	397550665	1	main_slash	7	main_slash	83	stimuli_distractor_trianglediamonds.svg	stimuli_target_circletriangles.svg	9	yes	53	1	479
6.6.1	win	2022-12-14	11:41:18	11:45:25	246553	5e4b793f03c92a08a6d28e3f	397550665	1	main_slash	7	advance_on_keypress_SLASH	84	stimuli_distractor_trianglediamonds.svg	stimuli_target_circletriangles.svg	9	yes	57	0	432
6.6.1	win	2022-12-14	11:41:18	11:45:27	248005	5e4b793f03c92a08a6d28e3f	397550665	1	main_slash	7	main_slash	85	stimuli_target_squaretriangles.svg	stimuli_distractor_trianglediamonds.svg	3	yes	53	1	397
6.6.1	win	2022-12-14	11:41:18	11:45:27	248005	5e4b793f03c92a08a6d28e3f	397550665	1	main_slash	7	advance_on_keypress_SLASH	86	stimuli_target_squaretriangles.svg	stimuli_distractor_trianglediamonds.svg	3	yes	57	0	728
6.6.1	win	2022-12-14	11:41:18	11:45:28	249745	5e4b793f03c92a08a6d28e3f	397550665	1	main_slash	7	main_slash	87	stimuli_target_squaretriangles.svg	stimuli_distractor_diamondtriangles.svg	7	yes	53	1	387
6.6.1	win	2022-12-14	11:41:18	11:45:28	249745	5e4b793f03c92a08a6d28e3f	397550665	1	main_slash	7	advance_on_keypress_SLASH	88	stimuli_target_squaretriangles.svg	stimuli_distractor_diamondtriangles.svg	7	yes	57	0	15
6.6.1	win	2022-12-14	11:41:18	11:45:31	252382	5e4b793f03c92a08a6d28e3f	397550665	1	main_slash	7	main_slash	89	stimuli_distractor_trianglediamonds.svg	stimuli_distractor_trianglediamonds.svg	34	no	0	1	2003
6.6.1	win	2022-12-14	11:41:18	11:45:31	252382	5e4b793f03c92a08a6d28e3f	397550665	1	main_slash	7	advance_on_keypress_SLASH	90	stimuli_distractor_trianglediamonds.svg	stimuli_distractor_trianglediamonds.svg	34	no	57	0	242
6.6.1	win	2022-12-14	11:41:18	11:45:32	253688	5e4b793f03c92a08a6d28e3f	397550665	1	main_slash	7	main_slash	91	stimuli_target_squarediamonds.svg	stimuli_distractor_diamondtriangles.svg	8	yes	53	1	448
6.6.1	win	2022-12-14	11:41:18	11:45:32	253688	5e4b793f03c92a08a6d28e3f	397550665	1	main_slash	7	advance_on_keypress_SLASH	92	stimuli_target_squarediamonds.svg	stimuli_distractor_diamondtriangles.svg	8	yes	57	0	71
6.6.1	win	2022-12-14	11:41:18	11:45:33	254849	5e4b793f03c92a08a6d28e3f	397550665	1	main_slash	7	main_slash	93	stimuli_distractor_diamondtriangles.svg	stimuli_target_trianglecircles.svg	29	yes	53	1	475
6.6.1	win	2022-12-14	11:41:18	11:45:33	254849	5e4b793f03c92a08a6d28e3f	397550665	1	main_slash	7	advance_on_keypress_SLASH	94	stimuli_distractor_diamondtriangles.svg	stimuli_target_trianglecircles.svg	29	yes	57	0	451
6.6.1	win	2022-12-14	11:41:18	11:45:35	256370	5e4b793f03c92a08a6d28e3f	397550665	1	main_slash	7	main_slash	95	stimuli_target_diamondcircles.svg	stimuli_distractor_diamondtriangles.svg	23	yes	53	1	448
6.6.1	win	2022-12-14	11:41:18	11:45:35	256370	5e4b793f03c92a08a6d28e3f	397550665	1	main_slash	7	advance_on_keypress_SLASH	96	stimuli_target_diamondcircles.svg	stimuli_distractor_diamondtriangles.svg	23	yes	57	0	92
6.6.1	win	2022-12-14	11:41:18	11:45:36	257631	5e4b793f03c92a08a6d28e3f	397550665	1	main_slash	7	main_slash	97	stimuli_distractor_diamondtriangles.svg	stimuli_target_diamondsquares.svg	32	yes	53	1	548
6.6.1	win	2022-12-14	11:41:18	11:45:36	257631	5e4b793f03c92a08a6d28e3f	397550665	1	main_slash	7	advance_on_keypress_SLASH	98	stimuli_distractor_diamondtriangles.svg	stimuli_target_diamondsquares.svg	32	yes	57	0	350
6.6.1	win	2022-12-14	11:41:18	11:45:38	259111	5e4b793f03c92a08a6d28e3f	397550665	1	main_slash	7	main_slash	99	stimuli_target_circletriangles.svg	stimuli_distractor_diamondtriangles.svg	5	yes	53	1	507
6.6.1	win	2022-12-14	11:41:18	11:45:38	259111	5e4b793f03c92a08a6d28e3f	397550665	1	main_slash	7	advance_on_keypress_SLASH	100	stimuli_target_circletriangles.svg	stimuli_distractor_diamondtriangles.svg	5	yes	57	0	32
6.6.1	win	2022-12-14	11:41:18	11:45:39	260222	5e4b793f03c92a08a6d28e3f	397550665	1	main_slash	7	main_slash	101	stimuli_target_trianglecircles.svg	stimuli_distractor_diamondtriangles.svg	21	yes	53	1	463
6.6.1	win	2022-12-14	11:41:18	11:45:39	260222	5e4b793f03c92a08a6d28e3f	397550665	1	main_slash	7	advance_on_keypress_SLASH	102	stimuli_target_trianglecircles.svg	stimuli_distractor_diamondtriangles.svg	21	yes	57	0	447
6.6.1	win	2022-12-14	11:41:18	11:45:40	261693	5e4b793f03c92a08a6d28e3f	397550665	1	main_slash	7	main_slash	103	stimuli_target_squarediamonds.svg	stimuli_distractor_trianglediamonds.svg	4	yes	53	1	414
6.6.1	win	2022-12-14	11:41:18	11:45:40	261693	5e4b793f03c92a08a6d28e3f	397550665	1	main_slash	7	advance_on_keypress_SLASH	104	stimuli_target_squarediamonds.svg	stimuli_distractor_trianglediamonds.svg	4	yes	57	0	360
6.6.1	win	2022-12-14	11:41:18	11:45:43	264679	5e4b793f03c92a08a6d28e3f	397550665	1	main_slash	7	main_slash	105	stimuli_distractor_trianglediamonds.svg	stimuli_distractor_diamondtriangles.svg	35	no	0	1	2003
6.6.1	win	2022-12-14	11:41:18	11:45:43	264679	5e4b793f03c92a08a6d28e3f	397550665	1	main_slash	7	advance_on_keypress_SLASH	106	stimuli_distractor_trianglediamonds.svg	stimuli_distractor_diamondtriangles.svg	35	no	57	0	276
6.6.1	win	2022-12-14	11:41:18	11:45:45	266165	5e4b793f03c92a08a6d28e3f	397550665	1	main_slash	7	main_slash	107	stimuli_target_trianglesquares.svg	stimuli_distractor_diamondtriangles.svg	22	yes	53	1	586
6.6.1	win	2022-12-14	11:41:18	11:45:45	266165	5e4b793f03c92a08a6d28e3f	397550665	1	main_slash	7	advance_on_keypress_SLASH	108	stimuli_target_trianglesquares.svg	stimuli_distractor_diamondtriangles.svg	22	yes	57	0	2
6.6.1	win	2022-12-14	11:41:18	11:45:46	267186	5e4b793f03c92a08a6d28e3f	397550665	1	main_slash	7	main_slash	109	stimuli_target_trianglesquares.svg	stimuli_distractor_trianglediamonds.svg	18	yes	53	1	400
6.6.1	win	2022-12-14	11:41:18	11:45:46	267186	5e4b793f03c92a08a6d28e3f	397550665	1	main_slash	7	advance_on_keypress_SLASH	110	stimuli_target_trianglesquares.svg	stimuli_distractor_trianglediamonds.svg	18	yes	57	0	55
6.6.1	win	2022-12-14	11:41:18	11:45:48	269862	5e4b793f03c92a08a6d28e3f	397550665	1	main_slash	7	main_slash	111	stimuli_distractor_trianglediamonds.svg	stimuli_distractor_trianglediamonds.svg	33	no	0	1	2003
6.6.1	win	2022-12-14	11:41:18	11:45:48	269862	5e4b793f03c92a08a6d28e3f	397550665	1	main_slash	7	advance_on_keypress_SLASH	112	stimuli_distractor_trianglediamonds.svg	stimuli_distractor_trianglediamonds.svg	33	no	57	0	347
6.6.1	win	2022-12-14	11:41:18	11:45:50	271198	5e4b793f03c92a08a6d28e3f	397550665	1	main_slash	7	main_slash	113	stimuli_distractor_diamondtriangles.svg	stimuli_target_circletriangles.svg	13	yes	53	1	366
6.6.1	win	2022-12-14	11:41:18	11:45:50	271198	5e4b793f03c92a08a6d28e3f	397550665	1	main_slash	7	advance_on_keypress_SLASH	114	stimuli_distractor_diamondtriangles.svg	stimuli_target_circletriangles.svg	13	yes	57	0	61
6.6.1	win	2022-12-14	11:41:18	11:45:51	272439	5e4b793f03c92a08a6d28e3f	397550665	1	main_slash	7	main_slash	115	stimuli_target_trianglecircles.svg	stimuli_distractor_trianglediamonds.svg	17	yes	53	1	557
6.6.1	win	2022-12-14	11:41:18	11:45:51	272439	5e4b793f03c92a08a6d28e3f	397550665	1	main_slash	7	advance_on_keypress_SLASH	116	stimuli_target_trianglecircles.svg	stimuli_distractor_trianglediamonds.svg	17	yes	57	0	470
6.6.1	win	2022-12-14	11:41:18	11:45:54	275535	5e4b793f03c92a08a6d28e3f	397550665	1	main_slash	7	main_slash	117	stimuli_distractor_diamondtriangles.svg	stimuli_distractor_trianglediamonds.svg	37	no	0	1	2003
6.6.1	win	2022-12-14	11:41:18	11:45:54	275535	5e4b793f03c92a08a6d28e3f	397550665	1	main_slash	7	advance_on_keypress_SLASH	118	stimuli_distractor_diamondtriangles.svg	stimuli_distractor_trianglediamonds.svg	37	no	57	0	197
6.6.1	win	2022-12-14	11:41:18	11:45:57	278368	5e4b793f03c92a08a6d28e3f	397550665	1	main_slash	7	main_slash	119	stimuli_distractor_trianglediamonds.svg	stimuli_distractor_diamondtriangles.svg	36	no	0	1	2003
6.6.1	win	2022-12-14	11:41:18	11:45:57	278368	5e4b793f03c92a08a6d28e3f	397550665	1	main_slash	7	advance_on_keypress_SLASH	120	stimuli_distractor_trianglediamonds.svg	stimuli_distractor_diamondtriangles.svg	36	no	57	0	195
6.6.1	win	2022-12-14	11:41:18	11:45:58	279592	5e4b793f03c92a08a6d28e3f	397550665	1	main_slash	7	main_slash	121	stimuli_distractor_diamondtriangles.svg	stimuli_target_squaretriangles.svg	15	yes	53	1	407
6.6.1	win	2022-12-14	11:41:18	11:45:58	279592	5e4b793f03c92a08a6d28e3f	397550665	1	main_slash	7	advance_on_keypress_SLASH	122	stimuli_distractor_diamondtriangles.svg	stimuli_target_squaretriangles.svg	15	yes	57	0	402
6.6.1	win	2022-12-14	11:41:18	11:46:00	281052	5e4b793f03c92a08a6d28e3f	397550665	1	main_slash	7	main_slash	123	stimuli_distractor_diamondtriangles.svg	stimuli_target_squarediamonds.svg	16	yes	53	1	436
6.6.1	win	2022-12-14	11:41:18	11:46:00	281052	5e4b793f03c92a08a6d28e3f	397550665	1	main_slash	7	advance_on_keypress_SLASH	124	stimuli_distractor_diamondtriangles.svg	stimuli_target_squarediamonds.svg	16	yes	57	0	421
6.6.1	win	2022-12-14	11:41:18	11:46:01	282754	5e4b793f03c92a08a6d28e3f	397550665	1	main_slash	7	main_slash	125	stimuli_distractor_trianglediamonds.svg	stimuli_target_squaretriangles.svg	11	yes	53	1	657
6.6.1	win	2022-12-14	11:41:18	11:46:01	282754	5e4b793f03c92a08a6d28e3f	397550665	1	main_slash	7	advance_on_keypress_SLASH	126	stimuli_distractor_trianglediamonds.svg	stimuli_target_squaretriangles.svg	11	yes	57	0	51
6.6.1	win	2022-12-14	11:41:18	11:46:03	283924	5e4b793f03c92a08a6d28e3f	397550665	1	main_slash	7	main_slash	127	stimuli_distractor_diamondtriangles.svg	stimuli_target_circlediamonds.svg	14	yes	53	1	497
6.6.1	win	2022-12-14	11:41:18	11:46:03	283924	5e4b793f03c92a08a6d28e3f	397550665	1	main_slash	7	advance_on_keypress_SLASH	128	stimuli_distractor_diamondtriangles.svg	stimuli_target_circlediamonds.svg	14	yes	57	0	448
6.6.1	win	2022-12-14	11:41:18	11:46:04	285456	5e4b793f03c92a08a6d28e3f	397550665	1	main_slash	7	main_slash	129	stimuli_target_diamondcircles.svg	stimuli_distractor_trianglediamonds.svg	19	yes	53	1	470
6.6.1	win	2022-12-14	11:41:18	11:46:04	285456	5e4b793f03c92a08a6d28e3f	397550665	1	main_slash	7	advance_on_keypress_SLASH	130	stimuli_target_diamondcircles.svg	stimuli_distractor_trianglediamonds.svg	19	yes	57	0	471
6.6.1	win	2022-12-14	11:41:18	11:46:06	286976	5e4b793f03c92a08a6d28e3f	397550665	1	main_slash	7	main_slash	131	stimuli_distractor_trianglediamonds.svg	stimuli_target_trianglesquares.svg	26	yes	53	1	429
6.6.1	win	2022-12-14	11:41:18	11:46:06	286976	5e4b793f03c92a08a6d28e3f	397550665	1	main_slash	7	advance_on_keypress_SLASH	132	stimuli_distractor_trianglediamonds.svg	stimuli_target_trianglesquares.svg	26	yes	57	0	512
6.6.1	win	2022-12-14	11:41:18	11:46:08	289027	5e4b793f03c92a08a6d28e3f	397550665	1	main_slash	7	main_slash	133	stimuli_target_diamondsquares.svg	stimuli_distractor_trianglediamonds.svg	20	yes	53	1	921
6.6.1	win	2022-12-14	11:41:18	11:46:08	289027	5e4b793f03c92a08a6d28e3f	397550665	1	main_slash	7	advance_on_keypress_SLASH	134	stimuli_target_diamondsquares.svg	stimuli_distractor_trianglediamonds.svg	20	yes	57	0	435
6.6.1	win	2022-12-14	11:41:18	11:46:11	292084	5e4b793f03c92a08a6d28e3f	397550665	1	main_slash	7	main_slash	135	stimuli_distractor_diamondtriangles.svg	stimuli_distractor_diamondtriangles.svg	39	no	0	1	2003
6.6.1	win	2022-12-14	11:41:18	11:46:11	292084	5e4b793f03c92a08a6d28e3f	397550665	1	main_slash	7	advance_on_keypress_SLASH	136	stimuli_distractor_diamondtriangles.svg	stimuli_distractor_diamondtriangles.svg	39	no	57	0	1
6.6.1	win	2022-12-14	11:41:18	11:46:12	293139	5e4b793f03c92a08a6d28e3f	397550665	1	main_slash	7	main_slash	137	stimuli_distractor_diamondtriangles.svg	stimuli_target_trianglesquares.svg	30	yes	53	1	432
6.6.1	win	2022-12-14	11:41:18	11:46:12	293139	5e4b793f03c92a08a6d28e3f	397550665	1	main_slash	7	advance_on_keypress_SLASH	138	stimuli_distractor_diamondtriangles.svg	stimuli_target_trianglesquares.svg	30	yes	57	0	161
6.6.1	win	2022-12-14	11:41:18	11:46:13	294569	5e4b793f03c92a08a6d28e3f	397550665	1	main_slash	7	main_slash	139	stimuli_distractor_trianglediamonds.svg	stimuli_target_squarediamonds.svg	12	yes	53	1	643
6.6.1	win	2022-12-14	11:41:18	11:46:13	294569	5e4b793f03c92a08a6d28e3f	397550665	1	main_slash	7	advance_on_keypress_SLASH	140	stimuli_distractor_trianglediamonds.svg	stimuli_target_squarediamonds.svg	12	yes	57	0	351
6.6.1	win	2022-12-14	11:41:18	11:46:15	296210	5e4b793f03c92a08a6d28e3f	397550665	1	main_slash	7	main_slash	141	stimuli_target_diamondsquares.svg	stimuli_distractor_diamondtriangles.svg	24	yes	53	1	671
6.6.1	win	2022-12-14	11:41:18	11:46:15	296210	5e4b793f03c92a08a6d28e3f	397550665	1	main_slash	7	advance_on_keypress_SLASH	142	stimuli_target_diamondsquares.svg	stimuli_distractor_diamondtriangles.svg	24	yes	57	0	2
6.6.1	win	2022-12-14	11:41:18	11:46:16	297411	5e4b793f03c92a08a6d28e3f	397550665	1	main_slash	7	main_slash	143	stimuli_distractor_trianglediamonds.svg	stimuli_target_trianglecircles.svg	25	yes	53	1	580
6.6.1	win	2022-12-14	11:41:18	11:46:16	297411	5e4b793f03c92a08a6d28e3f	397550665	1	main_slash	7	advance_on_keypress_SLASH	144	stimuli_distractor_trianglediamonds.svg	stimuli_target_trianglecircles.svg	25	yes	57	0	21
6.6.1	win	2022-12-14	11:41:18	11:46:17	298741	5e4b793f03c92a08a6d28e3f	397550665	1	main_slash	7	main_slash	145	stimuli_distractor_diamondtriangles.svg	stimuli_distractor_diamondtriangles.svg	40	no	53	0	693
6.6.1	win	2022-12-14	11:41:18	11:46:17	298741	5e4b793f03c92a08a6d28e3f	397550665	1	main_slash	7	advance_on_keypress_SLASH	146	stimuli_distractor_diamondtriangles.svg	stimuli_distractor_diamondtriangles.svg	40	no	57	0	431
6.6.1	win	2022-12-14	11:41:18	11:46:20	301798	5e4b793f03c92a08a6d28e3f	397550665	1	main_slash	7	main_slash	147	stimuli_distractor_diamondtriangles.svg	stimuli_distractor_trianglediamonds.svg	38	no	0	1	2003
6.6.1	win	2022-12-14	11:41:18	11:46:20	301798	5e4b793f03c92a08a6d28e3f	397550665	1	main_slash	7	advance_on_keypress_SLASH	148	stimuli_distractor_diamondtriangles.svg	stimuli_distractor_trianglediamonds.svg	38	no	57	0	196
6.6.1	win	2022-12-14	11:41:18	11:46:22	303044	5e4b793f03c92a08a6d28e3f	397550665	1	main_slash	7	main_slash	149	stimuli_distractor_diamondtriangles.svg	stimuli_target_diamondcircles.svg	31	yes	53	1	428
6.6.1	win	2022-12-14	11:41:18	11:46:22	303044	5e4b793f03c92a08a6d28e3f	397550665	1	main_slash	7	advance_on_keypress_SLASH	150	stimuli_distractor_diamondtriangles.svg	stimuli_target_diamondcircles.svg	31	yes	57	0	311
6.6.1	win	2022-12-14	11:41:18	11:46:23	304445	5e4b793f03c92a08a6d28e3f	397550665	1	main_slash	7	main_slash	151	stimuli_target_circlediamonds.svg	stimuli_distractor_diamondtriangles.svg	6	yes	53	1	467
6.6.1	win	2022-12-14	11:41:18	11:46:23	304445	5e4b793f03c92a08a6d28e3f	397550665	1	main_slash	7	advance_on_keypress_SLASH	152	stimuli_target_circlediamonds.svg	stimuli_distractor_diamondtriangles.svg	6	yes	57	0	395
6.6.1	win	2022-12-14	11:41:18	11:46:24	305797	5e4b793f03c92a08a6d28e3f	397550665	1	main_slash	7	main_slash	153	stimuli_distractor_trianglediamonds.svg	stimuli_target_circlediamonds.svg	10	yes	53	1	338
6.6.1	win	2022-12-14	11:41:18	11:46:24	305797	5e4b793f03c92a08a6d28e3f	397550665	1	main_slash	7	advance_on_keypress_SLASH	154	stimuli_distractor_trianglediamonds.svg	stimuli_target_circlediamonds.svg	10	yes	57	0	331
6.6.1	win	2022-12-14	11:41:18	11:46:26	307117	5e4b793f03c92a08a6d28e3f	397550665	1	main_slash	7	main_slash	155	stimuli_distractor_trianglediamonds.svg	stimuli_target_diamondsquares.svg	28	yes	53	1	368
6.6.1	win	2022-12-14	11:41:18	11:46:26	307117	5e4b793f03c92a08a6d28e3f	397550665	1	main_slash	7	advance_on_keypress_SLASH	156	stimuli_distractor_trianglediamonds.svg	stimuli_target_diamondsquares.svg	28	yes	57	0	336
6.6.1	win	2022-12-14	11:41:18	11:46:27	308417	5e4b793f03c92a08a6d28e3f	397550665	1	main_slash	7	main_slash	157	stimuli_target_circletriangles.svg	stimuli_distractor_trianglediamonds.svg	1	yes	53	1	346
6.6.1	win	2022-12-14	11:41:18	11:46:27	308417	5e4b793f03c92a08a6d28e3f	397550665	1	main_slash	7	advance_on_keypress_SLASH	158	stimuli_target_circletriangles.svg	stimuli_distractor_trianglediamonds.svg	1	yes	57	0	21
6.6.1	win	2022-12-14	11:41:18	11:46:29	310440	5e4b793f03c92a08a6d28e3f	397550665	1	main_slash	7	main_slash	159	stimuli_target_circlediamonds.svg	stimuli_distractor_trianglediamonds.svg	2	yes	53	1	1380
6.6.1	win	2022-12-14	11:41:18	11:46:29	310440	5e4b793f03c92a08a6d28e3f	397550665	1	main_slash	7	advance_on_keypress_SLASH	160	stimuli_target_circlediamonds.svg	stimuli_distractor_trianglediamonds.svg	2	yes	57	0	392
6.6.1	win	2022-12-14	11:41:18	11:46:43	324900	5e4b793f03c92a08a6d28e3f	397550665	1	practice_z	9	practice_z	1	stimuli_target_circlediamonds.svg	stimuli_distractor_trianglediamonds.svg	4	yes	44	1	532
6.6.1	win	2022-12-14	11:41:18	11:46:43	324900	5e4b793f03c92a08a6d28e3f	397550665	1	practice_z	9	advance_on_keypress_ZEE	2	stimuli_target_circlediamonds.svg	stimuli_distractor_trianglediamonds.svg	4	yes	57	0	519
6.6.1	win	2022-12-14	11:41:18	11:46:46	327630	5e4b793f03c92a08a6d28e3f	397550665	1	practice_z	9	practice_z	3	stimuli_target_squarediamonds.svg	stimuli_distractor_diamondtriangles.svg	2	yes	44	1	588
6.6.1	win	2022-12-14	11:41:18	11:46:46	327630	5e4b793f03c92a08a6d28e3f	397550665	1	practice_z	9	advance_on_keypress_ZEE	4	stimuli_target_squarediamonds.svg	stimuli_distractor_diamondtriangles.svg	2	yes	57	0	477
6.6.1	win	2022-12-14	11:41:18	11:46:49	330372	5e4b793f03c92a08a6d28e3f	397550665	1	practice_z	9	practice_z	5	stimuli_target_diamondsquares.svg	stimuli_distractor_trianglediamonds.svg	6	yes	44	1	643
6.6.1	win	2022-12-14	11:41:18	11:46:49	330372	5e4b793f03c92a08a6d28e3f	397550665	1	practice_z	9	advance_on_keypress_ZEE	6	stimuli_target_diamondsquares.svg	stimuli_distractor_trianglediamonds.svg	6	yes	57	0	390
6.6.1	win	2022-12-14	11:41:18	11:46:52	332932	5e4b793f03c92a08a6d28e3f	397550665	1	practice_z	9	practice_z	7	stimuli_distractor_trianglediamonds.svg	stimuli_target_squarediamonds.svg	11	yes	44	1	547
6.6.1	win	2022-12-14	11:41:18	11:46:52	332932	5e4b793f03c92a08a6d28e3f	397550665	1	practice_z	9	advance_on_keypress_ZEE	8	stimuli_distractor_trianglediamonds.svg	stimuli_target_squarediamonds.svg	11	yes	57	0	532
6.6.1	win	2022-12-14	11:41:18	11:46:54	335856	5e4b793f03c92a08a6d28e3f	397550665	1	practice_z	9	practice_z	9	stimuli_distractor_diamondtriangles.svg	stimuli_target_trianglecircles.svg	9	yes	44	1	769
6.6.1	win	2022-12-14	11:41:18	11:46:54	335856	5e4b793f03c92a08a6d28e3f	397550665	1	practice_z	9	advance_on_keypress_ZEE	10	stimuli_distractor_diamondtriangles.svg	stimuli_target_trianglecircles.svg	9	yes	57	0	395
6.6.1	win	2022-12-14	11:41:18	11:46:57	338349	5e4b793f03c92a08a6d28e3f	397550665	1	practice_z	9	practice_z	11	stimuli_distractor_trianglediamonds.svg	stimuli_target_circlediamonds.svg	10	yes	44	1	474
6.6.1	win	2022-12-14	11:41:18	11:46:57	338349	5e4b793f03c92a08a6d28e3f	397550665	1	practice_z	9	advance_on_keypress_ZEE	12	stimuli_distractor_trianglediamonds.svg	stimuli_target_circlediamonds.svg	10	yes	57	0	301
6.6.1	win	2022-12-14	11:41:18	11:47:01	342276	5e4b793f03c92a08a6d28e3f	397550665	1	practice_z	9	practice_z	13	stimuli_distractor_diamondtriangles.svg	stimuli_distractor_diamondtriangles.svg	13	no	0	1	2003
6.6.1	win	2022-12-14	11:41:18	11:47:01	342276	5e4b793f03c92a08a6d28e3f	397550665	1	practice_z	9	advance_on_keypress_ZEE	14	stimuli_distractor_diamondtriangles.svg	stimuli_distractor_diamondtriangles.svg	13	no	57	0	356
6.6.1	win	2022-12-14	11:41:18	11:47:03	344796	5e4b793f03c92a08a6d28e3f	397550665	1	practice_z	9	practice_z	15	stimuli_distractor_trianglediamonds.svg	stimuli_target_diamondcircles.svg	12	yes	44	1	546
6.6.1	win	2022-12-14	11:41:18	11:47:03	344796	5e4b793f03c92a08a6d28e3f	397550665	1	practice_z	9	advance_on_keypress_ZEE	16	stimuli_distractor_trianglediamonds.svg	stimuli_target_diamondcircles.svg	12	yes	57	0	454
6.6.1	win	2022-12-14	11:41:18	11:47:06	347420	5e4b793f03c92a08a6d28e3f	397550665	1	practice_z	9	practice_z	17	stimuli_target_diamondsquares.svg	stimuli_distractor_diamondtriangles.svg	3	yes	44	1	547
6.6.1	win	2022-12-14	11:41:18	11:47:06	347420	5e4b793f03c92a08a6d28e3f	397550665	1	practice_z	9	advance_on_keypress_ZEE	18	stimuli_target_diamondsquares.svg	stimuli_distractor_diamondtriangles.svg	3	yes	57	0	396
6.6.1	win	2022-12-14	11:41:18	11:47:08	349863	5e4b793f03c92a08a6d28e3f	397550665	1	practice_z	9	practice_z	19	stimuli_target_circlediamonds.svg	stimuli_distractor_diamondtriangles.svg	1	yes	44	1	424
6.6.1	win	2022-12-14	11:41:18	11:47:08	349863	5e4b793f03c92a08a6d28e3f	397550665	1	practice_z	9	advance_on_keypress_ZEE	20	stimuli_target_circlediamonds.svg	stimuli_distractor_diamondtriangles.svg	1	yes	57	0	411
6.6.1	win	2022-12-14	11:41:18	11:47:11	352334	5e4b793f03c92a08a6d28e3f	397550665	1	practice_z	9	practice_z	21	stimuli_distractor_diamondtriangles.svg	stimuli_target_diamondcircles.svg	8	yes	44	1	439
6.6.1	win	2022-12-14	11:41:18	11:47:11	352334	5e4b793f03c92a08a6d28e3f	397550665	1	practice_z	9	advance_on_keypress_ZEE	22	stimuli_distractor_diamondtriangles.svg	stimuli_target_diamondcircles.svg	8	yes	57	0	511
6.6.1	win	2022-12-14	11:41:18	11:47:15	356471	5e4b793f03c92a08a6d28e3f	397550665	1	practice_z	9	practice_z	23	stimuli_distractor_trianglediamonds.svg	stimuli_distractor_trianglediamonds.svg	15	no	0	1	2003
6.6.1	win	2022-12-14	11:41:18	11:47:15	356471	5e4b793f03c92a08a6d28e3f	397550665	1	practice_z	9	advance_on_keypress_ZEE	24	stimuli_distractor_trianglediamonds.svg	stimuli_distractor_trianglediamonds.svg	15	no	57	0	198
6.6.1	win	2022-12-14	11:41:18	11:47:17	358783	5e4b793f03c92a08a6d28e3f	397550665	1	practice_z	9	practice_z	25	stimuli_distractor_diamondtriangles.svg	stimuli_target_circletriangles.svg	7	yes	44	1	490
6.6.1	win	2022-12-14	11:41:18	11:47:17	358783	5e4b793f03c92a08a6d28e3f	397550665	1	practice_z	9	advance_on_keypress_ZEE	26	stimuli_distractor_diamondtriangles.svg	stimuli_target_circletriangles.svg	7	yes	57	0	262
6.6.1	win	2022-12-14	11:41:18	11:47:20	361129	5e4b793f03c92a08a6d28e3f	397550665	1	practice_z	9	practice_z	27	stimuli_target_squarediamonds.svg	stimuli_distractor_trianglediamonds.svg	5	yes	44	1	461
6.6.1	win	2022-12-14	11:41:18	11:47:20	361129	5e4b793f03c92a08a6d28e3f	397550665	1	practice_z	9	advance_on_keypress_ZEE	28	stimuli_target_squarediamonds.svg	stimuli_distractor_trianglediamonds.svg	5	yes	57	0	239
6.6.1	win	2022-12-14	11:41:18	11:47:24	364994	5e4b793f03c92a08a6d28e3f	397550665	1	practice_z	9	practice_z	29	stimuli_distractor_diamondtriangles.svg	stimuli_distractor_trianglediamonds.svg	14	no	0	1	2003
6.6.1	win	2022-12-14	11:41:18	11:47:24	364994	5e4b793f03c92a08a6d28e3f	397550665	1	practice_z	9	advance_on_keypress_ZEE	30	stimuli_distractor_diamondtriangles.svg	stimuli_distractor_trianglediamonds.svg	14	no	57	0	355
6.6.1	win	2022-12-14	11:41:18	11:47:27	368265	5e4b793f03c92a08a6d28e3f	397550665	1	practice_z	9	practice_z	31	stimuli_distractor_trianglediamonds.svg	stimuli_distractor_diamondtriangles.svg	16	no	44	0	1298
6.6.1	win	2022-12-14	11:41:18	11:47:27	368265	5e4b793f03c92a08a6d28e3f	397550665	1	practice_z	9	advance_on_keypress_ZEE	32	stimuli_distractor_trianglediamonds.svg	stimuli_distractor_diamondtriangles.svg	16	no	57	0	284
6.6.1	win	2022-12-14	11:41:18	11:47:35	376534	5e4b793f03c92a08a6d28e3f	397550665	1	main_z	11	main_z	1	stimuli_distractor_diamondtriangles.svg	stimuli_distractor_diamondtriangles.svg	39	no	0	1	2003
6.6.1	win	2022-12-14	11:41:18	11:47:35	376534	5e4b793f03c92a08a6d28e3f	397550665	1	main_z	11	advance_on_keypress_ZEE	2	stimuli_distractor_diamondtriangles.svg	stimuli_distractor_diamondtriangles.svg	39	no	57	0	406
6.6.1	win	2022-12-14	11:41:18	11:47:37	378125	5e4b793f03c92a08a6d28e3f	397550665	1	main_z	11	main_z	3	stimuli_distractor_diamondtriangles.svg	stimuli_target_squaretriangles.svg	15	yes	44	1	531
6.6.1	win	2022-12-14	11:41:18	11:47:37	378125	5e4b793f03c92a08a6d28e3f	397550665	1	main_z	11	advance_on_keypress_ZEE	4	stimuli_distractor_diamondtriangles.svg	stimuli_target_squaretriangles.svg	15	yes	57	0	35
6.6.1	win	2022-12-14	11:41:18	11:47:39	380785	5e4b793f03c92a08a6d28e3f	397550665	1	main_z	11	main_z	5	stimuli_distractor_trianglediamonds.svg	stimuli_distractor_trianglediamonds.svg	33	no	0	1	2003
6.6.1	win	2022-12-14	11:41:18	11:47:39	380785	5e4b793f03c92a08a6d28e3f	397550665	1	main_z	11	advance_on_keypress_ZEE	6	stimuli_distractor_trianglediamonds.svg	stimuli_distractor_trianglediamonds.svg	33	no	57	0	135
6.6.1	win	2022-12-14	11:41:18	11:47:41	382269	5e4b793f03c92a08a6d28e3f	397550665	1	main_z	11	main_z	7	stimuli_distractor_diamondtriangles.svg	stimuli_target_diamondsquares.svg	32	yes	44	1	736
6.6.1	win	2022-12-14	11:41:18	11:47:41	382269	5e4b793f03c92a08a6d28e3f	397550665	1	main_z	11	advance_on_keypress_ZEE	8	stimuli_distractor_diamondtriangles.svg	stimuli_target_diamondsquares.svg	32	yes	57	0	444
6.6.1	win	2022-12-14	11:41:18	11:47:44	385339	5e4b793f03c92a08a6d28e3f	397550665	1	main_z	11	main_z	9	stimuli_distractor_trianglediamonds.svg	stimuli_distractor_diamondtriangles.svg	36	no	0	1	2003
6.6.1	win	2022-12-14	11:41:18	11:47:44	385339	5e4b793f03c92a08a6d28e3f	397550665	1	main_z	11	advance_on_keypress_ZEE	10	stimuli_distractor_trianglediamonds.svg	stimuli_distractor_diamondtriangles.svg	36	no	57	0	451
6.6.1	win	2022-12-14	11:41:18	11:47:45	386809	5e4b793f03c92a08a6d28e3f	397550665	1	main_z	11	main_z	11	stimuli_distractor_trianglediamonds.svg	stimuli_target_diamondcircles.svg	27	yes	44	1	398
6.6.1	win	2022-12-14	11:41:18	11:47:45	386809	5e4b793f03c92a08a6d28e3f	397550665	1	main_z	11	advance_on_keypress_ZEE	12	stimuli_distractor_trianglediamonds.svg	stimuli_target_diamondcircles.svg	27	yes	57	0	404
6.6.1	win	2022-12-14	11:41:18	11:47:47	388474	5e4b793f03c92a08a6d28e3f	397550665	1	main_z	11	main_z	13	stimuli_target_diamondsquares.svg	stimuli_distractor_diamondtriangles.svg	24	yes	44	1	651
6.6.1	win	2022-12-14	11:41:18	11:47:47	388474	5e4b793f03c92a08a6d28e3f	397550665	1	main_z	11	advance_on_keypress_ZEE	14	stimuli_target_diamondsquares.svg	stimuli_distractor_diamondtriangles.svg	24	yes	57	0	280
6.6.1	win	2022-12-14	11:41:18	11:47:49	390253	5e4b793f03c92a08a6d28e3f	397550665	1	main_z	11	main_z	15	stimuli_distractor_trianglediamonds.svg	stimuli_target_squaretriangles.svg	11	yes	44	1	879
6.6.1	win	2022-12-14	11:41:18	11:47:49	390253	5e4b793f03c92a08a6d28e3f	397550665	1	main_z	11	advance_on_keypress_ZEE	16	stimuli_distractor_trianglediamonds.svg	stimuli_target_squaretriangles.svg	11	yes	57	0	337
6.6.1	win	2022-12-14	11:41:18	11:47:50	391726	5e4b793f03c92a08a6d28e3f	397550665	1	main_z	11	main_z	17	stimuli_target_circletriangles.svg	stimuli_distractor_diamondtriangles.svg	5	yes	44	1	512
6.6.1	win	2022-12-14	11:41:18	11:47:50	391726	5e4b793f03c92a08a6d28e3f	397550665	1	main_z	11	advance_on_keypress_ZEE	18	stimuli_target_circletriangles.svg	stimuli_distractor_diamondtriangles.svg	5	yes	57	0	184
6.6.1	win	2022-12-14	11:41:18	11:47:52	393028	5e4b793f03c92a08a6d28e3f	397550665	1	main_z	11	main_z	19	stimuli_target_squaretriangles.svg	stimuli_distractor_diamondtriangles.svg	7	yes	44	1	494
6.6.1	win	2022-12-14	11:41:18	11:47:52	393028	5e4b793f03c92a08a6d28e3f	397550665	1	main_z	11	advance_on_keypress_ZEE	20	stimuli_target_squaretriangles.svg	stimuli_distractor_diamondtriangles.svg	7	yes	57	0	214
6.6.1	win	2022-12-14	11:41:18	11:47:53	394391	5e4b793f03c92a08a6d28e3f	397550665	1	main_z	11	main_z	21	stimuli_distractor_diamondtriangles.svg	stimuli_target_circletriangles.svg	13	yes	44	1	526
6.6.1	win	2022-12-14	11:41:18	11:47:53	394391	5e4b793f03c92a08a6d28e3f	397550665	1	main_z	11	advance_on_keypress_ZEE	22	stimuli_distractor_diamondtriangles.svg	stimuli_target_circletriangles.svg	13	yes	57	0	171
6.6.1	win	2022-12-14	11:41:18	11:47:56	397188	5e4b793f03c92a08a6d28e3f	397550665	1	main_z	11	main_z	23	stimuli_distractor_diamondtriangles.svg	stimuli_distractor_trianglediamonds.svg	37	no	0	1	2003
6.6.1	win	2022-12-14	11:41:18	11:47:56	397188	5e4b793f03c92a08a6d28e3f	397550665	1	main_z	11	advance_on_keypress_ZEE	24	stimuli_distractor_diamondtriangles.svg	stimuli_distractor_trianglediamonds.svg	37	no	57	0	242
6.6.1	win	2022-12-14	11:41:18	11:47:57	398529	5e4b793f03c92a08a6d28e3f	397550665	1	main_z	11	main_z	25	stimuli_distractor_diamondtriangles.svg	stimuli_target_trianglesquares.svg	30	yes	44	1	475
6.6.1	win	2022-12-14	11:41:18	11:47:57	398529	5e4b793f03c92a08a6d28e3f	397550665	1	main_z	11	advance_on_keypress_ZEE	26	stimuli_distractor_diamondtriangles.svg	stimuli_target_trianglesquares.svg	30	yes	57	0	176
6.6.1	win	2022-12-14	11:41:18	11:47:58	399764	5e4b793f03c92a08a6d28e3f	397550665	1	main_z	11	main_z	27	stimuli_target_circlediamonds.svg	stimuli_distractor_diamondtriangles.svg	6	yes	44	1	437
6.6.1	win	2022-12-14	11:41:18	11:47:58	399764	5e4b793f03c92a08a6d28e3f	397550665	1	main_z	11	advance_on_keypress_ZEE	28	stimuli_target_circlediamonds.svg	stimuli_distractor_diamondtriangles.svg	6	yes	57	0	178
6.6.1	win	2022-12-14	11:41:18	11:48:00	400963	5e4b793f03c92a08a6d28e3f	397550665	1	main_z	11	main_z	29	stimuli_target_circletriangles.svg	stimuli_distractor_trianglediamonds.svg	1	yes	44	1	404
6.6.1	win	2022-12-14	11:41:18	11:48:00	400963	5e4b793f03c92a08a6d28e3f	397550665	1	main_z	11	advance_on_keypress_ZEE	30	stimuli_target_circletriangles.svg	stimuli_distractor_trianglediamonds.svg	1	yes	57	0	167
6.6.1	win	2022-12-14	11:41:18	11:48:01	402382	5e4b793f03c92a08a6d28e3f	397550665	1	main_z	11	main_z	31	stimuli_distractor_diamondtriangles.svg	stimuli_distractor_trianglediamonds.svg	38	no	44	0	629
6.6.1	win	2022-12-14	11:41:18	11:48:01	402382	5e4b793f03c92a08a6d28e3f	397550665	1	main_z	11	advance_on_keypress_ZEE	32	stimuli_distractor_diamondtriangles.svg	stimuli_distractor_trianglediamonds.svg	38	no	57	0	223
6.6.1	win	2022-12-14	11:41:18	11:48:02	403685	5e4b793f03c92a08a6d28e3f	397550665	1	main_z	11	main_z	33	stimuli_target_circlediamonds.svg	stimuli_distractor_trianglediamonds.svg	2	yes	44	1	457
6.6.1	win	2022-12-14	11:41:18	11:48:02	403685	5e4b793f03c92a08a6d28e3f	397550665	1	main_z	11	advance_on_keypress_ZEE	34	stimuli_target_circlediamonds.svg	stimuli_distractor_trianglediamonds.svg	2	yes	57	0	180
6.6.1	win	2022-12-14	11:41:18	11:48:05	406057	5e4b793f03c92a08a6d28e3f	397550665	1	main_z	11	main_z	35	stimuli_distractor_trianglediamonds.svg	stimuli_target_trianglesquares.svg	26	yes	44	1	1569
6.6.1	win	2022-12-14	11:41:18	11:48:05	406057	5e4b793f03c92a08a6d28e3f	397550665	1	main_z	11	advance_on_keypress_ZEE	36	stimuli_distractor_trianglediamonds.svg	stimuli_target_trianglesquares.svg	26	yes	57	0	146
6.6.1	win	2022-12-14	11:41:18	11:48:06	407336	5e4b793f03c92a08a6d28e3f	397550665	1	main_z	11	main_z	37	stimuli_distractor_trianglediamonds.svg	stimuli_target_circlediamonds.svg	10	yes	44	1	517
6.6.1	win	2022-12-14	11:41:18	11:48:06	407336	5e4b793f03c92a08a6d28e3f	397550665	1	main_z	11	advance_on_keypress_ZEE	38	stimuli_distractor_trianglediamonds.svg	stimuli_target_circlediamonds.svg	10	yes	57	0	275
6.6.1	win	2022-12-14	11:41:18	11:48:07	408738	5e4b793f03c92a08a6d28e3f	397550665	1	main_z	11	main_z	39	stimuli_distractor_trianglediamonds.svg	stimuli_target_trianglecircles.svg	25	yes	44	1	504
6.6.1	win	2022-12-14	11:41:18	11:48:07	408738	5e4b793f03c92a08a6d28e3f	397550665	1	main_z	11	advance_on_keypress_ZEE	40	stimuli_distractor_trianglediamonds.svg	stimuli_target_trianglecircles.svg	25	yes	57	0	140
6.6.1	win	2022-12-14	11:41:18	11:48:09	409999	5e4b793f03c92a08a6d28e3f	397550665	1	main_z	11	main_z	41	stimuli_distractor_trianglediamonds.svg	stimuli_target_circletriangles.svg	9	yes	44	1	498
6.6.1	win	2022-12-14	11:41:18	11:48:09	409999	5e4b793f03c92a08a6d28e3f	397550665	1	main_z	11	advance_on_keypress_ZEE	42	stimuli_distractor_trianglediamonds.svg	stimuli_target_circletriangles.svg	9	yes	57	0	150
6.6.1	win	2022-12-14	11:41:18	11:48:10	411249	5e4b793f03c92a08a6d28e3f	397550665	1	main_z	11	main_z	43	stimuli_distractor_diamondtriangles.svg	stimuli_target_squarediamonds.svg	16	yes	44	1	478
6.6.1	win	2022-12-14	11:41:18	11:48:10	411249	5e4b793f03c92a08a6d28e3f	397550665	1	main_z	11	advance_on_keypress_ZEE	44	stimuli_distractor_diamondtriangles.svg	stimuli_target_squarediamonds.svg	16	yes	57	0	216
6.6.1	win	2022-12-14	11:41:18	11:48:13	414090	5e4b793f03c92a08a6d28e3f	397550665	1	main_z	11	main_z	45	stimuli_distractor_trianglediamonds.svg	stimuli_distractor_trianglediamonds.svg	34	no	0	1	2003
6.6.1	win	2022-12-14	11:41:18	11:48:13	414090	5e4b793f03c92a08a6d28e3f	397550665	1	main_z	11	advance_on_keypress_ZEE	46	stimuli_distractor_trianglediamonds.svg	stimuli_distractor_trianglediamonds.svg	34	no	57	0	126
6.6.1	win	2022-12-14	11:41:18	11:48:14	415238	5e4b793f03c92a08a6d28e3f	397550665	1	main_z	11	main_z	47	stimuli_target_trianglecircles.svg	stimuli_distractor_diamondtriangles.svg	21	yes	44	1	401
6.6.1	win	2022-12-14	11:41:18	11:48:14	415238	5e4b793f03c92a08a6d28e3f	397550665	1	main_z	11	advance_on_keypress_ZEE	48	stimuli_target_trianglecircles.svg	stimuli_distractor_diamondtriangles.svg	21	yes	57	0	161
6.6.1	win	2022-12-14	11:41:18	11:48:15	416538	5e4b793f03c92a08a6d28e3f	397550665	1	main_z	11	main_z	49	stimuli_distractor_trianglediamonds.svg	stimuli_target_diamondsquares.svg	28	yes	44	1	527
6.6.1	win	2022-12-14	11:41:18	11:48:15	416538	5e4b793f03c92a08a6d28e3f	397550665	1	main_z	11	advance_on_keypress_ZEE	50	stimuli_distractor_trianglediamonds.svg	stimuli_target_diamondsquares.svg	28	yes	57	0	150
6.6.1	win	2022-12-14	11:41:18	11:48:16	417731	5e4b793f03c92a08a6d28e3f	397550665	1	main_z	11	main_z	51	stimuli_distractor_diamondtriangles.svg	stimuli_target_trianglecircles.svg	29	yes	44	1	427
6.6.1	win	2022-12-14	11:41:18	11:48:16	417731	5e4b793f03c92a08a6d28e3f	397550665	1	main_z	11	advance_on_keypress_ZEE	52	stimuli_distractor_diamondtriangles.svg	stimuli_target_trianglecircles.svg	29	yes	57	0	157
6.6.1	win	2022-12-14	11:41:18	11:48:18	419029	5e4b793f03c92a08a6d28e3f	397550665	1	main_z	11	main_z	53	stimuli_target_squarediamonds.svg	stimuli_distractor_trianglediamonds.svg	4	yes	44	1	515
6.6.1	win	2022-12-14	11:41:18	11:48:18	419029	5e4b793f03c92a08a6d28e3f	397550665	1	main_z	11	advance_on_keypress_ZEE	54	stimuli_target_squarediamonds.svg	stimuli_distractor_trianglediamonds.svg	4	yes	57	0	154
6.6.1	win	2022-12-14	11:41:18	11:48:19	420254	5e4b793f03c92a08a6d28e3f	397550665	1	main_z	11	main_z	55	stimuli_distractor_trianglediamonds.svg	stimuli_distractor_diamondtriangles.svg	35	no	44	0	449
6.6.1	win	2022-12-14	11:41:18	11:48:19	420254	5e4b793f03c92a08a6d28e3f	397550665	1	main_z	11	advance_on_keypress_ZEE	56	stimuli_distractor_trianglediamonds.svg	stimuli_distractor_diamondtriangles.svg	35	no	57	0	187
6.6.1	win	2022-12-14	11:41:18	11:48:20	421533	5e4b793f03c92a08a6d28e3f	397550665	1	main_z	11	main_z	57	stimuli_distractor_diamondtriangles.svg	stimuli_target_circlediamonds.svg	14	yes	44	1	469
6.6.1	win	2022-12-14	11:41:18	11:48:20	421533	5e4b793f03c92a08a6d28e3f	397550665	1	main_z	11	advance_on_keypress_ZEE	58	stimuli_distractor_diamondtriangles.svg	stimuli_target_circlediamonds.svg	14	yes	57	0	249
6.6.1	win	2022-12-14	11:41:18	11:48:22	422932	5e4b793f03c92a08a6d28e3f	397550665	1	main_z	11	main_z	59	stimuli_target_trianglesquares.svg	stimuli_distractor_diamondtriangles.svg	22	yes	44	1	527
6.6.1	win	2022-12-14	11:41:18	11:48:22	422932	5e4b793f03c92a08a6d28e3f	397550665	1	main_z	11	advance_on_keypress_ZEE	60	stimuli_target_trianglesquares.svg	stimuli_distractor_diamondtriangles.svg	22	yes	57	0	149
6.6.1	win	2022-12-14	11:41:18	11:48:23	424106	5e4b793f03c92a08a6d28e3f	397550665	1	main_z	11	main_z	61	stimuli_target_squaretriangles.svg	stimuli_distractor_trianglediamonds.svg	3	yes	44	1	407
6.6.1	win	2022-12-14	11:41:18	11:48:23	424106	5e4b793f03c92a08a6d28e3f	397550665	1	main_z	11	advance_on_keypress_ZEE	62	stimuli_target_squaretriangles.svg	stimuli_distractor_trianglediamonds.svg	3	yes	57	0	135
6.6.1	win	2022-12-14	11:41:18	11:48:24	425288	5e4b793f03c92a08a6d28e3f	397550665	1	main_z	11	main_z	63	stimuli_target_trianglecircles.svg	stimuli_distractor_trianglediamonds.svg	17	yes	44	1	425
6.6.1	win	2022-12-14	11:41:18	11:48:24	425288	5e4b793f03c92a08a6d28e3f	397550665	1	main_z	11	advance_on_keypress_ZEE	64	stimuli_target_trianglecircles.svg	stimuli_distractor_trianglediamonds.svg	17	yes	57	0	140
6.6.1	win	2022-12-14	11:41:18	11:48:25	426654	5e4b793f03c92a08a6d28e3f	397550665	1	main_z	11	main_z	65	stimuli_distractor_trianglediamonds.svg	stimuli_target_squarediamonds.svg	12	yes	44	1	603
6.6.1	win	2022-12-14	11:41:18	11:48:25	426654	5e4b793f03c92a08a6d28e3f	397550665	1	main_z	11	advance_on_keypress_ZEE	66	stimuli_distractor_trianglediamonds.svg	stimuli_target_squarediamonds.svg	12	yes	57	0	135
6.6.1	win	2022-12-14	11:41:18	11:48:27	427936	5e4b793f03c92a08a6d28e3f	397550665	1	main_z	11	main_z	67	stimuli_distractor_diamondtriangles.svg	stimuli_target_diamondcircles.svg	31	yes	44	1	524
6.6.1	win	2022-12-14	11:41:18	11:48:27	427936	5e4b793f03c92a08a6d28e3f	397550665	1	main_z	11	advance_on_keypress_ZEE	68	stimuli_distractor_diamondtriangles.svg	stimuli_target_diamondcircles.svg	31	yes	57	0	115
6.6.1	win	2022-12-14	11:41:18	11:48:28	429160	5e4b793f03c92a08a6d28e3f	397550665	1	main_z	11	main_z	69	stimuli_target_diamondcircles.svg	stimuli_distractor_trianglediamonds.svg	19	yes	44	1	489
6.6.1	win	2022-12-14	11:41:18	11:48:28	429160	5e4b793f03c92a08a6d28e3f	397550665	1	main_z	11	advance_on_keypress_ZEE	70	stimuli_target_diamondcircles.svg	stimuli_distractor_trianglediamonds.svg	19	yes	57	0	141
6.6.1	win	2022-12-14	11:41:18	11:48:31	431926	5e4b793f03c92a08a6d28e3f	397550665	1	main_z	11	main_z	71	stimuli_distractor_diamondtriangles.svg	stimuli_distractor_diamondtriangles.svg	40	no	0	1	2003
6.6.1	win	2022-12-14	11:41:18	11:48:31	431926	5e4b793f03c92a08a6d28e3f	397550665	1	main_z	11	advance_on_keypress_ZEE	72	stimuli_distractor_diamondtriangles.svg	stimuli_distractor_diamondtriangles.svg	40	no	57	0	422
6.6.1	win	2022-12-14	11:41:18	11:48:32	433363	5e4b793f03c92a08a6d28e3f	397550665	1	main_z	11	main_z	73	stimuli_target_squarediamonds.svg	stimuli_distractor_diamondtriangles.svg	8	yes	44	1	396
6.6.1	win	2022-12-14	11:41:18	11:48:32	433363	5e4b793f03c92a08a6d28e3f	397550665	1	main_z	11	advance_on_keypress_ZEE	74	stimuli_target_squarediamonds.svg	stimuli_distractor_diamondtriangles.svg	8	yes	57	0	171
6.6.1	win	2022-12-14	11:41:18	11:48:33	434787	5e4b793f03c92a08a6d28e3f	397550665	1	main_z	11	main_z	75	stimuli_target_diamondsquares.svg	stimuli_distractor_trianglediamonds.svg	20	yes	44	1	631
6.6.1	win	2022-12-14	11:41:18	11:48:33	434787	5e4b793f03c92a08a6d28e3f	397550665	1	main_z	11	advance_on_keypress_ZEE	76	stimuli_target_diamondsquares.svg	stimuli_distractor_trianglediamonds.svg	20	yes	57	0	181
6.6.1	win	2022-12-14	11:41:18	11:48:35	435976	5e4b793f03c92a08a6d28e3f	397550665	1	main_z	11	main_z	77	stimuli_target_trianglesquares.svg	stimuli_distractor_trianglediamonds.svg	18	yes	44	1	383
6.6.1	win	2022-12-14	11:41:18	11:48:35	435976	5e4b793f03c92a08a6d28e3f	397550665	1	main_z	11	advance_on_keypress_ZEE	78	stimuli_target_trianglesquares.svg	stimuli_distractor_trianglediamonds.svg	18	yes	57	0	204
6.6.1	win	2022-12-14	11:41:18	11:48:36	437354	5e4b793f03c92a08a6d28e3f	397550665	1	main_z	11	main_z	79	stimuli_target_diamondcircles.svg	stimuli_distractor_diamondtriangles.svg	23	yes	44	1	557
6.6.1	win	2022-12-14	11:41:18	11:48:36	437354	5e4b793f03c92a08a6d28e3f	397550665	1	main_z	11	advance_on_keypress_ZEE	80	stimuli_target_diamondcircles.svg	stimuli_distractor_diamondtriangles.svg	23	yes	57	0	677
6.6.1	win	2022-12-14	11:41:18	11:48:39	440656	5e4b793f03c92a08a6d28e3f	397550665	1	main_z	11	main_z	81	stimuli_distractor_diamondtriangles.svg	stimuli_target_squaretriangles.svg	15	yes	0	0	2003
6.6.1	win	2022-12-14	11:41:18	11:48:39	440656	5e4b793f03c92a08a6d28e3f	397550665	1	main_z	11	advance_on_keypress_ZEE	82	stimuli_distractor_diamondtriangles.svg	stimuli_target_squaretriangles.svg	15	yes	57	0	136
6.6.1	win	2022-12-14	11:41:18	11:48:40	441785	5e4b793f03c92a08a6d28e3f	397550665	1	main_z	11	main_z	83	stimuli_distractor_trianglediamonds.svg	stimuli_target_trianglecircles.svg	25	yes	44	1	378
6.6.1	win	2022-12-14	11:41:18	11:48:40	441785	5e4b793f03c92a08a6d28e3f	397550665	1	main_z	11	advance_on_keypress_ZEE	84	stimuli_distractor_trianglediamonds.svg	stimuli_target_trianglecircles.svg	25	yes	57	0	170
6.6.1	win	2022-12-14	11:41:18	11:48:42	443068	5e4b793f03c92a08a6d28e3f	397550665	1	main_z	11	main_z	85	stimuli_distractor_trianglediamonds.svg	stimuli_target_diamondcircles.svg	27	yes	44	1	496
6.6.1	win	2022-12-14	11:41:18	11:48:42	443068	5e4b793f03c92a08a6d28e3f	397550665	1	main_z	11	advance_on_keypress_ZEE	86	stimuli_distractor_trianglediamonds.svg	stimuli_target_diamondcircles.svg	27	yes	57	0	169
6.6.1	win	2022-12-14	11:41:18	11:48:44	445857	5e4b793f03c92a08a6d28e3f	397550665	1	main_z	11	main_z	87	stimuli_distractor_diamondtriangles.svg	stimuli_distractor_trianglediamonds.svg	37	no	0	1	2003
6.6.1	win	2022-12-14	11:41:18	11:48:44	445857	5e4b793f03c92a08a6d28e3f	397550665	1	main_z	11	advance_on_keypress_ZEE	88	stimuli_distractor_diamondtriangles.svg	stimuli_distractor_trianglediamonds.svg	37	no	57	0	241
6.6.1	win	2022-12-14	11:41:18	11:48:46	447061	5e4b793f03c92a08a6d28e3f	397550665	1	main_z	11	main_z	89	stimuli_target_squarediamonds.svg	stimuli_distractor_diamondtriangles.svg	8	yes	44	1	341
6.6.1	win	2022-12-14	11:41:18	11:48:46	447061	5e4b793f03c92a08a6d28e3f	397550665	1	main_z	11	advance_on_keypress_ZEE	90	stimuli_target_squarediamonds.svg	stimuli_distractor_diamondtriangles.svg	8	yes	57	0	142
6.6.1	win	2022-12-14	11:41:18	11:48:48	449822	5e4b793f03c92a08a6d28e3f	397550665	1	main_z	11	main_z	91	stimuli_distractor_diamondtriangles.svg	stimuli_distractor_diamondtriangles.svg	40	no	0	1	2003
6.6.1	win	2022-12-14	11:41:18	11:48:48	449822	5e4b793f03c92a08a6d28e3f	397550665	1	main_z	11	advance_on_keypress_ZEE	92	stimuli_distractor_diamondtriangles.svg	stimuli_distractor_diamondtriangles.svg	40	no	57	0	276
6.6.1	win	2022-12-14	11:41:18	11:48:51	452721	5e4b793f03c92a08a6d28e3f	397550665	1	main_z	11	main_z	93	stimuli_distractor_diamondtriangles.svg	stimuli_distractor_trianglediamonds.svg	38	no	0	1	2003
6.6.1	win	2022-12-14	11:41:18	11:48:51	452721	5e4b793f03c92a08a6d28e3f	397550665	1	main_z	11	advance_on_keypress_ZEE	94	stimuli_distractor_diamondtriangles.svg	stimuli_distractor_trianglediamonds.svg	38	no	57	0	235
6.6.1	win	2022-12-14	11:41:18	11:48:53	453974	5e4b793f03c92a08a6d28e3f	397550665	1	main_z	11	main_z	95	stimuli_target_circlediamonds.svg	stimuli_distractor_diamondtriangles.svg	6	yes	44	1	394
6.6.1	win	2022-12-14	11:41:18	11:48:53	453974	5e4b793f03c92a08a6d28e3f	397550665	1	main_z	11	advance_on_keypress_ZEE	96	stimuli_target_circlediamonds.svg	stimuli_distractor_diamondtriangles.svg	6	yes	57	0	174
6.6.1	win	2022-12-14	11:41:18	11:48:55	456762	5e4b793f03c92a08a6d28e3f	397550665	1	main_z	11	main_z	97	stimuli_distractor_trianglediamonds.svg	stimuli_distractor_trianglediamonds.svg	33	no	0	1	2003
6.6.1	win	2022-12-14	11:41:18	11:48:55	456762	5e4b793f03c92a08a6d28e3f	397550665	1	main_z	11	advance_on_keypress_ZEE	98	stimuli_distractor_trianglediamonds.svg	stimuli_distractor_trianglediamonds.svg	33	no	57	0	48
6.6.1	win	2022-12-14	11:41:18	11:48:56	457856	5e4b793f03c92a08a6d28e3f	397550665	1	main_z	11	main_z	99	stimuli_distractor_diamondtriangles.svg	stimuli_target_circletriangles.svg	13	yes	44	1	428
6.6.1	win	2022-12-14	11:41:18	11:48:56	457856	5e4b793f03c92a08a6d28e3f	397550665	1	main_z	11	advance_on_keypress_ZEE	100	stimuli_distractor_diamondtriangles.svg	stimuli_target_circletriangles.svg	13	yes	57	0	169
6.6.1	win	2022-12-14	11:41:18	11:48:58	459136	5e4b793f03c92a08a6d28e3f	397550665	1	main_z	11	main_z	101	stimuli_distractor_diamondtriangles.svg	stimuli_target_diamondcircles.svg	31	yes	44	1	496
6.6.1	win	2022-12-14	11:41:18	11:48:58	459136	5e4b793f03c92a08a6d28e3f	397550665	1	main_z	11	advance_on_keypress_ZEE	102	stimuli_distractor_diamondtriangles.svg	stimuli_target_diamondcircles.svg	31	yes	57	0	309
6.6.1	win	2022-12-14	11:41:18	11:48:59	460495	5e4b793f03c92a08a6d28e3f	397550665	1	main_z	11	main_z	103	stimuli_target_trianglecircles.svg	stimuli_distractor_diamondtriangles.svg	21	yes	44	1	435
6.6.1	win	2022-12-14	11:41:18	11:48:59	460495	5e4b793f03c92a08a6d28e3f	397550665	1	main_z	11	advance_on_keypress_ZEE	104	stimuli_target_trianglecircles.svg	stimuli_distractor_diamondtriangles.svg	21	yes	57	0	161
6.6.1	win	2022-12-14	11:41:18	11:49:00	461677	5e4b793f03c92a08a6d28e3f	397550665	1	main_z	11	main_z	105	stimuli_target_trianglesquares.svg	stimuli_distractor_trianglediamonds.svg	18	yes	44	1	398
6.6.1	win	2022-12-14	11:41:18	11:49:00	461677	5e4b793f03c92a08a6d28e3f	397550665	1	main_z	11	advance_on_keypress_ZEE	106	stimuli_target_trianglesquares.svg	stimuli_distractor_trianglediamonds.svg	18	yes	57	0	163
6.6.1	win	2022-12-14	11:41:18	11:49:03	464468	5e4b793f03c92a08a6d28e3f	397550665	1	main_z	11	main_z	107	stimuli_distractor_diamondtriangles.svg	stimuli_distractor_diamondtriangles.svg	39	no	0	1	2003
6.6.1	win	2022-12-14	11:41:18	11:49:03	464468	5e4b793f03c92a08a6d28e3f	397550665	1	main_z	11	advance_on_keypress_ZEE	108	stimuli_distractor_diamondtriangles.svg	stimuli_distractor_diamondtriangles.svg	39	no	57	0	283
6.6.1	win	2022-12-14	11:41:18	11:49:04	465727	5e4b793f03c92a08a6d28e3f	397550665	1	main_z	11	main_z	109	stimuli_target_squaretriangles.svg	stimuli_distractor_diamondtriangles.svg	7	yes	44	1	354
6.6.1	win	2022-12-14	11:41:18	11:49:04	465727	5e4b793f03c92a08a6d28e3f	397550665	1	main_z	11	advance_on_keypress_ZEE	110	stimuli_target_squaretriangles.svg	stimuli_distractor_diamondtriangles.svg	7	yes	57	0	202
6.6.1	win	2022-12-14	11:41:18	11:49:06	466970	5e4b793f03c92a08a6d28e3f	397550665	1	main_z	11	main_z	111	stimuli_target_trianglesquares.svg	stimuli_distractor_diamondtriangles.svg	22	yes	44	1	419
6.6.1	win	2022-12-14	11:41:18	11:49:06	466970	5e4b793f03c92a08a6d28e3f	397550665	1	main_z	11	advance_on_keypress_ZEE	112	stimuli_target_trianglesquares.svg	stimuli_distractor_diamondtriangles.svg	22	yes	57	0	191
6.6.1	win	2022-12-14	11:41:18	11:49:07	468153	5e4b793f03c92a08a6d28e3f	397550665	1	main_z	11	main_z	113	stimuli_target_trianglecircles.svg	stimuli_distractor_trianglediamonds.svg	17	yes	44	1	370
6.6.1	win	2022-12-14	11:41:18	11:49:07	468153	5e4b793f03c92a08a6d28e3f	397550665	1	main_z	11	advance_on_keypress_ZEE	114	stimuli_target_trianglecircles.svg	stimuli_distractor_trianglediamonds.svg	17	yes	57	0	153
6.6.1	win	2022-12-14	11:41:18	11:49:08	469585	5e4b793f03c92a08a6d28e3f	397550665	1	main_z	11	main_z	115	stimuli_distractor_trianglediamonds.svg	stimuli_target_circlediamonds.svg	10	yes	44	1	656
6.6.1	win	2022-12-14	11:41:18	11:49:08	469585	5e4b793f03c92a08a6d28e3f	397550665	1	main_z	11	advance_on_keypress_ZEE	116	stimuli_distractor_trianglediamonds.svg	stimuli_target_circlediamonds.svg	10	yes	57	0	152
6.6.1	win	2022-12-14	11:41:18	11:49:11	472358	5e4b793f03c92a08a6d28e3f	397550665	1	main_z	11	main_z	117	stimuli_distractor_trianglediamonds.svg	stimuli_distractor_diamondtriangles.svg	36	no	0	1	2003
6.6.1	win	2022-12-14	11:41:18	11:49:11	472358	5e4b793f03c92a08a6d28e3f	397550665	1	main_z	11	advance_on_keypress_ZEE	118	stimuli_distractor_trianglediamonds.svg	stimuli_distractor_diamondtriangles.svg	36	no	57	0	83
6.6.1	win	2022-12-14	11:41:18	11:49:12	473560	5e4b793f03c92a08a6d28e3f	397550665	1	main_z	11	main_z	119	stimuli_distractor_diamondtriangles.svg	stimuli_target_trianglecircles.svg	29	yes	44	1	497
6.6.1	win	2022-12-14	11:41:18	11:49:12	473560	5e4b793f03c92a08a6d28e3f	397550665	1	main_z	11	advance_on_keypress_ZEE	120	stimuli_distractor_diamondtriangles.svg	stimuli_target_trianglecircles.svg	29	yes	57	0	307
6.6.1	win	2022-12-14	11:41:18	11:49:13	474873	5e4b793f03c92a08a6d28e3f	397550665	1	main_z	11	main_z	121	stimuli_target_squarediamonds.svg	stimuli_distractor_trianglediamonds.svg	4	yes	44	1	383
6.6.1	win	2022-12-14	11:41:18	11:49:13	474873	5e4b793f03c92a08a6d28e3f	397550665	1	main_z	11	advance_on_keypress_ZEE	122	stimuli_target_squarediamonds.svg	stimuli_distractor_trianglediamonds.svg	4	yes	57	0	143
6.6.1	win	2022-12-14	11:41:18	11:49:15	476007	5e4b793f03c92a08a6d28e3f	397550665	1	main_z	11	main_z	123	stimuli_distractor_diamondtriangles.svg	stimuli_target_circlediamonds.svg	14	yes	44	1	371
6.6.1	win	2022-12-14	11:41:18	11:49:15	476007	5e4b793f03c92a08a6d28e3f	397550665	1	main_z	11	advance_on_keypress_ZEE	124	stimuli_distractor_diamondtriangles.svg	stimuli_target_circlediamonds.svg	14	yes	57	0	190
6.6.1	win	2022-12-14	11:41:18	11:49:16	477172	5e4b793f03c92a08a6d28e3f	397550665	1	main_z	11	main_z	125	stimuli_target_circletriangles.svg	stimuli_distractor_diamondtriangles.svg	5	yes	44	1	353
6.6.1	win	2022-12-14	11:41:18	11:49:16	477172	5e4b793f03c92a08a6d28e3f	397550665	1	main_z	11	advance_on_keypress_ZEE	126	stimuli_target_circletriangles.svg	stimuli_distractor_diamondtriangles.svg	5	yes	57	0	171
6.6.1	win	2022-12-14	11:41:18	11:49:17	478496	5e4b793f03c92a08a6d28e3f	397550665	1	main_z	11	main_z	127	stimuli_distractor_trianglediamonds.svg	stimuli_target_squaretriangles.svg	11	yes	44	1	531
6.6.1	win	2022-12-14	11:41:18	11:49:17	478496	5e4b793f03c92a08a6d28e3f	397550665	1	main_z	11	advance_on_keypress_ZEE	128	stimuli_distractor_trianglediamonds.svg	stimuli_target_squaretriangles.svg	11	yes	57	0	152
6.6.1	win	2022-12-14	11:41:18	11:49:18	479660	5e4b793f03c92a08a6d28e3f	397550665	1	main_z	11	main_z	129	stimuli_target_circletriangles.svg	stimuli_distractor_trianglediamonds.svg	1	yes	44	1	391
6.6.1	win	2022-12-14	11:41:18	11:49:18	479660	5e4b793f03c92a08a6d28e3f	397550665	1	main_z	11	advance_on_keypress_ZEE	130	stimuli_target_circletriangles.svg	stimuli_distractor_trianglediamonds.svg	1	yes	57	0	145
6.6.1	win	2022-12-14	11:41:18	11:49:20	480936	5e4b793f03c92a08a6d28e3f	397550665	1	main_z	11	main_z	131	stimuli_target_diamondcircles.svg	stimuli_distractor_trianglediamonds.svg	19	yes	44	1	510
6.6.1	win	2022-12-14	11:41:18	11:49:20	480936	5e4b793f03c92a08a6d28e3f	397550665	1	main_z	11	advance_on_keypress_ZEE	132	stimuli_target_diamondcircles.svg	stimuli_distractor_trianglediamonds.svg	19	yes	57	0	141
6.6.1	win	2022-12-14	11:41:18	11:49:21	482081	5e4b793f03c92a08a6d28e3f	397550665	1	main_z	11	main_z	133	stimuli_target_circlediamonds.svg	stimuli_distractor_trianglediamonds.svg	2	yes	44	1	381
6.6.1	win	2022-12-14	11:41:18	11:49:21	482081	5e4b793f03c92a08a6d28e3f	397550665	1	main_z	11	advance_on_keypress_ZEE	134	stimuli_target_circlediamonds.svg	stimuli_distractor_trianglediamonds.svg	2	yes	57	0	118
6.6.1	win	2022-12-14	11:41:18	11:49:22	483390	5e4b793f03c92a08a6d28e3f	397550665	1	main_z	11	main_z	135	stimuli_distractor_trianglediamonds.svg	stimuli_target_squarediamonds.svg	12	yes	44	1	570
6.6.1	win	2022-12-14	11:41:18	11:49:22	483390	5e4b793f03c92a08a6d28e3f	397550665	1	main_z	11	advance_on_keypress_ZEE	136	stimuli_distractor_trianglediamonds.svg	stimuli_target_squarediamonds.svg	12	yes	57	0	99
6.6.1	win	2022-12-14	11:41:18	11:49:23	484535	5e4b793f03c92a08a6d28e3f	397550665	1	main_z	11	main_z	137	stimuli_target_squaretriangles.svg	stimuli_distractor_trianglediamonds.svg	3	yes	44	1	424
6.6.1	win	2022-12-14	11:41:18	11:49:23	484535	5e4b793f03c92a08a6d28e3f	397550665	1	main_z	11	advance_on_keypress_ZEE	138	stimuli_target_squaretriangles.svg	stimuli_distractor_trianglediamonds.svg	3	yes	57	0	45
6.6.1	win	2022-12-14	11:41:18	11:49:25	486161	5e4b793f03c92a08a6d28e3f	397550665	1	main_z	11	main_z	139	stimuli_target_diamondsquares.svg	stimuli_distractor_diamondtriangles.svg	24	yes	44	1	964
6.6.1	win	2022-12-14	11:41:18	11:49:25	486161	5e4b793f03c92a08a6d28e3f	397550665	1	main_z	11	advance_on_keypress_ZEE	140	stimuli_target_diamondsquares.svg	stimuli_distractor_diamondtriangles.svg	24	yes	57	0	130
6.6.1	win	2022-12-14	11:41:18	11:49:26	487411	5e4b793f03c92a08a6d28e3f	397550665	1	main_z	11	main_z	141	stimuli_target_diamondcircles.svg	stimuli_distractor_diamondtriangles.svg	23	yes	44	1	498
6.6.1	win	2022-12-14	11:41:18	11:49:26	487411	5e4b793f03c92a08a6d28e3f	397550665	1	main_z	11	advance_on_keypress_ZEE	142	stimuli_target_diamondcircles.svg	stimuli_distractor_diamondtriangles.svg	23	yes	57	0	535
6.6.1	win	2022-12-14	11:41:18	11:49:28	489003	5e4b793f03c92a08a6d28e3f	397550665	1	main_z	11	main_z	143	stimuli_distractor_diamondtriangles.svg	stimuli_target_trianglesquares.svg	30	yes	44	1	440
6.6.1	win	2022-12-14	11:41:18	11:49:28	489003	5e4b793f03c92a08a6d28e3f	397550665	1	main_z	11	advance_on_keypress_ZEE	144	stimuli_distractor_diamondtriangles.svg	stimuli_target_trianglesquares.svg	30	yes	57	0	439
6.6.1	win	2022-12-14	11:41:18	11:49:29	490555	5e4b793f03c92a08a6d28e3f	397550665	1	main_z	11	main_z	145	stimuli_distractor_trianglediamonds.svg	stimuli_target_diamondsquares.svg	28	yes	44	1	492
6.6.1	win	2022-12-14	11:41:18	11:49:29	490555	5e4b793f03c92a08a6d28e3f	397550665	1	main_z	11	advance_on_keypress_ZEE	146	stimuli_distractor_trianglediamonds.svg	stimuli_target_diamondsquares.svg	28	yes	57	0	80
6.6.1	win	2022-12-14	11:41:18	11:49:30	491628	5e4b793f03c92a08a6d28e3f	397550665	1	main_z	11	main_z	147	stimuli_target_diamondsquares.svg	stimuli_distractor_trianglediamonds.svg	20	yes	44	1	375
6.6.1	win	2022-12-14	11:41:18	11:49:30	491628	5e4b793f03c92a08a6d28e3f	397550665	1	main_z	11	advance_on_keypress_ZEE	148	stimuli_target_diamondsquares.svg	stimuli_distractor_trianglediamonds.svg	20	yes	57	0	107
6.6.1	win	2022-12-14	11:41:18	11:49:31	492695	5e4b793f03c92a08a6d28e3f	397550665	1	main_z	11	main_z	149	stimuli_distractor_diamondtriangles.svg	stimuli_target_diamondsquares.svg	32	yes	44	1	338
6.6.1	win	2022-12-14	11:41:18	11:49:31	492695	5e4b793f03c92a08a6d28e3f	397550665	1	main_z	11	advance_on_keypress_ZEE	150	stimuli_distractor_diamondtriangles.svg	stimuli_target_diamondsquares.svg	32	yes	57	0	86
6.6.1	win	2022-12-14	11:41:18	11:49:34	495402	5e4b793f03c92a08a6d28e3f	397550665	1	main_z	11	main_z	151	stimuli_distractor_trianglediamonds.svg	stimuli_distractor_trianglediamonds.svg	34	no	0	1	2003
6.6.1	win	2022-12-14	11:41:18	11:49:34	495402	5e4b793f03c92a08a6d28e3f	397550665	1	main_z	11	advance_on_keypress_ZEE	152	stimuli_distractor_trianglediamonds.svg	stimuli_distractor_trianglediamonds.svg	34	no	57	0	78
6.6.1	win	2022-12-14	11:41:18	11:49:35	496448	5e4b793f03c92a08a6d28e3f	397550665	1	main_z	11	main_z	153	stimuli_distractor_trianglediamonds.svg	stimuli_target_trianglesquares.svg	26	yes	44	1	350
6.6.1	win	2022-12-14	11:41:18	11:49:35	496448	5e4b793f03c92a08a6d28e3f	397550665	1	main_z	11	advance_on_keypress_ZEE	154	stimuli_distractor_trianglediamonds.svg	stimuli_target_trianglesquares.svg	26	yes	57	0	80
6.6.1	win	2022-12-14	11:41:18	11:49:37	498442	5e4b793f03c92a08a6d28e3f	397550665	1	main_z	11	main_z	155	stimuli_distractor_trianglediamonds.svg	stimuli_distractor_diamondtriangles.svg	35	no	44	0	1296
6.6.1	win	2022-12-14	11:41:18	11:49:37	498442	5e4b793f03c92a08a6d28e3f	397550665	1	main_z	11	advance_on_keypress_ZEE	156	stimuli_distractor_trianglediamonds.svg	stimuli_distractor_diamondtriangles.svg	35	no	57	0	358
6.6.1	win	2022-12-14	11:41:18	11:49:38	499801	5e4b793f03c92a08a6d28e3f	397550665	1	main_z	11	main_z	157	stimuli_distractor_trianglediamonds.svg	stimuli_target_circletriangles.svg	9	yes	44	1	379
6.6.1	win	2022-12-14	11:41:18	11:49:38	499801	5e4b793f03c92a08a6d28e3f	397550665	1	main_z	11	advance_on_keypress_ZEE	158	stimuli_distractor_trianglediamonds.svg	stimuli_target_circletriangles.svg	9	yes	57	0	69
6.6.1	win	2022-12-14	11:41:18	11:49:39	500839	5e4b793f03c92a08a6d28e3f	397550665	1	main_z	11	main_z	159	stimuli_distractor_diamondtriangles.svg	stimuli_target_squarediamonds.svg	16	yes	44	1	348
6.6.1	win	2022-12-14	11:41:18	11:49:39	500839	5e4b793f03c92a08a6d28e3f	397550665	1	main_z	11	advance_on_keypress_ZEE	160	stimuli_distractor_diamondtriangles.svg	stimuli_target_squarediamonds.svg	16	yes	57	0	782