build	computer.platform	date	time	timestamp	time_elapsed_ms	subject	group	session	blockcode	blocknum	trialcode	trialnum	stimulus_left	stimulus_right	stim_index	target_present	response	correct	latency
6.6.1	win	2022-12-15	08:28:44	08:32:06	200638	60737b97d01c3800e734921d	707036146	1	practice_z	5	practice_z	1	stimuli_distractor_diamondtriangles.svg	stimuli_target_circletriangles.svg	7	yes	44	1	385
6.6.1	win	2022-12-15	08:28:44	08:32:06	200638	60737b97d01c3800e734921d	707036146	1	practice_z	5	advance_on_keypress_ZEE	2	stimuli_distractor_diamondtriangles.svg	stimuli_target_circletriangles.svg	7	yes	57	0	1820
6.6.1	win	2022-12-15	08:28:44	08:32:11	206163	60737b97d01c3800e734921d	707036146	1	practice_z	5	practice_z	3	stimuli_target_diamondsquares.svg	stimuli_distractor_trianglediamonds.svg	6	yes	0	0	2003
6.6.1	win	2022-12-15	08:28:44	08:32:11	206163	60737b97d01c3800e734921d	707036146	1	practice_z	5	advance_on_keypress_ZEE	4	stimuli_target_diamondsquares.svg	stimuli_distractor_trianglediamonds.svg	6	yes	57	0	930
6.6.1	win	2022-12-15	08:28:44	08:32:14	209066	60737b97d01c3800e734921d	707036146	1	practice_z	5	practice_z	5	stimuli_target_squarediamonds.svg	stimuli_distractor_trianglediamonds.svg	5	yes	44	1	347
6.6.1	win	2022-12-15	08:28:44	08:32:14	209066	60737b97d01c3800e734921d	707036146	1	practice_z	5	advance_on_keypress_ZEE	6	stimuli_target_squarediamonds.svg	stimuli_distractor_trianglediamonds.svg	5	yes	57	0	683
6.6.1	win	2022-12-15	08:28:44	08:32:18	213363	60737b97d01c3800e734921d	707036146	1	practice_z	5	practice_z	7	stimuli_distractor_trianglediamonds.svg	stimuli_distractor_trianglediamonds.svg	15	no	0	1	2003
6.6.1	win	2022-12-15	08:28:44	08:32:18	213363	60737b97d01c3800e734921d	707036146	1	practice_z	5	advance_on_keypress_ZEE	8	stimuli_distractor_trianglediamonds.svg	stimuli_distractor_trianglediamonds.svg	15	no	57	0	1097
6.6.1	win	2022-12-15	08:28:44	08:32:22	216807	60737b97d01c3800e734921d	707036146	1	practice_z	5	practice_z	9	stimuli_distractor_trianglediamonds.svg	stimuli_target_diamondcircles.svg	12	yes	44	1	731
6.6.1	win	2022-12-15	08:28:44	08:32:22	216807	60737b97d01c3800e734921d	707036146	1	practice_z	5	advance_on_keypress_ZEE	10	stimuli_distractor_trianglediamonds.svg	stimuli_target_diamondcircles.svg	12	yes	57	0	1020
6.6.1	win	2022-12-15	08:28:44	08:32:25	220042	60737b97d01c3800e734921d	707036146	1	practice_z	5	practice_z	11	stimuli_target_squarediamonds.svg	stimuli_distractor_diamondtriangles.svg	2	yes	44	1	605
6.6.1	win	2022-12-15	08:28:44	08:32:25	220042	60737b97d01c3800e734921d	707036146	1	practice_z	5	advance_on_keypress_ZEE	12	stimuli_target_squarediamonds.svg	stimuli_distractor_diamondtriangles.svg	2	yes	57	0	657
6.6.1	win	2022-12-15	08:28:44	08:32:28	222733	60737b97d01c3800e734921d	707036146	1	practice_z	5	practice_z	13	stimuli_distractor_trianglediamonds.svg	stimuli_target_circlediamonds.svg	10	yes	44	1	409
6.6.1	win	2022-12-15	08:28:44	08:32:28	222733	60737b97d01c3800e734921d	707036146	1	practice_z	5	advance_on_keypress_ZEE	14	stimuli_distractor_trianglediamonds.svg	stimuli_target_circlediamonds.svg	10	yes	57	0	694
6.6.1	win	2022-12-15	08:28:44	08:32:30	225435	60737b97d01c3800e734921d	707036146	1	practice_z	5	practice_z	15	stimuli_target_circlediamonds.svg	stimuli_distractor_diamondtriangles.svg	1	yes	44	1	393
6.6.1	win	2022-12-15	08:28:44	08:32:30	225435	60737b97d01c3800e734921d	707036146	1	practice_z	5	advance_on_keypress_ZEE	16	stimuli_target_circlediamonds.svg	stimuli_distractor_diamondtriangles.svg	1	yes	57	0	380
6.6.1	win	2022-12-15	08:28:44	08:32:34	229435	60737b97d01c3800e734921d	707036146	1	practice_z	5	practice_z	17	stimuli_distractor_trianglediamonds.svg	stimuli_distractor_diamondtriangles.svg	16	no	0	1	2003
6.6.1	win	2022-12-15	08:28:44	08:32:34	229435	60737b97d01c3800e734921d	707036146	1	practice_z	5	advance_on_keypress_ZEE	18	stimuli_distractor_trianglediamonds.svg	stimuli_distractor_diamondtriangles.svg	16	no	57	0	541
6.6.1	win	2022-12-15	08:28:44	08:32:37	232113	60737b97d01c3800e734921d	707036146	1	practice_z	5	practice_z	19	stimuli_distractor_diamondtriangles.svg	stimuli_target_diamondcircles.svg	8	yes	44	1	526
6.6.1	win	2022-12-15	08:28:44	08:32:37	232113	60737b97d01c3800e734921d	707036146	1	practice_z	5	advance_on_keypress_ZEE	20	stimuli_distractor_diamondtriangles.svg	stimuli_target_diamondcircles.svg	8	yes	57	0	800
6.6.1	win	2022-12-15	08:28:44	08:32:40	234998	60737b97d01c3800e734921d	707036146	1	practice_z	5	practice_z	21	stimuli_target_circlediamonds.svg	stimuli_distractor_trianglediamonds.svg	4	yes	44	1	471
6.6.1	win	2022-12-15	08:28:44	08:32:40	234998	60737b97d01c3800e734921d	707036146	1	practice_z	5	advance_on_keypress_ZEE	22	stimuli_target_circlediamonds.svg	stimuli_distractor_trianglediamonds.svg	4	yes	57	0	488
6.6.1	win	2022-12-15	08:28:44	08:32:44	239101	60737b97d01c3800e734921d	707036146	1	practice_z	5	practice_z	23	stimuli_distractor_diamondtriangles.svg	stimuli_distractor_trianglediamonds.svg	14	no	0	1	2003
6.6.1	win	2022-12-15	08:28:44	08:32:44	239101	60737b97d01c3800e734921d	707036146	1	practice_z	5	advance_on_keypress_ZEE	24	stimuli_distractor_diamondtriangles.svg	stimuli_distractor_trianglediamonds.svg	14	no	57	0	349
6.6.1	win	2022-12-15	08:28:44	08:32:47	241624	60737b97d01c3800e734921d	707036146	1	practice_z	5	practice_z	25	stimuli_target_diamondsquares.svg	stimuli_distractor_diamondtriangles.svg	3	yes	44	1	557
6.6.1	win	2022-12-15	08:28:44	08:32:47	241624	60737b97d01c3800e734921d	707036146	1	practice_z	5	advance_on_keypress_ZEE	26	stimuli_target_diamondsquares.svg	stimuli_distractor_diamondtriangles.svg	3	yes	57	0	551
6.6.1	win	2022-12-15	08:28:44	08:32:49	244412	60737b97d01c3800e734921d	707036146	1	practice_z	5	practice_z	27	stimuli_distractor_trianglediamonds.svg	stimuli_target_squarediamonds.svg	11	yes	44	1	625
6.6.1	win	2022-12-15	08:28:44	08:32:49	244412	60737b97d01c3800e734921d	707036146	1	practice_z	5	advance_on_keypress_ZEE	28	stimuli_distractor_trianglediamonds.svg	stimuli_target_squarediamonds.svg	11	yes	57	0	300
6.6.1	win	2022-12-15	08:28:44	08:32:52	246855	60737b97d01c3800e734921d	707036146	1	practice_z	5	practice_z	29	stimuli_distractor_diamondtriangles.svg	stimuli_target_trianglecircles.svg	9	yes	44	1	517
6.6.1	win	2022-12-15	08:28:44	08:32:52	246855	60737b97d01c3800e734921d	707036146	1	practice_z	5	advance_on_keypress_ZEE	30	stimuli_distractor_diamondtriangles.svg	stimuli_target_trianglecircles.svg	9	yes	57	0	416
6.6.1	win	2022-12-15	08:28:44	08:32:56	250885	60737b97d01c3800e734921d	707036146	1	practice_z	5	practice_z	31	stimuli_distractor_diamondtriangles.svg	stimuli_distractor_diamondtriangles.svg	13	no	0	1	2003
6.6.1	win	2022-12-15	08:28:44	08:32:56	250885	60737b97d01c3800e734921d	707036146	1	practice_z	5	advance_on_keypress_ZEE	32	stimuli_distractor_diamondtriangles.svg	stimuli_distractor_diamondtriangles.svg	13	no	57	0	404
6.6.1	win	2022-12-15	08:28:44	08:33:07	262047	60737b97d01c3800e734921d	707036146	1	main_z	7	main_z	1	stimuli_distractor_trianglediamonds.svg	stimuli_target_squaretriangles.svg	11	yes	44	1	390
6.6.1	win	2022-12-15	08:28:44	08:33:07	262047	60737b97d01c3800e734921d	707036146	1	main_z	7	advance_on_keypress_ZEE	2	stimuli_distractor_trianglediamonds.svg	stimuli_target_squaretriangles.svg	11	yes	57	0	1104
6.6.1	win	2022-12-15	08:28:44	08:33:11	265766	60737b97d01c3800e734921d	707036146	1	main_z	7	main_z	3	stimuli_distractor_trianglediamonds.svg	stimuli_distractor_trianglediamonds.svg	33	no	0	1	2003
6.6.1	win	2022-12-15	08:28:44	08:33:11	265766	60737b97d01c3800e734921d	707036146	1	main_z	7	advance_on_keypress_ZEE	4	stimuli_distractor_trianglediamonds.svg	stimuli_distractor_trianglediamonds.svg	33	no	57	0	575
6.6.1	win	2022-12-15	08:28:44	08:33:12	267415	60737b97d01c3800e734921d	707036146	1	main_z	7	main_z	5	stimuli_target_circlediamonds.svg	stimuli_distractor_diamondtriangles.svg	6	yes	44	1	463
6.6.1	win	2022-12-15	08:28:44	08:33:12	267415	60737b97d01c3800e734921d	707036146	1	main_z	7	advance_on_keypress_ZEE	6	stimuli_target_circlediamonds.svg	stimuli_distractor_diamondtriangles.svg	6	yes	57	0	1061
6.6.1	win	2022-12-15	08:28:44	08:33:15	269674	60737b97d01c3800e734921d	707036146	1	main_z	7	main_z	7	stimuli_target_diamondcircles.svg	stimuli_distractor_trianglediamonds.svg	19	yes	44	1	589
6.6.1	win	2022-12-15	08:28:44	08:33:15	269674	60737b97d01c3800e734921d	707036146	1	main_z	7	advance_on_keypress_ZEE	8	stimuli_target_diamondcircles.svg	stimuli_distractor_trianglediamonds.svg	19	yes	57	0	935
6.6.1	win	2022-12-15	08:28:44	08:33:18	273225	60737b97d01c3800e734921d	707036146	1	main_z	7	main_z	9	stimuli_distractor_trianglediamonds.svg	stimuli_distractor_diamondtriangles.svg	36	no	0	1	2003
6.6.1	win	2022-12-15	08:28:44	08:33:18	273225	60737b97d01c3800e734921d	707036146	1	main_z	7	advance_on_keypress_ZEE	10	stimuli_distractor_trianglediamonds.svg	stimuli_distractor_diamondtriangles.svg	36	no	57	0	533
6.6.1	win	2022-12-15	08:28:44	08:33:20	274850	60737b97d01c3800e734921d	707036146	1	main_z	7	main_z	11	stimuli_target_squarediamonds.svg	stimuli_distractor_trianglediamonds.svg	4	yes	44	1	476
6.6.1	win	2022-12-15	08:28:44	08:33:20	274850	60737b97d01c3800e734921d	707036146	1	main_z	7	advance_on_keypress_ZEE	12	stimuli_target_squarediamonds.svg	stimuli_distractor_trianglediamonds.svg	4	yes	57	0	691
6.6.1	win	2022-12-15	08:28:44	08:33:22	276715	60737b97d01c3800e734921d	707036146	1	main_z	7	main_z	13	stimuli_distractor_diamondtriangles.svg	stimuli_target_trianglecircles.svg	29	yes	44	1	564
6.6.1	win	2022-12-15	08:28:44	08:33:22	276715	60737b97d01c3800e734921d	707036146	1	main_z	7	advance_on_keypress_ZEE	14	stimuli_distractor_diamondtriangles.svg	stimuli_target_trianglecircles.svg	29	yes	57	0	576
6.6.1	win	2022-12-15	08:28:44	08:33:24	278487	60737b97d01c3800e734921d	707036146	1	main_z	7	main_z	15	stimuli_target_trianglecircles.svg	stimuli_distractor_trianglediamonds.svg	17	yes	44	1	586
6.6.1	win	2022-12-15	08:28:44	08:33:24	278487	60737b97d01c3800e734921d	707036146	1	main_z	7	advance_on_keypress_ZEE	16	stimuli_target_trianglecircles.svg	stimuli_distractor_trianglediamonds.svg	17	yes	57	0	1073
6.6.1	win	2022-12-15	08:28:44	08:33:26	280707	60737b97d01c3800e734921d	707036146	1	main_z	7	main_z	17	stimuli_target_trianglecircles.svg	stimuli_distractor_diamondtriangles.svg	21	yes	44	1	534
6.6.1	win	2022-12-15	08:28:44	08:33:26	280707	60737b97d01c3800e734921d	707036146	1	main_z	7	advance_on_keypress_ZEE	18	stimuli_target_trianglecircles.svg	stimuli_distractor_diamondtriangles.svg	21	yes	57	0	702
6.6.1	win	2022-12-15	08:28:44	08:33:28	282804	60737b97d01c3800e734921d	707036146	1	main_z	7	main_z	19	stimuli_target_diamondsquares.svg	stimuli_distractor_trianglediamonds.svg	20	yes	44	1	785
6.6.1	win	2022-12-15	08:28:44	08:33:28	282804	60737b97d01c3800e734921d	707036146	1	main_z	7	advance_on_keypress_ZEE	20	stimuli_target_diamondsquares.svg	stimuli_distractor_trianglediamonds.svg	20	yes	57	0	909
6.6.1	win	2022-12-15	08:28:44	08:33:30	284964	60737b97d01c3800e734921d	707036146	1	main_z	7	main_z	21	stimuli_distractor_trianglediamonds.svg	stimuli_target_squarediamonds.svg	12	yes	44	1	641
6.6.1	win	2022-12-15	08:28:44	08:33:30	284964	60737b97d01c3800e734921d	707036146	1	main_z	7	advance_on_keypress_ZEE	22	stimuli_distractor_trianglediamonds.svg	stimuli_target_squarediamonds.svg	12	yes	57	0	627
6.6.1	win	2022-12-15	08:28:44	08:33:33	287582	60737b97d01c3800e734921d	707036146	1	main_z	7	main_z	23	stimuli_distractor_diamondtriangles.svg	stimuli_target_diamondsquares.svg	32	yes	44	1	1380
6.6.1	win	2022-12-15	08:28:44	08:33:33	287582	60737b97d01c3800e734921d	707036146	1	main_z	7	advance_on_keypress_ZEE	24	stimuli_distractor_diamondtriangles.svg	stimuli_target_diamondsquares.svg	32	yes	57	0	726
6.6.1	win	2022-12-15	08:28:44	08:33:36	290924	60737b97d01c3800e734921d	707036146	1	main_z	7	main_z	25	stimuli_distractor_diamondtriangles.svg	stimuli_distractor_diamondtriangles.svg	40	no	0	1	2003
6.6.1	win	2022-12-15	08:28:44	08:33:36	290924	60737b97d01c3800e734921d	707036146	1	main_z	7	advance_on_keypress_ZEE	26	stimuli_distractor_diamondtriangles.svg	stimuli_distractor_diamondtriangles.svg	40	no	57	0	598
6.6.1	win	2022-12-15	08:28:44	08:33:38	292605	60737b97d01c3800e734921d	707036146	1	main_z	7	main_z	27	stimuli_target_squaretriangles.svg	stimuli_distractor_diamondtriangles.svg	7	yes	44	1	473
6.6.1	win	2022-12-15	08:28:44	08:33:38	292605	60737b97d01c3800e734921d	707036146	1	main_z	7	advance_on_keypress_ZEE	28	stimuli_target_squaretriangles.svg	stimuli_distractor_diamondtriangles.svg	7	yes	57	0	695
6.6.1	win	2022-12-15	08:28:44	08:33:40	294512	60737b97d01c3800e734921d	707036146	1	main_z	7	main_z	29	stimuli_distractor_trianglediamonds.svg	stimuli_target_circletriangles.svg	9	yes	44	1	594
6.6.1	win	2022-12-15	08:28:44	08:33:40	294512	60737b97d01c3800e734921d	707036146	1	main_z	7	advance_on_keypress_ZEE	30	stimuli_distractor_trianglediamonds.svg	stimuli_target_circletriangles.svg	9	yes	57	0	798
6.6.1	win	2022-12-15	08:28:44	08:33:42	296604	60737b97d01c3800e734921d	707036146	1	main_z	7	main_z	31	stimuli_target_trianglesquares.svg	stimuli_distractor_diamondtriangles.svg	22	yes	44	1	679
6.6.1	win	2022-12-15	08:28:44	08:33:42	296604	60737b97d01c3800e734921d	707036146	1	main_z	7	advance_on_keypress_ZEE	32	stimuli_target_trianglesquares.svg	stimuli_distractor_diamondtriangles.svg	22	yes	57	0	789
6.6.1	win	2022-12-15	08:28:44	08:33:44	298722	60737b97d01c3800e734921d	707036146	1	main_z	7	main_z	33	stimuli_distractor_trianglediamonds.svg	stimuli_target_trianglecircles.svg	25	yes	44	1	717
6.6.1	win	2022-12-15	08:28:44	08:33:44	298722	60737b97d01c3800e734921d	707036146	1	main_z	7	advance_on_keypress_ZEE	34	stimuli_distractor_trianglediamonds.svg	stimuli_target_trianglecircles.svg	25	yes	57	0	893
6.6.1	win	2022-12-15	08:28:44	08:33:46	300994	60737b97d01c3800e734921d	707036146	1	main_z	7	main_z	35	stimuli_target_circletriangles.svg	stimuli_distractor_trianglediamonds.svg	1	yes	44	1	770
6.6.1	win	2022-12-15	08:28:44	08:33:46	300994	60737b97d01c3800e734921d	707036146	1	main_z	7	advance_on_keypress_ZEE	36	stimuli_target_circletriangles.svg	stimuli_distractor_trianglediamonds.svg	1	yes	57	0	725
6.6.1	win	2022-12-15	08:28:44	08:33:48	303055	60737b97d01c3800e734921d	707036146	1	main_z	7	main_z	37	stimuli_distractor_diamondtriangles.svg	stimuli_target_diamondcircles.svg	31	yes	44	1	721
6.6.1	win	2022-12-15	08:28:44	08:33:48	303055	60737b97d01c3800e734921d	707036146	1	main_z	7	advance_on_keypress_ZEE	38	stimuli_distractor_diamondtriangles.svg	stimuli_target_diamondcircles.svg	31	yes	57	0	1066
6.6.1	win	2022-12-15	08:28:44	08:33:51	305509	60737b97d01c3800e734921d	707036146	1	main_z	7	main_z	39	stimuli_distractor_trianglediamonds.svg	stimuli_target_trianglesquares.svg	26	yes	44	1	770
6.6.1	win	2022-12-15	08:28:44	08:33:51	305509	60737b97d01c3800e734921d	707036146	1	main_z	7	advance_on_keypress_ZEE	40	stimuli_distractor_trianglediamonds.svg	stimuli_target_trianglesquares.svg	26	yes	57	0	916
6.6.1	win	2022-12-15	08:28:44	08:33:53	307724	60737b97d01c3800e734921d	707036146	1	main_z	7	main_z	41	stimuli_distractor_trianglediamonds.svg	stimuli_target_diamondcircles.svg	27	yes	44	1	689
6.6.1	win	2022-12-15	08:28:44	08:33:53	307724	60737b97d01c3800e734921d	707036146	1	main_z	7	advance_on_keypress_ZEE	42	stimuli_distractor_trianglediamonds.svg	stimuli_target_diamondcircles.svg	27	yes	57	0	879
6.6.1	win	2022-12-15	08:28:44	08:33:55	309899	60737b97d01c3800e734921d	707036146	1	main_z	7	main_z	43	stimuli_target_squarediamonds.svg	stimuli_distractor_diamondtriangles.svg	8	yes	44	1	683
6.6.1	win	2022-12-15	08:28:44	08:33:55	309899	60737b97d01c3800e734921d	707036146	1	main_z	7	advance_on_keypress_ZEE	44	stimuli_target_squarediamonds.svg	stimuli_distractor_diamondtriangles.svg	8	yes	57	0	872
6.6.1	win	2022-12-15	08:28:44	08:33:58	313383	60737b97d01c3800e734921d	707036146	1	main_z	7	main_z	45	stimuli_distractor_diamondtriangles.svg	stimuli_distractor_diamondtriangles.svg	39	no	0	1	2003
6.6.1	win	2022-12-15	08:28:44	08:33:58	313383	60737b97d01c3800e734921d	707036146	1	main_z	7	advance_on_keypress_ZEE	46	stimuli_distractor_diamondtriangles.svg	stimuli_distractor_diamondtriangles.svg	39	no	57	0	511
6.6.1	win	2022-12-15	08:28:44	08:34:00	315248	60737b97d01c3800e734921d	707036146	1	main_z	7	main_z	47	stimuli_target_squaretriangles.svg	stimuli_distractor_trianglediamonds.svg	3	yes	44	1	741
6.6.1	win	2022-12-15	08:28:44	08:34:00	315248	60737b97d01c3800e734921d	707036146	1	main_z	7	advance_on_keypress_ZEE	48	stimuli_target_squaretriangles.svg	stimuli_distractor_trianglediamonds.svg	3	yes	57	0	654
6.6.1	win	2022-12-15	08:28:44	08:34:02	317181	60737b97d01c3800e734921d	707036146	1	main_z	7	main_z	49	stimuli_distractor_diamondtriangles.svg	stimuli_target_circletriangles.svg	13	yes	44	1	668
6.6.1	win	2022-12-15	08:28:44	08:34:02	317181	60737b97d01c3800e734921d	707036146	1	main_z	7	advance_on_keypress_ZEE	50	stimuli_distractor_diamondtriangles.svg	stimuli_target_circletriangles.svg	13	yes	57	0	513
6.6.1	win	2022-12-15	08:28:44	08:34:04	319218	60737b97d01c3800e734921d	707036146	1	main_z	7	main_z	51	stimuli_distractor_trianglediamonds.svg	stimuli_target_diamondsquares.svg	28	yes	44	1	915
6.6.1	win	2022-12-15	08:28:44	08:34:04	319218	60737b97d01c3800e734921d	707036146	1	main_z	7	advance_on_keypress_ZEE	52	stimuli_distractor_trianglediamonds.svg	stimuli_target_diamondsquares.svg	28	yes	57	0	606
6.6.1	win	2022-12-15	08:28:44	08:34:06	321304	60737b97d01c3800e734921d	707036146	1	main_z	7	main_z	53	stimuli_target_circlediamonds.svg	stimuli_distractor_trianglediamonds.svg	2	yes	44	1	867
6.6.1	win	2022-12-15	08:28:44	08:34:06	321304	60737b97d01c3800e734921d	707036146	1	main_z	7	advance_on_keypress_ZEE	54	stimuli_target_circlediamonds.svg	stimuli_distractor_trianglediamonds.svg	2	yes	57	0	618
6.6.1	win	2022-12-15	08:28:44	08:34:10	324535	60737b97d01c3800e734921d	707036146	1	main_z	7	main_z	55	stimuli_distractor_diamondtriangles.svg	stimuli_distractor_trianglediamonds.svg	38	no	0	1	2003
6.6.1	win	2022-12-15	08:28:44	08:34:10	324535	60737b97d01c3800e734921d	707036146	1	main_z	7	advance_on_keypress_ZEE	56	stimuli_distractor_diamondtriangles.svg	stimuli_distractor_trianglediamonds.svg	38	no	57	0	538
6.6.1	win	2022-12-15	08:28:44	08:34:11	326242	60737b97d01c3800e734921d	707036146	1	main_z	7	main_z	57	stimuli_target_diamondcircles.svg	stimuli_distractor_diamondtriangles.svg	23	yes	44	1	553
6.6.1	win	2022-12-15	08:28:44	08:34:11	326242	60737b97d01c3800e734921d	707036146	1	main_z	7	advance_on_keypress_ZEE	58	stimuli_target_diamondcircles.svg	stimuli_distractor_diamondtriangles.svg	23	yes	57	0	605
6.6.1	win	2022-12-15	08:28:44	08:34:13	328054	60737b97d01c3800e734921d	707036146	1	main_z	7	main_z	59	stimuli_distractor_trianglediamonds.svg	stimuli_target_circlediamonds.svg	10	yes	44	1	594
6.6.1	win	2022-12-15	08:28:44	08:34:13	328054	60737b97d01c3800e734921d	707036146	1	main_z	7	advance_on_keypress_ZEE	60	stimuli_distractor_trianglediamonds.svg	stimuli_target_circlediamonds.svg	10	yes	57	0	550
6.6.1	win	2022-12-15	08:28:44	08:34:15	330057	60737b97d01c3800e734921d	707036146	1	main_z	7	main_z	61	stimuli_distractor_diamondtriangles.svg	stimuli_target_squarediamonds.svg	16	yes	44	1	843
6.6.1	win	2022-12-15	08:28:44	08:34:15	330057	60737b97d01c3800e734921d	707036146	1	main_z	7	advance_on_keypress_ZEE	62	stimuli_distractor_diamondtriangles.svg	stimuli_target_squarediamonds.svg	16	yes	57	0	660
6.6.1	win	2022-12-15	08:28:44	08:34:17	331961	60737b97d01c3800e734921d	707036146	1	main_z	7	main_z	63	stimuli_target_circletriangles.svg	stimuli_distractor_diamondtriangles.svg	5	yes	44	1	634
6.6.1	win	2022-12-15	08:28:44	08:34:17	331961	60737b97d01c3800e734921d	707036146	1	main_z	7	advance_on_keypress_ZEE	64	stimuli_target_circletriangles.svg	stimuli_distractor_diamondtriangles.svg	5	yes	57	0	508
6.6.1	win	2022-12-15	08:28:44	08:34:19	333670	60737b97d01c3800e734921d	707036146	1	main_z	7	main_z	65	stimuli_target_diamondsquares.svg	stimuli_distractor_diamondtriangles.svg	24	yes	44	1	591
6.6.1	win	2022-12-15	08:28:44	08:34:19	333670	60737b97d01c3800e734921d	707036146	1	main_z	7	advance_on_keypress_ZEE	66	stimuli_target_diamondsquares.svg	stimuli_distractor_diamondtriangles.svg	24	yes	57	0	822
6.6.1	win	2022-12-15	08:28:44	08:34:21	335694	60737b97d01c3800e734921d	707036146	1	main_z	7	main_z	67	stimuli_distractor_diamondtriangles.svg	stimuli_target_trianglesquares.svg	30	yes	44	1	591
6.6.1	win	2022-12-15	08:28:44	08:34:21	335694	60737b97d01c3800e734921d	707036146	1	main_z	7	advance_on_keypress_ZEE	68	stimuli_distractor_diamondtriangles.svg	stimuli_target_trianglesquares.svg	30	yes	57	0	694
6.6.1	win	2022-12-15	08:28:44	08:34:24	339005	60737b97d01c3800e734921d	707036146	1	main_z	7	main_z	69	stimuli_distractor_trianglediamonds.svg	stimuli_distractor_trianglediamonds.svg	34	no	0	1	2003
6.6.1	win	2022-12-15	08:28:44	08:34:24	339005	60737b97d01c3800e734921d	707036146	1	main_z	7	advance_on_keypress_ZEE	70	stimuli_distractor_trianglediamonds.svg	stimuli_distractor_trianglediamonds.svg	34	no	57	0	535
6.6.1	win	2022-12-15	08:28:44	08:34:26	340694	60737b97d01c3800e734921d	707036146	1	main_z	7	main_z	71	stimuli_distractor_diamondtriangles.svg	stimuli_target_circlediamonds.svg	14	yes	44	1	540
6.6.1	win	2022-12-15	08:28:44	08:34:26	340694	60737b97d01c3800e734921d	707036146	1	main_z	7	advance_on_keypress_ZEE	72	stimuli_distractor_diamondtriangles.svg	stimuli_target_circlediamonds.svg	14	yes	57	0	644
6.6.1	win	2022-12-15	08:28:44	08:34:29	343955	60737b97d01c3800e734921d	707036146	1	main_z	7	main_z	73	stimuli_distractor_trianglediamonds.svg	stimuli_distractor_diamondtriangles.svg	35	no	0	1	2003
6.6.1	win	2022-12-15	08:28:44	08:34:29	343955	60737b97d01c3800e734921d	707036146	1	main_z	7	advance_on_keypress_ZEE	74	stimuli_distractor_trianglediamonds.svg	stimuli_distractor_diamondtriangles.svg	35	no	57	0	357
6.6.1	win	2022-12-15	08:28:44	08:34:30	345385	60737b97d01c3800e734921d	707036146	1	main_z	7	main_z	75	stimuli_target_trianglesquares.svg	stimuli_distractor_trianglediamonds.svg	18	yes	44	1	460
6.6.1	win	2022-12-15	08:28:44	08:34:30	345385	60737b97d01c3800e734921d	707036146	1	main_z	7	advance_on_keypress_ZEE	76	stimuli_target_trianglesquares.svg	stimuli_distractor_trianglediamonds.svg	18	yes	57	0	593
6.6.1	win	2022-12-15	08:28:44	08:34:34	348592	60737b97d01c3800e734921d	707036146	1	main_z	7	main_z	77	stimuli_distractor_diamondtriangles.svg	stimuli_distractor_trianglediamonds.svg	37	no	0	1	2003
6.6.1	win	2022-12-15	08:28:44	08:34:34	348592	60737b97d01c3800e734921d	707036146	1	main_z	7	advance_on_keypress_ZEE	78	stimuli_distractor_diamondtriangles.svg	stimuli_distractor_trianglediamonds.svg	37	no	57	0	532
6.6.1	win	2022-12-15	08:28:44	08:34:35	350307	60737b97d01c3800e734921d	707036146	1	main_z	7	main_z	79	stimuli_distractor_diamondtriangles.svg	stimuli_target_squaretriangles.svg	15	yes	44	1	574
6.6.1	win	2022-12-15	08:28:44	08:34:35	350307	60737b97d01c3800e734921d	707036146	1	main_z	7	advance_on_keypress_ZEE	80	stimuli_distractor_diamondtriangles.svg	stimuli_target_squaretriangles.svg	15	yes	57	0	722
6.6.1	win	2022-12-15	08:28:44	08:34:38	352595	60737b97d01c3800e734921d	707036146	1	main_z	7	main_z	81	stimuli_distractor_diamondtriangles.svg	stimuli_target_diamondsquares.svg	32	yes	44	1	950
6.6.1	win	2022-12-15	08:28:44	08:34:38	352595	60737b97d01c3800e734921d	707036146	1	main_z	7	advance_on_keypress_ZEE	82	stimuli_distractor_diamondtriangles.svg	stimuli_target_diamondsquares.svg	32	yes	57	0	678
6.6.1	win	2022-12-15	08:28:44	08:34:40	354669	60737b97d01c3800e734921d	707036146	1	main_z	7	main_z	83	stimuli_distractor_trianglediamonds.svg	stimuli_target_diamondcircles.svg	27	yes	44	1	779
6.6.1	win	2022-12-15	08:28:44	08:34:40	354669	60737b97d01c3800e734921d	707036146	1	main_z	7	advance_on_keypress_ZEE	84	stimuli_distractor_trianglediamonds.svg	stimuli_target_diamondcircles.svg	27	yes	57	0	572
6.6.1	win	2022-12-15	08:28:44	08:34:42	356748	60737b97d01c3800e734921d	707036146	1	main_z	7	main_z	85	stimuli_distractor_diamondtriangles.svg	stimuli_target_trianglecircles.svg	29	yes	44	1	895
6.6.1	win	2022-12-15	08:28:44	08:34:42	356748	60737b97d01c3800e734921d	707036146	1	main_z	7	advance_on_keypress_ZEE	86	stimuli_distractor_diamondtriangles.svg	stimuli_target_trianglecircles.svg	29	yes	57	0	555
6.6.1	win	2022-12-15	08:28:44	08:34:44	358712	60737b97d01c3800e734921d	707036146	1	main_z	7	main_z	87	stimuli_target_diamondcircles.svg	stimuli_distractor_trianglediamonds.svg	19	yes	44	1	793
6.6.1	win	2022-12-15	08:28:44	08:34:44	358712	60737b97d01c3800e734921d	707036146	1	main_z	7	advance_on_keypress_ZEE	88	stimuli_target_diamondcircles.svg	stimuli_distractor_trianglediamonds.svg	19	yes	57	0	603
6.6.1	win	2022-12-15	08:28:44	08:34:47	361932	60737b97d01c3800e734921d	707036146	1	main_z	7	main_z	89	stimuli_distractor_trianglediamonds.svg	stimuli_distractor_diamondtriangles.svg	36	no	0	1	2003
6.6.1	win	2022-12-15	08:28:44	08:34:47	361932	60737b97d01c3800e734921d	707036146	1	main_z	7	advance_on_keypress_ZEE	90	stimuli_distractor_trianglediamonds.svg	stimuli_distractor_diamondtriangles.svg	36	no	57	0	495
6.6.1	win	2022-12-15	08:28:44	08:34:50	365040	60737b97d01c3800e734921d	707036146	1	main_z	7	main_z	91	stimuli_distractor_trianglediamonds.svg	stimuli_distractor_trianglediamonds.svg	33	no	0	1	2003
6.6.1	win	2022-12-15	08:28:44	08:34:50	365040	60737b97d01c3800e734921d	707036146	1	main_z	7	advance_on_keypress_ZEE	92	stimuli_distractor_trianglediamonds.svg	stimuli_distractor_trianglediamonds.svg	33	no	57	0	398
6.6.1	win	2022-12-15	08:28:44	08:34:52	366728	60737b97d01c3800e734921d	707036146	1	main_z	7	main_z	93	stimuli_target_squaretriangles.svg	stimuli_distractor_diamondtriangles.svg	7	yes	44	1	681
6.6.1	win	2022-12-15	08:28:44	08:34:52	366728	60737b97d01c3800e734921d	707036146	1	main_z	7	advance_on_keypress_ZEE	94	stimuli_target_squaretriangles.svg	stimuli_distractor_diamondtriangles.svg	7	yes	57	0	502
6.6.1	win	2022-12-15	08:28:44	08:34:54	368574	60737b97d01c3800e734921d	707036146	1	main_z	7	main_z	95	stimuli_target_circletriangles.svg	stimuli_distractor_trianglediamonds.svg	1	yes	44	1	731
6.6.1	win	2022-12-15	08:28:44	08:34:54	368574	60737b97d01c3800e734921d	707036146	1	main_z	7	advance_on_keypress_ZEE	96	stimuli_target_circletriangles.svg	stimuli_distractor_trianglediamonds.svg	1	yes	57	0	420
6.6.1	win	2022-12-15	08:28:44	08:34:56	370620	60737b97d01c3800e734921d	707036146	1	main_z	7	main_z	97	stimuli_distractor_trianglediamonds.svg	stimuli_target_diamondsquares.svg	28	yes	44	1	1010
6.6.1	win	2022-12-15	08:28:44	08:34:56	370620	60737b97d01c3800e734921d	707036146	1	main_z	7	advance_on_keypress_ZEE	98	stimuli_distractor_trianglediamonds.svg	stimuli_target_diamondsquares.svg	28	yes	57	0	515
6.6.1	win	2022-12-15	08:28:44	08:34:58	372583	60737b97d01c3800e734921d	707036146	1	main_z	7	main_z	99	stimuli_distractor_diamondtriangles.svg	stimuli_target_circlediamonds.svg	14	yes	44	1	834
6.6.1	win	2022-12-15	08:28:44	08:34:58	372583	60737b97d01c3800e734921d	707036146	1	main_z	7	advance_on_keypress_ZEE	100	stimuli_distractor_diamondtriangles.svg	stimuli_target_circlediamonds.svg	14	yes	57	0	401
6.6.1	win	2022-12-15	08:28:44	08:35:01	375597	60737b97d01c3800e734921d	707036146	1	main_z	7	main_z	101	stimuli_distractor_diamondtriangles.svg	stimuli_distractor_trianglediamonds.svg	38	no	0	1	2003
6.6.1	win	2022-12-15	08:28:44	08:35:01	375597	60737b97d01c3800e734921d	707036146	1	main_z	7	advance_on_keypress_ZEE	102	stimuli_distractor_diamondtriangles.svg	stimuli_distractor_trianglediamonds.svg	38	no	57	0	462
6.6.1	win	2022-12-15	08:28:44	08:35:02	377327	60737b97d01c3800e734921d	707036146	1	main_z	7	main_z	103	stimuli_target_trianglecircles.svg	stimuli_distractor_diamondtriangles.svg	21	yes	44	1	657
6.6.1	win	2022-12-15	08:28:44	08:35:02	377327	60737b97d01c3800e734921d	707036146	1	main_z	7	advance_on_keypress_ZEE	104	stimuli_target_trianglecircles.svg	stimuli_distractor_diamondtriangles.svg	21	yes	57	0	521
6.6.1	win	2022-12-15	08:28:44	08:35:04	378950	60737b97d01c3800e734921d	707036146	1	main_z	7	main_z	105	stimuli_distractor_trianglediamonds.svg	stimuli_target_squarediamonds.svg	12	yes	44	1	488
6.6.1	win	2022-12-15	08:28:44	08:35:04	378950	60737b97d01c3800e734921d	707036146	1	main_z	7	advance_on_keypress_ZEE	106	stimuli_distractor_trianglediamonds.svg	stimuli_target_squarediamonds.svg	12	yes	57	0	466
6.6.1	win	2022-12-15	08:28:44	08:35:06	380749	60737b97d01c3800e734921d	707036146	1	main_z	7	main_z	107	stimuli_distractor_trianglediamonds.svg	stimuli_target_trianglesquares.svg	26	yes	44	1	718
6.6.1	win	2022-12-15	08:28:44	08:35:06	380749	60737b97d01c3800e734921d	707036146	1	main_z	7	advance_on_keypress_ZEE	108	stimuli_distractor_trianglediamonds.svg	stimuli_target_trianglesquares.svg	26	yes	57	0	370
6.6.1	win	2022-12-15	08:28:44	08:35:08	382571	60737b97d01c3800e734921d	707036146	1	main_z	7	main_z	109	stimuli_distractor_trianglediamonds.svg	stimuli_target_squaretriangles.svg	11	yes	44	1	844
6.6.1	win	2022-12-15	08:28:44	08:35:08	382571	60737b97d01c3800e734921d	707036146	1	main_z	7	advance_on_keypress_ZEE	110	stimuli_distractor_trianglediamonds.svg	stimuli_target_squaretriangles.svg	11	yes	57	0	398
6.6.1	win	2022-12-15	08:28:44	08:35:09	384266	60737b97d01c3800e734921d	707036146	1	main_z	7	main_z	111	stimuli_target_diamondcircles.svg	stimuli_distractor_diamondtriangles.svg	23	yes	44	1	684
6.6.1	win	2022-12-15	08:28:44	08:35:09	384266	60737b97d01c3800e734921d	707036146	1	main_z	7	advance_on_keypress_ZEE	112	stimuli_target_diamondcircles.svg	stimuli_distractor_diamondtriangles.svg	23	yes	57	0	410
6.6.1	win	2022-12-15	08:28:44	08:35:11	386025	60737b97d01c3800e734921d	707036146	1	main_z	7	main_z	113	stimuli_target_squarediamonds.svg	stimuli_distractor_diamondtriangles.svg	8	yes	44	1	735
6.6.1	win	2022-12-15	08:28:44	08:35:11	386025	60737b97d01c3800e734921d	707036146	1	main_z	7	advance_on_keypress_ZEE	114	stimuli_target_squarediamonds.svg	stimuli_distractor_diamondtriangles.svg	8	yes	57	0	444
6.6.1	win	2022-12-15	08:28:44	08:35:13	387793	60737b97d01c3800e734921d	707036146	1	main_z	7	main_z	115	stimuli_distractor_diamondtriangles.svg	stimuli_target_squaretriangles.svg	15	yes	44	1	709
6.6.1	win	2022-12-15	08:28:44	08:35:13	387793	60737b97d01c3800e734921d	707036146	1	main_z	7	advance_on_keypress_ZEE	116	stimuli_distractor_diamondtriangles.svg	stimuli_target_squaretriangles.svg	15	yes	57	0	444
6.6.1	win	2022-12-15	08:28:44	08:35:15	389521	60737b97d01c3800e734921d	707036146	1	main_z	7	main_z	117	stimuli_target_circletriangles.svg	stimuli_distractor_diamondtriangles.svg	5	yes	44	1	673
6.6.1	win	2022-12-15	08:28:44	08:35:15	389521	60737b97d01c3800e734921d	707036146	1	main_z	7	advance_on_keypress_ZEE	118	stimuli_target_circletriangles.svg	stimuli_distractor_diamondtriangles.svg	5	yes	57	0	470
6.6.1	win	2022-12-15	08:28:44	08:35:16	391351	60737b97d01c3800e734921d	707036146	1	main_z	7	main_z	119	stimuli_target_trianglecircles.svg	stimuli_distractor_trianglediamonds.svg	17	yes	44	1	742
6.6.1	win	2022-12-15	08:28:44	08:35:16	391351	60737b97d01c3800e734921d	707036146	1	main_z	7	advance_on_keypress_ZEE	120	stimuli_target_trianglecircles.svg	stimuli_distractor_trianglediamonds.svg	17	yes	57	0	604
6.6.1	win	2022-12-15	08:28:44	08:35:18	393183	60737b97d01c3800e734921d	707036146	1	main_z	7	main_z	121	stimuli_target_trianglesquares.svg	stimuli_distractor_diamondtriangles.svg	22	yes	44	1	613
6.6.1	win	2022-12-15	08:28:44	08:35:18	393183	60737b97d01c3800e734921d	707036146	1	main_z	7	advance_on_keypress_ZEE	122	stimuli_target_trianglesquares.svg	stimuli_distractor_diamondtriangles.svg	22	yes	57	0	437
6.6.1	win	2022-12-15	08:28:44	08:35:20	394969	60737b97d01c3800e734921d	707036146	1	main_z	7	main_z	123	stimuli_distractor_diamondtriangles.svg	stimuli_target_circletriangles.svg	13	yes	44	1	733
6.6.1	win	2022-12-15	08:28:44	08:35:20	394969	60737b97d01c3800e734921d	707036146	1	main_z	7	advance_on_keypress_ZEE	124	stimuli_distractor_diamondtriangles.svg	stimuli_target_circletriangles.svg	13	yes	57	0	411
6.6.1	win	2022-12-15	08:28:44	08:35:22	396647	60737b97d01c3800e734921d	707036146	1	main_z	7	main_z	125	stimuli_target_circlediamonds.svg	stimuli_distractor_trianglediamonds.svg	2	yes	44	1	649
6.6.1	win	2022-12-15	08:28:44	08:35:22	396647	60737b97d01c3800e734921d	707036146	1	main_z	7	advance_on_keypress_ZEE	126	stimuli_target_circlediamonds.svg	stimuli_distractor_trianglediamonds.svg	2	yes	57	0	520
6.6.1	win	2022-12-15	08:28:44	08:35:24	398653	60737b97d01c3800e734921d	707036146	1	main_z	7	main_z	127	stimuli_target_squaretriangles.svg	stimuli_distractor_trianglediamonds.svg	3	yes	44	1	874
6.6.1	win	2022-12-15	08:28:44	08:35:24	398653	60737b97d01c3800e734921d	707036146	1	main_z	7	advance_on_keypress_ZEE	128	stimuli_target_squaretriangles.svg	stimuli_distractor_trianglediamonds.svg	3	yes	57	0	560
6.6.1	win	2022-12-15	08:28:44	08:35:26	400713	60737b97d01c3800e734921d	707036146	1	main_z	7	main_z	129	stimuli_distractor_diamondtriangles.svg	stimuli_target_squarediamonds.svg	16	yes	44	1	887
6.6.1	win	2022-12-15	08:28:44	08:35:26	400713	60737b97d01c3800e734921d	707036146	1	main_z	7	advance_on_keypress_ZEE	130	stimuli_distractor_diamondtriangles.svg	stimuli_target_squarediamonds.svg	16	yes	57	0	539
6.6.1	win	2022-12-15	08:28:44	08:35:28	402517	60737b97d01c3800e734921d	707036146	1	main_z	7	main_z	131	stimuli_target_squarediamonds.svg	stimuli_distractor_trianglediamonds.svg	4	yes	44	1	655
6.6.1	win	2022-12-15	08:28:44	08:35:28	402517	60737b97d01c3800e734921d	707036146	1	main_z	7	advance_on_keypress_ZEE	132	stimuli_target_squarediamonds.svg	stimuli_distractor_trianglediamonds.svg	4	yes	57	0	492
6.6.1	win	2022-12-15	08:28:44	08:35:29	404376	60737b97d01c3800e734921d	707036146	1	main_z	7	main_z	133	stimuli_target_circlediamonds.svg	stimuli_distractor_diamondtriangles.svg	6	yes	44	1	757
6.6.1	win	2022-12-15	08:28:44	08:35:29	404376	60737b97d01c3800e734921d	707036146	1	main_z	7	advance_on_keypress_ZEE	134	stimuli_target_circlediamonds.svg	stimuli_distractor_diamondtriangles.svg	6	yes	57	0	667
6.6.1	win	2022-12-15	08:28:44	08:35:31	406403	60737b97d01c3800e734921d	707036146	1	main_z	7	main_z	135	stimuli_target_trianglesquares.svg	stimuli_distractor_trianglediamonds.svg	18	yes	44	1	748
6.6.1	win	2022-12-15	08:28:44	08:35:31	406403	60737b97d01c3800e734921d	707036146	1	main_z	7	advance_on_keypress_ZEE	136	stimuli_target_trianglesquares.svg	stimuli_distractor_trianglediamonds.svg	18	yes	57	0	483
6.6.1	win	2022-12-15	08:28:44	08:35:33	408410	60737b97d01c3800e734921d	707036146	1	main_z	7	main_z	137	stimuli_target_diamondsquares.svg	stimuli_distractor_trianglediamonds.svg	20	yes	44	1	903
6.6.1	win	2022-12-15	08:28:44	08:35:33	408410	60737b97d01c3800e734921d	707036146	1	main_z	7	advance_on_keypress_ZEE	138	stimuli_target_diamondsquares.svg	stimuli_distractor_trianglediamonds.svg	20	yes	57	0	460
6.6.1	win	2022-12-15	08:28:44	08:35:37	411485	60737b97d01c3800e734921d	707036146	1	main_z	7	main_z	139	stimuli_distractor_trianglediamonds.svg	stimuli_distractor_diamondtriangles.svg	35	no	0	1	2003
6.6.1	win	2022-12-15	08:28:44	08:35:37	411485	60737b97d01c3800e734921d	707036146	1	main_z	7	advance_on_keypress_ZEE	140	stimuli_distractor_trianglediamonds.svg	stimuli_distractor_diamondtriangles.svg	35	no	57	0	992
6.6.1	win	2022-12-15	08:28:44	08:35:39	413625	60737b97d01c3800e734921d	707036146	1	main_z	7	main_z	141	stimuli_distractor_diamondtriangles.svg	stimuli_target_diamondcircles.svg	31	yes	44	1	536
6.6.1	win	2022-12-15	08:28:44	08:35:39	413625	60737b97d01c3800e734921d	707036146	1	main_z	7	advance_on_keypress_ZEE	142	stimuli_distractor_diamondtriangles.svg	stimuli_target_diamondcircles.svg	31	yes	57	0	440
6.6.1	win	2022-12-15	08:28:44	08:35:42	416682	60737b97d01c3800e734921d	707036146	1	main_z	7	main_z	143	stimuli_distractor_trianglediamonds.svg	stimuli_distractor_trianglediamonds.svg	34	no	0	1	2003
6.6.1	win	2022-12-15	08:28:44	08:35:42	416682	60737b97d01c3800e734921d	707036146	1	main_z	7	advance_on_keypress_ZEE	144	stimuli_distractor_trianglediamonds.svg	stimuli_distractor_trianglediamonds.svg	34	no	57	0	338
6.6.1	win	2022-12-15	08:28:44	08:35:43	418319	60737b97d01c3800e734921d	707036146	1	main_z	7	main_z	145	stimuli_distractor_diamondtriangles.svg	stimuli_target_trianglesquares.svg	30	yes	44	1	684
6.6.1	win	2022-12-15	08:28:44	08:35:43	418319	60737b97d01c3800e734921d	707036146	1	main_z	7	advance_on_keypress_ZEE	146	stimuli_distractor_diamondtriangles.svg	stimuli_target_trianglesquares.svg	30	yes	57	0	443
6.6.1	win	2022-12-15	08:28:44	08:35:45	419992	60737b97d01c3800e734921d	707036146	1	main_z	7	main_z	147	stimuli_distractor_trianglediamonds.svg	stimuli_target_circletriangles.svg	9	yes	44	1	619
6.6.1	win	2022-12-15	08:28:44	08:35:45	419992	60737b97d01c3800e734921d	707036146	1	main_z	7	advance_on_keypress_ZEE	148	stimuli_distractor_trianglediamonds.svg	stimuli_target_circletriangles.svg	9	yes	57	0	387
6.6.1	win	2022-12-15	08:28:44	08:35:48	422993	60737b97d01c3800e734921d	707036146	1	main_z	7	main_z	149	stimuli_distractor_diamondtriangles.svg	stimuli_distractor_trianglediamonds.svg	37	no	0	1	2003
6.6.1	win	2022-12-15	08:28:44	08:35:48	422993	60737b97d01c3800e734921d	707036146	1	main_z	7	advance_on_keypress_ZEE	150	stimuli_distractor_diamondtriangles.svg	stimuli_distractor_trianglediamonds.svg	37	no	57	0	394
6.6.1	win	2022-12-15	08:28:44	08:35:49	424406	60737b97d01c3800e734921d	707036146	1	main_z	7	main_z	151	stimuli_distractor_trianglediamonds.svg	stimuli_target_circlediamonds.svg	10	yes	44	1	408
6.6.1	win	2022-12-15	08:28:44	08:35:49	424406	60737b97d01c3800e734921d	707036146	1	main_z	7	advance_on_keypress_ZEE	152	stimuli_distractor_trianglediamonds.svg	stimuli_target_circlediamonds.svg	10	yes	57	0	421
6.6.1	win	2022-12-15	08:28:44	08:35:51	425943	60737b97d01c3800e734921d	707036146	1	main_z	7	main_z	153	stimuli_distractor_trianglediamonds.svg	stimuli_target_trianglecircles.svg	25	yes	44	1	503
6.6.1	win	2022-12-15	08:28:44	08:35:51	425943	60737b97d01c3800e734921d	707036146	1	main_z	7	advance_on_keypress_ZEE	154	stimuli_distractor_trianglediamonds.svg	stimuli_target_trianglecircles.svg	25	yes	57	0	382
6.6.1	win	2022-12-15	08:28:44	08:35:54	428940	60737b97d01c3800e734921d	707036146	1	main_z	7	main_z	155	stimuli_distractor_diamondtriangles.svg	stimuli_distractor_diamondtriangles.svg	40	no	0	1	2003
6.6.1	win	2022-12-15	08:28:44	08:35:54	428940	60737b97d01c3800e734921d	707036146	1	main_z	7	advance_on_keypress_ZEE	156	stimuli_distractor_diamondtriangles.svg	stimuli_distractor_diamondtriangles.svg	40	no	57	0	371
6.6.1	win	2022-12-15	08:28:44	08:35:57	431927	60737b97d01c3800e734921d	707036146	1	main_z	7	main_z	157	stimuli_distractor_diamondtriangles.svg	stimuli_distractor_diamondtriangles.svg	39	no	0	1	2003
6.6.1	win	2022-12-15	08:28:44	08:35:57	431927	60737b97d01c3800e734921d	707036146	1	main_z	7	advance_on_keypress_ZEE	158	stimuli_distractor_diamondtriangles.svg	stimuli_distractor_diamondtriangles.svg	39	no	57	0	379
6.6.1	win	2022-12-15	08:28:44	08:35:59	433490	60737b97d01c3800e734921d	707036146	1	main_z	7	main_z	159	stimuli_target_diamondsquares.svg	stimuli_distractor_diamondtriangles.svg	24	yes	44	1	572
6.6.1	win	2022-12-15	08:28:44	08:35:59	433490	60737b97d01c3800e734921d	707036146	1	main_z	7	advance_on_keypress_ZEE	160	stimuli_target_diamondsquares.svg	stimuli_distractor_diamondtriangles.svg	24	yes	57	0	382
6.6.1	win	2022-12-15	08:28:44	08:36:23	458435	60737b97d01c3800e734921d	707036146	1	practice_slash	9	practice_slash	1	stimuli_distractor_trianglediamonds.svg	stimuli_target_circlediamonds.svg	10	yes	53	1	408
6.6.1	win	2022-12-15	08:28:44	08:36:23	458435	60737b97d01c3800e734921d	707036146	1	practice_slash	9	advance_on_keypress_SLASH	2	stimuli_distractor_trianglediamonds.svg	stimuli_target_circlediamonds.svg	10	yes	57	0	903
6.6.1	win	2022-12-15	08:28:44	08:36:28	462972	60737b97d01c3800e734921d	707036146	1	practice_slash	9	practice_slash	3	stimuli_distractor_diamondtriangles.svg	stimuli_distractor_trianglediamonds.svg	14	no	0	1	2003
6.6.1	win	2022-12-15	08:28:44	08:36:28	462972	60737b97d01c3800e734921d	707036146	1	practice_slash	9	advance_on_keypress_SLASH	4	stimuli_distractor_diamondtriangles.svg	stimuli_distractor_trianglediamonds.svg	14	no	57	0	332
6.6.1	win	2022-12-15	08:28:44	08:36:30	465400	60737b97d01c3800e734921d	707036146	1	practice_slash	9	practice_slash	5	stimuli_target_squarediamonds.svg	stimuli_distractor_diamondtriangles.svg	2	yes	53	1	485
6.6.1	win	2022-12-15	08:28:44	08:36:30	465400	60737b97d01c3800e734921d	707036146	1	practice_slash	9	advance_on_keypress_SLASH	6	stimuli_target_squarediamonds.svg	stimuli_distractor_diamondtriangles.svg	2	yes	57	0	465
6.6.1	win	2022-12-15	08:28:44	08:36:35	469479	60737b97d01c3800e734921d	707036146	1	practice_slash	9	practice_slash	7	stimuli_distractor_trianglediamonds.svg	stimuli_distractor_diamondtriangles.svg	16	no	0	1	2003
6.6.1	win	2022-12-15	08:28:44	08:36:35	469479	60737b97d01c3800e734921d	707036146	1	practice_slash	9	advance_on_keypress_SLASH	8	stimuli_distractor_trianglediamonds.svg	stimuli_distractor_diamondtriangles.svg	16	no	57	0	608
6.6.1	win	2022-12-15	08:28:44	08:36:37	472301	60737b97d01c3800e734921d	707036146	1	practice_slash	9	practice_slash	9	stimuli_distractor_trianglediamonds.svg	stimuli_target_squarediamonds.svg	11	yes	53	1	602
6.6.1	win	2022-12-15	08:28:44	08:36:37	472301	60737b97d01c3800e734921d	707036146	1	practice_slash	9	advance_on_keypress_SLASH	10	stimuli_distractor_trianglediamonds.svg	stimuli_target_squarediamonds.svg	11	yes	57	0	352
6.6.1	win	2022-12-15	08:28:44	08:36:41	476270	60737b97d01c3800e734921d	707036146	1	practice_slash	9	practice_slash	11	stimuli_distractor_diamondtriangles.svg	stimuli_distractor_diamondtriangles.svg	13	no	0	1	2003
6.6.1	win	2022-12-15	08:28:44	08:36:41	476270	60737b97d01c3800e734921d	707036146	1	practice_slash	9	advance_on_keypress_SLASH	12	stimuli_distractor_diamondtriangles.svg	stimuli_distractor_diamondtriangles.svg	13	no	57	0	751
6.6.1	win	2022-12-15	08:28:44	08:36:44	479267	60737b97d01c3800e734921d	707036146	1	practice_slash	9	practice_slash	13	stimuli_target_diamondsquares.svg	stimuli_distractor_trianglediamonds.svg	6	yes	53	1	637
6.6.1	win	2022-12-15	08:28:44	08:36:44	479267	60737b97d01c3800e734921d	707036146	1	practice_slash	9	advance_on_keypress_SLASH	14	stimuli_target_diamondsquares.svg	stimuli_distractor_trianglediamonds.svg	6	yes	57	0	491
6.6.1	win	2022-12-15	08:28:44	08:36:47	481880	60737b97d01c3800e734921d	707036146	1	practice_slash	9	practice_slash	15	stimuli_distractor_diamondtriangles.svg	stimuli_target_trianglecircles.svg	9	yes	53	1	510
6.6.1	win	2022-12-15	08:28:44	08:36:47	481880	60737b97d01c3800e734921d	707036146	1	practice_slash	9	advance_on_keypress_SLASH	16	stimuli_distractor_diamondtriangles.svg	stimuli_target_trianglecircles.svg	9	yes	57	0	460
6.6.1	win	2022-12-15	08:28:44	08:36:49	484321	60737b97d01c3800e734921d	707036146	1	practice_slash	9	practice_slash	17	stimuli_distractor_diamondtriangles.svg	stimuli_target_circletriangles.svg	7	yes	53	1	369
6.6.1	win	2022-12-15	08:28:44	08:36:49	484321	60737b97d01c3800e734921d	707036146	1	practice_slash	9	advance_on_keypress_SLASH	18	stimuli_distractor_diamondtriangles.svg	stimuli_target_circletriangles.svg	7	yes	57	0	277
6.6.1	win	2022-12-15	08:28:44	08:36:52	486525	60737b97d01c3800e734921d	707036146	1	practice_slash	9	practice_slash	19	stimuli_target_circlediamonds.svg	stimuli_distractor_trianglediamonds.svg	4	yes	53	1	314
6.6.1	win	2022-12-15	08:28:44	08:36:52	486525	60737b97d01c3800e734921d	707036146	1	practice_slash	9	advance_on_keypress_SLASH	20	stimuli_target_circlediamonds.svg	stimuli_distractor_trianglediamonds.svg	4	yes	57	0	426
6.6.1	win	2022-12-15	08:28:44	08:36:54	488842	60737b97d01c3800e734921d	707036146	1	practice_slash	9	practice_slash	21	stimuli_target_squarediamonds.svg	stimuli_distractor_trianglediamonds.svg	5	yes	53	1	277
6.6.1	win	2022-12-15	08:28:44	08:36:54	488842	60737b97d01c3800e734921d	707036146	1	practice_slash	9	advance_on_keypress_SLASH	22	stimuli_target_squarediamonds.svg	stimuli_distractor_trianglediamonds.svg	5	yes	57	0	382
6.6.1	win	2022-12-15	08:28:44	08:36:58	492840	60737b97d01c3800e734921d	707036146	1	practice_slash	9	practice_slash	23	stimuli_distractor_trianglediamonds.svg	stimuli_distractor_trianglediamonds.svg	15	no	0	1	2003
6.6.1	win	2022-12-15	08:28:44	08:36:58	492840	60737b97d01c3800e734921d	707036146	1	practice_slash	9	advance_on_keypress_SLASH	24	stimuli_distractor_trianglediamonds.svg	stimuli_distractor_trianglediamonds.svg	15	no	57	0	1150
6.6.1	win	2022-12-15	08:28:44	08:37:01	495856	60737b97d01c3800e734921d	707036146	1	practice_slash	9	practice_slash	25	stimuli_distractor_diamondtriangles.svg	stimuli_target_diamondcircles.svg	8	yes	53	1	254
6.6.1	win	2022-12-15	08:28:44	08:37:01	495856	60737b97d01c3800e734921d	707036146	1	practice_slash	9	advance_on_keypress_SLASH	26	stimuli_distractor_diamondtriangles.svg	stimuli_target_diamondcircles.svg	8	yes	57	0	439
6.6.1	win	2022-12-15	08:28:44	08:37:03	498170	60737b97d01c3800e734921d	707036146	1	practice_slash	9	practice_slash	27	stimuli_distractor_trianglediamonds.svg	stimuli_target_diamondcircles.svg	12	yes	53	1	259
6.6.1	win	2022-12-15	08:28:44	08:37:03	498170	60737b97d01c3800e734921d	707036146	1	practice_slash	9	advance_on_keypress_SLASH	28	stimuli_distractor_trianglediamonds.svg	stimuli_target_diamondcircles.svg	12	yes	57	0	557
6.6.1	win	2022-12-15	08:28:44	08:37:06	500602	60737b97d01c3800e734921d	707036146	1	practice_slash	9	practice_slash	29	stimuli_target_circlediamonds.svg	stimuli_distractor_diamondtriangles.svg	1	yes	53	1	265
6.6.1	win	2022-12-15	08:28:44	08:37:06	500602	60737b97d01c3800e734921d	707036146	1	practice_slash	9	advance_on_keypress_SLASH	30	stimuli_target_circlediamonds.svg	stimuli_distractor_diamondtriangles.svg	1	yes	57	0	863
6.6.1	win	2022-12-15	08:28:44	08:37:08	503336	60737b97d01c3800e734921d	707036146	1	practice_slash	9	practice_slash	31	stimuli_target_diamondsquares.svg	stimuli_distractor_diamondtriangles.svg	3	yes	53	1	260
6.6.1	win	2022-12-15	08:28:44	08:37:08	503336	60737b97d01c3800e734921d	707036146	1	practice_slash	9	advance_on_keypress_SLASH	32	stimuli_target_diamondsquares.svg	stimuli_distractor_diamondtriangles.svg	3	yes	57	0	669
6.6.1	win	2022-12-15	08:28:44	08:37:13	508425	60737b97d01c3800e734921d	707036146	1	main_slash	11	main_slash	1	stimuli_target_squarediamonds.svg	stimuli_distractor_diamondtriangles.svg	8	yes	53	1	368
6.6.1	win	2022-12-15	08:28:44	08:37:13	508425	60737b97d01c3800e734921d	707036146	1	main_slash	11	advance_on_keypress_SLASH	2	stimuli_target_squarediamonds.svg	stimuli_distractor_diamondtriangles.svg	8	yes	57	0	1994
6.6.1	win	2022-12-15	08:28:44	08:37:16	511297	60737b97d01c3800e734921d	707036146	1	main_slash	11	main_slash	3	stimuli_target_diamondsquares.svg	stimuli_distractor_diamondtriangles.svg	24	yes	53	1	268
6.6.1	win	2022-12-15	08:28:44	08:37:16	511297	60737b97d01c3800e734921d	707036146	1	main_slash	11	advance_on_keypress_SLASH	4	stimuli_target_diamondsquares.svg	stimuli_distractor_diamondtriangles.svg	24	yes	57	0	764
6.6.1	win	2022-12-15	08:28:44	08:37:20	514675	60737b97d01c3800e734921d	707036146	1	main_slash	11	main_slash	5	stimuli_distractor_diamondtriangles.svg	stimuli_distractor_diamondtriangles.svg	39	no	0	1	2003
6.6.1	win	2022-12-15	08:28:44	08:37:20	514675	60737b97d01c3800e734921d	707036146	1	main_slash	11	advance_on_keypress_SLASH	6	stimuli_distractor_diamondtriangles.svg	stimuli_distractor_diamondtriangles.svg	39	no	57	0	327
6.6.1	win	2022-12-15	08:28:44	08:37:21	515954	60737b97d01c3800e734921d	707036146	1	main_slash	11	main_slash	7	stimuli_target_circlediamonds.svg	stimuli_distractor_diamondtriangles.svg	6	yes	53	1	341
6.6.1	win	2022-12-15	08:28:44	08:37:21	515954	60737b97d01c3800e734921d	707036146	1	main_slash	11	advance_on_keypress_SLASH	8	stimuli_target_circlediamonds.svg	stimuli_distractor_diamondtriangles.svg	6	yes	57	0	654
6.6.1	win	2022-12-15	08:28:44	08:37:23	517651	60737b97d01c3800e734921d	707036146	1	main_slash	11	main_slash	9	stimuli_distractor_diamondtriangles.svg	stimuli_target_diamondsquares.svg	32	yes	53	1	432
6.6.1	win	2022-12-15	08:28:44	08:37:23	517651	60737b97d01c3800e734921d	707036146	1	main_slash	11	advance_on_keypress_SLASH	10	stimuli_distractor_diamondtriangles.svg	stimuli_target_diamondsquares.svg	32	yes	57	0	483
6.6.1	win	2022-12-15	08:28:44	08:37:24	519114	60737b97d01c3800e734921d	707036146	1	main_slash	11	main_slash	11	stimuli_target_squaretriangles.svg	stimuli_distractor_trianglediamonds.svg	3	yes	53	1	364
6.6.1	win	2022-12-15	08:28:44	08:37:24	519114	60737b97d01c3800e734921d	707036146	1	main_slash	11	advance_on_keypress_SLASH	12	stimuli_target_squaretriangles.svg	stimuli_distractor_trianglediamonds.svg	3	yes	57	0	421
6.6.1	win	2022-12-15	08:28:44	08:37:27	522152	60737b97d01c3800e734921d	707036146	1	main_slash	11	main_slash	13	stimuli_distractor_trianglediamonds.svg	stimuli_distractor_diamondtriangles.svg	36	no	0	1	2003
6.6.1	win	2022-12-15	08:28:44	08:37:27	522152	60737b97d01c3800e734921d	707036146	1	main_slash	11	advance_on_keypress_SLASH	14	stimuli_distractor_trianglediamonds.svg	stimuli_distractor_diamondtriangles.svg	36	no	57	0	272
6.6.1	win	2022-12-15	08:28:44	08:37:28	523408	60737b97d01c3800e734921d	707036146	1	main_slash	11	main_slash	15	stimuli_distractor_trianglediamonds.svg	stimuli_target_squaretriangles.svg	11	yes	53	1	374
6.6.1	win	2022-12-15	08:28:44	08:37:28	523408	60737b97d01c3800e734921d	707036146	1	main_slash	11	advance_on_keypress_SLASH	16	stimuli_distractor_trianglediamonds.svg	stimuli_target_squaretriangles.svg	11	yes	57	0	613
6.6.1	win	2022-12-15	08:28:44	08:37:30	524910	60737b97d01c3800e734921d	707036146	1	main_slash	11	main_slash	17	stimuli_target_squaretriangles.svg	stimuli_distractor_diamondtriangles.svg	7	yes	53	1	278
6.6.1	win	2022-12-15	08:28:44	08:37:30	524910	60737b97d01c3800e734921d	707036146	1	main_slash	11	advance_on_keypress_SLASH	18	stimuli_target_squaretriangles.svg	stimuli_distractor_diamondtriangles.svg	7	yes	57	0	458
6.6.1	win	2022-12-15	08:28:44	08:37:31	526224	60737b97d01c3800e734921d	707036146	1	main_slash	11	main_slash	19	stimuli_distractor_trianglediamonds.svg	stimuli_target_circlediamonds.svg	10	yes	53	1	245
6.6.1	win	2022-12-15	08:28:44	08:37:31	526224	60737b97d01c3800e734921d	707036146	1	main_slash	11	advance_on_keypress_SLASH	20	stimuli_distractor_trianglediamonds.svg	stimuli_target_circlediamonds.svg	10	yes	57	0	445
6.6.1	win	2022-12-15	08:28:44	08:37:33	527547	60737b97d01c3800e734921d	707036146	1	main_slash	11	main_slash	21	stimuli_target_circletriangles.svg	stimuli_distractor_trianglediamonds.svg	1	yes	53	1	264
6.6.1	win	2022-12-15	08:28:44	08:37:33	527547	60737b97d01c3800e734921d	707036146	1	main_slash	11	advance_on_keypress_SLASH	22	stimuli_target_circletriangles.svg	stimuli_distractor_trianglediamonds.svg	1	yes	57	0	513
6.6.1	win	2022-12-15	08:28:44	08:37:34	529164	60737b97d01c3800e734921d	707036146	1	main_slash	11	main_slash	23	stimuli_target_diamondcircles.svg	stimuli_distractor_diamondtriangles.svg	23	yes	53	1	496
6.6.1	win	2022-12-15	08:28:44	08:37:34	529164	60737b97d01c3800e734921d	707036146	1	main_slash	11	advance_on_keypress_SLASH	24	stimuli_target_diamondcircles.svg	stimuli_distractor_diamondtriangles.svg	23	yes	57	0	479
6.6.1	win	2022-12-15	08:28:44	08:37:36	530659	60737b97d01c3800e734921d	707036146	1	main_slash	11	main_slash	25	stimuli_distractor_diamondtriangles.svg	stimuli_target_diamondcircles.svg	31	yes	53	1	400
6.6.1	win	2022-12-15	08:28:44	08:37:36	530659	60737b97d01c3800e734921d	707036146	1	main_slash	11	advance_on_keypress_SLASH	26	stimuli_distractor_diamondtriangles.svg	stimuli_target_diamondcircles.svg	31	yes	57	0	472
6.6.1	win	2022-12-15	08:28:44	08:37:37	532214	60737b97d01c3800e734921d	707036146	1	main_slash	11	main_slash	27	stimuli_distractor_diamondtriangles.svg	stimuli_target_trianglecircles.svg	29	yes	53	1	472
6.6.1	win	2022-12-15	08:28:44	08:37:37	532214	60737b97d01c3800e734921d	707036146	1	main_slash	11	advance_on_keypress_SLASH	28	stimuli_distractor_diamondtriangles.svg	stimuli_target_trianglecircles.svg	29	yes	57	0	471
6.6.1	win	2022-12-15	08:28:44	08:37:39	533790	60737b97d01c3800e734921d	707036146	1	main_slash	11	main_slash	29	stimuli_target_circletriangles.svg	stimuli_distractor_diamondtriangles.svg	5	yes	53	1	493
6.6.1	win	2022-12-15	08:28:44	08:37:39	533790	60737b97d01c3800e734921d	707036146	1	main_slash	11	advance_on_keypress_SLASH	30	stimuli_target_circletriangles.svg	stimuli_distractor_diamondtriangles.svg	5	yes	57	0	421
6.6.1	win	2022-12-15	08:28:44	08:37:40	535347	60737b97d01c3800e734921d	707036146	1	main_slash	11	main_slash	31	stimuli_distractor_diamondtriangles.svg	stimuli_target_circletriangles.svg	13	yes	53	1	526
6.6.1	win	2022-12-15	08:28:44	08:37:40	535347	60737b97d01c3800e734921d	707036146	1	main_slash	11	advance_on_keypress_SLASH	32	stimuli_distractor_diamondtriangles.svg	stimuli_target_circletriangles.svg	13	yes	57	0	463
6.6.1	win	2022-12-15	08:28:44	08:37:42	536884	60737b97d01c3800e734921d	707036146	1	main_slash	11	main_slash	33	stimuli_target_trianglecircles.svg	stimuli_distractor_trianglediamonds.svg	17	yes	53	1	460
6.6.1	win	2022-12-15	08:28:44	08:37:42	536884	60737b97d01c3800e734921d	707036146	1	main_slash	11	advance_on_keypress_SLASH	34	stimuli_target_trianglecircles.svg	stimuli_distractor_trianglediamonds.svg	17	yes	57	0	383
6.6.1	win	2022-12-15	08:28:44	08:37:43	538211	60737b97d01c3800e734921d	707036146	1	main_slash	11	main_slash	35	stimuli_distractor_diamondtriangles.svg	stimuli_target_circlediamonds.svg	14	yes	53	1	334
6.6.1	win	2022-12-15	08:28:44	08:37:43	538211	60737b97d01c3800e734921d	707036146	1	main_slash	11	advance_on_keypress_SLASH	36	stimuli_distractor_diamondtriangles.svg	stimuli_target_circlediamonds.svg	14	yes	57	0	656
6.6.1	win	2022-12-15	08:28:44	08:37:45	539986	60737b97d01c3800e734921d	707036146	1	main_slash	11	main_slash	37	stimuli_distractor_trianglediamonds.svg	stimuli_target_trianglecircles.svg	25	yes	53	1	505
6.6.1	win	2022-12-15	08:28:44	08:37:45	539986	60737b97d01c3800e734921d	707036146	1	main_slash	11	advance_on_keypress_SLASH	38	stimuli_distractor_trianglediamonds.svg	stimuli_target_trianglecircles.svg	25	yes	57	0	398
6.6.1	win	2022-12-15	08:28:44	08:37:47	541483	60737b97d01c3800e734921d	707036146	1	main_slash	11	main_slash	39	stimuli_target_trianglesquares.svg	stimuli_distractor_diamondtriangles.svg	22	yes	53	1	488
6.6.1	win	2022-12-15	08:28:44	08:37:47	541483	60737b97d01c3800e734921d	707036146	1	main_slash	11	advance_on_keypress_SLASH	40	stimuli_target_trianglesquares.svg	stimuli_distractor_diamondtriangles.svg	22	yes	57	0	376
6.6.1	win	2022-12-15	08:28:44	08:37:48	542769	60737b97d01c3800e734921d	707036146	1	main_slash	11	main_slash	41	stimuli_distractor_trianglediamonds.svg	stimuli_target_squarediamonds.svg	12	yes	53	1	296
6.6.1	win	2022-12-15	08:28:44	08:37:48	542769	60737b97d01c3800e734921d	707036146	1	main_slash	11	advance_on_keypress_SLASH	42	stimuli_distractor_trianglediamonds.svg	stimuli_target_squarediamonds.svg	12	yes	57	0	382
6.6.1	win	2022-12-15	08:28:44	08:37:49	544230	60737b97d01c3800e734921d	707036146	1	main_slash	11	main_slash	43	stimuli_distractor_trianglediamonds.svg	stimuli_distractor_diamondtriangles.svg	35	no	53	0	467
6.6.1	win	2022-12-15	08:28:44	08:37:49	544230	60737b97d01c3800e734921d	707036146	1	main_slash	11	advance_on_keypress_SLASH	44	stimuli_distractor_trianglediamonds.svg	stimuli_distractor_diamondtriangles.svg	35	no	57	0	783
6.6.1	win	2022-12-15	08:28:44	08:37:53	547631	60737b97d01c3800e734921d	707036146	1	main_slash	11	main_slash	45	stimuli_distractor_diamondtriangles.svg	stimuli_distractor_trianglediamonds.svg	37	no	0	1	2003
6.6.1	win	2022-12-15	08:28:44	08:37:53	547631	60737b97d01c3800e734921d	707036146	1	main_slash	11	advance_on_keypress_SLASH	46	stimuli_distractor_diamondtriangles.svg	stimuli_distractor_trianglediamonds.svg	37	no	57	0	465
6.6.1	win	2022-12-15	08:28:44	08:37:54	549005	60737b97d01c3800e734921d	707036146	1	main_slash	11	main_slash	47	stimuli_target_circlediamonds.svg	stimuli_distractor_trianglediamonds.svg	2	yes	53	1	298
6.6.1	win	2022-12-15	08:28:44	08:37:54	549005	60737b97d01c3800e734921d	707036146	1	main_slash	11	advance_on_keypress_SLASH	48	stimuli_target_circlediamonds.svg	stimuli_distractor_trianglediamonds.svg	2	yes	57	0	429
6.6.1	win	2022-12-15	08:28:44	08:37:57	552048	60737b97d01c3800e734921d	707036146	1	main_slash	11	main_slash	49	stimuli_distractor_trianglediamonds.svg	stimuli_distractor_trianglediamonds.svg	33	no	0	1	2003
6.6.1	win	2022-12-15	08:28:44	08:37:57	552048	60737b97d01c3800e734921d	707036146	1	main_slash	11	advance_on_keypress_SLASH	50	stimuli_distractor_trianglediamonds.svg	stimuli_distractor_trianglediamonds.svg	33	no	57	0	428
6.6.1	win	2022-12-15	08:28:44	08:37:59	553500	60737b97d01c3800e734921d	707036146	1	main_slash	11	main_slash	51	stimuli_distractor_diamondtriangles.svg	stimuli_target_squarediamonds.svg	16	yes	53	1	414
6.6.1	win	2022-12-15	08:28:44	08:37:59	553500	60737b97d01c3800e734921d	707036146	1	main_slash	11	advance_on_keypress_SLASH	52	stimuli_distractor_diamondtriangles.svg	stimuli_target_squarediamonds.svg	16	yes	57	0	453
6.6.1	win	2022-12-15	08:28:44	08:38:02	556572	60737b97d01c3800e734921d	707036146	1	main_slash	11	main_slash	53	stimuli_distractor_trianglediamonds.svg	stimuli_distractor_trianglediamonds.svg	34	no	0	1	2003
6.6.1	win	2022-12-15	08:28:44	08:38:02	556572	60737b97d01c3800e734921d	707036146	1	main_slash	11	advance_on_keypress_SLASH	54	stimuli_distractor_trianglediamonds.svg	stimuli_distractor_trianglediamonds.svg	34	no	57	0	452
6.6.1	win	2022-12-15	08:28:44	08:38:03	558102	60737b97d01c3800e734921d	707036146	1	main_slash	11	main_slash	55	stimuli_target_diamondsquares.svg	stimuli_distractor_trianglediamonds.svg	20	yes	53	1	468
6.6.1	win	2022-12-15	08:28:44	08:38:03	558102	60737b97d01c3800e734921d	707036146	1	main_slash	11	advance_on_keypress_SLASH	56	stimuli_target_diamondsquares.svg	stimuli_distractor_trianglediamonds.svg	20	yes	57	0	490
6.6.1	win	2022-12-15	08:28:44	08:38:05	559500	60737b97d01c3800e734921d	707036146	1	main_slash	11	main_slash	57	stimuli_distractor_trianglediamonds.svg	stimuli_target_diamondcircles.svg	27	yes	53	1	299
6.6.1	win	2022-12-15	08:28:44	08:38:05	559500	60737b97d01c3800e734921d	707036146	1	main_slash	11	advance_on_keypress_SLASH	58	stimuli_distractor_trianglediamonds.svg	stimuli_target_diamondcircles.svg	27	yes	57	0	570
6.6.1	win	2022-12-15	08:28:44	08:38:06	561047	60737b97d01c3800e734921d	707036146	1	main_slash	11	main_slash	59	stimuli_target_diamondcircles.svg	stimuli_distractor_trianglediamonds.svg	19	yes	53	1	367
6.6.1	win	2022-12-15	08:28:44	08:38:06	561047	60737b97d01c3800e734921d	707036146	1	main_slash	11	advance_on_keypress_SLASH	60	stimuli_target_diamondcircles.svg	stimuli_distractor_trianglediamonds.svg	19	yes	57	0	437
6.6.1	win	2022-12-15	08:28:44	08:38:08	562532	60737b97d01c3800e734921d	707036146	1	main_slash	11	main_slash	61	stimuli_distractor_trianglediamonds.svg	stimuli_target_diamondsquares.svg	28	yes	53	1	437
6.6.1	win	2022-12-15	08:28:44	08:38:08	562532	60737b97d01c3800e734921d	707036146	1	main_slash	11	advance_on_keypress_SLASH	62	stimuli_distractor_trianglediamonds.svg	stimuli_target_diamondsquares.svg	28	yes	57	0	456
6.6.1	win	2022-12-15	08:28:44	08:38:11	565604	60737b97d01c3800e734921d	707036146	1	main_slash	11	main_slash	63	stimuli_distractor_diamondtriangles.svg	stimuli_distractor_trianglediamonds.svg	38	no	0	1	2003
6.6.1	win	2022-12-15	08:28:44	08:38:11	565604	60737b97d01c3800e734921d	707036146	1	main_slash	11	advance_on_keypress_SLASH	64	stimuli_distractor_diamondtriangles.svg	stimuli_distractor_trianglediamonds.svg	38	no	57	0	473
6.6.1	win	2022-12-15	08:28:44	08:38:12	567121	60737b97d01c3800e734921d	707036146	1	main_slash	11	main_slash	65	stimuli_target_squarediamonds.svg	stimuli_distractor_trianglediamonds.svg	4	yes	53	1	435
6.6.1	win	2022-12-15	08:28:44	08:38:12	567121	60737b97d01c3800e734921d	707036146	1	main_slash	11	advance_on_keypress_SLASH	66	stimuli_target_squarediamonds.svg	stimuli_distractor_trianglediamonds.svg	4	yes	57	0	443
6.6.1	win	2022-12-15	08:28:44	08:38:14	568538	60737b97d01c3800e734921d	707036146	1	main_slash	11	main_slash	67	stimuli_distractor_diamondtriangles.svg	stimuli_target_squaretriangles.svg	15	yes	53	1	363
6.6.1	win	2022-12-15	08:28:44	08:38:14	568538	60737b97d01c3800e734921d	707036146	1	main_slash	11	advance_on_keypress_SLASH	68	stimuli_distractor_diamondtriangles.svg	stimuli_target_squaretriangles.svg	15	yes	57	0	413
6.6.1	win	2022-12-15	08:28:44	08:38:15	569988	60737b97d01c3800e734921d	707036146	1	main_slash	11	main_slash	69	stimuli_target_trianglesquares.svg	stimuli_distractor_trianglediamonds.svg	18	yes	53	1	423
6.6.1	win	2022-12-15	08:28:44	08:38:15	569988	60737b97d01c3800e734921d	707036146	1	main_slash	11	advance_on_keypress_SLASH	70	stimuli_target_trianglesquares.svg	stimuli_distractor_trianglediamonds.svg	18	yes	57	0	414
6.6.1	win	2022-12-15	08:28:44	08:38:16	571292	60737b97d01c3800e734921d	707036146	1	main_slash	11	main_slash	71	stimuli_distractor_trianglediamonds.svg	stimuli_target_circletriangles.svg	9	yes	53	1	280
6.6.1	win	2022-12-15	08:28:44	08:38:16	571292	60737b97d01c3800e734921d	707036146	1	main_slash	11	advance_on_keypress_SLASH	72	stimuli_distractor_trianglediamonds.svg	stimuli_target_circletriangles.svg	9	yes	57	0	413
6.6.1	win	2022-12-15	08:28:44	08:38:18	572625	60737b97d01c3800e734921d	707036146	1	main_slash	11	main_slash	73	stimuli_target_trianglecircles.svg	stimuli_distractor_diamondtriangles.svg	21	yes	53	1	308
6.6.1	win	2022-12-15	08:28:44	08:38:18	572625	60737b97d01c3800e734921d	707036146	1	main_slash	11	advance_on_keypress_SLASH	74	stimuli_target_trianglecircles.svg	stimuli_distractor_diamondtriangles.svg	21	yes	57	0	382
6.6.1	win	2022-12-15	08:28:44	08:38:19	573994	60737b97d01c3800e734921d	707036146	1	main_slash	11	main_slash	75	stimuli_distractor_trianglediamonds.svg	stimuli_target_trianglesquares.svg	26	yes	53	1	374
6.6.1	win	2022-12-15	08:28:44	08:38:19	573994	60737b97d01c3800e734921d	707036146	1	main_slash	11	advance_on_keypress_SLASH	76	stimuli_distractor_trianglediamonds.svg	stimuli_target_trianglesquares.svg	26	yes	57	0	332
6.6.1	win	2022-12-15	08:28:44	08:38:22	576940	60737b97d01c3800e734921d	707036146	1	main_slash	11	main_slash	77	stimuli_distractor_diamondtriangles.svg	stimuli_distractor_diamondtriangles.svg	40	no	0	1	2003
6.6.1	win	2022-12-15	08:28:44	08:38:22	576940	60737b97d01c3800e734921d	707036146	1	main_slash	11	advance_on_keypress_SLASH	78	stimuli_distractor_diamondtriangles.svg	stimuli_distractor_diamondtriangles.svg	40	no	57	0	669
6.6.1	win	2022-12-15	08:28:44	08:38:24	578551	60737b97d01c3800e734921d	707036146	1	main_slash	11	main_slash	79	stimuli_distractor_diamondtriangles.svg	stimuli_target_trianglesquares.svg	30	yes	53	1	327
6.6.1	win	2022-12-15	08:28:44	08:38:24	578551	60737b97d01c3800e734921d	707036146	1	main_slash	11	advance_on_keypress_SLASH	80	stimuli_distractor_diamondtriangles.svg	stimuli_target_trianglesquares.svg	30	yes	57	0	364
6.6.1	win	2022-12-15	08:28:44	08:38:27	581534	60737b97d01c3800e734921d	707036146	1	main_slash	11	main_slash	81	stimuli_distractor_diamondtriangles.svg	stimuli_distractor_diamondtriangles.svg	39	no	0	1	2003
6.6.1	win	2022-12-15	08:28:44	08:38:27	581534	60737b97d01c3800e734921d	707036146	1	main_slash	11	advance_on_keypress_SLASH	82	stimuli_distractor_diamondtriangles.svg	stimuli_distractor_diamondtriangles.svg	39	no	57	0	433
6.6.1	win	2022-12-15	08:28:44	08:38:28	582983	60737b97d01c3800e734921d	707036146	1	main_slash	11	main_slash	83	stimuli_distractor_diamondtriangles.svg	stimuli_target_trianglecircles.svg	29	yes	53	1	405
6.6.1	win	2022-12-15	08:28:44	08:38:28	582983	60737b97d01c3800e734921d	707036146	1	main_slash	11	advance_on_keypress_SLASH	84	stimuli_distractor_diamondtriangles.svg	stimuli_target_trianglecircles.svg	29	yes	57	0	388
6.6.1	win	2022-12-15	08:28:44	08:38:31	585984	60737b97d01c3800e734921d	707036146	1	main_slash	11	main_slash	85	stimuli_distractor_diamondtriangles.svg	stimuli_distractor_diamondtriangles.svg	40	no	0	1	2003
6.6.1	win	2022-12-15	08:28:44	08:38:31	585984	60737b97d01c3800e734921d	707036146	1	main_slash	11	advance_on_keypress_SLASH	86	stimuli_distractor_diamondtriangles.svg	stimuli_distractor_diamondtriangles.svg	40	no	57	0	386
6.6.1	win	2022-12-15	08:28:44	08:38:32	587303	60737b97d01c3800e734921d	707036146	1	main_slash	11	main_slash	87	stimuli_target_trianglesquares.svg	stimuli_distractor_trianglediamonds.svg	18	yes	53	1	320
6.6.1	win	2022-12-15	08:28:44	08:38:32	587303	60737b97d01c3800e734921d	707036146	1	main_slash	11	advance_on_keypress_SLASH	88	stimuli_target_trianglesquares.svg	stimuli_distractor_trianglediamonds.svg	18	yes	57	0	391
6.6.1	win	2022-12-15	08:28:44	08:38:34	588640	60737b97d01c3800e734921d	707036146	1	main_slash	11	main_slash	89	stimuli_distractor_diamondtriangles.svg	stimuli_target_squarediamonds.svg	16	yes	53	1	335
6.6.1	win	2022-12-15	08:28:44	08:38:34	588640	60737b97d01c3800e734921d	707036146	1	main_slash	11	advance_on_keypress_SLASH	90	stimuli_distractor_diamondtriangles.svg	stimuli_target_squarediamonds.svg	16	yes	57	0	420
6.6.1	win	2022-12-15	08:28:44	08:38:37	591675	60737b97d01c3800e734921d	707036146	1	main_slash	11	main_slash	91	stimuli_distractor_trianglediamonds.svg	stimuli_distractor_trianglediamonds.svg	34	no	0	1	2003
6.6.1	win	2022-12-15	08:28:44	08:38:37	591675	60737b97d01c3800e734921d	707036146	1	main_slash	11	advance_on_keypress_SLASH	92	stimuli_distractor_trianglediamonds.svg	stimuli_distractor_trianglediamonds.svg	34	no	57	0	365
6.6.1	win	2022-12-15	08:28:44	08:38:38	593078	60737b97d01c3800e734921d	707036146	1	main_slash	11	main_slash	93	stimuli_distractor_diamondtriangles.svg	stimuli_target_squaretriangles.svg	15	yes	53	1	427
6.6.1	win	2022-12-15	08:28:44	08:38:38	593078	60737b97d01c3800e734921d	707036146	1	main_slash	11	advance_on_keypress_SLASH	94	stimuli_distractor_diamondtriangles.svg	stimuli_target_squaretriangles.svg	15	yes	57	0	397
6.6.1	win	2022-12-15	08:28:44	08:38:40	594491	60737b97d01c3800e734921d	707036146	1	main_slash	11	main_slash	95	stimuli_target_squarediamonds.svg	stimuli_distractor_diamondtriangles.svg	8	yes	53	1	408
6.6.1	win	2022-12-15	08:28:44	08:38:40	594491	60737b97d01c3800e734921d	707036146	1	main_slash	11	advance_on_keypress_SLASH	96	stimuli_target_squarediamonds.svg	stimuli_distractor_diamondtriangles.svg	8	yes	57	0	398
6.6.1	win	2022-12-15	08:28:44	08:38:41	595824	60737b97d01c3800e734921d	707036146	1	main_slash	11	main_slash	97	stimuli_target_squaretriangles.svg	stimuli_distractor_diamondtriangles.svg	7	yes	53	1	324
6.6.1	win	2022-12-15	08:28:44	08:38:41	595824	60737b97d01c3800e734921d	707036146	1	main_slash	11	advance_on_keypress_SLASH	98	stimuli_target_squaretriangles.svg	stimuli_distractor_diamondtriangles.svg	7	yes	57	0	350
6.6.1	win	2022-12-15	08:28:44	08:38:42	597115	60737b97d01c3800e734921d	707036146	1	main_slash	11	main_slash	99	stimuli_target_squarediamonds.svg	stimuli_distractor_trianglediamonds.svg	4	yes	53	1	325
6.6.1	win	2022-12-15	08:28:44	08:38:42	597115	60737b97d01c3800e734921d	707036146	1	main_slash	11	advance_on_keypress_SLASH	100	stimuli_target_squarediamonds.svg	stimuli_distractor_trianglediamonds.svg	4	yes	57	0	387
6.6.1	win	2022-12-15	08:28:44	08:38:44	598463	60737b97d01c3800e734921d	707036146	1	main_slash	11	main_slash	101	stimuli_distractor_diamondtriangles.svg	stimuli_target_diamondcircles.svg	31	yes	53	1	350
6.6.1	win	2022-12-15	08:28:44	08:38:44	598463	60737b97d01c3800e734921d	707036146	1	main_slash	11	advance_on_keypress_SLASH	102	stimuli_distractor_diamondtriangles.svg	stimuli_target_diamondcircles.svg	31	yes	57	0	416
6.6.1	win	2022-12-15	08:28:44	08:38:45	599874	60737b97d01c3800e734921d	707036146	1	main_slash	11	main_slash	103	stimuli_distractor_trianglediamonds.svg	stimuli_target_squarediamonds.svg	12	yes	53	1	384
6.6.1	win	2022-12-15	08:28:44	08:38:45	599874	60737b97d01c3800e734921d	707036146	1	main_slash	11	advance_on_keypress_SLASH	104	stimuli_distractor_trianglediamonds.svg	stimuli_target_squarediamonds.svg	12	yes	57	0	371
6.6.1	win	2022-12-15	08:28:44	08:38:46	601162	60737b97d01c3800e734921d	707036146	1	main_slash	11	main_slash	105	stimuli_target_squaretriangles.svg	stimuli_distractor_trianglediamonds.svg	3	yes	53	1	305
6.6.1	win	2022-12-15	08:28:44	08:38:46	601162	60737b97d01c3800e734921d	707036146	1	main_slash	11	advance_on_keypress_SLASH	106	stimuli_target_squaretriangles.svg	stimuli_distractor_trianglediamonds.svg	3	yes	57	0	411
6.6.1	win	2022-12-15	08:28:44	08:38:48	602623	60737b97d01c3800e734921d	707036146	1	main_slash	11	main_slash	107	stimuli_target_trianglecircles.svg	stimuli_distractor_trianglediamonds.svg	17	yes	53	1	436
6.6.1	win	2022-12-15	08:28:44	08:38:48	602623	60737b97d01c3800e734921d	707036146	1	main_slash	11	advance_on_keypress_SLASH	108	stimuli_target_trianglecircles.svg	stimuli_distractor_trianglediamonds.svg	17	yes	57	0	461
6.6.1	win	2022-12-15	08:28:44	08:38:49	603995	60737b97d01c3800e734921d	707036146	1	main_slash	11	main_slash	109	stimuli_distractor_trianglediamonds.svg	stimuli_target_circletriangles.svg	9	yes	53	1	301
6.6.1	win	2022-12-15	08:28:44	08:38:49	603995	60737b97d01c3800e734921d	707036146	1	main_slash	11	advance_on_keypress_SLASH	110	stimuli_distractor_trianglediamonds.svg	stimuli_target_circletriangles.svg	9	yes	57	0	508
6.6.1	win	2022-12-15	08:28:44	08:38:52	607121	60737b97d01c3800e734921d	707036146	1	main_slash	11	main_slash	111	stimuli_distractor_trianglediamonds.svg	stimuli_distractor_trianglediamonds.svg	33	no	0	1	2003
6.6.1	win	2022-12-15	08:28:44	08:38:52	607121	60737b97d01c3800e734921d	707036146	1	main_slash	11	advance_on_keypress_SLASH	112	stimuli_distractor_trianglediamonds.svg	stimuli_distractor_trianglediamonds.svg	33	no	57	0	378
6.6.1	win	2022-12-15	08:28:44	08:38:54	608553	60737b97d01c3800e734921d	707036146	1	main_slash	11	main_slash	113	stimuli_distractor_trianglediamonds.svg	stimuli_target_circlediamonds.svg	10	yes	53	1	443
6.6.1	win	2022-12-15	08:28:44	08:38:54	608553	60737b97d01c3800e734921d	707036146	1	main_slash	11	advance_on_keypress_SLASH	114	stimuli_distractor_trianglediamonds.svg	stimuli_target_circlediamonds.svg	10	yes	57	0	469
6.6.1	win	2022-12-15	08:28:44	08:38:55	610184	60737b97d01c3800e734921d	707036146	1	main_slash	11	main_slash	115	stimuli_distractor_diamondtriangles.svg	stimuli_target_diamondsquares.svg	32	yes	53	1	542
6.6.1	win	2022-12-15	08:28:44	08:38:55	610184	60737b97d01c3800e734921d	707036146	1	main_slash	11	advance_on_keypress_SLASH	116	stimuli_distractor_diamondtriangles.svg	stimuli_target_diamondsquares.svg	32	yes	57	0	455
6.6.1	win	2022-12-15	08:28:44	08:38:57	611543	60737b97d01c3800e734921d	707036146	1	main_slash	11	main_slash	117	stimuli_target_circletriangles.svg	stimuli_distractor_diamondtriangles.svg	5	yes	53	1	289
6.6.1	win	2022-12-15	08:28:44	08:38:57	611543	60737b97d01c3800e734921d	707036146	1	main_slash	11	advance_on_keypress_SLASH	118	stimuli_target_circletriangles.svg	stimuli_distractor_diamondtriangles.svg	5	yes	57	0	456
6.6.1	win	2022-12-15	08:28:44	08:38:58	612907	60737b97d01c3800e734921d	707036146	1	main_slash	11	main_slash	119	stimuli_target_diamondcircles.svg	stimuli_distractor_trianglediamonds.svg	19	yes	53	1	293
6.6.1	win	2022-12-15	08:28:44	08:38:58	612907	60737b97d01c3800e734921d	707036146	1	main_slash	11	advance_on_keypress_SLASH	120	stimuli_target_diamondcircles.svg	stimuli_distractor_trianglediamonds.svg	19	yes	57	0	455
6.6.1	win	2022-12-15	08:28:44	08:39:01	615980	60737b97d01c3800e734921d	707036146	1	main_slash	11	main_slash	121	stimuli_distractor_diamondtriangles.svg	stimuli_distractor_trianglediamonds.svg	37	no	0	1	2003
6.6.1	win	2022-12-15	08:28:44	08:39:01	615980	60737b97d01c3800e734921d	707036146	1	main_slash	11	advance_on_keypress_SLASH	122	stimuli_distractor_diamondtriangles.svg	stimuli_distractor_trianglediamonds.svg	37	no	57	0	438
6.6.1	win	2022-12-15	08:28:44	08:39:02	617336	60737b97d01c3800e734921d	707036146	1	main_slash	11	main_slash	123	stimuli_distractor_trianglediamonds.svg	stimuli_target_trianglesquares.svg	26	yes	53	1	305
6.6.1	win	2022-12-15	08:28:44	08:39:02	617336	60737b97d01c3800e734921d	707036146	1	main_slash	11	advance_on_keypress_SLASH	124	stimuli_distractor_trianglediamonds.svg	stimuli_target_trianglesquares.svg	26	yes	57	0	436
6.6.1	win	2022-12-15	08:28:44	08:39:04	618685	60737b97d01c3800e734921d	707036146	1	main_slash	11	main_slash	125	stimuli_distractor_trianglediamonds.svg	stimuli_target_diamondcircles.svg	27	yes	53	1	298
6.6.1	win	2022-12-15	08:28:44	08:39:04	618685	60737b97d01c3800e734921d	707036146	1	main_slash	11	advance_on_keypress_SLASH	126	stimuli_distractor_trianglediamonds.svg	stimuli_target_diamondcircles.svg	27	yes	57	0	453
6.6.1	win	2022-12-15	08:28:44	08:39:05	620064	60737b97d01c3800e734921d	707036146	1	main_slash	11	main_slash	127	stimuli_target_circlediamonds.svg	stimuli_distractor_trianglediamonds.svg	2	yes	53	1	318
6.6.1	win	2022-12-15	08:28:44	08:39:05	620064	60737b97d01c3800e734921d	707036146	1	main_slash	11	advance_on_keypress_SLASH	128	stimuli_target_circlediamonds.svg	stimuli_distractor_trianglediamonds.svg	2	yes	57	0	389
6.6.1	win	2022-12-15	08:28:44	08:39:06	621421	60737b97d01c3800e734921d	707036146	1	main_slash	11	main_slash	129	stimuli_target_circlediamonds.svg	stimuli_distractor_diamondtriangles.svg	6	yes	53	1	355
6.6.1	win	2022-12-15	08:28:44	08:39:06	621421	60737b97d01c3800e734921d	707036146	1	main_slash	11	advance_on_keypress_SLASH	130	stimuli_target_circlediamonds.svg	stimuli_distractor_diamondtriangles.svg	6	yes	57	0	371
6.6.1	win	2022-12-15	08:28:44	08:39:08	623075	60737b97d01c3800e734921d	707036146	1	main_slash	11	main_slash	131	stimuli_target_trianglecircles.svg	stimuli_distractor_diamondtriangles.svg	21	yes	53	1	673
6.6.1	win	2022-12-15	08:28:44	08:39:08	623075	60737b97d01c3800e734921d	707036146	1	main_slash	11	advance_on_keypress_SLASH	132	stimuli_target_trianglecircles.svg	stimuli_distractor_diamondtriangles.svg	21	yes	57	0	935
6.6.1	win	2022-12-15	08:28:44	08:39:10	625209	60737b97d01c3800e734921d	707036146	1	main_slash	11	main_slash	133	stimuli_target_diamondsquares.svg	stimuli_distractor_diamondtriangles.svg	24	yes	53	1	582
6.6.1	win	2022-12-15	08:28:44	08:39:10	625209	60737b97d01c3800e734921d	707036146	1	main_slash	11	advance_on_keypress_SLASH	134	stimuli_target_diamondsquares.svg	stimuli_distractor_diamondtriangles.svg	24	yes	57	0	427
6.6.1	win	2022-12-15	08:28:44	08:39:12	626695	60737b97d01c3800e734921d	707036146	1	main_slash	11	main_slash	135	stimuli_target_circletriangles.svg	stimuli_distractor_trianglediamonds.svg	1	yes	53	1	448
6.6.1	win	2022-12-15	08:28:44	08:39:12	626695	60737b97d01c3800e734921d	707036146	1	main_slash	11	advance_on_keypress_SLASH	136	stimuli_target_circletriangles.svg	stimuli_distractor_trianglediamonds.svg	1	yes	57	0	482
6.6.1	win	2022-12-15	08:28:44	08:39:13	628298	60737b97d01c3800e734921d	707036146	1	main_slash	11	main_slash	137	stimuli_distractor_trianglediamonds.svg	stimuli_target_diamondsquares.svg	28	yes	53	1	510
6.6.1	win	2022-12-15	08:28:44	08:39:13	628298	60737b97d01c3800e734921d	707036146	1	main_slash	11	advance_on_keypress_SLASH	138	stimuli_distractor_trianglediamonds.svg	stimuli_target_diamondsquares.svg	28	yes	57	0	487
6.6.1	win	2022-12-15	08:28:44	08:39:15	629979	60737b97d01c3800e734921d	707036146	1	main_slash	11	main_slash	139	stimuli_distractor_trianglediamonds.svg	stimuli_target_trianglecircles.svg	25	yes	53	1	583
6.6.1	win	2022-12-15	08:28:44	08:39:15	629979	60737b97d01c3800e734921d	707036146	1	main_slash	11	advance_on_keypress_SLASH	140	stimuli_distractor_trianglediamonds.svg	stimuli_target_trianglecircles.svg	25	yes	57	0	435
6.6.1	win	2022-12-15	08:28:44	08:39:17	631485	60737b97d01c3800e734921d	707036146	1	main_slash	11	main_slash	141	stimuli_target_diamondsquares.svg	stimuli_distractor_trianglediamonds.svg	20	yes	53	1	461
6.6.1	win	2022-12-15	08:28:44	08:39:17	631485	60737b97d01c3800e734921d	707036146	1	main_slash	11	advance_on_keypress_SLASH	142	stimuli_target_diamondsquares.svg	stimuli_distractor_trianglediamonds.svg	20	yes	57	0	448
6.6.1	win	2022-12-15	08:28:44	08:39:18	633009	60737b97d01c3800e734921d	707036146	1	main_slash	11	main_slash	143	stimuli_distractor_diamondtriangles.svg	stimuli_target_circletriangles.svg	13	yes	53	1	466
6.6.1	win	2022-12-15	08:28:44	08:39:18	633009	60737b97d01c3800e734921d	707036146	1	main_slash	11	advance_on_keypress_SLASH	144	stimuli_distractor_diamondtriangles.svg	stimuli_target_circletriangles.svg	13	yes	57	0	425
6.6.1	win	2022-12-15	08:28:44	08:39:20	634625	60737b97d01c3800e734921d	707036146	1	main_slash	11	main_slash	145	stimuli_distractor_diamondtriangles.svg	stimuli_target_trianglesquares.svg	30	yes	53	1	577
6.6.1	win	2022-12-15	08:28:44	08:39:20	634625	60737b97d01c3800e734921d	707036146	1	main_slash	11	advance_on_keypress_SLASH	146	stimuli_distractor_diamondtriangles.svg	stimuli_target_trianglesquares.svg	30	yes	57	0	439
6.6.1	win	2022-12-15	08:28:44	08:39:21	636361	60737b97d01c3800e734921d	707036146	1	main_slash	11	main_slash	147	stimuli_target_trianglesquares.svg	stimuli_distractor_diamondtriangles.svg	22	yes	53	1	682
6.6.1	win	2022-12-15	08:28:44	08:39:21	636361	60737b97d01c3800e734921d	707036146	1	main_slash	11	advance_on_keypress_SLASH	148	stimuli_target_trianglesquares.svg	stimuli_distractor_diamondtriangles.svg	22	yes	57	0	542
6.6.1	win	2022-12-15	08:28:44	08:39:23	637919	60737b97d01c3800e734921d	707036146	1	main_slash	11	main_slash	149	stimuli_distractor_trianglediamonds.svg	stimuli_target_squaretriangles.svg	11	yes	53	1	406
6.6.1	win	2022-12-15	08:28:44	08:39:23	637919	60737b97d01c3800e734921d	707036146	1	main_slash	11	advance_on_keypress_SLASH	150	stimuli_distractor_trianglediamonds.svg	stimuli_target_squaretriangles.svg	11	yes	57	0	578
6.6.1	win	2022-12-15	08:28:44	08:39:26	641109	60737b97d01c3800e734921d	707036146	1	main_slash	11	main_slash	151	stimuli_distractor_trianglediamonds.svg	stimuli_distractor_diamondtriangles.svg	36	no	0	1	2003
6.6.1	win	2022-12-15	08:28:44	08:39:26	641109	60737b97d01c3800e734921d	707036146	1	main_slash	11	advance_on_keypress_SLASH	152	stimuli_distractor_trianglediamonds.svg	stimuli_distractor_diamondtriangles.svg	36	no	57	0	371
6.6.1	win	2022-12-15	08:28:44	08:39:28	642632	60737b97d01c3800e734921d	707036146	1	main_slash	11	main_slash	153	stimuli_target_diamondcircles.svg	stimuli_distractor_diamondtriangles.svg	23	yes	53	1	538
6.6.1	win	2022-12-15	08:28:44	08:39:28	642632	60737b97d01c3800e734921d	707036146	1	main_slash	11	advance_on_keypress_SLASH	154	stimuli_target_diamondcircles.svg	stimuli_distractor_diamondtriangles.svg	23	yes	57	0	382
6.6.1	win	2022-12-15	08:28:44	08:39:31	645628	60737b97d01c3800e734921d	707036146	1	main_slash	11	main_slash	155	stimuli_distractor_trianglediamonds.svg	stimuli_distractor_diamondtriangles.svg	35	no	0	1	2003
6.6.1	win	2022-12-15	08:28:44	08:39:31	645628	60737b97d01c3800e734921d	707036146	1	main_slash	11	advance_on_keypress_SLASH	156	stimuli_distractor_trianglediamonds.svg	stimuli_distractor_diamondtriangles.svg	35	no	57	0	324
6.6.1	win	2022-12-15	08:28:44	08:39:34	648569	60737b97d01c3800e734921d	707036146	1	main_slash	11	main_slash	157	stimuli_distractor_diamondtriangles.svg	stimuli_distractor_trianglediamonds.svg	38	no	0	1	2003
6.6.1	win	2022-12-15	08:28:44	08:39:34	648569	60737b97d01c3800e734921d	707036146	1	main_slash	11	advance_on_keypress_SLASH	158	stimuli_distractor_diamondtriangles.svg	stimuli_distractor_trianglediamonds.svg	38	no	57	0	346
6.6.1	win	2022-12-15	08:28:44	08:39:35	650014	60737b97d01c3800e734921d	707036146	1	main_slash	11	main_slash	159	stimuli_distractor_diamondtriangles.svg	stimuli_target_circlediamonds.svg	14	yes	53	1	489
6.6.1	win	2022-12-15	08:28:44	08:39:35	650014	60737b97d01c3800e734921d	707036146	1	main_slash	11	advance_on_keypress_SLASH	160	stimuli_distractor_diamondtriangles.svg	stimuli_target_circlediamonds.svg	14	yes	57	0	429