build	computer.platform	date	time	timestamp	time_elapsed_ms	subject	group	session	blockcode	blocknum	trialcode	trialnum	stimulus_left	stimulus_right	stim_index	target_present	response	correct	latency
6.6.1	win	2022-12-14	16:41:35	16:45:57	261070	5cd063ce657e300016f6c95a	312166575	1	practice_slash	5	practice_slash	1	stimuli_target_squarediamonds.svg	stimuli_distractor_trianglediamonds.svg	5	yes	53	1	606
6.6.1	win	2022-12-14	16:41:35	16:45:57	261070	5cd063ce657e300016f6c95a	312166575	1	practice_slash	5	advance_on_keypress_SLASH	2	stimuli_target_squarediamonds.svg	stimuli_distractor_trianglediamonds.svg	5	yes	57	0	899
6.6.1	win	2022-12-14	16:41:35	16:46:02	265680	5cd063ce657e300016f6c95a	312166575	1	practice_slash	5	practice_slash	3	stimuli_distractor_trianglediamonds.svg	stimuli_distractor_diamondtriangles.svg	16	no	0	1	2000
6.6.1	win	2022-12-14	16:41:35	16:46:02	265680	5cd063ce657e300016f6c95a	312166575	1	practice_slash	5	advance_on_keypress_SLASH	4	stimuli_distractor_trianglediamonds.svg	stimuli_distractor_diamondtriangles.svg	16	no	57	0	723
6.6.1	win	2022-12-14	16:41:35	16:46:05	269156	5cd063ce657e300016f6c95a	312166575	1	practice_slash	5	practice_slash	5	stimuli_distractor_trianglediamonds.svg	stimuli_target_circlediamonds.svg	10	yes	53	1	1117
6.6.1	win	2022-12-14	16:41:35	16:46:05	269156	5cd063ce657e300016f6c95a	312166575	1	practice_slash	5	advance_on_keypress_SLASH	6	stimuli_distractor_trianglediamonds.svg	stimuli_target_circlediamonds.svg	10	yes	57	0	648
6.6.1	win	2022-12-14	16:41:35	16:46:09	272340	5cd063ce657e300016f6c95a	312166575	1	practice_slash	5	practice_slash	7	stimuli_distractor_diamondtriangles.svg	stimuli_target_diamondcircles.svg	8	yes	53	1	884
6.6.1	win	2022-12-14	16:41:35	16:46:09	272340	5cd063ce657e300016f6c95a	312166575	1	practice_slash	5	advance_on_keypress_SLASH	8	stimuli_distractor_diamondtriangles.svg	stimuli_target_diamondcircles.svg	8	yes	57	0	600
6.6.1	win	2022-12-14	16:41:35	16:46:12	275909	5cd063ce657e300016f6c95a	312166575	1	practice_slash	5	practice_slash	9	stimuli_distractor_diamondtriangles.svg	stimuli_target_circletriangles.svg	7	yes	53	1	1310
6.6.1	win	2022-12-14	16:41:35	16:46:12	275909	5cd063ce657e300016f6c95a	312166575	1	practice_slash	5	advance_on_keypress_SLASH	10	stimuli_distractor_diamondtriangles.svg	stimuli_target_circletriangles.svg	7	yes	57	0	514
6.6.1	win	2022-12-14	16:41:35	16:46:15	278917	5cd063ce657e300016f6c95a	312166575	1	practice_slash	5	practice_slash	11	stimuli_target_circlediamonds.svg	stimuli_distractor_trianglediamonds.svg	4	yes	53	1	799
6.6.1	win	2022-12-14	16:41:35	16:46:15	278917	5cd063ce657e300016f6c95a	312166575	1	practice_slash	5	advance_on_keypress_SLASH	12	stimuli_target_circlediamonds.svg	stimuli_distractor_trianglediamonds.svg	4	yes	57	0	513
6.6.1	win	2022-12-14	16:41:35	16:46:19	282421	5cd063ce657e300016f6c95a	312166575	1	practice_slash	5	practice_slash	13	stimuli_distractor_diamondtriangles.svg	stimuli_distractor_trianglediamonds.svg	14	no	53	0	1314
6.6.1	win	2022-12-14	16:41:35	16:46:19	282421	5cd063ce657e300016f6c95a	312166575	1	practice_slash	5	advance_on_keypress_SLASH	14	stimuli_distractor_diamondtriangles.svg	stimuli_distractor_trianglediamonds.svg	14	no	57	0	645
6.6.1	win	2022-12-14	16:41:35	16:46:22	285332	5cd063ce657e300016f6c95a	312166575	1	practice_slash	5	practice_slash	15	stimuli_distractor_diamondtriangles.svg	stimuli_target_trianglecircles.svg	9	yes	53	1	626
6.6.1	win	2022-12-14	16:41:35	16:46:22	285332	5cd063ce657e300016f6c95a	312166575	1	practice_slash	5	advance_on_keypress_SLASH	16	stimuli_distractor_diamondtriangles.svg	stimuli_target_trianglecircles.svg	9	yes	57	0	489
6.6.1	win	2022-12-14	16:41:35	16:46:25	288437	5cd063ce657e300016f6c95a	312166575	1	practice_slash	5	practice_slash	17	stimuli_target_squarediamonds.svg	stimuli_distractor_diamondtriangles.svg	2	yes	53	1	926
6.6.1	win	2022-12-14	16:41:35	16:46:25	288437	5cd063ce657e300016f6c95a	312166575	1	practice_slash	5	advance_on_keypress_SLASH	18	stimuli_target_squarediamonds.svg	stimuli_distractor_diamondtriangles.svg	2	yes	57	0	508
6.6.1	win	2022-12-14	16:41:35	16:46:29	292654	5cd063ce657e300016f6c95a	312166575	1	practice_slash	5	practice_slash	19	stimuli_distractor_diamondtriangles.svg	stimuli_distractor_diamondtriangles.svg	13	no	0	1	2000
6.6.1	win	2022-12-14	16:41:35	16:46:29	292654	5cd063ce657e300016f6c95a	312166575	1	practice_slash	5	advance_on_keypress_SLASH	20	stimuli_distractor_diamondtriangles.svg	stimuli_distractor_diamondtriangles.svg	13	no	57	0	451
6.6.1	win	2022-12-14	16:41:35	16:46:32	295729	5cd063ce657e300016f6c95a	312166575	1	practice_slash	5	practice_slash	21	stimuli_distractor_trianglediamonds.svg	stimuli_target_squarediamonds.svg	11	yes	53	1	936
6.6.1	win	2022-12-14	16:41:35	16:46:32	295729	5cd063ce657e300016f6c95a	312166575	1	practice_slash	5	advance_on_keypress_SLASH	22	stimuli_distractor_trianglediamonds.svg	stimuli_target_squarediamonds.svg	11	yes	57	0	520
6.6.1	win	2022-12-14	16:41:35	16:46:35	299224	5cd063ce657e300016f6c95a	312166575	1	practice_slash	5	practice_slash	23	stimuli_distractor_trianglediamonds.svg	stimuli_target_diamondcircles.svg	12	yes	53	1	1290
6.6.1	win	2022-12-14	16:41:35	16:46:35	299224	5cd063ce657e300016f6c95a	312166575	1	practice_slash	5	advance_on_keypress_SLASH	24	stimuli_distractor_trianglediamonds.svg	stimuli_target_diamondcircles.svg	12	yes	57	0	380
6.6.1	win	2022-12-14	16:41:35	16:46:38	302138	5cd063ce657e300016f6c95a	312166575	1	practice_slash	5	practice_slash	25	stimuli_target_diamondsquares.svg	stimuli_distractor_diamondtriangles.svg	3	yes	53	1	859
6.6.1	win	2022-12-14	16:41:35	16:46:38	302138	5cd063ce657e300016f6c95a	312166575	1	practice_slash	5	advance_on_keypress_SLASH	26	stimuli_target_diamondsquares.svg	stimuli_distractor_diamondtriangles.svg	3	yes	57	0	495
6.6.1	win	2022-12-14	16:41:35	16:46:41	305079	5cd063ce657e300016f6c95a	312166575	1	practice_slash	5	practice_slash	27	stimuli_target_diamondsquares.svg	stimuli_distractor_trianglediamonds.svg	6	yes	53	1	761
6.6.1	win	2022-12-14	16:41:35	16:46:41	305079	5cd063ce657e300016f6c95a	312166575	1	practice_slash	5	advance_on_keypress_SLASH	28	stimuli_target_diamondsquares.svg	stimuli_distractor_trianglediamonds.svg	6	yes	57	0	418
6.6.1	win	2022-12-14	16:41:35	16:46:44	308178	5cd063ce657e300016f6c95a	312166575	1	practice_slash	5	practice_slash	29	stimuli_distractor_trianglediamonds.svg	stimuli_distractor_trianglediamonds.svg	15	no	53	0	965
6.6.1	win	2022-12-14	16:41:35	16:46:44	308178	5cd063ce657e300016f6c95a	312166575	1	practice_slash	5	advance_on_keypress_SLASH	30	stimuli_distractor_trianglediamonds.svg	stimuli_distractor_trianglediamonds.svg	15	no	57	0	437
6.6.1	win	2022-12-14	16:41:35	16:46:48	311412	5cd063ce657e300016f6c95a	312166575	1	practice_slash	5	practice_slash	31	stimuli_target_circlediamonds.svg	stimuli_distractor_diamondtriangles.svg	1	yes	53	1	1155
6.6.1	win	2022-12-14	16:41:35	16:46:48	311412	5cd063ce657e300016f6c95a	312166575	1	practice_slash	5	advance_on_keypress_SLASH	32	stimuli_target_circlediamonds.svg	stimuli_distractor_diamondtriangles.svg	1	yes	57	0	404
6.6.1	win	2022-12-14	16:41:35	16:46:56	319774	5cd063ce657e300016f6c95a	312166575	1	main_slash	7	main_slash	1	stimuli_distractor_diamondtriangles.svg	stimuli_distractor_diamondtriangles.svg	39	no	0	1	2000
6.6.1	win	2022-12-14	16:41:35	16:46:56	319774	5cd063ce657e300016f6c95a	312166575	1	main_slash	7	advance_on_keypress_SLASH	2	stimuli_distractor_diamondtriangles.svg	stimuli_distractor_diamondtriangles.svg	39	no	57	0	646
6.6.1	win	2022-12-14	16:41:35	16:46:58	321948	5cd063ce657e300016f6c95a	312166575	1	main_slash	7	main_slash	3	stimuli_distractor_diamondtriangles.svg	stimuli_target_diamondsquares.svg	32	yes	53	1	841
6.6.1	win	2022-12-14	16:41:35	16:46:58	321948	5cd063ce657e300016f6c95a	312166575	1	main_slash	7	advance_on_keypress_SLASH	4	stimuli_distractor_diamondtriangles.svg	stimuli_target_diamondsquares.svg	32	yes	57	0	719
6.6.1	win	2022-12-14	16:41:35	16:47:00	324283	5cd063ce657e300016f6c95a	312166575	1	main_slash	7	main_slash	5	stimuli_distractor_diamondtriangles.svg	stimuli_target_squaretriangles.svg	15	yes	53	1	943
6.6.1	win	2022-12-14	16:41:35	16:47:00	324283	5cd063ce657e300016f6c95a	312166575	1	main_slash	7	advance_on_keypress_SLASH	6	stimuli_distractor_diamondtriangles.svg	stimuli_target_squaretriangles.svg	15	yes	57	0	425
6.6.1	win	2022-12-14	16:41:35	16:47:03	326403	5cd063ce657e300016f6c95a	312166575	1	main_slash	7	main_slash	7	stimuli_target_trianglesquares.svg	stimuli_distractor_trianglediamonds.svg	18	yes	53	1	1063
6.6.1	win	2022-12-14	16:41:35	16:47:03	326403	5cd063ce657e300016f6c95a	312166575	1	main_slash	7	advance_on_keypress_SLASH	8	stimuli_target_trianglesquares.svg	stimuli_distractor_trianglediamonds.svg	18	yes	57	0	565
6.6.1	win	2022-12-14	16:41:35	16:47:06	329429	5cd063ce657e300016f6c95a	312166575	1	main_slash	7	main_slash	9	stimuli_distractor_trianglediamonds.svg	stimuli_distractor_diamondtriangles.svg	35	no	53	0	1778
6.6.1	win	2022-12-14	16:41:35	16:47:06	329429	5cd063ce657e300016f6c95a	312166575	1	main_slash	7	advance_on_keypress_SLASH	10	stimuli_distractor_trianglediamonds.svg	stimuli_distractor_diamondtriangles.svg	35	no	57	0	483
6.6.1	win	2022-12-14	16:41:35	16:47:08	331411	5cd063ce657e300016f6c95a	312166575	1	main_slash	7	main_slash	11	stimuli_distractor_trianglediamonds.svg	stimuli_target_circlediamonds.svg	10	yes	53	1	855
6.6.1	win	2022-12-14	16:41:35	16:47:08	331411	5cd063ce657e300016f6c95a	312166575	1	main_slash	7	advance_on_keypress_SLASH	12	stimuli_distractor_trianglediamonds.svg	stimuli_target_circlediamonds.svg	10	yes	57	0	516
6.6.1	win	2022-12-14	16:41:35	16:47:10	333413	5cd063ce657e300016f6c95a	312166575	1	main_slash	7	main_slash	13	stimuli_target_trianglesquares.svg	stimuli_distractor_diamondtriangles.svg	22	yes	53	1	838
6.6.1	win	2022-12-14	16:41:35	16:47:10	333413	5cd063ce657e300016f6c95a	312166575	1	main_slash	7	advance_on_keypress_SLASH	14	stimuli_target_trianglesquares.svg	stimuli_distractor_diamondtriangles.svg	22	yes	57	0	404
6.6.1	win	2022-12-14	16:41:35	16:47:13	336468	5cd063ce657e300016f6c95a	312166575	1	main_slash	7	main_slash	15	stimuli_distractor_diamondtriangles.svg	stimuli_distractor_trianglediamonds.svg	38	no	0	1	2000
6.6.1	win	2022-12-14	16:41:35	16:47:13	336468	5cd063ce657e300016f6c95a	312166575	1	main_slash	7	advance_on_keypress_SLASH	16	stimuli_distractor_diamondtriangles.svg	stimuli_distractor_trianglediamonds.svg	38	no	57	0	641
6.6.1	win	2022-12-14	16:41:35	16:47:15	338548	5cd063ce657e300016f6c95a	312166575	1	main_slash	7	main_slash	17	stimuli_target_trianglecircles.svg	stimuli_distractor_diamondtriangles.svg	21	yes	53	1	790
6.6.1	win	2022-12-14	16:41:35	16:47:15	338548	5cd063ce657e300016f6c95a	312166575	1	main_slash	7	advance_on_keypress_SLASH	18	stimuli_target_trianglecircles.svg	stimuli_distractor_diamondtriangles.svg	21	yes	57	0	526
6.6.1	win	2022-12-14	16:41:35	16:47:17	340904	5cd063ce657e300016f6c95a	312166575	1	main_slash	7	main_slash	19	stimuli_distractor_trianglediamonds.svg	stimuli_target_trianglecircles.svg	25	yes	53	1	1144
6.6.1	win	2022-12-14	16:41:35	16:47:17	340904	5cd063ce657e300016f6c95a	312166575	1	main_slash	7	advance_on_keypress_SLASH	20	stimuli_distractor_trianglediamonds.svg	stimuli_target_trianglecircles.svg	25	yes	57	0	408
6.6.1	win	2022-12-14	16:41:35	16:47:19	342861	5cd063ce657e300016f6c95a	312166575	1	main_slash	7	main_slash	21	stimuli_distractor_trianglediamonds.svg	stimuli_target_diamondsquares.svg	28	yes	53	1	846
6.6.1	win	2022-12-14	16:41:35	16:47:19	342861	5cd063ce657e300016f6c95a	312166575	1	main_slash	7	advance_on_keypress_SLASH	22	stimuli_distractor_trianglediamonds.svg	stimuli_target_diamondsquares.svg	28	yes	57	0	361
6.6.1	win	2022-12-14	16:41:35	16:47:22	345857	5cd063ce657e300016f6c95a	312166575	1	main_slash	7	main_slash	23	stimuli_distractor_trianglediamonds.svg	stimuli_target_circletriangles.svg	9	yes	0	0	2000
6.6.1	win	2022-12-14	16:41:35	16:47:22	345857	5cd063ce657e300016f6c95a	312166575	1	main_slash	7	advance_on_keypress_SLASH	24	stimuli_distractor_trianglediamonds.svg	stimuli_target_circletriangles.svg	9	yes	57	0	416
6.6.1	win	2022-12-14	16:41:35	16:47:24	347700	5cd063ce657e300016f6c95a	312166575	1	main_slash	7	main_slash	25	stimuli_target_squarediamonds.svg	stimuli_distractor_trianglediamonds.svg	4	yes	53	1	775
6.6.1	win	2022-12-14	16:41:35	16:47:24	347700	5cd063ce657e300016f6c95a	312166575	1	main_slash	7	advance_on_keypress_SLASH	26	stimuli_target_squarediamonds.svg	stimuli_distractor_trianglediamonds.svg	4	yes	57	0	480
6.6.1	win	2022-12-14	16:41:35	16:47:26	349586	5cd063ce657e300016f6c95a	312166575	1	main_slash	7	main_slash	27	stimuli_target_diamondcircles.svg	stimuli_distractor_trianglediamonds.svg	19	yes	53	1	732
6.6.1	win	2022-12-14	16:41:35	16:47:26	349586	5cd063ce657e300016f6c95a	312166575	1	main_slash	7	advance_on_keypress_SLASH	28	stimuli_target_diamondcircles.svg	stimuli_distractor_trianglediamonds.svg	19	yes	57	0	405
6.6.1	win	2022-12-14	16:41:35	16:47:29	352664	5cd063ce657e300016f6c95a	312166575	1	main_slash	7	main_slash	29	stimuli_distractor_diamondtriangles.svg	stimuli_distractor_diamondtriangles.svg	40	no	0	1	2000
6.6.1	win	2022-12-14	16:41:35	16:47:29	352664	5cd063ce657e300016f6c95a	312166575	1	main_slash	7	advance_on_keypress_SLASH	30	stimuli_distractor_diamondtriangles.svg	stimuli_distractor_diamondtriangles.svg	40	no	57	0	505
6.6.1	win	2022-12-14	16:41:35	16:47:31	354627	5cd063ce657e300016f6c95a	312166575	1	main_slash	7	main_slash	31	stimuli_target_circlediamonds.svg	stimuli_distractor_trianglediamonds.svg	2	yes	53	1	819
6.6.1	win	2022-12-14	16:41:35	16:47:31	354627	5cd063ce657e300016f6c95a	312166575	1	main_slash	7	advance_on_keypress_SLASH	32	stimuli_target_circlediamonds.svg	stimuli_distractor_trianglediamonds.svg	2	yes	57	0	418
6.6.1	win	2022-12-14	16:41:35	16:47:33	356483	5cd063ce657e300016f6c95a	312166575	1	main_slash	7	main_slash	33	stimuli_distractor_trianglediamonds.svg	stimuli_target_squaretriangles.svg	11	yes	53	1	736
6.6.1	win	2022-12-14	16:41:35	16:47:33	356483	5cd063ce657e300016f6c95a	312166575	1	main_slash	7	advance_on_keypress_SLASH	34	stimuli_distractor_trianglediamonds.svg	stimuli_target_squaretriangles.svg	11	yes	57	0	576
6.6.1	win	2022-12-14	16:41:35	16:47:35	358967	5cd063ce657e300016f6c95a	312166575	1	main_slash	7	main_slash	35	stimuli_distractor_diamondtriangles.svg	stimuli_target_diamondcircles.svg	31	yes	53	1	1249
6.6.1	win	2022-12-14	16:41:35	16:47:35	358967	5cd063ce657e300016f6c95a	312166575	1	main_slash	7	advance_on_keypress_SLASH	36	stimuli_distractor_diamondtriangles.svg	stimuli_target_diamondcircles.svg	31	yes	57	0	461
6.6.1	win	2022-12-14	16:41:35	16:47:37	360876	5cd063ce657e300016f6c95a	312166575	1	main_slash	7	main_slash	37	stimuli_distractor_diamondtriangles.svg	stimuli_target_trianglecircles.svg	29	yes	53	1	818
6.6.1	win	2022-12-14	16:41:35	16:47:37	360876	5cd063ce657e300016f6c95a	312166575	1	main_slash	7	advance_on_keypress_SLASH	38	stimuli_distractor_diamondtriangles.svg	stimuli_target_trianglecircles.svg	29	yes	57	0	632
6.6.1	win	2022-12-14	16:41:35	16:47:40	364158	5cd063ce657e300016f6c95a	312166575	1	main_slash	7	main_slash	39	stimuli_target_circletriangles.svg	stimuli_distractor_trianglediamonds.svg	1	yes	0	0	2000
6.6.1	win	2022-12-14	16:41:35	16:47:40	364158	5cd063ce657e300016f6c95a	312166575	1	main_slash	7	advance_on_keypress_SLASH	40	stimuli_target_circletriangles.svg	stimuli_distractor_trianglediamonds.svg	1	yes	57	0	429
6.6.1	win	2022-12-14	16:41:35	16:47:42	366116	5cd063ce657e300016f6c95a	312166575	1	main_slash	7	main_slash	41	stimuli_target_squaretriangles.svg	stimuli_distractor_trianglediamonds.svg	3	yes	53	1	891
6.6.1	win	2022-12-14	16:41:35	16:47:42	366116	5cd063ce657e300016f6c95a	312166575	1	main_slash	7	advance_on_keypress_SLASH	42	stimuli_target_squaretriangles.svg	stimuli_distractor_trianglediamonds.svg	3	yes	57	0	926
6.6.1	win	2022-12-14	16:41:35	16:47:45	368588	5cd063ce657e300016f6c95a	312166575	1	main_slash	7	main_slash	43	stimuli_distractor_diamondtriangles.svg	stimuli_target_circlediamonds.svg	14	yes	53	1	879
6.6.1	win	2022-12-14	16:41:35	16:47:45	368588	5cd063ce657e300016f6c95a	312166575	1	main_slash	7	advance_on_keypress_SLASH	44	stimuli_distractor_diamondtriangles.svg	stimuli_target_circlediamonds.svg	14	yes	57	0	604
6.6.1	win	2022-12-14	16:41:35	16:47:47	370867	5cd063ce657e300016f6c95a	312166575	1	main_slash	7	main_slash	45	stimuli_distractor_trianglediamonds.svg	stimuli_target_diamondcircles.svg	27	yes	53	1	1043
6.6.1	win	2022-12-14	16:41:35	16:47:47	370867	5cd063ce657e300016f6c95a	312166575	1	main_slash	7	advance_on_keypress_SLASH	46	stimuli_distractor_trianglediamonds.svg	stimuli_target_diamondcircles.svg	27	yes	57	0	473
6.6.1	win	2022-12-14	16:41:35	16:47:50	373403	5cd063ce657e300016f6c95a	312166575	1	main_slash	7	main_slash	47	stimuli_distractor_trianglediamonds.svg	stimuli_distractor_trianglediamonds.svg	33	no	53	0	1362
6.6.1	win	2022-12-14	16:41:35	16:47:50	373403	5cd063ce657e300016f6c95a	312166575	1	main_slash	7	advance_on_keypress_SLASH	48	stimuli_distractor_trianglediamonds.svg	stimuli_distractor_trianglediamonds.svg	33	no	57	0	451
6.6.1	win	2022-12-14	16:41:35	16:47:52	375335	5cd063ce657e300016f6c95a	312166575	1	main_slash	7	main_slash	49	stimuli_distractor_diamondtriangles.svg	stimuli_target_circletriangles.svg	13	yes	53	1	782
6.6.1	win	2022-12-14	16:41:35	16:47:52	375335	5cd063ce657e300016f6c95a	312166575	1	main_slash	7	advance_on_keypress_SLASH	50	stimuli_distractor_diamondtriangles.svg	stimuli_target_circletriangles.svg	13	yes	57	0	437
6.6.1	win	2022-12-14	16:41:35	16:47:54	377431	5cd063ce657e300016f6c95a	312166575	1	main_slash	7	main_slash	51	stimuli_target_diamondsquares.svg	stimuli_distractor_diamondtriangles.svg	24	yes	53	1	995
6.6.1	win	2022-12-14	16:41:35	16:47:54	377431	5cd063ce657e300016f6c95a	312166575	1	main_slash	7	advance_on_keypress_SLASH	52	stimuli_target_diamondsquares.svg	stimuli_distractor_diamondtriangles.svg	24	yes	57	0	378
6.6.1	win	2022-12-14	16:41:35	16:47:55	379268	5cd063ce657e300016f6c95a	312166575	1	main_slash	7	main_slash	53	stimuli_distractor_trianglediamonds.svg	stimuli_target_trianglesquares.svg	26	yes	53	1	826
6.6.1	win	2022-12-14	16:41:35	16:47:55	379268	5cd063ce657e300016f6c95a	312166575	1	main_slash	7	advance_on_keypress_SLASH	54	stimuli_distractor_trianglediamonds.svg	stimuli_target_trianglesquares.svg	26	yes	57	0	456
6.6.1	win	2022-12-14	16:41:35	16:47:57	381182	5cd063ce657e300016f6c95a	312166575	1	main_slash	7	main_slash	55	stimuli_distractor_diamondtriangles.svg	stimuli_target_trianglesquares.svg	30	yes	53	1	809
6.6.1	win	2022-12-14	16:41:35	16:47:57	381182	5cd063ce657e300016f6c95a	312166575	1	main_slash	7	advance_on_keypress_SLASH	56	stimuli_distractor_diamondtriangles.svg	stimuli_target_trianglesquares.svg	30	yes	57	0	459
6.6.1	win	2022-12-14	16:41:35	16:47:59	383133	5cd063ce657e300016f6c95a	312166575	1	main_slash	7	main_slash	57	stimuli_target_circlediamonds.svg	stimuli_distractor_diamondtriangles.svg	6	yes	53	1	758
6.6.1	win	2022-12-14	16:41:35	16:47:59	383133	5cd063ce657e300016f6c95a	312166575	1	main_slash	7	advance_on_keypress_SLASH	58	stimuli_target_circlediamonds.svg	stimuli_distractor_diamondtriangles.svg	6	yes	57	0	430
6.6.1	win	2022-12-14	16:41:35	16:48:01	384988	5cd063ce657e300016f6c95a	312166575	1	main_slash	7	main_slash	59	stimuli_target_diamondcircles.svg	stimuli_distractor_diamondtriangles.svg	23	yes	53	1	764
6.6.1	win	2022-12-14	16:41:35	16:48:01	384988	5cd063ce657e300016f6c95a	312166575	1	main_slash	7	advance_on_keypress_SLASH	60	stimuli_target_diamondcircles.svg	stimuli_distractor_diamondtriangles.svg	23	yes	57	0	387
6.6.1	win	2022-12-14	16:41:35	16:48:03	386835	5cd063ce657e300016f6c95a	312166575	1	main_slash	7	main_slash	61	stimuli_target_diamondsquares.svg	stimuli_distractor_trianglediamonds.svg	20	yes	53	1	761
6.6.1	win	2022-12-14	16:41:35	16:48:03	386835	5cd063ce657e300016f6c95a	312166575	1	main_slash	7	advance_on_keypress_SLASH	62	stimuli_target_diamondsquares.svg	stimuli_distractor_trianglediamonds.svg	20	yes	57	0	385
6.6.1	win	2022-12-14	16:41:35	16:48:05	388666	5cd063ce657e300016f6c95a	312166575	1	main_slash	7	main_slash	63	stimuli_target_squarediamonds.svg	stimuli_distractor_diamondtriangles.svg	8	yes	53	1	767
6.6.1	win	2022-12-14	16:41:35	16:48:05	388666	5cd063ce657e300016f6c95a	312166575	1	main_slash	7	advance_on_keypress_SLASH	64	stimuli_target_squarediamonds.svg	stimuli_distractor_diamondtriangles.svg	8	yes	57	0	360
6.6.1	win	2022-12-14	16:41:35	16:48:07	390468	5cd063ce657e300016f6c95a	312166575	1	main_slash	7	main_slash	65	stimuli_target_trianglecircles.svg	stimuli_distractor_trianglediamonds.svg	17	yes	53	1	800
6.6.1	win	2022-12-14	16:41:35	16:48:07	390468	5cd063ce657e300016f6c95a	312166575	1	main_slash	7	advance_on_keypress_SLASH	66	stimuli_target_trianglecircles.svg	stimuli_distractor_trianglediamonds.svg	17	yes	57	0	464
6.6.1	win	2022-12-14	16:41:35	16:48:09	392330	5cd063ce657e300016f6c95a	312166575	1	main_slash	7	main_slash	67	stimuli_distractor_diamondtriangles.svg	stimuli_target_squarediamonds.svg	16	yes	53	1	725
6.6.1	win	2022-12-14	16:41:35	16:48:09	392330	5cd063ce657e300016f6c95a	312166575	1	main_slash	7	advance_on_keypress_SLASH	68	stimuli_distractor_diamondtriangles.svg	stimuli_target_squarediamonds.svg	16	yes	57	0	373
6.6.1	win	2022-12-14	16:41:35	16:48:12	395376	5cd063ce657e300016f6c95a	312166575	1	main_slash	7	main_slash	69	stimuli_distractor_trianglediamonds.svg	stimuli_distractor_trianglediamonds.svg	34	no	0	1	2000
6.6.1	win	2022-12-14	16:41:35	16:48:12	395376	5cd063ce657e300016f6c95a	312166575	1	main_slash	7	advance_on_keypress_SLASH	70	stimuli_distractor_trianglediamonds.svg	stimuli_distractor_trianglediamonds.svg	34	no	57	0	531
6.6.1	win	2022-12-14	16:41:35	16:48:15	398559	5cd063ce657e300016f6c95a	312166575	1	main_slash	7	main_slash	71	stimuli_distractor_trianglediamonds.svg	stimuli_distractor_diamondtriangles.svg	36	no	0	1	2000
6.6.1	win	2022-12-14	16:41:35	16:48:15	398559	5cd063ce657e300016f6c95a	312166575	1	main_slash	7	advance_on_keypress_SLASH	72	stimuli_distractor_trianglediamonds.svg	stimuli_distractor_diamondtriangles.svg	36	no	57	0	468
6.6.1	win	2022-12-14	16:41:35	16:48:17	400491	5cd063ce657e300016f6c95a	312166575	1	main_slash	7	main_slash	73	stimuli_target_circletriangles.svg	stimuli_distractor_diamondtriangles.svg	5	yes	53	1	766
6.6.1	win	2022-12-14	16:41:35	16:48:17	400491	5cd063ce657e300016f6c95a	312166575	1	main_slash	7	advance_on_keypress_SLASH	74	stimuli_target_circletriangles.svg	stimuli_distractor_diamondtriangles.svg	5	yes	57	0	311
6.6.1	win	2022-12-14	16:41:35	16:48:18	402196	5cd063ce657e300016f6c95a	312166575	1	main_slash	7	main_slash	75	stimuli_target_squaretriangles.svg	stimuli_distractor_diamondtriangles.svg	7	yes	53	1	770
6.6.1	win	2022-12-14	16:41:35	16:48:18	402196	5cd063ce657e300016f6c95a	312166575	1	main_slash	7	advance_on_keypress_SLASH	76	stimuli_target_squaretriangles.svg	stimuli_distractor_diamondtriangles.svg	7	yes	57	0	362
6.6.1	win	2022-12-14	16:41:35	16:48:20	403820	5cd063ce657e300016f6c95a	312166575	1	main_slash	7	main_slash	77	stimuli_distractor_trianglediamonds.svg	stimuli_target_squarediamonds.svg	12	yes	53	1	594
6.6.1	win	2022-12-14	16:41:35	16:48:20	403820	5cd063ce657e300016f6c95a	312166575	1	main_slash	7	advance_on_keypress_SLASH	78	stimuli_distractor_trianglediamonds.svg	stimuli_target_squarediamonds.svg	12	yes	57	0	474
6.6.1	win	2022-12-14	16:41:35	16:48:23	406963	5cd063ce657e300016f6c95a	312166575	1	main_slash	7	main_slash	79	stimuli_distractor_diamondtriangles.svg	stimuli_distractor_trianglediamonds.svg	37	no	0	1	2000
6.6.1	win	2022-12-14	16:41:35	16:48:23	406963	5cd063ce657e300016f6c95a	312166575	1	main_slash	7	advance_on_keypress_SLASH	80	stimuli_distractor_diamondtriangles.svg	stimuli_distractor_trianglediamonds.svg	37	no	57	0	532
6.6.1	win	2022-12-14	16:41:35	16:48:25	408995	5cd063ce657e300016f6c95a	312166575	1	main_slash	7	main_slash	81	stimuli_target_trianglesquares.svg	stimuli_distractor_trianglediamonds.svg	18	yes	53	1	836
6.6.1	win	2022-12-14	16:41:35	16:48:25	408995	5cd063ce657e300016f6c95a	312166575	1	main_slash	7	advance_on_keypress_SLASH	82	stimuli_target_trianglesquares.svg	stimuli_distractor_trianglediamonds.svg	18	yes	57	0	434
6.6.1	win	2022-12-14	16:41:35	16:48:28	412127	5cd063ce657e300016f6c95a	312166575	1	main_slash	7	main_slash	83	stimuli_distractor_trianglediamonds.svg	stimuli_distractor_diamondtriangles.svg	35	no	0	1	2000
6.6.1	win	2022-12-14	16:41:35	16:48:28	412127	5cd063ce657e300016f6c95a	312166575	1	main_slash	7	advance_on_keypress_SLASH	84	stimuli_distractor_trianglediamonds.svg	stimuli_distractor_diamondtriangles.svg	35	no	57	0	413
6.6.1	win	2022-12-14	16:41:35	16:48:30	414284	5cd063ce657e300016f6c95a	312166575	1	main_slash	7	main_slash	85	stimuli_target_diamondcircles.svg	stimuli_distractor_diamondtriangles.svg	23	yes	53	1	1057
6.6.1	win	2022-12-14	16:41:35	16:48:30	414284	5cd063ce657e300016f6c95a	312166575	1	main_slash	7	advance_on_keypress_SLASH	86	stimuli_target_diamondcircles.svg	stimuli_distractor_diamondtriangles.svg	23	yes	57	0	399
6.6.1	win	2022-12-14	16:41:35	16:48:32	416111	5cd063ce657e300016f6c95a	312166575	1	main_slash	7	main_slash	87	stimuli_distractor_diamondtriangles.svg	stimuli_target_diamondcircles.svg	31	yes	53	1	773
6.6.1	win	2022-12-14	16:41:35	16:48:32	416111	5cd063ce657e300016f6c95a	312166575	1	main_slash	7	advance_on_keypress_SLASH	88	stimuli_distractor_diamondtriangles.svg	stimuli_target_diamondcircles.svg	31	yes	57	0	413
6.6.1	win	2022-12-14	16:41:35	16:48:35	418604	5cd063ce657e300016f6c95a	312166575	1	main_slash	7	main_slash	89	stimuli_distractor_trianglediamonds.svg	stimuli_target_circletriangles.svg	9	yes	53	1	1444
6.6.1	win	2022-12-14	16:41:35	16:48:35	418604	5cd063ce657e300016f6c95a	312166575	1	main_slash	7	advance_on_keypress_SLASH	90	stimuli_distractor_trianglediamonds.svg	stimuli_target_circletriangles.svg	9	yes	57	0	434
6.6.1	win	2022-12-14	16:41:35	16:48:38	421738	5cd063ce657e300016f6c95a	312166575	1	main_slash	7	main_slash	91	stimuli_distractor_diamondtriangles.svg	stimuli_distractor_diamondtriangles.svg	39	no	0	1	2000
6.6.1	win	2022-12-14	16:41:35	16:48:38	421738	5cd063ce657e300016f6c95a	312166575	1	main_slash	7	advance_on_keypress_SLASH	92	stimuli_distractor_diamondtriangles.svg	stimuli_distractor_diamondtriangles.svg	39	no	57	0	572
6.6.1	win	2022-12-14	16:41:35	16:48:40	423747	5cd063ce657e300016f6c95a	312166575	1	main_slash	7	main_slash	93	stimuli_target_trianglesquares.svg	stimuli_distractor_diamondtriangles.svg	22	yes	53	1	804
6.6.1	win	2022-12-14	16:41:35	16:48:40	423747	5cd063ce657e300016f6c95a	312166575	1	main_slash	7	advance_on_keypress_SLASH	94	stimuli_target_trianglesquares.svg	stimuli_distractor_diamondtriangles.svg	22	yes	57	0	412
6.6.1	win	2022-12-14	16:41:35	16:48:42	425680	5cd063ce657e300016f6c95a	312166575	1	main_slash	7	main_slash	95	stimuli_distractor_trianglediamonds.svg	stimuli_target_diamondcircles.svg	27	yes	53	1	830
6.6.1	win	2022-12-14	16:41:35	16:48:42	425680	5cd063ce657e300016f6c95a	312166575	1	main_slash	7	advance_on_keypress_SLASH	96	stimuli_distractor_trianglediamonds.svg	stimuli_target_diamondcircles.svg	27	yes	57	0	350
6.6.1	win	2022-12-14	16:41:35	16:48:45	428677	5cd063ce657e300016f6c95a	312166575	1	main_slash	7	main_slash	97	stimuli_distractor_trianglediamonds.svg	stimuli_distractor_trianglediamonds.svg	34	no	0	1	2000
6.6.1	win	2022-12-14	16:41:35	16:48:45	428677	5cd063ce657e300016f6c95a	312166575	1	main_slash	7	advance_on_keypress_SLASH	98	stimuli_distractor_trianglediamonds.svg	stimuli_distractor_trianglediamonds.svg	34	no	57	0	542
6.6.1	win	2022-12-14	16:41:35	16:48:47	430619	5cd063ce657e300016f6c95a	312166575	1	main_slash	7	main_slash	99	stimuli_target_circletriangles.svg	stimuli_distractor_diamondtriangles.svg	5	yes	53	1	759
6.6.1	win	2022-12-14	16:41:35	16:48:47	430619	5cd063ce657e300016f6c95a	312166575	1	main_slash	7	advance_on_keypress_SLASH	100	stimuli_target_circletriangles.svg	stimuli_distractor_diamondtriangles.svg	5	yes	57	0	441
6.6.1	win	2022-12-14	16:41:35	16:48:49	432508	5cd063ce657e300016f6c95a	312166575	1	main_slash	7	main_slash	101	stimuli_distractor_trianglediamonds.svg	stimuli_target_trianglesquares.svg	26	yes	53	1	773
6.6.1	win	2022-12-14	16:41:35	16:48:49	432508	5cd063ce657e300016f6c95a	312166575	1	main_slash	7	advance_on_keypress_SLASH	102	stimuli_distractor_trianglediamonds.svg	stimuli_target_trianglesquares.svg	26	yes	57	0	437
6.6.1	win	2022-12-14	16:41:35	16:48:51	434315	5cd063ce657e300016f6c95a	312166575	1	main_slash	7	main_slash	103	stimuli_distractor_diamondtriangles.svg	stimuli_target_squarediamonds.svg	16	yes	53	1	739
6.6.1	win	2022-12-14	16:41:35	16:48:51	434315	5cd063ce657e300016f6c95a	312166575	1	main_slash	7	advance_on_keypress_SLASH	104	stimuli_distractor_diamondtriangles.svg	stimuli_target_squarediamonds.svg	16	yes	57	0	413
6.6.1	win	2022-12-14	16:41:35	16:48:52	436139	5cd063ce657e300016f6c95a	312166575	1	main_slash	7	main_slash	105	stimuli_target_circletriangles.svg	stimuli_distractor_trianglediamonds.svg	1	yes	53	1	745
6.6.1	win	2022-12-14	16:41:35	16:48:52	436139	5cd063ce657e300016f6c95a	312166575	1	main_slash	7	advance_on_keypress_SLASH	106	stimuli_target_circletriangles.svg	stimuli_distractor_trianglediamonds.svg	1	yes	57	0	420
6.6.1	win	2022-12-14	16:41:35	16:48:54	437852	5cd063ce657e300016f6c95a	312166575	1	main_slash	7	main_slash	107	stimuli_target_trianglecircles.svg	stimuli_distractor_diamondtriangles.svg	21	yes	53	1	658
6.6.1	win	2022-12-14	16:41:35	16:48:54	437852	5cd063ce657e300016f6c95a	312166575	1	main_slash	7	advance_on_keypress_SLASH	108	stimuli_target_trianglecircles.svg	stimuli_distractor_diamondtriangles.svg	21	yes	57	0	503
6.6.1	win	2022-12-14	16:41:35	16:48:56	439620	5cd063ce657e300016f6c95a	312166575	1	main_slash	7	main_slash	109	stimuli_distractor_diamondtriangles.svg	stimuli_target_trianglecircles.svg	29	yes	53	1	568
6.6.1	win	2022-12-14	16:41:35	16:48:56	439620	5cd063ce657e300016f6c95a	312166575	1	main_slash	7	advance_on_keypress_SLASH	110	stimuli_distractor_diamondtriangles.svg	stimuli_target_trianglecircles.svg	29	yes	57	0	416
6.6.1	win	2022-12-14	16:41:35	16:48:57	441236	5cd063ce657e300016f6c95a	312166575	1	main_slash	7	main_slash	111	stimuli_target_circlediamonds.svg	stimuli_distractor_trianglediamonds.svg	2	yes	53	1	550
6.6.1	win	2022-12-14	16:41:35	16:48:57	441236	5cd063ce657e300016f6c95a	312166575	1	main_slash	7	advance_on_keypress_SLASH	112	stimuli_target_circlediamonds.svg	stimuli_distractor_trianglediamonds.svg	2	yes	57	0	352
6.6.1	win	2022-12-14	16:41:35	16:48:59	442854	5cd063ce657e300016f6c95a	312166575	1	main_slash	7	main_slash	113	stimuli_target_diamondcircles.svg	stimuli_distractor_trianglediamonds.svg	19	yes	53	1	592
6.6.1	win	2022-12-14	16:41:35	16:48:59	442854	5cd063ce657e300016f6c95a	312166575	1	main_slash	7	advance_on_keypress_SLASH	114	stimuli_target_diamondcircles.svg	stimuli_distractor_trianglediamonds.svg	19	yes	57	0	311
6.6.1	win	2022-12-14	16:41:35	16:49:01	444340	5cd063ce657e300016f6c95a	312166575	1	main_slash	7	main_slash	115	stimuli_target_squaretriangles.svg	stimuli_distractor_diamondtriangles.svg	7	yes	53	1	546
6.6.1	win	2022-12-14	16:41:35	16:49:01	444340	5cd063ce657e300016f6c95a	312166575	1	main_slash	7	advance_on_keypress_SLASH	116	stimuli_target_squaretriangles.svg	stimuli_distractor_diamondtriangles.svg	7	yes	57	0	332
6.6.1	win	2022-12-14	16:41:35	16:49:02	445884	5cd063ce657e300016f6c95a	312166575	1	main_slash	7	main_slash	117	stimuli_target_diamondsquares.svg	stimuli_distractor_diamondtriangles.svg	24	yes	53	1	573
6.6.1	win	2022-12-14	16:41:35	16:49:02	445884	5cd063ce657e300016f6c95a	312166575	1	main_slash	7	advance_on_keypress_SLASH	118	stimuli_target_diamondsquares.svg	stimuli_distractor_diamondtriangles.svg	24	yes	57	0	222
6.6.1	win	2022-12-14	16:41:35	16:49:04	448076	5cd063ce657e300016f6c95a	312166575	1	main_slash	7	main_slash	119	stimuli_distractor_trianglediamonds.svg	stimuli_distractor_trianglediamonds.svg	33	no	53	0	1273
6.6.1	win	2022-12-14	16:41:35	16:49:04	448076	5cd063ce657e300016f6c95a	312166575	1	main_slash	7	advance_on_keypress_SLASH	120	stimuli_distractor_trianglediamonds.svg	stimuli_distractor_trianglediamonds.svg	33	no	57	0	350
6.6.1	win	2022-12-14	16:41:35	16:49:06	449895	5cd063ce657e300016f6c95a	312166575	1	main_slash	7	main_slash	121	stimuli_distractor_diamondtriangles.svg	stimuli_target_circletriangles.svg	13	yes	53	1	781
6.6.1	win	2022-12-14	16:41:35	16:49:06	449895	5cd063ce657e300016f6c95a	312166575	1	main_slash	7	advance_on_keypress_SLASH	122	stimuli_distractor_diamondtriangles.svg	stimuli_target_circletriangles.svg	13	yes	57	0	269
6.6.1	win	2022-12-14	16:41:35	16:49:08	451467	5cd063ce657e300016f6c95a	312166575	1	main_slash	7	main_slash	123	stimuli_distractor_diamondtriangles.svg	stimuli_target_trianglesquares.svg	30	yes	53	1	657
6.6.1	win	2022-12-14	16:41:35	16:49:08	451467	5cd063ce657e300016f6c95a	312166575	1	main_slash	7	advance_on_keypress_SLASH	124	stimuli_distractor_diamondtriangles.svg	stimuli_target_trianglesquares.svg	30	yes	57	0	270
6.6.1	win	2022-12-14	16:41:35	16:49:11	454383	5cd063ce657e300016f6c95a	312166575	1	main_slash	7	main_slash	125	stimuli_distractor_diamondtriangles.svg	stimuli_distractor_trianglediamonds.svg	37	no	0	1	2000
6.6.1	win	2022-12-14	16:41:35	16:49:11	454383	5cd063ce657e300016f6c95a	312166575	1	main_slash	7	advance_on_keypress_SLASH	126	stimuli_distractor_diamondtriangles.svg	stimuli_distractor_trianglediamonds.svg	37	no	57	0	321
6.6.1	win	2022-12-14	16:41:35	16:49:12	455947	5cd063ce657e300016f6c95a	312166575	1	main_slash	7	main_slash	127	stimuli_target_circlediamonds.svg	stimuli_distractor_diamondtriangles.svg	6	yes	53	1	511
6.6.1	win	2022-12-14	16:41:35	16:49:12	455947	5cd063ce657e300016f6c95a	312166575	1	main_slash	7	advance_on_keypress_SLASH	128	stimuli_target_circlediamonds.svg	stimuli_distractor_diamondtriangles.svg	6	yes	57	0	283
6.6.1	win	2022-12-14	16:41:35	16:49:14	457394	5cd063ce657e300016f6c95a	312166575	1	main_slash	7	main_slash	129	stimuli_distractor_diamondtriangles.svg	stimuli_target_diamondsquares.svg	32	yes	53	1	502
6.6.1	win	2022-12-14	16:41:35	16:49:14	457394	5cd063ce657e300016f6c95a	312166575	1	main_slash	7	advance_on_keypress_SLASH	130	stimuli_distractor_diamondtriangles.svg	stimuli_target_diamondsquares.svg	32	yes	57	0	265
6.6.1	win	2022-12-14	16:41:35	16:49:17	460309	5cd063ce657e300016f6c95a	312166575	1	main_slash	7	main_slash	131	stimuli_distractor_diamondtriangles.svg	stimuli_distractor_diamondtriangles.svg	40	no	0	1	2000
6.6.1	win	2022-12-14	16:41:35	16:49:17	460309	5cd063ce657e300016f6c95a	312166575	1	main_slash	7	advance_on_keypress_SLASH	132	stimuli_distractor_diamondtriangles.svg	stimuli_distractor_diamondtriangles.svg	40	no	57	0	341
6.6.1	win	2022-12-14	16:41:35	16:49:18	461857	5cd063ce657e300016f6c95a	312166575	1	main_slash	7	main_slash	133	stimuli_distractor_diamondtriangles.svg	stimuli_target_circlediamonds.svg	14	yes	53	1	510
6.6.1	win	2022-12-14	16:41:35	16:49:18	461857	5cd063ce657e300016f6c95a	312166575	1	main_slash	7	advance_on_keypress_SLASH	134	stimuli_distractor_diamondtriangles.svg	stimuli_target_circlediamonds.svg	14	yes	57	0	342
6.6.1	win	2022-12-14	16:41:35	16:49:20	463443	5cd063ce657e300016f6c95a	312166575	1	main_slash	7	main_slash	135	stimuli_target_squarediamonds.svg	stimuli_distractor_diamondtriangles.svg	8	yes	53	1	598
6.6.1	win	2022-12-14	16:41:35	16:49:20	463443	5cd063ce657e300016f6c95a	312166575	1	main_slash	7	advance_on_keypress_SLASH	136	stimuli_target_squarediamonds.svg	stimuli_distractor_diamondtriangles.svg	8	yes	57	0	334
6.6.1	win	2022-12-14	16:41:35	16:49:21	465108	5cd063ce657e300016f6c95a	312166575	1	main_slash	7	main_slash	137	stimuli_distractor_trianglediamonds.svg	stimuli_target_diamondsquares.svg	28	yes	53	1	646
6.6.1	win	2022-12-14	16:41:35	16:49:21	465108	5cd063ce657e300016f6c95a	312166575	1	main_slash	7	advance_on_keypress_SLASH	138	stimuli_distractor_trianglediamonds.svg	stimuli_target_diamondsquares.svg	28	yes	57	0	380
6.6.1	win	2022-12-14	16:41:35	16:49:24	468111	5cd063ce657e300016f6c95a	312166575	1	main_slash	7	main_slash	139	stimuli_target_squaretriangles.svg	stimuli_distractor_trianglediamonds.svg	3	yes	0	0	2000
6.6.1	win	2022-12-14	16:41:35	16:49:24	468111	5cd063ce657e300016f6c95a	312166575	1	main_slash	7	advance_on_keypress_SLASH	140	stimuli_target_squaretriangles.svg	stimuli_distractor_trianglediamonds.svg	3	yes	57	0	540
6.6.1	win	2022-12-14	16:41:35	16:49:26	470301	5cd063ce657e300016f6c95a	312166575	1	main_slash	7	main_slash	141	stimuli_distractor_trianglediamonds.svg	stimuli_target_squarediamonds.svg	12	yes	53	1	933
6.6.1	win	2022-12-14	16:41:35	16:49:26	470301	5cd063ce657e300016f6c95a	312166575	1	main_slash	7	advance_on_keypress_SLASH	142	stimuli_distractor_trianglediamonds.svg	stimuli_target_squarediamonds.svg	12	yes	57	0	260
6.6.1	win	2022-12-14	16:41:35	16:49:28	471989	5cd063ce657e300016f6c95a	312166575	1	main_slash	7	main_slash	143	stimuli_distractor_trianglediamonds.svg	stimuli_target_trianglecircles.svg	25	yes	53	1	776
6.6.1	win	2022-12-14	16:41:35	16:49:28	471989	5cd063ce657e300016f6c95a	312166575	1	main_slash	7	advance_on_keypress_SLASH	144	stimuli_distractor_trianglediamonds.svg	stimuli_target_trianglecircles.svg	25	yes	57	0	273
6.6.1	win	2022-12-14	16:41:35	16:49:30	473537	5cd063ce657e300016f6c95a	312166575	1	main_slash	7	main_slash	145	stimuli_distractor_trianglediamonds.svg	stimuli_target_circlediamonds.svg	10	yes	53	1	629
6.6.1	win	2022-12-14	16:41:35	16:49:30	473537	5cd063ce657e300016f6c95a	312166575	1	main_slash	7	advance_on_keypress_SLASH	146	stimuli_distractor_trianglediamonds.svg	stimuli_target_circlediamonds.svg	10	yes	57	0	299
6.6.1	win	2022-12-14	16:41:35	16:49:31	475084	5cd063ce657e300016f6c95a	312166575	1	main_slash	7	main_slash	147	stimuli_target_diamondsquares.svg	stimuli_distractor_trianglediamonds.svg	20	yes	53	1	563
6.6.1	win	2022-12-14	16:41:35	16:49:31	475084	5cd063ce657e300016f6c95a	312166575	1	main_slash	7	advance_on_keypress_SLASH	148	stimuli_target_diamondsquares.svg	stimuli_distractor_trianglediamonds.svg	20	yes	57	0	285
6.6.1	win	2022-12-14	16:41:35	16:49:33	476633	5cd063ce657e300016f6c95a	312166575	1	main_slash	7	main_slash	149	stimuli_target_squarediamonds.svg	stimuli_distractor_trianglediamonds.svg	4	yes	53	1	592
6.6.1	win	2022-12-14	16:41:35	16:49:33	476633	5cd063ce657e300016f6c95a	312166575	1	main_slash	7	advance_on_keypress_SLASH	150	stimuli_target_squarediamonds.svg	stimuli_distractor_trianglediamonds.svg	4	yes	57	0	279
6.6.1	win	2022-12-14	16:41:35	16:49:34	478108	5cd063ce657e300016f6c95a	312166575	1	main_slash	7	main_slash	151	stimuli_distractor_diamondtriangles.svg	stimuli_target_squaretriangles.svg	15	yes	53	1	563
6.6.1	win	2022-12-14	16:41:35	16:49:34	478108	5cd063ce657e300016f6c95a	312166575	1	main_slash	7	advance_on_keypress_SLASH	152	stimuli_distractor_diamondtriangles.svg	stimuli_target_squaretriangles.svg	15	yes	57	0	228
6.6.1	win	2022-12-14	16:41:35	16:49:37	480348	5cd063ce657e300016f6c95a	312166575	1	main_slash	7	main_slash	153	stimuli_distractor_diamondtriangles.svg	stimuli_distractor_trianglediamonds.svg	38	no	53	0	1386
6.6.1	win	2022-12-14	16:41:35	16:49:37	480348	5cd063ce657e300016f6c95a	312166575	1	main_slash	7	advance_on_keypress_SLASH	154	stimuli_distractor_diamondtriangles.svg	stimuli_distractor_trianglediamonds.svg	38	no	57	0	178
6.6.1	win	2022-12-14	16:41:35	16:49:38	481748	5cd063ce657e300016f6c95a	312166575	1	main_slash	7	main_slash	155	stimuli_target_trianglecircles.svg	stimuli_distractor_trianglediamonds.svg	17	yes	53	1	586
6.6.1	win	2022-12-14	16:41:35	16:49:38	481748	5cd063ce657e300016f6c95a	312166575	1	main_slash	7	advance_on_keypress_SLASH	156	stimuli_target_trianglecircles.svg	stimuli_distractor_trianglediamonds.svg	17	yes	57	0	250
6.6.1	win	2022-12-14	16:41:35	16:49:41	484658	5cd063ce657e300016f6c95a	312166575	1	main_slash	7	main_slash	157	stimuli_distractor_trianglediamonds.svg	stimuli_distractor_diamondtriangles.svg	36	no	0	1	2000
6.6.1	win	2022-12-14	16:41:35	16:49:41	484658	5cd063ce657e300016f6c95a	312166575	1	main_slash	7	advance_on_keypress_SLASH	158	stimuli_distractor_trianglediamonds.svg	stimuli_distractor_diamondtriangles.svg	36	no	57	0	286
6.6.1	win	2022-12-14	16:41:35	16:49:42	486276	5cd063ce657e300016f6c95a	312166575	1	main_slash	7	main_slash	159	stimuli_distractor_trianglediamonds.svg	stimuli_target_squaretriangles.svg	11	yes	53	1	697
6.6.1	win	2022-12-14	16:41:35	16:49:42	486276	5cd063ce657e300016f6c95a	312166575	1	main_slash	7	advance_on_keypress_SLASH	160	stimuli_distractor_trianglediamonds.svg	stimuli_target_squaretriangles.svg	11	yes	57	0	348
6.6.1	win	2022-12-14	16:41:35	16:50:01	504829	5cd063ce657e300016f6c95a	312166575	1	practice_z	9	practice_z	1	stimuli_target_squarediamonds.svg	stimuli_distractor_trianglediamonds.svg	5	yes	44	1	632
6.6.1	win	2022-12-14	16:41:35	16:50:01	504829	5cd063ce657e300016f6c95a	312166575	1	practice_z	9	advance_on_keypress_ZEE	2	stimuli_target_squarediamonds.svg	stimuli_distractor_trianglediamonds.svg	5	yes	57	0	478
6.6.1	win	2022-12-14	16:41:35	16:50:04	507509	5cd063ce657e300016f6c95a	312166575	1	practice_z	9	practice_z	3	stimuli_target_diamondsquares.svg	stimuli_distractor_trianglediamonds.svg	6	yes	44	1	562
6.6.1	win	2022-12-14	16:41:35	16:50:04	507509	5cd063ce657e300016f6c95a	312166575	1	practice_z	9	advance_on_keypress_ZEE	4	stimuli_target_diamondsquares.svg	stimuli_distractor_trianglediamonds.svg	6	yes	57	0	491
6.6.1	win	2022-12-14	16:41:35	16:50:06	510180	5cd063ce657e300016f6c95a	312166575	1	practice_z	9	practice_z	5	stimuli_distractor_diamondtriangles.svg	stimuli_target_trianglecircles.svg	9	yes	44	1	501
6.6.1	win	2022-12-14	16:41:35	16:50:06	510180	5cd063ce657e300016f6c95a	312166575	1	practice_z	9	advance_on_keypress_ZEE	6	stimuli_distractor_diamondtriangles.svg	stimuli_target_trianglecircles.svg	9	yes	57	0	504
6.6.1	win	2022-12-14	16:41:35	16:50:09	512744	5cd063ce657e300016f6c95a	312166575	1	practice_z	9	practice_z	7	stimuli_distractor_trianglediamonds.svg	stimuli_target_squarediamonds.svg	11	yes	44	1	410
6.6.1	win	2022-12-14	16:41:35	16:50:09	512744	5cd063ce657e300016f6c95a	312166575	1	practice_z	9	advance_on_keypress_ZEE	8	stimuli_distractor_trianglediamonds.svg	stimuli_target_squarediamonds.svg	11	yes	57	0	474
6.6.1	win	2022-12-14	16:41:35	16:50:11	515235	5cd063ce657e300016f6c95a	312166575	1	practice_z	9	practice_z	9	stimuli_distractor_trianglediamonds.svg	stimuli_target_diamondcircles.svg	12	yes	44	1	389
6.6.1	win	2022-12-14	16:41:35	16:50:11	515235	5cd063ce657e300016f6c95a	312166575	1	practice_z	9	advance_on_keypress_ZEE	10	stimuli_distractor_trianglediamonds.svg	stimuli_target_diamondcircles.svg	12	yes	57	0	270
6.6.1	win	2022-12-14	16:41:35	16:50:14	517746	5cd063ce657e300016f6c95a	312166575	1	practice_z	9	practice_z	11	stimuli_distractor_trianglediamonds.svg	stimuli_target_circlediamonds.svg	10	yes	44	1	534
6.6.1	win	2022-12-14	16:41:35	16:50:14	517746	5cd063ce657e300016f6c95a	312166575	1	practice_z	9	advance_on_keypress_ZEE	12	stimuli_distractor_trianglediamonds.svg	stimuli_target_circlediamonds.svg	10	yes	57	0	257
6.6.1	win	2022-12-14	16:41:35	16:50:16	520152	5cd063ce657e300016f6c95a	312166575	1	practice_z	9	practice_z	13	stimuli_target_circlediamonds.svg	stimuli_distractor_diamondtriangles.svg	1	yes	44	1	461
6.6.1	win	2022-12-14	16:41:35	16:50:16	520152	5cd063ce657e300016f6c95a	312166575	1	practice_z	9	advance_on_keypress_ZEE	14	stimuli_target_circlediamonds.svg	stimuli_distractor_diamondtriangles.svg	1	yes	57	0	313
6.6.1	win	2022-12-14	16:41:35	16:50:19	522546	5cd063ce657e300016f6c95a	312166575	1	practice_z	9	practice_z	15	stimuli_target_circlediamonds.svg	stimuli_distractor_trianglediamonds.svg	4	yes	44	1	367
6.6.1	win	2022-12-14	16:41:35	16:50:19	522546	5cd063ce657e300016f6c95a	312166575	1	practice_z	9	advance_on_keypress_ZEE	16	stimuli_target_circlediamonds.svg	stimuli_distractor_trianglediamonds.svg	4	yes	57	0	313
6.6.1	win	2022-12-14	16:41:35	16:50:21	524876	5cd063ce657e300016f6c95a	312166575	1	practice_z	9	practice_z	17	stimuli_distractor_diamondtriangles.svg	stimuli_target_circletriangles.svg	7	yes	44	1	351
6.6.1	win	2022-12-14	16:41:35	16:50:21	524876	5cd063ce657e300016f6c95a	312166575	1	practice_z	9	advance_on_keypress_ZEE	18	stimuli_distractor_diamondtriangles.svg	stimuli_target_circletriangles.svg	7	yes	57	0	396
6.6.1	win	2022-12-14	16:41:35	16:50:24	527348	5cd063ce657e300016f6c95a	312166575	1	practice_z	9	practice_z	19	stimuli_target_diamondsquares.svg	stimuli_distractor_diamondtriangles.svg	3	yes	44	1	433
6.6.1	win	2022-12-14	16:41:35	16:50:24	527348	5cd063ce657e300016f6c95a	312166575	1	practice_z	9	advance_on_keypress_ZEE	20	stimuli_target_diamondsquares.svg	stimuli_distractor_diamondtriangles.svg	3	yes	57	0	256
6.6.1	win	2022-12-14	16:41:35	16:50:27	531277	5cd063ce657e300016f6c95a	312166575	1	practice_z	9	practice_z	21	stimuli_distractor_trianglediamonds.svg	stimuli_distractor_trianglediamonds.svg	15	no	0	1	2000
6.6.1	win	2022-12-14	16:41:35	16:50:27	531277	5cd063ce657e300016f6c95a	312166575	1	practice_z	9	advance_on_keypress_ZEE	22	stimuli_distractor_trianglediamonds.svg	stimuli_distractor_trianglediamonds.svg	15	no	57	0	403
6.6.1	win	2022-12-14	16:41:35	16:50:30	533831	5cd063ce657e300016f6c95a	312166575	1	practice_z	9	practice_z	23	stimuli_target_squarediamonds.svg	stimuli_distractor_diamondtriangles.svg	2	yes	44	1	514
6.6.1	win	2022-12-14	16:41:35	16:50:30	533831	5cd063ce657e300016f6c95a	312166575	1	practice_z	9	advance_on_keypress_ZEE	24	stimuli_target_squarediamonds.svg	stimuli_distractor_diamondtriangles.svg	2	yes	57	0	453
6.6.1	win	2022-12-14	16:41:35	16:50:33	536629	5cd063ce657e300016f6c95a	312166575	1	practice_z	9	practice_z	25	stimuli_distractor_diamondtriangles.svg	stimuli_target_diamondcircles.svg	8	yes	44	1	690
6.6.1	win	2022-12-14	16:41:35	16:50:33	536629	5cd063ce657e300016f6c95a	312166575	1	practice_z	9	advance_on_keypress_ZEE	26	stimuli_distractor_diamondtriangles.svg	stimuli_target_diamondcircles.svg	8	yes	57	0	293
6.6.1	win	2022-12-14	16:41:35	16:50:35	539173	5cd063ce657e300016f6c95a	312166575	1	practice_z	9	practice_z	27	stimuli_distractor_trianglediamonds.svg	stimuli_distractor_diamondtriangles.svg	16	no	44	0	608
6.6.1	win	2022-12-14	16:41:35	16:50:35	539173	5cd063ce657e300016f6c95a	312166575	1	practice_z	9	advance_on_keypress_ZEE	28	stimuli_distractor_trianglediamonds.svg	stimuli_distractor_diamondtriangles.svg	16	no	57	0	486
6.6.1	win	2022-12-14	16:41:35	16:50:40	543386	5cd063ce657e300016f6c95a	312166575	1	practice_z	9	practice_z	29	stimuli_distractor_diamondtriangles.svg	stimuli_distractor_diamondtriangles.svg	13	no	0	1	2000
6.6.1	win	2022-12-14	16:41:35	16:50:40	543386	5cd063ce657e300016f6c95a	312166575	1	practice_z	9	advance_on_keypress_ZEE	30	stimuli_distractor_diamondtriangles.svg	stimuli_distractor_diamondtriangles.svg	13	no	57	0	255
6.6.1	win	2022-12-14	16:41:35	16:50:42	546199	5cd063ce657e300016f6c95a	312166575	1	practice_z	9	practice_z	31	stimuli_distractor_diamondtriangles.svg	stimuli_distractor_trianglediamonds.svg	14	no	44	0	891
6.6.1	win	2022-12-14	16:41:35	16:50:42	546199	5cd063ce657e300016f6c95a	312166575	1	practice_z	9	advance_on_keypress_ZEE	32	stimuli_distractor_diamondtriangles.svg	stimuli_distractor_trianglediamonds.svg	14	no	57	0	462
6.6.1	win	2022-12-14	16:41:35	16:50:47	550549	5cd063ce657e300016f6c95a	312166575	1	main_z	11	main_z	1	stimuli_target_trianglecircles.svg	stimuli_distractor_trianglediamonds.svg	17	yes	44	1	617
6.6.1	win	2022-12-14	16:41:35	16:50:47	550549	5cd063ce657e300016f6c95a	312166575	1	main_z	11	advance_on_keypress_ZEE	2	stimuli_target_trianglecircles.svg	stimuli_distractor_trianglediamonds.svg	17	yes	57	0	568
6.6.1	win	2022-12-14	16:41:35	16:50:49	552316	5cd063ce657e300016f6c95a	312166575	1	main_z	11	main_z	3	stimuli_target_squarediamonds.svg	stimuli_distractor_trianglediamonds.svg	4	yes	44	1	497
6.6.1	win	2022-12-14	16:41:35	16:50:49	552316	5cd063ce657e300016f6c95a	312166575	1	main_z	11	advance_on_keypress_ZEE	4	stimuli_target_squarediamonds.svg	stimuli_distractor_trianglediamonds.svg	4	yes	57	0	377
6.6.1	win	2022-12-14	16:41:35	16:50:50	553892	5cd063ce657e300016f6c95a	312166575	1	main_z	11	main_z	5	stimuli_distractor_diamondtriangles.svg	stimuli_target_squarediamonds.svg	16	yes	44	1	524
6.6.1	win	2022-12-14	16:41:35	16:50:50	553892	5cd063ce657e300016f6c95a	312166575	1	main_z	11	advance_on_keypress_ZEE	6	stimuli_distractor_diamondtriangles.svg	stimuli_target_squarediamonds.svg	16	yes	57	0	330
6.6.1	win	2022-12-14	16:41:35	16:50:52	555479	5cd063ce657e300016f6c95a	312166575	1	main_z	11	main_z	7	stimuli_target_trianglesquares.svg	stimuli_distractor_trianglediamonds.svg	18	yes	44	1	572
6.6.1	win	2022-12-14	16:41:35	16:50:52	555479	5cd063ce657e300016f6c95a	312166575	1	main_z	11	advance_on_keypress_ZEE	8	stimuli_target_trianglesquares.svg	stimuli_distractor_trianglediamonds.svg	18	yes	57	0	291
6.6.1	win	2022-12-14	16:41:35	16:50:53	557024	5cd063ce657e300016f6c95a	312166575	1	main_z	11	main_z	9	stimuli_distractor_trianglediamonds.svg	stimuli_target_circlediamonds.svg	10	yes	44	1	622
6.6.1	win	2022-12-14	16:41:35	16:50:53	557024	5cd063ce657e300016f6c95a	312166575	1	main_z	11	advance_on_keypress_ZEE	10	stimuli_distractor_trianglediamonds.svg	stimuli_target_circlediamonds.svg	10	yes	57	0	301
6.6.1	win	2022-12-14	16:41:35	16:50:55	558574	5cd063ce657e300016f6c95a	312166575	1	main_z	11	main_z	11	stimuli_target_trianglesquares.svg	stimuli_distractor_diamondtriangles.svg	22	yes	44	1	567
6.6.1	win	2022-12-14	16:41:35	16:50:55	558574	5cd063ce657e300016f6c95a	312166575	1	main_z	11	advance_on_keypress_ZEE	12	stimuli_target_trianglesquares.svg	stimuli_distractor_diamondtriangles.svg	22	yes	57	0	287
6.6.1	win	2022-12-14	16:41:35	16:50:58	561503	5cd063ce657e300016f6c95a	312166575	1	main_z	11	main_z	13	stimuli_distractor_trianglediamonds.svg	stimuli_distractor_diamondtriangles.svg	35	no	0	1	2000
6.6.1	win	2022-12-14	16:41:35	16:50:58	561503	5cd063ce657e300016f6c95a	312166575	1	main_z	11	advance_on_keypress_ZEE	14	stimuli_distractor_trianglediamonds.svg	stimuli_distractor_diamondtriangles.svg	35	no	57	0	345
6.6.1	win	2022-12-14	16:41:35	16:51:01	564520	5cd063ce657e300016f6c95a	312166575	1	main_z	11	main_z	15	stimuli_distractor_diamondtriangles.svg	stimuli_distractor_diamondtriangles.svg	40	no	0	1	2000
6.6.1	win	2022-12-14	16:41:35	16:51:01	564520	5cd063ce657e300016f6c95a	312166575	1	main_z	11	advance_on_keypress_ZEE	16	stimuli_distractor_diamondtriangles.svg	stimuli_distractor_diamondtriangles.svg	40	no	57	0	457
6.6.1	win	2022-12-14	16:41:35	16:51:03	566430	5cd063ce657e300016f6c95a	312166575	1	main_z	11	main_z	17	stimuli_distractor_trianglediamonds.svg	stimuli_target_trianglecircles.svg	25	yes	44	1	811
6.6.1	win	2022-12-14	16:41:35	16:51:03	566430	5cd063ce657e300016f6c95a	312166575	1	main_z	11	advance_on_keypress_ZEE	18	stimuli_distractor_trianglediamonds.svg	stimuli_target_trianglecircles.svg	25	yes	57	0	444
6.6.1	win	2022-12-14	16:41:35	16:51:04	568108	5cd063ce657e300016f6c95a	312166575	1	main_z	11	main_z	19	stimuli_distractor_trianglediamonds.svg	stimuli_target_squarediamonds.svg	12	yes	44	1	593
6.6.1	win	2022-12-14	16:41:35	16:51:04	568108	5cd063ce657e300016f6c95a	312166575	1	main_z	11	advance_on_keypress_ZEE	20	stimuli_distractor_trianglediamonds.svg	stimuli_target_squarediamonds.svg	12	yes	57	0	377
6.6.1	win	2022-12-14	16:41:35	16:51:06	569723	5cd063ce657e300016f6c95a	312166575	1	main_z	11	main_z	21	stimuli_distractor_diamondtriangles.svg	stimuli_target_diamondcircles.svg	31	yes	44	1	585
6.6.1	win	2022-12-14	16:41:35	16:51:06	569723	5cd063ce657e300016f6c95a	312166575	1	main_z	11	advance_on_keypress_ZEE	22	stimuli_distractor_diamondtriangles.svg	stimuli_target_diamondcircles.svg	31	yes	57	0	384
6.6.1	win	2022-12-14	16:41:35	16:51:08	571972	5cd063ce657e300016f6c95a	312166575	1	main_z	11	main_z	23	stimuli_target_squaretriangles.svg	stimuli_distractor_diamondtriangles.svg	7	yes	44	1	1209
6.6.1	win	2022-12-14	16:41:35	16:51:08	571972	5cd063ce657e300016f6c95a	312166575	1	main_z	11	advance_on_keypress_ZEE	24	stimuli_target_squaretriangles.svg	stimuli_distractor_diamondtriangles.svg	7	yes	57	0	390
6.6.1	win	2022-12-14	16:41:35	16:51:10	573844	5cd063ce657e300016f6c95a	312166575	1	main_z	11	main_z	25	stimuli_distractor_diamondtriangles.svg	stimuli_target_circlediamonds.svg	14	yes	44	1	846
6.6.1	win	2022-12-14	16:41:35	16:51:10	573844	5cd063ce657e300016f6c95a	312166575	1	main_z	11	advance_on_keypress_ZEE	26	stimuli_distractor_diamondtriangles.svg	stimuli_target_circlediamonds.svg	14	yes	57	0	412
6.6.1	win	2022-12-14	16:41:35	16:51:12	575508	5cd063ce657e300016f6c95a	312166575	1	main_z	11	main_z	27	stimuli_target_circlediamonds.svg	stimuli_distractor_trianglediamonds.svg	2	yes	44	1	571
6.6.1	win	2022-12-14	16:41:35	16:51:12	575508	5cd063ce657e300016f6c95a	312166575	1	main_z	11	advance_on_keypress_ZEE	28	stimuli_target_circlediamonds.svg	stimuli_distractor_trianglediamonds.svg	2	yes	57	0	385
6.6.1	win	2022-12-14	16:41:35	16:51:13	577196	5cd063ce657e300016f6c95a	312166575	1	main_z	11	main_z	29	stimuli_target_circlediamonds.svg	stimuli_distractor_diamondtriangles.svg	6	yes	44	1	648
6.6.1	win	2022-12-14	16:41:35	16:51:13	577196	5cd063ce657e300016f6c95a	312166575	1	main_z	11	advance_on_keypress_ZEE	30	stimuli_target_circlediamonds.svg	stimuli_distractor_diamondtriangles.svg	6	yes	57	0	365
6.6.1	win	2022-12-14	16:41:35	16:51:16	579436	5cd063ce657e300016f6c95a	312166575	1	main_z	11	main_z	31	stimuli_target_diamondsquares.svg	stimuli_distractor_trianglediamonds.svg	20	yes	44	1	1238
6.6.1	win	2022-12-14	16:41:35	16:51:16	579436	5cd063ce657e300016f6c95a	312166575	1	main_z	11	advance_on_keypress_ZEE	32	stimuli_target_diamondsquares.svg	stimuli_distractor_trianglediamonds.svg	20	yes	57	0	323
6.6.1	win	2022-12-14	16:41:35	16:51:18	581350	5cd063ce657e300016f6c95a	312166575	1	main_z	11	main_z	33	stimuli_target_circletriangles.svg	stimuli_distractor_diamondtriangles.svg	5	yes	44	1	944
6.6.1	win	2022-12-14	16:41:35	16:51:18	581350	5cd063ce657e300016f6c95a	312166575	1	main_z	11	advance_on_keypress_ZEE	34	stimuli_target_circletriangles.svg	stimuli_distractor_diamondtriangles.svg	5	yes	57	0	351
6.6.1	win	2022-12-14	16:41:35	16:51:21	584365	5cd063ce657e300016f6c95a	312166575	1	main_z	11	main_z	35	stimuli_distractor_diamondtriangles.svg	stimuli_distractor_diamondtriangles.svg	39	no	0	1	2000
6.6.1	win	2022-12-14	16:41:35	16:51:21	584365	5cd063ce657e300016f6c95a	312166575	1	main_z	11	advance_on_keypress_ZEE	36	stimuli_distractor_diamondtriangles.svg	stimuli_distractor_diamondtriangles.svg	39	no	57	0	462
6.6.1	win	2022-12-14	16:41:35	16:51:22	586126	5cd063ce657e300016f6c95a	312166575	1	main_z	11	main_z	37	stimuli_target_diamondsquares.svg	stimuli_distractor_diamondtriangles.svg	24	yes	44	1	642
6.6.1	win	2022-12-14	16:41:35	16:51:22	586126	5cd063ce657e300016f6c95a	312166575	1	main_z	11	advance_on_keypress_ZEE	38	stimuli_target_diamondsquares.svg	stimuli_distractor_diamondtriangles.svg	24	yes	57	0	384
6.6.1	win	2022-12-14	16:41:35	16:51:24	587757	5cd063ce657e300016f6c95a	312166575	1	main_z	11	main_z	39	stimuli_target_circletriangles.svg	stimuli_distractor_trianglediamonds.svg	1	yes	44	1	574
6.6.1	win	2022-12-14	16:41:35	16:51:24	587757	5cd063ce657e300016f6c95a	312166575	1	main_z	11	advance_on_keypress_ZEE	40	stimuli_target_circletriangles.svg	stimuli_distractor_trianglediamonds.svg	1	yes	57	0	286
6.6.1	win	2022-12-14	16:41:35	16:51:27	590684	5cd063ce657e300016f6c95a	312166575	1	main_z	11	main_z	41	stimuli_distractor_trianglediamonds.svg	stimuli_distractor_diamondtriangles.svg	36	no	0	1	2000
6.6.1	win	2022-12-14	16:41:35	16:51:27	590684	5cd063ce657e300016f6c95a	312166575	1	main_z	11	advance_on_keypress_ZEE	42	stimuli_distractor_trianglediamonds.svg	stimuli_distractor_diamondtriangles.svg	36	no	57	0	465
6.6.1	win	2022-12-14	16:41:35	16:51:29	592852	5cd063ce657e300016f6c95a	312166575	1	main_z	11	main_z	43	stimuli_distractor_diamondtriangles.svg	stimuli_distractor_trianglediamonds.svg	38	no	44	0	1053
6.6.1	win	2022-12-14	16:41:35	16:51:29	592852	5cd063ce657e300016f6c95a	312166575	1	main_z	11	advance_on_keypress_ZEE	44	stimuli_distractor_diamondtriangles.svg	stimuli_distractor_trianglediamonds.svg	38	no	57	0	314
6.6.1	win	2022-12-14	16:41:35	16:51:31	594671	5cd063ce657e300016f6c95a	312166575	1	main_z	11	main_z	45	stimuli_target_squaretriangles.svg	stimuli_distractor_trianglediamonds.svg	3	yes	44	1	853
6.6.1	win	2022-12-14	16:41:35	16:51:31	594671	5cd063ce657e300016f6c95a	312166575	1	main_z	11	advance_on_keypress_ZEE	46	stimuli_target_squaretriangles.svg	stimuli_distractor_trianglediamonds.svg	3	yes	57	0	290
6.6.1	win	2022-12-14	16:41:35	16:51:34	597608	5cd063ce657e300016f6c95a	312166575	1	main_z	11	main_z	47	stimuli_distractor_trianglediamonds.svg	stimuli_distractor_trianglediamonds.svg	34	no	0	1	2000
6.6.1	win	2022-12-14	16:41:35	16:51:34	597608	5cd063ce657e300016f6c95a	312166575	1	main_z	11	advance_on_keypress_ZEE	48	stimuli_distractor_trianglediamonds.svg	stimuli_distractor_trianglediamonds.svg	34	no	57	0	276
6.6.1	win	2022-12-14	16:41:35	16:51:35	599196	5cd063ce657e300016f6c95a	312166575	1	main_z	11	main_z	49	stimuli_distractor_diamondtriangles.svg	stimuli_target_squaretriangles.svg	15	yes	44	1	680
6.6.1	win	2022-12-14	16:41:35	16:51:35	599196	5cd063ce657e300016f6c95a	312166575	1	main_z	11	advance_on_keypress_ZEE	50	stimuli_distractor_diamondtriangles.svg	stimuli_target_squaretriangles.svg	15	yes	57	0	428
6.6.1	win	2022-12-14	16:41:35	16:51:37	600966	5cd063ce657e300016f6c95a	312166575	1	main_z	11	main_z	51	stimuli_distractor_diamondtriangles.svg	stimuli_target_diamondsquares.svg	32	yes	44	1	689
6.6.1	win	2022-12-14	16:41:35	16:51:37	600966	5cd063ce657e300016f6c95a	312166575	1	main_z	11	advance_on_keypress_ZEE	52	stimuli_distractor_diamondtriangles.svg	stimuli_target_diamondsquares.svg	32	yes	57	0	302
6.6.1	win	2022-12-14	16:41:35	16:51:40	603916	5cd063ce657e300016f6c95a	312166575	1	main_z	11	main_z	53	stimuli_distractor_trianglediamonds.svg	stimuli_distractor_trianglediamonds.svg	33	no	0	1	2000
6.6.1	win	2022-12-14	16:41:35	16:51:40	603916	5cd063ce657e300016f6c95a	312166575	1	main_z	11	advance_on_keypress_ZEE	54	stimuli_distractor_trianglediamonds.svg	stimuli_distractor_trianglediamonds.svg	33	no	57	0	391
6.6.1	win	2022-12-14	16:41:35	16:51:43	606973	5cd063ce657e300016f6c95a	312166575	1	main_z	11	main_z	55	stimuli_distractor_diamondtriangles.svg	stimuli_distractor_trianglediamonds.svg	37	no	0	1	2000
6.6.1	win	2022-12-14	16:41:35	16:51:43	606973	5cd063ce657e300016f6c95a	312166575	1	main_z	11	advance_on_keypress_ZEE	56	stimuli_distractor_diamondtriangles.svg	stimuli_distractor_trianglediamonds.svg	37	no	57	0	357
6.6.1	win	2022-12-14	16:41:35	16:51:45	608791	5cd063ce657e300016f6c95a	312166575	1	main_z	11	main_z	57	stimuli_target_diamondcircles.svg	stimuli_distractor_trianglediamonds.svg	19	yes	44	1	708
6.6.1	win	2022-12-14	16:41:35	16:51:45	608791	5cd063ce657e300016f6c95a	312166575	1	main_z	11	advance_on_keypress_ZEE	58	stimuli_target_diamondcircles.svg	stimuli_distractor_trianglediamonds.svg	19	yes	57	0	373
6.6.1	win	2022-12-14	16:41:35	16:51:47	610367	5cd063ce657e300016f6c95a	312166575	1	main_z	11	main_z	59	stimuli_distractor_trianglediamonds.svg	stimuli_target_diamondcircles.svg	27	yes	44	1	495
6.6.1	win	2022-12-14	16:41:35	16:51:47	610367	5cd063ce657e300016f6c95a	312166575	1	main_z	11	advance_on_keypress_ZEE	60	stimuli_distractor_trianglediamonds.svg	stimuli_target_diamondcircles.svg	27	yes	57	0	237
6.6.1	win	2022-12-14	16:41:35	16:51:48	611828	5cd063ce657e300016f6c95a	312166575	1	main_z	11	main_z	61	stimuli_distractor_diamondtriangles.svg	stimuli_target_trianglesquares.svg	30	yes	44	1	562
6.6.1	win	2022-12-14	16:41:35	16:51:48	611828	5cd063ce657e300016f6c95a	312166575	1	main_z	11	advance_on_keypress_ZEE	62	stimuli_distractor_diamondtriangles.svg	stimuli_target_trianglesquares.svg	30	yes	57	0	299
6.6.1	win	2022-12-14	16:41:35	16:51:49	613299	5cd063ce657e300016f6c95a	312166575	1	main_z	11	main_z	63	stimuli_distractor_diamondtriangles.svg	stimuli_target_trianglecircles.svg	29	yes	44	1	534
6.6.1	win	2022-12-14	16:41:35	16:51:49	613299	5cd063ce657e300016f6c95a	312166575	1	main_z	11	advance_on_keypress_ZEE	64	stimuli_distractor_diamondtriangles.svg	stimuli_target_trianglecircles.svg	29	yes	57	0	256
6.6.1	win	2022-12-14	16:41:35	16:51:51	614892	5cd063ce657e300016f6c95a	312166575	1	main_z	11	main_z	65	stimuli_distractor_trianglediamonds.svg	stimuli_target_trianglesquares.svg	26	yes	44	1	692
6.6.1	win	2022-12-14	16:41:35	16:51:51	614892	5cd063ce657e300016f6c95a	312166575	1	main_z	11	advance_on_keypress_ZEE	66	stimuli_distractor_trianglediamonds.svg	stimuli_target_trianglesquares.svg	26	yes	57	0	304
6.6.1	win	2022-12-14	16:41:35	16:51:53	616378	5cd063ce657e300016f6c95a	312166575	1	main_z	11	main_z	67	stimuli_target_diamondcircles.svg	stimuli_distractor_diamondtriangles.svg	23	yes	44	1	483
6.6.1	win	2022-12-14	16:41:35	16:51:53	616378	5cd063ce657e300016f6c95a	312166575	1	main_z	11	advance_on_keypress_ZEE	68	stimuli_target_diamondcircles.svg	stimuli_distractor_diamondtriangles.svg	23	yes	57	0	269
6.6.1	win	2022-12-14	16:41:35	16:51:54	617980	5cd063ce657e300016f6c95a	312166575	1	main_z	11	main_z	69	stimuli_distractor_diamondtriangles.svg	stimuli_target_circletriangles.svg	13	yes	44	1	697
6.6.1	win	2022-12-14	16:41:35	16:51:54	617980	5cd063ce657e300016f6c95a	312166575	1	main_z	11	advance_on_keypress_ZEE	70	stimuli_distractor_diamondtriangles.svg	stimuli_target_circletriangles.svg	13	yes	57	0	349
6.6.1	win	2022-12-14	16:41:35	16:51:56	619482	5cd063ce657e300016f6c95a	312166575	1	main_z	11	main_z	71	stimuli_distractor_trianglediamonds.svg	stimuli_target_squaretriangles.svg	11	yes	44	1	502
6.6.1	win	2022-12-14	16:41:35	16:51:56	619482	5cd063ce657e300016f6c95a	312166575	1	main_z	11	advance_on_keypress_ZEE	72	stimuli_distractor_trianglediamonds.svg	stimuli_target_squaretriangles.svg	11	yes	57	0	224
6.6.1	win	2022-12-14	16:41:35	16:51:57	620813	5cd063ce657e300016f6c95a	312166575	1	main_z	11	main_z	73	stimuli_target_squarediamonds.svg	stimuli_distractor_diamondtriangles.svg	8	yes	44	1	462
6.6.1	win	2022-12-14	16:41:35	16:51:57	620813	5cd063ce657e300016f6c95a	312166575	1	main_z	11	advance_on_keypress_ZEE	74	stimuli_target_squarediamonds.svg	stimuli_distractor_diamondtriangles.svg	8	yes	57	0	220
6.6.1	win	2022-12-14	16:41:35	16:51:58	622140	5cd063ce657e300016f6c95a	312166575	1	main_z	11	main_z	75	stimuli_distractor_trianglediamonds.svg	stimuli_target_circletriangles.svg	9	yes	44	1	451
6.6.1	win	2022-12-14	16:41:35	16:51:58	622140	5cd063ce657e300016f6c95a	312166575	1	main_z	11	advance_on_keypress_ZEE	76	stimuli_distractor_trianglediamonds.svg	stimuli_target_circletriangles.svg	9	yes	57	0	262
6.6.1	win	2022-12-14	16:41:35	16:52:00	623812	5cd063ce657e300016f6c95a	312166575	1	main_z	11	main_z	77	stimuli_distractor_trianglediamonds.svg	stimuli_target_diamondsquares.svg	28	yes	44	1	778
6.6.1	win	2022-12-14	16:41:35	16:52:00	623812	5cd063ce657e300016f6c95a	312166575	1	main_z	11	advance_on_keypress_ZEE	78	stimuli_distractor_trianglediamonds.svg	stimuli_target_diamondsquares.svg	28	yes	57	0	258
6.6.1	win	2022-12-14	16:41:35	16:52:02	625326	5cd063ce657e300016f6c95a	312166575	1	main_z	11	main_z	79	stimuli_target_trianglecircles.svg	stimuli_distractor_diamondtriangles.svg	21	yes	44	1	608
6.6.1	win	2022-12-14	16:41:35	16:52:02	625326	5cd063ce657e300016f6c95a	312166575	1	main_z	11	advance_on_keypress_ZEE	80	stimuli_target_trianglecircles.svg	stimuli_distractor_diamondtriangles.svg	21	yes	57	0	222
6.6.1	win	2022-12-14	16:41:35	16:52:03	626780	5cd063ce657e300016f6c95a	312166575	1	main_z	11	main_z	81	stimuli_target_squarediamonds.svg	stimuli_distractor_diamondtriangles.svg	8	yes	44	1	547
6.6.1	win	2022-12-14	16:41:35	16:52:03	626780	5cd063ce657e300016f6c95a	312166575	1	main_z	11	advance_on_keypress_ZEE	82	stimuli_target_squarediamonds.svg	stimuli_distractor_diamondtriangles.svg	8	yes	57	0	229
6.6.1	win	2022-12-14	16:41:35	16:52:06	629656	5cd063ce657e300016f6c95a	312166575	1	main_z	11	main_z	83	stimuli_distractor_trianglediamonds.svg	stimuli_distractor_trianglediamonds.svg	33	no	0	1	2000
6.6.1	win	2022-12-14	16:41:35	16:52:06	629656	5cd063ce657e300016f6c95a	312166575	1	main_z	11	advance_on_keypress_ZEE	84	stimuli_distractor_trianglediamonds.svg	stimuli_distractor_trianglediamonds.svg	33	no	57	0	329
6.6.1	win	2022-12-14	16:41:35	16:52:07	631108	5cd063ce657e300016f6c95a	312166575	1	main_z	11	main_z	85	stimuli_target_circletriangles.svg	stimuli_distractor_diamondtriangles.svg	5	yes	44	1	473
6.6.1	win	2022-12-14	16:41:35	16:52:07	631108	5cd063ce657e300016f6c95a	312166575	1	main_z	11	advance_on_keypress_ZEE	86	stimuli_target_circletriangles.svg	stimuli_distractor_diamondtriangles.svg	5	yes	57	0	399
6.6.1	win	2022-12-14	16:41:35	16:52:09	632596	5cd063ce657e300016f6c95a	312166575	1	main_z	11	main_z	87	stimuli_distractor_diamondtriangles.svg	stimuli_target_circletriangles.svg	13	yes	44	1	421
6.6.1	win	2022-12-14	16:41:35	16:52:09	632596	5cd063ce657e300016f6c95a	312166575	1	main_z	11	advance_on_keypress_ZEE	88	stimuli_distractor_diamondtriangles.svg	stimuli_target_circletriangles.svg	13	yes	57	0	372
6.6.1	win	2022-12-14	16:41:35	16:52:11	634316	5cd063ce657e300016f6c95a	312166575	1	main_z	11	main_z	89	stimuli_target_trianglecircles.svg	stimuli_distractor_trianglediamonds.svg	17	yes	44	1	683
6.6.1	win	2022-12-14	16:41:35	16:52:11	634316	5cd063ce657e300016f6c95a	312166575	1	main_z	11	advance_on_keypress_ZEE	90	stimuli_target_trianglecircles.svg	stimuli_distractor_trianglediamonds.svg	17	yes	57	0	374
6.6.1	win	2022-12-14	16:41:35	16:52:12	635852	5cd063ce657e300016f6c95a	312166575	1	main_z	11	main_z	91	stimuli_distractor_diamondtriangles.svg	stimuli_target_squarediamonds.svg	16	yes	44	1	518
6.6.1	win	2022-12-14	16:41:35	16:52:12	635852	5cd063ce657e300016f6c95a	312166575	1	main_z	11	advance_on_keypress_ZEE	92	stimuli_distractor_diamondtriangles.svg	stimuli_target_squarediamonds.svg	16	yes	57	0	241
6.6.1	win	2022-12-14	16:41:35	16:52:13	637220	5cd063ce657e300016f6c95a	312166575	1	main_z	11	main_z	93	stimuli_distractor_trianglediamonds.svg	stimuli_target_squarediamonds.svg	12	yes	44	1	435
6.6.1	win	2022-12-14	16:41:35	16:52:13	637220	5cd063ce657e300016f6c95a	312166575	1	main_z	11	advance_on_keypress_ZEE	94	stimuli_distractor_trianglediamonds.svg	stimuli_target_squarediamonds.svg	12	yes	57	0	226
6.6.1	win	2022-12-14	16:41:35	16:52:15	638743	5cd063ce657e300016f6c95a	312166575	1	main_z	11	main_z	95	stimuli_target_trianglesquares.svg	stimuli_distractor_trianglediamonds.svg	18	yes	44	1	624
6.6.1	win	2022-12-14	16:41:35	16:52:15	638743	5cd063ce657e300016f6c95a	312166575	1	main_z	11	advance_on_keypress_ZEE	96	stimuli_target_trianglesquares.svg	stimuli_distractor_trianglediamonds.svg	18	yes	57	0	214
6.6.1	win	2022-12-14	16:41:35	16:52:16	640052	5cd063ce657e300016f6c95a	312166575	1	main_z	11	main_z	97	stimuli_distractor_diamondtriangles.svg	stimuli_target_circlediamonds.svg	14	yes	44	1	467
6.6.1	win	2022-12-14	16:41:35	16:52:16	640052	5cd063ce657e300016f6c95a	312166575	1	main_z	11	advance_on_keypress_ZEE	98	stimuli_distractor_diamondtriangles.svg	stimuli_target_circlediamonds.svg	14	yes	57	0	193
6.6.1	win	2022-12-14	16:41:35	16:52:19	642939	5cd063ce657e300016f6c95a	312166575	1	main_z	11	main_z	99	stimuli_distractor_trianglediamonds.svg	stimuli_distractor_diamondtriangles.svg	36	no	0	1	2000
6.6.1	win	2022-12-14	16:41:35	16:52:19	642939	5cd063ce657e300016f6c95a	312166575	1	main_z	11	advance_on_keypress_ZEE	100	stimuli_distractor_trianglediamonds.svg	stimuli_distractor_diamondtriangles.svg	36	no	57	0	278
6.6.1	win	2022-12-14	16:41:35	16:52:21	644396	5cd063ce657e300016f6c95a	312166575	1	main_z	11	main_z	101	stimuli_target_diamondsquares.svg	stimuli_distractor_diamondtriangles.svg	24	yes	44	1	546
6.6.1	win	2022-12-14	16:41:35	16:52:21	644396	5cd063ce657e300016f6c95a	312166575	1	main_z	11	advance_on_keypress_ZEE	102	stimuli_target_diamondsquares.svg	stimuli_distractor_diamondtriangles.svg	24	yes	57	0	268
6.6.1	win	2022-12-14	16:41:35	16:52:22	645756	5cd063ce657e300016f6c95a	312166575	1	main_z	11	main_z	103	stimuli_distractor_trianglediamonds.svg	stimuli_target_circletriangles.svg	9	yes	44	1	456
6.6.1	win	2022-12-14	16:41:35	16:52:22	645756	5cd063ce657e300016f6c95a	312166575	1	main_z	11	advance_on_keypress_ZEE	104	stimuli_distractor_trianglediamonds.svg	stimuli_target_circletriangles.svg	9	yes	57	0	237
6.6.1	win	2022-12-14	16:41:35	16:52:23	647060	5cd063ce657e300016f6c95a	312166575	1	main_z	11	main_z	105	stimuli_distractor_diamondtriangles.svg	stimuli_target_squaretriangles.svg	15	yes	44	1	426
6.6.1	win	2022-12-14	16:41:35	16:52:23	647060	5cd063ce657e300016f6c95a	312166575	1	main_z	11	advance_on_keypress_ZEE	106	stimuli_distractor_diamondtriangles.svg	stimuli_target_squaretriangles.svg	15	yes	57	0	273
6.6.1	win	2022-12-14	16:41:35	16:52:26	649974	5cd063ce657e300016f6c95a	312166575	1	main_z	11	main_z	107	stimuli_distractor_diamondtriangles.svg	stimuli_distractor_trianglediamonds.svg	38	no	0	1	2000
6.6.1	win	2022-12-14	16:41:35	16:52:26	649974	5cd063ce657e300016f6c95a	312166575	1	main_z	11	advance_on_keypress_ZEE	108	stimuli_distractor_diamondtriangles.svg	stimuli_distractor_trianglediamonds.svg	38	no	57	0	332
6.6.1	win	2022-12-14	16:41:35	16:52:28	651891	5cd063ce657e300016f6c95a	312166575	1	main_z	11	main_z	109	stimuli_target_trianglesquares.svg	stimuli_distractor_diamondtriangles.svg	22	yes	44	1	917
6.6.1	win	2022-12-14	16:41:35	16:52:28	651891	5cd063ce657e300016f6c95a	312166575	1	main_z	11	advance_on_keypress_ZEE	110	stimuli_target_trianglesquares.svg	stimuli_distractor_diamondtriangles.svg	22	yes	57	0	279
6.6.1	win	2022-12-14	16:41:35	16:52:31	654824	5cd063ce657e300016f6c95a	312166575	1	main_z	11	main_z	111	stimuli_distractor_trianglediamonds.svg	stimuli_distractor_trianglediamonds.svg	34	no	0	1	2000
6.6.1	win	2022-12-14	16:41:35	16:52:31	654824	5cd063ce657e300016f6c95a	312166575	1	main_z	11	advance_on_keypress_ZEE	112	stimuli_distractor_trianglediamonds.svg	stimuli_distractor_trianglediamonds.svg	34	no	57	0	274
6.6.1	win	2022-12-14	16:41:35	16:52:33	656325	5cd063ce657e300016f6c95a	312166575	1	main_z	11	main_z	113	stimuli_target_diamondcircles.svg	stimuli_distractor_diamondtriangles.svg	23	yes	44	1	590
6.6.1	win	2022-12-14	16:41:35	16:52:33	656325	5cd063ce657e300016f6c95a	312166575	1	main_z	11	advance_on_keypress_ZEE	114	stimuli_target_diamondcircles.svg	stimuli_distractor_diamondtriangles.svg	23	yes	57	0	246
6.6.1	win	2022-12-14	16:41:35	16:52:34	657757	5cd063ce657e300016f6c95a	312166575	1	main_z	11	main_z	115	stimuli_distractor_trianglediamonds.svg	stimuli_target_squaretriangles.svg	11	yes	44	1	488
6.6.1	win	2022-12-14	16:41:35	16:52:34	657757	5cd063ce657e300016f6c95a	312166575	1	main_z	11	advance_on_keypress_ZEE	116	stimuli_distractor_trianglediamonds.svg	stimuli_target_squaretriangles.svg	11	yes	57	0	260
6.6.1	win	2022-12-14	16:41:35	16:52:36	660271	5cd063ce657e300016f6c95a	312166575	1	main_z	11	main_z	117	stimuli_target_trianglecircles.svg	stimuli_distractor_diamondtriangles.svg	21	yes	44	1	1584
6.6.1	win	2022-12-14	16:41:35	16:52:36	660271	5cd063ce657e300016f6c95a	312166575	1	main_z	11	advance_on_keypress_ZEE	118	stimuli_target_trianglecircles.svg	stimuli_distractor_diamondtriangles.svg	21	yes	57	0	408
6.6.1	win	2022-12-14	16:41:35	16:52:38	661909	5cd063ce657e300016f6c95a	312166575	1	main_z	11	main_z	119	stimuli_target_squaretriangles.svg	stimuli_distractor_trianglediamonds.svg	3	yes	44	1	590
6.6.1	win	2022-12-14	16:41:35	16:52:38	661909	5cd063ce657e300016f6c95a	312166575	1	main_z	11	advance_on_keypress_ZEE	120	stimuli_target_squaretriangles.svg	stimuli_distractor_trianglediamonds.svg	3	yes	57	0	278
6.6.1	win	2022-12-14	16:41:35	16:52:40	663346	5cd063ce657e300016f6c95a	312166575	1	main_z	11	main_z	121	stimuli_target_squaretriangles.svg	stimuli_distractor_diamondtriangles.svg	7	yes	44	1	433
6.6.1	win	2022-12-14	16:41:35	16:52:40	663346	5cd063ce657e300016f6c95a	312166575	1	main_z	11	advance_on_keypress_ZEE	122	stimuli_target_squaretriangles.svg	stimuli_distractor_diamondtriangles.svg	7	yes	57	0	237
6.6.1	win	2022-12-14	16:41:35	16:52:41	664700	5cd063ce657e300016f6c95a	312166575	1	main_z	11	main_z	123	stimuli_target_diamondcircles.svg	stimuli_distractor_trianglediamonds.svg	19	yes	44	1	482
6.6.1	win	2022-12-14	16:41:35	16:52:41	664700	5cd063ce657e300016f6c95a	312166575	1	main_z	11	advance_on_keypress_ZEE	124	stimuli_target_diamondcircles.svg	stimuli_distractor_trianglediamonds.svg	19	yes	57	0	230
6.6.1	win	2022-12-14	16:41:35	16:52:42	666036	5cd063ce657e300016f6c95a	312166575	1	main_z	11	main_z	125	stimuli_target_circlediamonds.svg	stimuli_distractor_trianglediamonds.svg	2	yes	44	1	468
6.6.1	win	2022-12-14	16:41:35	16:52:42	666036	5cd063ce657e300016f6c95a	312166575	1	main_z	11	advance_on_keypress_ZEE	126	stimuli_target_circlediamonds.svg	stimuli_distractor_trianglediamonds.svg	2	yes	57	0	233
6.6.1	win	2022-12-14	16:41:35	16:52:44	667604	5cd063ce657e300016f6c95a	312166575	1	main_z	11	main_z	127	stimuli_distractor_trianglediamonds.svg	stimuli_target_trianglesquares.svg	26	yes	44	1	687
6.6.1	win	2022-12-14	16:41:35	16:52:44	667604	5cd063ce657e300016f6c95a	312166575	1	main_z	11	advance_on_keypress_ZEE	128	stimuli_distractor_trianglediamonds.svg	stimuli_target_trianglesquares.svg	26	yes	57	0	234
6.6.1	win	2022-12-14	16:41:35	16:52:45	669252	5cd063ce657e300016f6c95a	312166575	1	main_z	11	main_z	129	stimuli_distractor_diamondtriangles.svg	stimuli_target_trianglesquares.svg	30	yes	44	1	726
6.6.1	win	2022-12-14	16:41:35	16:52:45	669252	5cd063ce657e300016f6c95a	312166575	1	main_z	11	advance_on_keypress_ZEE	130	stimuli_distractor_diamondtriangles.svg	stimuli_target_trianglesquares.svg	30	yes	57	0	296
6.6.1	win	2022-12-14	16:41:35	16:52:47	670923	5cd063ce657e300016f6c95a	312166575	1	main_z	11	main_z	131	stimuli_distractor_trianglediamonds.svg	stimuli_target_circlediamonds.svg	10	yes	44	1	739
6.6.1	win	2022-12-14	16:41:35	16:52:47	670923	5cd063ce657e300016f6c95a	312166575	1	main_z	11	advance_on_keypress_ZEE	132	stimuli_distractor_trianglediamonds.svg	stimuli_target_circlediamonds.svg	10	yes	57	0	237
6.6.1	win	2022-12-14	16:41:35	16:52:50	673840	5cd063ce657e300016f6c95a	312166575	1	main_z	11	main_z	133	stimuli_distractor_diamondtriangles.svg	stimuli_distractor_trianglediamonds.svg	37	no	0	1	2000
6.6.1	win	2022-12-14	16:41:35	16:52:50	673840	5cd063ce657e300016f6c95a	312166575	1	main_z	11	advance_on_keypress_ZEE	134	stimuli_distractor_diamondtriangles.svg	stimuli_distractor_trianglediamonds.svg	37	no	57	0	273
6.6.1	win	2022-12-14	16:41:35	16:52:52	675500	5cd063ce657e300016f6c95a	312166575	1	main_z	11	main_z	135	stimuli_distractor_trianglediamonds.svg	stimuli_target_diamondsquares.svg	28	yes	44	1	749
6.6.1	win	2022-12-14	16:41:35	16:52:52	675500	5cd063ce657e300016f6c95a	312166575	1	main_z	11	advance_on_keypress_ZEE	136	stimuli_distractor_trianglediamonds.svg	stimuli_target_diamondsquares.svg	28	yes	57	0	238
6.6.1	win	2022-12-14	16:41:35	16:52:53	676940	5cd063ce657e300016f6c95a	312166575	1	main_z	11	main_z	137	stimuli_distractor_diamondtriangles.svg	stimuli_target_trianglecircles.svg	29	yes	44	1	522
6.6.1	win	2022-12-14	16:41:35	16:52:53	676940	5cd063ce657e300016f6c95a	312166575	1	main_z	11	advance_on_keypress_ZEE	138	stimuli_distractor_diamondtriangles.svg	stimuli_target_trianglecircles.svg	29	yes	57	0	261
6.6.1	win	2022-12-14	16:41:35	16:52:55	678449	5cd063ce657e300016f6c95a	312166575	1	main_z	11	main_z	139	stimuli_target_diamondsquares.svg	stimuli_distractor_trianglediamonds.svg	20	yes	44	1	585
6.6.1	win	2022-12-14	16:41:35	16:52:55	678449	5cd063ce657e300016f6c95a	312166575	1	main_z	11	advance_on_keypress_ZEE	140	stimuli_target_diamondsquares.svg	stimuli_distractor_trianglediamonds.svg	20	yes	57	0	184
6.6.1	win	2022-12-14	16:41:35	16:52:56	679748	5cd063ce657e300016f6c95a	312166575	1	main_z	11	main_z	141	stimuli_distractor_trianglediamonds.svg	stimuli_target_trianglecircles.svg	25	yes	44	1	460
6.6.1	win	2022-12-14	16:41:35	16:52:56	679748	5cd063ce657e300016f6c95a	312166575	1	main_z	11	advance_on_keypress_ZEE	142	stimuli_distractor_trianglediamonds.svg	stimuli_target_trianglecircles.svg	25	yes	57	0	252
6.6.1	win	2022-12-14	16:41:35	16:52:57	681060	5cd063ce657e300016f6c95a	312166575	1	main_z	11	main_z	143	stimuli_distractor_diamondtriangles.svg	stimuli_target_diamondcircles.svg	31	yes	44	1	425
6.6.1	win	2022-12-14	16:41:35	16:52:57	681060	5cd063ce657e300016f6c95a	312166575	1	main_z	11	advance_on_keypress_ZEE	144	stimuli_distractor_diamondtriangles.svg	stimuli_target_diamondcircles.svg	31	yes	57	0	264
6.6.1	win	2022-12-14	16:41:35	16:52:59	682420	5cd063ce657e300016f6c95a	312166575	1	main_z	11	main_z	145	stimuli_distractor_diamondtriangles.svg	stimuli_target_diamondsquares.svg	32	yes	44	1	452
6.6.1	win	2022-12-14	16:41:35	16:52:59	682420	5cd063ce657e300016f6c95a	312166575	1	main_z	11	advance_on_keypress_ZEE	146	stimuli_distractor_diamondtriangles.svg	stimuli_target_diamondsquares.svg	32	yes	57	0	257
6.6.1	win	2022-12-14	16:41:35	16:53:00	683905	5cd063ce657e300016f6c95a	312166575	1	main_z	11	main_z	147	stimuli_target_circletriangles.svg	stimuli_distractor_trianglediamonds.svg	1	yes	44	1	550
6.6.1	win	2022-12-14	16:41:35	16:53:00	683905	5cd063ce657e300016f6c95a	312166575	1	main_z	11	advance_on_keypress_ZEE	148	stimuli_target_circletriangles.svg	stimuli_distractor_trianglediamonds.svg	1	yes	57	0	213
6.6.1	win	2022-12-14	16:41:35	16:53:03	686840	5cd063ce657e300016f6c95a	312166575	1	main_z	11	main_z	149	stimuli_distractor_diamondtriangles.svg	stimuli_distractor_diamondtriangles.svg	39	no	0	1	2000
6.6.1	win	2022-12-14	16:41:35	16:53:03	686840	5cd063ce657e300016f6c95a	312166575	1	main_z	11	advance_on_keypress_ZEE	150	stimuli_distractor_diamondtriangles.svg	stimuli_distractor_diamondtriangles.svg	39	no	57	0	280
6.6.1	win	2022-12-14	16:41:35	16:53:06	689774	5cd063ce657e300016f6c95a	312166575	1	main_z	11	main_z	151	stimuli_distractor_diamondtriangles.svg	stimuli_distractor_diamondtriangles.svg	40	no	0	1	2000
6.6.1	win	2022-12-14	16:41:35	16:53:06	689774	5cd063ce657e300016f6c95a	312166575	1	main_z	11	advance_on_keypress_ZEE	152	stimuli_distractor_diamondtriangles.svg	stimuli_distractor_diamondtriangles.svg	40	no	57	0	347
6.6.1	win	2022-12-14	16:41:35	16:53:08	692172	5cd063ce657e300016f6c95a	312166575	1	main_z	11	main_z	153	stimuli_distractor_trianglediamonds.svg	stimuli_distractor_diamondtriangles.svg	35	no	44	0	1418
6.6.1	win	2022-12-14	16:41:35	16:53:08	692172	5cd063ce657e300016f6c95a	312166575	1	main_z	11	advance_on_keypress_ZEE	154	stimuli_distractor_trianglediamonds.svg	stimuli_distractor_diamondtriangles.svg	35	no	57	0	243
6.6.1	win	2022-12-14	16:41:35	16:53:10	693614	5cd063ce657e300016f6c95a	312166575	1	main_z	11	main_z	155	stimuli_target_circlediamonds.svg	stimuli_distractor_diamondtriangles.svg	6	yes	44	1	560
6.6.1	win	2022-12-14	16:41:35	16:53:10	693614	5cd063ce657e300016f6c95a	312166575	1	main_z	11	advance_on_keypress_ZEE	156	stimuli_target_circlediamonds.svg	stimuli_distractor_diamondtriangles.svg	6	yes	57	0	225
6.6.1	win	2022-12-14	16:41:35	16:53:11	694948	5cd063ce657e300016f6c95a	312166575	1	main_z	11	main_z	157	stimuli_target_squarediamonds.svg	stimuli_distractor_trianglediamonds.svg	4	yes	44	1	479
6.6.1	win	2022-12-14	16:41:35	16:53:11	694948	5cd063ce657e300016f6c95a	312166575	1	main_z	11	advance_on_keypress_ZEE	158	stimuli_target_squarediamonds.svg	stimuli_distractor_trianglediamonds.svg	4	yes	57	0	268
6.6.1	win	2022-12-14	16:41:35	16:53:13	696388	5cd063ce657e300016f6c95a	312166575	1	main_z	11	main_z	159	stimuli_distractor_trianglediamonds.svg	stimuli_target_diamondcircles.svg	27	yes	44	1	536
6.6.1	win	2022-12-14	16:41:35	16:53:13	696388	5cd063ce657e300016f6c95a	312166575	1	main_z	11	advance_on_keypress_ZEE	160	stimuli_distractor_trianglediamonds.svg	stimuli_target_diamondcircles.svg	27	yes	57	0	257