build	computer.platform	date	time	timestamp	time_elapsed_ms	subject	group	session	blockcode	blocknum	trialcode	trialnum	stimulus_left	stimulus_right	stim_index	target_present	response	correct	latency
6.6.0	mac	2022-12-14	18:04:59	18:20:48	947592	5d76d2f7daf4bf00164d585b	821596934	1	practice_z	5	practice_z	1	stimuli_distractor_diamondtriangles.svg	stimuli_target_diamondcircles.svg	8	yes	0	0	2000
6.6.0	mac	2022-12-14	18:04:59	18:20:48	947592	5d76d2f7daf4bf00164d585b	821596934	1	practice_z	5	advance_on_keypress_ZEE	2	stimuli_distractor_diamondtriangles.svg	stimuli_target_diamondcircles.svg	8	yes	57	0	3769
6.6.0	mac	2022-12-14	18:04:59	18:20:54	953687	5d76d2f7daf4bf00164d585b	821596934	1	practice_z	5	practice_z	3	stimuli_target_squarediamonds.svg	stimuli_distractor_trianglediamonds.svg	5	yes	44	1	679
6.6.0	mac	2022-12-14	18:04:59	18:20:54	953687	5d76d2f7daf4bf00164d585b	821596934	1	practice_z	5	advance_on_keypress_ZEE	4	stimuli_target_squarediamonds.svg	stimuli_distractor_trianglediamonds.svg	5	yes	57	0	1266
6.6.0	mac	2022-12-14	18:04:59	18:20:57	957116	5d76d2f7daf4bf00164d585b	821596934	1	practice_z	5	practice_z	5	stimuli_target_circlediamonds.svg	stimuli_distractor_diamondtriangles.svg	1	yes	44	1	526
6.6.0	mac	2022-12-14	18:04:59	18:20:57	957116	5d76d2f7daf4bf00164d585b	821596934	1	practice_z	5	advance_on_keypress_ZEE	6	stimuli_target_circlediamonds.svg	stimuli_distractor_diamondtriangles.svg	1	yes	57	0	8132
6.6.0	mac	2022-12-14	18:04:59	18:21:09	968892	5d76d2f7daf4bf00164d585b	821596934	1	practice_z	5	practice_z	7	stimuli_distractor_trianglediamonds.svg	stimuli_distractor_trianglediamonds.svg	15	no	0	1	2000
6.6.0	mac	2022-12-14	18:04:59	18:21:09	968892	5d76d2f7daf4bf00164d585b	821596934	1	practice_z	5	advance_on_keypress_ZEE	8	stimuli_distractor_trianglediamonds.svg	stimuli_distractor_trianglediamonds.svg	15	no	57	0	701
6.6.0	mac	2022-12-14	18:04:59	18:21:12	971823	5d76d2f7daf4bf00164d585b	821596934	1	practice_z	5	practice_z	9	stimuli_target_squarediamonds.svg	stimuli_distractor_diamondtriangles.svg	2	yes	44	1	583
6.6.0	mac	2022-12-14	18:04:59	18:21:12	971823	5d76d2f7daf4bf00164d585b	821596934	1	practice_z	5	advance_on_keypress_ZEE	10	stimuli_target_squarediamonds.svg	stimuli_distractor_diamondtriangles.svg	2	yes	57	0	457
6.6.0	mac	2022-12-14	18:04:59	18:21:16	975912	5d76d2f7daf4bf00164d585b	821596934	1	practice_z	5	practice_z	11	stimuli_distractor_diamondtriangles.svg	stimuli_distractor_diamondtriangles.svg	13	no	0	1	2000
6.6.0	mac	2022-12-14	18:04:59	18:21:16	975912	5d76d2f7daf4bf00164d585b	821596934	1	practice_z	5	advance_on_keypress_ZEE	12	stimuli_distractor_diamondtriangles.svg	stimuli_distractor_diamondtriangles.svg	13	no	57	0	514
6.6.0	mac	2022-12-14	18:04:59	18:21:19	978542	5d76d2f7daf4bf00164d585b	821596934	1	practice_z	5	practice_z	13	stimuli_distractor_trianglediamonds.svg	stimuli_target_diamondcircles.svg	12	yes	44	1	485
6.6.0	mac	2022-12-14	18:04:59	18:21:19	978542	5d76d2f7daf4bf00164d585b	821596934	1	practice_z	5	advance_on_keypress_ZEE	14	stimuli_distractor_trianglediamonds.svg	stimuli_target_diamondcircles.svg	12	yes	57	0	1106
6.6.0	mac	2022-12-14	18:04:59	18:21:22	982293	5d76d2f7daf4bf00164d585b	821596934	1	practice_z	5	practice_z	15	stimuli_distractor_trianglediamonds.svg	stimuli_distractor_diamondtriangles.svg	16	no	44	0	1019
6.6.0	mac	2022-12-14	18:04:59	18:21:22	982293	5d76d2f7daf4bf00164d585b	821596934	1	practice_z	5	advance_on_keypress_ZEE	16	stimuli_distractor_trianglediamonds.svg	stimuli_distractor_diamondtriangles.svg	16	no	57	0	586
6.6.0	mac	2022-12-14	18:04:59	18:21:26	986508	5d76d2f7daf4bf00164d585b	821596934	1	practice_z	5	practice_z	17	stimuli_target_diamondsquares.svg	stimuli_distractor_diamondtriangles.svg	3	yes	0	0	2000
6.6.0	mac	2022-12-14	18:04:59	18:21:26	986508	5d76d2f7daf4bf00164d585b	821596934	1	practice_z	5	advance_on_keypress_ZEE	18	stimuli_target_diamondsquares.svg	stimuli_distractor_diamondtriangles.svg	3	yes	57	0	464
6.6.0	mac	2022-12-14	18:04:59	18:21:29	989158	5d76d2f7daf4bf00164d585b	821596934	1	practice_z	5	practice_z	19	stimuli_distractor_diamondtriangles.svg	stimuli_target_trianglecircles.svg	9	yes	44	1	552
6.6.0	mac	2022-12-14	18:04:59	18:21:29	989158	5d76d2f7daf4bf00164d585b	821596934	1	practice_z	5	advance_on_keypress_ZEE	20	stimuli_distractor_diamondtriangles.svg	stimuli_target_trianglecircles.svg	9	yes	57	0	413
6.6.0	mac	2022-12-14	18:04:59	18:21:32	991868	5d76d2f7daf4bf00164d585b	821596934	1	practice_z	5	practice_z	21	stimuli_target_diamondsquares.svg	stimuli_distractor_trianglediamonds.svg	6	yes	44	1	662
6.6.0	mac	2022-12-14	18:04:59	18:21:32	991868	5d76d2f7daf4bf00164d585b	821596934	1	practice_z	5	advance_on_keypress_ZEE	22	stimuli_target_diamondsquares.svg	stimuli_distractor_trianglediamonds.svg	6	yes	57	0	431
6.6.0	mac	2022-12-14	18:04:59	18:21:34	994377	5d76d2f7daf4bf00164d585b	821596934	1	practice_z	5	practice_z	23	stimuli_distractor_trianglediamonds.svg	stimuli_target_circlediamonds.svg	10	yes	44	1	453
6.6.0	mac	2022-12-14	18:04:59	18:21:34	994377	5d76d2f7daf4bf00164d585b	821596934	1	practice_z	5	advance_on_keypress_ZEE	24	stimuli_distractor_trianglediamonds.svg	stimuli_target_circlediamonds.svg	10	yes	57	0	384
6.6.0	mac	2022-12-14	18:04:59	18:21:38	998393	5d76d2f7daf4bf00164d585b	821596934	1	practice_z	5	practice_z	25	stimuli_distractor_diamondtriangles.svg	stimuli_distractor_trianglediamonds.svg	14	no	0	1	2000
6.6.0	mac	2022-12-14	18:04:59	18:21:38	998393	5d76d2f7daf4bf00164d585b	821596934	1	practice_z	5	advance_on_keypress_ZEE	26	stimuli_distractor_diamondtriangles.svg	stimuli_distractor_trianglediamonds.svg	14	no	57	0	472
6.6.0	mac	2022-12-14	18:04:59	18:21:41	1000892	5d76d2f7daf4bf00164d585b	821596934	1	practice_z	5	practice_z	27	stimuli_target_circlediamonds.svg	stimuli_distractor_trianglediamonds.svg	4	yes	44	1	402
6.6.0	mac	2022-12-14	18:04:59	18:21:41	1000892	5d76d2f7daf4bf00164d585b	821596934	1	practice_z	5	advance_on_keypress_ZEE	28	stimuli_target_circlediamonds.svg	stimuli_distractor_trianglediamonds.svg	4	yes	57	0	371
6.6.0	mac	2022-12-14	18:04:59	18:21:43	1003402	5d76d2f7daf4bf00164d585b	821596934	1	practice_z	5	practice_z	29	stimuli_distractor_diamondtriangles.svg	stimuli_target_circletriangles.svg	7	yes	44	1	512
6.6.0	mac	2022-12-14	18:04:59	18:21:43	1003402	5d76d2f7daf4bf00164d585b	821596934	1	practice_z	5	advance_on_keypress_ZEE	30	stimuli_distractor_diamondtriangles.svg	stimuli_target_circletriangles.svg	7	yes	57	0	466
6.6.0	mac	2022-12-14	18:04:59	18:21:46	1005952	5d76d2f7daf4bf00164d585b	821596934	1	practice_z	5	practice_z	31	stimuli_distractor_trianglediamonds.svg	stimuli_target_squarediamonds.svg	11	yes	44	1	445
6.6.0	mac	2022-12-14	18:04:59	18:21:46	1005952	5d76d2f7daf4bf00164d585b	821596934	1	practice_z	5	advance_on_keypress_ZEE	32	stimuli_distractor_trianglediamonds.svg	stimuli_target_squarediamonds.svg	11	yes	57	0	429
6.6.0	mac	2022-12-14	18:04:59	18:22:03	1022653	5d76d2f7daf4bf00164d585b	821596934	1	main_z	7	main_z	1	stimuli_distractor_diamondtriangles.svg	stimuli_target_trianglesquares.svg	30	yes	44	1	696
6.6.0	mac	2022-12-14	18:04:59	18:22:03	1022653	5d76d2f7daf4bf00164d585b	821596934	1	main_z	7	advance_on_keypress_ZEE	2	stimuli_distractor_diamondtriangles.svg	stimuli_target_trianglesquares.svg	30	yes	57	0	1066
6.6.0	mac	2022-12-14	18:04:59	18:22:05	1024884	5d76d2f7daf4bf00164d585b	821596934	1	main_z	7	main_z	3	stimuli_target_squarediamonds.svg	stimuli_distractor_diamondtriangles.svg	8	yes	44	1	529
6.6.0	mac	2022-12-14	18:04:59	18:22:05	1024884	5d76d2f7daf4bf00164d585b	821596934	1	main_z	7	advance_on_keypress_ZEE	4	stimuli_target_squarediamonds.svg	stimuli_distractor_diamondtriangles.svg	8	yes	57	0	555
6.6.0	mac	2022-12-14	18:04:59	18:22:08	1028075	5d76d2f7daf4bf00164d585b	821596934	1	main_z	7	main_z	5	stimuli_distractor_diamondtriangles.svg	stimuli_distractor_diamondtriangles.svg	40	no	0	1	2000
6.6.0	mac	2022-12-14	18:04:59	18:22:08	1028075	5d76d2f7daf4bf00164d585b	821596934	1	main_z	7	advance_on_keypress_ZEE	6	stimuli_distractor_diamondtriangles.svg	stimuli_distractor_diamondtriangles.svg	40	no	57	0	722
6.6.0	mac	2022-12-14	18:04:59	18:22:10	1029828	5d76d2f7daf4bf00164d585b	821596934	1	main_z	7	main_z	7	stimuli_distractor_diamondtriangles.svg	stimuli_target_circlediamonds.svg	14	yes	44	1	405
6.6.0	mac	2022-12-14	18:04:59	18:22:10	1029828	5d76d2f7daf4bf00164d585b	821596934	1	main_z	7	advance_on_keypress_ZEE	8	stimuli_distractor_diamondtriangles.svg	stimuli_target_circlediamonds.svg	14	yes	57	0	660
6.6.0	mac	2022-12-14	18:04:59	18:22:12	1031854	5d76d2f7daf4bf00164d585b	821596934	1	main_z	7	main_z	9	stimuli_distractor_diamondtriangles.svg	stimuli_target_diamondsquares.svg	32	yes	44	1	731
6.6.0	mac	2022-12-14	18:04:59	18:22:12	1031854	5d76d2f7daf4bf00164d585b	821596934	1	main_z	7	advance_on_keypress_ZEE	10	stimuli_distractor_diamondtriangles.svg	stimuli_target_diamondsquares.svg	32	yes	57	0	835
6.6.0	mac	2022-12-14	18:04:59	18:22:14	1034143	5d76d2f7daf4bf00164d585b	821596934	1	main_z	7	main_z	11	stimuli_target_diamondcircles.svg	stimuli_distractor_trianglediamonds.svg	19	yes	44	1	820
6.6.0	mac	2022-12-14	18:04:59	18:22:14	1034143	5d76d2f7daf4bf00164d585b	821596934	1	main_z	7	advance_on_keypress_ZEE	12	stimuli_target_diamondcircles.svg	stimuli_distractor_trianglediamonds.svg	19	yes	57	0	955
6.6.0	mac	2022-12-14	18:04:59	18:22:16	1036399	5d76d2f7daf4bf00164d585b	821596934	1	main_z	7	main_z	13	stimuli_target_squaretriangles.svg	stimuli_distractor_trianglediamonds.svg	3	yes	44	1	676
6.6.0	mac	2022-12-14	18:04:59	18:22:16	1036399	5d76d2f7daf4bf00164d585b	821596934	1	main_z	7	advance_on_keypress_ZEE	14	stimuli_target_squaretriangles.svg	stimuli_distractor_trianglediamonds.svg	3	yes	57	0	2754
6.6.0	mac	2022-12-14	18:04:59	18:22:22	1041775	5d76d2f7daf4bf00164d585b	821596934	1	main_z	7	main_z	15	stimuli_target_diamondsquares.svg	stimuli_distractor_trianglediamonds.svg	20	yes	0	0	2000
6.6.0	mac	2022-12-14	18:04:59	18:22:22	1041775	5d76d2f7daf4bf00164d585b	821596934	1	main_z	7	advance_on_keypress_ZEE	16	stimuli_target_diamondsquares.svg	stimuli_distractor_trianglediamonds.svg	20	yes	57	0	373
6.6.0	mac	2022-12-14	18:04:59	18:22:23	1043424	5d76d2f7daf4bf00164d585b	821596934	1	main_z	7	main_z	17	stimuli_distractor_diamondtriangles.svg	stimuli_target_squaretriangles.svg	15	yes	44	1	652
6.6.0	mac	2022-12-14	18:04:59	18:22:23	1043424	5d76d2f7daf4bf00164d585b	821596934	1	main_z	7	advance_on_keypress_ZEE	18	stimuli_distractor_diamondtriangles.svg	stimuli_target_squaretriangles.svg	15	yes	57	0	760
6.6.0	mac	2022-12-14	18:04:59	18:22:27	1046808	5d76d2f7daf4bf00164d585b	821596934	1	main_z	7	main_z	19	stimuli_distractor_diamondtriangles.svg	stimuli_distractor_diamondtriangles.svg	39	no	0	1	2000
6.6.0	mac	2022-12-14	18:04:59	18:22:27	1046808	5d76d2f7daf4bf00164d585b	821596934	1	main_z	7	advance_on_keypress_ZEE	20	stimuli_distractor_diamondtriangles.svg	stimuli_distractor_diamondtriangles.svg	39	no	57	0	612
6.6.0	mac	2022-12-14	18:04:59	18:22:28	1048437	5d76d2f7daf4bf00164d585b	821596934	1	main_z	7	main_z	21	stimuli_distractor_trianglediamonds.svg	stimuli_target_trianglecircles.svg	25	yes	44	1	381
6.6.0	mac	2022-12-14	18:04:59	18:22:28	1048437	5d76d2f7daf4bf00164d585b	821596934	1	main_z	7	advance_on_keypress_ZEE	22	stimuli_distractor_trianglediamonds.svg	stimuli_target_trianglecircles.svg	25	yes	57	0	720
6.6.0	mac	2022-12-14	18:04:59	18:22:32	1051792	5d76d2f7daf4bf00164d585b	821596934	1	main_z	7	main_z	23	stimuli_distractor_diamondtriangles.svg	stimuli_distractor_trianglediamonds.svg	37	no	0	1	2000
6.6.0	mac	2022-12-14	18:04:59	18:22:32	1051792	5d76d2f7daf4bf00164d585b	821596934	1	main_z	7	advance_on_keypress_ZEE	24	stimuli_distractor_diamondtriangles.svg	stimuli_distractor_trianglediamonds.svg	37	no	57	0	456
6.6.0	mac	2022-12-14	18:04:59	18:22:35	1054881	5d76d2f7daf4bf00164d585b	821596934	1	main_z	7	main_z	25	stimuli_distractor_trianglediamonds.svg	stimuli_distractor_trianglediamonds.svg	34	no	0	1	2000
6.6.0	mac	2022-12-14	18:04:59	18:22:35	1054881	5d76d2f7daf4bf00164d585b	821596934	1	main_z	7	advance_on_keypress_ZEE	26	stimuli_distractor_trianglediamonds.svg	stimuli_distractor_trianglediamonds.svg	34	no	57	0	435
6.6.0	mac	2022-12-14	18:04:59	18:22:36	1056397	5d76d2f7daf4bf00164d585b	821596934	1	main_z	7	main_z	27	stimuli_target_trianglecircles.svg	stimuli_distractor_diamondtriangles.svg	21	yes	44	1	458
6.6.0	mac	2022-12-14	18:04:59	18:22:36	1056397	5d76d2f7daf4bf00164d585b	821596934	1	main_z	7	advance_on_keypress_ZEE	28	stimuli_target_trianglecircles.svg	stimuli_distractor_diamondtriangles.svg	21	yes	57	0	693
6.6.0	mac	2022-12-14	18:04:59	18:22:38	1058284	5d76d2f7daf4bf00164d585b	821596934	1	main_z	7	main_z	29	stimuli_distractor_diamondtriangles.svg	stimuli_target_squarediamonds.svg	16	yes	44	1	578
6.6.0	mac	2022-12-14	18:04:59	18:22:38	1058284	5d76d2f7daf4bf00164d585b	821596934	1	main_z	7	advance_on_keypress_ZEE	30	stimuli_distractor_diamondtriangles.svg	stimuli_target_squarediamonds.svg	16	yes	57	0	704
6.6.0	mac	2022-12-14	18:04:59	18:22:42	1061608	5d76d2f7daf4bf00164d585b	821596934	1	main_z	7	main_z	31	stimuli_distractor_trianglediamonds.svg	stimuli_distractor_trianglediamonds.svg	33	no	0	1	2000
6.6.0	mac	2022-12-14	18:04:59	18:22:42	1061608	5d76d2f7daf4bf00164d585b	821596934	1	main_z	7	advance_on_keypress_ZEE	32	stimuli_distractor_trianglediamonds.svg	stimuli_distractor_trianglediamonds.svg	33	no	57	0	478
6.6.0	mac	2022-12-14	18:04:59	18:22:43	1063157	5d76d2f7daf4bf00164d585b	821596934	1	main_z	7	main_z	33	stimuli_distractor_diamondtriangles.svg	stimuli_target_diamondcircles.svg	31	yes	44	1	435
6.6.0	mac	2022-12-14	18:04:59	18:22:43	1063157	5d76d2f7daf4bf00164d585b	821596934	1	main_z	7	advance_on_keypress_ZEE	34	stimuli_distractor_diamondtriangles.svg	stimuli_target_diamondcircles.svg	31	yes	57	0	596
6.6.0	mac	2022-12-14	18:04:59	18:22:45	1065044	5d76d2f7daf4bf00164d585b	821596934	1	main_z	7	main_z	35	stimuli_target_trianglesquares.svg	stimuli_distractor_diamondtriangles.svg	22	yes	44	1	655
6.6.0	mac	2022-12-14	18:04:59	18:22:45	1065044	5d76d2f7daf4bf00164d585b	821596934	1	main_z	7	advance_on_keypress_ZEE	36	stimuli_target_trianglesquares.svg	stimuli_distractor_diamondtriangles.svg	22	yes	57	0	617
6.6.0	mac	2022-12-14	18:04:59	18:22:48	1068291	5d76d2f7daf4bf00164d585b	821596934	1	main_z	7	main_z	37	stimuli_distractor_trianglediamonds.svg	stimuli_target_circlediamonds.svg	10	yes	0	0	2000
6.6.0	mac	2022-12-14	18:04:59	18:22:48	1068291	5d76d2f7daf4bf00164d585b	821596934	1	main_z	7	advance_on_keypress_ZEE	38	stimuli_distractor_trianglediamonds.svg	stimuli_target_circlediamonds.svg	10	yes	57	0	340
6.6.0	mac	2022-12-14	18:04:59	18:22:51	1071275	5d76d2f7daf4bf00164d585b	821596934	1	main_z	7	main_z	39	stimuli_distractor_trianglediamonds.svg	stimuli_distractor_diamondtriangles.svg	36	no	0	1	2000
6.6.0	mac	2022-12-14	18:04:59	18:22:51	1071275	5d76d2f7daf4bf00164d585b	821596934	1	main_z	7	advance_on_keypress_ZEE	40	stimuli_distractor_trianglediamonds.svg	stimuli_distractor_diamondtriangles.svg	36	no	57	0	403
6.6.0	mac	2022-12-14	18:04:59	18:22:53	1072787	5d76d2f7daf4bf00164d585b	821596934	1	main_z	7	main_z	41	stimuli_target_circletriangles.svg	stimuli_distractor_trianglediamonds.svg	1	yes	44	1	481
6.6.0	mac	2022-12-14	18:04:59	18:22:53	1072787	5d76d2f7daf4bf00164d585b	821596934	1	main_z	7	advance_on_keypress_ZEE	42	stimuli_target_circletriangles.svg	stimuli_distractor_trianglediamonds.svg	1	yes	57	0	525
6.6.0	mac	2022-12-14	18:04:59	18:22:54	1074531	5d76d2f7daf4bf00164d585b	821596934	1	main_z	7	main_z	43	stimuli_distractor_trianglediamonds.svg	stimuli_target_squarediamonds.svg	12	yes	44	1	591
6.6.0	mac	2022-12-14	18:04:59	18:22:54	1074531	5d76d2f7daf4bf00164d585b	821596934	1	main_z	7	advance_on_keypress_ZEE	44	stimuli_distractor_trianglediamonds.svg	stimuli_target_squarediamonds.svg	12	yes	57	0	518
6.6.0	mac	2022-12-14	18:04:59	18:22:56	1076113	5d76d2f7daf4bf00164d585b	821596934	1	main_z	7	main_z	45	stimuli_target_squaretriangles.svg	stimuli_distractor_diamondtriangles.svg	7	yes	44	1	441
6.6.0	mac	2022-12-14	18:04:59	18:22:56	1076113	5d76d2f7daf4bf00164d585b	821596934	1	main_z	7	advance_on_keypress_ZEE	46	stimuli_target_squaretriangles.svg	stimuli_distractor_diamondtriangles.svg	7	yes	57	0	467
6.6.0	mac	2022-12-14	18:04:59	18:22:58	1077651	5d76d2f7daf4bf00164d585b	821596934	1	main_z	7	main_z	47	stimuli_distractor_diamondtriangles.svg	stimuli_target_circletriangles.svg	13	yes	44	1	444
6.6.0	mac	2022-12-14	18:04:59	18:22:58	1077651	5d76d2f7daf4bf00164d585b	821596934	1	main_z	7	advance_on_keypress_ZEE	48	stimuli_distractor_diamondtriangles.svg	stimuli_target_circletriangles.svg	13	yes	57	0	498
6.6.0	mac	2022-12-14	18:04:59	18:22:59	1079460	5d76d2f7daf4bf00164d585b	821596934	1	main_z	7	main_z	49	stimuli_distractor_trianglediamonds.svg	stimuli_target_trianglesquares.svg	26	yes	44	1	688
6.6.0	mac	2022-12-14	18:04:59	18:22:59	1079460	5d76d2f7daf4bf00164d585b	821596934	1	main_z	7	advance_on_keypress_ZEE	50	stimuli_distractor_trianglediamonds.svg	stimuli_target_trianglesquares.svg	26	yes	57	0	510
6.6.0	mac	2022-12-14	18:04:59	18:23:01	1081058	5d76d2f7daf4bf00164d585b	821596934	1	main_z	7	main_z	51	stimuli_target_squarediamonds.svg	stimuli_distractor_trianglediamonds.svg	4	yes	44	1	468
6.6.0	mac	2022-12-14	18:04:59	18:23:01	1081058	5d76d2f7daf4bf00164d585b	821596934	1	main_z	7	advance_on_keypress_ZEE	52	stimuli_target_squarediamonds.svg	stimuli_distractor_trianglediamonds.svg	4	yes	57	0	437
6.6.0	mac	2022-12-14	18:04:59	18:23:03	1082586	5d76d2f7daf4bf00164d585b	821596934	1	main_z	7	main_z	53	stimuli_distractor_trianglediamonds.svg	stimuli_target_diamondcircles.svg	27	yes	44	1	463
6.6.0	mac	2022-12-14	18:04:59	18:23:03	1082586	5d76d2f7daf4bf00164d585b	821596934	1	main_z	7	advance_on_keypress_ZEE	54	stimuli_distractor_trianglediamonds.svg	stimuli_target_diamondcircles.svg	27	yes	57	0	668
6.6.0	mac	2022-12-14	18:04:59	18:23:04	1084428	5d76d2f7daf4bf00164d585b	821596934	1	main_z	7	main_z	55	stimuli_distractor_trianglediamonds.svg	stimuli_target_circletriangles.svg	9	yes	44	1	538
6.6.0	mac	2022-12-14	18:04:59	18:23:04	1084428	5d76d2f7daf4bf00164d585b	821596934	1	main_z	7	advance_on_keypress_ZEE	56	stimuli_distractor_trianglediamonds.svg	stimuli_target_circletriangles.svg	9	yes	57	0	430
6.6.0	mac	2022-12-14	18:04:59	18:23:06	1086131	5d76d2f7daf4bf00164d585b	821596934	1	main_z	7	main_z	57	stimuli_distractor_trianglediamonds.svg	stimuli_target_squaretriangles.svg	11	yes	44	1	641
6.6.0	mac	2022-12-14	18:04:59	18:23:06	1086131	5d76d2f7daf4bf00164d585b	821596934	1	main_z	7	advance_on_keypress_ZEE	58	stimuli_distractor_trianglediamonds.svg	stimuli_target_squaretriangles.svg	11	yes	57	0	469
6.6.0	mac	2022-12-14	18:04:59	18:23:08	1088271	5d76d2f7daf4bf00164d585b	821596934	1	main_z	7	main_z	59	stimuli_target_diamondcircles.svg	stimuli_distractor_diamondtriangles.svg	23	yes	44	1	1049
6.6.0	mac	2022-12-14	18:04:59	18:23:08	1088271	5d76d2f7daf4bf00164d585b	821596934	1	main_z	7	advance_on_keypress_ZEE	60	stimuli_target_diamondcircles.svg	stimuli_distractor_diamondtriangles.svg	23	yes	57	0	613
6.6.0	mac	2022-12-14	18:04:59	18:23:10	1089939	5d76d2f7daf4bf00164d585b	821596934	1	main_z	7	main_z	61	stimuli_distractor_diamondtriangles.svg	stimuli_target_trianglecircles.svg	29	yes	44	1	418
6.6.0	mac	2022-12-14	18:04:59	18:23:10	1089939	5d76d2f7daf4bf00164d585b	821596934	1	main_z	7	advance_on_keypress_ZEE	62	stimuli_distractor_diamondtriangles.svg	stimuli_target_trianglecircles.svg	29	yes	57	0	397
6.6.0	mac	2022-12-14	18:04:59	18:23:11	1091509	5d76d2f7daf4bf00164d585b	821596934	1	main_z	7	main_z	63	stimuli_target_circletriangles.svg	stimuli_distractor_diamondtriangles.svg	5	yes	44	1	537
6.6.0	mac	2022-12-14	18:04:59	18:23:11	1091509	5d76d2f7daf4bf00164d585b	821596934	1	main_z	7	advance_on_keypress_ZEE	64	stimuli_target_circletriangles.svg	stimuli_distractor_diamondtriangles.svg	5	yes	57	0	382
6.6.0	mac	2022-12-14	18:04:59	18:23:13	1093064	5d76d2f7daf4bf00164d585b	821596934	1	main_z	7	main_z	65	stimuli_target_trianglecircles.svg	stimuli_distractor_trianglediamonds.svg	17	yes	44	1	525
6.6.0	mac	2022-12-14	18:04:59	18:23:13	1093064	5d76d2f7daf4bf00164d585b	821596934	1	main_z	7	advance_on_keypress_ZEE	66	stimuli_target_trianglecircles.svg	stimuli_distractor_trianglediamonds.svg	17	yes	57	0	419
6.6.0	mac	2022-12-14	18:04:59	18:23:14	1094472	5d76d2f7daf4bf00164d585b	821596934	1	main_z	7	main_z	67	stimuli_target_circlediamonds.svg	stimuli_distractor_trianglediamonds.svg	2	yes	44	1	366
6.6.0	mac	2022-12-14	18:04:59	18:23:14	1094472	5d76d2f7daf4bf00164d585b	821596934	1	main_z	7	advance_on_keypress_ZEE	68	stimuli_target_circlediamonds.svg	stimuli_distractor_trianglediamonds.svg	2	yes	57	0	434
6.6.0	mac	2022-12-14	18:04:59	18:23:16	1096092	5d76d2f7daf4bf00164d585b	821596934	1	main_z	7	main_z	69	stimuli_target_diamondsquares.svg	stimuli_distractor_diamondtriangles.svg	24	yes	44	1	553
6.6.0	mac	2022-12-14	18:04:59	18:23:16	1096092	5d76d2f7daf4bf00164d585b	821596934	1	main_z	7	advance_on_keypress_ZEE	70	stimuli_target_diamondsquares.svg	stimuli_distractor_diamondtriangles.svg	24	yes	57	0	654
6.6.0	mac	2022-12-14	18:04:59	18:23:18	1098285	5d76d2f7daf4bf00164d585b	821596934	1	main_z	7	main_z	71	stimuli_distractor_trianglediamonds.svg	stimuli_target_diamondsquares.svg	28	yes	44	1	911
6.6.0	mac	2022-12-14	18:04:59	18:23:18	1098285	5d76d2f7daf4bf00164d585b	821596934	1	main_z	7	advance_on_keypress_ZEE	72	stimuli_distractor_trianglediamonds.svg	stimuli_target_diamondsquares.svg	28	yes	57	0	703
6.6.0	mac	2022-12-14	18:04:59	18:23:21	1100656	5d76d2f7daf4bf00164d585b	821596934	1	main_z	7	main_z	73	stimuli_target_trianglesquares.svg	stimuli_distractor_trianglediamonds.svg	18	yes	44	1	1051
6.6.0	mac	2022-12-14	18:04:59	18:23:21	1100656	5d76d2f7daf4bf00164d585b	821596934	1	main_z	7	advance_on_keypress_ZEE	74	stimuli_target_trianglesquares.svg	stimuli_distractor_trianglediamonds.svg	18	yes	57	0	589
6.6.0	mac	2022-12-14	18:04:59	18:23:22	1102334	5d76d2f7daf4bf00164d585b	821596934	1	main_z	7	main_z	75	stimuli_target_circlediamonds.svg	stimuli_distractor_diamondtriangles.svg	6	yes	44	1	462
6.6.0	mac	2022-12-14	18:04:59	18:23:22	1102334	5d76d2f7daf4bf00164d585b	821596934	1	main_z	7	advance_on_keypress_ZEE	76	stimuli_target_circlediamonds.svg	stimuli_distractor_diamondtriangles.svg	6	yes	57	0	429
6.6.0	mac	2022-12-14	18:04:59	18:23:25	1105375	5d76d2f7daf4bf00164d585b	821596934	1	main_z	7	main_z	77	stimuli_distractor_diamondtriangles.svg	stimuli_distractor_trianglediamonds.svg	38	no	0	1	2000
6.6.0	mac	2022-12-14	18:04:59	18:23:25	1105375	5d76d2f7daf4bf00164d585b	821596934	1	main_z	7	advance_on_keypress_ZEE	78	stimuli_distractor_diamondtriangles.svg	stimuli_distractor_trianglediamonds.svg	38	no	57	0	299
6.6.0	mac	2022-12-14	18:04:59	18:23:28	1108308	5d76d2f7daf4bf00164d585b	821596934	1	main_z	7	main_z	79	stimuli_distractor_trianglediamonds.svg	stimuli_distractor_diamondtriangles.svg	35	no	0	1	2000
6.6.0	mac	2022-12-14	18:04:59	18:23:28	1108308	5d76d2f7daf4bf00164d585b	821596934	1	main_z	7	advance_on_keypress_ZEE	80	stimuli_distractor_trianglediamonds.svg	stimuli_distractor_diamondtriangles.svg	35	no	57	0	369
6.6.0	mac	2022-12-14	18:04:59	18:23:30	1109669	5d76d2f7daf4bf00164d585b	821596934	1	main_z	7	main_z	81	stimuli_distractor_trianglediamonds.svg	stimuli_target_circletriangles.svg	9	yes	44	1	363
6.6.0	mac	2022-12-14	18:04:59	18:23:30	1109669	5d76d2f7daf4bf00164d585b	821596934	1	main_z	7	advance_on_keypress_ZEE	82	stimuli_distractor_trianglediamonds.svg	stimuli_target_circletriangles.svg	9	yes	57	0	596
6.6.0	mac	2022-12-14	18:04:59	18:23:33	1112880	5d76d2f7daf4bf00164d585b	821596934	1	main_z	7	main_z	83	stimuli_distractor_diamondtriangles.svg	stimuli_distractor_diamondtriangles.svg	39	no	0	1	2000
6.6.0	mac	2022-12-14	18:04:59	18:23:33	1112880	5d76d2f7daf4bf00164d585b	821596934	1	main_z	7	advance_on_keypress_ZEE	84	stimuli_distractor_diamondtriangles.svg	stimuli_distractor_diamondtriangles.svg	39	no	57	0	339
6.6.0	mac	2022-12-14	18:04:59	18:23:34	1114221	5d76d2f7daf4bf00164d585b	821596934	1	main_z	7	main_z	85	stimuli_distractor_diamondtriangles.svg	stimuli_target_trianglecircles.svg	29	yes	44	1	381
6.6.0	mac	2022-12-14	18:04:59	18:23:34	1114221	5d76d2f7daf4bf00164d585b	821596934	1	main_z	7	advance_on_keypress_ZEE	86	stimuli_distractor_diamondtriangles.svg	stimuli_target_trianglecircles.svg	29	yes	57	0	473
6.6.0	mac	2022-12-14	18:04:59	18:23:36	1115750	5d76d2f7daf4bf00164d585b	821596934	1	main_z	7	main_z	87	stimuli_distractor_diamondtriangles.svg	stimuli_target_diamondcircles.svg	31	yes	44	1	428
6.6.0	mac	2022-12-14	18:04:59	18:23:36	1115750	5d76d2f7daf4bf00164d585b	821596934	1	main_z	7	advance_on_keypress_ZEE	88	stimuli_distractor_diamondtriangles.svg	stimuli_target_diamondcircles.svg	31	yes	57	0	421
6.6.0	mac	2022-12-14	18:04:59	18:23:39	1118792	5d76d2f7daf4bf00164d585b	821596934	1	main_z	7	main_z	89	stimuli_distractor_diamondtriangles.svg	stimuli_distractor_trianglediamonds.svg	37	no	0	1	2000
6.6.0	mac	2022-12-14	18:04:59	18:23:39	1118792	5d76d2f7daf4bf00164d585b	821596934	1	main_z	7	advance_on_keypress_ZEE	90	stimuli_distractor_diamondtriangles.svg	stimuli_distractor_trianglediamonds.svg	37	no	57	0	274
6.6.0	mac	2022-12-14	18:04:59	18:23:42	1121709	5d76d2f7daf4bf00164d585b	821596934	1	main_z	7	main_z	91	stimuli_distractor_trianglediamonds.svg	stimuli_distractor_trianglediamonds.svg	33	no	0	1	2000
6.6.0	mac	2022-12-14	18:04:59	18:23:42	1121709	5d76d2f7daf4bf00164d585b	821596934	1	main_z	7	advance_on_keypress_ZEE	92	stimuli_distractor_trianglediamonds.svg	stimuli_distractor_trianglediamonds.svg	33	no	57	0	303
6.6.0	mac	2022-12-14	18:04:59	18:23:43	1123241	5d76d2f7daf4bf00164d585b	821596934	1	main_z	7	main_z	93	stimuli_distractor_diamondtriangles.svg	stimuli_target_circlediamonds.svg	14	yes	44	1	603
6.6.0	mac	2022-12-14	18:04:59	18:23:43	1123241	5d76d2f7daf4bf00164d585b	821596934	1	main_z	7	advance_on_keypress_ZEE	94	stimuli_distractor_diamondtriangles.svg	stimuli_target_circlediamonds.svg	14	yes	57	0	635
6.6.0	mac	2022-12-14	18:04:59	18:23:46	1126508	5d76d2f7daf4bf00164d585b	821596934	1	main_z	7	main_z	95	stimuli_distractor_diamondtriangles.svg	stimuli_distractor_trianglediamonds.svg	38	no	0	1	2000
6.6.0	mac	2022-12-14	18:04:59	18:23:46	1126508	5d76d2f7daf4bf00164d585b	821596934	1	main_z	7	advance_on_keypress_ZEE	96	stimuli_distractor_diamondtriangles.svg	stimuli_distractor_trianglediamonds.svg	38	no	57	0	459
6.6.0	mac	2022-12-14	18:04:59	18:23:48	1128040	5d76d2f7daf4bf00164d585b	821596934	1	main_z	7	main_z	97	stimuli_target_circletriangles.svg	stimuli_distractor_diamondtriangles.svg	5	yes	44	1	435
6.6.0	mac	2022-12-14	18:04:59	18:23:48	1128040	5d76d2f7daf4bf00164d585b	821596934	1	main_z	7	advance_on_keypress_ZEE	98	stimuli_target_circletriangles.svg	stimuli_distractor_diamondtriangles.svg	5	yes	57	0	638
6.6.0	mac	2022-12-14	18:04:59	18:23:50	1129803	5d76d2f7daf4bf00164d585b	821596934	1	main_z	7	main_z	99	stimuli_distractor_diamondtriangles.svg	stimuli_target_circletriangles.svg	13	yes	44	1	496
6.6.0	mac	2022-12-14	18:04:59	18:23:50	1129803	5d76d2f7daf4bf00164d585b	821596934	1	main_z	7	advance_on_keypress_ZEE	100	stimuli_distractor_diamondtriangles.svg	stimuli_target_circletriangles.svg	13	yes	57	0	533
6.6.0	mac	2022-12-14	18:04:59	18:23:51	1131425	5d76d2f7daf4bf00164d585b	821596934	1	main_z	7	main_z	101	stimuli_target_trianglecircles.svg	stimuli_distractor_trianglediamonds.svg	17	yes	44	1	452
6.6.0	mac	2022-12-14	18:04:59	18:23:51	1131425	5d76d2f7daf4bf00164d585b	821596934	1	main_z	7	advance_on_keypress_ZEE	102	stimuli_target_trianglecircles.svg	stimuli_distractor_trianglediamonds.svg	17	yes	57	0	436
6.6.0	mac	2022-12-14	18:04:59	18:23:53	1133188	5d76d2f7daf4bf00164d585b	821596934	1	main_z	7	main_z	103	stimuli_target_squarediamonds.svg	stimuli_distractor_trianglediamonds.svg	4	yes	44	1	698
6.6.0	mac	2022-12-14	18:04:59	18:23:53	1133188	5d76d2f7daf4bf00164d585b	821596934	1	main_z	7	advance_on_keypress_ZEE	104	stimuli_target_squarediamonds.svg	stimuli_distractor_trianglediamonds.svg	4	yes	57	0	565
6.6.0	mac	2022-12-14	18:04:59	18:23:55	1134768	5d76d2f7daf4bf00164d585b	821596934	1	main_z	7	main_z	105	stimuli_target_squarediamonds.svg	stimuli_distractor_diamondtriangles.svg	8	yes	44	1	379
6.6.0	mac	2022-12-14	18:04:59	18:23:55	1134768	5d76d2f7daf4bf00164d585b	821596934	1	main_z	7	advance_on_keypress_ZEE	106	stimuli_target_squarediamonds.svg	stimuli_distractor_diamondtriangles.svg	8	yes	57	0	411
6.6.0	mac	2022-12-14	18:04:59	18:23:56	1136340	5d76d2f7daf4bf00164d585b	821596934	1	main_z	7	main_z	107	stimuli_target_trianglesquares.svg	stimuli_distractor_diamondtriangles.svg	22	yes	44	1	518
6.6.0	mac	2022-12-14	18:04:59	18:23:56	1136340	5d76d2f7daf4bf00164d585b	821596934	1	main_z	7	advance_on_keypress_ZEE	108	stimuli_target_trianglesquares.svg	stimuli_distractor_diamondtriangles.svg	22	yes	57	0	487
6.6.0	mac	2022-12-14	18:04:59	18:23:59	1139457	5d76d2f7daf4bf00164d585b	821596934	1	main_z	7	main_z	109	stimuli_distractor_diamondtriangles.svg	stimuli_distractor_diamondtriangles.svg	40	no	0	1	2000
6.6.0	mac	2022-12-14	18:04:59	18:23:59	1139457	5d76d2f7daf4bf00164d585b	821596934	1	main_z	7	advance_on_keypress_ZEE	110	stimuli_distractor_diamondtriangles.svg	stimuli_distractor_diamondtriangles.svg	40	no	57	0	284
6.6.0	mac	2022-12-14	18:04:59	18:24:01	1140891	5d76d2f7daf4bf00164d585b	821596934	1	main_z	7	main_z	111	stimuli_distractor_trianglediamonds.svg	stimuli_target_diamondcircles.svg	27	yes	44	1	519
6.6.0	mac	2022-12-14	18:04:59	18:24:01	1140891	5d76d2f7daf4bf00164d585b	821596934	1	main_z	7	advance_on_keypress_ZEE	112	stimuli_distractor_trianglediamonds.svg	stimuli_target_diamondcircles.svg	27	yes	57	0	482
6.6.0	mac	2022-12-14	18:04:59	18:24:03	1142586	5d76d2f7daf4bf00164d585b	821596934	1	main_z	7	main_z	113	stimuli_target_squaretriangles.svg	stimuli_distractor_diamondtriangles.svg	7	yes	44	1	564
6.6.0	mac	2022-12-14	18:04:59	18:24:03	1142586	5d76d2f7daf4bf00164d585b	821596934	1	main_z	7	advance_on_keypress_ZEE	114	stimuli_target_squaretriangles.svg	stimuli_distractor_diamondtriangles.svg	7	yes	57	0	457
6.6.0	mac	2022-12-14	18:04:59	18:24:04	1144386	5d76d2f7daf4bf00164d585b	821596934	1	main_z	7	main_z	115	stimuli_distractor_diamondtriangles.svg	stimuli_target_trianglesquares.svg	30	yes	44	1	714
6.6.0	mac	2022-12-14	18:04:59	18:24:04	1144386	5d76d2f7daf4bf00164d585b	821596934	1	main_z	7	advance_on_keypress_ZEE	116	stimuli_distractor_diamondtriangles.svg	stimuli_target_trianglesquares.svg	30	yes	57	0	508
6.6.0	mac	2022-12-14	18:04:59	18:24:06	1145976	5d76d2f7daf4bf00164d585b	821596934	1	main_z	7	main_z	117	stimuli_distractor_trianglediamonds.svg	stimuli_target_trianglesquares.svg	26	yes	44	1	454
6.6.0	mac	2022-12-14	18:04:59	18:24:06	1145976	5d76d2f7daf4bf00164d585b	821596934	1	main_z	7	advance_on_keypress_ZEE	118	stimuli_distractor_trianglediamonds.svg	stimuli_target_trianglesquares.svg	26	yes	57	0	507
6.6.0	mac	2022-12-14	18:04:59	18:24:08	1147621	5d76d2f7daf4bf00164d585b	821596934	1	main_z	7	main_z	119	stimuli_target_diamondsquares.svg	stimuli_distractor_trianglediamonds.svg	20	yes	44	1	515
6.6.0	mac	2022-12-14	18:04:59	18:24:08	1147621	5d76d2f7daf4bf00164d585b	821596934	1	main_z	7	advance_on_keypress_ZEE	120	stimuli_target_diamondsquares.svg	stimuli_distractor_trianglediamonds.svg	20	yes	57	0	616
6.6.0	mac	2022-12-14	18:04:59	18:24:11	1150875	5d76d2f7daf4bf00164d585b	821596934	1	main_z	7	main_z	121	stimuli_distractor_trianglediamonds.svg	stimuli_distractor_trianglediamonds.svg	34	no	0	1	2000
6.6.0	mac	2022-12-14	18:04:59	18:24:11	1150875	5d76d2f7daf4bf00164d585b	821596934	1	main_z	7	advance_on_keypress_ZEE	122	stimuli_distractor_trianglediamonds.svg	stimuli_distractor_trianglediamonds.svg	34	no	57	0	285
6.6.0	mac	2022-12-14	18:04:59	18:24:14	1153792	5d76d2f7daf4bf00164d585b	821596934	1	main_z	7	main_z	123	stimuli_distractor_trianglediamonds.svg	stimuli_distractor_diamondtriangles.svg	35	no	0	1	2000
6.6.0	mac	2022-12-14	18:04:59	18:24:14	1153792	5d76d2f7daf4bf00164d585b	821596934	1	main_z	7	advance_on_keypress_ZEE	124	stimuli_distractor_trianglediamonds.svg	stimuli_distractor_diamondtriangles.svg	35	no	57	0	295
6.6.0	mac	2022-12-14	18:04:59	18:24:15	1155153	5d76d2f7daf4bf00164d585b	821596934	1	main_z	7	main_z	125	stimuli_target_diamondcircles.svg	stimuli_distractor_diamondtriangles.svg	23	yes	44	1	431
6.6.0	mac	2022-12-14	18:04:59	18:24:15	1155153	5d76d2f7daf4bf00164d585b	821596934	1	main_z	7	advance_on_keypress_ZEE	126	stimuli_target_diamondcircles.svg	stimuli_distractor_diamondtriangles.svg	23	yes	57	0	449
6.6.0	mac	2022-12-14	18:04:59	18:24:17	1156808	5d76d2f7daf4bf00164d585b	821596934	1	main_z	7	main_z	127	stimuli_distractor_trianglediamonds.svg	stimuli_target_squaretriangles.svg	11	yes	44	1	569
6.6.0	mac	2022-12-14	18:04:59	18:24:17	1156808	5d76d2f7daf4bf00164d585b	821596934	1	main_z	7	advance_on_keypress_ZEE	128	stimuli_distractor_trianglediamonds.svg	stimuli_target_squaretriangles.svg	11	yes	57	0	462
6.6.0	mac	2022-12-14	18:04:59	18:24:20	1159908	5d76d2f7daf4bf00164d585b	821596934	1	main_z	7	main_z	129	stimuli_distractor_trianglediamonds.svg	stimuli_distractor_diamondtriangles.svg	36	no	0	1	2000
6.6.0	mac	2022-12-14	18:04:59	18:24:20	1159908	5d76d2f7daf4bf00164d585b	821596934	1	main_z	7	advance_on_keypress_ZEE	130	stimuli_distractor_trianglediamonds.svg	stimuli_distractor_diamondtriangles.svg	36	no	57	0	313
6.6.0	mac	2022-12-14	18:04:59	18:24:21	1161399	5d76d2f7daf4bf00164d585b	821596934	1	main_z	7	main_z	131	stimuli_target_trianglesquares.svg	stimuli_distractor_trianglediamonds.svg	18	yes	44	1	543
6.6.0	mac	2022-12-14	18:04:59	18:24:21	1161399	5d76d2f7daf4bf00164d585b	821596934	1	main_z	7	advance_on_keypress_ZEE	132	stimuli_target_trianglesquares.svg	stimuli_distractor_trianglediamonds.svg	18	yes	57	0	497
6.6.0	mac	2022-12-14	18:04:59	18:24:23	1163208	5d76d2f7daf4bf00164d585b	821596934	1	main_z	7	main_z	133	stimuli_distractor_diamondtriangles.svg	stimuli_target_squarediamonds.svg	16	yes	44	1	685
6.6.0	mac	2022-12-14	18:04:59	18:24:23	1163208	5d76d2f7daf4bf00164d585b	821596934	1	main_z	7	advance_on_keypress_ZEE	134	stimuli_distractor_diamondtriangles.svg	stimuli_target_squarediamonds.svg	16	yes	57	0	543
6.6.0	mac	2022-12-14	18:04:59	18:24:25	1164823	5d76d2f7daf4bf00164d585b	821596934	1	main_z	7	main_z	135	stimuli_distractor_diamondtriangles.svg	stimuli_target_diamondsquares.svg	32	yes	44	1	451
6.6.0	mac	2022-12-14	18:04:59	18:24:25	1164823	5d76d2f7daf4bf00164d585b	821596934	1	main_z	7	advance_on_keypress_ZEE	136	stimuli_distractor_diamondtriangles.svg	stimuli_target_diamondsquares.svg	32	yes	57	0	414
6.6.0	mac	2022-12-14	18:04:59	18:24:26	1166220	5d76d2f7daf4bf00164d585b	821596934	1	main_z	7	main_z	137	stimuli_distractor_trianglediamonds.svg	stimuli_target_circlediamonds.svg	10	yes	44	1	348
6.6.0	mac	2022-12-14	18:04:59	18:24:26	1166220	5d76d2f7daf4bf00164d585b	821596934	1	main_z	7	advance_on_keypress_ZEE	138	stimuli_distractor_trianglediamonds.svg	stimuli_target_circlediamonds.svg	10	yes	57	0	418
6.6.0	mac	2022-12-14	18:04:59	18:24:28	1167716	5d76d2f7daf4bf00164d585b	821596934	1	main_z	7	main_z	139	stimuli_target_squaretriangles.svg	stimuli_distractor_trianglediamonds.svg	3	yes	44	1	443
6.6.0	mac	2022-12-14	18:04:59	18:24:28	1167716	5d76d2f7daf4bf00164d585b	821596934	1	main_z	7	advance_on_keypress_ZEE	140	stimuli_target_squaretriangles.svg	stimuli_distractor_trianglediamonds.svg	3	yes	57	0	425
6.6.0	mac	2022-12-14	18:04:59	18:24:29	1169208	5d76d2f7daf4bf00164d585b	821596934	1	main_z	7	main_z	141	stimuli_target_trianglecircles.svg	stimuli_distractor_diamondtriangles.svg	21	yes	44	1	453
6.6.0	mac	2022-12-14	18:04:59	18:24:29	1169208	5d76d2f7daf4bf00164d585b	821596934	1	main_z	7	advance_on_keypress_ZEE	142	stimuli_target_trianglecircles.svg	stimuli_distractor_diamondtriangles.svg	21	yes	57	0	478
6.6.0	mac	2022-12-14	18:04:59	18:24:31	1170696	5d76d2f7daf4bf00164d585b	821596934	1	main_z	7	main_z	143	stimuli_target_circletriangles.svg	stimuli_distractor_trianglediamonds.svg	1	yes	44	1	373
6.6.0	mac	2022-12-14	18:04:59	18:24:31	1170696	5d76d2f7daf4bf00164d585b	821596934	1	main_z	7	advance_on_keypress_ZEE	144	stimuli_target_circletriangles.svg	stimuli_distractor_trianglediamonds.svg	1	yes	57	0	541
6.6.0	mac	2022-12-14	18:04:59	18:24:32	1172403	5d76d2f7daf4bf00164d585b	821596934	1	main_z	7	main_z	145	stimuli_distractor_trianglediamonds.svg	stimuli_target_squarediamonds.svg	12	yes	44	1	548
6.6.0	mac	2022-12-14	18:04:59	18:24:32	1172403	5d76d2f7daf4bf00164d585b	821596934	1	main_z	7	advance_on_keypress_ZEE	146	stimuli_distractor_trianglediamonds.svg	stimuli_target_squarediamonds.svg	12	yes	57	0	423
6.6.0	mac	2022-12-14	18:04:59	18:24:34	1173858	5d76d2f7daf4bf00164d585b	821596934	1	main_z	7	main_z	147	stimuli_target_circlediamonds.svg	stimuli_distractor_trianglediamonds.svg	2	yes	44	1	403
6.6.0	mac	2022-12-14	18:04:59	18:24:34	1173858	5d76d2f7daf4bf00164d585b	821596934	1	main_z	7	advance_on_keypress_ZEE	148	stimuli_target_circlediamonds.svg	stimuli_distractor_trianglediamonds.svg	2	yes	57	0	398
6.6.0	mac	2022-12-14	18:04:59	18:24:36	1175618	5d76d2f7daf4bf00164d585b	821596934	1	main_z	7	main_z	149	stimuli_target_diamondcircles.svg	stimuli_distractor_trianglediamonds.svg	19	yes	44	1	726
6.6.0	mac	2022-12-14	18:04:59	18:24:36	1175618	5d76d2f7daf4bf00164d585b	821596934	1	main_z	7	advance_on_keypress_ZEE	150	stimuli_target_diamondcircles.svg	stimuli_distractor_trianglediamonds.svg	19	yes	57	0	628
6.6.0	mac	2022-12-14	18:04:59	18:24:37	1177359	5d76d2f7daf4bf00164d585b	821596934	1	main_z	7	main_z	151	stimuli_distractor_diamondtriangles.svg	stimuli_target_squaretriangles.svg	15	yes	44	1	487
6.6.0	mac	2022-12-14	18:04:59	18:24:37	1177359	5d76d2f7daf4bf00164d585b	821596934	1	main_z	7	advance_on_keypress_ZEE	152	stimuli_distractor_diamondtriangles.svg	stimuli_target_squaretriangles.svg	15	yes	57	0	1214
6.6.0	mac	2022-12-14	18:04:59	18:24:40	1179557	5d76d2f7daf4bf00164d585b	821596934	1	main_z	7	main_z	153	stimuli_target_circlediamonds.svg	stimuli_distractor_diamondtriangles.svg	6	yes	44	1	351
6.6.0	mac	2022-12-14	18:04:59	18:24:40	1179557	5d76d2f7daf4bf00164d585b	821596934	1	main_z	7	advance_on_keypress_ZEE	154	stimuli_target_circlediamonds.svg	stimuli_distractor_diamondtriangles.svg	6	yes	57	0	395
6.6.0	mac	2022-12-14	18:04:59	18:24:41	1181153	5d76d2f7daf4bf00164d585b	821596934	1	main_z	7	main_z	155	stimuli_target_diamondsquares.svg	stimuli_distractor_diamondtriangles.svg	24	yes	44	1	560
6.6.0	mac	2022-12-14	18:04:59	18:24:41	1181153	5d76d2f7daf4bf00164d585b	821596934	1	main_z	7	advance_on_keypress_ZEE	156	stimuli_target_diamondsquares.svg	stimuli_distractor_diamondtriangles.svg	24	yes	57	0	461
6.6.0	mac	2022-12-14	18:04:59	18:24:43	1182636	5d76d2f7daf4bf00164d585b	821596934	1	main_z	7	main_z	157	stimuli_distractor_trianglediamonds.svg	stimuli_target_diamondsquares.svg	28	yes	44	1	380
6.6.0	mac	2022-12-14	18:04:59	18:24:43	1182636	5d76d2f7daf4bf00164d585b	821596934	1	main_z	7	advance_on_keypress_ZEE	158	stimuli_distractor_trianglediamonds.svg	stimuli_target_diamondsquares.svg	28	yes	57	0	441
6.6.0	mac	2022-12-14	18:04:59	18:24:44	1184152	5d76d2f7daf4bf00164d585b	821596934	1	main_z	7	main_z	159	stimuli_distractor_trianglediamonds.svg	stimuli_target_trianglecircles.svg	25	yes	44	1	429
6.6.0	mac	2022-12-14	18:04:59	18:24:44	1184152	5d76d2f7daf4bf00164d585b	821596934	1	main_z	7	advance_on_keypress_ZEE	160	stimuli_distractor_trianglediamonds.svg	stimuli_target_trianglecircles.svg	25	yes	57	0	387
6.6.0	mac	2022-12-14	18:04:59	18:25:13	1213426	5d76d2f7daf4bf00164d585b	821596934	1	practice_slash	9	practice_slash	1	stimuli_distractor_trianglediamonds.svg	stimuli_distractor_trianglediamonds.svg	15	no	0	1	2000
6.6.0	mac	2022-12-14	18:04:59	18:25:13	1213426	5d76d2f7daf4bf00164d585b	821596934	1	practice_slash	9	advance_on_keypress_SLASH	2	stimuli_distractor_trianglediamonds.svg	stimuli_distractor_trianglediamonds.svg	15	no	57	0	438
6.6.0	mac	2022-12-14	18:04:59	18:25:16	1215902	5d76d2f7daf4bf00164d585b	821596934	1	practice_slash	9	practice_slash	3	stimuli_distractor_trianglediamonds.svg	stimuli_target_circlediamonds.svg	10	yes	53	1	411
6.6.0	mac	2022-12-14	18:04:59	18:25:16	1215902	5d76d2f7daf4bf00164d585b	821596934	1	practice_slash	9	advance_on_keypress_SLASH	4	stimuli_distractor_trianglediamonds.svg	stimuli_target_circlediamonds.svg	10	yes	57	0	463
6.6.0	mac	2022-12-14	18:04:59	18:25:18	1218423	5d76d2f7daf4bf00164d585b	821596934	1	practice_slash	9	practice_slash	5	stimuli_target_squarediamonds.svg	stimuli_distractor_diamondtriangles.svg	2	yes	53	1	433
6.6.0	mac	2022-12-14	18:04:59	18:25:18	1218423	5d76d2f7daf4bf00164d585b	821596934	1	practice_slash	9	advance_on_keypress_SLASH	6	stimuli_target_squarediamonds.svg	stimuli_distractor_diamondtriangles.svg	2	yes	57	0	277
6.6.0	mac	2022-12-14	18:04:59	18:25:21	1220724	5d76d2f7daf4bf00164d585b	821596934	1	practice_slash	9	practice_slash	7	stimuli_distractor_trianglediamonds.svg	stimuli_target_diamondcircles.svg	12	yes	53	1	384
6.6.0	mac	2022-12-14	18:04:59	18:25:21	1220724	5d76d2f7daf4bf00164d585b	821596934	1	practice_slash	9	advance_on_keypress_SLASH	8	stimuli_distractor_trianglediamonds.svg	stimuli_target_diamondcircles.svg	12	yes	57	0	274
6.6.0	mac	2022-12-14	18:04:59	18:25:23	1223016	5d76d2f7daf4bf00164d585b	821596934	1	practice_slash	9	practice_slash	9	stimuli_target_diamondsquares.svg	stimuli_distractor_trianglediamonds.svg	6	yes	53	1	394
6.6.0	mac	2022-12-14	18:04:59	18:25:23	1223016	5d76d2f7daf4bf00164d585b	821596934	1	practice_slash	9	advance_on_keypress_SLASH	10	stimuli_target_diamondsquares.svg	stimuli_distractor_trianglediamonds.svg	6	yes	57	0	442
6.6.0	mac	2022-12-14	18:04:59	18:25:25	1225437	5d76d2f7daf4bf00164d585b	821596934	1	practice_slash	9	practice_slash	11	stimuli_distractor_diamondtriangles.svg	stimuli_target_trianglecircles.svg	9	yes	53	1	364
6.6.0	mac	2022-12-14	18:04:59	18:25:25	1225437	5d76d2f7daf4bf00164d585b	821596934	1	practice_slash	9	advance_on_keypress_SLASH	12	stimuli_distractor_diamondtriangles.svg	stimuli_target_trianglecircles.svg	9	yes	57	0	252
6.6.0	mac	2022-12-14	18:04:59	18:25:28	1227771	5d76d2f7daf4bf00164d585b	821596934	1	practice_slash	9	practice_slash	13	stimuli_target_circlediamonds.svg	stimuli_distractor_diamondtriangles.svg	1	yes	53	1	448
6.6.0	mac	2022-12-14	18:04:59	18:25:28	1227771	5d76d2f7daf4bf00164d585b	821596934	1	practice_slash	9	advance_on_keypress_SLASH	14	stimuli_target_circlediamonds.svg	stimuli_distractor_diamondtriangles.svg	1	yes	57	0	403
6.6.0	mac	2022-12-14	18:04:59	18:25:32	1231810	5d76d2f7daf4bf00164d585b	821596934	1	practice_slash	9	practice_slash	15	stimuli_distractor_diamondtriangles.svg	stimuli_distractor_diamondtriangles.svg	13	no	0	1	2000
6.6.0	mac	2022-12-14	18:04:59	18:25:32	1231810	5d76d2f7daf4bf00164d585b	821596934	1	practice_slash	9	advance_on_keypress_SLASH	16	stimuli_distractor_diamondtriangles.svg	stimuli_distractor_diamondtriangles.svg	13	no	57	0	338
6.6.0	mac	2022-12-14	18:04:59	18:25:34	1234159	5d76d2f7daf4bf00164d585b	821596934	1	practice_slash	9	practice_slash	17	stimuli_distractor_diamondtriangles.svg	stimuli_target_diamondcircles.svg	8	yes	53	1	386
6.6.0	mac	2022-12-14	18:04:59	18:25:34	1234159	5d76d2f7daf4bf00164d585b	821596934	1	practice_slash	9	advance_on_keypress_SLASH	18	stimuli_distractor_diamondtriangles.svg	stimuli_target_diamondcircles.svg	8	yes	57	0	426
6.6.0	mac	2022-12-14	18:04:59	18:25:38	1238225	5d76d2f7daf4bf00164d585b	821596934	1	practice_slash	9	practice_slash	19	stimuli_distractor_diamondtriangles.svg	stimuli_distractor_trianglediamonds.svg	14	no	0	1	2000
6.6.0	mac	2022-12-14	18:04:59	18:25:38	1238225	5d76d2f7daf4bf00164d585b	821596934	1	practice_slash	9	advance_on_keypress_SLASH	20	stimuli_distractor_diamondtriangles.svg	stimuli_distractor_trianglediamonds.svg	14	no	57	0	446
6.6.0	mac	2022-12-14	18:04:59	18:25:41	1240647	5d76d2f7daf4bf00164d585b	821596934	1	practice_slash	9	practice_slash	21	stimuli_distractor_diamondtriangles.svg	stimuli_target_circletriangles.svg	7	yes	53	1	340
6.6.0	mac	2022-12-14	18:04:59	18:25:41	1240647	5d76d2f7daf4bf00164d585b	821596934	1	practice_slash	9	advance_on_keypress_SLASH	22	stimuli_distractor_diamondtriangles.svg	stimuli_target_circletriangles.svg	7	yes	57	0	518
6.6.0	mac	2022-12-14	18:04:59	18:25:43	1243222	5d76d2f7daf4bf00164d585b	821596934	1	practice_slash	9	practice_slash	23	stimuli_target_squarediamonds.svg	stimuli_distractor_trianglediamonds.svg	5	yes	53	1	433
6.6.0	mac	2022-12-14	18:04:59	18:25:43	1243222	5d76d2f7daf4bf00164d585b	821596934	1	practice_slash	9	advance_on_keypress_SLASH	24	stimuli_target_squarediamonds.svg	stimuli_distractor_trianglediamonds.svg	5	yes	57	0	462
6.6.0	mac	2022-12-14	18:04:59	18:25:46	1245739	5d76d2f7daf4bf00164d585b	821596934	1	practice_slash	9	practice_slash	25	stimuli_target_circlediamonds.svg	stimuli_distractor_trianglediamonds.svg	4	yes	53	1	417
6.6.0	mac	2022-12-14	18:04:59	18:25:46	1245739	5d76d2f7daf4bf00164d585b	821596934	1	practice_slash	9	advance_on_keypress_SLASH	26	stimuli_target_circlediamonds.svg	stimuli_distractor_trianglediamonds.svg	4	yes	57	0	406
6.6.0	mac	2022-12-14	18:04:59	18:25:48	1248157	5d76d2f7daf4bf00164d585b	821596934	1	practice_slash	9	practice_slash	27	stimuli_distractor_trianglediamonds.svg	stimuli_target_squarediamonds.svg	11	yes	53	1	385
6.6.0	mac	2022-12-14	18:04:59	18:25:48	1248157	5d76d2f7daf4bf00164d585b	821596934	1	practice_slash	9	advance_on_keypress_SLASH	28	stimuli_distractor_trianglediamonds.svg	stimuli_target_squarediamonds.svg	11	yes	57	0	434
6.6.0	mac	2022-12-14	18:04:59	18:25:52	1252226	5d76d2f7daf4bf00164d585b	821596934	1	practice_slash	9	practice_slash	29	stimuli_distractor_trianglediamonds.svg	stimuli_distractor_diamondtriangles.svg	16	no	0	1	2000
6.6.0	mac	2022-12-14	18:04:59	18:25:52	1252226	5d76d2f7daf4bf00164d585b	821596934	1	practice_slash	9	advance_on_keypress_SLASH	30	stimuli_distractor_trianglediamonds.svg	stimuli_distractor_diamondtriangles.svg	16	no	57	0	423
6.6.0	mac	2022-12-14	18:04:59	18:25:56	1256276	5d76d2f7daf4bf00164d585b	821596934	1	practice_slash	9	practice_slash	31	stimuli_target_diamondsquares.svg	stimuli_distractor_diamondtriangles.svg	3	yes	0	0	2000
6.6.0	mac	2022-12-14	18:04:59	18:25:56	1256276	5d76d2f7daf4bf00164d585b	821596934	1	practice_slash	9	advance_on_keypress_SLASH	32	stimuli_target_diamondsquares.svg	stimuli_distractor_diamondtriangles.svg	3	yes	57	0	383
6.6.0	mac	2022-12-14	18:04:59	18:26:03	1263158	5d76d2f7daf4bf00164d585b	821596934	1	main_slash	11	main_slash	1	stimuli_distractor_diamondtriangles.svg	stimuli_distractor_diamondtriangles.svg	40	no	0	1	2000
6.6.0	mac	2022-12-14	18:04:59	18:26:03	1263158	5d76d2f7daf4bf00164d585b	821596934	1	main_slash	11	advance_on_keypress_SLASH	2	stimuli_distractor_diamondtriangles.svg	stimuli_distractor_diamondtriangles.svg	40	no	57	0	609
6.6.0	mac	2022-12-14	18:04:59	18:26:05	1264843	5d76d2f7daf4bf00164d585b	821596934	1	main_slash	11	main_slash	3	stimuli_distractor_diamondtriangles.svg	stimuli_target_diamondsquares.svg	32	yes	53	1	454
6.6.0	mac	2022-12-14	18:04:59	18:26:05	1264843	5d76d2f7daf4bf00164d585b	821596934	1	main_slash	11	advance_on_keypress_SLASH	4	stimuli_distractor_diamondtriangles.svg	stimuli_target_diamondsquares.svg	32	yes	57	0	489
6.6.0	mac	2022-12-14	18:04:59	18:26:08	1267958	5d76d2f7daf4bf00164d585b	821596934	1	main_slash	11	main_slash	5	stimuli_distractor_trianglediamonds.svg	stimuli_distractor_diamondtriangles.svg	35	no	0	1	2000
6.6.0	mac	2022-12-14	18:04:59	18:26:08	1267958	5d76d2f7daf4bf00164d585b	821596934	1	main_slash	11	advance_on_keypress_SLASH	6	stimuli_distractor_trianglediamonds.svg	stimuli_distractor_diamondtriangles.svg	35	no	57	0	261
6.6.0	mac	2022-12-14	18:04:59	18:26:09	1269258	5d76d2f7daf4bf00164d585b	821596934	1	main_slash	11	main_slash	7	stimuli_target_squarediamonds.svg	stimuli_distractor_trianglediamonds.svg	4	yes	53	1	402
6.6.0	mac	2022-12-14	18:04:59	18:26:09	1269258	5d76d2f7daf4bf00164d585b	821596934	1	main_slash	11	advance_on_keypress_SLASH	8	stimuli_target_squarediamonds.svg	stimuli_distractor_trianglediamonds.svg	4	yes	57	0	519
6.6.0	mac	2022-12-14	18:04:59	18:26:11	1270851	5d76d2f7daf4bf00164d585b	821596934	1	main_slash	11	main_slash	9	stimuli_distractor_trianglediamonds.svg	stimuli_target_trianglesquares.svg	26	yes	53	1	429
6.6.0	mac	2022-12-14	18:04:59	18:26:11	1270851	5d76d2f7daf4bf00164d585b	821596934	1	main_slash	11	advance_on_keypress_SLASH	10	stimuli_distractor_trianglediamonds.svg	stimuli_target_trianglesquares.svg	26	yes	57	0	488
6.6.0	mac	2022-12-14	18:04:59	18:26:12	1272359	5d76d2f7daf4bf00164d585b	821596934	1	main_slash	11	main_slash	11	stimuli_distractor_diamondtriangles.svg	stimuli_target_squarediamonds.svg	16	yes	53	1	404
6.6.0	mac	2022-12-14	18:04:59	18:26:12	1272359	5d76d2f7daf4bf00164d585b	821596934	1	main_slash	11	advance_on_keypress_SLASH	12	stimuli_distractor_diamondtriangles.svg	stimuli_target_squarediamonds.svg	16	yes	57	0	440
6.6.0	mac	2022-12-14	18:04:59	18:26:14	1273826	5d76d2f7daf4bf00164d585b	821596934	1	main_slash	11	main_slash	13	stimuli_target_trianglesquares.svg	stimuli_distractor_trianglediamonds.svg	18	yes	53	1	387
6.6.0	mac	2022-12-14	18:04:59	18:26:14	1273826	5d76d2f7daf4bf00164d585b	821596934	1	main_slash	11	advance_on_keypress_SLASH	14	stimuli_target_trianglesquares.svg	stimuli_distractor_trianglediamonds.svg	18	yes	57	0	500
6.6.0	mac	2022-12-14	18:04:59	18:26:15	1275358	5d76d2f7daf4bf00164d585b	821596934	1	main_slash	11	main_slash	15	stimuli_distractor_diamondtriangles.svg	stimuli_target_circlediamonds.svg	14	yes	53	1	402
6.6.0	mac	2022-12-14	18:04:59	18:26:15	1275358	5d76d2f7daf4bf00164d585b	821596934	1	main_slash	11	advance_on_keypress_SLASH	16	stimuli_distractor_diamondtriangles.svg	stimuli_target_circlediamonds.svg	14	yes	57	0	440
6.6.0	mac	2022-12-14	18:04:59	18:26:17	1276816	5d76d2f7daf4bf00164d585b	821596934	1	main_slash	11	main_slash	17	stimuli_target_circletriangles.svg	stimuli_distractor_trianglediamonds.svg	1	yes	53	1	376
6.6.0	mac	2022-12-14	18:04:59	18:26:17	1276816	5d76d2f7daf4bf00164d585b	821596934	1	main_slash	11	advance_on_keypress_SLASH	18	stimuli_target_circletriangles.svg	stimuli_distractor_trianglediamonds.svg	1	yes	57	0	471
6.6.0	mac	2022-12-14	18:04:59	18:26:18	1278478	5d76d2f7daf4bf00164d585b	821596934	1	main_slash	11	main_slash	19	stimuli_target_diamondsquares.svg	stimuli_distractor_trianglediamonds.svg	20	yes	53	1	573
6.6.0	mac	2022-12-14	18:04:59	18:26:18	1278478	5d76d2f7daf4bf00164d585b	821596934	1	main_slash	11	advance_on_keypress_SLASH	20	stimuli_target_diamondsquares.svg	stimuli_distractor_trianglediamonds.svg	20	yes	57	0	456
6.6.0	mac	2022-12-14	18:04:59	18:26:20	1279985	5d76d2f7daf4bf00164d585b	821596934	1	main_slash	11	main_slash	21	stimuli_distractor_diamondtriangles.svg	stimuli_target_circletriangles.svg	13	yes	53	1	430
6.6.0	mac	2022-12-14	18:04:59	18:26:20	1279985	5d76d2f7daf4bf00164d585b	821596934	1	main_slash	11	advance_on_keypress_SLASH	22	stimuli_distractor_diamondtriangles.svg	stimuli_target_circletriangles.svg	13	yes	57	0	653
6.6.0	mac	2022-12-14	18:04:59	18:26:23	1283258	5d76d2f7daf4bf00164d585b	821596934	1	main_slash	11	main_slash	23	stimuli_distractor_diamondtriangles.svg	stimuli_distractor_diamondtriangles.svg	39	no	0	1	2000
6.6.0	mac	2022-12-14	18:04:59	18:26:23	1283258	5d76d2f7daf4bf00164d585b	821596934	1	main_slash	11	advance_on_keypress_SLASH	24	stimuli_distractor_diamondtriangles.svg	stimuli_distractor_diamondtriangles.svg	39	no	57	0	296
6.6.0	mac	2022-12-14	18:04:59	18:26:25	1284820	5d76d2f7daf4bf00164d585b	821596934	1	main_slash	11	main_slash	25	stimuli_distractor_diamondtriangles.svg	stimuli_distractor_trianglediamonds.svg	37	no	53	0	631
6.6.0	mac	2022-12-14	18:04:59	18:26:25	1284820	5d76d2f7daf4bf00164d585b	821596934	1	main_slash	11	advance_on_keypress_SLASH	26	stimuli_distractor_diamondtriangles.svg	stimuli_distractor_trianglediamonds.svg	37	no	57	0	1121
6.6.0	mac	2022-12-14	18:04:59	18:26:29	1288574	5d76d2f7daf4bf00164d585b	821596934	1	main_slash	11	main_slash	27	stimuli_distractor_trianglediamonds.svg	stimuli_distractor_diamondtriangles.svg	36	no	0	1	2000
6.6.0	mac	2022-12-14	18:04:59	18:26:29	1288574	5d76d2f7daf4bf00164d585b	821596934	1	main_slash	11	advance_on_keypress_SLASH	28	stimuli_distractor_trianglediamonds.svg	stimuli_distractor_diamondtriangles.svg	36	no	57	0	323
6.6.0	mac	2022-12-14	18:04:59	18:26:30	1289987	5d76d2f7daf4bf00164d585b	821596934	1	main_slash	11	main_slash	29	stimuli_distractor_trianglediamonds.svg	stimuli_target_squarediamonds.svg	12	yes	53	1	448
6.6.0	mac	2022-12-14	18:04:59	18:26:30	1289987	5d76d2f7daf4bf00164d585b	821596934	1	main_slash	11	advance_on_keypress_SLASH	30	stimuli_distractor_trianglediamonds.svg	stimuli_target_squarediamonds.svg	12	yes	57	0	840
6.6.0	mac	2022-12-14	18:04:59	18:26:32	1291948	5d76d2f7daf4bf00164d585b	821596934	1	main_slash	11	main_slash	31	stimuli_target_diamondsquares.svg	stimuli_distractor_diamondtriangles.svg	24	yes	53	1	492
6.6.0	mac	2022-12-14	18:04:59	18:26:32	1291948	5d76d2f7daf4bf00164d585b	821596934	1	main_slash	11	advance_on_keypress_SLASH	32	stimuli_target_diamondsquares.svg	stimuli_distractor_diamondtriangles.svg	24	yes	57	0	717
6.6.0	mac	2022-12-14	18:04:59	18:26:34	1293739	5d76d2f7daf4bf00164d585b	821596934	1	main_slash	11	main_slash	33	stimuli_distractor_trianglediamonds.svg	stimuli_target_diamondsquares.svg	28	yes	53	1	450
6.6.0	mac	2022-12-14	18:04:59	18:26:34	1293739	5d76d2f7daf4bf00164d585b	821596934	1	main_slash	11	advance_on_keypress_SLASH	34	stimuli_distractor_trianglediamonds.svg	stimuli_target_diamondsquares.svg	28	yes	57	0	511
6.6.0	mac	2022-12-14	18:04:59	18:26:35	1295266	5d76d2f7daf4bf00164d585b	821596934	1	main_slash	11	main_slash	35	stimuli_target_circlediamonds.svg	stimuli_distractor_trianglediamonds.svg	2	yes	53	1	373
6.6.0	mac	2022-12-14	18:04:59	18:26:35	1295266	5d76d2f7daf4bf00164d585b	821596934	1	main_slash	11	advance_on_keypress_SLASH	36	stimuli_target_circlediamonds.svg	stimuli_distractor_trianglediamonds.svg	2	yes	57	0	394
6.6.0	mac	2022-12-14	18:04:59	18:26:37	1296672	5d76d2f7daf4bf00164d585b	821596934	1	main_slash	11	main_slash	37	stimuli_distractor_diamondtriangles.svg	stimuli_target_trianglecircles.svg	29	yes	53	1	382
6.6.0	mac	2022-12-14	18:04:59	18:26:37	1296672	5d76d2f7daf4bf00164d585b	821596934	1	main_slash	11	advance_on_keypress_SLASH	38	stimuli_distractor_diamondtriangles.svg	stimuli_target_trianglecircles.svg	29	yes	57	0	459
6.6.0	mac	2022-12-14	18:04:59	18:26:38	1298119	5d76d2f7daf4bf00164d585b	821596934	1	main_slash	11	main_slash	39	stimuli_distractor_trianglediamonds.svg	stimuli_target_circlediamonds.svg	10	yes	53	1	364
6.6.0	mac	2022-12-14	18:04:59	18:26:38	1298119	5d76d2f7daf4bf00164d585b	821596934	1	main_slash	11	advance_on_keypress_SLASH	40	stimuli_distractor_trianglediamonds.svg	stimuli_target_circlediamonds.svg	10	yes	57	0	459
6.6.0	mac	2022-12-14	18:04:59	18:26:40	1299567	5d76d2f7daf4bf00164d585b	821596934	1	main_slash	11	main_slash	41	stimuli_distractor_trianglediamonds.svg	stimuli_target_circletriangles.svg	9	yes	53	1	361
6.6.0	mac	2022-12-14	18:04:59	18:26:40	1299567	5d76d2f7daf4bf00164d585b	821596934	1	main_slash	11	advance_on_keypress_SLASH	42	stimuli_distractor_trianglediamonds.svg	stimuli_target_circletriangles.svg	9	yes	57	0	459
6.6.0	mac	2022-12-14	18:04:59	18:26:41	1301014	5d76d2f7daf4bf00164d585b	821596934	1	main_slash	11	main_slash	43	stimuli_target_circlediamonds.svg	stimuli_distractor_diamondtriangles.svg	6	yes	53	1	374
6.6.0	mac	2022-12-14	18:04:59	18:26:41	1301014	5d76d2f7daf4bf00164d585b	821596934	1	main_slash	11	advance_on_keypress_SLASH	44	stimuli_target_circlediamonds.svg	stimuli_distractor_diamondtriangles.svg	6	yes	57	0	438
6.6.0	mac	2022-12-14	18:04:59	18:26:43	1302542	5d76d2f7daf4bf00164d585b	821596934	1	main_slash	11	main_slash	45	stimuli_distractor_trianglediamonds.svg	stimuli_target_squaretriangles.svg	11	yes	53	1	469
6.6.0	mac	2022-12-14	18:04:59	18:26:43	1302542	5d76d2f7daf4bf00164d585b	821596934	1	main_slash	11	advance_on_keypress_SLASH	46	stimuli_distractor_trianglediamonds.svg	stimuli_target_squaretriangles.svg	11	yes	57	0	422
6.6.0	mac	2022-12-14	18:04:59	18:26:44	1303998	5d76d2f7daf4bf00164d585b	821596934	1	main_slash	11	main_slash	47	stimuli_target_circletriangles.svg	stimuli_distractor_diamondtriangles.svg	5	yes	53	1	410
6.6.0	mac	2022-12-14	18:04:59	18:26:44	1303998	5d76d2f7daf4bf00164d585b	821596934	1	main_slash	11	advance_on_keypress_SLASH	48	stimuli_target_circletriangles.svg	stimuli_distractor_diamondtriangles.svg	5	yes	57	0	332
6.6.0	mac	2022-12-14	18:04:59	18:26:45	1305442	5d76d2f7daf4bf00164d585b	821596934	1	main_slash	11	main_slash	49	stimuli_distractor_diamondtriangles.svg	stimuli_target_squaretriangles.svg	15	yes	53	1	469
6.6.0	mac	2022-12-14	18:04:59	18:26:45	1305442	5d76d2f7daf4bf00164d585b	821596934	1	main_slash	11	advance_on_keypress_SLASH	50	stimuli_distractor_diamondtriangles.svg	stimuli_target_squaretriangles.svg	15	yes	57	0	424
6.6.0	mac	2022-12-14	18:04:59	18:26:47	1306936	5d76d2f7daf4bf00164d585b	821596934	1	main_slash	11	main_slash	51	stimuli_target_squarediamonds.svg	stimuli_distractor_diamondtriangles.svg	8	yes	53	1	446
6.6.0	mac	2022-12-14	18:04:59	18:26:47	1306936	5d76d2f7daf4bf00164d585b	821596934	1	main_slash	11	advance_on_keypress_SLASH	52	stimuli_target_squarediamonds.svg	stimuli_distractor_diamondtriangles.svg	8	yes	57	0	401
6.6.0	mac	2022-12-14	18:04:59	18:26:49	1308719	5d76d2f7daf4bf00164d585b	821596934	1	main_slash	11	main_slash	53	stimuli_distractor_trianglediamonds.svg	stimuli_target_diamondcircles.svg	27	yes	53	1	747
6.6.0	mac	2022-12-14	18:04:59	18:26:49	1308719	5d76d2f7daf4bf00164d585b	821596934	1	main_slash	11	advance_on_keypress_SLASH	54	stimuli_distractor_trianglediamonds.svg	stimuli_target_diamondcircles.svg	27	yes	57	0	500
6.6.0	mac	2022-12-14	18:04:59	18:26:50	1310219	5d76d2f7daf4bf00164d585b	821596934	1	main_slash	11	main_slash	55	stimuli_distractor_trianglediamonds.svg	stimuli_target_trianglecircles.svg	25	yes	53	1	363
6.6.0	mac	2022-12-14	18:04:59	18:26:50	1310219	5d76d2f7daf4bf00164d585b	821596934	1	main_slash	11	advance_on_keypress_SLASH	56	stimuli_distractor_trianglediamonds.svg	stimuli_target_trianglecircles.svg	25	yes	57	0	435
6.6.0	mac	2022-12-14	18:04:59	18:26:52	1311657	5d76d2f7daf4bf00164d585b	821596934	1	main_slash	11	main_slash	57	stimuli_distractor_diamondtriangles.svg	stimuli_target_diamondcircles.svg	31	yes	53	1	365
6.6.0	mac	2022-12-14	18:04:59	18:26:52	1311657	5d76d2f7daf4bf00164d585b	821596934	1	main_slash	11	advance_on_keypress_SLASH	58	stimuli_distractor_diamondtriangles.svg	stimuli_target_diamondcircles.svg	31	yes	57	0	380
6.6.0	mac	2022-12-14	18:04:59	18:26:55	1314675	5d76d2f7daf4bf00164d585b	821596934	1	main_slash	11	main_slash	59	stimuli_distractor_diamondtriangles.svg	stimuli_distractor_trianglediamonds.svg	38	no	0	1	2000
6.6.0	mac	2022-12-14	18:04:59	18:26:55	1314675	5d76d2f7daf4bf00164d585b	821596934	1	main_slash	11	advance_on_keypress_SLASH	60	stimuli_distractor_diamondtriangles.svg	stimuli_distractor_trianglediamonds.svg	38	no	57	0	255
6.6.0	mac	2022-12-14	18:04:59	18:26:56	1315985	5d76d2f7daf4bf00164d585b	821596934	1	main_slash	11	main_slash	61	stimuli_target_diamondcircles.svg	stimuli_distractor_trianglediamonds.svg	19	yes	53	1	413
6.6.0	mac	2022-12-14	18:04:59	18:26:56	1315985	5d76d2f7daf4bf00164d585b	821596934	1	main_slash	11	advance_on_keypress_SLASH	62	stimuli_target_diamondcircles.svg	stimuli_distractor_trianglediamonds.svg	19	yes	57	0	461
6.6.0	mac	2022-12-14	18:04:59	18:26:57	1317475	5d76d2f7daf4bf00164d585b	821596934	1	main_slash	11	main_slash	63	stimuli_target_trianglecircles.svg	stimuli_distractor_trianglediamonds.svg	17	yes	53	1	403
6.6.0	mac	2022-12-14	18:04:59	18:26:57	1317475	5d76d2f7daf4bf00164d585b	821596934	1	main_slash	11	advance_on_keypress_SLASH	64	stimuli_target_trianglecircles.svg	stimuli_distractor_trianglediamonds.svg	17	yes	57	0	438
6.6.0	mac	2022-12-14	18:04:59	18:26:59	1318968	5d76d2f7daf4bf00164d585b	821596934	1	main_slash	11	main_slash	65	stimuli_target_trianglecircles.svg	stimuli_distractor_diamondtriangles.svg	21	yes	53	1	412
6.6.0	mac	2022-12-14	18:04:59	18:26:59	1318968	5d76d2f7daf4bf00164d585b	821596934	1	main_slash	11	advance_on_keypress_SLASH	66	stimuli_target_trianglecircles.svg	stimuli_distractor_diamondtriangles.svg	21	yes	57	0	403
6.6.0	mac	2022-12-14	18:04:59	18:27:01	1320681	5d76d2f7daf4bf00164d585b	821596934	1	main_slash	11	main_slash	67	stimuli_target_squaretriangles.svg	stimuli_distractor_trianglediamonds.svg	3	yes	53	1	691
6.6.0	mac	2022-12-14	18:04:59	18:27:01	1320681	5d76d2f7daf4bf00164d585b	821596934	1	main_slash	11	advance_on_keypress_SLASH	68	stimuli_target_squaretriangles.svg	stimuli_distractor_trianglediamonds.svg	3	yes	57	0	737
6.6.0	mac	2022-12-14	18:04:59	18:27:02	1322448	5d76d2f7daf4bf00164d585b	821596934	1	main_slash	11	main_slash	69	stimuli_target_trianglesquares.svg	stimuli_distractor_diamondtriangles.svg	22	yes	53	1	409
6.6.0	mac	2022-12-14	18:04:59	18:27:02	1322448	5d76d2f7daf4bf00164d585b	821596934	1	main_slash	11	advance_on_keypress_SLASH	70	stimuli_target_trianglesquares.svg	stimuli_distractor_diamondtriangles.svg	22	yes	57	0	418
6.6.0	mac	2022-12-14	18:04:59	18:27:04	1323929	5d76d2f7daf4bf00164d585b	821596934	1	main_slash	11	main_slash	71	stimuli_distractor_diamondtriangles.svg	stimuli_target_trianglesquares.svg	30	yes	53	1	424
6.6.0	mac	2022-12-14	18:04:59	18:27:04	1323929	5d76d2f7daf4bf00164d585b	821596934	1	main_slash	11	advance_on_keypress_SLASH	72	stimuli_distractor_diamondtriangles.svg	stimuli_target_trianglesquares.svg	30	yes	57	0	485
6.6.0	mac	2022-12-14	18:04:59	18:27:07	1327042	5d76d2f7daf4bf00164d585b	821596934	1	main_slash	11	main_slash	73	stimuli_distractor_trianglediamonds.svg	stimuli_distractor_trianglediamonds.svg	33	no	0	1	2000
6.6.0	mac	2022-12-14	18:04:59	18:27:07	1327042	5d76d2f7daf4bf00164d585b	821596934	1	main_slash	11	advance_on_keypress_SLASH	74	stimuli_distractor_trianglediamonds.svg	stimuli_distractor_trianglediamonds.svg	33	no	57	0	251
6.6.0	mac	2022-12-14	18:04:59	18:27:08	1328353	5d76d2f7daf4bf00164d585b	821596934	1	main_slash	11	main_slash	75	stimuli_target_squaretriangles.svg	stimuli_distractor_diamondtriangles.svg	7	yes	53	1	431
6.6.0	mac	2022-12-14	18:04:59	18:27:08	1328353	5d76d2f7daf4bf00164d585b	821596934	1	main_slash	11	advance_on_keypress_SLASH	76	stimuli_target_squaretriangles.svg	stimuli_distractor_diamondtriangles.svg	7	yes	57	0	456
6.6.0	mac	2022-12-14	18:04:59	18:27:10	1329993	5d76d2f7daf4bf00164d585b	821596934	1	main_slash	11	main_slash	77	stimuli_target_diamondcircles.svg	stimuli_distractor_diamondtriangles.svg	23	yes	53	1	553
6.6.0	mac	2022-12-14	18:04:59	18:27:10	1329993	5d76d2f7daf4bf00164d585b	821596934	1	main_slash	11	advance_on_keypress_SLASH	78	stimuli_target_diamondcircles.svg	stimuli_distractor_diamondtriangles.svg	23	yes	57	0	657
6.6.0	mac	2022-12-14	18:04:59	18:27:13	1333275	5d76d2f7daf4bf00164d585b	821596934	1	main_slash	11	main_slash	79	stimuli_distractor_trianglediamonds.svg	stimuli_distractor_trianglediamonds.svg	34	no	0	1	2000
6.6.0	mac	2022-12-14	18:04:59	18:27:13	1333275	5d76d2f7daf4bf00164d585b	821596934	1	main_slash	11	advance_on_keypress_SLASH	80	stimuli_distractor_trianglediamonds.svg	stimuli_distractor_trianglediamonds.svg	34	no	57	0	271
6.6.0	mac	2022-12-14	18:04:59	18:27:15	1334615	5d76d2f7daf4bf00164d585b	821596934	1	main_slash	11	main_slash	81	stimuli_target_diamondsquares.svg	stimuli_distractor_trianglediamonds.svg	20	yes	53	1	426
6.6.0	mac	2022-12-14	18:04:59	18:27:15	1334615	5d76d2f7daf4bf00164d585b	821596934	1	main_slash	11	advance_on_keypress_SLASH	82	stimuli_target_diamondsquares.svg	stimuli_distractor_trianglediamonds.svg	20	yes	57	0	438
6.6.0	mac	2022-12-14	18:04:59	18:27:16	1336208	5d76d2f7daf4bf00164d585b	821596934	1	main_slash	11	main_slash	83	stimuli_distractor_diamondtriangles.svg	stimuli_distractor_trianglediamonds.svg	38	no	53	0	536
6.6.0	mac	2022-12-14	18:04:59	18:27:16	1336208	5d76d2f7daf4bf00164d585b	821596934	1	main_slash	11	advance_on_keypress_SLASH	84	stimuli_distractor_diamondtriangles.svg	stimuli_distractor_trianglediamonds.svg	38	no	57	0	1581
6.6.0	mac	2022-12-14	18:04:59	18:27:19	1338882	5d76d2f7daf4bf00164d585b	821596934	1	main_slash	11	main_slash	85	stimuli_target_trianglesquares.svg	stimuli_distractor_diamondtriangles.svg	22	yes	53	1	442
6.6.0	mac	2022-12-14	18:04:59	18:27:19	1338882	5d76d2f7daf4bf00164d585b	821596934	1	main_slash	11	advance_on_keypress_SLASH	86	stimuli_target_trianglesquares.svg	stimuli_distractor_diamondtriangles.svg	22	yes	57	0	595
6.6.0	mac	2022-12-14	18:04:59	18:27:20	1340502	5d76d2f7daf4bf00164d585b	821596934	1	main_slash	11	main_slash	87	stimuli_distractor_trianglediamonds.svg	stimuli_target_trianglecircles.svg	25	yes	53	1	397
6.6.0	mac	2022-12-14	18:04:59	18:27:20	1340502	5d76d2f7daf4bf00164d585b	821596934	1	main_slash	11	advance_on_keypress_SLASH	88	stimuli_distractor_trianglediamonds.svg	stimuli_target_trianglecircles.svg	25	yes	57	0	442
6.6.0	mac	2022-12-14	18:04:59	18:27:22	1342021	5d76d2f7daf4bf00164d585b	821596934	1	main_slash	11	main_slash	89	stimuli_target_circletriangles.svg	stimuli_distractor_trianglediamonds.svg	1	yes	53	1	449
6.6.0	mac	2022-12-14	18:04:59	18:27:22	1342021	5d76d2f7daf4bf00164d585b	821596934	1	main_slash	11	advance_on_keypress_SLASH	90	stimuli_target_circletriangles.svg	stimuli_distractor_trianglediamonds.svg	1	yes	57	0	450
6.6.0	mac	2022-12-14	18:04:59	18:27:24	1343570	5d76d2f7daf4bf00164d585b	821596934	1	main_slash	11	main_slash	91	stimuli_distractor_trianglediamonds.svg	stimuli_target_squaretriangles.svg	11	yes	53	1	465
6.6.0	mac	2022-12-14	18:04:59	18:27:24	1343570	5d76d2f7daf4bf00164d585b	821596934	1	main_slash	11	advance_on_keypress_SLASH	92	stimuli_distractor_trianglediamonds.svg	stimuli_target_squaretriangles.svg	11	yes	57	0	403
6.6.0	mac	2022-12-14	18:04:59	18:27:25	1345185	5d76d2f7daf4bf00164d585b	821596934	1	main_slash	11	main_slash	93	stimuli_distractor_diamondtriangles.svg	stimuli_target_diamondsquares.svg	32	yes	53	1	580
6.6.0	mac	2022-12-14	18:04:59	18:27:25	1345185	5d76d2f7daf4bf00164d585b	821596934	1	main_slash	11	advance_on_keypress_SLASH	94	stimuli_distractor_diamondtriangles.svg	stimuli_target_diamondsquares.svg	32	yes	57	0	455
6.6.0	mac	2022-12-14	18:04:59	18:27:27	1346639	5d76d2f7daf4bf00164d585b	821596934	1	main_slash	11	main_slash	95	stimuli_distractor_trianglediamonds.svg	stimuli_target_diamondcircles.svg	27	yes	53	1	384
6.6.0	mac	2022-12-14	18:04:59	18:27:27	1346639	5d76d2f7daf4bf00164d585b	821596934	1	main_slash	11	advance_on_keypress_SLASH	96	stimuli_distractor_trianglediamonds.svg	stimuli_target_diamondcircles.svg	27	yes	57	0	352
6.6.0	mac	2022-12-14	18:04:59	18:27:28	1348138	5d76d2f7daf4bf00164d585b	821596934	1	main_slash	11	main_slash	97	stimuli_target_squaretriangles.svg	stimuli_distractor_trianglediamonds.svg	3	yes	53	1	516
6.6.0	mac	2022-12-14	18:04:59	18:27:28	1348138	5d76d2f7daf4bf00164d585b	821596934	1	main_slash	11	advance_on_keypress_SLASH	98	stimuli_target_squaretriangles.svg	stimuli_distractor_trianglediamonds.svg	3	yes	57	0	328
6.6.0	mac	2022-12-14	18:04:59	18:27:29	1349520	5d76d2f7daf4bf00164d585b	821596934	1	main_slash	11	main_slash	99	stimuli_distractor_trianglediamonds.svg	stimuli_target_diamondsquares.svg	28	yes	53	1	414
6.6.0	mac	2022-12-14	18:04:59	18:27:29	1349520	5d76d2f7daf4bf00164d585b	821596934	1	main_slash	11	advance_on_keypress_SLASH	100	stimuli_distractor_trianglediamonds.svg	stimuli_target_diamondsquares.svg	28	yes	57	0	487
6.6.0	mac	2022-12-14	18:04:59	18:27:33	1352641	5d76d2f7daf4bf00164d585b	821596934	1	main_slash	11	main_slash	101	stimuli_distractor_trianglediamonds.svg	stimuli_distractor_diamondtriangles.svg	36	no	0	1	2000
6.6.0	mac	2022-12-14	18:04:59	18:27:33	1352641	5d76d2f7daf4bf00164d585b	821596934	1	main_slash	11	advance_on_keypress_SLASH	102	stimuli_distractor_trianglediamonds.svg	stimuli_distractor_diamondtriangles.svg	36	no	57	0	274
6.6.0	mac	2022-12-14	18:04:59	18:27:34	1353988	5d76d2f7daf4bf00164d585b	821596934	1	main_slash	11	main_slash	103	stimuli_target_trianglecircles.svg	stimuli_distractor_diamondtriangles.svg	21	yes	53	1	448
6.6.0	mac	2022-12-14	18:04:59	18:27:34	1353988	5d76d2f7daf4bf00164d585b	821596934	1	main_slash	11	advance_on_keypress_SLASH	104	stimuli_target_trianglecircles.svg	stimuli_distractor_diamondtriangles.svg	21	yes	57	0	466
6.6.0	mac	2022-12-14	18:04:59	18:27:35	1355464	5d76d2f7daf4bf00164d585b	821596934	1	main_slash	11	main_slash	105	stimuli_target_circlediamonds.svg	stimuli_distractor_diamondtriangles.svg	6	yes	53	1	375
6.6.0	mac	2022-12-14	18:04:59	18:27:35	1355464	5d76d2f7daf4bf00164d585b	821596934	1	main_slash	11	advance_on_keypress_SLASH	106	stimuli_target_circlediamonds.svg	stimuli_distractor_diamondtriangles.svg	6	yes	57	0	380
6.6.0	mac	2022-12-14	18:04:59	18:27:37	1357215	5d76d2f7daf4bf00164d585b	821596934	1	main_slash	11	main_slash	107	stimuli_distractor_diamondtriangles.svg	stimuli_target_squarediamonds.svg	16	yes	53	1	743
6.6.0	mac	2022-12-14	18:04:59	18:27:37	1357215	5d76d2f7daf4bf00164d585b	821596934	1	main_slash	11	advance_on_keypress_SLASH	108	stimuli_distractor_diamondtriangles.svg	stimuli_target_squarediamonds.svg	16	yes	57	0	458
6.6.0	mac	2022-12-14	18:04:59	18:27:39	1358700	5d76d2f7daf4bf00164d585b	821596934	1	main_slash	11	main_slash	109	stimuli_distractor_diamondtriangles.svg	stimuli_target_circletriangles.svg	13	yes	53	1	410
6.6.0	mac	2022-12-14	18:04:59	18:27:39	1358700	5d76d2f7daf4bf00164d585b	821596934	1	main_slash	11	advance_on_keypress_SLASH	110	stimuli_distractor_diamondtriangles.svg	stimuli_target_circletriangles.svg	13	yes	57	0	408
6.6.0	mac	2022-12-14	18:04:59	18:27:40	1360204	5d76d2f7daf4bf00164d585b	821596934	1	main_slash	11	main_slash	111	stimuli_distractor_diamondtriangles.svg	stimuli_distractor_trianglediamonds.svg	37	no	53	0	465
6.6.0	mac	2022-12-14	18:04:59	18:27:40	1360204	5d76d2f7daf4bf00164d585b	821596934	1	main_slash	11	advance_on_keypress_SLASH	112	stimuli_distractor_diamondtriangles.svg	stimuli_distractor_trianglediamonds.svg	37	no	57	0	1264
6.6.0	mac	2022-12-14	18:04:59	18:27:44	1364109	5d76d2f7daf4bf00164d585b	821596934	1	main_slash	11	main_slash	113	stimuli_distractor_trianglediamonds.svg	stimuli_distractor_diamondtriangles.svg	35	no	0	1	2000
6.6.0	mac	2022-12-14	18:04:59	18:27:44	1364109	5d76d2f7daf4bf00164d585b	821596934	1	main_slash	11	advance_on_keypress_SLASH	114	stimuli_distractor_trianglediamonds.svg	stimuli_distractor_diamondtriangles.svg	35	no	57	0	287
6.6.0	mac	2022-12-14	18:04:59	18:27:45	1365437	5d76d2f7daf4bf00164d585b	821596934	1	main_slash	11	main_slash	115	stimuli_target_squaretriangles.svg	stimuli_distractor_diamondtriangles.svg	7	yes	53	1	414
6.6.0	mac	2022-12-14	18:04:59	18:27:45	1365437	5d76d2f7daf4bf00164d585b	821596934	1	main_slash	11	advance_on_keypress_SLASH	116	stimuli_target_squaretriangles.svg	stimuli_distractor_diamondtriangles.svg	7	yes	57	0	324
6.6.0	mac	2022-12-14	18:04:59	18:27:47	1366845	5d76d2f7daf4bf00164d585b	821596934	1	main_slash	11	main_slash	117	stimuli_distractor_diamondtriangles.svg	stimuli_target_circlediamonds.svg	14	yes	53	1	455
6.6.0	mac	2022-12-14	18:04:59	18:27:47	1366845	5d76d2f7daf4bf00164d585b	821596934	1	main_slash	11	advance_on_keypress_SLASH	118	stimuli_distractor_diamondtriangles.svg	stimuli_target_circlediamonds.svg	14	yes	57	0	369
6.6.0	mac	2022-12-14	18:04:59	18:27:48	1368302	5d76d2f7daf4bf00164d585b	821596934	1	main_slash	11	main_slash	119	stimuli_target_diamondcircles.svg	stimuli_distractor_trianglediamonds.svg	19	yes	53	1	463
6.6.0	mac	2022-12-14	18:04:59	18:27:48	1368302	5d76d2f7daf4bf00164d585b	821596934	1	main_slash	11	advance_on_keypress_SLASH	120	stimuli_target_diamondcircles.svg	stimuli_distractor_trianglediamonds.svg	19	yes	57	0	334
6.6.0	mac	2022-12-14	18:04:59	18:27:51	1371275	5d76d2f7daf4bf00164d585b	821596934	1	main_slash	11	main_slash	121	stimuli_distractor_diamondtriangles.svg	stimuli_distractor_diamondtriangles.svg	39	no	0	1	2000
6.6.0	mac	2022-12-14	18:04:59	18:27:51	1371275	5d76d2f7daf4bf00164d585b	821596934	1	main_slash	11	advance_on_keypress_SLASH	122	stimuli_distractor_diamondtriangles.svg	stimuli_distractor_diamondtriangles.svg	39	no	57	0	266
6.6.0	mac	2022-12-14	18:04:59	18:27:53	1372591	5d76d2f7daf4bf00164d585b	821596934	1	main_slash	11	main_slash	123	stimuli_target_trianglecircles.svg	stimuli_distractor_trianglediamonds.svg	17	yes	53	1	418
6.6.0	mac	2022-12-14	18:04:59	18:27:53	1372591	5d76d2f7daf4bf00164d585b	821596934	1	main_slash	11	advance_on_keypress_SLASH	124	stimuli_target_trianglecircles.svg	stimuli_distractor_trianglediamonds.svg	17	yes	57	0	348
6.6.0	mac	2022-12-14	18:04:59	18:27:54	1374094	5d76d2f7daf4bf00164d585b	821596934	1	main_slash	11	main_slash	125	stimuli_distractor_diamondtriangles.svg	stimuli_target_diamondcircles.svg	31	yes	53	1	522
6.6.0	mac	2022-12-14	18:04:59	18:27:54	1374094	5d76d2f7daf4bf00164d585b	821596934	1	main_slash	11	advance_on_keypress_SLASH	126	stimuli_distractor_diamondtriangles.svg	stimuli_target_diamondcircles.svg	31	yes	57	0	422
6.6.0	mac	2022-12-14	18:04:59	18:27:56	1375678	5d76d2f7daf4bf00164d585b	821596934	1	main_slash	11	main_slash	127	stimuli_target_circletriangles.svg	stimuli_distractor_diamondtriangles.svg	5	yes	53	1	539
6.6.0	mac	2022-12-14	18:04:59	18:27:56	1375678	5d76d2f7daf4bf00164d585b	821596934	1	main_slash	11	advance_on_keypress_SLASH	128	stimuli_target_circletriangles.svg	stimuli_distractor_diamondtriangles.svg	5	yes	57	0	441
6.6.0	mac	2022-12-14	18:04:59	18:27:59	1378759	5d76d2f7daf4bf00164d585b	821596934	1	main_slash	11	main_slash	129	stimuli_distractor_trianglediamonds.svg	stimuli_distractor_trianglediamonds.svg	34	no	0	1	2000
6.6.0	mac	2022-12-14	18:04:59	18:27:59	1378759	5d76d2f7daf4bf00164d585b	821596934	1	main_slash	11	advance_on_keypress_SLASH	130	stimuli_distractor_trianglediamonds.svg	stimuli_distractor_trianglediamonds.svg	34	no	57	0	328
6.6.0	mac	2022-12-14	18:04:59	18:28:00	1380062	5d76d2f7daf4bf00164d585b	821596934	1	main_slash	11	main_slash	131	stimuli_distractor_diamondtriangles.svg	stimuli_target_trianglesquares.svg	30	yes	53	1	339
6.6.0	mac	2022-12-14	18:04:59	18:28:00	1380062	5d76d2f7daf4bf00164d585b	821596934	1	main_slash	11	advance_on_keypress_SLASH	132	stimuli_distractor_diamondtriangles.svg	stimuli_target_trianglesquares.svg	30	yes	57	0	535
6.6.0	mac	2022-12-14	18:04:59	18:28:03	1383225	5d76d2f7daf4bf00164d585b	821596934	1	main_slash	11	main_slash	133	stimuli_distractor_trianglediamonds.svg	stimuli_distractor_trianglediamonds.svg	33	no	0	1	2000
6.6.0	mac	2022-12-14	18:04:59	18:28:03	1383225	5d76d2f7daf4bf00164d585b	821596934	1	main_slash	11	advance_on_keypress_SLASH	134	stimuli_distractor_trianglediamonds.svg	stimuli_distractor_trianglediamonds.svg	33	no	57	0	282
6.6.0	mac	2022-12-14	18:04:59	18:28:05	1384669	5d76d2f7daf4bf00164d585b	821596934	1	main_slash	11	main_slash	135	stimuli_target_squarediamonds.svg	stimuli_distractor_trianglediamonds.svg	4	yes	53	1	530
6.6.0	mac	2022-12-14	18:04:59	18:28:05	1384669	5d76d2f7daf4bf00164d585b	821596934	1	main_slash	11	advance_on_keypress_SLASH	136	stimuli_target_squarediamonds.svg	stimuli_distractor_trianglediamonds.svg	4	yes	57	0	447
6.6.0	mac	2022-12-14	18:04:59	18:28:06	1386121	5d76d2f7daf4bf00164d585b	821596934	1	main_slash	11	main_slash	137	stimuli_distractor_trianglediamonds.svg	stimuli_target_trianglesquares.svg	26	yes	53	1	366
6.6.0	mac	2022-12-14	18:04:59	18:28:06	1386121	5d76d2f7daf4bf00164d585b	821596934	1	main_slash	11	advance_on_keypress_SLASH	138	stimuli_distractor_trianglediamonds.svg	stimuli_target_trianglesquares.svg	26	yes	57	0	403
6.6.0	mac	2022-12-14	18:04:59	18:28:09	1389158	5d76d2f7daf4bf00164d585b	821596934	1	main_slash	11	main_slash	139	stimuli_distractor_diamondtriangles.svg	stimuli_distractor_diamondtriangles.svg	40	no	0	1	2000
6.6.0	mac	2022-12-14	18:04:59	18:28:09	1389158	5d76d2f7daf4bf00164d585b	821596934	1	main_slash	11	advance_on_keypress_SLASH	140	stimuli_distractor_diamondtriangles.svg	stimuli_distractor_diamondtriangles.svg	40	no	57	0	286
6.6.0	mac	2022-12-14	18:04:59	18:28:11	1390582	5d76d2f7daf4bf00164d585b	821596934	1	main_slash	11	main_slash	141	stimuli_distractor_diamondtriangles.svg	stimuli_target_squaretriangles.svg	15	yes	53	1	510
6.6.0	mac	2022-12-14	18:04:59	18:28:11	1390582	5d76d2f7daf4bf00164d585b	821596934	1	main_slash	11	advance_on_keypress_SLASH	142	stimuli_distractor_diamondtriangles.svg	stimuli_target_squaretriangles.svg	15	yes	57	0	485
6.6.0	mac	2022-12-14	18:04:59	18:28:12	1392209	5d76d2f7daf4bf00164d585b	821596934	1	main_slash	11	main_slash	143	stimuli_target_circlediamonds.svg	stimuli_distractor_trianglediamonds.svg	2	yes	53	1	520
6.6.0	mac	2022-12-14	18:04:59	18:28:12	1392209	5d76d2f7daf4bf00164d585b	821596934	1	main_slash	11	advance_on_keypress_SLASH	144	stimuli_target_circlediamonds.svg	stimuli_distractor_trianglediamonds.svg	2	yes	57	0	426
6.6.0	mac	2022-12-14	18:04:59	18:28:14	1393722	5d76d2f7daf4bf00164d585b	821596934	1	main_slash	11	main_slash	145	stimuli_distractor_trianglediamonds.svg	stimuli_target_squarediamonds.svg	12	yes	53	1	467
6.6.0	mac	2022-12-14	18:04:59	18:28:14	1393722	5d76d2f7daf4bf00164d585b	821596934	1	main_slash	11	advance_on_keypress_SLASH	146	stimuli_distractor_trianglediamonds.svg	stimuli_target_squarediamonds.svg	12	yes	57	0	416
6.6.0	mac	2022-12-14	18:04:59	18:28:15	1395187	5d76d2f7daf4bf00164d585b	821596934	1	main_slash	11	main_slash	147	stimuli_target_squarediamonds.svg	stimuli_distractor_diamondtriangles.svg	8	yes	53	1	415
6.6.0	mac	2022-12-14	18:04:59	18:28:15	1395187	5d76d2f7daf4bf00164d585b	821596934	1	main_slash	11	advance_on_keypress_SLASH	148	stimuli_target_squarediamonds.svg	stimuli_distractor_diamondtriangles.svg	8	yes	57	0	438
6.6.0	mac	2022-12-14	18:04:59	18:28:17	1396680	5d76d2f7daf4bf00164d585b	821596934	1	main_slash	11	main_slash	149	stimuli_distractor_diamondtriangles.svg	stimuli_target_trianglecircles.svg	29	yes	53	1	408
6.6.0	mac	2022-12-14	18:04:59	18:28:17	1396680	5d76d2f7daf4bf00164d585b	821596934	1	main_slash	11	advance_on_keypress_SLASH	150	stimuli_distractor_diamondtriangles.svg	stimuli_target_trianglecircles.svg	29	yes	57	0	416
6.6.0	mac	2022-12-14	18:04:59	18:28:18	1398123	5d76d2f7daf4bf00164d585b	821596934	1	main_slash	11	main_slash	151	stimuli_target_diamondcircles.svg	stimuli_distractor_diamondtriangles.svg	23	yes	53	1	384
6.6.0	mac	2022-12-14	18:04:59	18:28:18	1398123	5d76d2f7daf4bf00164d585b	821596934	1	main_slash	11	advance_on_keypress_SLASH	152	stimuli_target_diamondcircles.svg	stimuli_distractor_diamondtriangles.svg	23	yes	57	0	367
6.6.0	mac	2022-12-14	18:04:59	18:28:20	1399679	5d76d2f7daf4bf00164d585b	821596934	1	main_slash	11	main_slash	153	stimuli_target_trianglesquares.svg	stimuli_distractor_trianglediamonds.svg	18	yes	53	1	557
6.6.0	mac	2022-12-14	18:04:59	18:28:20	1399679	5d76d2f7daf4bf00164d585b	821596934	1	main_slash	11	advance_on_keypress_SLASH	154	stimuli_target_trianglesquares.svg	stimuli_distractor_trianglediamonds.svg	18	yes	57	0	378
6.6.0	mac	2022-12-14	18:04:59	18:28:21	1401131	5d76d2f7daf4bf00164d585b	821596934	1	main_slash	11	main_slash	155	stimuli_distractor_trianglediamonds.svg	stimuli_target_circlediamonds.svg	10	yes	53	1	442
6.6.0	mac	2022-12-14	18:04:59	18:28:21	1401131	5d76d2f7daf4bf00164d585b	821596934	1	main_slash	11	advance_on_keypress_SLASH	156	stimuli_distractor_trianglediamonds.svg	stimuli_target_circlediamonds.svg	10	yes	57	0	332
6.6.0	mac	2022-12-14	18:04:59	18:28:23	1402615	5d76d2f7daf4bf00164d585b	821596934	1	main_slash	11	main_slash	157	stimuli_target_diamondsquares.svg	stimuli_distractor_diamondtriangles.svg	24	yes	53	1	526
6.6.0	mac	2022-12-14	18:04:59	18:28:23	1402615	5d76d2f7daf4bf00164d585b	821596934	1	main_slash	11	advance_on_keypress_SLASH	158	stimuli_target_diamondsquares.svg	stimuli_distractor_diamondtriangles.svg	24	yes	57	0	380
6.6.0	mac	2022-12-14	18:04:59	18:28:24	1404054	5d76d2f7daf4bf00164d585b	821596934	1	main_slash	11	main_slash	159	stimuli_distractor_trianglediamonds.svg	stimuli_target_circletriangles.svg	9	yes	53	1	448
6.6.0	mac	2022-12-14	18:04:59	18:28:24	1404054	5d76d2f7daf4bf00164d585b	821596934	1	main_slash	11	advance_on_keypress_SLASH	160	stimuli_distractor_trianglediamonds.svg	stimuli_target_circletriangles.svg	9	yes	57	0	310