build	computer.platform	date	time	timestamp	time_elapsed_ms	subject	group	session	blockcode	blocknum	trialcode	trialnum	stimulus_left	stimulus_right	stim_index	target_present	response	correct	latency
6.6.1	mac	2022-12-25	17:38:38	17:41:28	169517	60fe204fae558bfeb83d0bcf	983203998	1	practice_z	5	practice_z	1	stimuli_distractor_diamondtriangles.svg	stimuli_target_diamondcircles.svg	8	yes	0	0	2000
6.6.1	mac	2022-12-25	17:38:38	17:41:28	169517	60fe204fae558bfeb83d0bcf	983203998	1	practice_z	5	advance_on_keypress_ZEE	2	stimuli_distractor_diamondtriangles.svg	stimuli_target_diamondcircles.svg	8	yes	57	0	4381
6.6.1	mac	2022-12-25	17:38:38	17:41:36	177372	60fe204fae558bfeb83d0bcf	983203998	1	practice_z	5	practice_z	3	stimuli_target_diamondsquares.svg	stimuli_distractor_diamondtriangles.svg	3	yes	44	1	1844
6.6.1	mac	2022-12-25	17:38:38	17:41:36	177372	60fe204fae558bfeb83d0bcf	983203998	1	practice_z	5	advance_on_keypress_ZEE	4	stimuli_target_diamondsquares.svg	stimuli_distractor_diamondtriangles.svg	3	yes	57	0	4054
6.6.1	mac	2022-12-25	17:38:38	17:41:42	183688	60fe204fae558bfeb83d0bcf	983203998	1	practice_z	5	practice_z	5	stimuli_distractor_diamondtriangles.svg	stimuli_target_trianglecircles.svg	9	yes	44	1	617
6.6.1	mac	2022-12-25	17:38:38	17:41:42	183688	60fe204fae558bfeb83d0bcf	983203998	1	practice_z	5	advance_on_keypress_ZEE	6	stimuli_distractor_diamondtriangles.svg	stimuli_target_trianglecircles.svg	9	yes	57	0	1205
6.6.1	mac	2022-12-25	17:38:38	17:41:46	187167	60fe204fae558bfeb83d0bcf	983203998	1	practice_z	5	practice_z	7	stimuli_target_circlediamonds.svg	stimuli_distractor_trianglediamonds.svg	4	yes	44	1	618
6.6.1	mac	2022-12-25	17:38:38	17:41:46	187167	60fe204fae558bfeb83d0bcf	983203998	1	practice_z	5	advance_on_keypress_ZEE	8	stimuli_target_circlediamonds.svg	stimuli_distractor_trianglediamonds.svg	4	yes	57	0	565
6.6.1	mac	2022-12-25	17:38:38	17:41:50	191343	60fe204fae558bfeb83d0bcf	983203998	1	practice_z	5	practice_z	9	stimuli_distractor_trianglediamonds.svg	stimuli_distractor_trianglediamonds.svg	15	no	0	1	2000
6.6.1	mac	2022-12-25	17:38:38	17:41:50	191343	60fe204fae558bfeb83d0bcf	983203998	1	practice_z	5	advance_on_keypress_ZEE	10	stimuli_distractor_trianglediamonds.svg	stimuli_distractor_trianglediamonds.svg	15	no	57	0	998
6.6.1	mac	2022-12-25	17:38:38	17:41:54	194869	60fe204fae558bfeb83d0bcf	983203998	1	practice_z	5	practice_z	11	stimuli_distractor_trianglediamonds.svg	stimuli_target_squarediamonds.svg	11	yes	44	1	889
6.6.1	mac	2022-12-25	17:38:38	17:41:54	194869	60fe204fae558bfeb83d0bcf	983203998	1	practice_z	5	advance_on_keypress_ZEE	12	stimuli_distractor_trianglediamonds.svg	stimuli_target_squarediamonds.svg	11	yes	57	0	420
6.6.1	mac	2022-12-25	17:38:38	17:41:57	197879	60fe204fae558bfeb83d0bcf	983203998	1	practice_z	5	practice_z	13	stimuli_target_squarediamonds.svg	stimuli_distractor_trianglediamonds.svg	5	yes	44	1	959
6.6.1	mac	2022-12-25	17:38:38	17:41:57	197879	60fe204fae558bfeb83d0bcf	983203998	1	practice_z	5	advance_on_keypress_ZEE	14	stimuli_target_squarediamonds.svg	stimuli_distractor_trianglediamonds.svg	5	yes	57	0	717
6.6.1	mac	2022-12-25	17:38:38	17:42:01	202240	60fe204fae558bfeb83d0bcf	983203998	1	practice_z	5	practice_z	15	stimuli_distractor_diamondtriangles.svg	stimuli_distractor_trianglediamonds.svg	14	no	0	1	2000
6.6.1	mac	2022-12-25	17:38:38	17:42:01	202240	60fe204fae558bfeb83d0bcf	983203998	1	practice_z	5	advance_on_keypress_ZEE	16	stimuli_distractor_diamondtriangles.svg	stimuli_distractor_trianglediamonds.svg	14	no	57	0	403
6.6.1	mac	2022-12-25	17:38:38	17:42:05	206265	60fe204fae558bfeb83d0bcf	983203998	1	practice_z	5	practice_z	17	stimuli_distractor_trianglediamonds.svg	stimuli_distractor_diamondtriangles.svg	16	no	0	1	2000
6.6.1	mac	2022-12-25	17:38:38	17:42:05	206265	60fe204fae558bfeb83d0bcf	983203998	1	practice_z	5	advance_on_keypress_ZEE	18	stimuli_distractor_trianglediamonds.svg	stimuli_distractor_diamondtriangles.svg	16	no	57	0	390
6.6.1	mac	2022-12-25	17:38:38	17:42:08	209081	60fe204fae558bfeb83d0bcf	983203998	1	practice_z	5	practice_z	19	stimuli_target_squarediamonds.svg	stimuli_distractor_diamondtriangles.svg	2	yes	44	1	790
6.6.1	mac	2022-12-25	17:38:38	17:42:08	209081	60fe204fae558bfeb83d0bcf	983203998	1	practice_z	5	advance_on_keypress_ZEE	20	stimuli_target_squarediamonds.svg	stimuli_distractor_diamondtriangles.svg	2	yes	57	0	371
6.6.1	mac	2022-12-25	17:38:38	17:42:11	211770	60fe204fae558bfeb83d0bcf	983203998	1	practice_z	5	practice_z	21	stimuli_distractor_trianglediamonds.svg	stimuli_target_diamondcircles.svg	12	yes	44	1	687
6.6.1	mac	2022-12-25	17:38:38	17:42:11	211770	60fe204fae558bfeb83d0bcf	983203998	1	practice_z	5	advance_on_keypress_ZEE	22	stimuli_distractor_trianglediamonds.svg	stimuli_target_diamondcircles.svg	12	yes	57	0	266
6.6.1	mac	2022-12-25	17:38:38	17:42:13	214259	60fe204fae558bfeb83d0bcf	983203998	1	practice_z	5	practice_z	23	stimuli_distractor_trianglediamonds.svg	stimuli_target_circlediamonds.svg	10	yes	44	1	589
6.6.1	mac	2022-12-25	17:38:38	17:42:13	214259	60fe204fae558bfeb83d0bcf	983203998	1	practice_z	5	advance_on_keypress_ZEE	24	stimuli_distractor_trianglediamonds.svg	stimuli_target_circlediamonds.svg	10	yes	57	0	382
6.6.1	mac	2022-12-25	17:38:38	17:42:17	218270	60fe204fae558bfeb83d0bcf	983203998	1	practice_z	5	practice_z	25	stimuli_distractor_diamondtriangles.svg	stimuli_distractor_diamondtriangles.svg	13	no	0	1	2000
6.6.1	mac	2022-12-25	17:38:38	17:42:17	218270	60fe204fae558bfeb83d0bcf	983203998	1	practice_z	5	advance_on_keypress_ZEE	26	stimuli_distractor_diamondtriangles.svg	stimuli_distractor_diamondtriangles.svg	13	no	57	0	1782
6.6.1	mac	2022-12-25	17:38:38	17:42:21	222396	60fe204fae558bfeb83d0bcf	983203998	1	practice_z	5	practice_z	27	stimuli_target_circlediamonds.svg	stimuli_distractor_diamondtriangles.svg	1	yes	44	1	713
6.6.1	mac	2022-12-25	17:38:38	17:42:21	222396	60fe204fae558bfeb83d0bcf	983203998	1	practice_z	5	advance_on_keypress_ZEE	28	stimuli_target_circlediamonds.svg	stimuli_distractor_diamondtriangles.svg	1	yes	57	0	346
6.6.1	mac	2022-12-25	17:38:38	17:42:24	225381	60fe204fae558bfeb83d0bcf	983203998	1	practice_z	5	practice_z	29	stimuli_target_diamondsquares.svg	stimuli_distractor_trianglediamonds.svg	6	yes	44	1	1000
6.6.1	mac	2022-12-25	17:38:38	17:42:24	225381	60fe204fae558bfeb83d0bcf	983203998	1	practice_z	5	advance_on_keypress_ZEE	30	stimuli_target_diamondsquares.svg	stimuli_distractor_trianglediamonds.svg	6	yes	57	0	366
6.6.1	mac	2022-12-25	17:38:38	17:42:27	227965	60fe204fae558bfeb83d0bcf	983203998	1	practice_z	5	practice_z	31	stimuli_distractor_diamondtriangles.svg	stimuli_target_circletriangles.svg	7	yes	44	1	578
6.6.1	mac	2022-12-25	17:38:38	17:42:27	227965	60fe204fae558bfeb83d0bcf	983203998	1	practice_z	5	advance_on_keypress_ZEE	32	stimuli_distractor_diamondtriangles.svg	stimuli_target_circletriangles.svg	7	yes	57	0	238
6.6.1	mac	2022-12-25	17:38:38	17:42:40	240771	60fe204fae558bfeb83d0bcf	983203998	1	main_z	7	main_z	1	stimuli_distractor_diamondtriangles.svg	stimuli_distractor_trianglediamonds.svg	37	no	0	1	2000
6.6.1	mac	2022-12-25	17:38:38	17:42:40	240771	60fe204fae558bfeb83d0bcf	983203998	1	main_z	7	advance_on_keypress_ZEE	2	stimuli_distractor_diamondtriangles.svg	stimuli_distractor_trianglediamonds.svg	37	no	57	0	865
6.6.1	mac	2022-12-25	17:38:38	17:42:42	242838	60fe204fae558bfeb83d0bcf	983203998	1	main_z	7	main_z	3	stimuli_distractor_trianglediamonds.svg	stimuli_target_squarediamonds.svg	12	yes	44	1	585
6.6.1	mac	2022-12-25	17:38:38	17:42:42	242838	60fe204fae558bfeb83d0bcf	983203998	1	main_z	7	advance_on_keypress_ZEE	4	stimuli_distractor_trianglediamonds.svg	stimuli_target_squarediamonds.svg	12	yes	57	0	1151
6.6.1	mac	2022-12-25	17:38:38	17:42:44	245098	60fe204fae558bfeb83d0bcf	983203998	1	main_z	7	main_z	5	stimuli_distractor_trianglediamonds.svg	stimuli_target_trianglecircles.svg	25	yes	44	1	474
6.6.1	mac	2022-12-25	17:38:38	17:42:44	245098	60fe204fae558bfeb83d0bcf	983203998	1	main_z	7	advance_on_keypress_ZEE	6	stimuli_distractor_trianglediamonds.svg	stimuli_target_trianglecircles.svg	25	yes	57	0	903
6.6.1	mac	2022-12-25	17:38:38	17:42:47	248637	60fe204fae558bfeb83d0bcf	983203998	1	main_z	7	main_z	7	stimuli_distractor_trianglediamonds.svg	stimuli_distractor_trianglediamonds.svg	34	no	0	1	2000
6.6.1	mac	2022-12-25	17:38:38	17:42:47	248637	60fe204fae558bfeb83d0bcf	983203998	1	main_z	7	advance_on_keypress_ZEE	8	stimuli_distractor_trianglediamonds.svg	stimuli_distractor_trianglediamonds.svg	34	no	57	0	585
6.6.1	mac	2022-12-25	17:38:38	17:42:49	250340	60fe204fae558bfeb83d0bcf	983203998	1	main_z	7	main_z	9	stimuli_distractor_trianglediamonds.svg	stimuli_target_circlediamonds.svg	10	yes	44	1	477
6.6.1	mac	2022-12-25	17:38:38	17:42:49	250340	60fe204fae558bfeb83d0bcf	983203998	1	main_z	7	advance_on_keypress_ZEE	10	stimuli_distractor_trianglediamonds.svg	stimuli_target_circlediamonds.svg	10	yes	57	0	723
6.6.1	mac	2022-12-25	17:38:38	17:42:51	252278	60fe204fae558bfeb83d0bcf	983203998	1	main_z	7	main_z	11	stimuli_distractor_diamondtriangles.svg	stimuli_target_circletriangles.svg	13	yes	44	1	593
6.6.1	mac	2022-12-25	17:38:38	17:42:51	252278	60fe204fae558bfeb83d0bcf	983203998	1	main_z	7	advance_on_keypress_ZEE	12	stimuli_distractor_diamondtriangles.svg	stimuli_target_circletriangles.svg	13	yes	57	0	627
6.6.1	mac	2022-12-25	17:38:38	17:42:53	254181	60fe204fae558bfeb83d0bcf	983203998	1	main_z	7	main_z	13	stimuli_target_trianglesquares.svg	stimuli_distractor_trianglediamonds.svg	18	yes	44	1	647
6.6.1	mac	2022-12-25	17:38:38	17:42:53	254181	60fe204fae558bfeb83d0bcf	983203998	1	main_z	7	advance_on_keypress_ZEE	14	stimuli_target_trianglesquares.svg	stimuli_distractor_trianglediamonds.svg	18	yes	57	0	978
6.6.1	mac	2022-12-25	17:38:38	17:42:55	256265	60fe204fae558bfeb83d0bcf	983203998	1	main_z	7	main_z	15	stimuli_distractor_diamondtriangles.svg	stimuli_target_diamondcircles.svg	31	yes	44	1	475
6.6.1	mac	2022-12-25	17:38:38	17:42:55	256265	60fe204fae558bfeb83d0bcf	983203998	1	main_z	7	advance_on_keypress_ZEE	16	stimuli_distractor_diamondtriangles.svg	stimuli_target_diamondcircles.svg	31	yes	57	0	765
6.6.1	mac	2022-12-25	17:38:38	17:42:57	258258	60fe204fae558bfeb83d0bcf	983203998	1	main_z	7	main_z	17	stimuli_target_diamondcircles.svg	stimuli_distractor_trianglediamonds.svg	19	yes	44	1	603
6.6.1	mac	2022-12-25	17:38:38	17:42:57	258258	60fe204fae558bfeb83d0bcf	983203998	1	main_z	7	advance_on_keypress_ZEE	18	stimuli_target_diamondcircles.svg	stimuli_distractor_trianglediamonds.svg	19	yes	57	0	613
6.6.1	mac	2022-12-25	17:38:38	17:42:59	260179	60fe204fae558bfeb83d0bcf	983203998	1	main_z	7	main_z	19	stimuli_distractor_diamondtriangles.svg	stimuli_target_squarediamonds.svg	16	yes	44	1	677
6.6.1	mac	2022-12-25	17:38:38	17:42:59	260179	60fe204fae558bfeb83d0bcf	983203998	1	main_z	7	advance_on_keypress_ZEE	20	stimuli_distractor_diamondtriangles.svg	stimuli_target_squarediamonds.svg	16	yes	57	0	613
6.6.1	mac	2022-12-25	17:38:38	17:43:01	262017	60fe204fae558bfeb83d0bcf	983203998	1	main_z	7	main_z	21	stimuli_target_circletriangles.svg	stimuli_distractor_diamondtriangles.svg	5	yes	44	1	594
6.6.1	mac	2022-12-25	17:38:38	17:43:01	262017	60fe204fae558bfeb83d0bcf	983203998	1	main_z	7	advance_on_keypress_ZEE	22	stimuli_target_circletriangles.svg	stimuli_distractor_diamondtriangles.svg	5	yes	57	0	1657
6.6.1	mac	2022-12-25	17:38:38	17:43:05	266297	60fe204fae558bfeb83d0bcf	983203998	1	main_z	7	main_z	23	stimuli_distractor_trianglediamonds.svg	stimuli_distractor_diamondtriangles.svg	36	no	0	1	2000
6.6.1	mac	2022-12-25	17:38:38	17:43:05	266297	60fe204fae558bfeb83d0bcf	983203998	1	main_z	7	advance_on_keypress_ZEE	24	stimuli_distractor_trianglediamonds.svg	stimuli_distractor_diamondtriangles.svg	36	no	57	0	628
6.6.1	mac	2022-12-25	17:38:38	17:43:07	268042	60fe204fae558bfeb83d0bcf	983203998	1	main_z	7	main_z	25	stimuli_target_diamondcircles.svg	stimuli_distractor_diamondtriangles.svg	23	yes	44	1	485
6.6.1	mac	2022-12-25	17:38:38	17:43:07	268042	60fe204fae558bfeb83d0bcf	983203998	1	main_z	7	advance_on_keypress_ZEE	26	stimuli_target_diamondcircles.svg	stimuli_distractor_diamondtriangles.svg	23	yes	57	0	514
6.6.1	mac	2022-12-25	17:38:38	17:43:09	269787	60fe204fae558bfeb83d0bcf	983203998	1	main_z	7	main_z	27	stimuli_target_squarediamonds.svg	stimuli_distractor_trianglediamonds.svg	4	yes	44	1	613
6.6.1	mac	2022-12-25	17:38:38	17:43:09	269787	60fe204fae558bfeb83d0bcf	983203998	1	main_z	7	advance_on_keypress_ZEE	28	stimuli_target_squarediamonds.svg	stimuli_distractor_trianglediamonds.svg	4	yes	57	0	551
6.6.1	mac	2022-12-25	17:38:38	17:43:10	271625	60fe204fae558bfeb83d0bcf	983203998	1	main_z	7	main_z	29	stimuli_distractor_trianglediamonds.svg	stimuli_target_squaretriangles.svg	11	yes	44	1	654
6.6.1	mac	2022-12-25	17:38:38	17:43:10	271625	60fe204fae558bfeb83d0bcf	983203998	1	main_z	7	advance_on_keypress_ZEE	30	stimuli_distractor_trianglediamonds.svg	stimuli_target_squaretriangles.svg	11	yes	57	0	918
6.6.1	mac	2022-12-25	17:38:38	17:43:14	275156	60fe204fae558bfeb83d0bcf	983203998	1	main_z	7	main_z	31	stimuli_distractor_diamondtriangles.svg	stimuli_distractor_diamondtriangles.svg	39	no	0	1	2000
6.6.1	mac	2022-12-25	17:38:38	17:43:14	275156	60fe204fae558bfeb83d0bcf	983203998	1	main_z	7	advance_on_keypress_ZEE	32	stimuli_distractor_diamondtriangles.svg	stimuli_distractor_diamondtriangles.svg	39	no	57	0	309
6.6.1	mac	2022-12-25	17:38:38	17:43:15	276597	60fe204fae558bfeb83d0bcf	983203998	1	main_z	7	main_z	33	stimuli_target_trianglecircles.svg	stimuli_distractor_trianglediamonds.svg	17	yes	44	1	512
6.6.1	mac	2022-12-25	17:38:38	17:43:15	276597	60fe204fae558bfeb83d0bcf	983203998	1	main_z	7	advance_on_keypress_ZEE	34	stimuli_target_trianglecircles.svg	stimuli_distractor_trianglediamonds.svg	17	yes	57	0	523
6.6.1	mac	2022-12-25	17:38:38	17:43:17	278444	60fe204fae558bfeb83d0bcf	983203998	1	main_z	7	main_z	35	stimuli_target_squarediamonds.svg	stimuli_distractor_diamondtriangles.svg	8	yes	44	1	691
6.6.1	mac	2022-12-25	17:38:38	17:43:17	278444	60fe204fae558bfeb83d0bcf	983203998	1	main_z	7	advance_on_keypress_ZEE	36	stimuli_target_squarediamonds.svg	stimuli_distractor_diamondtriangles.svg	8	yes	57	0	490
6.6.1	mac	2022-12-25	17:38:38	17:43:19	280111	60fe204fae558bfeb83d0bcf	983203998	1	main_z	7	main_z	37	stimuli_target_trianglecircles.svg	stimuli_distractor_diamondtriangles.svg	21	yes	44	1	542
6.6.1	mac	2022-12-25	17:38:38	17:43:19	280111	60fe204fae558bfeb83d0bcf	983203998	1	main_z	7	advance_on_keypress_ZEE	38	stimuli_target_trianglecircles.svg	stimuli_distractor_diamondtriangles.svg	21	yes	57	0	576
6.6.1	mac	2022-12-25	17:38:38	17:43:21	282287	60fe204fae558bfeb83d0bcf	983203998	1	main_z	7	main_z	39	stimuli_target_diamondsquares.svg	stimuli_distractor_diamondtriangles.svg	24	yes	44	1	968
6.6.1	mac	2022-12-25	17:38:38	17:43:21	282287	60fe204fae558bfeb83d0bcf	983203998	1	main_z	7	advance_on_keypress_ZEE	40	stimuli_target_diamondsquares.svg	stimuli_distractor_diamondtriangles.svg	24	yes	57	0	446
6.6.1	mac	2022-12-25	17:38:38	17:43:23	283873	60fe204fae558bfeb83d0bcf	983203998	1	main_z	7	main_z	41	stimuli_distractor_diamondtriangles.svg	stimuli_target_trianglecircles.svg	29	yes	44	1	519
6.6.1	mac	2022-12-25	17:38:38	17:43:23	283873	60fe204fae558bfeb83d0bcf	983203998	1	main_z	7	advance_on_keypress_ZEE	42	stimuli_distractor_diamondtriangles.svg	stimuli_target_trianglecircles.svg	29	yes	57	0	449
6.6.1	mac	2022-12-25	17:38:38	17:43:24	285553	60fe204fae558bfeb83d0bcf	983203998	1	main_z	7	main_z	43	stimuli_target_squaretriangles.svg	stimuli_distractor_diamondtriangles.svg	7	yes	44	1	585
6.6.1	mac	2022-12-25	17:38:38	17:43:24	285553	60fe204fae558bfeb83d0bcf	983203998	1	main_z	7	advance_on_keypress_ZEE	44	stimuli_target_squaretriangles.svg	stimuli_distractor_diamondtriangles.svg	7	yes	57	0	530
6.6.1	mac	2022-12-25	17:38:38	17:43:27	288714	60fe204fae558bfeb83d0bcf	983203998	1	main_z	7	main_z	45	stimuli_distractor_trianglediamonds.svg	stimuli_distractor_diamondtriangles.svg	35	no	0	1	2000
6.6.1	mac	2022-12-25	17:38:38	17:43:27	288714	60fe204fae558bfeb83d0bcf	983203998	1	main_z	7	advance_on_keypress_ZEE	46	stimuli_distractor_trianglediamonds.svg	stimuli_distractor_diamondtriangles.svg	35	no	57	0	332
6.6.1	mac	2022-12-25	17:38:38	17:43:29	290278	60fe204fae558bfeb83d0bcf	983203998	1	main_z	7	main_z	47	stimuli_target_squaretriangles.svg	stimuli_distractor_trianglediamonds.svg	3	yes	44	1	596
6.6.1	mac	2022-12-25	17:38:38	17:43:29	290278	60fe204fae558bfeb83d0bcf	983203998	1	main_z	7	advance_on_keypress_ZEE	48	stimuli_target_squaretriangles.svg	stimuli_distractor_trianglediamonds.svg	3	yes	57	0	556
6.6.1	mac	2022-12-25	17:38:38	17:43:31	292078	60fe204fae558bfeb83d0bcf	983203998	1	main_z	7	main_z	49	stimuli_target_circlediamonds.svg	stimuli_distractor_trianglediamonds.svg	2	yes	44	1	607
6.6.1	mac	2022-12-25	17:38:38	17:43:31	292078	60fe204fae558bfeb83d0bcf	983203998	1	main_z	7	advance_on_keypress_ZEE	50	stimuli_target_circlediamonds.svg	stimuli_distractor_trianglediamonds.svg	2	yes	57	0	474
6.6.1	mac	2022-12-25	17:38:38	17:43:33	293767	60fe204fae558bfeb83d0bcf	983203998	1	main_z	7	main_z	51	stimuli_distractor_diamondtriangles.svg	stimuli_target_circlediamonds.svg	14	yes	44	1	578
6.6.1	mac	2022-12-25	17:38:38	17:43:33	293767	60fe204fae558bfeb83d0bcf	983203998	1	main_z	7	advance_on_keypress_ZEE	52	stimuli_distractor_diamondtriangles.svg	stimuli_target_circlediamonds.svg	14	yes	57	0	494
6.6.1	mac	2022-12-25	17:38:38	17:43:34	295486	60fe204fae558bfeb83d0bcf	983203998	1	main_z	7	main_z	53	stimuli_distractor_diamondtriangles.svg	stimuli_target_trianglesquares.svg	30	yes	44	1	597
6.6.1	mac	2022-12-25	17:38:38	17:43:34	295486	60fe204fae558bfeb83d0bcf	983203998	1	main_z	7	advance_on_keypress_ZEE	54	stimuli_distractor_diamondtriangles.svg	stimuli_target_trianglesquares.svg	30	yes	57	0	786
6.6.1	mac	2022-12-25	17:38:38	17:43:36	297432	60fe204fae558bfeb83d0bcf	983203998	1	main_z	7	main_z	55	stimuli_target_circletriangles.svg	stimuli_distractor_trianglediamonds.svg	1	yes	44	1	542
6.6.1	mac	2022-12-25	17:38:38	17:43:36	297432	60fe204fae558bfeb83d0bcf	983203998	1	main_z	7	advance_on_keypress_ZEE	56	stimuli_target_circletriangles.svg	stimuli_distractor_trianglediamonds.svg	1	yes	57	0	402
6.6.1	mac	2022-12-25	17:38:38	17:43:38	299444	60fe204fae558bfeb83d0bcf	983203998	1	main_z	7	main_z	57	stimuli_distractor_trianglediamonds.svg	stimuli_target_diamondcircles.svg	27	yes	44	1	974
6.6.1	mac	2022-12-25	17:38:38	17:43:38	299444	60fe204fae558bfeb83d0bcf	983203998	1	main_z	7	advance_on_keypress_ZEE	58	stimuli_distractor_trianglediamonds.svg	stimuli_target_diamondcircles.svg	27	yes	57	0	396
6.6.1	mac	2022-12-25	17:38:38	17:43:40	301038	60fe204fae558bfeb83d0bcf	983203998	1	main_z	7	main_z	59	stimuli_distractor_diamondtriangles.svg	stimuli_target_squaretriangles.svg	15	yes	44	1	584
6.6.1	mac	2022-12-25	17:38:38	17:43:40	301038	60fe204fae558bfeb83d0bcf	983203998	1	main_z	7	advance_on_keypress_ZEE	60	stimuli_distractor_diamondtriangles.svg	stimuli_target_squaretriangles.svg	15	yes	57	0	542
6.6.1	mac	2022-12-25	17:38:38	17:43:42	302982	60fe204fae558bfeb83d0bcf	983203998	1	main_z	7	main_z	61	stimuli_distractor_trianglediamonds.svg	stimuli_target_circletriangles.svg	9	yes	44	1	780
6.6.1	mac	2022-12-25	17:38:38	17:43:42	302982	60fe204fae558bfeb83d0bcf	983203998	1	main_z	7	advance_on_keypress_ZEE	62	stimuli_distractor_trianglediamonds.svg	stimuli_target_circletriangles.svg	9	yes	57	0	339
6.6.1	mac	2022-12-25	17:38:38	17:43:43	304561	60fe204fae558bfeb83d0bcf	983203998	1	main_z	7	main_z	63	stimuli_distractor_trianglediamonds.svg	stimuli_target_trianglesquares.svg	26	yes	44	1	609
6.6.1	mac	2022-12-25	17:38:38	17:43:43	304561	60fe204fae558bfeb83d0bcf	983203998	1	main_z	7	advance_on_keypress_ZEE	64	stimuli_distractor_trianglediamonds.svg	stimuli_target_trianglesquares.svg	26	yes	57	0	433
6.6.1	mac	2022-12-25	17:38:38	17:43:45	306205	60fe204fae558bfeb83d0bcf	983203998	1	main_z	7	main_z	65	stimuli_target_circlediamonds.svg	stimuli_distractor_diamondtriangles.svg	6	yes	44	1	572
6.6.1	mac	2022-12-25	17:38:38	17:43:45	306205	60fe204fae558bfeb83d0bcf	983203998	1	main_z	7	advance_on_keypress_ZEE	66	stimuli_target_circlediamonds.svg	stimuli_distractor_diamondtriangles.svg	6	yes	57	0	414
6.6.1	mac	2022-12-25	17:38:38	17:43:47	307862	60fe204fae558bfeb83d0bcf	983203998	1	main_z	7	main_z	67	stimuli_distractor_trianglediamonds.svg	stimuli_target_diamondsquares.svg	28	yes	44	1	611
6.6.1	mac	2022-12-25	17:38:38	17:43:47	307862	60fe204fae558bfeb83d0bcf	983203998	1	main_z	7	advance_on_keypress_ZEE	68	stimuli_distractor_trianglediamonds.svg	stimuli_target_diamondsquares.svg	28	yes	57	0	374
6.6.1	mac	2022-12-25	17:38:38	17:43:50	310863	60fe204fae558bfeb83d0bcf	983203998	1	main_z	7	main_z	69	stimuli_distractor_diamondtriangles.svg	stimuli_distractor_diamondtriangles.svg	40	no	0	1	2000
6.6.1	mac	2022-12-25	17:38:38	17:43:50	310863	60fe204fae558bfeb83d0bcf	983203998	1	main_z	7	advance_on_keypress_ZEE	70	stimuli_distractor_diamondtriangles.svg	stimuli_distractor_diamondtriangles.svg	40	no	57	0	322
6.6.1	mac	2022-12-25	17:38:38	17:43:51	312582	60fe204fae558bfeb83d0bcf	983203998	1	main_z	7	main_z	71	stimuli_distractor_diamondtriangles.svg	stimuli_target_diamondsquares.svg	32	yes	44	1	766
6.6.1	mac	2022-12-25	17:38:38	17:43:51	312582	60fe204fae558bfeb83d0bcf	983203998	1	main_z	7	advance_on_keypress_ZEE	72	stimuli_distractor_diamondtriangles.svg	stimuli_target_diamondsquares.svg	32	yes	57	0	329
6.6.1	mac	2022-12-25	17:38:38	17:43:53	314146	60fe204fae558bfeb83d0bcf	983203998	1	main_z	7	main_z	73	stimuli_target_diamondsquares.svg	stimuli_distractor_trianglediamonds.svg	20	yes	44	1	612
6.6.1	mac	2022-12-25	17:38:38	17:43:53	314146	60fe204fae558bfeb83d0bcf	983203998	1	main_z	7	advance_on_keypress_ZEE	74	stimuli_target_diamondsquares.svg	stimuli_distractor_trianglediamonds.svg	20	yes	57	0	416
6.6.1	mac	2022-12-25	17:38:38	17:43:56	317198	60fe204fae558bfeb83d0bcf	983203998	1	main_z	7	main_z	75	stimuli_distractor_diamondtriangles.svg	stimuli_distractor_trianglediamonds.svg	38	no	0	1	2000
6.6.1	mac	2022-12-25	17:38:38	17:43:56	317198	60fe204fae558bfeb83d0bcf	983203998	1	main_z	7	advance_on_keypress_ZEE	76	stimuli_distractor_diamondtriangles.svg	stimuli_distractor_trianglediamonds.svg	38	no	57	0	264
6.6.1	mac	2022-12-25	17:38:38	17:43:59	320097	60fe204fae558bfeb83d0bcf	983203998	1	main_z	7	main_z	77	stimuli_distractor_trianglediamonds.svg	stimuli_distractor_trianglediamonds.svg	33	no	0	1	2000
6.6.1	mac	2022-12-25	17:38:38	17:43:59	320097	60fe204fae558bfeb83d0bcf	983203998	1	main_z	7	advance_on_keypress_ZEE	78	stimuli_distractor_trianglediamonds.svg	stimuli_distractor_trianglediamonds.svg	33	no	57	0	430
6.6.1	mac	2022-12-25	17:38:38	17:44:01	321781	60fe204fae558bfeb83d0bcf	983203998	1	main_z	7	main_z	79	stimuli_target_trianglesquares.svg	stimuli_distractor_diamondtriangles.svg	22	yes	44	1	630
6.6.1	mac	2022-12-25	17:38:38	17:44:01	321781	60fe204fae558bfeb83d0bcf	983203998	1	main_z	7	advance_on_keypress_ZEE	80	stimuli_target_trianglesquares.svg	stimuli_distractor_diamondtriangles.svg	22	yes	57	0	522
6.6.1	mac	2022-12-25	17:38:38	17:44:02	323569	60fe204fae558bfeb83d0bcf	983203998	1	main_z	7	main_z	81	stimuli_target_trianglesquares.svg	stimuli_distractor_diamondtriangles.svg	22	yes	44	1	632
6.6.1	mac	2022-12-25	17:38:38	17:44:02	323569	60fe204fae558bfeb83d0bcf	983203998	1	main_z	7	advance_on_keypress_ZEE	82	stimuli_target_trianglesquares.svg	stimuli_distractor_diamondtriangles.svg	22	yes	57	0	418
6.6.1	mac	2022-12-25	17:38:38	17:44:04	325183	60fe204fae558bfeb83d0bcf	983203998	1	main_z	7	main_z	83	stimuli_target_squaretriangles.svg	stimuli_distractor_trianglediamonds.svg	3	yes	44	1	565
6.6.1	mac	2022-12-25	17:38:38	17:44:04	325183	60fe204fae558bfeb83d0bcf	983203998	1	main_z	7	advance_on_keypress_ZEE	84	stimuli_target_squaretriangles.svg	stimuli_distractor_trianglediamonds.svg	3	yes	57	0	427
6.6.1	mac	2022-12-25	17:38:38	17:44:05	326639	60fe204fae558bfeb83d0bcf	983203998	1	main_z	7	main_z	85	stimuli_target_trianglecircles.svg	stimuli_distractor_trianglediamonds.svg	17	yes	44	1	405
6.6.1	mac	2022-12-25	17:38:38	17:44:05	326639	60fe204fae558bfeb83d0bcf	983203998	1	main_z	7	advance_on_keypress_ZEE	86	stimuli_target_trianglecircles.svg	stimuli_distractor_trianglediamonds.svg	17	yes	57	0	1315
6.6.1	mac	2022-12-25	17:38:38	17:44:09	330572	60fe204fae558bfeb83d0bcf	983203998	1	main_z	7	main_z	87	stimuli_distractor_diamondtriangles.svg	stimuli_distractor_diamondtriangles.svg	40	no	0	1	2000
6.6.1	mac	2022-12-25	17:38:38	17:44:09	330572	60fe204fae558bfeb83d0bcf	983203998	1	main_z	7	advance_on_keypress_ZEE	88	stimuli_distractor_diamondtriangles.svg	stimuli_distractor_diamondtriangles.svg	40	no	57	0	273
6.6.1	mac	2022-12-25	17:38:38	17:44:11	331973	60fe204fae558bfeb83d0bcf	983203998	1	main_z	7	main_z	89	stimuli_target_trianglesquares.svg	stimuli_distractor_trianglediamonds.svg	18	yes	44	1	496
6.6.1	mac	2022-12-25	17:38:38	17:44:11	331973	60fe204fae558bfeb83d0bcf	983203998	1	main_z	7	advance_on_keypress_ZEE	90	stimuli_target_trianglesquares.svg	stimuli_distractor_trianglediamonds.svg	18	yes	57	0	410
6.6.1	mac	2022-12-25	17:38:38	17:44:14	335008	60fe204fae558bfeb83d0bcf	983203998	1	main_z	7	main_z	91	stimuli_distractor_diamondtriangles.svg	stimuli_distractor_diamondtriangles.svg	39	no	0	1	2000
6.6.1	mac	2022-12-25	17:38:38	17:44:14	335008	60fe204fae558bfeb83d0bcf	983203998	1	main_z	7	advance_on_keypress_ZEE	92	stimuli_distractor_diamondtriangles.svg	stimuli_distractor_diamondtriangles.svg	39	no	57	0	241
6.6.1	mac	2022-12-25	17:38:38	17:44:15	336256	60fe204fae558bfeb83d0bcf	983203998	1	main_z	7	main_z	93	stimuli_target_squarediamonds.svg	stimuli_distractor_trianglediamonds.svg	4	yes	44	1	383
6.6.1	mac	2022-12-25	17:38:38	17:44:15	336256	60fe204fae558bfeb83d0bcf	983203998	1	main_z	7	advance_on_keypress_ZEE	94	stimuli_target_squarediamonds.svg	stimuli_distractor_trianglediamonds.svg	4	yes	57	0	483
6.6.1	mac	2022-12-25	17:38:38	17:44:17	337814	60fe204fae558bfeb83d0bcf	983203998	1	main_z	7	main_z	95	stimuli_distractor_diamondtriangles.svg	stimuli_target_trianglesquares.svg	30	yes	44	1	439
6.6.1	mac	2022-12-25	17:38:38	17:44:17	337814	60fe204fae558bfeb83d0bcf	983203998	1	main_z	7	advance_on_keypress_ZEE	96	stimuli_distractor_diamondtriangles.svg	stimuli_target_trianglesquares.svg	30	yes	57	0	555
6.6.1	mac	2022-12-25	17:38:38	17:44:18	339585	60fe204fae558bfeb83d0bcf	983203998	1	main_z	7	main_z	97	stimuli_target_diamondcircles.svg	stimuli_distractor_diamondtriangles.svg	23	yes	44	1	583
6.6.1	mac	2022-12-25	17:38:38	17:44:18	339585	60fe204fae558bfeb83d0bcf	983203998	1	main_z	7	advance_on_keypress_ZEE	98	stimuli_target_diamondcircles.svg	stimuli_distractor_diamondtriangles.svg	23	yes	57	0	371
6.6.1	mac	2022-12-25	17:38:38	17:44:21	342580	60fe204fae558bfeb83d0bcf	983203998	1	main_z	7	main_z	99	stimuli_distractor_diamondtriangles.svg	stimuli_distractor_trianglediamonds.svg	38	no	0	1	2000
6.6.1	mac	2022-12-25	17:38:38	17:44:21	342580	60fe204fae558bfeb83d0bcf	983203998	1	main_z	7	advance_on_keypress_ZEE	100	stimuli_distractor_diamondtriangles.svg	stimuli_distractor_trianglediamonds.svg	38	no	57	0	269
6.6.1	mac	2022-12-25	17:38:38	17:44:24	345482	60fe204fae558bfeb83d0bcf	983203998	1	main_z	7	main_z	101	stimuli_distractor_trianglediamonds.svg	stimuli_distractor_trianglediamonds.svg	34	no	0	1	2000
6.6.1	mac	2022-12-25	17:38:38	17:44:24	345482	60fe204fae558bfeb83d0bcf	983203998	1	main_z	7	advance_on_keypress_ZEE	102	stimuli_distractor_trianglediamonds.svg	stimuli_distractor_trianglediamonds.svg	34	no	57	0	314
6.6.1	mac	2022-12-25	17:38:38	17:44:26	346879	60fe204fae558bfeb83d0bcf	983203998	1	main_z	7	main_z	103	stimuli_target_squarediamonds.svg	stimuli_distractor_diamondtriangles.svg	8	yes	44	1	444
6.6.1	mac	2022-12-25	17:38:38	17:44:26	346879	60fe204fae558bfeb83d0bcf	983203998	1	main_z	7	advance_on_keypress_ZEE	104	stimuli_target_squarediamonds.svg	stimuli_distractor_diamondtriangles.svg	8	yes	57	0	509
6.6.1	mac	2022-12-25	17:38:38	17:44:27	348383	60fe204fae558bfeb83d0bcf	983203998	1	main_z	7	main_z	105	stimuli_target_trianglecircles.svg	stimuli_distractor_diamondtriangles.svg	21	yes	44	1	366
6.6.1	mac	2022-12-25	17:38:38	17:44:27	348383	60fe204fae558bfeb83d0bcf	983203998	1	main_z	7	advance_on_keypress_ZEE	106	stimuli_target_trianglecircles.svg	stimuli_distractor_diamondtriangles.svg	21	yes	57	0	383
6.6.1	mac	2022-12-25	17:38:38	17:44:29	349803	60fe204fae558bfeb83d0bcf	983203998	1	main_z	7	main_z	107	stimuli_target_diamondsquares.svg	stimuli_distractor_trianglediamonds.svg	20	yes	44	1	409
6.6.1	mac	2022-12-25	17:38:38	17:44:29	349803	60fe204fae558bfeb83d0bcf	983203998	1	main_z	7	advance_on_keypress_ZEE	108	stimuli_target_diamondsquares.svg	stimuli_distractor_trianglediamonds.svg	20	yes	57	0	364
6.6.1	mac	2022-12-25	17:38:38	17:44:30	351347	60fe204fae558bfeb83d0bcf	983203998	1	main_z	7	main_z	109	stimuli_target_circlediamonds.svg	stimuli_distractor_trianglediamonds.svg	2	yes	44	1	541
6.6.1	mac	2022-12-25	17:38:38	17:44:30	351347	60fe204fae558bfeb83d0bcf	983203998	1	main_z	7	advance_on_keypress_ZEE	110	stimuli_target_circlediamonds.svg	stimuli_distractor_trianglediamonds.svg	2	yes	57	0	349
6.6.1	mac	2022-12-25	17:38:38	17:44:31	352700	60fe204fae558bfeb83d0bcf	983203998	1	main_z	7	main_z	111	stimuli_distractor_diamondtriangles.svg	stimuli_target_squarediamonds.svg	16	yes	44	1	364
6.6.1	mac	2022-12-25	17:38:38	17:44:31	352700	60fe204fae558bfeb83d0bcf	983203998	1	main_z	7	advance_on_keypress_ZEE	112	stimuli_distractor_diamondtriangles.svg	stimuli_target_squarediamonds.svg	16	yes	57	0	361
6.6.1	mac	2022-12-25	17:38:38	17:44:34	355680	60fe204fae558bfeb83d0bcf	983203998	1	main_z	7	main_z	113	stimuli_distractor_trianglediamonds.svg	stimuli_distractor_trianglediamonds.svg	33	no	0	1	2000
6.6.1	mac	2022-12-25	17:38:38	17:44:34	355680	60fe204fae558bfeb83d0bcf	983203998	1	main_z	7	advance_on_keypress_ZEE	114	stimuli_distractor_trianglediamonds.svg	stimuli_distractor_trianglediamonds.svg	33	no	57	0	303
6.6.1	mac	2022-12-25	17:38:38	17:44:36	357044	60fe204fae558bfeb83d0bcf	983203998	1	main_z	7	main_z	115	stimuli_target_circlediamonds.svg	stimuli_distractor_diamondtriangles.svg	6	yes	44	1	431
6.6.1	mac	2022-12-25	17:38:38	17:44:36	357044	60fe204fae558bfeb83d0bcf	983203998	1	main_z	7	advance_on_keypress_ZEE	116	stimuli_target_circlediamonds.svg	stimuli_distractor_diamondtriangles.svg	6	yes	57	0	312
6.6.1	mac	2022-12-25	17:38:38	17:44:37	358525	60fe204fae558bfeb83d0bcf	983203998	1	main_z	7	main_z	117	stimuli_target_diamondsquares.svg	stimuli_distractor_diamondtriangles.svg	24	yes	44	1	513
6.6.1	mac	2022-12-25	17:38:38	17:44:37	358525	60fe204fae558bfeb83d0bcf	983203998	1	main_z	7	advance_on_keypress_ZEE	118	stimuli_target_diamondsquares.svg	stimuli_distractor_diamondtriangles.svg	24	yes	57	0	358
6.6.1	mac	2022-12-25	17:38:38	17:44:39	359974	60fe204fae558bfeb83d0bcf	983203998	1	main_z	7	main_z	119	stimuli_distractor_diamondtriangles.svg	stimuli_target_squaretriangles.svg	15	yes	44	1	466
6.6.1	mac	2022-12-25	17:38:38	17:44:39	359974	60fe204fae558bfeb83d0bcf	983203998	1	main_z	7	advance_on_keypress_ZEE	120	stimuli_distractor_diamondtriangles.svg	stimuli_target_squaretriangles.svg	15	yes	57	0	341
6.6.1	mac	2022-12-25	17:38:38	17:44:40	361630	60fe204fae558bfeb83d0bcf	983203998	1	main_z	7	main_z	121	stimuli_distractor_trianglediamonds.svg	stimuli_target_diamondcircles.svg	27	yes	44	1	693
6.6.1	mac	2022-12-25	17:38:38	17:44:40	361630	60fe204fae558bfeb83d0bcf	983203998	1	main_z	7	advance_on_keypress_ZEE	122	stimuli_distractor_trianglediamonds.svg	stimuli_target_diamondcircles.svg	27	yes	57	0	470
6.6.1	mac	2022-12-25	17:38:38	17:44:42	363234	60fe204fae558bfeb83d0bcf	983203998	1	main_z	7	main_z	123	stimuli_target_circletriangles.svg	stimuli_distractor_trianglediamonds.svg	1	yes	44	1	496
6.6.1	mac	2022-12-25	17:38:38	17:44:42	363234	60fe204fae558bfeb83d0bcf	983203998	1	main_z	7	advance_on_keypress_ZEE	124	stimuli_target_circletriangles.svg	stimuli_distractor_trianglediamonds.svg	1	yes	57	0	343
6.6.1	mac	2022-12-25	17:38:38	17:44:44	364749	60fe204fae558bfeb83d0bcf	983203998	1	main_z	7	main_z	125	stimuli_distractor_diamondtriangles.svg	stimuli_target_trianglecircles.svg	29	yes	44	1	546
6.6.1	mac	2022-12-25	17:38:38	17:44:44	364749	60fe204fae558bfeb83d0bcf	983203998	1	main_z	7	advance_on_keypress_ZEE	126	stimuli_distractor_diamondtriangles.svg	stimuli_target_trianglecircles.svg	29	yes	57	0	291
6.6.1	mac	2022-12-25	17:38:38	17:44:45	366123	60fe204fae558bfeb83d0bcf	983203998	1	main_z	7	main_z	127	stimuli_distractor_trianglediamonds.svg	stimuli_target_diamondsquares.svg	28	yes	44	1	457
6.6.1	mac	2022-12-25	17:38:38	17:44:45	366123	60fe204fae558bfeb83d0bcf	983203998	1	main_z	7	advance_on_keypress_ZEE	128	stimuli_distractor_trianglediamonds.svg	stimuli_target_diamondsquares.svg	28	yes	57	0	441
6.6.1	mac	2022-12-25	17:38:38	17:44:46	367686	60fe204fae558bfeb83d0bcf	983203998	1	main_z	7	main_z	129	stimuli_distractor_trianglediamonds.svg	stimuli_target_squarediamonds.svg	12	yes	44	1	491
6.6.1	mac	2022-12-25	17:38:38	17:44:46	367686	60fe204fae558bfeb83d0bcf	983203998	1	main_z	7	advance_on_keypress_ZEE	130	stimuli_distractor_trianglediamonds.svg	stimuli_target_squarediamonds.svg	12	yes	57	0	312
6.6.1	mac	2022-12-25	17:38:38	17:44:49	370623	60fe204fae558bfeb83d0bcf	983203998	1	main_z	7	main_z	131	stimuli_distractor_diamondtriangles.svg	stimuli_distractor_trianglediamonds.svg	37	no	0	1	2000
6.6.1	mac	2022-12-25	17:38:38	17:44:49	370623	60fe204fae558bfeb83d0bcf	983203998	1	main_z	7	advance_on_keypress_ZEE	132	stimuli_distractor_diamondtriangles.svg	stimuli_distractor_trianglediamonds.svg	37	no	57	0	354
6.6.1	mac	2022-12-25	17:38:38	17:44:51	372069	60fe204fae558bfeb83d0bcf	983203998	1	main_z	7	main_z	133	stimuli_target_squaretriangles.svg	stimuli_distractor_diamondtriangles.svg	7	yes	44	1	461
6.6.1	mac	2022-12-25	17:38:38	17:44:51	372069	60fe204fae558bfeb83d0bcf	983203998	1	main_z	7	advance_on_keypress_ZEE	134	stimuli_target_squaretriangles.svg	stimuli_distractor_diamondtriangles.svg	7	yes	57	0	382
6.6.1	mac	2022-12-25	17:38:38	17:44:54	375089	60fe204fae558bfeb83d0bcf	983203998	1	main_z	7	main_z	135	stimuli_distractor_trianglediamonds.svg	stimuli_distractor_diamondtriangles.svg	36	no	0	1	2000
6.6.1	mac	2022-12-25	17:38:38	17:44:54	375089	60fe204fae558bfeb83d0bcf	983203998	1	main_z	7	advance_on_keypress_ZEE	136	stimuli_distractor_trianglediamonds.svg	stimuli_distractor_diamondtriangles.svg	36	no	57	0	331
6.6.1	mac	2022-12-25	17:38:38	17:44:55	376471	60fe204fae558bfeb83d0bcf	983203998	1	main_z	7	main_z	137	stimuli_distractor_trianglediamonds.svg	stimuli_target_circlediamonds.svg	10	yes	44	1	431
6.6.1	mac	2022-12-25	17:38:38	17:44:55	376471	60fe204fae558bfeb83d0bcf	983203998	1	main_z	7	advance_on_keypress_ZEE	138	stimuli_distractor_trianglediamonds.svg	stimuli_target_circlediamonds.svg	10	yes	57	0	399
6.6.1	mac	2022-12-25	17:38:38	17:44:57	378043	60fe204fae558bfeb83d0bcf	983203998	1	main_z	7	main_z	139	stimuli_target_diamondcircles.svg	stimuli_distractor_trianglediamonds.svg	19	yes	44	1	521
6.6.1	mac	2022-12-25	17:38:38	17:44:57	378043	60fe204fae558bfeb83d0bcf	983203998	1	main_z	7	advance_on_keypress_ZEE	140	stimuli_target_diamondcircles.svg	stimuli_distractor_trianglediamonds.svg	19	yes	57	0	296
6.6.1	mac	2022-12-25	17:38:38	17:44:58	379414	60fe204fae558bfeb83d0bcf	983203998	1	main_z	7	main_z	141	stimuli_distractor_diamondtriangles.svg	stimuli_target_circlediamonds.svg	14	yes	44	1	447
6.6.1	mac	2022-12-25	17:38:38	17:44:58	379414	60fe204fae558bfeb83d0bcf	983203998	1	main_z	7	advance_on_keypress_ZEE	142	stimuli_distractor_diamondtriangles.svg	stimuli_target_circlediamonds.svg	14	yes	57	0	436
6.6.1	mac	2022-12-25	17:38:38	17:45:00	380834	60fe204fae558bfeb83d0bcf	983203998	1	main_z	7	main_z	143	stimuli_distractor_diamondtriangles.svg	stimuli_target_circletriangles.svg	13	yes	44	1	351
6.6.1	mac	2022-12-25	17:38:38	17:45:00	380834	60fe204fae558bfeb83d0bcf	983203998	1	main_z	7	advance_on_keypress_ZEE	144	stimuli_distractor_diamondtriangles.svg	stimuli_target_circletriangles.svg	13	yes	57	0	378
6.6.1	mac	2022-12-25	17:38:38	17:45:01	382371	60fe204fae558bfeb83d0bcf	983203998	1	main_z	7	main_z	145	stimuli_distractor_trianglediamonds.svg	stimuli_target_trianglesquares.svg	26	yes	44	1	541
6.6.1	mac	2022-12-25	17:38:38	17:45:01	382371	60fe204fae558bfeb83d0bcf	983203998	1	main_z	7	advance_on_keypress_ZEE	146	stimuli_distractor_trianglediamonds.svg	stimuli_target_trianglesquares.svg	26	yes	57	0	424
6.6.1	mac	2022-12-25	17:38:38	17:45:03	383918	60fe204fae558bfeb83d0bcf	983203998	1	main_z	7	main_z	147	stimuli_distractor_trianglediamonds.svg	stimuli_target_trianglecircles.svg	25	yes	44	1	490
6.6.1	mac	2022-12-25	17:38:38	17:45:03	383918	60fe204fae558bfeb83d0bcf	983203998	1	main_z	7	advance_on_keypress_ZEE	148	stimuli_distractor_trianglediamonds.svg	stimuli_target_trianglecircles.svg	25	yes	57	0	349
6.6.1	mac	2022-12-25	17:38:38	17:45:04	385337	60fe204fae558bfeb83d0bcf	983203998	1	main_z	7	main_z	149	stimuli_distractor_diamondtriangles.svg	stimuli_target_diamondcircles.svg	31	yes	44	1	429
6.6.1	mac	2022-12-25	17:38:38	17:45:04	385337	60fe204fae558bfeb83d0bcf	983203998	1	main_z	7	advance_on_keypress_ZEE	150	stimuli_distractor_diamondtriangles.svg	stimuli_target_diamondcircles.svg	31	yes	57	0	376
6.6.1	mac	2022-12-25	17:38:38	17:45:07	388334	60fe204fae558bfeb83d0bcf	983203998	1	main_z	7	main_z	151	stimuli_distractor_trianglediamonds.svg	stimuli_distractor_diamondtriangles.svg	35	no	0	1	2000
6.6.1	mac	2022-12-25	17:38:38	17:45:07	388334	60fe204fae558bfeb83d0bcf	983203998	1	main_z	7	advance_on_keypress_ZEE	152	stimuli_distractor_trianglediamonds.svg	stimuli_distractor_diamondtriangles.svg	35	no	57	0	275
6.6.1	mac	2022-12-25	17:38:38	17:45:09	389757	60fe204fae558bfeb83d0bcf	983203998	1	main_z	7	main_z	153	stimuli_distractor_trianglediamonds.svg	stimuli_target_circletriangles.svg	9	yes	44	1	523
6.6.1	mac	2022-12-25	17:38:38	17:45:09	389757	60fe204fae558bfeb83d0bcf	983203998	1	main_z	7	advance_on_keypress_ZEE	154	stimuli_distractor_trianglediamonds.svg	stimuli_target_circletriangles.svg	9	yes	57	0	382
6.6.1	mac	2022-12-25	17:38:38	17:45:10	391301	60fe204fae558bfeb83d0bcf	983203998	1	main_z	7	main_z	155	stimuli_target_circletriangles.svg	stimuli_distractor_diamondtriangles.svg	5	yes	44	1	517
6.6.1	mac	2022-12-25	17:38:38	17:45:10	391301	60fe204fae558bfeb83d0bcf	983203998	1	main_z	7	advance_on_keypress_ZEE	156	stimuli_target_circletriangles.svg	stimuli_distractor_diamondtriangles.svg	5	yes	57	0	810
6.6.1	mac	2022-12-25	17:38:38	17:45:12	393497	60fe204fae558bfeb83d0bcf	983203998	1	main_z	7	main_z	157	stimuli_distractor_diamondtriangles.svg	stimuli_target_diamondsquares.svg	32	yes	44	1	760
6.6.1	mac	2022-12-25	17:38:38	17:45:12	393497	60fe204fae558bfeb83d0bcf	983203998	1	main_z	7	advance_on_keypress_ZEE	158	stimuli_distractor_diamondtriangles.svg	stimuli_target_diamondsquares.svg	32	yes	57	0	399
6.6.1	mac	2022-12-25	17:38:38	17:45:14	395088	60fe204fae558bfeb83d0bcf	983203998	1	main_z	7	main_z	159	stimuli_distractor_trianglediamonds.svg	stimuli_target_squaretriangles.svg	11	yes	44	1	556
6.6.1	mac	2022-12-25	17:38:38	17:45:14	395088	60fe204fae558bfeb83d0bcf	983203998	1	main_z	7	advance_on_keypress_ZEE	160	stimuli_distractor_trianglediamonds.svg	stimuli_target_squaretriangles.svg	11	yes	57	0	461
6.6.1	mac	2022-12-25	17:38:38	17:46:10	451694	60fe204fae558bfeb83d0bcf	983203998	1	practice_slash	9	practice_slash	1	stimuli_distractor_diamondtriangles.svg	stimuli_distractor_diamondtriangles.svg	13	no	0	1	2000
6.6.1	mac	2022-12-25	17:38:38	17:46:10	451694	60fe204fae558bfeb83d0bcf	983203998	1	practice_slash	9	advance_on_keypress_SLASH	2	stimuli_distractor_diamondtriangles.svg	stimuli_distractor_diamondtriangles.svg	13	no	57	0	614
6.6.1	mac	2022-12-25	17:38:38	17:46:13	454447	60fe204fae558bfeb83d0bcf	983203998	1	practice_slash	9	practice_slash	3	stimuli_distractor_diamondtriangles.svg	stimuli_target_circletriangles.svg	7	yes	53	1	515
6.6.1	mac	2022-12-25	17:38:38	17:46:13	454447	60fe204fae558bfeb83d0bcf	983203998	1	practice_slash	9	advance_on_keypress_SLASH	4	stimuli_distractor_diamondtriangles.svg	stimuli_target_circletriangles.svg	7	yes	57	0	390
6.6.1	mac	2022-12-25	17:38:38	17:46:16	456945	60fe204fae558bfeb83d0bcf	983203998	1	practice_slash	9	practice_slash	5	stimuli_distractor_diamondtriangles.svg	stimuli_target_diamondcircles.svg	8	yes	53	1	486
6.6.1	mac	2022-12-25	17:38:38	17:46:16	456945	60fe204fae558bfeb83d0bcf	983203998	1	practice_slash	9	advance_on_keypress_SLASH	6	stimuli_distractor_diamondtriangles.svg	stimuli_target_diamondcircles.svg	8	yes	57	0	340
6.6.1	mac	2022-12-25	17:38:38	17:46:20	460906	60fe204fae558bfeb83d0bcf	983203998	1	practice_slash	9	practice_slash	7	stimuli_distractor_diamondtriangles.svg	stimuli_distractor_trianglediamonds.svg	14	no	0	1	2000
6.6.1	mac	2022-12-25	17:38:38	17:46:20	460906	60fe204fae558bfeb83d0bcf	983203998	1	practice_slash	9	advance_on_keypress_SLASH	8	stimuli_distractor_diamondtriangles.svg	stimuli_distractor_trianglediamonds.svg	14	no	57	0	272
6.6.1	mac	2022-12-25	17:38:38	17:46:24	464809	60fe204fae558bfeb83d0bcf	983203998	1	practice_slash	9	practice_slash	9	stimuli_distractor_trianglediamonds.svg	stimuli_distractor_diamondtriangles.svg	16	no	0	1	2000
6.6.1	mac	2022-12-25	17:38:38	17:46:24	464809	60fe204fae558bfeb83d0bcf	983203998	1	practice_slash	9	advance_on_keypress_SLASH	10	stimuli_distractor_trianglediamonds.svg	stimuli_distractor_diamondtriangles.svg	16	no	57	0	410
6.6.1	mac	2022-12-25	17:38:38	17:46:26	467372	60fe204fae558bfeb83d0bcf	983203998	1	practice_slash	9	practice_slash	11	stimuli_distractor_trianglediamonds.svg	stimuli_target_circlediamonds.svg	10	yes	53	1	520
6.6.1	mac	2022-12-25	17:38:38	17:46:26	467372	60fe204fae558bfeb83d0bcf	983203998	1	practice_slash	9	advance_on_keypress_SLASH	12	stimuli_distractor_trianglediamonds.svg	stimuli_target_circlediamonds.svg	10	yes	57	0	313
6.6.1	mac	2022-12-25	17:38:38	17:46:29	469852	60fe204fae558bfeb83d0bcf	983203998	1	practice_slash	9	practice_slash	13	stimuli_distractor_diamondtriangles.svg	stimuli_target_trianglecircles.svg	9	yes	53	1	537
6.6.1	mac	2022-12-25	17:38:38	17:46:29	469852	60fe204fae558bfeb83d0bcf	983203998	1	practice_slash	9	advance_on_keypress_SLASH	14	stimuli_distractor_diamondtriangles.svg	stimuli_target_trianglecircles.svg	9	yes	57	0	483
6.6.1	mac	2022-12-25	17:38:38	17:46:33	473969	60fe204fae558bfeb83d0bcf	983203998	1	practice_slash	9	practice_slash	15	stimuli_distractor_trianglediamonds.svg	stimuli_distractor_trianglediamonds.svg	15	no	0	1	2000
6.6.1	mac	2022-12-25	17:38:38	17:46:33	473969	60fe204fae558bfeb83d0bcf	983203998	1	practice_slash	9	advance_on_keypress_SLASH	16	stimuli_distractor_trianglediamonds.svg	stimuli_distractor_trianglediamonds.svg	15	no	57	0	303
6.6.1	mac	2022-12-25	17:38:38	17:46:35	476474	60fe204fae558bfeb83d0bcf	983203998	1	practice_slash	9	practice_slash	17	stimuli_target_squarediamonds.svg	stimuli_distractor_trianglediamonds.svg	5	yes	53	1	572
6.6.1	mac	2022-12-25	17:38:38	17:46:35	476474	60fe204fae558bfeb83d0bcf	983203998	1	practice_slash	9	advance_on_keypress_SLASH	18	stimuli_target_squarediamonds.svg	stimuli_distractor_trianglediamonds.svg	5	yes	57	0	349
6.6.1	mac	2022-12-25	17:38:38	17:46:38	478891	60fe204fae558bfeb83d0bcf	983203998	1	practice_slash	9	practice_slash	19	stimuli_target_circlediamonds.svg	stimuli_distractor_diamondtriangles.svg	1	yes	53	1	435
6.6.1	mac	2022-12-25	17:38:38	17:46:38	478891	60fe204fae558bfeb83d0bcf	983203998	1	practice_slash	9	advance_on_keypress_SLASH	20	stimuli_target_circlediamonds.svg	stimuli_distractor_diamondtriangles.svg	1	yes	57	0	464
6.6.1	mac	2022-12-25	17:38:38	17:46:40	481456	60fe204fae558bfeb83d0bcf	983203998	1	practice_slash	9	practice_slash	21	stimuli_target_circlediamonds.svg	stimuli_distractor_trianglediamonds.svg	4	yes	53	1	483
6.6.1	mac	2022-12-25	17:38:38	17:46:40	481456	60fe204fae558bfeb83d0bcf	983203998	1	practice_slash	9	advance_on_keypress_SLASH	22	stimuli_target_circlediamonds.svg	stimuli_distractor_trianglediamonds.svg	4	yes	57	0	311
6.6.1	mac	2022-12-25	17:38:38	17:46:43	483957	60fe204fae558bfeb83d0bcf	983203998	1	practice_slash	9	practice_slash	23	stimuli_target_diamondsquares.svg	stimuli_distractor_trianglediamonds.svg	6	yes	53	1	553
6.6.1	mac	2022-12-25	17:38:38	17:46:43	483957	60fe204fae558bfeb83d0bcf	983203998	1	practice_slash	9	advance_on_keypress_SLASH	24	stimuli_target_diamondsquares.svg	stimuli_distractor_trianglediamonds.svg	6	yes	57	0	371
6.6.1	mac	2022-12-25	17:38:38	17:46:45	486434	60fe204fae558bfeb83d0bcf	983203998	1	practice_slash	9	practice_slash	25	stimuli_target_diamondsquares.svg	stimuli_distractor_diamondtriangles.svg	3	yes	53	1	476
6.6.1	mac	2022-12-25	17:38:38	17:46:45	486434	60fe204fae558bfeb83d0bcf	983203998	1	practice_slash	9	advance_on_keypress_SLASH	26	stimuli_target_diamondsquares.svg	stimuli_distractor_diamondtriangles.svg	3	yes	57	0	289
6.6.1	mac	2022-12-25	17:38:38	17:46:48	488902	60fe204fae558bfeb83d0bcf	983203998	1	practice_slash	9	practice_slash	27	stimuli_distractor_trianglediamonds.svg	stimuli_target_squarediamonds.svg	11	yes	53	1	547
6.6.1	mac	2022-12-25	17:38:38	17:46:48	488902	60fe204fae558bfeb83d0bcf	983203998	1	practice_slash	9	advance_on_keypress_SLASH	28	stimuli_distractor_trianglediamonds.svg	stimuli_target_squarediamonds.svg	11	yes	57	0	316
6.6.1	mac	2022-12-25	17:38:38	17:46:50	491507	60fe204fae558bfeb83d0bcf	983203998	1	practice_slash	9	practice_slash	29	stimuli_target_squarediamonds.svg	stimuli_distractor_diamondtriangles.svg	2	yes	53	1	649
6.6.1	mac	2022-12-25	17:38:38	17:46:50	491507	60fe204fae558bfeb83d0bcf	983203998	1	practice_slash	9	advance_on_keypress_SLASH	30	stimuli_target_squarediamonds.svg	stimuli_distractor_diamondtriangles.svg	2	yes	57	0	380
6.6.1	mac	2022-12-25	17:38:38	17:46:53	494000	60fe204fae558bfeb83d0bcf	983203998	1	practice_slash	9	practice_slash	31	stimuli_distractor_trianglediamonds.svg	stimuli_target_diamondcircles.svg	12	yes	53	1	488
6.6.1	mac	2022-12-25	17:38:38	17:46:53	494000	60fe204fae558bfeb83d0bcf	983203998	1	practice_slash	9	advance_on_keypress_SLASH	32	stimuli_distractor_trianglediamonds.svg	stimuli_target_diamondcircles.svg	12	yes	57	0	273
6.6.1	mac	2022-12-25	17:38:38	17:46:57	498688	60fe204fae558bfeb83d0bcf	983203998	1	main_slash	11	main_slash	1	stimuli_distractor_trianglediamonds.svg	stimuli_target_trianglesquares.svg	26	yes	53	1	595
6.6.1	mac	2022-12-25	17:38:38	17:46:57	498688	60fe204fae558bfeb83d0bcf	983203998	1	main_slash	11	advance_on_keypress_SLASH	2	stimuli_distractor_trianglediamonds.svg	stimuli_target_trianglesquares.svg	26	yes	57	0	797
6.6.1	mac	2022-12-25	17:38:38	17:46:59	500473	60fe204fae558bfeb83d0bcf	983203998	1	main_slash	11	main_slash	3	stimuli_distractor_trianglediamonds.svg	stimuli_target_diamondcircles.svg	27	yes	53	1	369
6.6.1	mac	2022-12-25	17:38:38	17:46:59	500473	60fe204fae558bfeb83d0bcf	983203998	1	main_slash	11	advance_on_keypress_SLASH	4	stimuli_distractor_trianglediamonds.svg	stimuli_target_diamondcircles.svg	27	yes	57	0	589
6.6.1	mac	2022-12-25	17:38:38	17:47:01	502098	60fe204fae558bfeb83d0bcf	983203998	1	main_slash	11	main_slash	5	stimuli_distractor_diamondtriangles.svg	stimuli_target_diamondcircles.svg	31	yes	53	1	398
6.6.1	mac	2022-12-25	17:38:38	17:47:01	502098	60fe204fae558bfeb83d0bcf	983203998	1	main_slash	11	advance_on_keypress_SLASH	6	stimuli_distractor_diamondtriangles.svg	stimuli_target_diamondcircles.svg	31	yes	57	0	483
6.6.1	mac	2022-12-25	17:38:38	17:47:02	503585	60fe204fae558bfeb83d0bcf	983203998	1	main_slash	11	main_slash	7	stimuli_distractor_trianglediamonds.svg	stimuli_target_circlediamonds.svg	10	yes	53	1	374
6.6.1	mac	2022-12-25	17:38:38	17:47:02	503585	60fe204fae558bfeb83d0bcf	983203998	1	main_slash	11	advance_on_keypress_SLASH	8	stimuli_distractor_trianglediamonds.svg	stimuli_target_circlediamonds.svg	10	yes	57	0	428
6.6.1	mac	2022-12-25	17:38:38	17:47:04	505029	60fe204fae558bfeb83d0bcf	983203998	1	main_slash	11	main_slash	9	stimuli_target_trianglecircles.svg	stimuli_distractor_diamondtriangles.svg	21	yes	53	1	373
6.6.1	mac	2022-12-25	17:38:38	17:47:04	505029	60fe204fae558bfeb83d0bcf	983203998	1	main_slash	11	advance_on_keypress_SLASH	10	stimuli_target_trianglecircles.svg	stimuli_distractor_diamondtriangles.svg	21	yes	57	0	496
6.6.1	mac	2022-12-25	17:38:38	17:47:05	506592	60fe204fae558bfeb83d0bcf	983203998	1	main_slash	11	main_slash	11	stimuli_distractor_trianglediamonds.svg	stimuli_distractor_diamondtriangles.svg	35	no	53	0	424
6.6.1	mac	2022-12-25	17:38:38	17:47:05	506592	60fe204fae558bfeb83d0bcf	983203998	1	main_slash	11	advance_on_keypress_SLASH	12	stimuli_distractor_trianglediamonds.svg	stimuli_distractor_diamondtriangles.svg	35	no	57	0	1006
6.6.1	mac	2022-12-25	17:38:38	17:47:09	510233	60fe204fae558bfeb83d0bcf	983203998	1	main_slash	11	main_slash	13	stimuli_distractor_trianglediamonds.svg	stimuli_distractor_trianglediamonds.svg	34	no	0	1	2000
6.6.1	mac	2022-12-25	17:38:38	17:47:09	510233	60fe204fae558bfeb83d0bcf	983203998	1	main_slash	11	advance_on_keypress_SLASH	14	stimuli_distractor_trianglediamonds.svg	stimuli_distractor_trianglediamonds.svg	34	no	57	0	269
6.6.1	mac	2022-12-25	17:38:38	17:47:10	511618	60fe204fae558bfeb83d0bcf	983203998	1	main_slash	11	main_slash	15	stimuli_distractor_diamondtriangles.svg	stimuli_target_diamondsquares.svg	32	yes	53	1	478
6.6.1	mac	2022-12-25	17:38:38	17:47:10	511618	60fe204fae558bfeb83d0bcf	983203998	1	main_slash	11	advance_on_keypress_SLASH	16	stimuli_distractor_diamondtriangles.svg	stimuli_target_diamondsquares.svg	32	yes	57	0	499
6.6.1	mac	2022-12-25	17:38:38	17:47:14	514756	60fe204fae558bfeb83d0bcf	983203998	1	main_slash	11	main_slash	17	stimuli_distractor_trianglediamonds.svg	stimuli_distractor_trianglediamonds.svg	33	no	0	1	2000
6.6.1	mac	2022-12-25	17:38:38	17:47:14	514756	60fe204fae558bfeb83d0bcf	983203998	1	main_slash	11	advance_on_keypress_SLASH	18	stimuli_distractor_trianglediamonds.svg	stimuli_distractor_trianglediamonds.svg	33	no	57	0	267
6.6.1	mac	2022-12-25	17:38:38	17:47:15	516168	60fe204fae558bfeb83d0bcf	983203998	1	main_slash	11	main_slash	19	stimuli_distractor_trianglediamonds.svg	stimuli_target_squarediamonds.svg	12	yes	53	1	515
6.6.1	mac	2022-12-25	17:38:38	17:47:15	516168	60fe204fae558bfeb83d0bcf	983203998	1	main_slash	11	advance_on_keypress_SLASH	20	stimuli_distractor_trianglediamonds.svg	stimuli_target_squarediamonds.svg	12	yes	57	0	689
6.6.1	mac	2022-12-25	17:38:38	17:47:17	518035	60fe204fae558bfeb83d0bcf	983203998	1	main_slash	11	main_slash	21	stimuli_distractor_diamondtriangles.svg	stimuli_target_circletriangles.svg	13	yes	53	1	543
6.6.1	mac	2022-12-25	17:38:38	17:47:17	518035	60fe204fae558bfeb83d0bcf	983203998	1	main_slash	11	advance_on_keypress_SLASH	22	stimuli_distractor_diamondtriangles.svg	stimuli_target_circletriangles.svg	13	yes	57	0	621
6.6.1	mac	2022-12-25	17:38:38	17:47:19	519746	60fe204fae558bfeb83d0bcf	983203998	1	main_slash	11	main_slash	23	stimuli_distractor_trianglediamonds.svg	stimuli_target_trianglecircles.svg	25	yes	53	1	458
6.6.1	mac	2022-12-25	17:38:38	17:47:19	519746	60fe204fae558bfeb83d0bcf	983203998	1	main_slash	11	advance_on_keypress_SLASH	24	stimuli_distractor_trianglediamonds.svg	stimuli_target_trianglecircles.svg	25	yes	57	0	427
6.6.1	mac	2022-12-25	17:38:38	17:47:20	521288	60fe204fae558bfeb83d0bcf	983203998	1	main_slash	11	main_slash	25	stimuli_distractor_trianglediamonds.svg	stimuli_target_diamondsquares.svg	28	yes	53	1	488
6.6.1	mac	2022-12-25	17:38:38	17:47:20	521288	60fe204fae558bfeb83d0bcf	983203998	1	main_slash	11	advance_on_keypress_SLASH	26	stimuli_distractor_trianglediamonds.svg	stimuli_target_diamondsquares.svg	28	yes	57	0	395
6.6.1	mac	2022-12-25	17:38:38	17:47:22	522770	60fe204fae558bfeb83d0bcf	983203998	1	main_slash	11	main_slash	27	stimuli_target_diamondsquares.svg	stimuli_distractor_diamondtriangles.svg	24	yes	53	1	456
6.6.1	mac	2022-12-25	17:38:38	17:47:22	522770	60fe204fae558bfeb83d0bcf	983203998	1	main_slash	11	advance_on_keypress_SLASH	28	stimuli_target_diamondsquares.svg	stimuli_distractor_diamondtriangles.svg	24	yes	57	0	459
6.6.1	mac	2022-12-25	17:38:38	17:47:23	524275	60fe204fae558bfeb83d0bcf	983203998	1	main_slash	11	main_slash	29	stimuli_distractor_diamondtriangles.svg	stimuli_target_circlediamonds.svg	14	yes	53	1	415
6.6.1	mac	2022-12-25	17:38:38	17:47:23	524275	60fe204fae558bfeb83d0bcf	983203998	1	main_slash	11	advance_on_keypress_SLASH	30	stimuli_distractor_diamondtriangles.svg	stimuli_target_circlediamonds.svg	14	yes	57	0	572
6.6.1	mac	2022-12-25	17:38:38	17:47:25	525964	60fe204fae558bfeb83d0bcf	983203998	1	main_slash	11	main_slash	31	stimuli_target_circletriangles.svg	stimuli_distractor_trianglediamonds.svg	1	yes	53	1	488
6.6.1	mac	2022-12-25	17:38:38	17:47:25	525964	60fe204fae558bfeb83d0bcf	983203998	1	main_slash	11	advance_on_keypress_SLASH	32	stimuli_target_circletriangles.svg	stimuli_distractor_trianglediamonds.svg	1	yes	57	0	502
6.6.1	mac	2022-12-25	17:38:38	17:47:28	529104	60fe204fae558bfeb83d0bcf	983203998	1	main_slash	11	main_slash	33	stimuli_distractor_trianglediamonds.svg	stimuli_distractor_diamondtriangles.svg	36	no	0	1	2000
6.6.1	mac	2022-12-25	17:38:38	17:47:28	529104	60fe204fae558bfeb83d0bcf	983203998	1	main_slash	11	advance_on_keypress_SLASH	34	stimuli_distractor_trianglediamonds.svg	stimuli_distractor_diamondtriangles.svg	36	no	57	0	507
6.6.1	mac	2022-12-25	17:38:38	17:47:29	530698	60fe204fae558bfeb83d0bcf	983203998	1	main_slash	11	main_slash	35	stimuli_target_diamondcircles.svg	stimuli_distractor_diamondtriangles.svg	23	yes	53	1	459
6.6.1	mac	2022-12-25	17:38:38	17:47:29	530698	60fe204fae558bfeb83d0bcf	983203998	1	main_slash	11	advance_on_keypress_SLASH	36	stimuli_target_diamondcircles.svg	stimuli_distractor_diamondtriangles.svg	23	yes	57	0	398
6.6.1	mac	2022-12-25	17:38:38	17:47:31	532159	60fe204fae558bfeb83d0bcf	983203998	1	main_slash	11	main_slash	37	stimuli_target_trianglecircles.svg	stimuli_distractor_trianglediamonds.svg	17	yes	53	1	421
6.6.1	mac	2022-12-25	17:38:38	17:47:31	532159	60fe204fae558bfeb83d0bcf	983203998	1	main_slash	11	advance_on_keypress_SLASH	38	stimuli_target_trianglecircles.svg	stimuli_distractor_trianglediamonds.svg	17	yes	57	0	502
6.6.1	mac	2022-12-25	17:38:38	17:47:33	534178	60fe204fae558bfeb83d0bcf	983203998	1	main_slash	11	main_slash	39	stimuli_target_squaretriangles.svg	stimuli_distractor_diamondtriangles.svg	7	yes	53	1	874
6.6.1	mac	2022-12-25	17:38:38	17:47:33	534178	60fe204fae558bfeb83d0bcf	983203998	1	main_slash	11	advance_on_keypress_SLASH	40	stimuli_target_squaretriangles.svg	stimuli_distractor_diamondtriangles.svg	7	yes	57	0	727
6.6.1	mac	2022-12-25	17:38:38	17:47:35	535952	60fe204fae558bfeb83d0bcf	983203998	1	main_slash	11	main_slash	41	stimuli_target_trianglesquares.svg	stimuli_distractor_diamondtriangles.svg	22	yes	53	1	412
6.6.1	mac	2022-12-25	17:38:38	17:47:35	535952	60fe204fae558bfeb83d0bcf	983203998	1	main_slash	11	advance_on_keypress_SLASH	42	stimuli_target_trianglesquares.svg	stimuli_distractor_diamondtriangles.svg	22	yes	57	0	503
6.6.1	mac	2022-12-25	17:38:38	17:47:36	537556	60fe204fae558bfeb83d0bcf	983203998	1	main_slash	11	main_slash	43	stimuli_distractor_trianglediamonds.svg	stimuli_target_circletriangles.svg	9	yes	53	1	474
6.6.1	mac	2022-12-25	17:38:38	17:47:36	537556	60fe204fae558bfeb83d0bcf	983203998	1	main_slash	11	advance_on_keypress_SLASH	44	stimuli_distractor_trianglediamonds.svg	stimuli_target_circletriangles.svg	9	yes	57	0	444
6.6.1	mac	2022-12-25	17:38:38	17:47:38	539162	60fe204fae558bfeb83d0bcf	983203998	1	main_slash	11	main_slash	45	stimuli_distractor_trianglediamonds.svg	stimuli_target_squaretriangles.svg	11	yes	53	1	534
6.6.1	mac	2022-12-25	17:38:38	17:47:38	539162	60fe204fae558bfeb83d0bcf	983203998	1	main_slash	11	advance_on_keypress_SLASH	46	stimuli_distractor_trianglediamonds.svg	stimuli_target_squaretriangles.svg	11	yes	57	0	1166
6.6.1	mac	2022-12-25	17:38:38	17:47:40	541435	60fe204fae558bfeb83d0bcf	983203998	1	main_slash	11	main_slash	47	stimuli_distractor_diamondtriangles.svg	stimuli_target_trianglecircles.svg	29	yes	53	1	484
6.6.1	mac	2022-12-25	17:38:38	17:47:40	541435	60fe204fae558bfeb83d0bcf	983203998	1	main_slash	11	advance_on_keypress_SLASH	48	stimuli_distractor_diamondtriangles.svg	stimuli_target_trianglecircles.svg	29	yes	57	0	703
6.6.1	mac	2022-12-25	17:38:38	17:47:42	543211	60fe204fae558bfeb83d0bcf	983203998	1	main_slash	11	main_slash	49	stimuli_distractor_diamondtriangles.svg	stimuli_target_squaretriangles.svg	15	yes	53	1	434
6.6.1	mac	2022-12-25	17:38:38	17:47:42	543211	60fe204fae558bfeb83d0bcf	983203998	1	main_slash	11	advance_on_keypress_SLASH	50	stimuli_distractor_diamondtriangles.svg	stimuli_target_squaretriangles.svg	15	yes	57	0	1019
6.6.1	mac	2022-12-25	17:38:38	17:47:44	545492	60fe204fae558bfeb83d0bcf	983203998	1	main_slash	11	main_slash	51	stimuli_target_circlediamonds.svg	stimuli_distractor_trianglediamonds.svg	2	yes	53	1	649
6.6.1	mac	2022-12-25	17:38:38	17:47:44	545492	60fe204fae558bfeb83d0bcf	983203998	1	main_slash	11	advance_on_keypress_SLASH	52	stimuli_target_circlediamonds.svg	stimuli_distractor_trianglediamonds.svg	2	yes	57	0	510
6.6.1	mac	2022-12-25	17:38:38	17:47:46	547159	60fe204fae558bfeb83d0bcf	983203998	1	main_slash	11	main_slash	53	stimuli_distractor_diamondtriangles.svg	stimuli_target_squarediamonds.svg	16	yes	53	1	524
6.6.1	mac	2022-12-25	17:38:38	17:47:46	547159	60fe204fae558bfeb83d0bcf	983203998	1	main_slash	11	advance_on_keypress_SLASH	54	stimuli_distractor_diamondtriangles.svg	stimuli_target_squarediamonds.svg	16	yes	57	0	410
6.6.1	mac	2022-12-25	17:38:38	17:47:47	548630	60fe204fae558bfeb83d0bcf	983203998	1	main_slash	11	main_slash	55	stimuli_target_diamondsquares.svg	stimuli_distractor_trianglediamonds.svg	20	yes	53	1	431
6.6.1	mac	2022-12-25	17:38:38	17:47:47	548630	60fe204fae558bfeb83d0bcf	983203998	1	main_slash	11	advance_on_keypress_SLASH	56	stimuli_target_diamondsquares.svg	stimuli_distractor_trianglediamonds.svg	20	yes	57	0	496
6.6.1	mac	2022-12-25	17:38:38	17:47:49	550260	60fe204fae558bfeb83d0bcf	983203998	1	main_slash	11	main_slash	57	stimuli_distractor_diamondtriangles.svg	stimuli_target_trianglesquares.svg	30	yes	53	1	513
6.6.1	mac	2022-12-25	17:38:38	17:47:49	550260	60fe204fae558bfeb83d0bcf	983203998	1	main_slash	11	advance_on_keypress_SLASH	58	stimuli_distractor_diamondtriangles.svg	stimuli_target_trianglesquares.svg	30	yes	57	0	455
6.6.1	mac	2022-12-25	17:38:38	17:47:52	553340	60fe204fae558bfeb83d0bcf	983203998	1	main_slash	11	main_slash	59	stimuli_distractor_diamondtriangles.svg	stimuli_distractor_diamondtriangles.svg	40	no	0	1	2000
6.6.1	mac	2022-12-25	17:38:38	17:47:52	553340	60fe204fae558bfeb83d0bcf	983203998	1	main_slash	11	advance_on_keypress_SLASH	60	stimuli_distractor_diamondtriangles.svg	stimuli_distractor_diamondtriangles.svg	40	no	57	0	510
6.6.1	mac	2022-12-25	17:38:38	17:47:54	554900	60fe204fae558bfeb83d0bcf	983203998	1	main_slash	11	main_slash	61	stimuli_target_circletriangles.svg	stimuli_distractor_diamondtriangles.svg	5	yes	53	1	426
6.6.1	mac	2022-12-25	17:38:38	17:47:54	554900	60fe204fae558bfeb83d0bcf	983203998	1	main_slash	11	advance_on_keypress_SLASH	62	stimuli_target_circletriangles.svg	stimuli_distractor_diamondtriangles.svg	5	yes	57	0	505
6.6.1	mac	2022-12-25	17:38:38	17:47:57	558037	60fe204fae558bfeb83d0bcf	983203998	1	main_slash	11	main_slash	63	stimuli_distractor_diamondtriangles.svg	stimuli_distractor_diamondtriangles.svg	39	no	0	1	2000
6.6.1	mac	2022-12-25	17:38:38	17:47:57	558037	60fe204fae558bfeb83d0bcf	983203998	1	main_slash	11	advance_on_keypress_SLASH	64	stimuli_distractor_diamondtriangles.svg	stimuli_distractor_diamondtriangles.svg	39	no	57	0	353
6.6.1	mac	2022-12-25	17:38:38	17:47:58	559446	60fe204fae558bfeb83d0bcf	983203998	1	main_slash	11	main_slash	65	stimuli_target_squarediamonds.svg	stimuli_distractor_diamondtriangles.svg	8	yes	53	1	429
6.6.1	mac	2022-12-25	17:38:38	17:47:58	559446	60fe204fae558bfeb83d0bcf	983203998	1	main_slash	11	advance_on_keypress_SLASH	66	stimuli_target_squarediamonds.svg	stimuli_distractor_diamondtriangles.svg	8	yes	57	0	453
6.6.1	mac	2022-12-25	17:38:38	17:48:00	561024	60fe204fae558bfeb83d0bcf	983203998	1	main_slash	11	main_slash	67	stimuli_target_squarediamonds.svg	stimuli_distractor_trianglediamonds.svg	4	yes	53	1	490
6.6.1	mac	2022-12-25	17:38:38	17:48:00	561024	60fe204fae558bfeb83d0bcf	983203998	1	main_slash	11	advance_on_keypress_SLASH	68	stimuli_target_squarediamonds.svg	stimuli_distractor_trianglediamonds.svg	4	yes	57	0	529
6.6.1	mac	2022-12-25	17:38:38	17:48:01	562685	60fe204fae558bfeb83d0bcf	983203998	1	main_slash	11	main_slash	69	stimuli_target_squaretriangles.svg	stimuli_distractor_trianglediamonds.svg	3	yes	53	1	506
6.6.1	mac	2022-12-25	17:38:38	17:48:01	562685	60fe204fae558bfeb83d0bcf	983203998	1	main_slash	11	advance_on_keypress_SLASH	70	stimuli_target_squaretriangles.svg	stimuli_distractor_trianglediamonds.svg	3	yes	57	0	459
6.6.1	mac	2022-12-25	17:38:38	17:48:05	565775	60fe204fae558bfeb83d0bcf	983203998	1	main_slash	11	main_slash	71	stimuli_distractor_diamondtriangles.svg	stimuli_distractor_trianglediamonds.svg	38	no	0	1	2000
6.6.1	mac	2022-12-25	17:38:38	17:48:05	565775	60fe204fae558bfeb83d0bcf	983203998	1	main_slash	11	advance_on_keypress_SLASH	72	stimuli_distractor_diamondtriangles.svg	stimuli_distractor_trianglediamonds.svg	38	no	57	0	295
6.6.1	mac	2022-12-25	17:38:38	17:48:06	567162	60fe204fae558bfeb83d0bcf	983203998	1	main_slash	11	main_slash	73	stimuli_target_trianglesquares.svg	stimuli_distractor_trianglediamonds.svg	18	yes	53	1	453
6.6.1	mac	2022-12-25	17:38:38	17:48:06	567162	60fe204fae558bfeb83d0bcf	983203998	1	main_slash	11	advance_on_keypress_SLASH	74	stimuli_target_trianglesquares.svg	stimuli_distractor_trianglediamonds.svg	18	yes	57	0	381
6.6.1	mac	2022-12-25	17:38:38	17:48:07	568542	60fe204fae558bfeb83d0bcf	983203998	1	main_slash	11	main_slash	75	stimuli_target_diamondcircles.svg	stimuli_distractor_trianglediamonds.svg	19	yes	53	1	366
6.6.1	mac	2022-12-25	17:38:38	17:48:07	568542	60fe204fae558bfeb83d0bcf	983203998	1	main_slash	11	advance_on_keypress_SLASH	76	stimuli_target_diamondcircles.svg	stimuli_distractor_trianglediamonds.svg	19	yes	57	0	315
6.6.1	mac	2022-12-25	17:38:38	17:48:09	569963	60fe204fae558bfeb83d0bcf	983203998	1	main_slash	11	main_slash	77	stimuli_target_circlediamonds.svg	stimuli_distractor_diamondtriangles.svg	6	yes	53	1	473
6.6.1	mac	2022-12-25	17:38:38	17:48:09	569963	60fe204fae558bfeb83d0bcf	983203998	1	main_slash	11	advance_on_keypress_SLASH	78	stimuli_target_circlediamonds.svg	stimuli_distractor_diamondtriangles.svg	6	yes	57	0	716
6.6.1	mac	2022-12-25	17:38:38	17:48:12	573303	60fe204fae558bfeb83d0bcf	983203998	1	main_slash	11	main_slash	79	stimuli_distractor_diamondtriangles.svg	stimuli_distractor_trianglediamonds.svg	37	no	0	1	2000
6.6.1	mac	2022-12-25	17:38:38	17:48:12	573303	60fe204fae558bfeb83d0bcf	983203998	1	main_slash	11	advance_on_keypress_SLASH	80	stimuli_distractor_diamondtriangles.svg	stimuli_distractor_trianglediamonds.svg	37	no	57	0	627
6.6.1	mac	2022-12-25	17:38:38	17:48:14	575015	60fe204fae558bfeb83d0bcf	983203998	1	main_slash	11	main_slash	81	stimuli_target_diamondcircles.svg	stimuli_distractor_trianglediamonds.svg	19	yes	53	1	460
6.6.1	mac	2022-12-25	17:38:38	17:48:14	575015	60fe204fae558bfeb83d0bcf	983203998	1	main_slash	11	advance_on_keypress_SLASH	82	stimuli_target_diamondcircles.svg	stimuli_distractor_trianglediamonds.svg	19	yes	57	0	403
6.6.1	mac	2022-12-25	17:38:38	17:48:15	576540	60fe204fae558bfeb83d0bcf	983203998	1	main_slash	11	main_slash	83	stimuli_distractor_diamondtriangles.svg	stimuli_target_squarediamonds.svg	16	yes	53	1	487
6.6.1	mac	2022-12-25	17:38:38	17:48:15	576540	60fe204fae558bfeb83d0bcf	983203998	1	main_slash	11	advance_on_keypress_SLASH	84	stimuli_distractor_diamondtriangles.svg	stimuli_target_squarediamonds.svg	16	yes	57	0	444
6.6.1	mac	2022-12-25	17:38:38	17:48:17	578035	60fe204fae558bfeb83d0bcf	983203998	1	main_slash	11	main_slash	85	stimuli_target_squarediamonds.svg	stimuli_distractor_diamondtriangles.svg	8	yes	53	1	420
6.6.1	mac	2022-12-25	17:38:38	17:48:17	578035	60fe204fae558bfeb83d0bcf	983203998	1	main_slash	11	advance_on_keypress_SLASH	86	stimuli_target_squarediamonds.svg	stimuli_distractor_diamondtriangles.svg	8	yes	57	0	346
6.6.1	mac	2022-12-25	17:38:38	17:48:18	579448	60fe204fae558bfeb83d0bcf	983203998	1	main_slash	11	main_slash	87	stimuli_distractor_diamondtriangles.svg	stimuli_target_trianglecircles.svg	29	yes	53	1	421
6.6.1	mac	2022-12-25	17:38:38	17:48:18	579448	60fe204fae558bfeb83d0bcf	983203998	1	main_slash	11	advance_on_keypress_SLASH	88	stimuli_distractor_diamondtriangles.svg	stimuli_target_trianglecircles.svg	29	yes	57	0	383
6.6.1	mac	2022-12-25	17:38:38	17:48:20	581062	60fe204fae558bfeb83d0bcf	983203998	1	main_slash	11	main_slash	89	stimuli_distractor_diamondtriangles.svg	stimuli_target_diamondsquares.svg	32	yes	53	1	590
6.6.1	mac	2022-12-25	17:38:38	17:48:20	581062	60fe204fae558bfeb83d0bcf	983203998	1	main_slash	11	advance_on_keypress_SLASH	90	stimuli_distractor_diamondtriangles.svg	stimuli_target_diamondsquares.svg	32	yes	57	0	507
6.6.1	mac	2022-12-25	17:38:38	17:48:21	582677	60fe204fae558bfeb83d0bcf	983203998	1	main_slash	11	main_slash	91	stimuli_target_diamondcircles.svg	stimuli_distractor_diamondtriangles.svg	23	yes	53	1	475
6.6.1	mac	2022-12-25	17:38:38	17:48:21	582677	60fe204fae558bfeb83d0bcf	983203998	1	main_slash	11	advance_on_keypress_SLASH	92	stimuli_target_diamondcircles.svg	stimuli_distractor_diamondtriangles.svg	23	yes	57	0	422
6.6.1	mac	2022-12-25	17:38:38	17:48:23	584148	60fe204fae558bfeb83d0bcf	983203998	1	main_slash	11	main_slash	93	stimuli_distractor_trianglediamonds.svg	stimuli_target_diamondcircles.svg	27	yes	53	1	412
6.6.1	mac	2022-12-25	17:38:38	17:48:23	584148	60fe204fae558bfeb83d0bcf	983203998	1	main_slash	11	advance_on_keypress_SLASH	94	stimuli_distractor_trianglediamonds.svg	stimuli_target_diamondcircles.svg	27	yes	57	0	406
6.6.1	mac	2022-12-25	17:38:38	17:48:24	585560	60fe204fae558bfeb83d0bcf	983203998	1	main_slash	11	main_slash	95	stimuli_distractor_trianglediamonds.svg	stimuli_target_trianglecircles.svg	25	yes	53	1	377
6.6.1	mac	2022-12-25	17:38:38	17:48:24	585560	60fe204fae558bfeb83d0bcf	983203998	1	main_slash	11	advance_on_keypress_SLASH	96	stimuli_distractor_trianglediamonds.svg	stimuli_target_trianglecircles.svg	25	yes	57	0	406
6.6.1	mac	2022-12-25	17:38:38	17:48:27	588593	60fe204fae558bfeb83d0bcf	983203998	1	main_slash	11	main_slash	97	stimuli_distractor_diamondtriangles.svg	stimuli_distractor_diamondtriangles.svg	39	no	0	1	2000
6.6.1	mac	2022-12-25	17:38:38	17:48:27	588593	60fe204fae558bfeb83d0bcf	983203998	1	main_slash	11	advance_on_keypress_SLASH	98	stimuli_distractor_diamondtriangles.svg	stimuli_distractor_diamondtriangles.svg	39	no	57	0	669
6.6.1	mac	2022-12-25	17:38:38	17:48:31	591893	60fe204fae558bfeb83d0bcf	983203998	1	main_slash	11	main_slash	99	stimuli_distractor_trianglediamonds.svg	stimuli_distractor_trianglediamonds.svg	34	no	0	1	2000
6.6.1	mac	2022-12-25	17:38:38	17:48:31	591893	60fe204fae558bfeb83d0bcf	983203998	1	main_slash	11	advance_on_keypress_SLASH	100	stimuli_distractor_trianglediamonds.svg	stimuli_distractor_trianglediamonds.svg	34	no	57	0	435
6.6.1	mac	2022-12-25	17:38:38	17:48:32	593453	60fe204fae558bfeb83d0bcf	983203998	1	main_slash	11	main_slash	101	stimuli_target_squaretriangles.svg	stimuli_distractor_trianglediamonds.svg	3	yes	53	1	495
6.6.1	mac	2022-12-25	17:38:38	17:48:32	593453	60fe204fae558bfeb83d0bcf	983203998	1	main_slash	11	advance_on_keypress_SLASH	102	stimuli_target_squaretriangles.svg	stimuli_distractor_trianglediamonds.svg	3	yes	57	0	693
6.6.1	mac	2022-12-25	17:38:38	17:48:34	595154	60fe204fae558bfeb83d0bcf	983203998	1	main_slash	11	main_slash	103	stimuli_distractor_diamondtriangles.svg	stimuli_target_circlediamonds.svg	14	yes	53	1	375
6.6.1	mac	2022-12-25	17:38:38	17:48:34	595154	60fe204fae558bfeb83d0bcf	983203998	1	main_slash	11	advance_on_keypress_SLASH	104	stimuli_distractor_diamondtriangles.svg	stimuli_target_circlediamonds.svg	14	yes	57	0	409
6.6.1	mac	2022-12-25	17:38:38	17:48:35	596671	60fe204fae558bfeb83d0bcf	983203998	1	main_slash	11	main_slash	105	stimuli_target_trianglecircles.svg	stimuli_distractor_diamondtriangles.svg	21	yes	53	1	481
6.6.1	mac	2022-12-25	17:38:38	17:48:35	596671	60fe204fae558bfeb83d0bcf	983203998	1	main_slash	11	advance_on_keypress_SLASH	106	stimuli_target_trianglecircles.svg	stimuli_distractor_diamondtriangles.svg	21	yes	57	0	455
6.6.1	mac	2022-12-25	17:38:38	17:48:37	598100	60fe204fae558bfeb83d0bcf	983203998	1	main_slash	11	main_slash	107	stimuli_distractor_trianglediamonds.svg	stimuli_target_circlediamonds.svg	10	yes	53	1	347
6.6.1	mac	2022-12-25	17:38:38	17:48:37	598100	60fe204fae558bfeb83d0bcf	983203998	1	main_slash	11	advance_on_keypress_SLASH	108	stimuli_distractor_trianglediamonds.svg	stimuli_target_circlediamonds.svg	10	yes	57	0	371
6.6.1	mac	2022-12-25	17:38:38	17:48:38	599507	60fe204fae558bfeb83d0bcf	983203998	1	main_slash	11	main_slash	109	stimuli_target_diamondsquares.svg	stimuli_distractor_trianglediamonds.svg	20	yes	53	1	408
6.6.1	mac	2022-12-25	17:38:38	17:48:38	599507	60fe204fae558bfeb83d0bcf	983203998	1	main_slash	11	advance_on_keypress_SLASH	110	stimuli_target_diamondsquares.svg	stimuli_distractor_trianglediamonds.svg	20	yes	57	0	333
6.6.1	mac	2022-12-25	17:38:38	17:48:40	600934	60fe204fae558bfeb83d0bcf	983203998	1	main_slash	11	main_slash	111	stimuli_distractor_trianglediamonds.svg	stimuli_target_trianglesquares.svg	26	yes	53	1	458
6.6.1	mac	2022-12-25	17:38:38	17:48:40	600934	60fe204fae558bfeb83d0bcf	983203998	1	main_slash	11	advance_on_keypress_SLASH	112	stimuli_distractor_trianglediamonds.svg	stimuli_target_trianglesquares.svg	26	yes	57	0	465
6.6.1	mac	2022-12-25	17:38:38	17:48:41	602286	60fe204fae558bfeb83d0bcf	983203998	1	main_slash	11	main_slash	113	stimuli_distractor_diamondtriangles.svg	stimuli_target_circletriangles.svg	13	yes	53	1	264
6.6.1	mac	2022-12-25	17:38:38	17:48:41	602286	60fe204fae558bfeb83d0bcf	983203998	1	main_slash	11	advance_on_keypress_SLASH	114	stimuli_distractor_diamondtriangles.svg	stimuli_target_circletriangles.svg	13	yes	57	0	507
6.6.1	mac	2022-12-25	17:38:38	17:48:42	603719	60fe204fae558bfeb83d0bcf	983203998	1	main_slash	11	main_slash	115	stimuli_target_circletriangles.svg	stimuli_distractor_diamondtriangles.svg	5	yes	53	1	299
6.6.1	mac	2022-12-25	17:38:38	17:48:42	603719	60fe204fae558bfeb83d0bcf	983203998	1	main_slash	11	advance_on_keypress_SLASH	116	stimuli_target_circletriangles.svg	stimuli_distractor_diamondtriangles.svg	5	yes	57	0	399
6.6.1	mac	2022-12-25	17:38:38	17:48:46	606745	60fe204fae558bfeb83d0bcf	983203998	1	main_slash	11	main_slash	117	stimuli_distractor_trianglediamonds.svg	stimuli_distractor_diamondtriangles.svg	35	no	0	1	2000
6.6.1	mac	2022-12-25	17:38:38	17:48:46	606745	60fe204fae558bfeb83d0bcf	983203998	1	main_slash	11	advance_on_keypress_SLASH	118	stimuli_distractor_trianglediamonds.svg	stimuli_distractor_diamondtriangles.svg	35	no	57	0	1504
6.6.1	mac	2022-12-25	17:38:38	17:48:48	609309	60fe204fae558bfeb83d0bcf	983203998	1	main_slash	11	main_slash	119	stimuli_distractor_diamondtriangles.svg	stimuli_target_diamondcircles.svg	31	yes	53	1	435
6.6.1	mac	2022-12-25	17:38:38	17:48:48	609309	60fe204fae558bfeb83d0bcf	983203998	1	main_slash	11	advance_on_keypress_SLASH	120	stimuli_distractor_diamondtriangles.svg	stimuli_target_diamondcircles.svg	31	yes	57	0	486
6.6.1	mac	2022-12-25	17:38:38	17:48:50	610803	60fe204fae558bfeb83d0bcf	983203998	1	main_slash	11	main_slash	121	stimuli_distractor_trianglediamonds.svg	stimuli_target_squaretriangles.svg	11	yes	53	1	373
6.6.1	mac	2022-12-25	17:38:38	17:48:50	610803	60fe204fae558bfeb83d0bcf	983203998	1	main_slash	11	advance_on_keypress_SLASH	122	stimuli_distractor_trianglediamonds.svg	stimuli_target_squaretriangles.svg	11	yes	57	0	398
6.6.1	mac	2022-12-25	17:38:38	17:48:51	612268	60fe204fae558bfeb83d0bcf	983203998	1	main_slash	11	main_slash	123	stimuli_target_trianglesquares.svg	stimuli_distractor_diamondtriangles.svg	22	yes	53	1	424
6.6.1	mac	2022-12-25	17:38:38	17:48:51	612268	60fe204fae558bfeb83d0bcf	983203998	1	main_slash	11	advance_on_keypress_SLASH	124	stimuli_target_trianglesquares.svg	stimuli_distractor_diamondtriangles.svg	22	yes	57	0	331
6.6.1	mac	2022-12-25	17:38:38	17:48:52	613552	60fe204fae558bfeb83d0bcf	983203998	1	main_slash	11	main_slash	125	stimuli_target_trianglesquares.svg	stimuli_distractor_trianglediamonds.svg	18	yes	53	1	314
6.6.1	mac	2022-12-25	17:38:38	17:48:52	613552	60fe204fae558bfeb83d0bcf	983203998	1	main_slash	11	advance_on_keypress_SLASH	126	stimuli_target_trianglesquares.svg	stimuli_distractor_trianglediamonds.svg	18	yes	57	0	324
6.6.1	mac	2022-12-25	17:38:38	17:48:54	614768	60fe204fae558bfeb83d0bcf	983203998	1	main_slash	11	main_slash	127	stimuli_target_circletriangles.svg	stimuli_distractor_trianglediamonds.svg	1	yes	53	1	270
6.6.1	mac	2022-12-25	17:38:38	17:48:54	614768	60fe204fae558bfeb83d0bcf	983203998	1	main_slash	11	advance_on_keypress_SLASH	128	stimuli_target_circletriangles.svg	stimuli_distractor_trianglediamonds.svg	1	yes	57	0	325
6.6.1	mac	2022-12-25	17:38:38	17:48:55	616222	60fe204fae558bfeb83d0bcf	983203998	1	main_slash	11	main_slash	129	stimuli_target_trianglecircles.svg	stimuli_distractor_trianglediamonds.svg	17	yes	53	1	495
6.6.1	mac	2022-12-25	17:38:38	17:48:55	616222	60fe204fae558bfeb83d0bcf	983203998	1	main_slash	11	advance_on_keypress_SLASH	130	stimuli_target_trianglecircles.svg	stimuli_distractor_trianglediamonds.svg	17	yes	57	0	381
6.6.1	mac	2022-12-25	17:38:38	17:48:56	617518	60fe204fae558bfeb83d0bcf	983203998	1	main_slash	11	main_slash	131	stimuli_distractor_diamondtriangles.svg	stimuli_target_trianglesquares.svg	30	yes	53	1	278
6.6.1	mac	2022-12-25	17:38:38	17:48:56	617518	60fe204fae558bfeb83d0bcf	983203998	1	main_slash	11	advance_on_keypress_SLASH	132	stimuli_distractor_diamondtriangles.svg	stimuli_target_trianglesquares.svg	30	yes	57	0	344
6.6.1	mac	2022-12-25	17:38:38	17:48:58	618874	60fe204fae558bfeb83d0bcf	983203998	1	main_slash	11	main_slash	133	stimuli_target_circlediamonds.svg	stimuli_distractor_diamondtriangles.svg	6	yes	53	1	372
6.6.1	mac	2022-12-25	17:38:38	17:48:58	618874	60fe204fae558bfeb83d0bcf	983203998	1	main_slash	11	advance_on_keypress_SLASH	134	stimuli_target_circlediamonds.svg	stimuli_distractor_diamondtriangles.svg	6	yes	57	0	366
6.6.1	mac	2022-12-25	17:38:38	17:48:59	620144	60fe204fae558bfeb83d0bcf	983203998	1	main_slash	11	main_slash	135	stimuli_distractor_trianglediamonds.svg	stimuli_target_diamondsquares.svg	28	yes	53	1	262
6.6.1	mac	2022-12-25	17:38:38	17:48:59	620144	60fe204fae558bfeb83d0bcf	983203998	1	main_slash	11	advance_on_keypress_SLASH	136	stimuli_distractor_trianglediamonds.svg	stimuli_target_diamondsquares.svg	28	yes	57	0	781
6.6.1	mac	2022-12-25	17:38:38	17:49:01	621860	60fe204fae558bfeb83d0bcf	983203998	1	main_slash	11	main_slash	137	stimuli_target_squaretriangles.svg	stimuli_distractor_diamondtriangles.svg	7	yes	53	1	314
6.6.1	mac	2022-12-25	17:38:38	17:49:01	621860	60fe204fae558bfeb83d0bcf	983203998	1	main_slash	11	advance_on_keypress_SLASH	138	stimuli_target_squaretriangles.svg	stimuli_distractor_diamondtriangles.svg	7	yes	57	0	348
6.6.1	mac	2022-12-25	17:38:38	17:49:04	624838	60fe204fae558bfeb83d0bcf	983203998	1	main_slash	11	main_slash	139	stimuli_distractor_diamondtriangles.svg	stimuli_distractor_diamondtriangles.svg	40	no	0	1	2000
6.6.1	mac	2022-12-25	17:38:38	17:49:04	624838	60fe204fae558bfeb83d0bcf	983203998	1	main_slash	11	advance_on_keypress_SLASH	140	stimuli_distractor_diamondtriangles.svg	stimuli_distractor_diamondtriangles.svg	40	no	57	0	399
6.6.1	mac	2022-12-25	17:38:38	17:49:05	626315	60fe204fae558bfeb83d0bcf	983203998	1	main_slash	11	main_slash	141	stimuli_distractor_diamondtriangles.svg	stimuli_target_squaretriangles.svg	15	yes	53	1	460
6.6.1	mac	2022-12-25	17:38:38	17:49:05	626315	60fe204fae558bfeb83d0bcf	983203998	1	main_slash	11	advance_on_keypress_SLASH	142	stimuli_distractor_diamondtriangles.svg	stimuli_target_squaretriangles.svg	15	yes	57	0	287
6.6.1	mac	2022-12-25	17:38:38	17:49:06	627640	60fe204fae558bfeb83d0bcf	983203998	1	main_slash	11	main_slash	143	stimuli_distractor_trianglediamonds.svg	stimuli_target_squarediamonds.svg	12	yes	53	1	405
6.6.1	mac	2022-12-25	17:38:38	17:49:06	627640	60fe204fae558bfeb83d0bcf	983203998	1	main_slash	11	advance_on_keypress_SLASH	144	stimuli_distractor_trianglediamonds.svg	stimuli_target_squarediamonds.svg	12	yes	57	0	313
6.6.1	mac	2022-12-25	17:38:38	17:49:08	629069	60fe204fae558bfeb83d0bcf	983203998	1	main_slash	11	main_slash	145	stimuli_target_circlediamonds.svg	stimuli_distractor_trianglediamonds.svg	2	yes	53	1	488
6.6.1	mac	2022-12-25	17:38:38	17:49:08	629069	60fe204fae558bfeb83d0bcf	983203998	1	main_slash	11	advance_on_keypress_SLASH	146	stimuli_target_circlediamonds.svg	stimuli_distractor_trianglediamonds.svg	2	yes	57	0	433
6.6.1	mac	2022-12-25	17:38:38	17:49:09	630505	60fe204fae558bfeb83d0bcf	983203998	1	main_slash	11	main_slash	147	stimuli_target_squarediamonds.svg	stimuli_distractor_trianglediamonds.svg	4	yes	53	1	377
6.6.1	mac	2022-12-25	17:38:38	17:49:09	630505	60fe204fae558bfeb83d0bcf	983203998	1	main_slash	11	advance_on_keypress_SLASH	148	stimuli_target_squarediamonds.svg	stimuli_distractor_trianglediamonds.svg	4	yes	57	0	242
6.6.1	mac	2022-12-25	17:38:38	17:49:12	633388	60fe204fae558bfeb83d0bcf	983203998	1	main_slash	11	main_slash	149	stimuli_distractor_diamondtriangles.svg	stimuli_distractor_trianglediamonds.svg	37	no	0	1	2000
6.6.1	mac	2022-12-25	17:38:38	17:49:12	633388	60fe204fae558bfeb83d0bcf	983203998	1	main_slash	11	advance_on_keypress_SLASH	150	stimuli_distractor_diamondtriangles.svg	stimuli_distractor_trianglediamonds.svg	37	no	57	0	1909
6.6.1	mac	2022-12-25	17:38:38	17:49:17	637921	60fe204fae558bfeb83d0bcf	983203998	1	main_slash	11	main_slash	151	stimuli_distractor_trianglediamonds.svg	stimuli_distractor_trianglediamonds.svg	33	no	0	1	2000
6.6.1	mac	2022-12-25	17:38:38	17:49:17	637921	60fe204fae558bfeb83d0bcf	983203998	1	main_slash	11	advance_on_keypress_SLASH	152	stimuli_distractor_trianglediamonds.svg	stimuli_distractor_trianglediamonds.svg	33	no	57	0	497
6.6.1	mac	2022-12-25	17:38:38	17:49:20	641056	60fe204fae558bfeb83d0bcf	983203998	1	main_slash	11	main_slash	153	stimuli_distractor_trianglediamonds.svg	stimuli_distractor_diamondtriangles.svg	36	no	0	1	2000
6.6.1	mac	2022-12-25	17:38:38	17:49:20	641056	60fe204fae558bfeb83d0bcf	983203998	1	main_slash	11	advance_on_keypress_SLASH	154	stimuli_distractor_trianglediamonds.svg	stimuli_distractor_diamondtriangles.svg	36	no	57	0	328
6.6.1	mac	2022-12-25	17:38:38	17:49:23	644004	60fe204fae558bfeb83d0bcf	983203998	1	main_slash	11	main_slash	155	stimuli_distractor_diamondtriangles.svg	stimuli_distractor_trianglediamonds.svg	38	no	0	1	2000
6.6.1	mac	2022-12-25	17:38:38	17:49:23	644004	60fe204fae558bfeb83d0bcf	983203998	1	main_slash	11	advance_on_keypress_SLASH	156	stimuli_distractor_diamondtriangles.svg	stimuli_distractor_trianglediamonds.svg	38	no	57	0	305
6.6.1	mac	2022-12-25	17:38:38	17:49:24	645542	60fe204fae558bfeb83d0bcf	983203998	1	main_slash	11	main_slash	157	stimuli_distractor_trianglediamonds.svg	stimuli_target_circletriangles.svg	9	yes	53	1	600
6.6.1	mac	2022-12-25	17:38:38	17:49:24	645542	60fe204fae558bfeb83d0bcf	983203998	1	main_slash	11	advance_on_keypress_SLASH	158	stimuli_distractor_trianglediamonds.svg	stimuli_target_circletriangles.svg	9	yes	57	0	587
6.6.1	mac	2022-12-25	17:38:38	17:49:26	647229	60fe204fae558bfeb83d0bcf	983203998	1	main_slash	11	main_slash	159	stimuli_target_diamondsquares.svg	stimuli_distractor_diamondtriangles.svg	24	yes	53	1	469
6.6.1	mac	2022-12-25	17:38:38	17:49:26	647229	60fe204fae558bfeb83d0bcf	983203998	1	main_slash	11	advance_on_keypress_SLASH	160	stimuli_target_diamondsquares.svg	stimuli_distractor_diamondtriangles.svg	24	yes	57	0	438