build	computer.platform	date	time	timestamp	time_elapsed_ms	subject	group	session	blockcode	blocknum	trialcode	trialnum	stimulus_left	stimulus_right	stim_index	target_present	response	correct	latency
6.6.1	mac	2022-12-23	17:55:44	17:59:27	221563	5ec6963cbd8f9609fa549c29	185538621	1	practice_slash	5	practice_slash	1	stimuli_distractor_trianglediamonds.svg	stimuli_target_circlediamonds.svg	10	yes	53	1	590
6.6.1	mac	2022-12-23	17:55:44	17:59:27	221563	5ec6963cbd8f9609fa549c29	185538621	1	practice_slash	5	advance_on_keypress_SLASH	2	stimuli_distractor_trianglediamonds.svg	stimuli_target_circlediamonds.svg	10	yes	57	0	1720
6.6.1	mac	2022-12-23	17:55:44	17:59:31	226051	5ec6963cbd8f9609fa549c29	185538621	1	practice_slash	5	practice_slash	3	stimuli_distractor_diamondtriangles.svg	stimuli_target_diamondcircles.svg	8	yes	53	1	1143
6.6.1	mac	2022-12-23	17:55:44	17:59:31	226051	5ec6963cbd8f9609fa549c29	185538621	1	practice_slash	5	advance_on_keypress_SLASH	4	stimuli_distractor_diamondtriangles.svg	stimuli_target_diamondcircles.svg	8	yes	57	0	659
6.6.1	mac	2022-12-23	17:55:44	17:59:34	229226	5ec6963cbd8f9609fa549c29	185538621	1	practice_slash	5	practice_slash	5	stimuli_target_squarediamonds.svg	stimuli_distractor_trianglediamonds.svg	5	yes	53	1	884
6.6.1	mac	2022-12-23	17:55:44	17:59:34	229226	5ec6963cbd8f9609fa549c29	185538621	1	practice_slash	5	advance_on_keypress_SLASH	6	stimuli_target_squarediamonds.svg	stimuli_distractor_trianglediamonds.svg	5	yes	57	0	506
6.6.1	mac	2022-12-23	17:55:44	17:59:37	232344	5ec6963cbd8f9609fa549c29	185538621	1	practice_slash	5	practice_slash	7	stimuli_target_circlediamonds.svg	stimuli_distractor_diamondtriangles.svg	1	yes	53	1	986
6.6.1	mac	2022-12-23	17:55:44	17:59:37	232344	5ec6963cbd8f9609fa549c29	185538621	1	practice_slash	5	advance_on_keypress_SLASH	8	stimuli_target_circlediamonds.svg	stimuli_distractor_diamondtriangles.svg	1	yes	57	0	691
6.6.1	mac	2022-12-23	17:55:44	17:59:42	236656	5ec6963cbd8f9609fa549c29	185538621	1	practice_slash	5	practice_slash	9	stimuli_distractor_diamondtriangles.svg	stimuli_distractor_diamondtriangles.svg	13	no	0	1	2000
6.6.1	mac	2022-12-23	17:55:44	17:59:42	236656	5ec6963cbd8f9609fa549c29	185538621	1	practice_slash	5	advance_on_keypress_SLASH	10	stimuli_distractor_diamondtriangles.svg	stimuli_distractor_diamondtriangles.svg	13	no	57	0	2997
6.6.1	mac	2022-12-23	17:55:44	17:59:48	243289	5ec6963cbd8f9609fa549c29	185538621	1	practice_slash	5	practice_slash	11	stimuli_distractor_trianglediamonds.svg	stimuli_distractor_diamondtriangles.svg	16	no	0	1	2000
6.6.1	mac	2022-12-23	17:55:44	17:59:48	243289	5ec6963cbd8f9609fa549c29	185538621	1	practice_slash	5	advance_on_keypress_SLASH	12	stimuli_distractor_trianglediamonds.svg	stimuli_distractor_diamondtriangles.svg	16	no	57	0	659
6.6.1	mac	2022-12-23	17:55:44	17:59:53	247573	5ec6963cbd8f9609fa549c29	185538621	1	practice_slash	5	practice_slash	13	stimuli_distractor_diamondtriangles.svg	stimuli_distractor_trianglediamonds.svg	14	no	0	1	2000
6.6.1	mac	2022-12-23	17:55:44	17:59:53	247573	5ec6963cbd8f9609fa549c29	185538621	1	practice_slash	5	advance_on_keypress_SLASH	14	stimuli_distractor_diamondtriangles.svg	stimuli_distractor_trianglediamonds.svg	14	no	57	0	1195
6.6.1	mac	2022-12-23	17:55:44	17:59:57	252406	5ec6963cbd8f9609fa549c29	185538621	1	practice_slash	5	practice_slash	15	stimuli_distractor_trianglediamonds.svg	stimuli_distractor_trianglediamonds.svg	15	no	0	1	2000
6.6.1	mac	2022-12-23	17:55:44	17:59:57	252406	5ec6963cbd8f9609fa549c29	185538621	1	practice_slash	5	advance_on_keypress_SLASH	16	stimuli_distractor_trianglediamonds.svg	stimuli_distractor_trianglediamonds.svg	15	no	57	0	680
6.6.1	mac	2022-12-23	17:55:44	18:00:01	255768	5ec6963cbd8f9609fa549c29	185538621	1	practice_slash	5	practice_slash	17	stimuli_distractor_trianglediamonds.svg	stimuli_target_squarediamonds.svg	11	yes	53	1	1043
6.6.1	mac	2022-12-23	17:55:44	18:00:01	255768	5ec6963cbd8f9609fa549c29	185538621	1	practice_slash	5	advance_on_keypress_SLASH	18	stimuli_distractor_trianglediamonds.svg	stimuli_target_squarediamonds.svg	11	yes	57	0	472
6.6.1	mac	2022-12-23	17:55:44	18:00:05	259872	5ec6963cbd8f9609fa549c29	185538621	1	practice_slash	5	practice_slash	19	stimuli_target_diamondsquares.svg	stimuli_distractor_trianglediamonds.svg	6	yes	0	0	2000
6.6.1	mac	2022-12-23	17:55:44	18:00:05	259872	5ec6963cbd8f9609fa549c29	185538621	1	practice_slash	5	advance_on_keypress_SLASH	20	stimuli_target_diamondsquares.svg	stimuli_distractor_trianglediamonds.svg	6	yes	57	0	838
6.6.1	mac	2022-12-23	17:55:44	18:00:08	263244	5ec6963cbd8f9609fa549c29	185538621	1	practice_slash	5	practice_slash	21	stimuli_distractor_trianglediamonds.svg	stimuli_target_diamondcircles.svg	12	yes	53	1	902
6.6.1	mac	2022-12-23	17:55:44	18:00:08	263244	5ec6963cbd8f9609fa549c29	185538621	1	practice_slash	5	advance_on_keypress_SLASH	22	stimuli_distractor_trianglediamonds.svg	stimuli_target_diamondcircles.svg	12	yes	57	0	534
6.6.1	mac	2022-12-23	17:55:44	18:00:11	266245	5ec6963cbd8f9609fa549c29	185538621	1	practice_slash	5	practice_slash	23	stimuli_distractor_diamondtriangles.svg	stimuli_target_trianglecircles.svg	9	yes	53	1	837
6.6.1	mac	2022-12-23	17:55:44	18:00:11	266245	5ec6963cbd8f9609fa549c29	185538621	1	practice_slash	5	advance_on_keypress_SLASH	24	stimuli_distractor_diamondtriangles.svg	stimuli_target_trianglecircles.svg	9	yes	57	0	449
6.6.1	mac	2022-12-23	17:55:44	18:00:14	269015	5ec6963cbd8f9609fa549c29	185538621	1	practice_slash	5	practice_slash	25	stimuli_target_circlediamonds.svg	stimuli_distractor_trianglediamonds.svg	4	yes	53	1	691
6.6.1	mac	2022-12-23	17:55:44	18:00:14	269015	5ec6963cbd8f9609fa549c29	185538621	1	practice_slash	5	advance_on_keypress_SLASH	26	stimuli_target_circlediamonds.svg	stimuli_distractor_trianglediamonds.svg	4	yes	57	0	495
6.6.1	mac	2022-12-23	17:55:44	18:00:17	272375	5ec6963cbd8f9609fa549c29	185538621	1	practice_slash	5	practice_slash	27	stimuli_target_diamondsquares.svg	stimuli_distractor_diamondtriangles.svg	3	yes	53	1	1233
6.6.1	mac	2022-12-23	17:55:44	18:00:17	272375	5ec6963cbd8f9609fa549c29	185538621	1	practice_slash	5	advance_on_keypress_SLASH	28	stimuli_target_diamondsquares.svg	stimuli_distractor_diamondtriangles.svg	3	yes	57	0	586
6.6.1	mac	2022-12-23	17:55:44	18:00:20	275275	5ec6963cbd8f9609fa549c29	185538621	1	practice_slash	5	practice_slash	29	stimuli_target_squarediamonds.svg	stimuli_distractor_diamondtriangles.svg	2	yes	53	1	685
6.6.1	mac	2022-12-23	17:55:44	18:00:20	275275	5ec6963cbd8f9609fa549c29	185538621	1	practice_slash	5	advance_on_keypress_SLASH	30	stimuli_target_squarediamonds.svg	stimuli_distractor_diamondtriangles.svg	2	yes	57	0	409
6.6.1	mac	2022-12-23	17:55:44	18:00:23	277950	5ec6963cbd8f9609fa549c29	185538621	1	practice_slash	5	practice_slash	31	stimuli_distractor_diamondtriangles.svg	stimuli_target_circletriangles.svg	7	yes	53	1	626
6.6.1	mac	2022-12-23	17:55:44	18:00:23	277950	5ec6963cbd8f9609fa549c29	185538621	1	practice_slash	5	advance_on_keypress_SLASH	32	stimuli_distractor_diamondtriangles.svg	stimuli_target_circletriangles.svg	7	yes	57	0	377
6.6.1	mac	2022-12-23	17:55:44	18:00:31	286209	5ec6963cbd8f9609fa549c29	185538621	1	main_slash	7	main_slash	1	stimuli_distractor_trianglediamonds.svg	stimuli_target_diamondcircles.svg	27	yes	53	1	520
6.6.1	mac	2022-12-23	17:55:44	18:00:31	286209	5ec6963cbd8f9609fa549c29	185538621	1	main_slash	7	advance_on_keypress_SLASH	2	stimuli_distractor_trianglediamonds.svg	stimuli_target_diamondcircles.svg	27	yes	57	0	995
6.6.1	mac	2022-12-23	17:55:44	18:00:34	288552	5ec6963cbd8f9609fa549c29	185538621	1	main_slash	7	main_slash	3	stimuli_distractor_trianglediamonds.svg	stimuli_target_squarediamonds.svg	12	yes	53	1	712
6.6.1	mac	2022-12-23	17:55:44	18:00:34	288552	5ec6963cbd8f9609fa549c29	185538621	1	main_slash	7	advance_on_keypress_SLASH	4	stimuli_distractor_trianglediamonds.svg	stimuli_target_squarediamonds.svg	12	yes	57	0	508
6.6.1	mac	2022-12-23	17:55:44	18:00:37	291689	5ec6963cbd8f9609fa549c29	185538621	1	main_slash	7	main_slash	5	stimuli_distractor_trianglediamonds.svg	stimuli_distractor_trianglediamonds.svg	34	no	0	1	2000
6.6.1	mac	2022-12-23	17:55:44	18:00:37	291689	5ec6963cbd8f9609fa549c29	185538621	1	main_slash	7	advance_on_keypress_SLASH	6	stimuli_distractor_trianglediamonds.svg	stimuli_distractor_trianglediamonds.svg	34	no	57	0	403
6.6.1	mac	2022-12-23	17:55:44	18:00:40	294722	5ec6963cbd8f9609fa549c29	185538621	1	main_slash	7	main_slash	7	stimuli_distractor_trianglediamonds.svg	stimuli_distractor_diamondtriangles.svg	36	no	0	1	2000
6.6.1	mac	2022-12-23	17:55:44	18:00:40	294722	5ec6963cbd8f9609fa549c29	185538621	1	main_slash	7	advance_on_keypress_SLASH	8	stimuli_distractor_trianglediamonds.svg	stimuli_distractor_diamondtriangles.svg	36	no	57	0	433
6.6.1	mac	2022-12-23	17:55:44	18:00:41	296504	5ec6963cbd8f9609fa549c29	185538621	1	main_slash	7	main_slash	9	stimuli_target_squarediamonds.svg	stimuli_distractor_diamondtriangles.svg	8	yes	53	1	714
6.6.1	mac	2022-12-23	17:55:44	18:00:41	296504	5ec6963cbd8f9609fa549c29	185538621	1	main_slash	7	advance_on_keypress_SLASH	10	stimuli_target_squarediamonds.svg	stimuli_distractor_diamondtriangles.svg	8	yes	57	0	1257
6.6.1	mac	2022-12-23	17:55:44	18:00:44	299197	5ec6963cbd8f9609fa549c29	185538621	1	main_slash	7	main_slash	11	stimuli_target_trianglecircles.svg	stimuli_distractor_diamondtriangles.svg	21	yes	53	1	807
6.6.1	mac	2022-12-23	17:55:44	18:00:44	299197	5ec6963cbd8f9609fa549c29	185538621	1	main_slash	7	advance_on_keypress_SLASH	12	stimuli_target_trianglecircles.svg	stimuli_distractor_diamondtriangles.svg	21	yes	57	0	915
6.6.1	mac	2022-12-23	17:55:44	18:00:47	301641	5ec6963cbd8f9609fa549c29	185538621	1	main_slash	7	main_slash	13	stimuli_target_trianglecircles.svg	stimuli_distractor_trianglediamonds.svg	17	yes	53	1	901
6.6.1	mac	2022-12-23	17:55:44	18:00:47	301641	5ec6963cbd8f9609fa549c29	185538621	1	main_slash	7	advance_on_keypress_SLASH	14	stimuli_target_trianglecircles.svg	stimuli_distractor_trianglediamonds.svg	17	yes	57	0	634
6.6.1	mac	2022-12-23	17:55:44	18:00:50	304904	5ec6963cbd8f9609fa549c29	185538621	1	main_slash	7	main_slash	15	stimuli_distractor_diamondtriangles.svg	stimuli_distractor_diamondtriangles.svg	39	no	0	1	2000
6.6.1	mac	2022-12-23	17:55:44	18:00:50	304904	5ec6963cbd8f9609fa549c29	185538621	1	main_slash	7	advance_on_keypress_SLASH	16	stimuli_distractor_diamondtriangles.svg	stimuli_distractor_diamondtriangles.svg	39	no	57	0	366
6.6.1	mac	2022-12-23	17:55:44	18:00:52	306750	5ec6963cbd8f9609fa549c29	185538621	1	main_slash	7	main_slash	17	stimuli_target_squaretriangles.svg	stimuli_distractor_trianglediamonds.svg	3	yes	53	1	842
6.6.1	mac	2022-12-23	17:55:44	18:00:52	306750	5ec6963cbd8f9609fa549c29	185538621	1	main_slash	7	advance_on_keypress_SLASH	18	stimuli_target_squaretriangles.svg	stimuli_distractor_trianglediamonds.svg	3	yes	57	0	618
6.6.1	mac	2022-12-23	17:55:44	18:00:54	308703	5ec6963cbd8f9609fa549c29	185538621	1	main_slash	7	main_slash	19	stimuli_distractor_diamondtriangles.svg	stimuli_target_diamondcircles.svg	31	yes	53	1	713
6.6.1	mac	2022-12-23	17:55:44	18:00:54	308703	5ec6963cbd8f9609fa549c29	185538621	1	main_slash	7	advance_on_keypress_SLASH	20	stimuli_distractor_diamondtriangles.svg	stimuli_target_diamondcircles.svg	31	yes	57	0	823
6.6.1	mac	2022-12-23	17:55:44	18:00:57	312155	5ec6963cbd8f9609fa549c29	185538621	1	main_slash	7	main_slash	21	stimuli_distractor_trianglediamonds.svg	stimuli_distractor_diamondtriangles.svg	35	no	0	1	2000
6.6.1	mac	2022-12-23	17:55:44	18:00:57	312155	5ec6963cbd8f9609fa549c29	185538621	1	main_slash	7	advance_on_keypress_SLASH	22	stimuli_distractor_trianglediamonds.svg	stimuli_distractor_diamondtriangles.svg	35	no	57	0	341
6.6.1	mac	2022-12-23	17:55:44	18:00:59	313858	5ec6963cbd8f9609fa549c29	185538621	1	main_slash	7	main_slash	23	stimuli_target_circletriangles.svg	stimuli_distractor_trianglediamonds.svg	1	yes	53	1	735
6.6.1	mac	2022-12-23	17:55:44	18:00:59	313858	5ec6963cbd8f9609fa549c29	185538621	1	main_slash	7	advance_on_keypress_SLASH	24	stimuli_target_circletriangles.svg	stimuli_distractor_trianglediamonds.svg	1	yes	57	0	893
6.6.1	mac	2022-12-23	17:55:44	18:01:01	316103	5ec6963cbd8f9609fa549c29	185538621	1	main_slash	7	main_slash	25	stimuli_target_diamondcircles.svg	stimuli_distractor_diamondtriangles.svg	23	yes	53	1	729
6.6.1	mac	2022-12-23	17:55:44	18:01:01	316103	5ec6963cbd8f9609fa549c29	185538621	1	main_slash	7	advance_on_keypress_SLASH	26	stimuli_target_diamondcircles.svg	stimuli_distractor_diamondtriangles.svg	23	yes	57	0	666
6.6.1	mac	2022-12-23	17:55:44	18:01:03	318253	5ec6963cbd8f9609fa549c29	185538621	1	main_slash	7	main_slash	27	stimuli_target_circletriangles.svg	stimuli_distractor_diamondtriangles.svg	5	yes	53	1	846
6.6.1	mac	2022-12-23	17:55:44	18:01:03	318253	5ec6963cbd8f9609fa549c29	185538621	1	main_slash	7	advance_on_keypress_SLASH	28	stimuli_target_circletriangles.svg	stimuli_distractor_diamondtriangles.svg	5	yes	57	0	330
6.6.1	mac	2022-12-23	17:55:44	18:01:06	321221	5ec6963cbd8f9609fa549c29	185538621	1	main_slash	7	main_slash	29	stimuli_distractor_trianglediamonds.svg	stimuli_target_diamondsquares.svg	28	yes	0	0	2000
6.6.1	mac	2022-12-23	17:55:44	18:01:06	321221	5ec6963cbd8f9609fa549c29	185538621	1	main_slash	7	advance_on_keypress_SLASH	30	stimuli_distractor_trianglediamonds.svg	stimuli_target_diamondsquares.svg	28	yes	57	0	317
6.6.1	mac	2022-12-23	17:55:44	18:01:09	324171	5ec6963cbd8f9609fa549c29	185538621	1	main_slash	7	main_slash	31	stimuli_distractor_diamondtriangles.svg	stimuli_distractor_trianglediamonds.svg	38	no	0	1	2000
6.6.1	mac	2022-12-23	17:55:44	18:01:09	324171	5ec6963cbd8f9609fa549c29	185538621	1	main_slash	7	advance_on_keypress_SLASH	32	stimuli_distractor_diamondtriangles.svg	stimuli_distractor_trianglediamonds.svg	38	no	57	0	568
6.6.1	mac	2022-12-23	17:55:44	18:01:11	326319	5ec6963cbd8f9609fa549c29	185538621	1	main_slash	7	main_slash	33	stimuli_distractor_trianglediamonds.svg	stimuli_target_circletriangles.svg	9	yes	53	1	946
6.6.1	mac	2022-12-23	17:55:44	18:01:11	326319	5ec6963cbd8f9609fa549c29	185538621	1	main_slash	7	advance_on_keypress_SLASH	34	stimuli_distractor_trianglediamonds.svg	stimuli_target_circletriangles.svg	9	yes	57	0	787
6.6.1	mac	2022-12-23	17:55:44	18:01:13	328464	5ec6963cbd8f9609fa549c29	185538621	1	main_slash	7	main_slash	35	stimuli_target_circlediamonds.svg	stimuli_distractor_trianglediamonds.svg	2	yes	53	1	724
6.6.1	mac	2022-12-23	17:55:44	18:01:13	328464	5ec6963cbd8f9609fa549c29	185538621	1	main_slash	7	advance_on_keypress_SLASH	36	stimuli_target_circlediamonds.svg	stimuli_distractor_trianglediamonds.svg	2	yes	57	0	528
6.6.1	mac	2022-12-23	17:55:44	18:01:17	331605	5ec6963cbd8f9609fa549c29	185538621	1	main_slash	7	main_slash	37	stimuli_distractor_diamondtriangles.svg	stimuli_distractor_trianglediamonds.svg	37	no	0	1	2000
6.6.1	mac	2022-12-23	17:55:44	18:01:17	331605	5ec6963cbd8f9609fa549c29	185538621	1	main_slash	7	advance_on_keypress_SLASH	38	stimuli_distractor_diamondtriangles.svg	stimuli_distractor_trianglediamonds.svg	37	no	57	0	2846
6.6.1	mac	2022-12-23	17:55:44	18:01:21	336095	5ec6963cbd8f9609fa549c29	185538621	1	main_slash	7	main_slash	39	stimuli_distractor_diamondtriangles.svg	stimuli_target_squaretriangles.svg	15	yes	53	1	1005
6.6.1	mac	2022-12-23	17:55:44	18:01:21	336095	5ec6963cbd8f9609fa549c29	185538621	1	main_slash	7	advance_on_keypress_SLASH	40	stimuli_distractor_diamondtriangles.svg	stimuli_target_squaretriangles.svg	15	yes	57	0	571
6.6.1	mac	2022-12-23	17:55:44	18:01:24	339288	5ec6963cbd8f9609fa549c29	185538621	1	main_slash	7	main_slash	41	stimuli_target_diamondsquares.svg	stimuli_distractor_trianglediamonds.svg	20	yes	0	0	2000
6.6.1	mac	2022-12-23	17:55:44	18:01:24	339288	5ec6963cbd8f9609fa549c29	185538621	1	main_slash	7	advance_on_keypress_SLASH	42	stimuli_target_diamondsquares.svg	stimuli_distractor_trianglediamonds.svg	20	yes	57	0	318
6.6.1	mac	2022-12-23	17:55:44	18:01:26	340944	5ec6963cbd8f9609fa549c29	185538621	1	main_slash	7	main_slash	43	stimuli_distractor_diamondtriangles.svg	stimuli_target_trianglecircles.svg	29	yes	53	1	703
6.6.1	mac	2022-12-23	17:55:44	18:01:26	340944	5ec6963cbd8f9609fa549c29	185538621	1	main_slash	7	advance_on_keypress_SLASH	44	stimuli_distractor_diamondtriangles.svg	stimuli_target_trianglecircles.svg	29	yes	57	0	834
6.6.1	mac	2022-12-23	17:55:44	18:01:29	344405	5ec6963cbd8f9609fa549c29	185538621	1	main_slash	7	main_slash	45	stimuli_target_trianglesquares.svg	stimuli_distractor_diamondtriangles.svg	22	yes	0	0	2000
6.6.1	mac	2022-12-23	17:55:44	18:01:29	344405	5ec6963cbd8f9609fa549c29	185538621	1	main_slash	7	advance_on_keypress_SLASH	46	stimuli_target_trianglesquares.svg	stimuli_distractor_diamondtriangles.svg	22	yes	57	0	1130
6.6.1	mac	2022-12-23	17:55:44	18:01:32	346932	5ec6963cbd8f9609fa549c29	185538621	1	main_slash	7	main_slash	47	stimuli_distractor_diamondtriangles.svg	stimuli_target_squarediamonds.svg	16	yes	53	1	759
6.6.1	mac	2022-12-23	17:55:44	18:01:32	346932	5ec6963cbd8f9609fa549c29	185538621	1	main_slash	7	advance_on_keypress_SLASH	48	stimuli_distractor_diamondtriangles.svg	stimuli_target_squarediamonds.svg	16	yes	57	0	719
6.6.1	mac	2022-12-23	17:55:44	18:01:34	349236	5ec6963cbd8f9609fa549c29	185538621	1	main_slash	7	main_slash	49	stimuli_distractor_trianglediamonds.svg	stimuli_target_trianglesquares.svg	26	yes	53	1	964
6.6.1	mac	2022-12-23	17:55:44	18:01:34	349236	5ec6963cbd8f9609fa549c29	185538621	1	main_slash	7	advance_on_keypress_SLASH	50	stimuli_distractor_trianglediamonds.svg	stimuli_target_trianglesquares.svg	26	yes	57	0	820
6.6.1	mac	2022-12-23	17:55:44	18:01:36	351457	5ec6963cbd8f9609fa549c29	185538621	1	main_slash	7	main_slash	51	stimuli_distractor_diamondtriangles.svg	stimuli_target_circletriangles.svg	13	yes	53	1	767
6.6.1	mac	2022-12-23	17:55:44	18:01:36	351457	5ec6963cbd8f9609fa549c29	185538621	1	main_slash	7	advance_on_keypress_SLASH	52	stimuli_distractor_diamondtriangles.svg	stimuli_target_circletriangles.svg	13	yes	57	0	726
6.6.1	mac	2022-12-23	17:55:44	18:01:40	354805	5ec6963cbd8f9609fa549c29	185538621	1	main_slash	7	main_slash	53	stimuli_distractor_diamondtriangles.svg	stimuli_distractor_diamondtriangles.svg	40	no	0	1	2000
6.6.1	mac	2022-12-23	17:55:44	18:01:40	354805	5ec6963cbd8f9609fa549c29	185538621	1	main_slash	7	advance_on_keypress_SLASH	54	stimuli_distractor_diamondtriangles.svg	stimuli_distractor_diamondtriangles.svg	40	no	57	0	650
6.6.1	mac	2022-12-23	17:55:44	18:01:42	356983	5ec6963cbd8f9609fa549c29	185538621	1	main_slash	7	main_slash	55	stimuli_distractor_diamondtriangles.svg	stimuli_target_diamondsquares.svg	32	yes	53	1	893
6.6.1	mac	2022-12-23	17:55:44	18:01:42	356983	5ec6963cbd8f9609fa549c29	185538621	1	main_slash	7	advance_on_keypress_SLASH	56	stimuli_distractor_diamondtriangles.svg	stimuli_target_diamondsquares.svg	32	yes	57	0	1306
6.6.1	mac	2022-12-23	17:55:44	18:01:45	359963	5ec6963cbd8f9609fa549c29	185538621	1	main_slash	7	main_slash	57	stimuli_target_diamondsquares.svg	stimuli_distractor_diamondtriangles.svg	24	yes	53	1	1056
6.6.1	mac	2022-12-23	17:55:44	18:01:45	359963	5ec6963cbd8f9609fa549c29	185538621	1	main_slash	7	advance_on_keypress_SLASH	58	stimuli_target_diamondsquares.svg	stimuli_distractor_diamondtriangles.svg	24	yes	57	0	539
6.6.1	mac	2022-12-23	17:55:44	18:01:47	361991	5ec6963cbd8f9609fa549c29	185538621	1	main_slash	7	main_slash	59	stimuli_distractor_diamondtriangles.svg	stimuli_target_trianglesquares.svg	30	yes	53	1	868
6.6.1	mac	2022-12-23	17:55:44	18:01:47	361991	5ec6963cbd8f9609fa549c29	185538621	1	main_slash	7	advance_on_keypress_SLASH	60	stimuli_distractor_diamondtriangles.svg	stimuli_target_trianglesquares.svg	30	yes	57	0	545
6.6.1	mac	2022-12-23	17:55:44	18:01:49	364115	5ec6963cbd8f9609fa549c29	185538621	1	main_slash	7	main_slash	61	stimuli_distractor_trianglediamonds.svg	stimuli_target_squaretriangles.svg	11	yes	53	1	942
6.6.1	mac	2022-12-23	17:55:44	18:01:49	364115	5ec6963cbd8f9609fa549c29	185538621	1	main_slash	7	advance_on_keypress_SLASH	62	stimuli_distractor_trianglediamonds.svg	stimuli_target_squaretriangles.svg	11	yes	57	0	524
6.6.1	mac	2022-12-23	17:55:44	18:01:51	366132	5ec6963cbd8f9609fa549c29	185538621	1	main_slash	7	main_slash	63	stimuli_distractor_diamondtriangles.svg	stimuli_target_circlediamonds.svg	14	yes	53	1	876
6.6.1	mac	2022-12-23	17:55:44	18:01:51	366132	5ec6963cbd8f9609fa549c29	185538621	1	main_slash	7	advance_on_keypress_SLASH	64	stimuli_distractor_diamondtriangles.svg	stimuli_target_circlediamonds.svg	14	yes	57	0	343
6.6.1	mac	2022-12-23	17:55:44	18:01:53	368014	5ec6963cbd8f9609fa549c29	185538621	1	main_slash	7	main_slash	65	stimuli_target_squarediamonds.svg	stimuli_distractor_trianglediamonds.svg	4	yes	53	1	923
6.6.1	mac	2022-12-23	17:55:44	18:01:53	368014	5ec6963cbd8f9609fa549c29	185538621	1	main_slash	7	advance_on_keypress_SLASH	66	stimuli_target_squarediamonds.svg	stimuli_distractor_trianglediamonds.svg	4	yes	57	0	379
6.6.1	mac	2022-12-23	17:55:44	18:01:55	370075	5ec6963cbd8f9609fa549c29	185538621	1	main_slash	7	main_slash	67	stimuli_target_circlediamonds.svg	stimuli_distractor_diamondtriangles.svg	6	yes	53	1	1052
6.6.1	mac	2022-12-23	17:55:44	18:01:55	370075	5ec6963cbd8f9609fa549c29	185538621	1	main_slash	7	advance_on_keypress_SLASH	68	stimuli_target_circlediamonds.svg	stimuli_distractor_diamondtriangles.svg	6	yes	57	0	479
6.6.1	mac	2022-12-23	17:55:44	18:01:58	373188	5ec6963cbd8f9609fa549c29	185538621	1	main_slash	7	main_slash	69	stimuli_target_diamondcircles.svg	stimuli_distractor_trianglediamonds.svg	19	yes	0	0	2000
6.6.1	mac	2022-12-23	17:55:44	18:01:58	373188	5ec6963cbd8f9609fa549c29	185538621	1	main_slash	7	advance_on_keypress_SLASH	70	stimuli_target_diamondcircles.svg	stimuli_distractor_trianglediamonds.svg	19	yes	57	0	407
6.6.1	mac	2022-12-23	17:55:44	18:02:00	375156	5ec6963cbd8f9609fa549c29	185538621	1	main_slash	7	main_slash	71	stimuli_target_trianglesquares.svg	stimuli_distractor_trianglediamonds.svg	18	yes	53	1	932
6.6.1	mac	2022-12-23	17:55:44	18:02:00	375156	5ec6963cbd8f9609fa549c29	185538621	1	main_slash	7	advance_on_keypress_SLASH	72	stimuli_target_trianglesquares.svg	stimuli_distractor_trianglediamonds.svg	18	yes	57	0	397
6.6.1	mac	2022-12-23	17:55:44	18:02:03	378189	5ec6963cbd8f9609fa549c29	185538621	1	main_slash	7	main_slash	73	stimuli_distractor_trianglediamonds.svg	stimuli_distractor_trianglediamonds.svg	33	no	0	1	2000
6.6.1	mac	2022-12-23	17:55:44	18:02:03	378189	5ec6963cbd8f9609fa549c29	185538621	1	main_slash	7	advance_on_keypress_SLASH	74	stimuli_distractor_trianglediamonds.svg	stimuli_distractor_trianglediamonds.svg	33	no	57	0	560
6.6.1	mac	2022-12-23	17:55:44	18:02:05	380091	5ec6963cbd8f9609fa549c29	185538621	1	main_slash	7	main_slash	75	stimuli_target_squaretriangles.svg	stimuli_distractor_diamondtriangles.svg	7	yes	53	1	701
6.6.1	mac	2022-12-23	17:55:44	18:02:05	380091	5ec6963cbd8f9609fa549c29	185538621	1	main_slash	7	advance_on_keypress_SLASH	76	stimuli_target_squaretriangles.svg	stimuli_distractor_diamondtriangles.svg	7	yes	57	0	564
6.6.1	mac	2022-12-23	17:55:44	18:02:07	381919	5ec6963cbd8f9609fa549c29	185538621	1	main_slash	7	main_slash	77	stimuli_distractor_trianglediamonds.svg	stimuli_target_circlediamonds.svg	10	yes	53	1	629
6.6.1	mac	2022-12-23	17:55:44	18:02:07	381919	5ec6963cbd8f9609fa549c29	185538621	1	main_slash	7	advance_on_keypress_SLASH	78	stimuli_distractor_trianglediamonds.svg	stimuli_target_circlediamonds.svg	10	yes	57	0	507
6.6.1	mac	2022-12-23	17:55:44	18:02:09	383976	5ec6963cbd8f9609fa549c29	185538621	1	main_slash	7	main_slash	79	stimuli_distractor_trianglediamonds.svg	stimuli_target_trianglecircles.svg	25	yes	53	1	919
6.6.1	mac	2022-12-23	17:55:44	18:02:09	383976	5ec6963cbd8f9609fa549c29	185538621	1	main_slash	7	advance_on_keypress_SLASH	80	stimuli_distractor_trianglediamonds.svg	stimuli_target_trianglecircles.svg	25	yes	57	0	516
6.6.1	mac	2022-12-23	17:55:44	18:02:11	385909	5ec6963cbd8f9609fa549c29	185538621	1	main_slash	7	main_slash	81	stimuli_distractor_diamondtriangles.svg	stimuli_target_squarediamonds.svg	16	yes	53	1	786
6.6.1	mac	2022-12-23	17:55:44	18:02:11	385909	5ec6963cbd8f9609fa549c29	185538621	1	main_slash	7	advance_on_keypress_SLASH	82	stimuli_distractor_diamondtriangles.svg	stimuli_target_squarediamonds.svg	16	yes	57	0	447
6.6.1	mac	2022-12-23	17:55:44	18:02:13	387806	5ec6963cbd8f9609fa549c29	185538621	1	main_slash	7	main_slash	83	stimuli_target_trianglecircles.svg	stimuli_distractor_trianglediamonds.svg	17	yes	53	1	816
6.6.1	mac	2022-12-23	17:55:44	18:02:13	387806	5ec6963cbd8f9609fa549c29	185538621	1	main_slash	7	advance_on_keypress_SLASH	84	stimuli_target_trianglecircles.svg	stimuli_distractor_trianglediamonds.svg	17	yes	57	0	469
6.6.1	mac	2022-12-23	17:55:44	18:02:15	389833	5ec6963cbd8f9609fa549c29	185538621	1	main_slash	7	main_slash	85	stimuli_target_trianglecircles.svg	stimuli_distractor_diamondtriangles.svg	21	yes	53	1	927
6.6.1	mac	2022-12-23	17:55:44	18:02:15	389833	5ec6963cbd8f9609fa549c29	185538621	1	main_slash	7	advance_on_keypress_SLASH	86	stimuli_target_trianglecircles.svg	stimuli_distractor_diamondtriangles.svg	21	yes	57	0	477
6.6.1	mac	2022-12-23	17:55:44	18:02:18	392939	5ec6963cbd8f9609fa549c29	185538621	1	main_slash	7	main_slash	87	stimuli_target_circlediamonds.svg	stimuli_distractor_trianglediamonds.svg	2	yes	0	0	2000
6.6.1	mac	2022-12-23	17:55:44	18:02:18	392939	5ec6963cbd8f9609fa549c29	185538621	1	main_slash	7	advance_on_keypress_SLASH	88	stimuli_target_circlediamonds.svg	stimuli_distractor_trianglediamonds.svg	2	yes	57	0	1796
6.6.1	mac	2022-12-23	17:55:44	18:02:21	396385	5ec6963cbd8f9609fa549c29	185538621	1	main_slash	7	main_slash	89	stimuli_target_squarediamonds.svg	stimuli_distractor_diamondtriangles.svg	8	yes	53	1	1011
6.6.1	mac	2022-12-23	17:55:44	18:02:21	396385	5ec6963cbd8f9609fa549c29	185538621	1	main_slash	7	advance_on_keypress_SLASH	90	stimuli_target_squarediamonds.svg	stimuli_distractor_diamondtriangles.svg	8	yes	57	0	694
6.6.1	mac	2022-12-23	17:55:44	18:02:24	398627	5ec6963cbd8f9609fa549c29	185538621	1	main_slash	7	main_slash	91	stimuli_target_trianglesquares.svg	stimuli_distractor_trianglediamonds.svg	18	yes	53	1	904
6.6.1	mac	2022-12-23	17:55:44	18:02:24	398627	5ec6963cbd8f9609fa549c29	185538621	1	main_slash	7	advance_on_keypress_SLASH	92	stimuli_target_trianglesquares.svg	stimuli_distractor_trianglediamonds.svg	18	yes	57	0	432
6.6.1	mac	2022-12-23	17:55:44	18:02:26	400669	5ec6963cbd8f9609fa549c29	185538621	1	main_slash	7	main_slash	93	stimuli_target_diamondsquares.svg	stimuli_distractor_diamondtriangles.svg	24	yes	53	1	979
6.6.1	mac	2022-12-23	17:55:44	18:02:26	400669	5ec6963cbd8f9609fa549c29	185538621	1	main_slash	7	advance_on_keypress_SLASH	94	stimuli_target_diamondsquares.svg	stimuli_distractor_diamondtriangles.svg	24	yes	57	0	395
6.6.1	mac	2022-12-23	17:55:44	18:02:28	402632	5ec6963cbd8f9609fa549c29	185538621	1	main_slash	7	main_slash	95	stimuli_target_squarediamonds.svg	stimuli_distractor_trianglediamonds.svg	4	yes	53	1	926
6.6.1	mac	2022-12-23	17:55:44	18:02:28	402632	5ec6963cbd8f9609fa549c29	185538621	1	main_slash	7	advance_on_keypress_SLASH	96	stimuli_target_squarediamonds.svg	stimuli_distractor_trianglediamonds.svg	4	yes	57	0	352
6.6.1	mac	2022-12-23	17:55:44	18:02:30	404942	5ec6963cbd8f9609fa549c29	185538621	1	main_slash	7	main_slash	97	stimuli_distractor_trianglediamonds.svg	stimuli_distractor_trianglediamonds.svg	34	no	53	0	1336
6.6.1	mac	2022-12-23	17:55:44	18:02:30	404942	5ec6963cbd8f9609fa549c29	185538621	1	main_slash	7	advance_on_keypress_SLASH	98	stimuli_distractor_trianglediamonds.svg	stimuli_distractor_trianglediamonds.svg	34	no	57	0	321
6.6.1	mac	2022-12-23	17:55:44	18:02:32	407169	5ec6963cbd8f9609fa549c29	185538621	1	main_slash	7	main_slash	99	stimuli_distractor_diamondtriangles.svg	stimuli_target_circlediamonds.svg	14	yes	53	1	1279
6.6.1	mac	2022-12-23	17:55:44	18:02:32	407169	5ec6963cbd8f9609fa549c29	185538621	1	main_slash	7	advance_on_keypress_SLASH	100	stimuli_distractor_diamondtriangles.svg	stimuli_target_circlediamonds.svg	14	yes	57	0	345
6.6.1	mac	2022-12-23	17:55:44	18:02:35	410156	5ec6963cbd8f9609fa549c29	185538621	1	main_slash	7	main_slash	101	stimuli_distractor_trianglediamonds.svg	stimuli_target_trianglesquares.svg	26	yes	0	0	2000
6.6.1	mac	2022-12-23	17:55:44	18:02:35	410156	5ec6963cbd8f9609fa549c29	185538621	1	main_slash	7	advance_on_keypress_SLASH	102	stimuli_distractor_trianglediamonds.svg	stimuli_target_trianglesquares.svg	26	yes	57	0	488
6.6.1	mac	2022-12-23	17:55:44	18:02:37	412256	5ec6963cbd8f9609fa549c29	185538621	1	main_slash	7	main_slash	103	stimuli_target_squaretriangles.svg	stimuli_distractor_trianglediamonds.svg	3	yes	53	1	984
6.6.1	mac	2022-12-23	17:55:44	18:02:37	412256	5ec6963cbd8f9609fa549c29	185538621	1	main_slash	7	advance_on_keypress_SLASH	104	stimuli_target_squaretriangles.svg	stimuli_distractor_trianglediamonds.svg	3	yes	57	0	262
6.6.1	mac	2022-12-23	17:55:44	18:02:39	413912	5ec6963cbd8f9609fa549c29	185538621	1	main_slash	7	main_slash	105	stimuli_distractor_trianglediamonds.svg	stimuli_target_squaretriangles.svg	11	yes	53	1	756
6.6.1	mac	2022-12-23	17:55:44	18:02:39	413912	5ec6963cbd8f9609fa549c29	185538621	1	main_slash	7	advance_on_keypress_SLASH	106	stimuli_distractor_trianglediamonds.svg	stimuli_target_squaretriangles.svg	11	yes	57	0	329
6.6.1	mac	2022-12-23	17:55:44	18:02:41	415849	5ec6963cbd8f9609fa549c29	185538621	1	main_slash	7	main_slash	107	stimuli_distractor_trianglediamonds.svg	stimuli_distractor_diamondtriangles.svg	36	no	53	0	976
6.6.1	mac	2022-12-23	17:55:44	18:02:41	415849	5ec6963cbd8f9609fa549c29	185538621	1	main_slash	7	advance_on_keypress_SLASH	108	stimuli_distractor_trianglediamonds.svg	stimuli_distractor_diamondtriangles.svg	36	no	57	0	326
6.6.1	mac	2022-12-23	17:55:44	18:02:44	418805	5ec6963cbd8f9609fa549c29	185538621	1	main_slash	7	main_slash	109	stimuli_distractor_trianglediamonds.svg	stimuli_distractor_diamondtriangles.svg	35	no	0	1	2000
6.6.1	mac	2022-12-23	17:55:44	18:02:44	418805	5ec6963cbd8f9609fa549c29	185538621	1	main_slash	7	advance_on_keypress_SLASH	110	stimuli_distractor_trianglediamonds.svg	stimuli_distractor_diamondtriangles.svg	35	no	57	0	747
6.6.1	mac	2022-12-23	17:55:44	18:02:46	421306	5ec6963cbd8f9609fa549c29	185538621	1	main_slash	7	main_slash	111	stimuli_distractor_trianglediamonds.svg	stimuli_target_squarediamonds.svg	12	yes	53	1	1115
6.6.1	mac	2022-12-23	17:55:44	18:02:46	421306	5ec6963cbd8f9609fa549c29	185538621	1	main_slash	7	advance_on_keypress_SLASH	112	stimuli_distractor_trianglediamonds.svg	stimuli_target_squarediamonds.svg	12	yes	57	0	300
6.6.1	mac	2022-12-23	17:55:44	18:02:48	422990	5ec6963cbd8f9609fa549c29	185538621	1	main_slash	7	main_slash	113	stimuli_target_circletriangles.svg	stimuli_distractor_trianglediamonds.svg	1	yes	53	1	749
6.6.1	mac	2022-12-23	17:55:44	18:02:48	422990	5ec6963cbd8f9609fa549c29	185538621	1	main_slash	7	advance_on_keypress_SLASH	114	stimuli_target_circletriangles.svg	stimuli_distractor_trianglediamonds.svg	1	yes	57	0	362
6.6.1	mac	2022-12-23	17:55:44	18:02:50	424581	5ec6963cbd8f9609fa549c29	185538621	1	main_slash	7	main_slash	115	stimuli_distractor_diamondtriangles.svg	stimuli_target_circletriangles.svg	13	yes	53	1	591
6.6.1	mac	2022-12-23	17:55:44	18:02:50	424581	5ec6963cbd8f9609fa549c29	185538621	1	main_slash	7	advance_on_keypress_SLASH	116	stimuli_distractor_diamondtriangles.svg	stimuli_target_circletriangles.svg	13	yes	57	0	374
6.6.1	mac	2022-12-23	17:55:44	18:02:51	426191	5ec6963cbd8f9609fa549c29	185538621	1	main_slash	7	main_slash	117	stimuli_distractor_trianglediamonds.svg	stimuli_target_circletriangles.svg	9	yes	53	1	618
6.6.1	mac	2022-12-23	17:55:44	18:02:51	426191	5ec6963cbd8f9609fa549c29	185538621	1	main_slash	7	advance_on_keypress_SLASH	118	stimuli_distractor_trianglediamonds.svg	stimuli_target_circletriangles.svg	9	yes	57	0	406
6.6.1	mac	2022-12-23	17:55:44	18:02:53	428152	5ec6963cbd8f9609fa549c29	185538621	1	main_slash	7	main_slash	119	stimuli_distractor_diamondtriangles.svg	stimuli_target_diamondsquares.svg	32	yes	53	1	928
6.6.1	mac	2022-12-23	17:55:44	18:02:53	428152	5ec6963cbd8f9609fa549c29	185538621	1	main_slash	7	advance_on_keypress_SLASH	120	stimuli_distractor_diamondtriangles.svg	stimuli_target_diamondsquares.svg	32	yes	57	0	276
6.6.1	mac	2022-12-23	17:55:44	18:02:55	430002	5ec6963cbd8f9609fa549c29	185538621	1	main_slash	7	main_slash	121	stimuli_target_diamondcircles.svg	stimuli_distractor_trianglediamonds.svg	19	yes	53	1	946
6.6.1	mac	2022-12-23	17:55:44	18:02:55	430002	5ec6963cbd8f9609fa549c29	185538621	1	main_slash	7	advance_on_keypress_SLASH	122	stimuli_target_diamondcircles.svg	stimuli_distractor_trianglediamonds.svg	19	yes	57	0	323
6.6.1	mac	2022-12-23	17:55:44	18:02:58	432955	5ec6963cbd8f9609fa549c29	185538621	1	main_slash	7	main_slash	123	stimuli_distractor_diamondtriangles.svg	stimuli_distractor_diamondtriangles.svg	40	no	0	1	2000
6.6.1	mac	2022-12-23	17:55:44	18:02:58	432955	5ec6963cbd8f9609fa549c29	185538621	1	main_slash	7	advance_on_keypress_SLASH	124	stimuli_distractor_diamondtriangles.svg	stimuli_distractor_diamondtriangles.svg	40	no	57	0	435
6.6.1	mac	2022-12-23	17:55:44	18:03:00	435033	5ec6963cbd8f9609fa549c29	185538621	1	main_slash	7	main_slash	125	stimuli_distractor_diamondtriangles.svg	stimuli_target_squaretriangles.svg	15	yes	53	1	1010
6.6.1	mac	2022-12-23	17:55:44	18:03:00	435033	5ec6963cbd8f9609fa549c29	185538621	1	main_slash	7	advance_on_keypress_SLASH	126	stimuli_distractor_diamondtriangles.svg	stimuli_target_squaretriangles.svg	15	yes	57	0	248
6.6.1	mac	2022-12-23	17:55:44	18:03:02	437065	5ec6963cbd8f9609fa549c29	185538621	1	main_slash	7	main_slash	127	stimuli_distractor_diamondtriangles.svg	stimuli_target_diamondcircles.svg	31	yes	53	1	1157
6.6.1	mac	2022-12-23	17:55:44	18:03:02	437065	5ec6963cbd8f9609fa549c29	185538621	1	main_slash	7	advance_on_keypress_SLASH	128	stimuli_distractor_diamondtriangles.svg	stimuli_target_diamondcircles.svg	31	yes	57	0	270
6.6.1	mac	2022-12-23	17:55:44	18:03:04	439206	5ec6963cbd8f9609fa549c29	185538621	1	main_slash	7	main_slash	129	stimuli_target_circlediamonds.svg	stimuli_distractor_diamondtriangles.svg	6	yes	53	1	1249
6.6.1	mac	2022-12-23	17:55:44	18:03:04	439206	5ec6963cbd8f9609fa549c29	185538621	1	main_slash	7	advance_on_keypress_SLASH	130	stimuli_target_circlediamonds.svg	stimuli_distractor_diamondtriangles.svg	6	yes	57	0	933
6.6.1	mac	2022-12-23	17:55:44	18:03:08	442772	5ec6963cbd8f9609fa549c29	185538621	1	main_slash	7	main_slash	131	stimuli_distractor_diamondtriangles.svg	stimuli_distractor_trianglediamonds.svg	37	no	0	1	2000
6.6.1	mac	2022-12-23	17:55:44	18:03:08	442772	5ec6963cbd8f9609fa549c29	185538621	1	main_slash	7	advance_on_keypress_SLASH	132	stimuli_distractor_diamondtriangles.svg	stimuli_distractor_trianglediamonds.svg	37	no	57	0	529
6.6.1	mac	2022-12-23	17:55:44	18:03:11	445938	5ec6963cbd8f9609fa549c29	185538621	1	main_slash	7	main_slash	133	stimuli_distractor_trianglediamonds.svg	stimuli_distractor_trianglediamonds.svg	33	no	0	1	2000
6.6.1	mac	2022-12-23	17:55:44	18:03:11	445938	5ec6963cbd8f9609fa549c29	185538621	1	main_slash	7	advance_on_keypress_SLASH	134	stimuli_distractor_trianglediamonds.svg	stimuli_distractor_trianglediamonds.svg	33	no	57	0	358
6.6.1	mac	2022-12-23	17:55:44	18:03:13	447883	5ec6963cbd8f9609fa549c29	185538621	1	main_slash	7	main_slash	135	stimuli_distractor_diamondtriangles.svg	stimuli_target_trianglesquares.svg	30	yes	53	1	960
6.6.1	mac	2022-12-23	17:55:44	18:03:13	447883	5ec6963cbd8f9609fa549c29	185538621	1	main_slash	7	advance_on_keypress_SLASH	136	stimuli_distractor_diamondtriangles.svg	stimuli_target_trianglesquares.svg	30	yes	57	0	426
6.6.1	mac	2022-12-23	17:55:44	18:03:15	449847	5ec6963cbd8f9609fa549c29	185538621	1	main_slash	7	main_slash	137	stimuli_target_trianglesquares.svg	stimuli_distractor_diamondtriangles.svg	22	yes	53	1	923
6.6.1	mac	2022-12-23	17:55:44	18:03:15	449847	5ec6963cbd8f9609fa549c29	185538621	1	main_slash	7	advance_on_keypress_SLASH	138	stimuli_target_trianglesquares.svg	stimuli_distractor_diamondtriangles.svg	22	yes	57	0	293
6.6.1	mac	2022-12-23	17:55:44	18:03:17	451680	5ec6963cbd8f9609fa549c29	185538621	1	main_slash	7	main_slash	139	stimuli_target_diamondcircles.svg	stimuli_distractor_diamondtriangles.svg	23	yes	53	1	923
6.6.1	mac	2022-12-23	17:55:44	18:03:17	451680	5ec6963cbd8f9609fa549c29	185538621	1	main_slash	7	advance_on_keypress_SLASH	140	stimuli_target_diamondcircles.svg	stimuli_distractor_diamondtriangles.svg	23	yes	57	0	382
6.6.1	mac	2022-12-23	17:55:44	18:03:19	453653	5ec6963cbd8f9609fa549c29	185538621	1	main_slash	7	main_slash	141	stimuli_distractor_trianglediamonds.svg	stimuli_target_trianglecircles.svg	25	yes	53	1	962
6.6.1	mac	2022-12-23	17:55:44	18:03:19	453653	5ec6963cbd8f9609fa549c29	185538621	1	main_slash	7	advance_on_keypress_SLASH	142	stimuli_distractor_trianglediamonds.svg	stimuli_target_trianglecircles.svg	25	yes	57	0	491
6.6.1	mac	2022-12-23	17:55:44	18:03:21	455798	5ec6963cbd8f9609fa549c29	185538621	1	main_slash	7	main_slash	143	stimuli_target_squaretriangles.svg	stimuli_distractor_diamondtriangles.svg	7	yes	53	1	1025
6.6.1	mac	2022-12-23	17:55:44	18:03:21	455798	5ec6963cbd8f9609fa549c29	185538621	1	main_slash	7	advance_on_keypress_SLASH	144	stimuli_target_squaretriangles.svg	stimuli_distractor_diamondtriangles.svg	7	yes	57	0	401
6.6.1	mac	2022-12-23	17:55:44	18:03:24	458822	5ec6963cbd8f9609fa549c29	185538621	1	main_slash	7	main_slash	145	stimuli_distractor_diamondtriangles.svg	stimuli_distractor_trianglediamonds.svg	38	no	0	1	2000
6.6.1	mac	2022-12-23	17:55:44	18:03:24	458822	5ec6963cbd8f9609fa549c29	185538621	1	main_slash	7	advance_on_keypress_SLASH	146	stimuli_distractor_diamondtriangles.svg	stimuli_distractor_trianglediamonds.svg	38	no	57	0	284
6.6.1	mac	2022-12-23	17:55:44	18:03:26	460723	5ec6963cbd8f9609fa549c29	185538621	1	main_slash	7	main_slash	147	stimuli_distractor_trianglediamonds.svg	stimuli_target_diamondsquares.svg	28	yes	53	1	983
6.6.1	mac	2022-12-23	17:55:44	18:03:26	460723	5ec6963cbd8f9609fa549c29	185538621	1	main_slash	7	advance_on_keypress_SLASH	148	stimuli_distractor_trianglediamonds.svg	stimuli_target_diamondsquares.svg	28	yes	57	0	279
6.6.1	mac	2022-12-23	17:55:44	18:03:28	462763	5ec6963cbd8f9609fa549c29	185538621	1	main_slash	7	main_slash	149	stimuli_distractor_trianglediamonds.svg	stimuli_target_circlediamonds.svg	10	yes	53	1	1123
6.6.1	mac	2022-12-23	17:55:44	18:03:28	462763	5ec6963cbd8f9609fa549c29	185538621	1	main_slash	7	advance_on_keypress_SLASH	150	stimuli_distractor_trianglediamonds.svg	stimuli_target_circlediamonds.svg	10	yes	57	0	336
6.6.1	mac	2022-12-23	17:55:44	18:03:31	465722	5ec6963cbd8f9609fa549c29	185538621	1	main_slash	7	main_slash	151	stimuli_target_diamondsquares.svg	stimuli_distractor_trianglediamonds.svg	20	yes	0	0	2000
6.6.1	mac	2022-12-23	17:55:44	18:03:31	465722	5ec6963cbd8f9609fa549c29	185538621	1	main_slash	7	advance_on_keypress_SLASH	152	stimuli_target_diamondsquares.svg	stimuli_distractor_trianglediamonds.svg	20	yes	57	0	713
6.6.1	mac	2022-12-23	17:55:44	18:03:33	468031	5ec6963cbd8f9609fa549c29	185538621	1	main_slash	7	main_slash	153	stimuli_distractor_trianglediamonds.svg	stimuli_target_diamondcircles.svg	27	yes	53	1	957
6.6.1	mac	2022-12-23	17:55:44	18:03:33	468031	5ec6963cbd8f9609fa549c29	185538621	1	main_slash	7	advance_on_keypress_SLASH	154	stimuli_distractor_trianglediamonds.svg	stimuli_target_diamondcircles.svg	27	yes	57	0	277
6.6.1	mac	2022-12-23	17:55:44	18:03:35	469965	5ec6963cbd8f9609fa549c29	185538621	1	main_slash	7	main_slash	155	stimuli_distractor_diamondtriangles.svg	stimuli_target_trianglecircles.svg	29	yes	53	1	1042
6.6.1	mac	2022-12-23	17:55:44	18:03:35	469965	5ec6963cbd8f9609fa549c29	185538621	1	main_slash	7	advance_on_keypress_SLASH	156	stimuli_distractor_diamondtriangles.svg	stimuli_target_trianglecircles.svg	29	yes	57	0	306
6.6.1	mac	2022-12-23	17:55:44	18:03:37	471683	5ec6963cbd8f9609fa549c29	185538621	1	main_slash	7	main_slash	157	stimuli_target_circletriangles.svg	stimuli_distractor_diamondtriangles.svg	5	yes	53	1	792
6.6.1	mac	2022-12-23	17:55:44	18:03:37	471683	5ec6963cbd8f9609fa549c29	185538621	1	main_slash	7	advance_on_keypress_SLASH	158	stimuli_target_circletriangles.svg	stimuli_distractor_diamondtriangles.svg	5	yes	57	0	475
6.6.1	mac	2022-12-23	17:55:44	18:03:40	474771	5ec6963cbd8f9609fa549c29	185538621	1	main_slash	7	main_slash	159	stimuli_distractor_diamondtriangles.svg	stimuli_distractor_diamondtriangles.svg	39	no	0	1	2000
6.6.1	mac	2022-12-23	17:55:44	18:03:40	474771	5ec6963cbd8f9609fa549c29	185538621	1	main_slash	7	advance_on_keypress_SLASH	160	stimuli_distractor_diamondtriangles.svg	stimuli_distractor_diamondtriangles.svg	39	no	57	0	696
6.6.1	mac	2022-12-23	17:55:44	18:04:02	497140	5ec6963cbd8f9609fa549c29	185538621	1	practice_z	9	practice_z	1	stimuli_distractor_trianglediamonds.svg	stimuli_distractor_diamondtriangles.svg	16	no	0	1	2000
6.6.1	mac	2022-12-23	17:55:44	18:04:02	497140	5ec6963cbd8f9609fa549c29	185538621	1	practice_z	9	advance_on_keypress_ZEE	2	stimuli_distractor_trianglediamonds.svg	stimuli_distractor_diamondtriangles.svg	16	no	57	0	603
6.6.1	mac	2022-12-23	17:55:44	18:04:05	500245	5ec6963cbd8f9609fa549c29	185538621	1	practice_z	9	practice_z	3	stimuli_distractor_trianglediamonds.svg	stimuli_target_squarediamonds.svg	11	yes	44	1	871
6.6.1	mac	2022-12-23	17:55:44	18:04:05	500245	5ec6963cbd8f9609fa549c29	185538621	1	practice_z	9	advance_on_keypress_ZEE	4	stimuli_distractor_trianglediamonds.svg	stimuli_target_squarediamonds.svg	11	yes	57	0	653
6.6.1	mac	2022-12-23	17:55:44	18:04:08	503237	5ec6963cbd8f9609fa549c29	185538621	1	practice_z	9	practice_z	5	stimuli_distractor_diamondtriangles.svg	stimuli_target_circletriangles.svg	7	yes	44	1	713
6.6.1	mac	2022-12-23	17:55:44	18:04:08	503237	5ec6963cbd8f9609fa549c29	185538621	1	practice_z	9	advance_on_keypress_ZEE	6	stimuli_distractor_diamondtriangles.svg	stimuli_target_circletriangles.svg	7	yes	57	0	411
6.6.1	mac	2022-12-23	17:55:44	18:04:11	506174	5ec6963cbd8f9609fa549c29	185538621	1	practice_z	9	practice_z	7	stimuli_distractor_diamondtriangles.svg	stimuli_target_diamondcircles.svg	8	yes	44	1	882
6.6.1	mac	2022-12-23	17:55:44	18:04:11	506174	5ec6963cbd8f9609fa549c29	185538621	1	practice_z	9	advance_on_keypress_ZEE	8	stimuli_distractor_diamondtriangles.svg	stimuli_target_diamondcircles.svg	8	yes	57	0	493
6.6.1	mac	2022-12-23	17:55:44	18:04:14	509089	5ec6963cbd8f9609fa549c29	185538621	1	practice_z	9	practice_z	9	stimuli_target_circlediamonds.svg	stimuli_distractor_trianglediamonds.svg	4	yes	44	1	782
6.6.1	mac	2022-12-23	17:55:44	18:04:14	509089	5ec6963cbd8f9609fa549c29	185538621	1	practice_z	9	advance_on_keypress_ZEE	10	stimuli_target_circlediamonds.svg	stimuli_distractor_trianglediamonds.svg	4	yes	57	0	373
6.6.1	mac	2022-12-23	17:55:44	18:04:17	511960	5ec6963cbd8f9609fa549c29	185538621	1	practice_z	9	practice_z	11	stimuli_target_squarediamonds.svg	stimuli_distractor_trianglediamonds.svg	5	yes	44	1	869
6.6.1	mac	2022-12-23	17:55:44	18:04:17	511960	5ec6963cbd8f9609fa549c29	185538621	1	practice_z	9	advance_on_keypress_ZEE	12	stimuli_target_squarediamonds.svg	stimuli_distractor_trianglediamonds.svg	5	yes	57	0	1131
6.6.1	mac	2022-12-23	17:55:44	18:04:22	516723	5ec6963cbd8f9609fa549c29	185538621	1	practice_z	9	practice_z	13	stimuli_target_diamondsquares.svg	stimuli_distractor_trianglediamonds.svg	6	yes	0	0	2000
6.6.1	mac	2022-12-23	17:55:44	18:04:22	516723	5ec6963cbd8f9609fa549c29	185538621	1	practice_z	9	advance_on_keypress_ZEE	14	stimuli_target_diamondsquares.svg	stimuli_distractor_trianglediamonds.svg	6	yes	57	0	612
6.6.1	mac	2022-12-23	17:55:44	18:04:25	519523	5ec6963cbd8f9609fa549c29	185538621	1	practice_z	9	practice_z	15	stimuli_distractor_diamondtriangles.svg	stimuli_target_trianglecircles.svg	9	yes	44	1	549
6.6.1	mac	2022-12-23	17:55:44	18:04:25	519523	5ec6963cbd8f9609fa549c29	185538621	1	practice_z	9	advance_on_keypress_ZEE	16	stimuli_distractor_diamondtriangles.svg	stimuli_target_trianglecircles.svg	9	yes	57	0	1433
6.6.1	mac	2022-12-23	17:55:44	18:04:29	523598	5ec6963cbd8f9609fa549c29	185538621	1	practice_z	9	practice_z	17	stimuli_distractor_trianglediamonds.svg	stimuli_target_diamondcircles.svg	12	yes	44	1	1006
6.6.1	mac	2022-12-23	17:55:44	18:04:29	523598	5ec6963cbd8f9609fa549c29	185538621	1	practice_z	9	advance_on_keypress_ZEE	18	stimuli_distractor_trianglediamonds.svg	stimuli_target_diamondcircles.svg	12	yes	57	0	1620
6.6.1	mac	2022-12-23	17:55:44	18:04:33	527602	5ec6963cbd8f9609fa549c29	185538621	1	practice_z	9	practice_z	19	stimuli_target_squarediamonds.svg	stimuli_distractor_diamondtriangles.svg	2	yes	44	1	762
6.6.1	mac	2022-12-23	17:55:44	18:04:33	527602	5ec6963cbd8f9609fa549c29	185538621	1	practice_z	9	advance_on_keypress_ZEE	20	stimuli_target_squarediamonds.svg	stimuli_distractor_diamondtriangles.svg	2	yes	57	0	627
6.6.1	mac	2022-12-23	17:55:44	18:04:37	531873	5ec6963cbd8f9609fa549c29	185538621	1	practice_z	9	practice_z	21	stimuli_distractor_diamondtriangles.svg	stimuli_distractor_trianglediamonds.svg	14	no	0	1	2000
6.6.1	mac	2022-12-23	17:55:44	18:04:37	531873	5ec6963cbd8f9609fa549c29	185538621	1	practice_z	9	advance_on_keypress_ZEE	22	stimuli_distractor_diamondtriangles.svg	stimuli_distractor_trianglediamonds.svg	14	no	57	0	427
6.6.1	mac	2022-12-23	17:55:44	18:04:41	535938	5ec6963cbd8f9609fa549c29	185538621	1	practice_z	9	practice_z	23	stimuli_distractor_trianglediamonds.svg	stimuli_distractor_trianglediamonds.svg	15	no	0	1	2000
6.6.1	mac	2022-12-23	17:55:44	18:04:41	535938	5ec6963cbd8f9609fa549c29	185538621	1	practice_z	9	advance_on_keypress_ZEE	24	stimuli_distractor_trianglediamonds.svg	stimuli_distractor_trianglediamonds.svg	15	no	57	0	1514
6.6.1	mac	2022-12-23	17:55:44	18:04:45	539729	5ec6963cbd8f9609fa549c29	185538621	1	practice_z	9	practice_z	25	stimuli_target_circlediamonds.svg	stimuli_distractor_diamondtriangles.svg	1	yes	44	1	639
6.6.1	mac	2022-12-23	17:55:44	18:04:45	539729	5ec6963cbd8f9609fa549c29	185538621	1	practice_z	9	advance_on_keypress_ZEE	26	stimuli_target_circlediamonds.svg	stimuli_distractor_diamondtriangles.svg	1	yes	57	0	967
6.6.1	mac	2022-12-23	17:55:44	18:04:49	544323	5ec6963cbd8f9609fa549c29	185538621	1	practice_z	9	practice_z	27	stimuli_distractor_trianglediamonds.svg	stimuli_target_circlediamonds.svg	10	yes	0	0	2000
6.6.1	mac	2022-12-23	17:55:44	18:04:49	544323	5ec6963cbd8f9609fa549c29	185538621	1	practice_z	9	advance_on_keypress_ZEE	28	stimuli_distractor_trianglediamonds.svg	stimuli_target_circlediamonds.svg	10	yes	57	0	554
6.6.1	mac	2022-12-23	17:55:44	18:04:52	547507	5ec6963cbd8f9609fa549c29	185538621	1	practice_z	9	practice_z	29	stimuli_target_diamondsquares.svg	stimuli_distractor_diamondtriangles.svg	3	yes	44	1	1000
6.6.1	mac	2022-12-23	17:55:44	18:04:52	547507	5ec6963cbd8f9609fa549c29	185538621	1	practice_z	9	advance_on_keypress_ZEE	30	stimuli_target_diamondsquares.svg	stimuli_distractor_diamondtriangles.svg	3	yes	57	0	1055
6.6.1	mac	2022-12-23	17:55:44	18:04:57	552189	5ec6963cbd8f9609fa549c29	185538621	1	practice_z	9	practice_z	31	stimuli_distractor_diamondtriangles.svg	stimuli_distractor_diamondtriangles.svg	13	no	0	1	2000
6.6.1	mac	2022-12-23	17:55:44	18:04:57	552189	5ec6963cbd8f9609fa549c29	185538621	1	practice_z	9	advance_on_keypress_ZEE	32	stimuli_distractor_diamondtriangles.svg	stimuli_distractor_diamondtriangles.svg	13	no	57	0	520
6.6.1	mac	2022-12-23	17:55:44	18:05:16	571332	5ec6963cbd8f9609fa549c29	185538621	1	main_z	11	main_z	1	stimuli_distractor_trianglediamonds.svg	stimuli_target_squarediamonds.svg	12	yes	44	1	925
6.6.1	mac	2022-12-23	17:55:44	18:05:16	571332	5ec6963cbd8f9609fa549c29	185538621	1	main_z	11	advance_on_keypress_ZEE	2	stimuli_distractor_trianglediamonds.svg	stimuli_target_squarediamonds.svg	12	yes	57	0	518
6.6.1	mac	2022-12-23	17:55:44	18:05:19	574472	5ec6963cbd8f9609fa549c29	185538621	1	main_z	11	main_z	3	stimuli_distractor_trianglediamonds.svg	stimuli_distractor_trianglediamonds.svg	34	no	0	1	2000
6.6.1	mac	2022-12-23	17:55:44	18:05:19	574472	5ec6963cbd8f9609fa549c29	185538621	1	main_z	11	advance_on_keypress_ZEE	4	stimuli_distractor_trianglediamonds.svg	stimuli_distractor_trianglediamonds.svg	34	no	57	0	384
6.6.1	mac	2022-12-23	17:55:44	18:05:22	577488	5ec6963cbd8f9609fa549c29	185538621	1	main_z	11	main_z	5	stimuli_distractor_trianglediamonds.svg	stimuli_distractor_trianglediamonds.svg	33	no	0	1	2000
6.6.1	mac	2022-12-23	17:55:44	18:05:22	577488	5ec6963cbd8f9609fa549c29	185538621	1	main_z	11	advance_on_keypress_ZEE	6	stimuli_distractor_trianglediamonds.svg	stimuli_distractor_trianglediamonds.svg	33	no	57	0	338
6.6.1	mac	2022-12-23	17:55:44	18:05:24	579371	5ec6963cbd8f9609fa549c29	185538621	1	main_z	11	main_z	7	stimuli_target_squaretriangles.svg	stimuli_distractor_diamondtriangles.svg	7	yes	44	1	915
6.6.1	mac	2022-12-23	17:55:44	18:05:24	579371	5ec6963cbd8f9609fa549c29	185538621	1	main_z	11	advance_on_keypress_ZEE	8	stimuli_target_squaretriangles.svg	stimuli_distractor_diamondtriangles.svg	7	yes	57	0	687
6.6.1	mac	2022-12-23	17:55:44	18:05:27	581699	5ec6963cbd8f9609fa549c29	185538621	1	main_z	11	main_z	9	stimuli_target_diamondsquares.svg	stimuli_distractor_trianglediamonds.svg	20	yes	44	1	1008
6.6.1	mac	2022-12-23	17:55:44	18:05:27	581699	5ec6963cbd8f9609fa549c29	185538621	1	main_z	11	advance_on_keypress_ZEE	10	stimuli_target_diamondsquares.svg	stimuli_distractor_trianglediamonds.svg	20	yes	57	0	589
6.6.1	mac	2022-12-23	17:55:44	18:05:29	583794	5ec6963cbd8f9609fa549c29	185538621	1	main_z	11	main_z	11	stimuli_distractor_trianglediamonds.svg	stimuli_target_circletriangles.svg	9	yes	44	1	887
6.6.1	mac	2022-12-23	17:55:44	18:05:29	583794	5ec6963cbd8f9609fa549c29	185538621	1	main_z	11	advance_on_keypress_ZEE	12	stimuli_distractor_trianglediamonds.svg	stimuli_target_circletriangles.svg	9	yes	57	0	442
6.6.1	mac	2022-12-23	17:55:44	18:05:31	585687	5ec6963cbd8f9609fa549c29	185538621	1	main_z	11	main_z	13	stimuli_target_squaretriangles.svg	stimuli_distractor_trianglediamonds.svg	3	yes	44	1	829
6.6.1	mac	2022-12-23	17:55:44	18:05:31	585687	5ec6963cbd8f9609fa549c29	185538621	1	main_z	11	advance_on_keypress_ZEE	14	stimuli_target_squaretriangles.svg	stimuli_distractor_trianglediamonds.svg	3	yes	57	0	383
6.6.1	mac	2022-12-23	17:55:44	18:05:34	588705	5ec6963cbd8f9609fa549c29	185538621	1	main_z	11	main_z	15	stimuli_distractor_trianglediamonds.svg	stimuli_distractor_diamondtriangles.svg	35	no	0	1	2000
6.6.1	mac	2022-12-23	17:55:44	18:05:34	588705	5ec6963cbd8f9609fa549c29	185538621	1	main_z	11	advance_on_keypress_ZEE	16	stimuli_distractor_trianglediamonds.svg	stimuli_distractor_diamondtriangles.svg	35	no	57	0	396
6.6.1	mac	2022-12-23	17:55:44	18:05:36	590596	5ec6963cbd8f9609fa549c29	185538621	1	main_z	11	main_z	17	stimuli_distractor_trianglediamonds.svg	stimuli_target_trianglecircles.svg	25	yes	44	1	856
6.6.1	mac	2022-12-23	17:55:44	18:05:36	590596	5ec6963cbd8f9609fa549c29	185538621	1	main_z	11	advance_on_keypress_ZEE	18	stimuli_distractor_trianglediamonds.svg	stimuli_target_trianglecircles.svg	25	yes	57	0	361
6.6.1	mac	2022-12-23	17:55:44	18:05:37	592323	5ec6963cbd8f9609fa549c29	185538621	1	main_z	11	main_z	19	stimuli_target_trianglecircles.svg	stimuli_distractor_trianglediamonds.svg	17	yes	44	1	733
6.6.1	mac	2022-12-23	17:55:44	18:05:37	592323	5ec6963cbd8f9609fa549c29	185538621	1	main_z	11	advance_on_keypress_ZEE	20	stimuli_target_trianglecircles.svg	stimuli_distractor_trianglediamonds.svg	17	yes	57	0	396
6.6.1	mac	2022-12-23	17:55:44	18:05:39	594179	5ec6963cbd8f9609fa549c29	185538621	1	main_z	11	main_z	21	stimuli_distractor_diamondtriangles.svg	stimuli_target_diamondcircles.svg	31	yes	44	1	822
6.6.1	mac	2022-12-23	17:55:44	18:05:39	594179	5ec6963cbd8f9609fa549c29	185538621	1	main_z	11	advance_on_keypress_ZEE	22	stimuli_distractor_diamondtriangles.svg	stimuli_target_diamondcircles.svg	31	yes	57	0	378
6.6.1	mac	2022-12-23	17:55:44	18:05:42	597193	5ec6963cbd8f9609fa549c29	185538621	1	main_z	11	main_z	23	stimuli_distractor_trianglediamonds.svg	stimuli_target_trianglesquares.svg	26	yes	0	0	2000
6.6.1	mac	2022-12-23	17:55:44	18:05:42	597193	5ec6963cbd8f9609fa549c29	185538621	1	main_z	11	advance_on_keypress_ZEE	24	stimuli_distractor_trianglediamonds.svg	stimuli_target_trianglesquares.svg	26	yes	57	0	961
6.6.1	mac	2022-12-23	17:55:44	18:05:45	599706	5ec6963cbd8f9609fa549c29	185538621	1	main_z	11	main_z	25	stimuli_distractor_trianglediamonds.svg	stimuli_target_diamondsquares.svg	28	yes	44	1	915
6.6.1	mac	2022-12-23	17:55:44	18:05:45	599706	5ec6963cbd8f9609fa549c29	185538621	1	main_z	11	advance_on_keypress_ZEE	26	stimuli_distractor_trianglediamonds.svg	stimuli_target_diamondsquares.svg	28	yes	57	0	465
6.6.1	mac	2022-12-23	17:55:44	18:05:47	601662	5ec6963cbd8f9609fa549c29	185538621	1	main_z	11	main_z	27	stimuli_target_circletriangles.svg	stimuli_distractor_trianglediamonds.svg	1	yes	44	1	855
6.6.1	mac	2022-12-23	17:55:44	18:05:47	601662	5ec6963cbd8f9609fa549c29	185538621	1	main_z	11	advance_on_keypress_ZEE	28	stimuli_target_circletriangles.svg	stimuli_distractor_trianglediamonds.svg	1	yes	57	0	359
6.6.1	mac	2022-12-23	17:55:44	18:05:48	603389	5ec6963cbd8f9609fa549c29	185538621	1	main_z	11	main_z	29	stimuli_target_circlediamonds.svg	stimuli_distractor_diamondtriangles.svg	6	yes	44	1	749
6.6.1	mac	2022-12-23	17:55:44	18:05:48	603389	5ec6963cbd8f9609fa549c29	185538621	1	main_z	11	advance_on_keypress_ZEE	30	stimuli_target_circlediamonds.svg	stimuli_distractor_diamondtriangles.svg	6	yes	57	0	443
6.6.1	mac	2022-12-23	17:55:44	18:05:50	605340	5ec6963cbd8f9609fa549c29	185538621	1	main_z	11	main_z	31	stimuli_target_circlediamonds.svg	stimuli_distractor_trianglediamonds.svg	2	yes	44	1	883
6.6.1	mac	2022-12-23	17:55:44	18:05:50	605340	5ec6963cbd8f9609fa549c29	185538621	1	main_z	11	advance_on_keypress_ZEE	32	stimuli_target_circlediamonds.svg	stimuli_distractor_trianglediamonds.svg	2	yes	57	0	326
6.6.1	mac	2022-12-23	17:55:44	18:05:52	607198	5ec6963cbd8f9609fa549c29	185538621	1	main_z	11	main_z	33	stimuli_target_diamondcircles.svg	stimuli_distractor_trianglediamonds.svg	19	yes	44	1	907
6.6.1	mac	2022-12-23	17:55:44	18:05:52	607198	5ec6963cbd8f9609fa549c29	185538621	1	main_z	11	advance_on_keypress_ZEE	34	stimuli_target_diamondcircles.svg	stimuli_distractor_trianglediamonds.svg	19	yes	57	0	360
6.6.1	mac	2022-12-23	17:55:44	18:05:54	609012	5ec6963cbd8f9609fa549c29	185538621	1	main_z	11	main_z	35	stimuli_target_squarediamonds.svg	stimuli_distractor_diamondtriangles.svg	8	yes	44	1	838
6.6.1	mac	2022-12-23	17:55:44	18:05:54	609012	5ec6963cbd8f9609fa549c29	185538621	1	main_z	11	advance_on_keypress_ZEE	36	stimuli_target_squarediamonds.svg	stimuli_distractor_diamondtriangles.svg	8	yes	57	0	355
6.6.1	mac	2022-12-23	17:55:44	18:05:56	610907	5ec6963cbd8f9609fa549c29	185538621	1	main_z	11	main_z	37	stimuli_distractor_diamondtriangles.svg	stimuli_target_diamondsquares.svg	32	yes	44	1	916
6.6.1	mac	2022-12-23	17:55:44	18:05:56	610907	5ec6963cbd8f9609fa549c29	185538621	1	main_z	11	advance_on_keypress_ZEE	38	stimuli_distractor_diamondtriangles.svg	stimuli_target_diamondsquares.svg	32	yes	57	0	338
6.6.1	mac	2022-12-23	17:55:44	18:05:58	612767	5ec6963cbd8f9609fa549c29	185538621	1	main_z	11	main_z	39	stimuli_distractor_trianglediamonds.svg	stimuli_distractor_diamondtriangles.svg	36	no	44	0	894
6.6.1	mac	2022-12-23	17:55:44	18:05:58	612767	5ec6963cbd8f9609fa549c29	185538621	1	main_z	11	advance_on_keypress_ZEE	40	stimuli_distractor_trianglediamonds.svg	stimuli_distractor_diamondtriangles.svg	36	no	57	0	319
6.6.1	mac	2022-12-23	17:55:44	18:06:00	614696	5ec6963cbd8f9609fa549c29	185538621	1	main_z	11	main_z	41	stimuli_target_trianglesquares.svg	stimuli_distractor_trianglediamonds.svg	18	yes	44	1	972
6.6.1	mac	2022-12-23	17:55:44	18:06:00	614696	5ec6963cbd8f9609fa549c29	185538621	1	main_z	11	advance_on_keypress_ZEE	42	stimuli_target_trianglesquares.svg	stimuli_distractor_trianglediamonds.svg	18	yes	57	0	350
6.6.1	mac	2022-12-23	17:55:44	18:06:03	617672	5ec6963cbd8f9609fa549c29	185538621	1	main_z	11	main_z	43	stimuli_distractor_diamondtriangles.svg	stimuli_distractor_trianglediamonds.svg	37	no	0	1	2000
6.6.1	mac	2022-12-23	17:55:44	18:06:03	617672	5ec6963cbd8f9609fa549c29	185538621	1	main_z	11	advance_on_keypress_ZEE	44	stimuli_distractor_diamondtriangles.svg	stimuli_distractor_trianglediamonds.svg	37	no	57	0	545
6.6.1	mac	2022-12-23	17:55:44	18:06:05	619687	5ec6963cbd8f9609fa549c29	185538621	1	main_z	11	main_z	45	stimuli_distractor_trianglediamonds.svg	stimuli_target_diamondcircles.svg	27	yes	44	1	830
6.6.1	mac	2022-12-23	17:55:44	18:06:05	619687	5ec6963cbd8f9609fa549c29	185538621	1	main_z	11	advance_on_keypress_ZEE	46	stimuli_distractor_trianglediamonds.svg	stimuli_target_diamondcircles.svg	27	yes	57	0	290
6.6.1	mac	2022-12-23	17:55:44	18:06:06	621406	5ec6963cbd8f9609fa549c29	185538621	1	main_z	11	main_z	47	stimuli_target_diamondsquares.svg	stimuli_distractor_diamondtriangles.svg	24	yes	44	1	800
6.6.1	mac	2022-12-23	17:55:44	18:06:06	621406	5ec6963cbd8f9609fa549c29	185538621	1	main_z	11	advance_on_keypress_ZEE	48	stimuli_target_diamondsquares.svg	stimuli_distractor_diamondtriangles.svg	24	yes	57	0	345
6.6.1	mac	2022-12-23	17:55:44	18:06:08	623347	5ec6963cbd8f9609fa549c29	185538621	1	main_z	11	main_z	49	stimuli_target_squarediamonds.svg	stimuli_distractor_trianglediamonds.svg	4	yes	44	1	957
6.6.1	mac	2022-12-23	17:55:44	18:06:08	623347	5ec6963cbd8f9609fa549c29	185538621	1	main_z	11	advance_on_keypress_ZEE	50	stimuli_target_squarediamonds.svg	stimuli_distractor_trianglediamonds.svg	4	yes	57	0	469
6.6.1	mac	2022-12-23	17:55:44	18:06:11	626419	5ec6963cbd8f9609fa549c29	185538621	1	main_z	11	main_z	51	stimuli_distractor_trianglediamonds.svg	stimuli_target_circlediamonds.svg	10	yes	44	1	1976
6.6.1	mac	2022-12-23	17:55:44	18:06:11	626419	5ec6963cbd8f9609fa549c29	185538621	1	main_z	11	advance_on_keypress_ZEE	52	stimuli_distractor_trianglediamonds.svg	stimuli_target_circlediamonds.svg	10	yes	57	0	544
6.6.1	mac	2022-12-23	17:55:44	18:06:15	629606	5ec6963cbd8f9609fa549c29	185538621	1	main_z	11	main_z	53	stimuli_distractor_diamondtriangles.svg	stimuli_distractor_diamondtriangles.svg	39	no	0	1	2000
6.6.1	mac	2022-12-23	17:55:44	18:06:15	629606	5ec6963cbd8f9609fa549c29	185538621	1	main_z	11	advance_on_keypress_ZEE	54	stimuli_distractor_diamondtriangles.svg	stimuli_distractor_diamondtriangles.svg	39	no	57	0	2060
6.6.1	mac	2022-12-23	17:55:44	18:06:18	633010	5ec6963cbd8f9609fa549c29	185538621	1	main_z	11	main_z	55	stimuli_distractor_diamondtriangles.svg	stimuli_target_circlediamonds.svg	14	yes	44	1	704
6.6.1	mac	2022-12-23	17:55:44	18:06:18	633010	5ec6963cbd8f9609fa549c29	185538621	1	main_z	11	advance_on_keypress_ZEE	56	stimuli_distractor_diamondtriangles.svg	stimuli_target_circlediamonds.svg	14	yes	57	0	371
6.6.1	mac	2022-12-23	17:55:44	18:06:21	636005	5ec6963cbd8f9609fa549c29	185538621	1	main_z	11	main_z	57	stimuli_distractor_diamondtriangles.svg	stimuli_distractor_trianglediamonds.svg	38	no	0	1	2000
6.6.1	mac	2022-12-23	17:55:44	18:06:21	636005	5ec6963cbd8f9609fa549c29	185538621	1	main_z	11	advance_on_keypress_ZEE	58	stimuli_distractor_diamondtriangles.svg	stimuli_distractor_trianglediamonds.svg	38	no	57	0	487
6.6.1	mac	2022-12-23	17:55:44	18:06:23	637915	5ec6963cbd8f9609fa549c29	185538621	1	main_z	11	main_z	59	stimuli_distractor_diamondtriangles.svg	stimuli_target_trianglesquares.svg	30	yes	44	1	792
6.6.1	mac	2022-12-23	17:55:44	18:06:23	637915	5ec6963cbd8f9609fa549c29	185538621	1	main_z	11	advance_on_keypress_ZEE	60	stimuli_distractor_diamondtriangles.svg	stimuli_target_trianglesquares.svg	30	yes	57	0	341
6.6.1	mac	2022-12-23	17:55:44	18:06:25	639532	5ec6963cbd8f9609fa549c29	185538621	1	main_z	11	main_z	61	stimuli_distractor_diamondtriangles.svg	stimuli_target_trianglecircles.svg	29	yes	44	1	659
6.6.1	mac	2022-12-23	17:55:44	18:06:25	639532	5ec6963cbd8f9609fa549c29	185538621	1	main_z	11	advance_on_keypress_ZEE	62	stimuli_distractor_diamondtriangles.svg	stimuli_target_trianglecircles.svg	29	yes	57	0	406
6.6.1	mac	2022-12-23	17:55:44	18:06:26	641270	5ec6963cbd8f9609fa549c29	185538621	1	main_z	11	main_z	63	stimuli_target_diamondcircles.svg	stimuli_distractor_diamondtriangles.svg	23	yes	44	1	714
6.6.1	mac	2022-12-23	17:55:44	18:06:26	641270	5ec6963cbd8f9609fa549c29	185538621	1	main_z	11	advance_on_keypress_ZEE	64	stimuli_target_diamondcircles.svg	stimuli_distractor_diamondtriangles.svg	23	yes	57	0	454
6.6.1	mac	2022-12-23	17:55:44	18:06:28	643245	5ec6963cbd8f9609fa549c29	185538621	1	main_z	11	main_z	65	stimuli_distractor_trianglediamonds.svg	stimuli_target_squaretriangles.svg	11	yes	44	1	889
6.6.1	mac	2022-12-23	17:55:44	18:06:28	643245	5ec6963cbd8f9609fa549c29	185538621	1	main_z	11	advance_on_keypress_ZEE	66	stimuli_distractor_trianglediamonds.svg	stimuli_target_squaretriangles.svg	11	yes	57	0	329
6.6.1	mac	2022-12-23	17:55:44	18:06:31	646205	5ec6963cbd8f9609fa549c29	185538621	1	main_z	11	main_z	67	stimuli_distractor_diamondtriangles.svg	stimuli_target_squarediamonds.svg	16	yes	0	0	2000
6.6.1	mac	2022-12-23	17:55:44	18:06:31	646205	5ec6963cbd8f9609fa549c29	185538621	1	main_z	11	advance_on_keypress_ZEE	68	stimuli_distractor_diamondtriangles.svg	stimuli_target_squarediamonds.svg	16	yes	57	0	568
6.6.1	mac	2022-12-23	17:55:44	18:06:34	649406	5ec6963cbd8f9609fa549c29	185538621	1	main_z	11	main_z	69	stimuli_distractor_diamondtriangles.svg	stimuli_distractor_diamondtriangles.svg	40	no	0	1	2000
6.6.1	mac	2022-12-23	17:55:44	18:06:34	649406	5ec6963cbd8f9609fa549c29	185538621	1	main_z	11	advance_on_keypress_ZEE	70	stimuli_distractor_diamondtriangles.svg	stimuli_distractor_diamondtriangles.svg	40	no	57	0	695
6.6.1	mac	2022-12-23	17:55:44	18:06:36	651336	5ec6963cbd8f9609fa549c29	185538621	1	main_z	11	main_z	71	stimuli_target_circletriangles.svg	stimuli_distractor_diamondtriangles.svg	5	yes	44	1	596
6.6.1	mac	2022-12-23	17:55:44	18:06:36	651336	5ec6963cbd8f9609fa549c29	185538621	1	main_z	11	advance_on_keypress_ZEE	72	stimuli_target_circletriangles.svg	stimuli_distractor_diamondtriangles.svg	5	yes	57	0	570
6.6.1	mac	2022-12-23	17:55:44	18:06:38	653180	5ec6963cbd8f9609fa549c29	185538621	1	main_z	11	main_z	73	stimuli_target_trianglesquares.svg	stimuli_distractor_diamondtriangles.svg	22	yes	44	1	640
6.6.1	mac	2022-12-23	17:55:44	18:06:38	653180	5ec6963cbd8f9609fa549c29	185538621	1	main_z	11	advance_on_keypress_ZEE	74	stimuli_target_trianglesquares.svg	stimuli_distractor_diamondtriangles.svg	22	yes	57	0	343
6.6.1	mac	2022-12-23	17:55:44	18:06:40	654770	5ec6963cbd8f9609fa549c29	185538621	1	main_z	11	main_z	75	stimuli_distractor_diamondtriangles.svg	stimuli_target_circletriangles.svg	13	yes	44	1	630
6.6.1	mac	2022-12-23	17:55:44	18:06:40	654770	5ec6963cbd8f9609fa549c29	185538621	1	main_z	11	advance_on_keypress_ZEE	76	stimuli_distractor_diamondtriangles.svg	stimuli_target_circletriangles.svg	13	yes	57	0	418
6.6.1	mac	2022-12-23	17:55:44	18:06:43	657822	5ec6963cbd8f9609fa549c29	185538621	1	main_z	11	main_z	77	stimuli_target_trianglecircles.svg	stimuli_distractor_diamondtriangles.svg	21	yes	0	0	2000
6.6.1	mac	2022-12-23	17:55:44	18:06:43	657822	5ec6963cbd8f9609fa549c29	185538621	1	main_z	11	advance_on_keypress_ZEE	78	stimuli_target_trianglecircles.svg	stimuli_distractor_diamondtriangles.svg	21	yes	57	0	5027
6.6.1	mac	2022-12-23	17:55:44	18:06:49	664094	5ec6963cbd8f9609fa549c29	185538621	1	main_z	11	main_z	79	stimuli_distractor_diamondtriangles.svg	stimuli_target_squaretriangles.svg	15	yes	44	1	604
6.6.1	mac	2022-12-23	17:55:44	18:06:49	664094	5ec6963cbd8f9609fa549c29	185538621	1	main_z	11	advance_on_keypress_ZEE	80	stimuli_distractor_diamondtriangles.svg	stimuli_target_squaretriangles.svg	15	yes	57	0	449
6.6.1	mac	2022-12-23	17:55:44	18:06:51	666289	5ec6963cbd8f9609fa549c29	185538621	1	main_z	11	main_z	81	stimuli_distractor_trianglediamonds.svg	stimuli_distractor_diamondtriangles.svg	36	no	44	0	1116
6.6.1	mac	2022-12-23	17:55:44	18:06:51	666289	5ec6963cbd8f9609fa549c29	185538621	1	main_z	11	advance_on_keypress_ZEE	82	stimuli_distractor_trianglediamonds.svg	stimuli_distractor_diamondtriangles.svg	36	no	57	0	593
6.6.1	mac	2022-12-23	17:55:44	18:06:53	668402	5ec6963cbd8f9609fa549c29	185538621	1	main_z	11	main_z	83	stimuli_distractor_diamondtriangles.svg	stimuli_target_diamondsquares.svg	32	yes	44	1	896
6.6.1	mac	2022-12-23	17:55:44	18:06:53	668402	5ec6963cbd8f9609fa549c29	185538621	1	main_z	11	advance_on_keypress_ZEE	84	stimuli_distractor_diamondtriangles.svg	stimuli_target_diamondsquares.svg	32	yes	57	0	445
6.6.1	mac	2022-12-23	17:55:44	18:06:55	670175	5ec6963cbd8f9609fa549c29	185538621	1	main_z	11	main_z	85	stimuli_distractor_trianglediamonds.svg	stimuli_target_diamondsquares.svg	28	yes	44	1	703
6.6.1	mac	2022-12-23	17:55:44	18:06:55	670175	5ec6963cbd8f9609fa549c29	185538621	1	main_z	11	advance_on_keypress_ZEE	86	stimuli_distractor_trianglediamonds.svg	stimuli_target_diamondsquares.svg	28	yes	57	0	453
6.6.1	mac	2022-12-23	17:55:44	18:06:57	672022	5ec6963cbd8f9609fa549c29	185538621	1	main_z	11	main_z	87	stimuli_distractor_diamondtriangles.svg	stimuli_target_trianglesquares.svg	30	yes	44	1	766
6.6.1	mac	2022-12-23	17:55:44	18:06:57	672022	5ec6963cbd8f9609fa549c29	185538621	1	main_z	11	advance_on_keypress_ZEE	88	stimuli_distractor_diamondtriangles.svg	stimuli_target_trianglesquares.svg	30	yes	57	0	487
6.6.1	mac	2022-12-23	17:55:44	18:06:59	673969	5ec6963cbd8f9609fa549c29	185538621	1	main_z	11	main_z	89	stimuli_target_trianglecircles.svg	stimuli_distractor_diamondtriangles.svg	21	yes	44	1	828
6.6.1	mac	2022-12-23	17:55:44	18:06:59	673969	5ec6963cbd8f9609fa549c29	185538621	1	main_z	11	advance_on_keypress_ZEE	90	stimuli_target_trianglecircles.svg	stimuli_distractor_diamondtriangles.svg	21	yes	57	0	461
6.6.1	mac	2022-12-23	17:55:44	18:07:01	676371	5ec6963cbd8f9609fa549c29	185538621	1	main_z	11	main_z	91	stimuli_target_circletriangles.svg	stimuli_distractor_diamondtriangles.svg	5	yes	44	1	1314
6.6.1	mac	2022-12-23	17:55:44	18:07:01	676371	5ec6963cbd8f9609fa549c29	185538621	1	main_z	11	advance_on_keypress_ZEE	92	stimuli_target_circletriangles.svg	stimuli_distractor_diamondtriangles.svg	5	yes	57	0	285
6.6.1	mac	2022-12-23	17:55:44	18:07:04	679289	5ec6963cbd8f9609fa549c29	185538621	1	main_z	11	main_z	93	stimuli_distractor_trianglediamonds.svg	stimuli_distractor_trianglediamonds.svg	34	no	0	1	2000
6.6.1	mac	2022-12-23	17:55:44	18:07:04	679289	5ec6963cbd8f9609fa549c29	185538621	1	main_z	11	advance_on_keypress_ZEE	94	stimuli_distractor_trianglediamonds.svg	stimuli_distractor_trianglediamonds.svg	34	no	57	0	362
6.6.1	mac	2022-12-23	17:55:44	18:07:06	681200	5ec6963cbd8f9609fa549c29	185538621	1	main_z	11	main_z	95	stimuli_distractor_trianglediamonds.svg	stimuli_target_trianglesquares.svg	26	yes	44	1	910
6.6.1	mac	2022-12-23	17:55:44	18:07:06	681200	5ec6963cbd8f9609fa549c29	185538621	1	main_z	11	advance_on_keypress_ZEE	96	stimuli_distractor_trianglediamonds.svg	stimuli_target_trianglesquares.svg	26	yes	57	0	301
6.6.1	mac	2022-12-23	17:55:44	18:07:08	682850	5ec6963cbd8f9609fa549c29	185538621	1	main_z	11	main_z	97	stimuli_distractor_trianglediamonds.svg	stimuli_target_trianglecircles.svg	25	yes	44	1	728
6.6.1	mac	2022-12-23	17:55:44	18:07:08	682850	5ec6963cbd8f9609fa549c29	185538621	1	main_z	11	advance_on_keypress_ZEE	98	stimuli_distractor_trianglediamonds.svg	stimuli_target_trianglecircles.svg	25	yes	57	0	362
6.6.1	mac	2022-12-23	17:55:44	18:07:10	684549	5ec6963cbd8f9609fa549c29	185538621	1	main_z	11	main_z	99	stimuli_distractor_diamondtriangles.svg	stimuli_target_circlediamonds.svg	14	yes	44	1	709
6.6.1	mac	2022-12-23	17:55:44	18:07:10	684549	5ec6963cbd8f9609fa549c29	185538621	1	main_z	11	advance_on_keypress_ZEE	100	stimuli_distractor_diamondtriangles.svg	stimuli_target_circlediamonds.svg	14	yes	57	0	357
6.6.1	mac	2022-12-23	17:55:44	18:07:11	686464	5ec6963cbd8f9609fa549c29	185538621	1	main_z	11	main_z	101	stimuli_target_squaretriangles.svg	stimuli_distractor_trianglediamonds.svg	3	yes	44	1	924
6.6.1	mac	2022-12-23	17:55:44	18:07:11	686464	5ec6963cbd8f9609fa549c29	185538621	1	main_z	11	advance_on_keypress_ZEE	102	stimuli_target_squaretriangles.svg	stimuli_distractor_trianglediamonds.svg	3	yes	57	0	317
6.6.1	mac	2022-12-23	17:55:44	18:07:13	688081	5ec6963cbd8f9609fa549c29	185538621	1	main_z	11	main_z	103	stimuli_target_diamondcircles.svg	stimuli_distractor_trianglediamonds.svg	19	yes	44	1	675
6.6.1	mac	2022-12-23	17:55:44	18:07:13	688081	5ec6963cbd8f9609fa549c29	185538621	1	main_z	11	advance_on_keypress_ZEE	104	stimuli_target_diamondcircles.svg	stimuli_distractor_trianglediamonds.svg	19	yes	57	0	492
6.6.1	mac	2022-12-23	17:55:44	18:07:15	689895	5ec6963cbd8f9609fa549c29	185538621	1	main_z	11	main_z	105	stimuli_target_trianglesquares.svg	stimuli_distractor_diamondtriangles.svg	22	yes	44	1	706
6.6.1	mac	2022-12-23	17:55:44	18:07:15	689895	5ec6963cbd8f9609fa549c29	185538621	1	main_z	11	advance_on_keypress_ZEE	106	stimuli_target_trianglesquares.svg	stimuli_distractor_diamondtriangles.svg	22	yes	57	0	413
6.6.1	mac	2022-12-23	17:55:44	18:07:17	691632	5ec6963cbd8f9609fa549c29	185538621	1	main_z	11	main_z	107	stimuli_distractor_diamondtriangles.svg	stimuli_target_trianglecircles.svg	29	yes	44	1	691
6.6.1	mac	2022-12-23	17:55:44	18:07:17	691632	5ec6963cbd8f9609fa549c29	185538621	1	main_z	11	advance_on_keypress_ZEE	108	stimuli_distractor_diamondtriangles.svg	stimuli_target_trianglecircles.svg	29	yes	57	0	363
6.6.1	mac	2022-12-23	17:55:44	18:07:18	693432	5ec6963cbd8f9609fa549c29	185538621	1	main_z	11	main_z	109	stimuli_distractor_trianglediamonds.svg	stimuli_distractor_diamondtriangles.svg	35	no	44	0	808
6.6.1	mac	2022-12-23	17:55:44	18:07:18	693432	5ec6963cbd8f9609fa549c29	185538621	1	main_z	11	advance_on_keypress_ZEE	110	stimuli_distractor_trianglediamonds.svg	stimuli_distractor_diamondtriangles.svg	35	no	57	0	390
6.6.1	mac	2022-12-23	17:55:44	18:07:20	695231	5ec6963cbd8f9609fa549c29	185538621	1	main_z	11	main_z	111	stimuli_distractor_trianglediamonds.svg	stimuli_target_circletriangles.svg	9	yes	44	1	791
6.6.1	mac	2022-12-23	17:55:44	18:07:20	695231	5ec6963cbd8f9609fa549c29	185538621	1	main_z	11	advance_on_keypress_ZEE	112	stimuli_distractor_trianglediamonds.svg	stimuli_target_circletriangles.svg	9	yes	57	0	381
6.6.1	mac	2022-12-23	17:55:44	18:07:22	696988	5ec6963cbd8f9609fa549c29	185538621	1	main_z	11	main_z	113	stimuli_target_circlediamonds.svg	stimuli_distractor_trianglediamonds.svg	2	yes	44	1	749
6.6.1	mac	2022-12-23	17:55:44	18:07:22	696988	5ec6963cbd8f9609fa549c29	185538621	1	main_z	11	advance_on_keypress_ZEE	114	stimuli_target_circlediamonds.svg	stimuli_distractor_trianglediamonds.svg	2	yes	57	0	349
6.6.1	mac	2022-12-23	17:55:44	18:07:24	698828	5ec6963cbd8f9609fa549c29	185538621	1	main_z	11	main_z	115	stimuli_target_trianglecircles.svg	stimuli_distractor_trianglediamonds.svg	17	yes	44	1	855
6.6.1	mac	2022-12-23	17:55:44	18:07:24	698828	5ec6963cbd8f9609fa549c29	185538621	1	main_z	11	advance_on_keypress_ZEE	116	stimuli_target_trianglecircles.svg	stimuli_distractor_trianglediamonds.svg	17	yes	57	0	266
6.6.1	mac	2022-12-23	17:55:44	18:07:26	700539	5ec6963cbd8f9609fa549c29	185538621	1	main_z	11	main_z	117	stimuli_distractor_diamondtriangles.svg	stimuli_target_squaretriangles.svg	15	yes	44	1	815
6.6.1	mac	2022-12-23	17:55:44	18:07:26	700539	5ec6963cbd8f9609fa549c29	185538621	1	main_z	11	advance_on_keypress_ZEE	118	stimuli_distractor_diamondtriangles.svg	stimuli_target_squaretriangles.svg	15	yes	57	0	385
6.6.1	mac	2022-12-23	17:55:44	18:07:29	703555	5ec6963cbd8f9609fa549c29	185538621	1	main_z	11	main_z	119	stimuli_distractor_diamondtriangles.svg	stimuli_distractor_diamondtriangles.svg	40	no	0	1	2000
6.6.1	mac	2022-12-23	17:55:44	18:07:29	703555	5ec6963cbd8f9609fa549c29	185538621	1	main_z	11	advance_on_keypress_ZEE	120	stimuli_distractor_diamondtriangles.svg	stimuli_distractor_diamondtriangles.svg	40	no	57	0	572
6.6.1	mac	2022-12-23	17:55:44	18:07:30	705402	5ec6963cbd8f9609fa549c29	185538621	1	main_z	11	main_z	121	stimuli_distractor_diamondtriangles.svg	stimuli_target_diamondcircles.svg	31	yes	44	1	646
6.6.1	mac	2022-12-23	17:55:44	18:07:30	705402	5ec6963cbd8f9609fa549c29	185538621	1	main_z	11	advance_on_keypress_ZEE	122	stimuli_distractor_diamondtriangles.svg	stimuli_target_diamondcircles.svg	31	yes	57	0	357
6.6.1	mac	2022-12-23	17:55:44	18:07:32	706984	5ec6963cbd8f9609fa549c29	185538621	1	main_z	11	main_z	123	stimuli_distractor_trianglediamonds.svg	stimuli_target_circlediamonds.svg	10	yes	44	1	594
6.6.1	mac	2022-12-23	17:55:44	18:07:32	706984	5ec6963cbd8f9609fa549c29	185538621	1	main_z	11	advance_on_keypress_ZEE	124	stimuli_distractor_trianglediamonds.svg	stimuli_target_circlediamonds.svg	10	yes	57	0	356
6.6.1	mac	2022-12-23	17:55:44	18:07:34	708786	5ec6963cbd8f9609fa549c29	185538621	1	main_z	11	main_z	125	stimuli_target_diamondsquares.svg	stimuli_distractor_diamondtriangles.svg	24	yes	44	1	813
6.6.1	mac	2022-12-23	17:55:44	18:07:34	708786	5ec6963cbd8f9609fa549c29	185538621	1	main_z	11	advance_on_keypress_ZEE	126	stimuli_target_diamondsquares.svg	stimuli_distractor_diamondtriangles.svg	24	yes	57	0	340
6.6.1	mac	2022-12-23	17:55:44	18:07:36	710659	5ec6963cbd8f9609fa549c29	185538621	1	main_z	11	main_z	127	stimuli_target_squarediamonds.svg	stimuli_distractor_diamondtriangles.svg	8	yes	44	1	886
6.6.1	mac	2022-12-23	17:55:44	18:07:36	710659	5ec6963cbd8f9609fa549c29	185538621	1	main_z	11	advance_on_keypress_ZEE	128	stimuli_target_squarediamonds.svg	stimuli_distractor_diamondtriangles.svg	8	yes	57	0	280
6.6.1	mac	2022-12-23	17:55:44	18:07:37	712250	5ec6963cbd8f9609fa549c29	185538621	1	main_z	11	main_z	129	stimuli_target_trianglesquares.svg	stimuli_distractor_trianglediamonds.svg	18	yes	44	1	677
6.6.1	mac	2022-12-23	17:55:44	18:07:37	712250	5ec6963cbd8f9609fa549c29	185538621	1	main_z	11	advance_on_keypress_ZEE	130	stimuli_target_trianglesquares.svg	stimuli_distractor_trianglediamonds.svg	18	yes	57	0	424
6.6.1	mac	2022-12-23	17:55:44	18:07:39	714094	5ec6963cbd8f9609fa549c29	185538621	1	main_z	11	main_z	131	stimuli_distractor_trianglediamonds.svg	stimuli_target_squarediamonds.svg	12	yes	44	1	804
6.6.1	mac	2022-12-23	17:55:44	18:07:39	714094	5ec6963cbd8f9609fa549c29	185538621	1	main_z	11	advance_on_keypress_ZEE	132	stimuli_distractor_trianglediamonds.svg	stimuli_target_squarediamonds.svg	12	yes	57	0	327
6.6.1	mac	2022-12-23	17:55:44	18:07:41	715692	5ec6963cbd8f9609fa549c29	185538621	1	main_z	11	main_z	133	stimuli_distractor_diamondtriangles.svg	stimuli_target_circletriangles.svg	13	yes	44	1	652
6.6.1	mac	2022-12-23	17:55:44	18:07:41	715692	5ec6963cbd8f9609fa549c29	185538621	1	main_z	11	advance_on_keypress_ZEE	134	stimuli_distractor_diamondtriangles.svg	stimuli_target_circletriangles.svg	13	yes	57	0	424
6.6.1	mac	2022-12-23	17:55:44	18:07:42	717419	5ec6963cbd8f9609fa549c29	185538621	1	main_z	11	main_z	135	stimuli_distractor_trianglediamonds.svg	stimuli_target_squaretriangles.svg	11	yes	44	1	679
6.6.1	mac	2022-12-23	17:55:44	18:07:42	717419	5ec6963cbd8f9609fa549c29	185538621	1	main_z	11	advance_on_keypress_ZEE	136	stimuli_distractor_trianglediamonds.svg	stimuli_target_squaretriangles.svg	11	yes	57	0	409
6.6.1	mac	2022-12-23	17:55:44	18:07:44	719164	5ec6963cbd8f9609fa549c29	185538621	1	main_z	11	main_z	137	stimuli_distractor_trianglediamonds.svg	stimuli_target_diamondcircles.svg	27	yes	44	1	708
6.6.1	mac	2022-12-23	17:55:44	18:07:44	719164	5ec6963cbd8f9609fa549c29	185538621	1	main_z	11	advance_on_keypress_ZEE	138	stimuli_distractor_trianglediamonds.svg	stimuli_target_diamondcircles.svg	27	yes	57	0	333
6.6.1	mac	2022-12-23	17:55:44	18:07:46	720982	5ec6963cbd8f9609fa549c29	185538621	1	main_z	11	main_z	139	stimuli_target_diamondsquares.svg	stimuli_distractor_trianglediamonds.svg	20	yes	44	1	859
6.6.1	mac	2022-12-23	17:55:44	18:07:46	720982	5ec6963cbd8f9609fa549c29	185538621	1	main_z	11	advance_on_keypress_ZEE	140	stimuli_target_diamondsquares.svg	stimuli_distractor_trianglediamonds.svg	20	yes	57	0	320
6.6.1	mac	2022-12-23	17:55:44	18:07:49	723922	5ec6963cbd8f9609fa549c29	185538621	1	main_z	11	main_z	141	stimuli_distractor_diamondtriangles.svg	stimuli_distractor_trianglediamonds.svg	37	no	0	1	2000
6.6.1	mac	2022-12-23	17:55:44	18:07:49	723922	5ec6963cbd8f9609fa549c29	185538621	1	main_z	11	advance_on_keypress_ZEE	142	stimuli_distractor_diamondtriangles.svg	stimuli_distractor_trianglediamonds.svg	37	no	57	0	562
6.6.1	mac	2022-12-23	17:55:44	18:07:52	727121	5ec6963cbd8f9609fa549c29	185538621	1	main_z	11	main_z	143	stimuli_distractor_trianglediamonds.svg	stimuli_distractor_trianglediamonds.svg	33	no	0	1	2000
6.6.1	mac	2022-12-23	17:55:44	18:07:52	727121	5ec6963cbd8f9609fa549c29	185538621	1	main_z	11	advance_on_keypress_ZEE	144	stimuli_distractor_trianglediamonds.svg	stimuli_distractor_trianglediamonds.svg	33	no	57	0	469
6.6.1	mac	2022-12-23	17:55:44	18:07:54	729171	5ec6963cbd8f9609fa549c29	185538621	1	main_z	11	main_z	145	stimuli_target_squarediamonds.svg	stimuli_distractor_trianglediamonds.svg	4	yes	44	1	948
6.6.1	mac	2022-12-23	17:55:44	18:07:54	729171	5ec6963cbd8f9609fa549c29	185538621	1	main_z	11	advance_on_keypress_ZEE	146	stimuli_target_squarediamonds.svg	stimuli_distractor_trianglediamonds.svg	4	yes	57	0	314
6.6.1	mac	2022-12-23	17:55:44	18:07:57	732121	5ec6963cbd8f9609fa549c29	185538621	1	main_z	11	main_z	147	stimuli_distractor_diamondtriangles.svg	stimuli_distractor_trianglediamonds.svg	38	no	0	1	2000
6.6.1	mac	2022-12-23	17:55:44	18:07:57	732121	5ec6963cbd8f9609fa549c29	185538621	1	main_z	11	advance_on_keypress_ZEE	148	stimuli_distractor_diamondtriangles.svg	stimuli_distractor_trianglediamonds.svg	38	no	57	0	593
6.6.1	mac	2022-12-23	17:55:44	18:07:59	734196	5ec6963cbd8f9609fa549c29	185538621	1	main_z	11	main_z	149	stimuli_target_circlediamonds.svg	stimuli_distractor_diamondtriangles.svg	6	yes	44	1	840
6.6.1	mac	2022-12-23	17:55:44	18:07:59	734196	5ec6963cbd8f9609fa549c29	185538621	1	main_z	11	advance_on_keypress_ZEE	150	stimuli_target_circlediamonds.svg	stimuli_distractor_diamondtriangles.svg	6	yes	57	0	326
6.6.1	mac	2022-12-23	17:55:44	18:08:02	737139	5ec6963cbd8f9609fa549c29	185538621	1	main_z	11	main_z	151	stimuli_distractor_diamondtriangles.svg	stimuli_distractor_diamondtriangles.svg	39	no	0	1	2000
6.6.1	mac	2022-12-23	17:55:44	18:08:02	737139	5ec6963cbd8f9609fa549c29	185538621	1	main_z	11	advance_on_keypress_ZEE	152	stimuli_distractor_diamondtriangles.svg	stimuli_distractor_diamondtriangles.svg	39	no	57	0	1170
6.6.1	mac	2022-12-23	17:55:44	18:08:04	739429	5ec6963cbd8f9609fa549c29	185538621	1	main_z	11	main_z	153	stimuli_target_circletriangles.svg	stimuli_distractor_trianglediamonds.svg	1	yes	44	1	489
6.6.1	mac	2022-12-23	17:55:44	18:08:04	739429	5ec6963cbd8f9609fa549c29	185538621	1	main_z	11	advance_on_keypress_ZEE	154	stimuli_target_circletriangles.svg	stimuli_distractor_trianglediamonds.svg	1	yes	57	0	458
6.6.1	mac	2022-12-23	17:55:44	18:08:06	741296	5ec6963cbd8f9609fa549c29	185538621	1	main_z	11	main_z	155	stimuli_target_squaretriangles.svg	stimuli_distractor_diamondtriangles.svg	7	yes	44	1	790
6.6.1	mac	2022-12-23	17:55:44	18:08:06	741296	5ec6963cbd8f9609fa549c29	185538621	1	main_z	11	advance_on_keypress_ZEE	156	stimuli_target_squaretriangles.svg	stimuli_distractor_diamondtriangles.svg	7	yes	57	0	394
6.6.1	mac	2022-12-23	17:55:44	18:08:08	743098	5ec6963cbd8f9609fa549c29	185538621	1	main_z	11	main_z	157	stimuli_distractor_diamondtriangles.svg	stimuli_target_squarediamonds.svg	16	yes	44	1	791
6.6.1	mac	2022-12-23	17:55:44	18:08:08	743098	5ec6963cbd8f9609fa549c29	185538621	1	main_z	11	advance_on_keypress_ZEE	158	stimuli_distractor_diamondtriangles.svg	stimuli_target_squarediamonds.svg	16	yes	57	0	300
6.6.1	mac	2022-12-23	17:55:44	18:08:10	744800	5ec6963cbd8f9609fa549c29	185538621	1	main_z	11	main_z	159	stimuli_target_diamondcircles.svg	stimuli_distractor_diamondtriangles.svg	23	yes	44	1	776
6.6.1	mac	2022-12-23	17:55:44	18:08:10	744800	5ec6963cbd8f9609fa549c29	185538621	1	main_z	11	advance_on_keypress_ZEE	160	stimuli_target_diamondcircles.svg	stimuli_distractor_diamondtriangles.svg	23	yes	57	0	387