build	computer.platform	date	time	timestamp	time_elapsed_ms	subject	group	session	blockcode	blocknum	trialcode	trialnum	stimulus_left	stimulus_right	stim_index	target_present	response	correct	latency
6.6.1	win	2022-12-14	12:14:34	12:19:15	277783	6298df7da7b45df1b730d3aa	169868341	1	practice_slash	5	practice_slash	1	stimuli_distractor_trianglediamonds.svg	stimuli_target_diamondcircles.svg	12	yes	53	1	1746
6.6.1	win	2022-12-14	12:14:34	12:19:15	277783	6298df7da7b45df1b730d3aa	169868341	1	practice_slash	5	advance_on_keypress_SLASH	2	stimuli_distractor_trianglediamonds.svg	stimuli_target_diamondcircles.svg	12	yes	57	0	1271
6.6.1	win	2022-12-14	12:14:34	12:19:20	282805	6298df7da7b45df1b730d3aa	169868341	1	practice_slash	5	practice_slash	3	stimuli_distractor_diamondtriangles.svg	stimuli_distractor_diamondtriangles.svg	13	no	0	1	2000
6.6.1	win	2022-12-14	12:14:34	12:19:20	282805	6298df7da7b45df1b730d3aa	169868341	1	practice_slash	5	advance_on_keypress_SLASH	4	stimuli_distractor_diamondtriangles.svg	stimuli_distractor_diamondtriangles.svg	13	no	57	0	2158
6.6.1	win	2022-12-14	12:14:34	12:19:26	288653	6298df7da7b45df1b730d3aa	169868341	1	practice_slash	5	practice_slash	5	stimuli_target_circlediamonds.svg	stimuli_distractor_diamondtriangles.svg	1	yes	0	0	2000
6.6.1	win	2022-12-14	12:14:34	12:19:26	288653	6298df7da7b45df1b730d3aa	169868341	1	practice_slash	5	advance_on_keypress_SLASH	6	stimuli_target_circlediamonds.svg	stimuli_distractor_diamondtriangles.svg	1	yes	57	0	607
6.6.1	win	2022-12-14	12:14:34	12:19:29	291786	6298df7da7b45df1b730d3aa	169868341	1	practice_slash	5	practice_slash	7	stimuli_target_circlediamonds.svg	stimuli_distractor_trianglediamonds.svg	4	yes	53	1	833
6.6.1	win	2022-12-14	12:14:34	12:19:29	291786	6298df7da7b45df1b730d3aa	169868341	1	practice_slash	5	advance_on_keypress_SLASH	8	stimuli_target_circlediamonds.svg	stimuli_distractor_trianglediamonds.svg	4	yes	57	0	825
6.6.1	win	2022-12-14	12:14:34	12:19:33	296302	6298df7da7b45df1b730d3aa	169868341	1	practice_slash	5	practice_slash	9	stimuli_distractor_trianglediamonds.svg	stimuli_distractor_diamondtriangles.svg	16	no	0	1	2000
6.6.1	win	2022-12-14	12:14:34	12:19:33	296302	6298df7da7b45df1b730d3aa	169868341	1	practice_slash	5	advance_on_keypress_SLASH	10	stimuli_distractor_trianglediamonds.svg	stimuli_distractor_diamondtriangles.svg	16	no	57	0	663
6.6.1	win	2022-12-14	12:14:34	12:19:38	300652	6298df7da7b45df1b730d3aa	169868341	1	practice_slash	5	practice_slash	11	stimuli_distractor_diamondtriangles.svg	stimuli_distractor_trianglediamonds.svg	14	no	0	1	2000
6.6.1	win	2022-12-14	12:14:34	12:19:38	300652	6298df7da7b45df1b730d3aa	169868341	1	practice_slash	5	advance_on_keypress_SLASH	12	stimuli_distractor_diamondtriangles.svg	stimuli_distractor_trianglediamonds.svg	14	no	57	0	327
6.6.1	win	2022-12-14	12:14:34	12:19:41	303634	6298df7da7b45df1b730d3aa	169868341	1	practice_slash	5	practice_slash	13	stimuli_distractor_diamondtriangles.svg	stimuli_target_circletriangles.svg	7	yes	53	1	916
6.6.1	win	2022-12-14	12:14:34	12:19:41	303634	6298df7da7b45df1b730d3aa	169868341	1	practice_slash	5	advance_on_keypress_SLASH	14	stimuli_distractor_diamondtriangles.svg	stimuli_target_circletriangles.svg	7	yes	57	0	585
6.6.1	win	2022-12-14	12:14:34	12:19:45	307917	6298df7da7b45df1b730d3aa	169868341	1	practice_slash	5	practice_slash	15	stimuli_distractor_trianglediamonds.svg	stimuli_distractor_trianglediamonds.svg	15	no	0	1	2000
6.6.1	win	2022-12-14	12:14:34	12:19:45	307917	6298df7da7b45df1b730d3aa	169868341	1	practice_slash	5	advance_on_keypress_SLASH	16	stimuli_distractor_trianglediamonds.svg	stimuli_distractor_trianglediamonds.svg	15	no	57	0	277
6.6.1	win	2022-12-14	12:14:34	12:19:49	311660	6298df7da7b45df1b730d3aa	169868341	1	practice_slash	5	practice_slash	17	stimuli_distractor_trianglediamonds.svg	stimuli_target_squarediamonds.svg	11	yes	53	1	1760
6.6.1	win	2022-12-14	12:14:34	12:19:49	311660	6298df7da7b45df1b730d3aa	169868341	1	practice_slash	5	advance_on_keypress_SLASH	18	stimuli_distractor_trianglediamonds.svg	stimuli_target_squarediamonds.svg	11	yes	57	0	825
6.6.1	win	2022-12-14	12:14:34	12:19:52	315076	6298df7da7b45df1b730d3aa	169868341	1	practice_slash	5	practice_slash	19	stimuli_distractor_trianglediamonds.svg	stimuli_target_circlediamonds.svg	10	yes	53	1	894
6.6.1	win	2022-12-14	12:14:34	12:19:52	315076	6298df7da7b45df1b730d3aa	169868341	1	practice_slash	5	advance_on_keypress_SLASH	20	stimuli_distractor_trianglediamonds.svg	stimuli_target_circlediamonds.svg	10	yes	57	0	716
6.6.1	win	2022-12-14	12:14:34	12:19:56	318741	6298df7da7b45df1b730d3aa	169868341	1	practice_slash	5	practice_slash	21	stimuli_target_diamondsquares.svg	stimuli_distractor_diamondtriangles.svg	3	yes	53	1	1242
6.6.1	win	2022-12-14	12:14:34	12:19:56	318741	6298df7da7b45df1b730d3aa	169868341	1	practice_slash	5	advance_on_keypress_SLASH	22	stimuli_target_diamondsquares.svg	stimuli_distractor_diamondtriangles.svg	3	yes	57	0	427
6.6.1	win	2022-12-14	12:14:34	12:19:59	321864	6298df7da7b45df1b730d3aa	169868341	1	practice_slash	5	practice_slash	23	stimuli_distractor_diamondtriangles.svg	stimuli_target_trianglecircles.svg	9	yes	53	1	1016
6.6.1	win	2022-12-14	12:14:34	12:19:59	321864	6298df7da7b45df1b730d3aa	169868341	1	practice_slash	5	advance_on_keypress_SLASH	24	stimuli_distractor_diamondtriangles.svg	stimuli_target_trianglecircles.svg	9	yes	57	0	151
6.6.1	win	2022-12-14	12:14:34	12:20:03	325715	6298df7da7b45df1b730d3aa	169868341	1	practice_slash	5	practice_slash	25	stimuli_target_diamondsquares.svg	stimuli_distractor_trianglediamonds.svg	6	yes	0	0	2000
6.6.1	win	2022-12-14	12:14:34	12:20:03	325715	6298df7da7b45df1b730d3aa	169868341	1	practice_slash	5	advance_on_keypress_SLASH	26	stimuli_target_diamondsquares.svg	stimuli_distractor_trianglediamonds.svg	6	yes	57	0	524
6.6.1	win	2022-12-14	12:14:34	12:20:06	329452	6298df7da7b45df1b730d3aa	169868341	1	practice_slash	5	practice_slash	27	stimuli_distractor_diamondtriangles.svg	stimuli_target_diamondcircles.svg	8	yes	53	1	1522
6.6.1	win	2022-12-14	12:14:34	12:20:06	329452	6298df7da7b45df1b730d3aa	169868341	1	practice_slash	5	advance_on_keypress_SLASH	28	stimuli_distractor_diamondtriangles.svg	stimuli_target_diamondcircles.svg	8	yes	57	0	917
6.6.1	win	2022-12-14	12:14:34	12:20:10	333379	6298df7da7b45df1b730d3aa	169868341	1	practice_slash	5	practice_slash	29	stimuli_target_squarediamonds.svg	stimuli_distractor_diamondtriangles.svg	2	yes	53	1	1316
6.6.1	win	2022-12-14	12:14:34	12:20:10	333379	6298df7da7b45df1b730d3aa	169868341	1	practice_slash	5	advance_on_keypress_SLASH	30	stimuli_target_squarediamonds.svg	stimuli_distractor_diamondtriangles.svg	2	yes	57	0	700
6.6.1	win	2022-12-14	12:14:34	12:20:14	336870	6298df7da7b45df1b730d3aa	169868341	1	practice_slash	5	practice_slash	31	stimuli_target_squarediamonds.svg	stimuli_distractor_trianglediamonds.svg	5	yes	53	1	1090
6.6.1	win	2022-12-14	12:14:34	12:20:14	336870	6298df7da7b45df1b730d3aa	169868341	1	practice_slash	5	advance_on_keypress_SLASH	32	stimuli_target_squarediamonds.svg	stimuli_distractor_trianglediamonds.svg	5	yes	57	0	739
6.6.1	win	2022-12-14	12:14:34	12:20:34	357235	6298df7da7b45df1b730d3aa	169868341	1	main_slash	7	main_slash	1	stimuli_distractor_diamondtriangles.svg	stimuli_distractor_diamondtriangles.svg	40	no	0	1	2000
6.6.1	win	2022-12-14	12:14:34	12:20:34	357235	6298df7da7b45df1b730d3aa	169868341	1	main_slash	7	advance_on_keypress_SLASH	2	stimuli_distractor_diamondtriangles.svg	stimuli_distractor_diamondtriangles.svg	40	no	57	0	481
6.6.1	win	2022-12-14	12:14:34	12:20:36	359410	6298df7da7b45df1b730d3aa	169868341	1	main_slash	7	main_slash	3	stimuli_target_trianglecircles.svg	stimuli_distractor_trianglediamonds.svg	17	yes	53	1	1009
6.6.1	win	2022-12-14	12:14:34	12:20:36	359410	6298df7da7b45df1b730d3aa	169868341	1	main_slash	7	advance_on_keypress_SLASH	4	stimuli_target_trianglecircles.svg	stimuli_distractor_trianglediamonds.svg	17	yes	57	0	760
6.6.1	win	2022-12-14	12:14:34	12:20:39	361862	6298df7da7b45df1b730d3aa	169868341	1	main_slash	7	main_slash	5	stimuli_distractor_trianglediamonds.svg	stimuli_target_squaretriangles.svg	11	yes	53	1	1011
6.6.1	win	2022-12-14	12:14:34	12:20:39	361862	6298df7da7b45df1b730d3aa	169868341	1	main_slash	7	advance_on_keypress_SLASH	6	stimuli_distractor_trianglediamonds.svg	stimuli_target_squaretriangles.svg	11	yes	57	0	471
6.6.1	win	2022-12-14	12:14:34	12:20:42	365017	6298df7da7b45df1b730d3aa	169868341	1	main_slash	7	main_slash	7	stimuli_distractor_trianglediamonds.svg	stimuli_distractor_trianglediamonds.svg	34	no	0	1	2000
6.6.1	win	2022-12-14	12:14:34	12:20:42	365017	6298df7da7b45df1b730d3aa	169868341	1	main_slash	7	advance_on_keypress_SLASH	8	stimuli_distractor_trianglediamonds.svg	stimuli_distractor_trianglediamonds.svg	34	no	57	0	452
6.6.1	win	2022-12-14	12:14:34	12:20:44	367153	6298df7da7b45df1b730d3aa	169868341	1	main_slash	7	main_slash	9	stimuli_target_diamondsquares.svg	stimuli_distractor_trianglediamonds.svg	20	yes	53	1	1004
6.6.1	win	2022-12-14	12:14:34	12:20:44	367153	6298df7da7b45df1b730d3aa	169868341	1	main_slash	7	advance_on_keypress_SLASH	10	stimuli_target_diamondsquares.svg	stimuli_distractor_trianglediamonds.svg	20	yes	57	0	467
6.6.1	win	2022-12-14	12:14:34	12:20:46	369400	6298df7da7b45df1b730d3aa	169868341	1	main_slash	7	main_slash	11	stimuli_distractor_trianglediamonds.svg	stimuli_target_trianglecircles.svg	25	yes	53	1	1100
6.6.1	win	2022-12-14	12:14:34	12:20:46	369400	6298df7da7b45df1b730d3aa	169868341	1	main_slash	7	advance_on_keypress_SLASH	12	stimuli_distractor_trianglediamonds.svg	stimuli_target_trianglecircles.svg	25	yes	57	0	427
6.6.1	win	2022-12-14	12:14:34	12:20:49	372499	6298df7da7b45df1b730d3aa	169868341	1	main_slash	7	main_slash	13	stimuli_distractor_trianglediamonds.svg	stimuli_target_circletriangles.svg	9	yes	0	0	2000
6.6.1	win	2022-12-14	12:14:34	12:20:49	372499	6298df7da7b45df1b730d3aa	169868341	1	main_slash	7	advance_on_keypress_SLASH	14	stimuli_distractor_trianglediamonds.svg	stimuli_target_circletriangles.svg	9	yes	57	0	531
6.6.1	win	2022-12-14	12:14:34	12:20:52	374858	6298df7da7b45df1b730d3aa	169868341	1	main_slash	7	main_slash	15	stimuli_target_trianglesquares.svg	stimuli_distractor_trianglediamonds.svg	18	yes	53	1	1142
6.6.1	win	2022-12-14	12:14:34	12:20:52	374858	6298df7da7b45df1b730d3aa	169868341	1	main_slash	7	advance_on_keypress_SLASH	16	stimuli_target_trianglesquares.svg	stimuli_distractor_trianglediamonds.svg	18	yes	57	0	492
6.6.1	win	2022-12-14	12:14:34	12:20:55	378032	6298df7da7b45df1b730d3aa	169868341	1	main_slash	7	main_slash	17	stimuli_distractor_diamondtriangles.svg	stimuli_distractor_trianglediamonds.svg	37	no	0	1	2000
6.6.1	win	2022-12-14	12:14:34	12:20:55	378032	6298df7da7b45df1b730d3aa	169868341	1	main_slash	7	advance_on_keypress_SLASH	18	stimuli_distractor_diamondtriangles.svg	stimuli_distractor_trianglediamonds.svg	37	no	57	0	383
6.6.1	win	2022-12-14	12:14:34	12:20:57	380134	6298df7da7b45df1b730d3aa	169868341	1	main_slash	7	main_slash	19	stimuli_distractor_trianglediamonds.svg	stimuli_target_diamondcircles.svg	27	yes	53	1	1053
6.6.1	win	2022-12-14	12:14:34	12:20:57	380134	6298df7da7b45df1b730d3aa	169868341	1	main_slash	7	advance_on_keypress_SLASH	20	stimuli_distractor_trianglediamonds.svg	stimuli_target_diamondcircles.svg	27	yes	57	0	521
6.6.1	win	2022-12-14	12:14:34	12:20:59	382350	6298df7da7b45df1b730d3aa	169868341	1	main_slash	7	main_slash	21	stimuli_target_diamondsquares.svg	stimuli_distractor_diamondtriangles.svg	24	yes	53	1	1035
6.6.1	win	2022-12-14	12:14:34	12:20:59	382350	6298df7da7b45df1b730d3aa	169868341	1	main_slash	7	advance_on_keypress_SLASH	22	stimuli_target_diamondsquares.svg	stimuli_distractor_diamondtriangles.svg	24	yes	57	0	520
6.6.1	win	2022-12-14	12:14:34	12:21:03	385547	6298df7da7b45df1b730d3aa	169868341	1	main_slash	7	main_slash	23	stimuli_distractor_diamondtriangles.svg	stimuli_distractor_trianglediamonds.svg	38	no	0	1	2000
6.6.1	win	2022-12-14	12:14:34	12:21:03	385547	6298df7da7b45df1b730d3aa	169868341	1	main_slash	7	advance_on_keypress_SLASH	24	stimuli_distractor_diamondtriangles.svg	stimuli_distractor_trianglediamonds.svg	38	no	57	0	449
6.6.1	win	2022-12-14	12:14:34	12:21:05	387950	6298df7da7b45df1b730d3aa	169868341	1	main_slash	7	main_slash	25	stimuli_distractor_diamondtriangles.svg	stimuli_target_circletriangles.svg	13	yes	53	1	1287
6.6.1	win	2022-12-14	12:14:34	12:21:05	387950	6298df7da7b45df1b730d3aa	169868341	1	main_slash	7	advance_on_keypress_SLASH	26	stimuli_distractor_diamondtriangles.svg	stimuli_target_circletriangles.svg	13	yes	57	0	623
6.6.1	win	2022-12-14	12:14:34	12:21:08	390796	6298df7da7b45df1b730d3aa	169868341	1	main_slash	7	main_slash	27	stimuli_target_circlediamonds.svg	stimuli_distractor_diamondtriangles.svg	6	yes	53	1	1534
6.6.1	win	2022-12-14	12:14:34	12:21:08	390796	6298df7da7b45df1b730d3aa	169868341	1	main_slash	7	advance_on_keypress_SLASH	28	stimuli_target_circlediamonds.svg	stimuli_distractor_diamondtriangles.svg	6	yes	57	0	619
6.6.1	win	2022-12-14	12:14:34	12:21:11	394079	6298df7da7b45df1b730d3aa	169868341	1	main_slash	7	main_slash	29	stimuli_distractor_trianglediamonds.svg	stimuli_distractor_trianglediamonds.svg	33	no	0	1	2000
6.6.1	win	2022-12-14	12:14:34	12:21:11	394079	6298df7da7b45df1b730d3aa	169868341	1	main_slash	7	advance_on_keypress_SLASH	30	stimuli_distractor_trianglediamonds.svg	stimuli_distractor_trianglediamonds.svg	33	no	57	0	450
6.6.1	win	2022-12-14	12:14:34	12:21:14	397195	6298df7da7b45df1b730d3aa	169868341	1	main_slash	7	main_slash	31	stimuli_distractor_trianglediamonds.svg	stimuli_target_circlediamonds.svg	10	yes	0	0	2000
6.6.1	win	2022-12-14	12:14:34	12:21:14	397195	6298df7da7b45df1b730d3aa	169868341	1	main_slash	7	advance_on_keypress_SLASH	32	stimuli_distractor_trianglediamonds.svg	stimuli_target_circlediamonds.svg	10	yes	57	0	317
6.6.1	win	2022-12-14	12:14:34	12:21:16	399258	6298df7da7b45df1b730d3aa	169868341	1	main_slash	7	main_slash	33	stimuli_distractor_diamondtriangles.svg	stimuli_target_trianglesquares.svg	30	yes	53	1	1080
6.6.1	win	2022-12-14	12:14:34	12:21:16	399258	6298df7da7b45df1b730d3aa	169868341	1	main_slash	7	advance_on_keypress_SLASH	34	stimuli_distractor_diamondtriangles.svg	stimuli_target_trianglesquares.svg	30	yes	57	0	433
6.6.1	win	2022-12-14	12:14:34	12:21:19	401663	6298df7da7b45df1b730d3aa	169868341	1	main_slash	7	main_slash	35	stimuli_distractor_diamondtriangles.svg	stimuli_target_circlediamonds.svg	14	yes	53	1	1302
6.6.1	win	2022-12-14	12:14:34	12:21:19	401663	6298df7da7b45df1b730d3aa	169868341	1	main_slash	7	advance_on_keypress_SLASH	36	stimuli_distractor_diamondtriangles.svg	stimuli_target_circlediamonds.svg	14	yes	57	0	364
6.6.1	win	2022-12-14	12:14:34	12:21:21	404255	6298df7da7b45df1b730d3aa	169868341	1	main_slash	7	main_slash	37	stimuli_target_squaretriangles.svg	stimuli_distractor_diamondtriangles.svg	7	yes	53	1	1545
6.6.1	win	2022-12-14	12:14:34	12:21:21	404255	6298df7da7b45df1b730d3aa	169868341	1	main_slash	7	advance_on_keypress_SLASH	38	stimuli_target_squaretriangles.svg	stimuli_distractor_diamondtriangles.svg	7	yes	57	0	541
6.6.1	win	2022-12-14	12:14:34	12:21:24	406938	6298df7da7b45df1b730d3aa	169868341	1	main_slash	7	main_slash	39	stimuli_target_trianglesquares.svg	stimuli_distractor_diamondtriangles.svg	22	yes	53	1	1460
6.6.1	win	2022-12-14	12:14:34	12:21:24	406938	6298df7da7b45df1b730d3aa	169868341	1	main_slash	7	advance_on_keypress_SLASH	40	stimuli_target_trianglesquares.svg	stimuli_distractor_diamondtriangles.svg	22	yes	57	0	473
6.6.1	win	2022-12-14	12:14:34	12:21:26	409452	6298df7da7b45df1b730d3aa	169868341	1	main_slash	7	main_slash	41	stimuli_distractor_diamondtriangles.svg	stimuli_target_squaretriangles.svg	15	yes	53	1	1358
6.6.1	win	2022-12-14	12:14:34	12:21:26	409452	6298df7da7b45df1b730d3aa	169868341	1	main_slash	7	advance_on_keypress_SLASH	42	stimuli_distractor_diamondtriangles.svg	stimuli_target_squaretriangles.svg	15	yes	57	0	476
6.6.1	win	2022-12-14	12:14:34	12:21:29	411869	6298df7da7b45df1b730d3aa	169868341	1	main_slash	7	main_slash	43	stimuli_target_circletriangles.svg	stimuli_distractor_trianglediamonds.svg	1	yes	53	1	1242
6.6.1	win	2022-12-14	12:14:34	12:21:29	411869	6298df7da7b45df1b730d3aa	169868341	1	main_slash	7	advance_on_keypress_SLASH	44	stimuli_target_circletriangles.svg	stimuli_distractor_trianglediamonds.svg	1	yes	57	0	402
6.6.1	win	2022-12-14	12:14:34	12:21:31	413977	6298df7da7b45df1b730d3aa	169868341	1	main_slash	7	main_slash	45	stimuli_distractor_diamondtriangles.svg	stimuli_target_squarediamonds.svg	16	yes	53	1	1034
6.6.1	win	2022-12-14	12:14:34	12:21:31	413977	6298df7da7b45df1b730d3aa	169868341	1	main_slash	7	advance_on_keypress_SLASH	46	stimuli_distractor_diamondtriangles.svg	stimuli_target_squarediamonds.svg	16	yes	57	0	369
6.6.1	win	2022-12-14	12:14:34	12:21:34	417025	6298df7da7b45df1b730d3aa	169868341	1	main_slash	7	main_slash	47	stimuli_distractor_trianglediamonds.svg	stimuli_distractor_diamondtriangles.svg	36	no	0	1	2000
6.6.1	win	2022-12-14	12:14:34	12:21:34	417025	6298df7da7b45df1b730d3aa	169868341	1	main_slash	7	advance_on_keypress_SLASH	48	stimuli_distractor_trianglediamonds.svg	stimuli_distractor_diamondtriangles.svg	36	no	57	0	424
6.6.1	win	2022-12-14	12:14:34	12:21:36	419289	6298df7da7b45df1b730d3aa	169868341	1	main_slash	7	main_slash	49	stimuli_distractor_trianglediamonds.svg	stimuli_target_trianglesquares.svg	26	yes	53	1	1164
6.6.1	win	2022-12-14	12:14:34	12:21:36	419289	6298df7da7b45df1b730d3aa	169868341	1	main_slash	7	advance_on_keypress_SLASH	50	stimuli_distractor_trianglediamonds.svg	stimuli_target_trianglesquares.svg	26	yes	57	0	687
6.6.1	win	2022-12-14	12:14:34	12:21:39	421669	6298df7da7b45df1b730d3aa	169868341	1	main_slash	7	main_slash	51	stimuli_target_circlediamonds.svg	stimuli_distractor_trianglediamonds.svg	2	yes	53	1	1028
6.6.1	win	2022-12-14	12:14:34	12:21:39	421669	6298df7da7b45df1b730d3aa	169868341	1	main_slash	7	advance_on_keypress_SLASH	52	stimuli_target_circlediamonds.svg	stimuli_distractor_trianglediamonds.svg	2	yes	57	0	486
6.6.1	win	2022-12-14	12:14:34	12:21:41	423914	6298df7da7b45df1b730d3aa	169868341	1	main_slash	7	main_slash	53	stimuli_target_circletriangles.svg	stimuli_distractor_diamondtriangles.svg	5	yes	53	1	1090
6.6.1	win	2022-12-14	12:14:34	12:21:41	423914	6298df7da7b45df1b730d3aa	169868341	1	main_slash	7	advance_on_keypress_SLASH	54	stimuli_target_circletriangles.svg	stimuli_distractor_diamondtriangles.svg	5	yes	57	0	498
6.6.1	win	2022-12-14	12:14:34	12:21:43	426183	6298df7da7b45df1b730d3aa	169868341	1	main_slash	7	main_slash	55	stimuli_target_diamondcircles.svg	stimuli_distractor_diamondtriangles.svg	23	yes	53	1	1092
6.6.1	win	2022-12-14	12:14:34	12:21:43	426183	6298df7da7b45df1b730d3aa	169868341	1	main_slash	7	advance_on_keypress_SLASH	56	stimuli_target_diamondcircles.svg	stimuli_distractor_diamondtriangles.svg	23	yes	57	0	473
6.6.1	win	2022-12-14	12:14:34	12:21:46	429340	6298df7da7b45df1b730d3aa	169868341	1	main_slash	7	main_slash	57	stimuli_distractor_trianglediamonds.svg	stimuli_distractor_diamondtriangles.svg	35	no	0	1	2000
6.6.1	win	2022-12-14	12:14:34	12:21:46	429340	6298df7da7b45df1b730d3aa	169868341	1	main_slash	7	advance_on_keypress_SLASH	58	stimuli_distractor_trianglediamonds.svg	stimuli_distractor_diamondtriangles.svg	35	no	57	0	401
6.6.1	win	2022-12-14	12:14:34	12:21:49	431640	6298df7da7b45df1b730d3aa	169868341	1	main_slash	7	main_slash	59	stimuli_target_squarediamonds.svg	stimuli_distractor_trianglediamonds.svg	4	yes	53	1	1217
6.6.1	win	2022-12-14	12:14:34	12:21:49	431640	6298df7da7b45df1b730d3aa	169868341	1	main_slash	7	advance_on_keypress_SLASH	60	stimuli_target_squarediamonds.svg	stimuli_distractor_trianglediamonds.svg	4	yes	57	0	364
6.6.1	win	2022-12-14	12:14:34	12:21:51	433730	6298df7da7b45df1b730d3aa	169868341	1	main_slash	7	main_slash	61	stimuli_distractor_diamondtriangles.svg	stimuli_target_diamondcircles.svg	31	yes	53	1	1041
6.6.1	win	2022-12-14	12:14:34	12:21:51	433730	6298df7da7b45df1b730d3aa	169868341	1	main_slash	7	advance_on_keypress_SLASH	62	stimuli_distractor_diamondtriangles.svg	stimuli_target_diamondcircles.svg	31	yes	57	0	446
6.6.1	win	2022-12-14	12:14:34	12:21:53	435965	6298df7da7b45df1b730d3aa	169868341	1	main_slash	7	main_slash	63	stimuli_target_squarediamonds.svg	stimuli_distractor_diamondtriangles.svg	8	yes	53	1	1110
6.6.1	win	2022-12-14	12:14:34	12:21:53	435965	6298df7da7b45df1b730d3aa	169868341	1	main_slash	7	advance_on_keypress_SLASH	64	stimuli_target_squarediamonds.svg	stimuli_distractor_diamondtriangles.svg	8	yes	57	0	1060
6.6.1	win	2022-12-14	12:14:34	12:21:56	438838	6298df7da7b45df1b730d3aa	169868341	1	main_slash	7	main_slash	65	stimuli_target_diamondcircles.svg	stimuli_distractor_trianglediamonds.svg	19	yes	53	1	1132
6.6.1	win	2022-12-14	12:14:34	12:21:56	438838	6298df7da7b45df1b730d3aa	169868341	1	main_slash	7	advance_on_keypress_SLASH	66	stimuli_target_diamondcircles.svg	stimuli_distractor_trianglediamonds.svg	19	yes	57	0	570
6.6.1	win	2022-12-14	12:14:34	12:21:59	442072	6298df7da7b45df1b730d3aa	169868341	1	main_slash	7	main_slash	67	stimuli_distractor_diamondtriangles.svg	stimuli_distractor_diamondtriangles.svg	39	no	0	1	2000
6.6.1	win	2022-12-14	12:14:34	12:21:59	442072	6298df7da7b45df1b730d3aa	169868341	1	main_slash	7	advance_on_keypress_SLASH	68	stimuli_distractor_diamondtriangles.svg	stimuli_distractor_diamondtriangles.svg	39	no	57	0	503
6.6.1	win	2022-12-14	12:14:34	12:22:01	444336	6298df7da7b45df1b730d3aa	169868341	1	main_slash	7	main_slash	69	stimuli_distractor_diamondtriangles.svg	stimuli_target_trianglecircles.svg	29	yes	53	1	1098
6.6.1	win	2022-12-14	12:14:34	12:22:01	444336	6298df7da7b45df1b730d3aa	169868341	1	main_slash	7	advance_on_keypress_SLASH	70	stimuli_distractor_diamondtriangles.svg	stimuli_target_trianglecircles.svg	29	yes	57	0	493
6.6.1	win	2022-12-14	12:14:34	12:22:04	446793	6298df7da7b45df1b730d3aa	169868341	1	main_slash	7	main_slash	71	stimuli_target_squaretriangles.svg	stimuli_distractor_trianglediamonds.svg	3	yes	53	1	1289
6.6.1	win	2022-12-14	12:14:34	12:22:04	446793	6298df7da7b45df1b730d3aa	169868341	1	main_slash	7	advance_on_keypress_SLASH	72	stimuli_target_squaretriangles.svg	stimuli_distractor_trianglediamonds.svg	3	yes	57	0	432
6.6.1	win	2022-12-14	12:14:34	12:22:06	448997	6298df7da7b45df1b730d3aa	169868341	1	main_slash	7	main_slash	73	stimuli_distractor_trianglediamonds.svg	stimuli_target_squarediamonds.svg	12	yes	53	1	1093
6.6.1	win	2022-12-14	12:14:34	12:22:06	448997	6298df7da7b45df1b730d3aa	169868341	1	main_slash	7	advance_on_keypress_SLASH	74	stimuli_distractor_trianglediamonds.svg	stimuli_target_squarediamonds.svg	12	yes	57	0	438
6.6.1	win	2022-12-14	12:14:34	12:22:08	451187	6298df7da7b45df1b730d3aa	169868341	1	main_slash	7	main_slash	75	stimuli_distractor_trianglediamonds.svg	stimuli_target_diamondsquares.svg	28	yes	53	1	1083
6.6.1	win	2022-12-14	12:14:34	12:22:08	451187	6298df7da7b45df1b730d3aa	169868341	1	main_slash	7	advance_on_keypress_SLASH	76	stimuli_distractor_trianglediamonds.svg	stimuli_target_diamondsquares.svg	28	yes	57	0	546
6.6.1	win	2022-12-14	12:14:34	12:22:11	453649	6298df7da7b45df1b730d3aa	169868341	1	main_slash	7	main_slash	77	stimuli_distractor_diamondtriangles.svg	stimuli_target_diamondsquares.svg	32	yes	53	1	1230
6.6.1	win	2022-12-14	12:14:34	12:22:11	453649	6298df7da7b45df1b730d3aa	169868341	1	main_slash	7	advance_on_keypress_SLASH	78	stimuli_distractor_diamondtriangles.svg	stimuli_target_diamondsquares.svg	32	yes	57	0	418
6.6.1	win	2022-12-14	12:14:34	12:22:13	456076	6298df7da7b45df1b730d3aa	169868341	1	main_slash	7	main_slash	79	stimuli_target_trianglecircles.svg	stimuli_distractor_diamondtriangles.svg	21	yes	53	1	1340
6.6.1	win	2022-12-14	12:14:34	12:22:13	456076	6298df7da7b45df1b730d3aa	169868341	1	main_slash	7	advance_on_keypress_SLASH	80	stimuli_target_trianglecircles.svg	stimuli_distractor_diamondtriangles.svg	21	yes	57	0	426
6.6.1	win	2022-12-14	12:14:34	12:22:15	458261	6298df7da7b45df1b730d3aa	169868341	1	main_slash	7	main_slash	81	stimuli_target_squaretriangles.svg	stimuli_distractor_diamondtriangles.svg	7	yes	53	1	1076
6.6.1	win	2022-12-14	12:14:34	12:22:15	458261	6298df7da7b45df1b730d3aa	169868341	1	main_slash	7	advance_on_keypress_SLASH	82	stimuli_target_squaretriangles.svg	stimuli_distractor_diamondtriangles.svg	7	yes	57	0	333
6.6.1	win	2022-12-14	12:14:34	12:22:18	460836	6298df7da7b45df1b730d3aa	169868341	1	main_slash	7	main_slash	83	stimuli_target_squarediamonds.svg	stimuli_distractor_trianglediamonds.svg	4	yes	53	1	1567
6.6.1	win	2022-12-14	12:14:34	12:22:18	460836	6298df7da7b45df1b730d3aa	169868341	1	main_slash	7	advance_on_keypress_SLASH	84	stimuli_target_squarediamonds.svg	stimuli_distractor_trianglediamonds.svg	4	yes	57	0	530
6.6.1	win	2022-12-14	12:14:34	12:22:20	463202	6298df7da7b45df1b730d3aa	169868341	1	main_slash	7	main_slash	85	stimuli_distractor_trianglediamonds.svg	stimuli_target_diamondsquares.svg	28	yes	53	1	1168
6.6.1	win	2022-12-14	12:14:34	12:22:20	463202	6298df7da7b45df1b730d3aa	169868341	1	main_slash	7	advance_on_keypress_SLASH	86	stimuli_distractor_trianglediamonds.svg	stimuli_target_diamondsquares.svg	28	yes	57	0	530
6.6.1	win	2022-12-14	12:14:34	12:22:23	466401	6298df7da7b45df1b730d3aa	169868341	1	main_slash	7	main_slash	87	stimuli_distractor_diamondtriangles.svg	stimuli_distractor_diamondtriangles.svg	40	no	0	1	2000
6.6.1	win	2022-12-14	12:14:34	12:22:23	466401	6298df7da7b45df1b730d3aa	169868341	1	main_slash	7	advance_on_keypress_SLASH	88	stimuli_distractor_diamondtriangles.svg	stimuli_distractor_diamondtriangles.svg	40	no	57	0	482
6.6.1	win	2022-12-14	12:14:34	12:22:26	468709	6298df7da7b45df1b730d3aa	169868341	1	main_slash	7	main_slash	89	stimuli_target_diamondsquares.svg	stimuli_distractor_trianglediamonds.svg	20	yes	53	1	1159
6.6.1	win	2022-12-14	12:14:34	12:22:26	468709	6298df7da7b45df1b730d3aa	169868341	1	main_slash	7	advance_on_keypress_SLASH	90	stimuli_target_diamondsquares.svg	stimuli_distractor_trianglediamonds.svg	20	yes	57	0	487
6.6.1	win	2022-12-14	12:14:34	12:22:28	470920	6298df7da7b45df1b730d3aa	169868341	1	main_slash	7	main_slash	91	stimuli_distractor_diamondtriangles.svg	stimuli_target_trianglesquares.svg	30	yes	53	1	1053
6.6.1	win	2022-12-14	12:14:34	12:22:28	470920	6298df7da7b45df1b730d3aa	169868341	1	main_slash	7	advance_on_keypress_SLASH	92	stimuli_distractor_diamondtriangles.svg	stimuli_target_trianglesquares.svg	30	yes	57	0	402
6.6.1	win	2022-12-14	12:14:34	12:22:30	473206	6298df7da7b45df1b730d3aa	169868341	1	main_slash	7	main_slash	93	stimuli_distractor_diamondtriangles.svg	stimuli_target_diamondsquares.svg	32	yes	53	1	1205
6.6.1	win	2022-12-14	12:14:34	12:22:30	473206	6298df7da7b45df1b730d3aa	169868341	1	main_slash	7	advance_on_keypress_SLASH	94	stimuli_distractor_diamondtriangles.svg	stimuli_target_diamondsquares.svg	32	yes	57	0	398
6.6.1	win	2022-12-14	12:14:34	12:22:33	475904	6298df7da7b45df1b730d3aa	169868341	1	main_slash	7	main_slash	95	stimuli_distractor_trianglediamonds.svg	stimuli_target_squarediamonds.svg	12	yes	53	1	1621
6.6.1	win	2022-12-14	12:14:34	12:22:33	475904	6298df7da7b45df1b730d3aa	169868341	1	main_slash	7	advance_on_keypress_SLASH	96	stimuli_distractor_trianglediamonds.svg	stimuli_target_squarediamonds.svg	12	yes	57	0	433
6.6.1	win	2022-12-14	12:14:34	12:22:36	478876	6298df7da7b45df1b730d3aa	169868341	1	main_slash	7	main_slash	97	stimuli_target_trianglesquares.svg	stimuli_distractor_trianglediamonds.svg	18	yes	53	1	1860
6.6.1	win	2022-12-14	12:14:34	12:22:36	478876	6298df7da7b45df1b730d3aa	169868341	1	main_slash	7	advance_on_keypress_SLASH	98	stimuli_target_trianglesquares.svg	stimuli_distractor_trianglediamonds.svg	18	yes	57	0	513
6.6.1	win	2022-12-14	12:14:34	12:22:39	482065	6298df7da7b45df1b730d3aa	169868341	1	main_slash	7	main_slash	99	stimuli_distractor_trianglediamonds.svg	stimuli_target_diamondcircles.svg	27	yes	0	0	2000
6.6.1	win	2022-12-14	12:14:34	12:22:39	482065	6298df7da7b45df1b730d3aa	169868341	1	main_slash	7	advance_on_keypress_SLASH	100	stimuli_distractor_trianglediamonds.svg	stimuli_target_diamondcircles.svg	27	yes	57	0	451
6.6.1	win	2022-12-14	12:14:34	12:22:42	484638	6298df7da7b45df1b730d3aa	169868341	1	main_slash	7	main_slash	101	stimuli_target_diamondcircles.svg	stimuli_distractor_trianglediamonds.svg	19	yes	53	1	1456
6.6.1	win	2022-12-14	12:14:34	12:22:42	484638	6298df7da7b45df1b730d3aa	169868341	1	main_slash	7	advance_on_keypress_SLASH	102	stimuli_target_diamondcircles.svg	stimuli_distractor_trianglediamonds.svg	19	yes	57	0	1008
6.6.1	win	2022-12-14	12:14:34	12:22:45	487856	6298df7da7b45df1b730d3aa	169868341	1	main_slash	7	main_slash	103	stimuli_target_diamondsquares.svg	stimuli_distractor_diamondtriangles.svg	24	yes	53	1	1509
6.6.1	win	2022-12-14	12:14:34	12:22:45	487856	6298df7da7b45df1b730d3aa	169868341	1	main_slash	7	advance_on_keypress_SLASH	104	stimuli_target_diamondsquares.svg	stimuli_distractor_diamondtriangles.svg	24	yes	57	0	330
6.6.1	win	2022-12-14	12:14:34	12:22:47	490086	6298df7da7b45df1b730d3aa	169868341	1	main_slash	7	main_slash	105	stimuli_distractor_diamondtriangles.svg	stimuli_target_squarediamonds.svg	16	yes	53	1	1221
6.6.1	win	2022-12-14	12:14:34	12:22:47	490086	6298df7da7b45df1b730d3aa	169868341	1	main_slash	7	advance_on_keypress_SLASH	106	stimuli_distractor_diamondtriangles.svg	stimuli_target_squarediamonds.svg	16	yes	57	0	458
6.6.1	win	2022-12-14	12:14:34	12:22:49	492487	6298df7da7b45df1b730d3aa	169868341	1	main_slash	7	main_slash	107	stimuli_target_circletriangles.svg	stimuli_distractor_trianglediamonds.svg	1	yes	53	1	1256
6.6.1	win	2022-12-14	12:14:34	12:22:49	492487	6298df7da7b45df1b730d3aa	169868341	1	main_slash	7	advance_on_keypress_SLASH	108	stimuli_target_circletriangles.svg	stimuli_distractor_trianglediamonds.svg	1	yes	57	0	408
6.6.1	win	2022-12-14	12:14:34	12:22:52	494677	6298df7da7b45df1b730d3aa	169868341	1	main_slash	7	main_slash	109	stimuli_target_trianglesquares.svg	stimuli_distractor_diamondtriangles.svg	22	yes	53	1	1081
6.6.1	win	2022-12-14	12:14:34	12:22:52	494677	6298df7da7b45df1b730d3aa	169868341	1	main_slash	7	advance_on_keypress_SLASH	110	stimuli_target_trianglesquares.svg	stimuli_distractor_diamondtriangles.svg	22	yes	57	0	370
6.6.1	win	2022-12-14	12:14:34	12:22:54	496888	6298df7da7b45df1b730d3aa	169868341	1	main_slash	7	main_slash	111	stimuli_target_circlediamonds.svg	stimuli_distractor_trianglediamonds.svg	2	yes	53	1	1174
6.6.1	win	2022-12-14	12:14:34	12:22:54	496888	6298df7da7b45df1b730d3aa	169868341	1	main_slash	7	advance_on_keypress_SLASH	112	stimuli_target_circlediamonds.svg	stimuli_distractor_trianglediamonds.svg	2	yes	57	0	481
6.6.1	win	2022-12-14	12:14:34	12:22:57	500046	6298df7da7b45df1b730d3aa	169868341	1	main_slash	7	main_slash	113	stimuli_distractor_diamondtriangles.svg	stimuli_distractor_trianglediamonds.svg	37	no	0	1	2000
6.6.1	win	2022-12-14	12:14:34	12:22:57	500046	6298df7da7b45df1b730d3aa	169868341	1	main_slash	7	advance_on_keypress_SLASH	114	stimuli_distractor_diamondtriangles.svg	stimuli_distractor_trianglediamonds.svg	37	no	57	0	624
6.6.1	win	2022-12-14	12:14:34	12:23:00	502517	6298df7da7b45df1b730d3aa	169868341	1	main_slash	7	main_slash	115	stimuli_distractor_trianglediamonds.svg	stimuli_target_trianglesquares.svg	26	yes	53	1	1154
6.6.1	win	2022-12-14	12:14:34	12:23:00	502517	6298df7da7b45df1b730d3aa	169868341	1	main_slash	7	advance_on_keypress_SLASH	116	stimuli_distractor_trianglediamonds.svg	stimuli_target_trianglesquares.svg	26	yes	57	0	424
6.6.1	win	2022-12-14	12:14:34	12:23:02	505157	6298df7da7b45df1b730d3aa	169868341	1	main_slash	7	main_slash	117	stimuli_distractor_diamondtriangles.svg	stimuli_target_squaretriangles.svg	15	yes	53	1	1511
6.6.1	win	2022-12-14	12:14:34	12:23:02	505157	6298df7da7b45df1b730d3aa	169868341	1	main_slash	7	advance_on_keypress_SLASH	118	stimuli_distractor_diamondtriangles.svg	stimuli_target_squaretriangles.svg	15	yes	57	0	705
6.6.1	win	2022-12-14	12:14:34	12:23:05	508338	6298df7da7b45df1b730d3aa	169868341	1	main_slash	7	main_slash	119	stimuli_target_circletriangles.svg	stimuli_distractor_diamondtriangles.svg	5	yes	53	1	1810
6.6.1	win	2022-12-14	12:14:34	12:23:05	508338	6298df7da7b45df1b730d3aa	169868341	1	main_slash	7	advance_on_keypress_SLASH	120	stimuli_target_circletriangles.svg	stimuli_distractor_diamondtriangles.svg	5	yes	57	0	442
6.6.1	win	2022-12-14	12:14:34	12:23:08	510595	6298df7da7b45df1b730d3aa	169868341	1	main_slash	7	main_slash	121	stimuli_distractor_diamondtriangles.svg	stimuli_target_diamondcircles.svg	31	yes	53	1	1135
6.6.1	win	2022-12-14	12:14:34	12:23:08	510595	6298df7da7b45df1b730d3aa	169868341	1	main_slash	7	advance_on_keypress_SLASH	122	stimuli_distractor_diamondtriangles.svg	stimuli_target_diamondcircles.svg	31	yes	57	0	355
6.6.1	win	2022-12-14	12:14:34	12:23:11	513627	6298df7da7b45df1b730d3aa	169868341	1	main_slash	7	main_slash	123	stimuli_distractor_trianglediamonds.svg	stimuli_target_circlediamonds.svg	10	yes	0	0	2000
6.6.1	win	2022-12-14	12:14:34	12:23:11	513627	6298df7da7b45df1b730d3aa	169868341	1	main_slash	7	advance_on_keypress_SLASH	124	stimuli_distractor_trianglediamonds.svg	stimuli_target_circlediamonds.svg	10	yes	57	0	490
6.6.1	win	2022-12-14	12:14:34	12:23:13	515900	6298df7da7b45df1b730d3aa	169868341	1	main_slash	7	main_slash	125	stimuli_target_diamondcircles.svg	stimuli_distractor_diamondtriangles.svg	23	yes	53	1	1107
6.6.1	win	2022-12-14	12:14:34	12:23:13	515900	6298df7da7b45df1b730d3aa	169868341	1	main_slash	7	advance_on_keypress_SLASH	126	stimuli_target_diamondcircles.svg	stimuli_distractor_diamondtriangles.svg	23	yes	57	0	410
6.6.1	win	2022-12-14	12:14:34	12:23:16	518993	6298df7da7b45df1b730d3aa	169868341	1	main_slash	7	main_slash	127	stimuli_distractor_trianglediamonds.svg	stimuli_distractor_trianglediamonds.svg	33	no	0	1	2000
6.6.1	win	2022-12-14	12:14:34	12:23:16	518993	6298df7da7b45df1b730d3aa	169868341	1	main_slash	7	advance_on_keypress_SLASH	128	stimuli_distractor_trianglediamonds.svg	stimuli_distractor_trianglediamonds.svg	33	no	57	0	523
6.6.1	win	2022-12-14	12:14:34	12:23:18	521328	6298df7da7b45df1b730d3aa	169868341	1	main_slash	7	main_slash	129	stimuli_target_trianglecircles.svg	stimuli_distractor_trianglediamonds.svg	17	yes	53	1	1118
6.6.1	win	2022-12-14	12:14:34	12:23:18	521328	6298df7da7b45df1b730d3aa	169868341	1	main_slash	7	advance_on_keypress_SLASH	130	stimuli_target_trianglecircles.svg	stimuli_distractor_trianglediamonds.svg	17	yes	57	0	436
6.6.1	win	2022-12-14	12:14:34	12:23:21	524442	6298df7da7b45df1b730d3aa	169868341	1	main_slash	7	main_slash	131	stimuli_distractor_diamondtriangles.svg	stimuli_distractor_diamondtriangles.svg	39	no	0	1	2000
6.6.1	win	2022-12-14	12:14:34	12:23:21	524442	6298df7da7b45df1b730d3aa	169868341	1	main_slash	7	advance_on_keypress_SLASH	132	stimuli_distractor_diamondtriangles.svg	stimuli_distractor_diamondtriangles.svg	39	no	57	0	494
6.6.1	win	2022-12-14	12:14:34	12:23:25	527625	6298df7da7b45df1b730d3aa	169868341	1	main_slash	7	main_slash	133	stimuli_distractor_trianglediamonds.svg	stimuli_distractor_trianglediamonds.svg	34	no	0	1	2000
6.6.1	win	2022-12-14	12:14:34	12:23:25	527625	6298df7da7b45df1b730d3aa	169868341	1	main_slash	7	advance_on_keypress_SLASH	134	stimuli_distractor_trianglediamonds.svg	stimuli_distractor_trianglediamonds.svg	34	no	57	0	348
6.6.1	win	2022-12-14	12:14:34	12:23:27	530076	6298df7da7b45df1b730d3aa	169868341	1	main_slash	7	main_slash	135	stimuli_distractor_diamondtriangles.svg	stimuli_target_trianglecircles.svg	29	yes	53	1	1435
6.6.1	win	2022-12-14	12:14:34	12:23:27	530076	6298df7da7b45df1b730d3aa	169868341	1	main_slash	7	advance_on_keypress_SLASH	136	stimuli_distractor_diamondtriangles.svg	stimuli_target_trianglecircles.svg	29	yes	57	0	492
6.6.1	win	2022-12-14	12:14:34	12:23:30	533258	6298df7da7b45df1b730d3aa	169868341	1	main_slash	7	main_slash	137	stimuli_target_trianglecircles.svg	stimuli_distractor_diamondtriangles.svg	21	yes	0	0	2000
6.6.1	win	2022-12-14	12:14:34	12:23:30	533258	6298df7da7b45df1b730d3aa	169868341	1	main_slash	7	advance_on_keypress_SLASH	138	stimuli_target_trianglecircles.svg	stimuli_distractor_diamondtriangles.svg	21	yes	57	0	905
6.6.1	win	2022-12-14	12:14:34	12:23:33	536304	6298df7da7b45df1b730d3aa	169868341	1	main_slash	7	main_slash	139	stimuli_distractor_diamondtriangles.svg	stimuli_target_circletriangles.svg	13	yes	53	1	1448
6.6.1	win	2022-12-14	12:14:34	12:23:33	536304	6298df7da7b45df1b730d3aa	169868341	1	main_slash	7	advance_on_keypress_SLASH	140	stimuli_distractor_diamondtriangles.svg	stimuli_target_circletriangles.svg	13	yes	57	0	561
6.6.1	win	2022-12-14	12:14:34	12:23:37	539556	6298df7da7b45df1b730d3aa	169868341	1	main_slash	7	main_slash	141	stimuli_distractor_diamondtriangles.svg	stimuli_distractor_trianglediamonds.svg	38	no	0	1	2000
6.6.1	win	2022-12-14	12:14:34	12:23:37	539556	6298df7da7b45df1b730d3aa	169868341	1	main_slash	7	advance_on_keypress_SLASH	142	stimuli_distractor_diamondtriangles.svg	stimuli_distractor_trianglediamonds.svg	38	no	57	0	510
6.6.1	win	2022-12-14	12:14:34	12:23:40	542739	6298df7da7b45df1b730d3aa	169868341	1	main_slash	7	main_slash	143	stimuli_distractor_trianglediamonds.svg	stimuli_distractor_diamondtriangles.svg	36	no	0	1	2000
6.6.1	win	2022-12-14	12:14:34	12:23:40	542739	6298df7da7b45df1b730d3aa	169868341	1	main_slash	7	advance_on_keypress_SLASH	144	stimuli_distractor_trianglediamonds.svg	stimuli_distractor_diamondtriangles.svg	36	no	57	0	398
6.6.1	win	2022-12-14	12:14:34	12:23:42	544904	6298df7da7b45df1b730d3aa	169868341	1	main_slash	7	main_slash	145	stimuli_target_squaretriangles.svg	stimuli_distractor_trianglediamonds.svg	3	yes	53	1	1082
6.6.1	win	2022-12-14	12:14:34	12:23:42	544904	6298df7da7b45df1b730d3aa	169868341	1	main_slash	7	advance_on_keypress_SLASH	146	stimuli_target_squaretriangles.svg	stimuli_distractor_trianglediamonds.svg	3	yes	57	0	484
6.6.1	win	2022-12-14	12:14:34	12:23:45	548072	6298df7da7b45df1b730d3aa	169868341	1	main_slash	7	main_slash	147	stimuli_distractor_trianglediamonds.svg	stimuli_distractor_diamondtriangles.svg	35	no	0	1	2000
6.6.1	win	2022-12-14	12:14:34	12:23:45	548072	6298df7da7b45df1b730d3aa	169868341	1	main_slash	7	advance_on_keypress_SLASH	148	stimuli_distractor_trianglediamonds.svg	stimuli_distractor_diamondtriangles.svg	35	no	57	0	574
6.6.1	win	2022-12-14	12:14:34	12:23:48	551017	6298df7da7b45df1b730d3aa	169868341	1	main_slash	7	main_slash	149	stimuli_target_circlediamonds.svg	stimuli_distractor_diamondtriangles.svg	6	yes	53	1	1679
6.6.1	win	2022-12-14	12:14:34	12:23:48	551017	6298df7da7b45df1b730d3aa	169868341	1	main_slash	7	advance_on_keypress_SLASH	150	stimuli_target_circlediamonds.svg	stimuli_distractor_diamondtriangles.svg	6	yes	57	0	543
6.6.1	win	2022-12-14	12:14:34	12:23:51	554238	6298df7da7b45df1b730d3aa	169868341	1	main_slash	7	main_slash	151	stimuli_distractor_trianglediamonds.svg	stimuli_target_circletriangles.svg	9	yes	0	0	2000
6.6.1	win	2022-12-14	12:14:34	12:23:51	554238	6298df7da7b45df1b730d3aa	169868341	1	main_slash	7	advance_on_keypress_SLASH	152	stimuli_distractor_trianglediamonds.svg	stimuli_target_circletriangles.svg	9	yes	57	0	406
6.6.1	win	2022-12-14	12:14:34	12:23:53	556433	6298df7da7b45df1b730d3aa	169868341	1	main_slash	7	main_slash	153	stimuli_target_squarediamonds.svg	stimuli_distractor_diamondtriangles.svg	8	yes	53	1	1096
6.6.1	win	2022-12-14	12:14:34	12:23:53	556433	6298df7da7b45df1b730d3aa	169868341	1	main_slash	7	advance_on_keypress_SLASH	154	stimuli_target_squarediamonds.svg	stimuli_distractor_diamondtriangles.svg	8	yes	57	0	470
6.6.1	win	2022-12-14	12:14:34	12:23:57	559570	6298df7da7b45df1b730d3aa	169868341	1	main_slash	7	main_slash	155	stimuli_distractor_trianglediamonds.svg	stimuli_target_squaretriangles.svg	11	yes	0	0	2000
6.6.1	win	2022-12-14	12:14:34	12:23:57	559570	6298df7da7b45df1b730d3aa	169868341	1	main_slash	7	advance_on_keypress_SLASH	156	stimuli_distractor_trianglediamonds.svg	stimuli_target_squaretriangles.svg	11	yes	57	0	1163
6.6.1	win	2022-12-14	12:14:34	12:24:00	562687	6298df7da7b45df1b730d3aa	169868341	1	main_slash	7	main_slash	157	stimuli_distractor_diamondtriangles.svg	stimuli_target_circlediamonds.svg	14	yes	53	1	1285
6.6.1	win	2022-12-14	12:14:34	12:24:00	562687	6298df7da7b45df1b730d3aa	169868341	1	main_slash	7	advance_on_keypress_SLASH	158	stimuli_distractor_diamondtriangles.svg	stimuli_target_circlediamonds.svg	14	yes	57	0	466
6.6.1	win	2022-12-14	12:14:34	12:24:02	565280	6298df7da7b45df1b730d3aa	169868341	1	main_slash	7	main_slash	159	stimuli_distractor_trianglediamonds.svg	stimuli_target_trianglecircles.svg	25	yes	53	1	1462
6.6.1	win	2022-12-14	12:14:34	12:24:02	565280	6298df7da7b45df1b730d3aa	169868341	1	main_slash	7	advance_on_keypress_SLASH	160	stimuli_distractor_trianglediamonds.svg	stimuli_target_trianglecircles.svg	25	yes	57	0	578
6.6.1	win	2022-12-14	12:14:34	12:24:35	597655	6298df7da7b45df1b730d3aa	169868341	1	practice_z	9	practice_z	1	stimuli_distractor_diamondtriangles.svg	stimuli_distractor_trianglediamonds.svg	14	no	0	1	2000
6.6.1	win	2022-12-14	12:14:34	12:24:35	597655	6298df7da7b45df1b730d3aa	169868341	1	practice_z	9	advance_on_keypress_ZEE	2	stimuli_distractor_diamondtriangles.svg	stimuli_distractor_trianglediamonds.svg	14	no	57	0	1275
6.6.1	win	2022-12-14	12:14:34	12:24:40	602621	6298df7da7b45df1b730d3aa	169868341	1	practice_z	9	practice_z	3	stimuli_distractor_diamondtriangles.svg	stimuli_distractor_diamondtriangles.svg	13	no	0	1	2000
6.6.1	win	2022-12-14	12:14:34	12:24:40	602621	6298df7da7b45df1b730d3aa	169868341	1	practice_z	9	advance_on_keypress_ZEE	4	stimuli_distractor_diamondtriangles.svg	stimuli_distractor_diamondtriangles.svg	13	no	57	0	371
6.6.1	win	2022-12-14	12:14:34	12:24:42	605426	6298df7da7b45df1b730d3aa	169868341	1	practice_z	9	practice_z	5	stimuli_distractor_diamondtriangles.svg	stimuli_target_circletriangles.svg	7	yes	44	1	756
6.6.1	win	2022-12-14	12:14:34	12:24:42	605426	6298df7da7b45df1b730d3aa	169868341	1	practice_z	9	advance_on_keypress_ZEE	6	stimuli_distractor_diamondtriangles.svg	stimuli_target_circletriangles.svg	7	yes	57	0	402
6.6.1	win	2022-12-14	12:14:34	12:24:45	608019	6298df7da7b45df1b730d3aa	169868341	1	practice_z	9	practice_z	7	stimuli_target_squarediamonds.svg	stimuli_distractor_trianglediamonds.svg	5	yes	44	1	500
6.6.1	win	2022-12-14	12:14:34	12:24:45	608019	6298df7da7b45df1b730d3aa	169868341	1	practice_z	9	advance_on_keypress_ZEE	8	stimuli_target_squarediamonds.svg	stimuli_distractor_trianglediamonds.svg	5	yes	57	0	516
6.6.1	win	2022-12-14	12:14:34	12:24:49	612220	6298df7da7b45df1b730d3aa	169868341	1	practice_z	9	practice_z	9	stimuli_target_diamondsquares.svg	stimuli_distractor_trianglediamonds.svg	6	yes	0	0	2000
6.6.1	win	2022-12-14	12:14:34	12:24:49	612220	6298df7da7b45df1b730d3aa	169868341	1	practice_z	9	advance_on_keypress_ZEE	10	stimuli_target_diamondsquares.svg	stimuli_distractor_trianglediamonds.svg	6	yes	57	0	493
6.6.1	win	2022-12-14	12:14:34	12:24:53	616402	6298df7da7b45df1b730d3aa	169868341	1	practice_z	9	practice_z	11	stimuli_distractor_trianglediamonds.svg	stimuli_distractor_trianglediamonds.svg	15	no	0	1	2000
6.6.1	win	2022-12-14	12:14:34	12:24:53	616402	6298df7da7b45df1b730d3aa	169868341	1	practice_z	9	advance_on_keypress_ZEE	12	stimuli_distractor_trianglediamonds.svg	stimuli_distractor_trianglediamonds.svg	15	no	57	0	715
6.6.1	win	2022-12-14	12:14:34	12:24:57	620039	6298df7da7b45df1b730d3aa	169868341	1	practice_z	9	practice_z	13	stimuli_distractor_diamondtriangles.svg	stimuli_target_trianglecircles.svg	9	yes	44	1	1237
6.6.1	win	2022-12-14	12:14:34	12:24:57	620039	6298df7da7b45df1b730d3aa	169868341	1	practice_z	9	advance_on_keypress_ZEE	14	stimuli_distractor_diamondtriangles.svg	stimuli_target_trianglecircles.svg	9	yes	57	0	499
6.6.1	win	2022-12-14	12:14:34	12:25:01	623784	6298df7da7b45df1b730d3aa	169868341	1	practice_z	9	practice_z	15	stimuli_distractor_trianglediamonds.svg	stimuli_target_squarediamonds.svg	11	yes	44	1	1566
6.6.1	win	2022-12-14	12:14:34	12:25:01	623784	6298df7da7b45df1b730d3aa	169868341	1	practice_z	9	advance_on_keypress_ZEE	16	stimuli_distractor_trianglediamonds.svg	stimuli_target_squarediamonds.svg	11	yes	57	0	592
6.6.1	win	2022-12-14	12:14:34	12:25:05	627521	6298df7da7b45df1b730d3aa	169868341	1	practice_z	9	practice_z	17	stimuli_distractor_diamondtriangles.svg	stimuli_target_diamondcircles.svg	8	yes	44	1	1454
6.6.1	win	2022-12-14	12:14:34	12:25:05	627521	6298df7da7b45df1b730d3aa	169868341	1	practice_z	9	advance_on_keypress_ZEE	18	stimuli_distractor_diamondtriangles.svg	stimuli_target_diamondcircles.svg	8	yes	57	0	425
6.6.1	win	2022-12-14	12:14:34	12:25:08	630827	6298df7da7b45df1b730d3aa	169868341	1	practice_z	9	practice_z	19	stimuli_target_circlediamonds.svg	stimuli_distractor_trianglediamonds.svg	4	yes	44	1	1195
6.6.1	win	2022-12-14	12:14:34	12:25:08	630827	6298df7da7b45df1b730d3aa	169868341	1	practice_z	9	advance_on_keypress_ZEE	20	stimuli_target_circlediamonds.svg	stimuli_distractor_trianglediamonds.svg	4	yes	57	0	479
6.6.1	win	2022-12-14	12:14:34	12:25:12	634580	6298df7da7b45df1b730d3aa	169868341	1	practice_z	9	practice_z	21	stimuli_target_circlediamonds.svg	stimuli_distractor_diamondtriangles.svg	1	yes	44	1	1582
6.6.1	win	2022-12-14	12:14:34	12:25:12	634580	6298df7da7b45df1b730d3aa	169868341	1	practice_z	9	advance_on_keypress_ZEE	22	stimuli_target_circlediamonds.svg	stimuli_distractor_diamondtriangles.svg	1	yes	57	0	501
6.6.1	win	2022-12-14	12:14:34	12:25:15	638273	6298df7da7b45df1b730d3aa	169868341	1	practice_z	9	practice_z	23	stimuli_target_diamondsquares.svg	stimuli_distractor_diamondtriangles.svg	3	yes	44	1	1491
6.6.1	win	2022-12-14	12:14:34	12:25:15	638273	6298df7da7b45df1b730d3aa	169868341	1	practice_z	9	advance_on_keypress_ZEE	24	stimuli_target_diamondsquares.svg	stimuli_distractor_diamondtriangles.svg	3	yes	57	0	396
6.6.1	win	2022-12-14	12:14:34	12:25:19	641602	6298df7da7b45df1b730d3aa	169868341	1	practice_z	9	practice_z	25	stimuli_distractor_trianglediamonds.svg	stimuli_target_circlediamonds.svg	10	yes	44	1	1255
6.6.1	win	2022-12-14	12:14:34	12:25:19	641602	6298df7da7b45df1b730d3aa	169868341	1	practice_z	9	advance_on_keypress_ZEE	26	stimuli_distractor_trianglediamonds.svg	stimuli_target_circlediamonds.svg	10	yes	57	0	418
6.6.1	win	2022-12-14	12:14:34	12:25:22	644909	6298df7da7b45df1b730d3aa	169868341	1	practice_z	9	practice_z	27	stimuli_target_squarediamonds.svg	stimuli_distractor_diamondtriangles.svg	2	yes	44	1	1194
6.6.1	win	2022-12-14	12:14:34	12:25:22	644909	6298df7da7b45df1b730d3aa	169868341	1	practice_z	9	advance_on_keypress_ZEE	28	stimuli_target_squarediamonds.svg	stimuli_distractor_diamondtriangles.svg	2	yes	57	0	542
6.6.1	win	2022-12-14	12:14:34	12:25:26	649130	6298df7da7b45df1b730d3aa	169868341	1	practice_z	9	practice_z	29	stimuli_distractor_trianglediamonds.svg	stimuli_distractor_diamondtriangles.svg	16	no	0	1	2000
6.6.1	win	2022-12-14	12:14:34	12:25:26	649130	6298df7da7b45df1b730d3aa	169868341	1	practice_z	9	advance_on_keypress_ZEE	30	stimuli_distractor_trianglediamonds.svg	stimuli_distractor_diamondtriangles.svg	16	no	57	0	566
6.6.1	win	2022-12-14	12:14:34	12:25:30	652822	6298df7da7b45df1b730d3aa	169868341	1	practice_z	9	practice_z	31	stimuli_distractor_trianglediamonds.svg	stimuli_target_diamondcircles.svg	12	yes	44	1	1442
6.6.1	win	2022-12-14	12:14:34	12:25:30	652822	6298df7da7b45df1b730d3aa	169868341	1	practice_z	9	advance_on_keypress_ZEE	32	stimuli_distractor_trianglediamonds.svg	stimuli_target_diamondcircles.svg	12	yes	57	0	547
6.6.1	win	2022-12-14	12:14:34	12:25:50	672575	6298df7da7b45df1b730d3aa	169868341	1	main_z	11	main_z	1	stimuli_target_trianglesquares.svg	stimuli_distractor_trianglediamonds.svg	18	yes	44	1	723
6.6.1	win	2022-12-14	12:14:34	12:25:50	672575	6298df7da7b45df1b730d3aa	169868341	1	main_z	11	advance_on_keypress_ZEE	2	stimuli_target_trianglesquares.svg	stimuli_distractor_trianglediamonds.svg	18	yes	57	0	1073
6.6.1	win	2022-12-14	12:14:34	12:25:53	676335	6298df7da7b45df1b730d3aa	169868341	1	main_z	11	main_z	3	stimuli_distractor_trianglediamonds.svg	stimuli_distractor_trianglediamonds.svg	33	no	0	1	2000
6.6.1	win	2022-12-14	12:14:34	12:25:53	676335	6298df7da7b45df1b730d3aa	169868341	1	main_z	11	advance_on_keypress_ZEE	4	stimuli_distractor_trianglediamonds.svg	stimuli_distractor_trianglediamonds.svg	33	no	57	0	369
6.6.1	win	2022-12-14	12:14:34	12:25:55	678077	6298df7da7b45df1b730d3aa	169868341	1	main_z	11	main_z	5	stimuli_target_diamondcircles.svg	stimuli_distractor_diamondtriangles.svg	23	yes	44	1	709
6.6.1	win	2022-12-14	12:14:34	12:25:55	678077	6298df7da7b45df1b730d3aa	169868341	1	main_z	11	advance_on_keypress_ZEE	6	stimuli_target_diamondcircles.svg	stimuli_distractor_diamondtriangles.svg	23	yes	57	0	541
6.6.1	win	2022-12-14	12:14:34	12:25:57	679990	6298df7da7b45df1b730d3aa	169868341	1	main_z	11	main_z	7	stimuli_distractor_diamondtriangles.svg	stimuli_target_trianglecircles.svg	29	yes	44	1	689
6.6.1	win	2022-12-14	12:14:34	12:25:57	679990	6298df7da7b45df1b730d3aa	169868341	1	main_z	11	advance_on_keypress_ZEE	8	stimuli_distractor_diamondtriangles.svg	stimuli_target_trianglecircles.svg	29	yes	57	0	352
6.6.1	win	2022-12-14	12:14:34	12:25:59	681934	6298df7da7b45df1b730d3aa	169868341	1	main_z	11	main_z	9	stimuli_target_diamondsquares.svg	stimuli_distractor_diamondtriangles.svg	24	yes	44	1	934
6.6.1	win	2022-12-14	12:14:34	12:25:59	681934	6298df7da7b45df1b730d3aa	169868341	1	main_z	11	advance_on_keypress_ZEE	10	stimuli_target_diamondsquares.svg	stimuli_distractor_diamondtriangles.svg	24	yes	57	0	245
6.6.1	win	2022-12-14	12:14:34	12:26:00	683425	6298df7da7b45df1b730d3aa	169868341	1	main_z	11	main_z	11	stimuli_target_trianglecircles.svg	stimuli_distractor_diamondtriangles.svg	21	yes	44	1	575
6.6.1	win	2022-12-14	12:14:34	12:26:00	683425	6298df7da7b45df1b730d3aa	169868341	1	main_z	11	advance_on_keypress_ZEE	12	stimuli_target_trianglecircles.svg	stimuli_distractor_diamondtriangles.svg	21	yes	57	0	478
6.6.1	win	2022-12-14	12:14:34	12:26:02	685227	6298df7da7b45df1b730d3aa	169868341	1	main_z	11	main_z	13	stimuli_target_diamondsquares.svg	stimuli_distractor_trianglediamonds.svg	20	yes	44	1	644
6.6.1	win	2022-12-14	12:14:34	12:26:02	685227	6298df7da7b45df1b730d3aa	169868341	1	main_z	11	advance_on_keypress_ZEE	14	stimuli_target_diamondsquares.svg	stimuli_distractor_trianglediamonds.svg	20	yes	57	0	325
6.6.1	win	2022-12-14	12:14:34	12:26:04	686963	6298df7da7b45df1b730d3aa	169868341	1	main_z	11	main_z	15	stimuli_target_squaretriangles.svg	stimuli_distractor_trianglediamonds.svg	3	yes	44	1	729
6.6.1	win	2022-12-14	12:14:34	12:26:04	686963	6298df7da7b45df1b730d3aa	169868341	1	main_z	11	advance_on_keypress_ZEE	16	stimuli_target_squaretriangles.svg	stimuli_distractor_trianglediamonds.svg	3	yes	57	0	333
6.6.1	win	2022-12-14	12:14:34	12:26:06	688754	6298df7da7b45df1b730d3aa	169868341	1	main_z	11	main_z	17	stimuli_distractor_diamondtriangles.svg	stimuli_target_diamondcircles.svg	31	yes	44	1	788
6.6.1	win	2022-12-14	12:14:34	12:26:06	688754	6298df7da7b45df1b730d3aa	169868341	1	main_z	11	advance_on_keypress_ZEE	18	stimuli_distractor_diamondtriangles.svg	stimuli_target_diamondcircles.svg	31	yes	57	0	252
6.6.1	win	2022-12-14	12:14:34	12:26:08	690700	6298df7da7b45df1b730d3aa	169868341	1	main_z	11	main_z	19	stimuli_distractor_trianglediamonds.svg	stimuli_target_circletriangles.svg	9	yes	44	1	1034
6.6.1	win	2022-12-14	12:14:34	12:26:08	690700	6298df7da7b45df1b730d3aa	169868341	1	main_z	11	advance_on_keypress_ZEE	20	stimuli_distractor_trianglediamonds.svg	stimuli_target_circletriangles.svg	9	yes	57	0	243
6.6.1	win	2022-12-14	12:14:34	12:26:11	693632	6298df7da7b45df1b730d3aa	169868341	1	main_z	11	main_z	21	stimuli_distractor_trianglediamonds.svg	stimuli_distractor_diamondtriangles.svg	36	no	0	1	2000
6.6.1	win	2022-12-14	12:14:34	12:26:11	693632	6298df7da7b45df1b730d3aa	169868341	1	main_z	11	advance_on_keypress_ZEE	22	stimuli_distractor_trianglediamonds.svg	stimuli_distractor_diamondtriangles.svg	36	no	57	0	476
6.6.1	win	2022-12-14	12:14:34	12:26:12	695344	6298df7da7b45df1b730d3aa	169868341	1	main_z	11	main_z	23	stimuli_distractor_trianglediamonds.svg	stimuli_target_squarediamonds.svg	12	yes	44	1	561
6.6.1	win	2022-12-14	12:14:34	12:26:12	695344	6298df7da7b45df1b730d3aa	169868341	1	main_z	11	advance_on_keypress_ZEE	24	stimuli_distractor_trianglediamonds.svg	stimuli_target_squarediamonds.svg	12	yes	57	0	351
6.6.1	win	2022-12-14	12:14:34	12:26:15	698365	6298df7da7b45df1b730d3aa	169868341	1	main_z	11	main_z	25	stimuli_distractor_diamondtriangles.svg	stimuli_distractor_trianglediamonds.svg	38	no	0	1	2000
6.6.1	win	2022-12-14	12:14:34	12:26:15	698365	6298df7da7b45df1b730d3aa	169868341	1	main_z	11	advance_on_keypress_ZEE	26	stimuli_distractor_diamondtriangles.svg	stimuli_distractor_trianglediamonds.svg	38	no	57	0	374
6.6.1	win	2022-12-14	12:14:34	12:26:17	700268	6298df7da7b45df1b730d3aa	169868341	1	main_z	11	main_z	27	stimuli_distractor_trianglediamonds.svg	stimuli_target_diamondsquares.svg	28	yes	44	1	853
6.6.1	win	2022-12-14	12:14:34	12:26:17	700268	6298df7da7b45df1b730d3aa	169868341	1	main_z	11	advance_on_keypress_ZEE	28	stimuli_distractor_trianglediamonds.svg	stimuli_target_diamondsquares.svg	28	yes	57	0	267
6.6.1	win	2022-12-14	12:14:34	12:26:19	701941	6298df7da7b45df1b730d3aa	169868341	1	main_z	11	main_z	29	stimuli_target_circlediamonds.svg	stimuli_distractor_trianglediamonds.svg	2	yes	44	1	726
6.6.1	win	2022-12-14	12:14:34	12:26:19	701941	6298df7da7b45df1b730d3aa	169868341	1	main_z	11	advance_on_keypress_ZEE	30	stimuli_target_circlediamonds.svg	stimuli_distractor_trianglediamonds.svg	2	yes	57	0	341
6.6.1	win	2022-12-14	12:14:34	12:26:21	703852	6298df7da7b45df1b730d3aa	169868341	1	main_z	11	main_z	31	stimuli_target_trianglecircles.svg	stimuli_distractor_trianglediamonds.svg	17	yes	44	1	889
6.6.1	win	2022-12-14	12:14:34	12:26:21	703852	6298df7da7b45df1b730d3aa	169868341	1	main_z	11	advance_on_keypress_ZEE	32	stimuli_target_trianglecircles.svg	stimuli_distractor_trianglediamonds.svg	17	yes	57	0	324
6.6.1	win	2022-12-14	12:14:34	12:26:23	705733	6298df7da7b45df1b730d3aa	169868341	1	main_z	11	main_z	33	stimuli_target_trianglesquares.svg	stimuli_distractor_diamondtriangles.svg	22	yes	44	1	870
6.6.1	win	2022-12-14	12:14:34	12:26:23	705733	6298df7da7b45df1b730d3aa	169868341	1	main_z	11	advance_on_keypress_ZEE	34	stimuli_target_trianglesquares.svg	stimuli_distractor_diamondtriangles.svg	22	yes	57	0	247
6.6.1	win	2022-12-14	12:14:34	12:26:26	708646	6298df7da7b45df1b730d3aa	169868341	1	main_z	11	main_z	35	stimuli_distractor_trianglediamonds.svg	stimuli_distractor_trianglediamonds.svg	34	no	0	1	2000
6.6.1	win	2022-12-14	12:14:34	12:26:26	708646	6298df7da7b45df1b730d3aa	169868341	1	main_z	11	advance_on_keypress_ZEE	36	stimuli_distractor_trianglediamonds.svg	stimuli_distractor_trianglediamonds.svg	34	no	57	0	442
6.6.1	win	2022-12-14	12:14:34	12:26:29	711763	6298df7da7b45df1b730d3aa	169868341	1	main_z	11	main_z	37	stimuli_distractor_diamondtriangles.svg	stimuli_distractor_trianglediamonds.svg	37	no	0	1	2000
6.6.1	win	2022-12-14	12:14:34	12:26:29	711763	6298df7da7b45df1b730d3aa	169868341	1	main_z	11	advance_on_keypress_ZEE	38	stimuli_distractor_diamondtriangles.svg	stimuli_distractor_trianglediamonds.svg	37	no	57	0	311
6.6.1	win	2022-12-14	12:14:34	12:26:32	714745	6298df7da7b45df1b730d3aa	169868341	1	main_z	11	main_z	39	stimuli_distractor_diamondtriangles.svg	stimuli_distractor_diamondtriangles.svg	40	no	0	1	2000
6.6.1	win	2022-12-14	12:14:34	12:26:32	714745	6298df7da7b45df1b730d3aa	169868341	1	main_z	11	advance_on_keypress_ZEE	40	stimuli_distractor_diamondtriangles.svg	stimuli_distractor_diamondtriangles.svg	40	no	57	0	293
6.6.1	win	2022-12-14	12:14:34	12:26:34	716768	6298df7da7b45df1b730d3aa	169868341	1	main_z	11	main_z	41	stimuli_distractor_diamondtriangles.svg	stimuli_target_squarediamonds.svg	16	yes	44	1	1055
6.6.1	win	2022-12-14	12:14:34	12:26:34	716768	6298df7da7b45df1b730d3aa	169868341	1	main_z	11	advance_on_keypress_ZEE	42	stimuli_distractor_diamondtriangles.svg	stimuli_target_squarediamonds.svg	16	yes	57	0	346
6.6.1	win	2022-12-14	12:14:34	12:26:35	718427	6298df7da7b45df1b730d3aa	169868341	1	main_z	11	main_z	43	stimuli_target_circletriangles.svg	stimuli_distractor_diamondtriangles.svg	5	yes	44	1	632
6.6.1	win	2022-12-14	12:14:34	12:26:35	718427	6298df7da7b45df1b730d3aa	169868341	1	main_z	11	advance_on_keypress_ZEE	44	stimuli_target_circletriangles.svg	stimuli_distractor_diamondtriangles.svg	5	yes	57	0	394
6.6.1	win	2022-12-14	12:14:34	12:26:37	720385	6298df7da7b45df1b730d3aa	169868341	1	main_z	11	main_z	45	stimuli_distractor_trianglediamonds.svg	stimuli_target_trianglesquares.svg	26	yes	44	1	890
6.6.1	win	2022-12-14	12:14:34	12:26:37	720385	6298df7da7b45df1b730d3aa	169868341	1	main_z	11	advance_on_keypress_ZEE	46	stimuli_distractor_trianglediamonds.svg	stimuli_target_trianglesquares.svg	26	yes	57	0	282
6.6.1	win	2022-12-14	12:14:34	12:26:40	723345	6298df7da7b45df1b730d3aa	169868341	1	main_z	11	main_z	47	stimuli_distractor_diamondtriangles.svg	stimuli_target_circlediamonds.svg	14	yes	0	0	2000
6.6.1	win	2022-12-14	12:14:34	12:26:40	723345	6298df7da7b45df1b730d3aa	169868341	1	main_z	11	advance_on_keypress_ZEE	48	stimuli_distractor_diamondtriangles.svg	stimuli_target_circlediamonds.svg	14	yes	57	0	417
6.6.1	win	2022-12-14	12:14:34	12:26:42	725409	6298df7da7b45df1b730d3aa	169868341	1	main_z	11	main_z	49	stimuli_distractor_diamondtriangles.svg	stimuli_target_diamondsquares.svg	32	yes	44	1	965
6.6.1	win	2022-12-14	12:14:34	12:26:42	725409	6298df7da7b45df1b730d3aa	169868341	1	main_z	11	advance_on_keypress_ZEE	50	stimuli_distractor_diamondtriangles.svg	stimuli_target_diamondsquares.svg	32	yes	57	0	165
6.6.1	win	2022-12-14	12:14:34	12:26:44	726929	6298df7da7b45df1b730d3aa	169868341	1	main_z	11	main_z	51	stimuli_distractor_trianglediamonds.svg	stimuli_target_circlediamonds.svg	10	yes	44	1	685
6.6.1	win	2022-12-14	12:14:34	12:26:44	726929	6298df7da7b45df1b730d3aa	169868341	1	main_z	11	advance_on_keypress_ZEE	52	stimuli_distractor_trianglediamonds.svg	stimuli_target_circlediamonds.svg	10	yes	57	0	186
6.6.1	win	2022-12-14	12:14:34	12:26:45	728397	6298df7da7b45df1b730d3aa	169868341	1	main_z	11	main_z	53	stimuli_distractor_trianglediamonds.svg	stimuli_target_diamondcircles.svg	27	yes	44	1	621
6.6.1	win	2022-12-14	12:14:34	12:26:45	728397	6298df7da7b45df1b730d3aa	169868341	1	main_z	11	advance_on_keypress_ZEE	54	stimuli_distractor_trianglediamonds.svg	stimuli_target_diamondcircles.svg	27	yes	57	0	338
6.6.1	win	2022-12-14	12:14:34	12:26:47	730134	6298df7da7b45df1b730d3aa	169868341	1	main_z	11	main_z	55	stimuli_target_circlediamonds.svg	stimuli_distractor_diamondtriangles.svg	6	yes	44	1	725
6.6.1	win	2022-12-14	12:14:34	12:26:47	730134	6298df7da7b45df1b730d3aa	169868341	1	main_z	11	advance_on_keypress_ZEE	56	stimuli_target_circlediamonds.svg	stimuli_distractor_diamondtriangles.svg	6	yes	57	0	113
6.6.1	win	2022-12-14	12:14:34	12:26:50	732926	6298df7da7b45df1b730d3aa	169868341	1	main_z	11	main_z	57	stimuli_distractor_trianglediamonds.svg	stimuli_distractor_diamondtriangles.svg	35	no	0	1	2000
6.6.1	win	2022-12-14	12:14:34	12:26:50	732926	6298df7da7b45df1b730d3aa	169868341	1	main_z	11	advance_on_keypress_ZEE	58	stimuli_distractor_trianglediamonds.svg	stimuli_distractor_diamondtriangles.svg	35	no	57	0	515
6.6.1	win	2022-12-14	12:14:34	12:26:52	734908	6298df7da7b45df1b730d3aa	169868341	1	main_z	11	main_z	59	stimuli_distractor_diamondtriangles.svg	stimuli_target_squaretriangles.svg	15	yes	44	1	798
6.6.1	win	2022-12-14	12:14:34	12:26:52	734908	6298df7da7b45df1b730d3aa	169868341	1	main_z	11	advance_on_keypress_ZEE	60	stimuli_distractor_diamondtriangles.svg	stimuli_target_squaretriangles.svg	15	yes	57	0	112
6.6.1	win	2022-12-14	12:14:34	12:26:55	737692	6298df7da7b45df1b730d3aa	169868341	1	main_z	11	main_z	61	stimuli_distractor_diamondtriangles.svg	stimuli_distractor_diamondtriangles.svg	39	no	0	1	2000
6.6.1	win	2022-12-14	12:14:34	12:26:55	737692	6298df7da7b45df1b730d3aa	169868341	1	main_z	11	advance_on_keypress_ZEE	62	stimuli_distractor_diamondtriangles.svg	stimuli_distractor_diamondtriangles.svg	39	no	57	0	641
6.6.1	win	2022-12-14	12:14:34	12:26:57	739579	6298df7da7b45df1b730d3aa	169868341	1	main_z	11	main_z	63	stimuli_distractor_diamondtriangles.svg	stimuli_target_circletriangles.svg	13	yes	44	1	570
6.6.1	win	2022-12-14	12:14:34	12:26:57	739579	6298df7da7b45df1b730d3aa	169868341	1	main_z	11	advance_on_keypress_ZEE	64	stimuli_distractor_diamondtriangles.svg	stimuli_target_circletriangles.svg	13	yes	57	0	195
6.6.1	win	2022-12-14	12:14:34	12:26:58	740917	6298df7da7b45df1b730d3aa	169868341	1	main_z	11	main_z	65	stimuli_target_circletriangles.svg	stimuli_distractor_trianglediamonds.svg	1	yes	44	1	458
6.6.1	win	2022-12-14	12:14:34	12:26:58	740917	6298df7da7b45df1b730d3aa	169868341	1	main_z	11	advance_on_keypress_ZEE	66	stimuli_target_circletriangles.svg	stimuli_distractor_trianglediamonds.svg	1	yes	57	0	88
6.6.1	win	2022-12-14	12:14:34	12:26:59	742281	6298df7da7b45df1b730d3aa	169868341	1	main_z	11	main_z	67	stimuli_target_squaretriangles.svg	stimuli_distractor_diamondtriangles.svg	7	yes	44	1	590
6.6.1	win	2022-12-14	12:14:34	12:26:59	742281	6298df7da7b45df1b730d3aa	169868341	1	main_z	11	advance_on_keypress_ZEE	68	stimuli_target_squaretriangles.svg	stimuli_distractor_diamondtriangles.svg	7	yes	57	0	64
6.6.1	win	2022-12-14	12:14:34	12:27:00	743417	6298df7da7b45df1b730d3aa	169868341	1	main_z	11	main_z	69	stimuli_target_squarediamonds.svg	stimuli_distractor_trianglediamonds.svg	4	yes	44	1	410
6.6.1	win	2022-12-14	12:14:34	12:27:00	743417	6298df7da7b45df1b730d3aa	169868341	1	main_z	11	advance_on_keypress_ZEE	70	stimuli_target_squarediamonds.svg	stimuli_distractor_trianglediamonds.svg	4	yes	57	0	99
6.6.1	win	2022-12-14	12:14:34	12:27:02	744729	6298df7da7b45df1b730d3aa	169868341	1	main_z	11	main_z	71	stimuli_distractor_trianglediamonds.svg	stimuli_target_squaretriangles.svg	11	yes	44	1	539
6.6.1	win	2022-12-14	12:14:34	12:27:02	744729	6298df7da7b45df1b730d3aa	169868341	1	main_z	11	advance_on_keypress_ZEE	72	stimuli_distractor_trianglediamonds.svg	stimuli_target_squaretriangles.svg	11	yes	57	0	48
6.6.1	win	2022-12-14	12:14:34	12:27:03	746032	6298df7da7b45df1b730d3aa	169868341	1	main_z	11	main_z	73	stimuli_target_squarediamonds.svg	stimuli_distractor_diamondtriangles.svg	8	yes	44	1	575
6.6.1	win	2022-12-14	12:14:34	12:27:03	746032	6298df7da7b45df1b730d3aa	169868341	1	main_z	11	advance_on_keypress_ZEE	74	stimuli_target_squarediamonds.svg	stimuli_distractor_diamondtriangles.svg	8	yes	57	0	73
6.6.1	win	2022-12-14	12:14:34	12:27:05	747923	6298df7da7b45df1b730d3aa	169868341	1	main_z	11	main_z	75	stimuli_distractor_diamondtriangles.svg	stimuli_target_trianglesquares.svg	30	yes	44	1	1132
6.6.1	win	2022-12-14	12:14:34	12:27:05	747923	6298df7da7b45df1b730d3aa	169868341	1	main_z	11	advance_on_keypress_ZEE	76	stimuli_distractor_diamondtriangles.svg	stimuli_target_trianglesquares.svg	30	yes	57	0	56
6.6.1	win	2022-12-14	12:14:34	12:27:07	749528	6298df7da7b45df1b730d3aa	169868341	1	main_z	11	main_z	77	stimuli_target_diamondcircles.svg	stimuli_distractor_trianglediamonds.svg	19	yes	44	1	872
6.6.1	win	2022-12-14	12:14:34	12:27:07	749528	6298df7da7b45df1b730d3aa	169868341	1	main_z	11	advance_on_keypress_ZEE	78	stimuli_target_diamondcircles.svg	stimuli_distractor_trianglediamonds.svg	19	yes	57	0	55
6.6.1	win	2022-12-14	12:14:34	12:27:08	751079	6298df7da7b45df1b730d3aa	169868341	1	main_z	11	main_z	79	stimuli_distractor_trianglediamonds.svg	stimuli_target_trianglecircles.svg	25	yes	44	1	806
6.6.1	win	2022-12-14	12:14:34	12:27:08	751079	6298df7da7b45df1b730d3aa	169868341	1	main_z	11	advance_on_keypress_ZEE	80	stimuli_distractor_trianglediamonds.svg	stimuli_target_trianglecircles.svg	25	yes	57	0	80
6.6.1	win	2022-12-14	12:14:34	12:27:11	753839	6298df7da7b45df1b730d3aa	169868341	1	main_z	11	main_z	81	stimuli_distractor_trianglediamonds.svg	stimuli_distractor_trianglediamonds.svg	34	no	0	1	2000
6.6.1	win	2022-12-14	12:14:34	12:27:11	753839	6298df7da7b45df1b730d3aa	169868341	1	main_z	11	advance_on_keypress_ZEE	82	stimuli_distractor_trianglediamonds.svg	stimuli_distractor_trianglediamonds.svg	34	no	57	0	657
6.6.1	win	2022-12-14	12:14:34	12:27:13	755752	6298df7da7b45df1b730d3aa	169868341	1	main_z	11	main_z	83	stimuli_distractor_trianglediamonds.svg	stimuli_target_circlediamonds.svg	10	yes	44	1	596
6.6.1	win	2022-12-14	12:14:34	12:27:13	755752	6298df7da7b45df1b730d3aa	169868341	1	main_z	11	advance_on_keypress_ZEE	84	stimuli_distractor_trianglediamonds.svg	stimuli_target_circlediamonds.svg	10	yes	57	0	87
6.6.1	win	2022-12-14	12:14:34	12:27:14	757191	6298df7da7b45df1b730d3aa	169868341	1	main_z	11	main_z	85	stimuli_target_trianglesquares.svg	stimuli_distractor_trianglediamonds.svg	18	yes	44	1	685
6.6.1	win	2022-12-14	12:14:34	12:27:14	757191	6298df7da7b45df1b730d3aa	169868341	1	main_z	11	advance_on_keypress_ZEE	86	stimuli_target_trianglesquares.svg	stimuli_distractor_trianglediamonds.svg	18	yes	57	0	108
6.6.1	win	2022-12-14	12:14:34	12:27:15	758498	6298df7da7b45df1b730d3aa	169868341	1	main_z	11	main_z	87	stimuli_distractor_trianglediamonds.svg	stimuli_target_circletriangles.svg	9	yes	44	1	510
6.6.1	win	2022-12-14	12:14:34	12:27:15	758498	6298df7da7b45df1b730d3aa	169868341	1	main_z	11	advance_on_keypress_ZEE	88	stimuli_distractor_trianglediamonds.svg	stimuli_target_circletriangles.svg	9	yes	57	0	69
6.6.1	win	2022-12-14	12:14:34	12:27:17	759661	6298df7da7b45df1b730d3aa	169868341	1	main_z	11	main_z	89	stimuli_distractor_diamondtriangles.svg	stimuli_target_trianglecircles.svg	29	yes	44	1	422
6.6.1	win	2022-12-14	12:14:34	12:27:17	759661	6298df7da7b45df1b730d3aa	169868341	1	main_z	11	advance_on_keypress_ZEE	90	stimuli_distractor_diamondtriangles.svg	stimuli_target_trianglecircles.svg	29	yes	57	0	128
6.6.1	win	2022-12-14	12:14:34	12:27:18	760958	6298df7da7b45df1b730d3aa	169868341	1	main_z	11	main_z	91	stimuli_target_diamondsquares.svg	stimuli_distractor_trianglediamonds.svg	20	yes	44	1	487
6.6.1	win	2022-12-14	12:14:34	12:27:18	760958	6298df7da7b45df1b730d3aa	169868341	1	main_z	11	advance_on_keypress_ZEE	92	stimuli_target_diamondsquares.svg	stimuli_distractor_trianglediamonds.svg	20	yes	57	0	41
6.6.1	win	2022-12-14	12:14:34	12:27:19	762093	6298df7da7b45df1b730d3aa	169868341	1	main_z	11	main_z	93	stimuli_target_diamondcircles.svg	stimuli_distractor_diamondtriangles.svg	23	yes	44	1	421
6.6.1	win	2022-12-14	12:14:34	12:27:19	762093	6298df7da7b45df1b730d3aa	169868341	1	main_z	11	advance_on_keypress_ZEE	94	stimuli_target_diamondcircles.svg	stimuli_distractor_diamondtriangles.svg	23	yes	57	0	72
6.6.1	win	2022-12-14	12:14:34	12:27:22	764821	6298df7da7b45df1b730d3aa	169868341	1	main_z	11	main_z	95	stimuli_distractor_diamondtriangles.svg	stimuli_distractor_trianglediamonds.svg	37	no	0	1	2000
6.6.1	win	2022-12-14	12:14:34	12:27:22	764821	6298df7da7b45df1b730d3aa	169868341	1	main_z	11	advance_on_keypress_ZEE	96	stimuli_distractor_diamondtriangles.svg	stimuli_distractor_trianglediamonds.svg	37	no	57	0	505
6.6.1	win	2022-12-14	12:14:34	12:27:23	766427	6298df7da7b45df1b730d3aa	169868341	1	main_z	11	main_z	97	stimuli_target_trianglecircles.svg	stimuli_distractor_trianglediamonds.svg	17	yes	44	1	439
6.6.1	win	2022-12-14	12:14:34	12:27:23	766427	6298df7da7b45df1b730d3aa	169868341	1	main_z	11	advance_on_keypress_ZEE	98	stimuli_target_trianglecircles.svg	stimuli_distractor_trianglediamonds.svg	17	yes	57	0	73
6.6.1	win	2022-12-14	12:14:34	12:27:25	767715	6298df7da7b45df1b730d3aa	169868341	1	main_z	11	main_z	99	stimuli_target_trianglesquares.svg	stimuli_distractor_diamondtriangles.svg	22	yes	44	1	510
6.6.1	win	2022-12-14	12:14:34	12:27:25	767715	6298df7da7b45df1b730d3aa	169868341	1	main_z	11	advance_on_keypress_ZEE	100	stimuli_target_trianglesquares.svg	stimuli_distractor_diamondtriangles.svg	22	yes	57	0	9
6.6.1	win	2022-12-14	12:14:34	12:27:27	770437	6298df7da7b45df1b730d3aa	169868341	1	main_z	11	main_z	101	stimuli_distractor_diamondtriangles.svg	stimuli_target_squaretriangles.svg	15	yes	0	0	2000
6.6.1	win	2022-12-14	12:14:34	12:27:27	770437	6298df7da7b45df1b730d3aa	169868341	1	main_z	11	advance_on_keypress_ZEE	102	stimuli_distractor_diamondtriangles.svg	stimuli_target_squaretriangles.svg	15	yes	57	0	631
6.6.1	win	2022-12-14	12:14:34	12:27:29	772462	6298df7da7b45df1b730d3aa	169868341	1	main_z	11	main_z	103	stimuli_target_circletriangles.svg	stimuli_distractor_diamondtriangles.svg	5	yes	44	1	726
6.6.1	win	2022-12-14	12:14:34	12:27:29	772462	6298df7da7b45df1b730d3aa	169868341	1	main_z	11	advance_on_keypress_ZEE	104	stimuli_target_circletriangles.svg	stimuli_distractor_diamondtriangles.svg	5	yes	57	0	30
6.6.1	win	2022-12-14	12:14:34	12:27:31	773826	6298df7da7b45df1b730d3aa	169868341	1	main_z	11	main_z	105	stimuli_target_squarediamonds.svg	stimuli_distractor_diamondtriangles.svg	8	yes	44	1	656
6.6.1	win	2022-12-14	12:14:34	12:27:31	773826	6298df7da7b45df1b730d3aa	169868341	1	main_z	11	advance_on_keypress_ZEE	106	stimuli_target_squarediamonds.svg	stimuli_distractor_diamondtriangles.svg	8	yes	57	0	82
6.6.1	win	2022-12-14	12:14:34	12:27:32	775223	6298df7da7b45df1b730d3aa	169868341	1	main_z	11	main_z	107	stimuli_distractor_diamondtriangles.svg	stimuli_target_squarediamonds.svg	16	yes	44	1	637
6.6.1	win	2022-12-14	12:14:34	12:27:32	775223	6298df7da7b45df1b730d3aa	169868341	1	main_z	11	advance_on_keypress_ZEE	108	stimuli_distractor_diamondtriangles.svg	stimuli_target_squarediamonds.svg	16	yes	57	0	78
6.6.1	win	2022-12-14	12:14:34	12:27:34	776670	6298df7da7b45df1b730d3aa	169868341	1	main_z	11	main_z	109	stimuli_distractor_diamondtriangles.svg	stimuli_target_circlediamonds.svg	14	yes	44	1	700
6.6.1	win	2022-12-14	12:14:34	12:27:34	776670	6298df7da7b45df1b730d3aa	169868341	1	main_z	11	advance_on_keypress_ZEE	110	stimuli_distractor_diamondtriangles.svg	stimuli_target_circlediamonds.svg	14	yes	57	0	41
6.6.1	win	2022-12-14	12:14:34	12:27:35	778034	6298df7da7b45df1b730d3aa	169868341	1	main_z	11	main_z	111	stimuli_distractor_diamondtriangles.svg	stimuli_target_diamondcircles.svg	31	yes	44	1	632
6.6.1	win	2022-12-14	12:14:34	12:27:35	778034	6298df7da7b45df1b730d3aa	169868341	1	main_z	11	advance_on_keypress_ZEE	112	stimuli_distractor_diamondtriangles.svg	stimuli_target_diamondcircles.svg	31	yes	57	0	104
6.6.1	win	2022-12-14	12:14:34	12:27:37	779707	6298df7da7b45df1b730d3aa	169868341	1	main_z	11	main_z	113	stimuli_target_squaretriangles.svg	stimuli_distractor_trianglediamonds.svg	3	yes	44	1	904
6.6.1	win	2022-12-14	12:14:34	12:27:37	779707	6298df7da7b45df1b730d3aa	169868341	1	main_z	11	advance_on_keypress_ZEE	114	stimuli_target_squaretriangles.svg	stimuli_distractor_trianglediamonds.svg	3	yes	57	0	69
6.6.1	win	2022-12-14	12:14:34	12:27:38	780949	6298df7da7b45df1b730d3aa	169868341	1	main_z	11	main_z	115	stimuli_distractor_trianglediamonds.svg	stimuli_target_diamondcircles.svg	27	yes	44	1	497
6.6.1	win	2022-12-14	12:14:34	12:27:38	780949	6298df7da7b45df1b730d3aa	169868341	1	main_z	11	advance_on_keypress_ZEE	116	stimuli_distractor_trianglediamonds.svg	stimuli_target_diamondcircles.svg	27	yes	57	0	90
6.6.1	win	2022-12-14	12:14:34	12:27:39	782293	6298df7da7b45df1b730d3aa	169868341	1	main_z	11	main_z	117	stimuli_target_squaretriangles.svg	stimuli_distractor_diamondtriangles.svg	7	yes	44	1	574
6.6.1	win	2022-12-14	12:14:34	12:27:39	782293	6298df7da7b45df1b730d3aa	169868341	1	main_z	11	advance_on_keypress_ZEE	118	stimuli_target_squaretriangles.svg	stimuli_distractor_diamondtriangles.svg	7	yes	57	0	96
6.6.1	win	2022-12-14	12:14:34	12:27:41	783613	6298df7da7b45df1b730d3aa	169868341	1	main_z	11	main_z	119	stimuli_target_diamondsquares.svg	stimuli_distractor_diamondtriangles.svg	24	yes	44	1	545
6.6.1	win	2022-12-14	12:14:34	12:27:41	783613	6298df7da7b45df1b730d3aa	169868341	1	main_z	11	advance_on_keypress_ZEE	120	stimuli_target_diamondsquares.svg	stimuli_distractor_diamondtriangles.svg	24	yes	57	0	77
6.6.1	win	2022-12-14	12:14:34	12:27:42	784859	6298df7da7b45df1b730d3aa	169868341	1	main_z	11	main_z	121	stimuli_distractor_diamondtriangles.svg	stimuli_target_trianglesquares.svg	30	yes	44	1	491
6.6.1	win	2022-12-14	12:14:34	12:27:42	784859	6298df7da7b45df1b730d3aa	169868341	1	main_z	11	advance_on_keypress_ZEE	122	stimuli_distractor_diamondtriangles.svg	stimuli_target_trianglesquares.svg	30	yes	57	0	76
6.6.1	win	2022-12-14	12:14:34	12:27:43	786068	6298df7da7b45df1b730d3aa	169868341	1	main_z	11	main_z	123	stimuli_distractor_diamondtriangles.svg	stimuli_target_diamondsquares.svg	32	yes	44	1	450
6.6.1	win	2022-12-14	12:14:34	12:27:43	786068	6298df7da7b45df1b730d3aa	169868341	1	main_z	11	advance_on_keypress_ZEE	124	stimuli_distractor_diamondtriangles.svg	stimuli_target_diamondsquares.svg	32	yes	57	0	99
6.6.1	win	2022-12-14	12:14:34	12:27:45	787513	6298df7da7b45df1b730d3aa	169868341	1	main_z	11	main_z	125	stimuli_target_diamondcircles.svg	stimuli_distractor_trianglediamonds.svg	19	yes	44	1	679
6.6.1	win	2022-12-14	12:14:34	12:27:45	787513	6298df7da7b45df1b730d3aa	169868341	1	main_z	11	advance_on_keypress_ZEE	126	stimuli_target_diamondcircles.svg	stimuli_distractor_trianglediamonds.svg	19	yes	57	0	35
6.6.1	win	2022-12-14	12:14:34	12:27:46	788927	6298df7da7b45df1b730d3aa	169868341	1	main_z	11	main_z	127	stimuli_target_squarediamonds.svg	stimuli_distractor_trianglediamonds.svg	4	yes	44	1	709
6.6.1	win	2022-12-14	12:14:34	12:27:46	788927	6298df7da7b45df1b730d3aa	169868341	1	main_z	11	advance_on_keypress_ZEE	128	stimuli_target_squarediamonds.svg	stimuli_distractor_trianglediamonds.svg	4	yes	57	0	44
6.6.1	win	2022-12-14	12:14:34	12:27:47	790118	6298df7da7b45df1b730d3aa	169868341	1	main_z	11	main_z	129	stimuli_target_trianglecircles.svg	stimuli_distractor_diamondtriangles.svg	21	yes	44	1	467
6.6.1	win	2022-12-14	12:14:34	12:27:47	790118	6298df7da7b45df1b730d3aa	169868341	1	main_z	11	advance_on_keypress_ZEE	130	stimuli_target_trianglecircles.svg	stimuli_distractor_diamondtriangles.svg	21	yes	57	0	82
6.6.1	win	2022-12-14	12:14:34	12:27:49	791884	6298df7da7b45df1b730d3aa	169868341	1	main_z	11	main_z	131	stimuli_distractor_diamondtriangles.svg	stimuli_distractor_trianglediamonds.svg	38	no	44	0	1000
6.6.1	win	2022-12-14	12:14:34	12:27:49	791884	6298df7da7b45df1b730d3aa	169868341	1	main_z	11	advance_on_keypress_ZEE	132	stimuli_distractor_diamondtriangles.svg	stimuli_distractor_trianglediamonds.svg	38	no	57	0	82
6.6.1	win	2022-12-14	12:14:34	12:27:52	794667	6298df7da7b45df1b730d3aa	169868341	1	main_z	11	main_z	133	stimuli_distractor_diamondtriangles.svg	stimuli_distractor_diamondtriangles.svg	39	no	0	1	2000
6.6.1	win	2022-12-14	12:14:34	12:27:52	794667	6298df7da7b45df1b730d3aa	169868341	1	main_z	11	advance_on_keypress_ZEE	134	stimuli_distractor_diamondtriangles.svg	stimuli_distractor_diamondtriangles.svg	39	no	57	0	470
6.6.1	win	2022-12-14	12:14:34	12:27:55	797800	6298df7da7b45df1b730d3aa	169868341	1	main_z	11	main_z	135	stimuli_distractor_trianglediamonds.svg	stimuli_distractor_diamondtriangles.svg	35	no	0	1	2000
6.6.1	win	2022-12-14	12:14:34	12:27:55	797800	6298df7da7b45df1b730d3aa	169868341	1	main_z	11	advance_on_keypress_ZEE	136	stimuli_distractor_trianglediamonds.svg	stimuli_distractor_diamondtriangles.svg	35	no	57	0	554
6.6.1	win	2022-12-14	12:14:34	12:27:57	799572	6298df7da7b45df1b730d3aa	169868341	1	main_z	11	main_z	137	stimuli_target_circlediamonds.svg	stimuli_distractor_trianglediamonds.svg	2	yes	44	1	557
6.6.1	win	2022-12-14	12:14:34	12:27:57	799572	6298df7da7b45df1b730d3aa	169868341	1	main_z	11	advance_on_keypress_ZEE	138	stimuli_target_circlediamonds.svg	stimuli_distractor_trianglediamonds.svg	2	yes	57	0	57
6.6.1	win	2022-12-14	12:14:34	12:27:58	801009	6298df7da7b45df1b730d3aa	169868341	1	main_z	11	main_z	139	stimuli_target_circlediamonds.svg	stimuli_distractor_diamondtriangles.svg	6	yes	44	1	694
6.6.1	win	2022-12-14	12:14:34	12:27:58	801009	6298df7da7b45df1b730d3aa	169868341	1	main_z	11	advance_on_keypress_ZEE	140	stimuli_target_circlediamonds.svg	stimuli_distractor_diamondtriangles.svg	6	yes	57	0	73
6.6.1	win	2022-12-14	12:14:34	12:27:59	802327	6298df7da7b45df1b730d3aa	169868341	1	main_z	11	main_z	141	stimuli_distractor_trianglediamonds.svg	stimuli_target_squarediamonds.svg	12	yes	44	1	561
6.6.1	win	2022-12-14	12:14:34	12:27:59	802327	6298df7da7b45df1b730d3aa	169868341	1	main_z	11	advance_on_keypress_ZEE	142	stimuli_distractor_trianglediamonds.svg	stimuli_target_squarediamonds.svg	12	yes	57	0	95
6.6.1	win	2022-12-14	12:14:34	12:28:01	803626	6298df7da7b45df1b730d3aa	169868341	1	main_z	11	main_z	143	stimuli_distractor_trianglediamonds.svg	stimuli_target_trianglesquares.svg	26	yes	44	1	512
6.6.1	win	2022-12-14	12:14:34	12:28:01	803626	6298df7da7b45df1b730d3aa	169868341	1	main_z	11	advance_on_keypress_ZEE	144	stimuli_distractor_trianglediamonds.svg	stimuli_target_trianglesquares.svg	26	yes	57	0	45
6.6.1	win	2022-12-14	12:14:34	12:28:02	804843	6298df7da7b45df1b730d3aa	169868341	1	main_z	11	main_z	145	stimuli_distractor_trianglediamonds.svg	stimuli_target_trianglecircles.svg	25	yes	44	1	478
6.6.1	win	2022-12-14	12:14:34	12:28:02	804843	6298df7da7b45df1b730d3aa	169868341	1	main_z	11	advance_on_keypress_ZEE	146	stimuli_distractor_trianglediamonds.svg	stimuli_target_trianglecircles.svg	25	yes	57	0	78
6.6.1	win	2022-12-14	12:14:34	12:28:03	806178	6298df7da7b45df1b730d3aa	169868341	1	main_z	11	main_z	147	stimuli_distractor_diamondtriangles.svg	stimuli_target_circletriangles.svg	13	yes	44	1	580
6.6.1	win	2022-12-14	12:14:34	12:28:03	806178	6298df7da7b45df1b730d3aa	169868341	1	main_z	11	advance_on_keypress_ZEE	148	stimuli_distractor_diamondtriangles.svg	stimuli_target_circletriangles.svg	13	yes	57	0	75
6.6.1	win	2022-12-14	12:14:34	12:28:04	807421	6298df7da7b45df1b730d3aa	169868341	1	main_z	11	main_z	149	stimuli_distractor_trianglediamonds.svg	stimuli_target_squaretriangles.svg	11	yes	44	1	489
6.6.1	win	2022-12-14	12:14:34	12:28:04	807421	6298df7da7b45df1b730d3aa	169868341	1	main_z	11	advance_on_keypress_ZEE	150	stimuli_distractor_trianglediamonds.svg	stimuli_target_squaretriangles.svg	11	yes	57	0	57
6.6.1	win	2022-12-14	12:14:34	12:28:07	810164	6298df7da7b45df1b730d3aa	169868341	1	main_z	11	main_z	151	stimuli_distractor_diamondtriangles.svg	stimuli_distractor_diamondtriangles.svg	40	no	0	1	2000
6.6.1	win	2022-12-14	12:14:34	12:28:07	810164	6298df7da7b45df1b730d3aa	169868341	1	main_z	11	advance_on_keypress_ZEE	152	stimuli_distractor_diamondtriangles.svg	stimuli_distractor_diamondtriangles.svg	40	no	57	0	589
6.6.1	win	2022-12-14	12:14:34	12:28:10	813414	6298df7da7b45df1b730d3aa	169868341	1	main_z	11	main_z	153	stimuli_distractor_trianglediamonds.svg	stimuli_distractor_trianglediamonds.svg	33	no	0	1	2000
6.6.1	win	2022-12-14	12:14:34	12:28:10	813414	6298df7da7b45df1b730d3aa	169868341	1	main_z	11	advance_on_keypress_ZEE	154	stimuli_distractor_trianglediamonds.svg	stimuli_distractor_trianglediamonds.svg	33	no	57	0	332
6.6.1	win	2022-12-14	12:14:34	12:28:13	816413	6298df7da7b45df1b730d3aa	169868341	1	main_z	11	main_z	155	stimuli_distractor_trianglediamonds.svg	stimuli_distractor_diamondtriangles.svg	36	no	0	1	2000
6.6.1	win	2022-12-14	12:14:34	12:28:13	816413	6298df7da7b45df1b730d3aa	169868341	1	main_z	11	advance_on_keypress_ZEE	156	stimuli_distractor_trianglediamonds.svg	stimuli_distractor_diamondtriangles.svg	36	no	57	0	447
6.6.1	win	2022-12-14	12:14:34	12:28:15	818056	6298df7da7b45df1b730d3aa	169868341	1	main_z	11	main_z	157	stimuli_target_circletriangles.svg	stimuli_distractor_trianglediamonds.svg	1	yes	44	1	526
6.6.1	win	2022-12-14	12:14:34	12:28:15	818056	6298df7da7b45df1b730d3aa	169868341	1	main_z	11	advance_on_keypress_ZEE	158	stimuli_target_circletriangles.svg	stimuli_distractor_trianglediamonds.svg	1	yes	57	0	66
6.6.1	win	2022-12-14	12:14:34	12:28:16	819265	6298df7da7b45df1b730d3aa	169868341	1	main_z	11	main_z	159	stimuli_distractor_trianglediamonds.svg	stimuli_target_diamondsquares.svg	28	yes	44	1	470
6.6.1	win	2022-12-14	12:14:34	12:28:16	819265	6298df7da7b45df1b730d3aa	169868341	1	main_z	11	advance_on_keypress_ZEE	160	stimuli_distractor_trianglediamonds.svg	stimuli_target_diamondsquares.svg	28	yes	57	0	38