build	computer.platform	date	time	timestamp	time_elapsed_ms	subject	group	session	blockcode	blocknum	trialcode	trialnum	stimulus_left	stimulus_right	stim_index	target_present	response	correct	latency
6.6.1	mac	2022-12-15	21:40:29	21:42:16	103613	60fd6b02340bf3233276eba9	570664264	1	practice_z	5	practice_z	1	stimuli_distractor_trianglediamonds.svg	stimuli_target_squarediamonds.svg	11	yes	44	1	1299
6.6.1	mac	2022-12-15	21:40:29	21:42:16	103613	60fd6b02340bf3233276eba9	570664264	1	practice_z	5	advance_on_keypress_ZEE	2	stimuli_distractor_trianglediamonds.svg	stimuli_target_squarediamonds.svg	11	yes	57	0	1265
6.6.1	mac	2022-12-15	21:40:29	21:42:21	108554	60fd6b02340bf3233276eba9	570664264	1	practice_z	5	practice_z	3	stimuli_distractor_diamondtriangles.svg	stimuli_distractor_trianglediamonds.svg	14	no	0	1	2000
6.6.1	mac	2022-12-15	21:40:29	21:42:21	108554	60fd6b02340bf3233276eba9	570664264	1	practice_z	5	advance_on_keypress_ZEE	4	stimuli_distractor_diamondtriangles.svg	stimuli_distractor_trianglediamonds.svg	14	no	57	0	498
6.6.1	mac	2022-12-15	21:40:29	21:42:23	111372	60fd6b02340bf3233276eba9	570664264	1	practice_z	5	practice_z	5	stimuli_target_circlediamonds.svg	stimuli_distractor_trianglediamonds.svg	4	yes	44	1	687
6.6.1	mac	2022-12-15	21:40:29	21:42:23	111372	60fd6b02340bf3233276eba9	570664264	1	practice_z	5	advance_on_keypress_ZEE	6	stimuli_target_circlediamonds.svg	stimuli_distractor_trianglediamonds.svg	4	yes	57	0	453
6.6.1	mac	2022-12-15	21:40:29	21:42:27	114971	60fd6b02340bf3233276eba9	570664264	1	practice_z	5	practice_z	7	stimuli_distractor_trianglediamonds.svg	stimuli_target_diamondcircles.svg	12	yes	44	1	1450
6.6.1	mac	2022-12-15	21:40:29	21:42:27	114971	60fd6b02340bf3233276eba9	570664264	1	practice_z	5	advance_on_keypress_ZEE	8	stimuli_distractor_trianglediamonds.svg	stimuli_target_diamondcircles.svg	12	yes	57	0	640
6.6.1	mac	2022-12-15	21:40:29	21:42:30	118231	60fd6b02340bf3233276eba9	570664264	1	practice_z	5	practice_z	9	stimuli_target_diamondsquares.svg	stimuli_distractor_trianglediamonds.svg	6	yes	44	1	929
6.6.1	mac	2022-12-15	21:40:29	21:42:30	118231	60fd6b02340bf3233276eba9	570664264	1	practice_z	5	advance_on_keypress_ZEE	10	stimuli_target_diamondsquares.svg	stimuli_distractor_trianglediamonds.svg	6	yes	57	0	383
6.6.1	mac	2022-12-15	21:40:29	21:42:34	122301	60fd6b02340bf3233276eba9	570664264	1	practice_z	5	practice_z	11	stimuli_distractor_diamondtriangles.svg	stimuli_distractor_diamondtriangles.svg	13	no	0	1	2000
6.6.1	mac	2022-12-15	21:40:29	21:42:34	122301	60fd6b02340bf3233276eba9	570664264	1	practice_z	5	advance_on_keypress_ZEE	12	stimuli_distractor_diamondtriangles.svg	stimuli_distractor_diamondtriangles.svg	13	no	57	0	499
6.6.1	mac	2022-12-15	21:40:29	21:42:37	125385	60fd6b02340bf3233276eba9	570664264	1	practice_z	5	practice_z	13	stimuli_target_squarediamonds.svg	stimuli_distractor_trianglediamonds.svg	5	yes	44	1	947
6.6.1	mac	2022-12-15	21:40:29	21:42:37	125385	60fd6b02340bf3233276eba9	570664264	1	practice_z	5	advance_on_keypress_ZEE	14	stimuli_target_squarediamonds.svg	stimuli_distractor_trianglediamonds.svg	5	yes	57	0	431
6.6.1	mac	2022-12-15	21:40:29	21:42:40	128407	60fd6b02340bf3233276eba9	570664264	1	practice_z	5	practice_z	15	stimuli_distractor_trianglediamonds.svg	stimuli_target_circlediamonds.svg	10	yes	44	1	938
6.6.1	mac	2022-12-15	21:40:29	21:42:40	128407	60fd6b02340bf3233276eba9	570664264	1	practice_z	5	advance_on_keypress_ZEE	16	stimuli_distractor_trianglediamonds.svg	stimuli_target_circlediamonds.svg	10	yes	57	0	386
6.6.1	mac	2022-12-15	21:40:29	21:42:43	131158	60fd6b02340bf3233276eba9	570664264	1	practice_z	5	practice_z	17	stimuli_distractor_diamondtriangles.svg	stimuli_target_trianglecircles.svg	9	yes	44	1	738
6.6.1	mac	2022-12-15	21:40:29	21:42:43	131158	60fd6b02340bf3233276eba9	570664264	1	practice_z	5	advance_on_keypress_ZEE	18	stimuli_distractor_diamondtriangles.svg	stimuli_target_trianglecircles.svg	9	yes	57	0	310
6.6.1	mac	2022-12-15	21:40:29	21:42:46	133829	60fd6b02340bf3233276eba9	570664264	1	practice_z	5	practice_z	19	stimuli_target_squarediamonds.svg	stimuli_distractor_diamondtriangles.svg	2	yes	44	1	734
6.6.1	mac	2022-12-15	21:40:29	21:42:46	133829	60fd6b02340bf3233276eba9	570664264	1	practice_z	5	advance_on_keypress_ZEE	20	stimuli_target_squarediamonds.svg	stimuli_distractor_diamondtriangles.svg	2	yes	57	0	341
6.6.1	mac	2022-12-15	21:40:29	21:42:49	137020	60fd6b02340bf3233276eba9	570664264	1	practice_z	5	practice_z	21	stimuli_distractor_trianglediamonds.svg	stimuli_distractor_diamondtriangles.svg	16	no	44	0	1213
6.6.1	mac	2022-12-15	21:40:29	21:42:49	137020	60fd6b02340bf3233276eba9	570664264	1	practice_z	5	advance_on_keypress_ZEE	22	stimuli_distractor_trianglediamonds.svg	stimuli_distractor_diamondtriangles.svg	16	no	57	0	389
6.6.1	mac	2022-12-15	21:40:29	21:42:53	141035	60fd6b02340bf3233276eba9	570664264	1	practice_z	5	practice_z	23	stimuli_distractor_trianglediamonds.svg	stimuli_distractor_trianglediamonds.svg	15	no	0	1	2000
6.6.1	mac	2022-12-15	21:40:29	21:42:53	141035	60fd6b02340bf3233276eba9	570664264	1	practice_z	5	advance_on_keypress_ZEE	24	stimuli_distractor_trianglediamonds.svg	stimuli_distractor_trianglediamonds.svg	15	no	57	0	389
6.6.1	mac	2022-12-15	21:40:29	21:42:56	144033	60fd6b02340bf3233276eba9	570664264	1	practice_z	5	practice_z	25	stimuli_distractor_diamondtriangles.svg	stimuli_target_circletriangles.svg	7	yes	44	1	870
6.6.1	mac	2022-12-15	21:40:29	21:42:56	144033	60fd6b02340bf3233276eba9	570664264	1	practice_z	5	advance_on_keypress_ZEE	26	stimuli_distractor_diamondtriangles.svg	stimuli_target_circletriangles.svg	7	yes	57	0	423
6.6.1	mac	2022-12-15	21:40:29	21:43:00	148081	60fd6b02340bf3233276eba9	570664264	1	practice_z	5	practice_z	27	stimuli_target_diamondsquares.svg	stimuli_distractor_diamondtriangles.svg	3	yes	0	0	2000
6.6.1	mac	2022-12-15	21:40:29	21:43:00	148081	60fd6b02340bf3233276eba9	570664264	1	practice_z	5	advance_on_keypress_ZEE	28	stimuli_target_diamondsquares.svg	stimuli_distractor_diamondtriangles.svg	3	yes	57	0	389
6.6.1	mac	2022-12-15	21:40:29	21:43:03	150985	60fd6b02340bf3233276eba9	570664264	1	practice_z	5	practice_z	29	stimuli_distractor_diamondtriangles.svg	stimuli_target_diamondcircles.svg	8	yes	44	1	808
6.6.1	mac	2022-12-15	21:40:29	21:43:03	150985	60fd6b02340bf3233276eba9	570664264	1	practice_z	5	advance_on_keypress_ZEE	30	stimuli_distractor_diamondtriangles.svg	stimuli_target_diamondcircles.svg	8	yes	57	0	309
6.6.1	mac	2022-12-15	21:40:29	21:43:06	153692	60fd6b02340bf3233276eba9	570664264	1	practice_z	5	practice_z	31	stimuli_target_circlediamonds.svg	stimuli_distractor_diamondtriangles.svg	1	yes	44	1	749
6.6.1	mac	2022-12-15	21:40:29	21:43:06	153692	60fd6b02340bf3233276eba9	570664264	1	practice_z	5	advance_on_keypress_ZEE	32	stimuli_target_circlediamonds.svg	stimuli_distractor_diamondtriangles.svg	1	yes	57	0	388
6.6.1	mac	2022-12-15	21:40:29	21:43:11	158431	60fd6b02340bf3233276eba9	570664264	1	main_z	7	main_z	1	stimuli_target_squarediamonds.svg	stimuli_distractor_diamondtriangles.svg	8	yes	44	1	691
6.6.1	mac	2022-12-15	21:40:29	21:43:11	158431	60fd6b02340bf3233276eba9	570664264	1	main_z	7	advance_on_keypress_ZEE	2	stimuli_target_squarediamonds.svg	stimuli_distractor_diamondtriangles.svg	8	yes	57	0	965
6.6.1	mac	2022-12-15	21:40:29	21:43:13	160716	60fd6b02340bf3233276eba9	570664264	1	main_z	7	main_z	3	stimuli_distractor_trianglediamonds.svg	stimuli_target_trianglecircles.svg	25	yes	44	1	700
6.6.1	mac	2022-12-15	21:40:29	21:43:13	160716	60fd6b02340bf3233276eba9	570664264	1	main_z	7	advance_on_keypress_ZEE	4	stimuli_distractor_trianglediamonds.svg	stimuli_target_trianglecircles.svg	25	yes	57	0	475
6.6.1	mac	2022-12-15	21:40:29	21:43:15	163163	60fd6b02340bf3233276eba9	570664264	1	main_z	7	main_z	5	stimuli_target_squaretriangles.svg	stimuli_distractor_trianglediamonds.svg	3	yes	44	1	1346
6.6.1	mac	2022-12-15	21:40:29	21:43:15	163163	60fd6b02340bf3233276eba9	570664264	1	main_z	7	advance_on_keypress_ZEE	6	stimuli_target_squaretriangles.svg	stimuli_distractor_trianglediamonds.svg	3	yes	57	0	375
6.6.1	mac	2022-12-15	21:40:29	21:43:18	166219	60fd6b02340bf3233276eba9	570664264	1	main_z	7	main_z	7	stimuli_target_diamondsquares.svg	stimuli_distractor_trianglediamonds.svg	20	yes	0	0	2000
6.6.1	mac	2022-12-15	21:40:29	21:43:18	166219	60fd6b02340bf3233276eba9	570664264	1	main_z	7	advance_on_keypress_ZEE	8	stimuli_target_diamondsquares.svg	stimuli_distractor_trianglediamonds.svg	20	yes	57	0	505
6.6.1	mac	2022-12-15	21:40:29	21:43:21	169122	60fd6b02340bf3233276eba9	570664264	1	main_z	7	main_z	9	stimuli_distractor_trianglediamonds.svg	stimuli_target_diamondsquares.svg	28	yes	44	1	1775
6.6.1	mac	2022-12-15	21:40:29	21:43:21	169122	60fd6b02340bf3233276eba9	570664264	1	main_z	7	advance_on_keypress_ZEE	10	stimuli_distractor_trianglediamonds.svg	stimuli_target_diamondsquares.svg	28	yes	57	0	437
6.6.1	mac	2022-12-15	21:40:29	21:43:23	171249	60fd6b02340bf3233276eba9	570664264	1	main_z	7	main_z	11	stimuli_target_circletriangles.svg	stimuli_distractor_trianglediamonds.svg	1	yes	44	1	1010
6.6.1	mac	2022-12-15	21:40:29	21:43:23	171249	60fd6b02340bf3233276eba9	570664264	1	main_z	7	advance_on_keypress_ZEE	12	stimuli_target_circletriangles.svg	stimuli_distractor_trianglediamonds.svg	1	yes	57	0	502
6.6.1	mac	2022-12-15	21:40:29	21:43:27	174449	60fd6b02340bf3233276eba9	570664264	1	main_z	7	main_z	13	stimuli_distractor_diamondtriangles.svg	stimuli_distractor_diamondtriangles.svg	39	no	0	1	2000
6.6.1	mac	2022-12-15	21:40:29	21:43:27	174449	60fd6b02340bf3233276eba9	570664264	1	main_z	7	advance_on_keypress_ZEE	14	stimuli_distractor_diamondtriangles.svg	stimuli_distractor_diamondtriangles.svg	39	no	57	0	365
6.6.1	mac	2022-12-15	21:40:29	21:43:28	176256	60fd6b02340bf3233276eba9	570664264	1	main_z	7	main_z	15	stimuli_target_trianglesquares.svg	stimuli_distractor_trianglediamonds.svg	18	yes	44	1	743
6.6.1	mac	2022-12-15	21:40:29	21:43:28	176256	60fd6b02340bf3233276eba9	570664264	1	main_z	7	advance_on_keypress_ZEE	16	stimuli_target_trianglesquares.svg	stimuli_distractor_trianglediamonds.svg	18	yes	57	0	692
6.6.1	mac	2022-12-15	21:40:29	21:43:30	178394	60fd6b02340bf3233276eba9	570664264	1	main_z	7	main_z	17	stimuli_target_diamondsquares.svg	stimuli_distractor_diamondtriangles.svg	24	yes	44	1	799
6.6.1	mac	2022-12-15	21:40:29	21:43:30	178394	60fd6b02340bf3233276eba9	570664264	1	main_z	7	advance_on_keypress_ZEE	18	stimuli_target_diamondsquares.svg	stimuli_distractor_diamondtriangles.svg	24	yes	57	0	423
6.6.1	mac	2022-12-15	21:40:29	21:43:32	180266	60fd6b02340bf3233276eba9	570664264	1	main_z	7	main_z	19	stimuli_target_circlediamonds.svg	stimuli_distractor_diamondtriangles.svg	6	yes	44	1	822
6.6.1	mac	2022-12-15	21:40:29	21:43:32	180266	60fd6b02340bf3233276eba9	570664264	1	main_z	7	advance_on_keypress_ZEE	20	stimuli_target_circlediamonds.svg	stimuli_distractor_diamondtriangles.svg	6	yes	57	0	319
6.6.1	mac	2022-12-15	21:40:29	21:43:34	181882	60fd6b02340bf3233276eba9	570664264	1	main_z	7	main_z	21	stimuli_target_circletriangles.svg	stimuli_distractor_diamondtriangles.svg	5	yes	44	1	670
6.6.1	mac	2022-12-15	21:40:29	21:43:34	181882	60fd6b02340bf3233276eba9	570664264	1	main_z	7	advance_on_keypress_ZEE	22	stimuli_target_circletriangles.svg	stimuli_distractor_diamondtriangles.svg	5	yes	57	0	337
6.6.1	mac	2022-12-15	21:40:29	21:43:36	183620	60fd6b02340bf3233276eba9	570664264	1	main_z	7	main_z	23	stimuli_target_trianglesquares.svg	stimuli_distractor_diamondtriangles.svg	22	yes	44	1	766
6.6.1	mac	2022-12-15	21:40:29	21:43:36	183620	60fd6b02340bf3233276eba9	570664264	1	main_z	7	advance_on_keypress_ZEE	24	stimuli_target_trianglesquares.svg	stimuli_distractor_diamondtriangles.svg	22	yes	57	0	262
6.6.1	mac	2022-12-15	21:40:29	21:43:37	185236	60fd6b02340bf3233276eba9	570664264	1	main_z	7	main_z	25	stimuli_target_circlediamonds.svg	stimuli_distractor_trianglediamonds.svg	2	yes	44	1	664
6.6.1	mac	2022-12-15	21:40:29	21:43:37	185236	60fd6b02340bf3233276eba9	570664264	1	main_z	7	advance_on_keypress_ZEE	26	stimuli_target_circlediamonds.svg	stimuli_distractor_trianglediamonds.svg	2	yes	57	0	337
6.6.1	mac	2022-12-15	21:40:29	21:43:39	187107	60fd6b02340bf3233276eba9	570664264	1	main_z	7	main_z	27	stimuli_distractor_diamondtriangles.svg	stimuli_target_squaretriangles.svg	15	yes	44	1	897
6.6.1	mac	2022-12-15	21:40:29	21:43:39	187107	60fd6b02340bf3233276eba9	570664264	1	main_z	7	advance_on_keypress_ZEE	28	stimuli_distractor_diamondtriangles.svg	stimuli_target_squaretriangles.svg	15	yes	57	0	267
6.6.1	mac	2022-12-15	21:40:29	21:43:41	189196	60fd6b02340bf3233276eba9	570664264	1	main_z	7	main_z	29	stimuli_distractor_diamondtriangles.svg	stimuli_target_trianglesquares.svg	30	yes	44	1	1130
6.6.1	mac	2022-12-15	21:40:29	21:43:41	189196	60fd6b02340bf3233276eba9	570664264	1	main_z	7	advance_on_keypress_ZEE	30	stimuli_distractor_diamondtriangles.svg	stimuli_target_trianglesquares.svg	30	yes	57	0	268
6.6.1	mac	2022-12-15	21:40:29	21:43:43	190907	60fd6b02340bf3233276eba9	570664264	1	main_z	7	main_z	31	stimuli_target_squarediamonds.svg	stimuli_distractor_trianglediamonds.svg	4	yes	44	1	750
6.6.1	mac	2022-12-15	21:40:29	21:43:43	190907	60fd6b02340bf3233276eba9	570664264	1	main_z	7	advance_on_keypress_ZEE	32	stimuli_target_squarediamonds.svg	stimuli_distractor_trianglediamonds.svg	4	yes	57	0	281
6.6.1	mac	2022-12-15	21:40:29	21:43:45	192538	60fd6b02340bf3233276eba9	570664264	1	main_z	7	main_z	33	stimuli_target_diamondcircles.svg	stimuli_distractor_diamondtriangles.svg	23	yes	44	1	710
6.6.1	mac	2022-12-15	21:40:29	21:43:45	192538	60fd6b02340bf3233276eba9	570664264	1	main_z	7	advance_on_keypress_ZEE	34	stimuli_target_diamondcircles.svg	stimuli_distractor_diamondtriangles.svg	23	yes	57	0	302
6.6.1	mac	2022-12-15	21:40:29	21:43:46	194232	60fd6b02340bf3233276eba9	570664264	1	main_z	7	main_z	35	stimuli_distractor_diamondtriangles.svg	stimuli_target_diamondsquares.svg	32	yes	44	1	754
6.6.1	mac	2022-12-15	21:40:29	21:43:46	194232	60fd6b02340bf3233276eba9	570664264	1	main_z	7	advance_on_keypress_ZEE	36	stimuli_distractor_diamondtriangles.svg	stimuli_target_diamondsquares.svg	32	yes	57	0	279
6.6.1	mac	2022-12-15	21:40:29	21:43:48	195836	60fd6b02340bf3233276eba9	570664264	1	main_z	7	main_z	37	stimuli_target_diamondcircles.svg	stimuli_distractor_trianglediamonds.svg	19	yes	44	1	687
6.6.1	mac	2022-12-15	21:40:29	21:43:48	195836	60fd6b02340bf3233276eba9	570664264	1	main_z	7	advance_on_keypress_ZEE	38	stimuli_target_diamondcircles.svg	stimuli_distractor_trianglediamonds.svg	19	yes	57	0	276
6.6.1	mac	2022-12-15	21:40:29	21:43:49	197306	60fd6b02340bf3233276eba9	570664264	1	main_z	7	main_z	39	stimuli_distractor_diamondtriangles.svg	stimuli_target_trianglecircles.svg	29	yes	44	1	548
6.6.1	mac	2022-12-15	21:40:29	21:43:49	197306	60fd6b02340bf3233276eba9	570664264	1	main_z	7	advance_on_keypress_ZEE	40	stimuli_distractor_diamondtriangles.svg	stimuli_target_trianglecircles.svg	29	yes	57	0	287
6.6.1	mac	2022-12-15	21:40:29	21:43:52	200240	60fd6b02340bf3233276eba9	570664264	1	main_z	7	main_z	41	stimuli_distractor_trianglediamonds.svg	stimuli_distractor_diamondtriangles.svg	35	no	0	1	2000
6.6.1	mac	2022-12-15	21:40:29	21:43:52	200240	60fd6b02340bf3233276eba9	570664264	1	main_z	7	advance_on_keypress_ZEE	42	stimuli_distractor_trianglediamonds.svg	stimuli_distractor_diamondtriangles.svg	35	no	57	0	764
6.6.1	mac	2022-12-15	21:40:29	21:43:55	202436	60fd6b02340bf3233276eba9	570664264	1	main_z	7	main_z	43	stimuli_target_squaretriangles.svg	stimuli_distractor_diamondtriangles.svg	7	yes	44	1	754
6.6.1	mac	2022-12-15	21:40:29	21:43:55	202436	60fd6b02340bf3233276eba9	570664264	1	main_z	7	advance_on_keypress_ZEE	44	stimuli_target_squaretriangles.svg	stimuli_distractor_diamondtriangles.svg	7	yes	57	0	265
6.6.1	mac	2022-12-15	21:40:29	21:43:57	205338	60fd6b02340bf3233276eba9	570664264	1	main_z	7	main_z	45	stimuli_distractor_trianglediamonds.svg	stimuli_distractor_diamondtriangles.svg	36	no	0	1	2000
6.6.1	mac	2022-12-15	21:40:29	21:43:57	205338	60fd6b02340bf3233276eba9	570664264	1	main_z	7	advance_on_keypress_ZEE	46	stimuli_distractor_trianglediamonds.svg	stimuli_distractor_diamondtriangles.svg	36	no	57	0	477
6.6.1	mac	2022-12-15	21:40:29	21:44:01	208490	60fd6b02340bf3233276eba9	570664264	1	main_z	7	main_z	47	stimuli_distractor_trianglediamonds.svg	stimuli_distractor_trianglediamonds.svg	33	no	0	1	2000
6.6.1	mac	2022-12-15	21:40:29	21:44:01	208490	60fd6b02340bf3233276eba9	570664264	1	main_z	7	advance_on_keypress_ZEE	48	stimuli_distractor_trianglediamonds.svg	stimuli_distractor_trianglediamonds.svg	33	no	57	0	356
6.6.1	mac	2022-12-15	21:40:29	21:44:04	211531	60fd6b02340bf3233276eba9	570664264	1	main_z	7	main_z	49	stimuli_distractor_trianglediamonds.svg	stimuli_distractor_trianglediamonds.svg	34	no	0	1	2000
6.6.1	mac	2022-12-15	21:40:29	21:44:04	211531	60fd6b02340bf3233276eba9	570664264	1	main_z	7	advance_on_keypress_ZEE	50	stimuli_distractor_trianglediamonds.svg	stimuli_distractor_trianglediamonds.svg	34	no	57	0	338
6.6.1	mac	2022-12-15	21:40:29	21:44:05	213255	60fd6b02340bf3233276eba9	570664264	1	main_z	7	main_z	51	stimuli_distractor_trianglediamonds.svg	stimuli_target_squaretriangles.svg	11	yes	44	1	758
6.6.1	mac	2022-12-15	21:40:29	21:44:05	213255	60fd6b02340bf3233276eba9	570664264	1	main_z	7	advance_on_keypress_ZEE	52	stimuli_distractor_trianglediamonds.svg	stimuli_target_squaretriangles.svg	11	yes	57	0	257
6.6.1	mac	2022-12-15	21:40:29	21:44:08	216166	60fd6b02340bf3233276eba9	570664264	1	main_z	7	main_z	53	stimuli_distractor_diamondtriangles.svg	stimuli_distractor_trianglediamonds.svg	38	no	0	1	2000
6.6.1	mac	2022-12-15	21:40:29	21:44:08	216166	60fd6b02340bf3233276eba9	570664264	1	main_z	7	advance_on_keypress_ZEE	54	stimuli_distractor_diamondtriangles.svg	stimuli_distractor_trianglediamonds.svg	38	no	57	0	364
6.6.1	mac	2022-12-15	21:40:29	21:44:11	219120	60fd6b02340bf3233276eba9	570664264	1	main_z	7	main_z	55	stimuli_distractor_diamondtriangles.svg	stimuli_target_circletriangles.svg	13	yes	44	1	1872
6.6.1	mac	2022-12-15	21:40:29	21:44:11	219120	60fd6b02340bf3233276eba9	570664264	1	main_z	7	advance_on_keypress_ZEE	56	stimuli_distractor_diamondtriangles.svg	stimuli_target_circletriangles.svg	13	yes	57	0	382
6.6.1	mac	2022-12-15	21:40:29	21:44:14	222196	60fd6b02340bf3233276eba9	570664264	1	main_z	7	main_z	57	stimuli_distractor_diamondtriangles.svg	stimuli_distractor_diamondtriangles.svg	40	no	0	1	2000
6.6.1	mac	2022-12-15	21:40:29	21:44:14	222196	60fd6b02340bf3233276eba9	570664264	1	main_z	7	advance_on_keypress_ZEE	58	stimuli_distractor_diamondtriangles.svg	stimuli_distractor_diamondtriangles.svg	40	no	57	0	696
6.6.1	mac	2022-12-15	21:40:29	21:44:16	224195	60fd6b02340bf3233276eba9	570664264	1	main_z	7	main_z	59	stimuli_target_trianglecircles.svg	stimuli_distractor_diamondtriangles.svg	21	yes	44	1	679
6.6.1	mac	2022-12-15	21:40:29	21:44:16	224195	60fd6b02340bf3233276eba9	570664264	1	main_z	7	advance_on_keypress_ZEE	60	stimuli_target_trianglecircles.svg	stimuli_distractor_diamondtriangles.svg	21	yes	57	0	276
6.6.1	mac	2022-12-15	21:40:29	21:44:19	227103	60fd6b02340bf3233276eba9	570664264	1	main_z	7	main_z	61	stimuli_distractor_diamondtriangles.svg	stimuli_distractor_trianglediamonds.svg	37	no	0	1	2000
6.6.1	mac	2022-12-15	21:40:29	21:44:19	227103	60fd6b02340bf3233276eba9	570664264	1	main_z	7	advance_on_keypress_ZEE	62	stimuli_distractor_diamondtriangles.svg	stimuli_distractor_trianglediamonds.svg	37	no	57	0	423
6.6.1	mac	2022-12-15	21:40:29	21:44:21	228896	60fd6b02340bf3233276eba9	570664264	1	main_z	7	main_z	63	stimuli_distractor_diamondtriangles.svg	stimuli_target_squarediamonds.svg	16	yes	44	1	688
6.6.1	mac	2022-12-15	21:40:29	21:44:21	228896	60fd6b02340bf3233276eba9	570664264	1	main_z	7	advance_on_keypress_ZEE	64	stimuli_distractor_diamondtriangles.svg	stimuli_target_squarediamonds.svg	16	yes	57	0	380
6.6.1	mac	2022-12-15	21:40:29	21:44:23	230653	60fd6b02340bf3233276eba9	570664264	1	main_z	7	main_z	65	stimuli_distractor_diamondtriangles.svg	stimuli_target_diamondcircles.svg	31	yes	44	1	736
6.6.1	mac	2022-12-15	21:40:29	21:44:23	230653	60fd6b02340bf3233276eba9	570664264	1	main_z	7	advance_on_keypress_ZEE	66	stimuli_distractor_diamondtriangles.svg	stimuli_target_diamondcircles.svg	31	yes	57	0	406
6.6.1	mac	2022-12-15	21:40:29	21:44:25	232492	60fd6b02340bf3233276eba9	570664264	1	main_z	7	main_z	67	stimuli_distractor_trianglediamonds.svg	stimuli_target_circletriangles.svg	9	yes	44	1	805
6.6.1	mac	2022-12-15	21:40:29	21:44:25	232492	60fd6b02340bf3233276eba9	570664264	1	main_z	7	advance_on_keypress_ZEE	68	stimuli_distractor_trianglediamonds.svg	stimuli_target_circletriangles.svg	9	yes	57	0	200
6.6.1	mac	2022-12-15	21:40:29	21:44:26	234071	60fd6b02340bf3233276eba9	570664264	1	main_z	7	main_z	69	stimuli_distractor_trianglediamonds.svg	stimuli_target_diamondcircles.svg	27	yes	44	1	743
6.6.1	mac	2022-12-15	21:40:29	21:44:26	234071	60fd6b02340bf3233276eba9	570664264	1	main_z	7	advance_on_keypress_ZEE	70	stimuli_distractor_trianglediamonds.svg	stimuli_target_diamondcircles.svg	27	yes	57	0	155
6.6.1	mac	2022-12-15	21:40:29	21:44:28	235681	60fd6b02340bf3233276eba9	570664264	1	main_z	7	main_z	71	stimuli_distractor_trianglediamonds.svg	stimuli_target_trianglesquares.svg	26	yes	44	1	767
6.6.1	mac	2022-12-15	21:40:29	21:44:28	235681	60fd6b02340bf3233276eba9	570664264	1	main_z	7	advance_on_keypress_ZEE	72	stimuli_distractor_trianglediamonds.svg	stimuli_target_trianglesquares.svg	26	yes	57	0	206
6.6.1	mac	2022-12-15	21:40:29	21:44:29	237258	60fd6b02340bf3233276eba9	570664264	1	main_z	7	main_z	73	stimuli_distractor_trianglediamonds.svg	stimuli_target_circlediamonds.svg	10	yes	44	1	737
6.6.1	mac	2022-12-15	21:40:29	21:44:29	237258	60fd6b02340bf3233276eba9	570664264	1	main_z	7	advance_on_keypress_ZEE	74	stimuli_distractor_trianglediamonds.svg	stimuli_target_circlediamonds.svg	10	yes	57	0	192
6.6.1	mac	2022-12-15	21:40:29	21:44:31	238968	60fd6b02340bf3233276eba9	570664264	1	main_z	7	main_z	75	stimuli_distractor_diamondtriangles.svg	stimuli_target_circlediamonds.svg	14	yes	44	1	814
6.6.1	mac	2022-12-15	21:40:29	21:44:31	238968	60fd6b02340bf3233276eba9	570664264	1	main_z	7	advance_on_keypress_ZEE	76	stimuli_distractor_diamondtriangles.svg	stimuli_target_circlediamonds.svg	14	yes	57	0	188
6.6.1	mac	2022-12-15	21:40:29	21:44:33	240561	60fd6b02340bf3233276eba9	570664264	1	main_z	7	main_z	77	stimuli_target_trianglecircles.svg	stimuli_distractor_trianglediamonds.svg	17	yes	44	1	767
6.6.1	mac	2022-12-15	21:40:29	21:44:33	240561	60fd6b02340bf3233276eba9	570664264	1	main_z	7	advance_on_keypress_ZEE	78	stimuli_target_trianglecircles.svg	stimuli_distractor_trianglediamonds.svg	17	yes	57	0	306
6.6.1	mac	2022-12-15	21:40:29	21:44:34	242330	60fd6b02340bf3233276eba9	570664264	1	main_z	7	main_z	79	stimuli_distractor_trianglediamonds.svg	stimuli_target_squarediamonds.svg	12	yes	44	1	777
6.6.1	mac	2022-12-15	21:40:29	21:44:34	242330	60fd6b02340bf3233276eba9	570664264	1	main_z	7	advance_on_keypress_ZEE	80	stimuli_distractor_trianglediamonds.svg	stimuli_target_squarediamonds.svg	12	yes	57	0	174
6.6.1	mac	2022-12-15	21:40:29	21:44:36	243980	60fd6b02340bf3233276eba9	570664264	1	main_z	7	main_z	81	stimuli_distractor_trianglediamonds.svg	stimuli_target_diamondcircles.svg	27	yes	44	1	789
6.6.1	mac	2022-12-15	21:40:29	21:44:36	243980	60fd6b02340bf3233276eba9	570664264	1	main_z	7	advance_on_keypress_ZEE	82	stimuli_distractor_trianglediamonds.svg	stimuli_target_diamondcircles.svg	27	yes	57	0	262
6.6.1	mac	2022-12-15	21:40:29	21:44:38	245659	60fd6b02340bf3233276eba9	570664264	1	main_z	7	main_z	83	stimuli_target_diamondcircles.svg	stimuli_distractor_diamondtriangles.svg	23	yes	44	1	782
6.6.1	mac	2022-12-15	21:40:29	21:44:38	245659	60fd6b02340bf3233276eba9	570664264	1	main_z	7	advance_on_keypress_ZEE	84	stimuli_target_diamondcircles.svg	stimuli_distractor_diamondtriangles.svg	23	yes	57	0	186
6.6.1	mac	2022-12-15	21:40:29	21:44:39	247231	60fd6b02340bf3233276eba9	570664264	1	main_z	7	main_z	85	stimuli_distractor_trianglediamonds.svg	stimuli_target_squarediamonds.svg	12	yes	44	1	700
6.6.1	mac	2022-12-15	21:40:29	21:44:39	247231	60fd6b02340bf3233276eba9	570664264	1	main_z	7	advance_on_keypress_ZEE	86	stimuli_distractor_trianglediamonds.svg	stimuli_target_squarediamonds.svg	12	yes	57	0	253
6.6.1	mac	2022-12-15	21:40:29	21:44:42	250115	60fd6b02340bf3233276eba9	570664264	1	main_z	7	main_z	87	stimuli_distractor_trianglediamonds.svg	stimuli_distractor_trianglediamonds.svg	33	no	0	1	2000
6.6.1	mac	2022-12-15	21:40:29	21:44:42	250115	60fd6b02340bf3233276eba9	570664264	1	main_z	7	advance_on_keypress_ZEE	88	stimuli_distractor_trianglediamonds.svg	stimuli_distractor_trianglediamonds.svg	33	no	57	0	591
6.6.1	mac	2022-12-15	21:40:29	21:44:44	252168	60fd6b02340bf3233276eba9	570664264	1	main_z	7	main_z	89	stimuli_target_circlediamonds.svg	stimuli_distractor_diamondtriangles.svg	6	yes	44	1	769
6.6.1	mac	2022-12-15	21:40:29	21:44:44	252168	60fd6b02340bf3233276eba9	570664264	1	main_z	7	advance_on_keypress_ZEE	90	stimuli_target_circlediamonds.svg	stimuli_distractor_diamondtriangles.svg	6	yes	57	0	224
6.6.1	mac	2022-12-15	21:40:29	21:44:46	253804	60fd6b02340bf3233276eba9	570664264	1	main_z	7	main_z	91	stimuli_target_trianglesquares.svg	stimuli_distractor_trianglediamonds.svg	18	yes	44	1	781
6.6.1	mac	2022-12-15	21:40:29	21:44:46	253804	60fd6b02340bf3233276eba9	570664264	1	main_z	7	advance_on_keypress_ZEE	92	stimuli_target_trianglesquares.svg	stimuli_distractor_trianglediamonds.svg	18	yes	57	0	221
6.6.1	mac	2022-12-15	21:40:29	21:44:49	256654	60fd6b02340bf3233276eba9	570664264	1	main_z	7	main_z	93	stimuli_distractor_diamondtriangles.svg	stimuli_distractor_diamondtriangles.svg	39	no	0	1	2000
6.6.1	mac	2022-12-15	21:40:29	21:44:49	256654	60fd6b02340bf3233276eba9	570664264	1	main_z	7	advance_on_keypress_ZEE	94	stimuli_distractor_diamondtriangles.svg	stimuli_distractor_diamondtriangles.svg	39	no	57	0	273
6.6.1	mac	2022-12-15	21:40:29	21:44:51	258381	60fd6b02340bf3233276eba9	570664264	1	main_z	7	main_z	95	stimuli_target_squaretriangles.svg	stimuli_distractor_trianglediamonds.svg	3	yes	44	1	768
6.6.1	mac	2022-12-15	21:40:29	21:44:51	258381	60fd6b02340bf3233276eba9	570664264	1	main_z	7	advance_on_keypress_ZEE	96	stimuli_target_squaretriangles.svg	stimuli_distractor_trianglediamonds.svg	3	yes	57	0	221
6.6.1	mac	2022-12-15	21:40:29	21:44:52	260026	60fd6b02340bf3233276eba9	570664264	1	main_z	7	main_z	97	stimuli_target_circletriangles.svg	stimuli_distractor_diamondtriangles.svg	5	yes	44	1	784
6.6.1	mac	2022-12-15	21:40:29	21:44:52	260026	60fd6b02340bf3233276eba9	570664264	1	main_z	7	advance_on_keypress_ZEE	98	stimuli_target_circletriangles.svg	stimuli_distractor_diamondtriangles.svg	5	yes	57	0	321
6.6.1	mac	2022-12-15	21:40:29	21:44:54	261879	60fd6b02340bf3233276eba9	570664264	1	main_z	7	main_z	99	stimuli_target_squarediamonds.svg	stimuli_distractor_diamondtriangles.svg	8	yes	44	1	901
6.6.1	mac	2022-12-15	21:40:29	21:44:54	261879	60fd6b02340bf3233276eba9	570664264	1	main_z	7	advance_on_keypress_ZEE	100	stimuli_target_squarediamonds.svg	stimuli_distractor_diamondtriangles.svg	8	yes	57	0	200
6.6.1	mac	2022-12-15	21:40:29	21:44:56	263552	60fd6b02340bf3233276eba9	570664264	1	main_z	7	main_z	101	stimuli_distractor_trianglediamonds.svg	stimuli_target_trianglesquares.svg	26	yes	44	1	833
6.6.1	mac	2022-12-15	21:40:29	21:44:56	263552	60fd6b02340bf3233276eba9	570664264	1	main_z	7	advance_on_keypress_ZEE	102	stimuli_distractor_trianglediamonds.svg	stimuli_target_trianglesquares.svg	26	yes	57	0	322
6.6.1	mac	2022-12-15	21:40:29	21:44:58	265389	60fd6b02340bf3233276eba9	570664264	1	main_z	7	main_z	103	stimuli_target_circletriangles.svg	stimuli_distractor_trianglediamonds.svg	1	yes	44	1	884
6.6.1	mac	2022-12-15	21:40:29	21:44:58	265389	60fd6b02340bf3233276eba9	570664264	1	main_z	7	advance_on_keypress_ZEE	104	stimuli_target_circletriangles.svg	stimuli_distractor_trianglediamonds.svg	1	yes	57	0	217
6.6.1	mac	2022-12-15	21:40:29	21:44:59	267000	60fd6b02340bf3233276eba9	570664264	1	main_z	7	main_z	105	stimuli_distractor_diamondtriangles.svg	stimuli_target_trianglesquares.svg	30	yes	44	1	754
6.6.1	mac	2022-12-15	21:40:29	21:44:59	267000	60fd6b02340bf3233276eba9	570664264	1	main_z	7	advance_on_keypress_ZEE	106	stimuli_distractor_diamondtriangles.svg	stimuli_target_trianglesquares.svg	30	yes	57	0	304
6.6.1	mac	2022-12-15	21:40:29	21:45:01	268671	60fd6b02340bf3233276eba9	570664264	1	main_z	7	main_z	107	stimuli_target_trianglecircles.svg	stimuli_distractor_diamondtriangles.svg	21	yes	44	1	742
6.6.1	mac	2022-12-15	21:40:29	21:45:01	268671	60fd6b02340bf3233276eba9	570664264	1	main_z	7	advance_on_keypress_ZEE	108	stimuli_target_trianglecircles.svg	stimuli_distractor_diamondtriangles.svg	21	yes	57	0	292
6.6.1	mac	2022-12-15	21:40:29	21:45:02	270327	60fd6b02340bf3233276eba9	570664264	1	main_z	7	main_z	109	stimuli_distractor_diamondtriangles.svg	stimuli_target_trianglecircles.svg	29	yes	44	1	738
6.6.1	mac	2022-12-15	21:40:29	21:45:02	270327	60fd6b02340bf3233276eba9	570664264	1	main_z	7	advance_on_keypress_ZEE	110	stimuli_distractor_diamondtriangles.svg	stimuli_target_trianglecircles.svg	29	yes	57	0	217
6.6.1	mac	2022-12-15	21:40:29	21:45:04	272106	60fd6b02340bf3233276eba9	570664264	1	main_z	7	main_z	111	stimuli_target_diamondcircles.svg	stimuli_distractor_trianglediamonds.svg	19	yes	44	1	853
6.6.1	mac	2022-12-15	21:40:29	21:45:04	272106	60fd6b02340bf3233276eba9	570664264	1	main_z	7	advance_on_keypress_ZEE	112	stimuli_target_diamondcircles.svg	stimuli_distractor_trianglediamonds.svg	19	yes	57	0	210
6.6.1	mac	2022-12-15	21:40:29	21:45:07	274369	60fd6b02340bf3233276eba9	570664264	1	main_z	7	main_z	113	stimuli_distractor_trianglediamonds.svg	stimuli_target_diamondsquares.svg	28	yes	44	1	1407
6.6.1	mac	2022-12-15	21:40:29	21:45:07	274369	60fd6b02340bf3233276eba9	570664264	1	main_z	7	advance_on_keypress_ZEE	114	stimuli_distractor_trianglediamonds.svg	stimuli_target_diamondsquares.svg	28	yes	57	0	92
6.6.1	mac	2022-12-15	21:40:29	21:45:08	275973	60fd6b02340bf3233276eba9	570664264	1	main_z	7	main_z	115	stimuli_target_diamondsquares.svg	stimuli_distractor_diamondtriangles.svg	24	yes	44	1	822
6.6.1	mac	2022-12-15	21:40:29	21:45:08	275973	60fd6b02340bf3233276eba9	570664264	1	main_z	7	advance_on_keypress_ZEE	116	stimuli_target_diamondsquares.svg	stimuli_distractor_diamondtriangles.svg	24	yes	57	0	231
6.6.1	mac	2022-12-15	21:40:29	21:45:10	277683	60fd6b02340bf3233276eba9	570664264	1	main_z	7	main_z	117	stimuli_distractor_trianglediamonds.svg	stimuli_target_squaretriangles.svg	11	yes	44	1	830
6.6.1	mac	2022-12-15	21:40:29	21:45:10	277683	60fd6b02340bf3233276eba9	570664264	1	main_z	7	advance_on_keypress_ZEE	118	stimuli_distractor_trianglediamonds.svg	stimuli_target_squaretriangles.svg	11	yes	57	0	231
6.6.1	mac	2022-12-15	21:40:29	21:45:12	279342	60fd6b02340bf3233276eba9	570664264	1	main_z	7	main_z	119	stimuli_distractor_diamondtriangles.svg	stimuli_target_squarediamonds.svg	16	yes	44	1	788
6.6.1	mac	2022-12-15	21:40:29	21:45:12	279342	60fd6b02340bf3233276eba9	570664264	1	main_z	7	advance_on_keypress_ZEE	120	stimuli_distractor_diamondtriangles.svg	stimuli_target_squarediamonds.svg	16	yes	57	0	263
6.6.1	mac	2022-12-15	21:40:29	21:45:13	281242	60fd6b02340bf3233276eba9	570664264	1	main_z	7	main_z	121	stimuli_distractor_diamondtriangles.svg	stimuli_target_diamondsquares.svg	32	yes	44	1	1001
6.6.1	mac	2022-12-15	21:40:29	21:45:13	281242	60fd6b02340bf3233276eba9	570664264	1	main_z	7	advance_on_keypress_ZEE	122	stimuli_distractor_diamondtriangles.svg	stimuli_target_diamondsquares.svg	32	yes	57	0	196
6.6.1	mac	2022-12-15	21:40:29	21:45:15	282895	60fd6b02340bf3233276eba9	570664264	1	main_z	7	main_z	123	stimuli_distractor_trianglediamonds.svg	stimuli_target_circletriangles.svg	9	yes	44	1	810
6.6.1	mac	2022-12-15	21:40:29	21:45:15	282895	60fd6b02340bf3233276eba9	570664264	1	main_z	7	advance_on_keypress_ZEE	124	stimuli_distractor_trianglediamonds.svg	stimuli_target_circletriangles.svg	9	yes	57	0	241
6.6.1	mac	2022-12-15	21:40:29	21:45:18	285766	60fd6b02340bf3233276eba9	570664264	1	main_z	7	main_z	125	stimuli_distractor_diamondtriangles.svg	stimuli_distractor_trianglediamonds.svg	38	no	0	1	2000
6.6.1	mac	2022-12-15	21:40:29	21:45:18	285766	60fd6b02340bf3233276eba9	570664264	1	main_z	7	advance_on_keypress_ZEE	126	stimuli_distractor_diamondtriangles.svg	stimuli_distractor_trianglediamonds.svg	38	no	57	0	688
6.6.1	mac	2022-12-15	21:40:29	21:45:20	287850	60fd6b02340bf3233276eba9	570664264	1	main_z	7	main_z	127	stimuli_distractor_diamondtriangles.svg	stimuli_target_circletriangles.svg	13	yes	44	1	762
6.6.1	mac	2022-12-15	21:40:29	21:45:20	287850	60fd6b02340bf3233276eba9	570664264	1	main_z	7	advance_on_keypress_ZEE	128	stimuli_distractor_diamondtriangles.svg	stimuli_target_circletriangles.svg	13	yes	57	0	260
6.6.1	mac	2022-12-15	21:40:29	21:45:22	289463	60fd6b02340bf3233276eba9	570664264	1	main_z	7	main_z	129	stimuli_target_circlediamonds.svg	stimuli_distractor_trianglediamonds.svg	2	yes	44	1	719
6.6.1	mac	2022-12-15	21:40:29	21:45:22	289463	60fd6b02340bf3233276eba9	570664264	1	main_z	7	advance_on_keypress_ZEE	130	stimuli_target_circlediamonds.svg	stimuli_distractor_trianglediamonds.svg	2	yes	57	0	447
6.6.1	mac	2022-12-15	21:40:29	21:45:25	292544	60fd6b02340bf3233276eba9	570664264	1	main_z	7	main_z	131	stimuli_distractor_trianglediamonds.svg	stimuli_distractor_diamondtriangles.svg	36	no	0	1	2000
6.6.1	mac	2022-12-15	21:40:29	21:45:25	292544	60fd6b02340bf3233276eba9	570664264	1	main_z	7	advance_on_keypress_ZEE	132	stimuli_distractor_trianglediamonds.svg	stimuli_distractor_diamondtriangles.svg	36	no	57	0	441
6.6.1	mac	2022-12-15	21:40:29	21:45:27	294554	60fd6b02340bf3233276eba9	570664264	1	main_z	7	main_z	133	stimuli_distractor_diamondtriangles.svg	stimuli_target_squaretriangles.svg	15	yes	44	1	880
6.6.1	mac	2022-12-15	21:40:29	21:45:27	294554	60fd6b02340bf3233276eba9	570664264	1	main_z	7	advance_on_keypress_ZEE	134	stimuli_distractor_diamondtriangles.svg	stimuli_target_squaretriangles.svg	15	yes	57	0	245
6.6.1	mac	2022-12-15	21:40:29	21:45:28	296318	60fd6b02340bf3233276eba9	570664264	1	main_z	7	main_z	135	stimuli_target_squarediamonds.svg	stimuli_distractor_trianglediamonds.svg	4	yes	44	1	882
6.6.1	mac	2022-12-15	21:40:29	21:45:28	296318	60fd6b02340bf3233276eba9	570664264	1	main_z	7	advance_on_keypress_ZEE	136	stimuli_target_squarediamonds.svg	stimuli_distractor_trianglediamonds.svg	4	yes	57	0	282
6.6.1	mac	2022-12-15	21:40:29	21:45:30	298122	60fd6b02340bf3233276eba9	570664264	1	main_z	7	main_z	137	stimuli_distractor_diamondtriangles.svg	stimuli_target_diamondcircles.svg	31	yes	44	1	883
6.6.1	mac	2022-12-15	21:40:29	21:45:30	298122	60fd6b02340bf3233276eba9	570664264	1	main_z	7	advance_on_keypress_ZEE	138	stimuli_distractor_diamondtriangles.svg	stimuli_target_diamondcircles.svg	31	yes	57	0	237
6.6.1	mac	2022-12-15	21:40:29	21:45:33	300989	60fd6b02340bf3233276eba9	570664264	1	main_z	7	main_z	139	stimuli_distractor_diamondtriangles.svg	stimuli_distractor_diamondtriangles.svg	40	no	0	1	2000
6.6.1	mac	2022-12-15	21:40:29	21:45:33	300989	60fd6b02340bf3233276eba9	570664264	1	main_z	7	advance_on_keypress_ZEE	140	stimuli_distractor_diamondtriangles.svg	stimuli_distractor_diamondtriangles.svg	40	no	57	0	31
6.6.1	mac	2022-12-15	21:40:29	21:45:35	302753	60fd6b02340bf3233276eba9	570664264	1	main_z	7	main_z	141	stimuli_target_trianglesquares.svg	stimuli_distractor_diamondtriangles.svg	22	yes	44	1	1036
6.6.1	mac	2022-12-15	21:40:29	21:45:35	302753	60fd6b02340bf3233276eba9	570664264	1	main_z	7	advance_on_keypress_ZEE	142	stimuli_target_trianglesquares.svg	stimuli_distractor_diamondtriangles.svg	22	yes	57	0	215
6.6.1	mac	2022-12-15	21:40:29	21:45:37	304538	60fd6b02340bf3233276eba9	570664264	1	main_z	7	main_z	143	stimuli_distractor_diamondtriangles.svg	stimuli_target_circlediamonds.svg	14	yes	44	1	927
6.6.1	mac	2022-12-15	21:40:29	21:45:37	304538	60fd6b02340bf3233276eba9	570664264	1	main_z	7	advance_on_keypress_ZEE	144	stimuli_distractor_diamondtriangles.svg	stimuli_target_circlediamonds.svg	14	yes	57	0	218
6.6.1	mac	2022-12-15	21:40:29	21:45:39	306439	60fd6b02340bf3233276eba9	570664264	1	main_z	7	main_z	145	stimuli_distractor_trianglediamonds.svg	stimuli_target_trianglecircles.svg	25	yes	44	1	1060
6.6.1	mac	2022-12-15	21:40:29	21:45:39	306439	60fd6b02340bf3233276eba9	570664264	1	main_z	7	advance_on_keypress_ZEE	146	stimuli_distractor_trianglediamonds.svg	stimuli_target_trianglecircles.svg	25	yes	57	0	217
6.6.1	mac	2022-12-15	21:40:29	21:45:42	309344	60fd6b02340bf3233276eba9	570664264	1	main_z	7	main_z	147	stimuli_distractor_trianglediamonds.svg	stimuli_distractor_diamondtriangles.svg	35	no	0	1	2000
6.6.1	mac	2022-12-15	21:40:29	21:45:42	309344	60fd6b02340bf3233276eba9	570664264	1	main_z	7	advance_on_keypress_ZEE	148	stimuli_distractor_trianglediamonds.svg	stimuli_distractor_diamondtriangles.svg	35	no	57	0	866
6.6.1	mac	2022-12-15	21:40:29	21:45:44	311739	60fd6b02340bf3233276eba9	570664264	1	main_z	7	main_z	149	stimuli_target_trianglecircles.svg	stimuli_distractor_trianglediamonds.svg	17	yes	44	1	848
6.6.1	mac	2022-12-15	21:40:29	21:45:44	311739	60fd6b02340bf3233276eba9	570664264	1	main_z	7	advance_on_keypress_ZEE	150	stimuli_target_trianglecircles.svg	stimuli_distractor_trianglediamonds.svg	17	yes	57	0	242
6.6.1	mac	2022-12-15	21:40:29	21:45:46	313968	60fd6b02340bf3233276eba9	570664264	1	main_z	7	main_z	151	stimuli_target_squaretriangles.svg	stimuli_distractor_diamondtriangles.svg	7	yes	44	1	1352
6.6.1	mac	2022-12-15	21:40:29	21:45:46	313968	60fd6b02340bf3233276eba9	570664264	1	main_z	7	advance_on_keypress_ZEE	152	stimuli_target_squaretriangles.svg	stimuli_distractor_diamondtriangles.svg	7	yes	57	0	168
6.6.1	mac	2022-12-15	21:40:29	21:45:48	315686	60fd6b02340bf3233276eba9	570664264	1	main_z	7	main_z	153	stimuli_distractor_trianglediamonds.svg	stimuli_target_circlediamonds.svg	10	yes	44	1	861
6.6.1	mac	2022-12-15	21:40:29	21:45:48	315686	60fd6b02340bf3233276eba9	570664264	1	main_z	7	advance_on_keypress_ZEE	154	stimuli_distractor_trianglediamonds.svg	stimuli_target_circlediamonds.svg	10	yes	57	0	238
6.6.1	mac	2022-12-15	21:40:29	21:45:51	318558	60fd6b02340bf3233276eba9	570664264	1	main_z	7	main_z	155	stimuli_distractor_diamondtriangles.svg	stimuli_distractor_trianglediamonds.svg	37	no	0	1	2000
6.6.1	mac	2022-12-15	21:40:29	21:45:51	318558	60fd6b02340bf3233276eba9	570664264	1	main_z	7	advance_on_keypress_ZEE	156	stimuli_distractor_diamondtriangles.svg	stimuli_distractor_trianglediamonds.svg	37	no	57	0	423
6.6.1	mac	2022-12-15	21:40:29	21:45:54	321606	60fd6b02340bf3233276eba9	570664264	1	main_z	7	main_z	157	stimuli_distractor_trianglediamonds.svg	stimuli_distractor_trianglediamonds.svg	34	no	0	1	2000
6.6.1	mac	2022-12-15	21:40:29	21:45:54	321606	60fd6b02340bf3233276eba9	570664264	1	main_z	7	advance_on_keypress_ZEE	158	stimuli_distractor_trianglediamonds.svg	stimuli_distractor_trianglediamonds.svg	34	no	57	0	371
6.6.1	mac	2022-12-15	21:40:29	21:45:55	323265	60fd6b02340bf3233276eba9	570664264	1	main_z	7	main_z	159	stimuli_target_diamondsquares.svg	stimuli_distractor_trianglediamonds.svg	20	yes	44	1	595
6.6.1	mac	2022-12-15	21:40:29	21:45:55	323265	60fd6b02340bf3233276eba9	570664264	1	main_z	7	advance_on_keypress_ZEE	160	stimuli_target_diamondsquares.svg	stimuli_distractor_trianglediamonds.svg	20	yes	57	0	537
6.6.1	mac	2022-12-15	21:40:29	21:46:20	348036	60fd6b02340bf3233276eba9	570664264	1	practice_slash	9	practice_slash	1	stimuli_distractor_trianglediamonds.svg	stimuli_distractor_diamondtriangles.svg	16	no	53	0	1149
6.6.1	mac	2022-12-15	21:40:29	21:46:20	348036	60fd6b02340bf3233276eba9	570664264	1	practice_slash	9	advance_on_keypress_SLASH	2	stimuli_distractor_trianglediamonds.svg	stimuli_distractor_diamondtriangles.svg	16	no	57	0	425
6.6.1	mac	2022-12-15	21:40:29	21:46:23	351076	60fd6b02340bf3233276eba9	570664264	1	practice_slash	9	practice_slash	3	stimuli_target_diamondsquares.svg	stimuli_distractor_diamondtriangles.svg	3	yes	53	1	862
6.6.1	mac	2022-12-15	21:40:29	21:46:23	351076	60fd6b02340bf3233276eba9	570664264	1	practice_slash	9	advance_on_keypress_SLASH	4	stimuli_target_diamondsquares.svg	stimuli_distractor_diamondtriangles.svg	3	yes	57	0	403
6.6.1	mac	2022-12-15	21:40:29	21:46:26	353665	60fd6b02340bf3233276eba9	570664264	1	practice_slash	9	practice_slash	5	stimuli_distractor_diamondtriangles.svg	stimuli_target_trianglecircles.svg	9	yes	53	1	551
6.6.1	mac	2022-12-15	21:40:29	21:46:26	353665	60fd6b02340bf3233276eba9	570664264	1	practice_slash	9	advance_on_keypress_SLASH	6	stimuli_distractor_diamondtriangles.svg	stimuli_target_trianglecircles.svg	9	yes	57	0	298
6.6.1	mac	2022-12-15	21:40:29	21:46:30	357606	60fd6b02340bf3233276eba9	570664264	1	practice_slash	9	practice_slash	7	stimuli_distractor_trianglediamonds.svg	stimuli_distractor_trianglediamonds.svg	15	no	0	1	2000
6.6.1	mac	2022-12-15	21:40:29	21:46:30	357606	60fd6b02340bf3233276eba9	570664264	1	practice_slash	9	advance_on_keypress_SLASH	8	stimuli_distractor_trianglediamonds.svg	stimuli_distractor_trianglediamonds.svg	15	no	57	0	442
6.6.1	mac	2022-12-15	21:40:29	21:46:33	360824	60fd6b02340bf3233276eba9	570664264	1	practice_slash	9	practice_slash	9	stimuli_distractor_trianglediamonds.svg	stimuli_target_squarediamonds.svg	11	yes	53	1	1027
6.6.1	mac	2022-12-15	21:40:29	21:46:33	360824	60fd6b02340bf3233276eba9	570664264	1	practice_slash	9	advance_on_keypress_SLASH	10	stimuli_distractor_trianglediamonds.svg	stimuli_target_squarediamonds.svg	11	yes	57	0	347
6.6.1	mac	2022-12-15	21:40:29	21:46:36	363681	60fd6b02340bf3233276eba9	570664264	1	practice_slash	9	practice_slash	11	stimuli_target_circlediamonds.svg	stimuli_distractor_diamondtriangles.svg	1	yes	53	1	817
6.6.1	mac	2022-12-15	21:40:29	21:46:36	363681	60fd6b02340bf3233276eba9	570664264	1	practice_slash	9	advance_on_keypress_SLASH	12	stimuli_target_circlediamonds.svg	stimuli_distractor_diamondtriangles.svg	1	yes	57	0	214
6.6.1	mac	2022-12-15	21:40:29	21:46:40	367534	60fd6b02340bf3233276eba9	570664264	1	practice_slash	9	practice_slash	13	stimuli_distractor_diamondtriangles.svg	stimuli_distractor_trianglediamonds.svg	14	no	0	1	2000
6.6.1	mac	2022-12-15	21:40:29	21:46:40	367534	60fd6b02340bf3233276eba9	570664264	1	practice_slash	9	advance_on_keypress_SLASH	14	stimuli_distractor_diamondtriangles.svg	stimuli_distractor_trianglediamonds.svg	14	no	57	0	531
6.6.1	mac	2022-12-15	21:40:29	21:46:43	370489	60fd6b02340bf3233276eba9	570664264	1	practice_slash	9	practice_slash	15	stimuli_target_squarediamonds.svg	stimuli_distractor_diamondtriangles.svg	2	yes	53	1	733
6.6.1	mac	2022-12-15	21:40:29	21:46:43	370489	60fd6b02340bf3233276eba9	570664264	1	practice_slash	9	advance_on_keypress_SLASH	16	stimuli_target_squarediamonds.svg	stimuli_distractor_diamondtriangles.svg	2	yes	57	0	287
6.6.1	mac	2022-12-15	21:40:29	21:46:45	373232	60fd6b02340bf3233276eba9	570664264	1	practice_slash	9	practice_slash	17	stimuli_target_diamondsquares.svg	stimuli_distractor_trianglediamonds.svg	6	yes	53	1	818
6.6.1	mac	2022-12-15	21:40:29	21:46:45	373232	60fd6b02340bf3233276eba9	570664264	1	practice_slash	9	advance_on_keypress_SLASH	18	stimuli_target_diamondsquares.svg	stimuli_distractor_trianglediamonds.svg	6	yes	57	0	361
6.6.1	mac	2022-12-15	21:40:29	21:46:48	375798	60fd6b02340bf3233276eba9	570664264	1	practice_slash	9	practice_slash	19	stimuli_target_squarediamonds.svg	stimuli_distractor_trianglediamonds.svg	5	yes	53	1	550
6.6.1	mac	2022-12-15	21:40:29	21:46:48	375798	60fd6b02340bf3233276eba9	570664264	1	practice_slash	9	advance_on_keypress_SLASH	20	stimuli_target_squarediamonds.svg	stimuli_distractor_trianglediamonds.svg	5	yes	57	0	326
6.6.1	mac	2022-12-15	21:40:29	21:46:50	378151	60fd6b02340bf3233276eba9	570664264	1	practice_slash	9	practice_slash	21	stimuli_distractor_diamondtriangles.svg	stimuli_target_circletriangles.svg	7	yes	53	1	376
6.6.1	mac	2022-12-15	21:40:29	21:46:50	378151	60fd6b02340bf3233276eba9	570664264	1	practice_slash	9	advance_on_keypress_SLASH	22	stimuli_distractor_diamondtriangles.svg	stimuli_target_circletriangles.svg	7	yes	57	0	337
6.6.1	mac	2022-12-15	21:40:29	21:46:54	382107	60fd6b02340bf3233276eba9	570664264	1	practice_slash	9	practice_slash	23	stimuli_distractor_diamondtriangles.svg	stimuli_distractor_diamondtriangles.svg	13	no	0	1	2000
6.6.1	mac	2022-12-15	21:40:29	21:46:54	382107	60fd6b02340bf3233276eba9	570664264	1	practice_slash	9	advance_on_keypress_SLASH	24	stimuli_distractor_diamondtriangles.svg	stimuli_distractor_diamondtriangles.svg	13	no	57	0	263
6.6.1	mac	2022-12-15	21:40:29	21:46:57	384657	60fd6b02340bf3233276eba9	570664264	1	practice_slash	9	practice_slash	25	stimuli_target_circlediamonds.svg	stimuli_distractor_trianglediamonds.svg	4	yes	53	1	598
6.6.1	mac	2022-12-15	21:40:29	21:46:57	384657	60fd6b02340bf3233276eba9	570664264	1	practice_slash	9	advance_on_keypress_SLASH	26	stimuli_target_circlediamonds.svg	stimuli_distractor_trianglediamonds.svg	4	yes	57	0	411
6.6.1	mac	2022-12-15	21:40:29	21:47:00	387391	60fd6b02340bf3233276eba9	570664264	1	practice_slash	9	practice_slash	27	stimuli_distractor_trianglediamonds.svg	stimuli_target_diamondcircles.svg	12	yes	53	1	636
6.6.1	mac	2022-12-15	21:40:29	21:47:00	387391	60fd6b02340bf3233276eba9	570664264	1	practice_slash	9	advance_on_keypress_SLASH	28	stimuli_distractor_trianglediamonds.svg	stimuli_target_diamondcircles.svg	12	yes	57	0	432
6.6.1	mac	2022-12-15	21:40:29	21:47:02	390149	60fd6b02340bf3233276eba9	570664264	1	practice_slash	9	practice_slash	29	stimuli_distractor_diamondtriangles.svg	stimuli_target_diamondcircles.svg	8	yes	53	1	688
6.6.1	mac	2022-12-15	21:40:29	21:47:02	390149	60fd6b02340bf3233276eba9	570664264	1	practice_slash	9	advance_on_keypress_SLASH	30	stimuli_distractor_diamondtriangles.svg	stimuli_target_diamondcircles.svg	8	yes	57	0	421
6.6.1	mac	2022-12-15	21:40:29	21:47:05	392852	60fd6b02340bf3233276eba9	570664264	1	practice_slash	9	practice_slash	31	stimuli_distractor_trianglediamonds.svg	stimuli_target_circlediamonds.svg	10	yes	53	1	647
6.6.1	mac	2022-12-15	21:40:29	21:47:05	392852	60fd6b02340bf3233276eba9	570664264	1	practice_slash	9	advance_on_keypress_SLASH	32	stimuli_distractor_trianglediamonds.svg	stimuli_target_circlediamonds.svg	10	yes	57	0	402
6.6.1	mac	2022-12-15	21:40:29	21:47:24	412132	60fd6b02340bf3233276eba9	570664264	1	main_slash	11	main_slash	1	stimuli_distractor_trianglediamonds.svg	stimuli_distractor_trianglediamonds.svg	33	no	53	0	1996
6.6.1	mac	2022-12-15	21:40:29	21:47:24	412132	60fd6b02340bf3233276eba9	570664264	1	main_slash	11	advance_on_keypress_SLASH	2	stimuli_distractor_trianglediamonds.svg	stimuli_distractor_trianglediamonds.svg	33	no	57	0	649
6.6.1	mac	2022-12-15	21:40:29	21:47:26	414057	60fd6b02340bf3233276eba9	570664264	1	main_slash	11	main_slash	3	stimuli_target_squarediamonds.svg	stimuli_distractor_trianglediamonds.svg	4	yes	53	1	578
6.6.1	mac	2022-12-15	21:40:29	21:47:26	414057	60fd6b02340bf3233276eba9	570664264	1	main_slash	11	advance_on_keypress_SLASH	4	stimuli_target_squarediamonds.svg	stimuli_distractor_trianglediamonds.svg	4	yes	57	0	424
6.6.1	mac	2022-12-15	21:40:29	21:47:28	415668	60fd6b02340bf3233276eba9	570664264	1	main_slash	11	main_slash	5	stimuli_distractor_trianglediamonds.svg	stimuli_target_trianglesquares.svg	26	yes	53	1	547
6.6.1	mac	2022-12-15	21:40:29	21:47:28	415668	60fd6b02340bf3233276eba9	570664264	1	main_slash	11	advance_on_keypress_SLASH	6	stimuli_distractor_trianglediamonds.svg	stimuli_target_trianglesquares.svg	26	yes	57	0	392
6.6.1	mac	2022-12-15	21:40:29	21:47:31	418699	60fd6b02340bf3233276eba9	570664264	1	main_slash	11	main_slash	7	stimuli_distractor_diamondtriangles.svg	stimuli_distractor_trianglediamonds.svg	37	no	0	1	2000
6.6.1	mac	2022-12-15	21:40:29	21:47:31	418699	60fd6b02340bf3233276eba9	570664264	1	main_slash	11	advance_on_keypress_SLASH	8	stimuli_distractor_diamondtriangles.svg	stimuli_distractor_trianglediamonds.svg	37	no	57	0	386
6.6.1	mac	2022-12-15	21:40:29	21:47:33	420336	60fd6b02340bf3233276eba9	570664264	1	main_slash	11	main_slash	9	stimuli_target_diamondsquares.svg	stimuli_distractor_diamondtriangles.svg	24	yes	53	1	569
6.6.1	mac	2022-12-15	21:40:29	21:47:33	420336	60fd6b02340bf3233276eba9	570664264	1	main_slash	11	advance_on_keypress_SLASH	10	stimuli_target_diamondsquares.svg	stimuli_distractor_diamondtriangles.svg	24	yes	57	0	355
6.6.1	mac	2022-12-15	21:40:29	21:47:34	421929	60fd6b02340bf3233276eba9	570664264	1	main_slash	11	main_slash	11	stimuli_distractor_trianglediamonds.svg	stimuli_target_diamondcircles.svg	27	yes	53	1	598
6.6.1	mac	2022-12-15	21:40:29	21:47:34	421929	60fd6b02340bf3233276eba9	570664264	1	main_slash	11	advance_on_keypress_SLASH	12	stimuli_distractor_trianglediamonds.svg	stimuli_target_diamondcircles.svg	27	yes	57	0	330
6.6.1	mac	2022-12-15	21:40:29	21:47:36	423467	60fd6b02340bf3233276eba9	570664264	1	main_slash	11	main_slash	13	stimuli_distractor_diamondtriangles.svg	stimuli_target_trianglecircles.svg	29	yes	53	1	569
6.6.1	mac	2022-12-15	21:40:29	21:47:36	423467	60fd6b02340bf3233276eba9	570664264	1	main_slash	11	advance_on_keypress_SLASH	14	stimuli_distractor_diamondtriangles.svg	stimuli_target_trianglecircles.svg	29	yes	57	0	237
6.6.1	mac	2022-12-15	21:40:29	21:47:37	424791	60fd6b02340bf3233276eba9	570664264	1	main_slash	11	main_slash	15	stimuli_target_squarediamonds.svg	stimuli_distractor_diamondtriangles.svg	8	yes	53	1	459
6.6.1	mac	2022-12-15	21:40:29	21:47:37	424791	60fd6b02340bf3233276eba9	570664264	1	main_slash	11	advance_on_keypress_SLASH	16	stimuli_target_squarediamonds.svg	stimuli_distractor_diamondtriangles.svg	8	yes	57	0	547
6.6.1	mac	2022-12-15	21:40:29	21:47:39	426852	60fd6b02340bf3233276eba9	570664264	1	main_slash	11	main_slash	17	stimuli_distractor_diamondtriangles.svg	stimuli_target_squaretriangles.svg	15	yes	53	1	866
6.6.1	mac	2022-12-15	21:40:29	21:47:39	426852	60fd6b02340bf3233276eba9	570664264	1	main_slash	11	advance_on_keypress_SLASH	18	stimuli_distractor_diamondtriangles.svg	stimuli_target_squaretriangles.svg	15	yes	57	0	384
6.6.1	mac	2022-12-15	21:40:29	21:47:40	428319	60fd6b02340bf3233276eba9	570664264	1	main_slash	11	main_slash	19	stimuli_target_trianglecircles.svg	stimuli_distractor_trianglediamonds.svg	17	yes	53	1	449
6.6.1	mac	2022-12-15	21:40:29	21:47:40	428319	60fd6b02340bf3233276eba9	570664264	1	main_slash	11	advance_on_keypress_SLASH	20	stimuli_target_trianglecircles.svg	stimuli_distractor_trianglediamonds.svg	17	yes	57	0	260
6.6.1	mac	2022-12-15	21:40:29	21:47:42	429581	60fd6b02340bf3233276eba9	570664264	1	main_slash	11	main_slash	21	stimuli_distractor_trianglediamonds.svg	stimuli_target_circlediamonds.svg	10	yes	53	1	358
6.6.1	mac	2022-12-15	21:40:29	21:47:42	429581	60fd6b02340bf3233276eba9	570664264	1	main_slash	11	advance_on_keypress_SLASH	22	stimuli_distractor_trianglediamonds.svg	stimuli_target_circlediamonds.svg	10	yes	57	0	355
6.6.1	mac	2022-12-15	21:40:29	21:47:43	430834	60fd6b02340bf3233276eba9	570664264	1	main_slash	11	main_slash	23	stimuli_target_circlediamonds.svg	stimuli_distractor_trianglediamonds.svg	2	yes	53	1	261
6.6.1	mac	2022-12-15	21:40:29	21:47:43	430834	60fd6b02340bf3233276eba9	570664264	1	main_slash	11	advance_on_keypress_SLASH	24	stimuli_target_circlediamonds.svg	stimuli_distractor_trianglediamonds.svg	2	yes	57	0	280
6.6.1	mac	2022-12-15	21:40:29	21:47:44	432204	60fd6b02340bf3233276eba9	570664264	1	main_slash	11	main_slash	25	stimuli_distractor_diamondtriangles.svg	stimuli_target_trianglesquares.svg	30	yes	53	1	455
6.6.1	mac	2022-12-15	21:40:29	21:47:44	432204	60fd6b02340bf3233276eba9	570664264	1	main_slash	11	advance_on_keypress_SLASH	26	stimuli_distractor_diamondtriangles.svg	stimuli_target_trianglesquares.svg	30	yes	57	0	334
6.6.1	mac	2022-12-15	21:40:29	21:47:46	433573	60fd6b02340bf3233276eba9	570664264	1	main_slash	11	main_slash	27	stimuli_distractor_trianglediamonds.svg	stimuli_target_circletriangles.svg	9	yes	53	1	392
6.6.1	mac	2022-12-15	21:40:29	21:47:46	433573	60fd6b02340bf3233276eba9	570664264	1	main_slash	11	advance_on_keypress_SLASH	28	stimuli_distractor_trianglediamonds.svg	stimuli_target_circletriangles.svg	9	yes	57	0	312
6.6.1	mac	2022-12-15	21:40:29	21:47:47	435059	60fd6b02340bf3233276eba9	570664264	1	main_slash	11	main_slash	29	stimuli_target_squaretriangles.svg	stimuli_distractor_diamondtriangles.svg	7	yes	53	1	487
6.6.1	mac	2022-12-15	21:40:29	21:47:47	435059	60fd6b02340bf3233276eba9	570664264	1	main_slash	11	advance_on_keypress_SLASH	30	stimuli_target_squaretriangles.svg	stimuli_distractor_diamondtriangles.svg	7	yes	57	0	290
6.6.1	mac	2022-12-15	21:40:29	21:47:50	437985	60fd6b02340bf3233276eba9	570664264	1	main_slash	11	main_slash	31	stimuli_distractor_diamondtriangles.svg	stimuli_distractor_diamondtriangles.svg	40	no	0	1	2000
6.6.1	mac	2022-12-15	21:40:29	21:47:50	437985	60fd6b02340bf3233276eba9	570664264	1	main_slash	11	advance_on_keypress_SLASH	32	stimuli_distractor_diamondtriangles.svg	stimuli_distractor_diamondtriangles.svg	40	no	57	0	630
6.6.1	mac	2022-12-15	21:40:29	21:47:52	439871	60fd6b02340bf3233276eba9	570664264	1	main_slash	11	main_slash	33	stimuli_distractor_diamondtriangles.svg	stimuli_target_diamondsquares.svg	32	yes	53	1	578
6.6.1	mac	2022-12-15	21:40:29	21:47:52	439871	60fd6b02340bf3233276eba9	570664264	1	main_slash	11	advance_on_keypress_SLASH	34	stimuli_distractor_diamondtriangles.svg	stimuli_target_diamondsquares.svg	32	yes	57	0	269
6.6.1	mac	2022-12-15	21:40:29	21:47:53	441248	60fd6b02340bf3233276eba9	570664264	1	main_slash	11	main_slash	35	stimuli_distractor_trianglediamonds.svg	stimuli_target_diamondsquares.svg	28	yes	53	1	462
6.6.1	mac	2022-12-15	21:40:29	21:47:53	441248	60fd6b02340bf3233276eba9	570664264	1	main_slash	11	advance_on_keypress_SLASH	36	stimuli_distractor_trianglediamonds.svg	stimuli_target_diamondsquares.svg	28	yes	57	0	245
6.6.1	mac	2022-12-15	21:40:29	21:47:55	442766	60fd6b02340bf3233276eba9	570664264	1	main_slash	11	main_slash	37	stimuli_target_circlediamonds.svg	stimuli_distractor_diamondtriangles.svg	6	yes	53	1	634
6.6.1	mac	2022-12-15	21:40:29	21:47:55	442766	60fd6b02340bf3233276eba9	570664264	1	main_slash	11	advance_on_keypress_SLASH	38	stimuli_target_circlediamonds.svg	stimuli_distractor_diamondtriangles.svg	6	yes	57	0	381
6.6.1	mac	2022-12-15	21:40:29	21:47:57	444385	60fd6b02340bf3233276eba9	570664264	1	main_slash	11	main_slash	39	stimuli_distractor_trianglediamonds.svg	stimuli_target_squaretriangles.svg	11	yes	53	1	600
6.6.1	mac	2022-12-15	21:40:29	21:47:57	444385	60fd6b02340bf3233276eba9	570664264	1	main_slash	11	advance_on_keypress_SLASH	40	stimuli_distractor_trianglediamonds.svg	stimuli_target_squaretriangles.svg	11	yes	57	0	196
6.6.1	mac	2022-12-15	21:40:29	21:47:58	445603	60fd6b02340bf3233276eba9	570664264	1	main_slash	11	main_slash	41	stimuli_distractor_trianglediamonds.svg	stimuli_target_trianglecircles.svg	25	yes	53	1	385
6.6.1	mac	2022-12-15	21:40:29	21:47:58	445603	60fd6b02340bf3233276eba9	570664264	1	main_slash	11	advance_on_keypress_SLASH	42	stimuli_distractor_trianglediamonds.svg	stimuli_target_trianglecircles.svg	25	yes	57	0	280
6.6.1	mac	2022-12-15	21:40:29	21:47:59	446962	60fd6b02340bf3233276eba9	570664264	1	main_slash	11	main_slash	43	stimuli_target_circletriangles.svg	stimuli_distractor_diamondtriangles.svg	5	yes	53	1	437
6.6.1	mac	2022-12-15	21:40:29	21:47:59	446962	60fd6b02340bf3233276eba9	570664264	1	main_slash	11	advance_on_keypress_SLASH	44	stimuli_target_circletriangles.svg	stimuli_distractor_diamondtriangles.svg	5	yes	57	0	200
6.6.1	mac	2022-12-15	21:40:29	21:48:00	448189	60fd6b02340bf3233276eba9	570664264	1	main_slash	11	main_slash	45	stimuli_target_circletriangles.svg	stimuli_distractor_trianglediamonds.svg	1	yes	53	1	391
6.6.1	mac	2022-12-15	21:40:29	21:48:00	448189	60fd6b02340bf3233276eba9	570664264	1	main_slash	11	advance_on_keypress_SLASH	46	stimuli_target_circletriangles.svg	stimuli_distractor_trianglediamonds.svg	1	yes	57	0	266
6.6.1	mac	2022-12-15	21:40:29	21:48:02	449831	60fd6b02340bf3233276eba9	570664264	1	main_slash	11	main_slash	47	stimuli_distractor_diamondtriangles.svg	stimuli_target_circlediamonds.svg	14	yes	53	1	741
6.6.1	mac	2022-12-15	21:40:29	21:48:02	449831	60fd6b02340bf3233276eba9	570664264	1	main_slash	11	advance_on_keypress_SLASH	48	stimuli_distractor_diamondtriangles.svg	stimuli_target_circlediamonds.svg	14	yes	57	0	156
6.6.1	mac	2022-12-15	21:40:29	21:48:03	451217	60fd6b02340bf3233276eba9	570664264	1	main_slash	11	main_slash	49	stimuli_distractor_diamondtriangles.svg	stimuli_target_diamondcircles.svg	31	yes	53	1	529
6.6.1	mac	2022-12-15	21:40:29	21:48:03	451217	60fd6b02340bf3233276eba9	570664264	1	main_slash	11	advance_on_keypress_SLASH	50	stimuli_distractor_diamondtriangles.svg	stimuli_target_diamondcircles.svg	31	yes	57	0	176
6.6.1	mac	2022-12-15	21:40:29	21:48:05	452556	60fd6b02340bf3233276eba9	570664264	1	main_slash	11	main_slash	51	stimuli_target_trianglesquares.svg	stimuli_distractor_trianglediamonds.svg	18	yes	53	1	513
6.6.1	mac	2022-12-15	21:40:29	21:48:05	452556	60fd6b02340bf3233276eba9	570664264	1	main_slash	11	advance_on_keypress_SLASH	52	stimuli_target_trianglesquares.svg	stimuli_distractor_trianglediamonds.svg	18	yes	57	0	183
6.6.1	mac	2022-12-15	21:40:29	21:48:07	454335	60fd6b02340bf3233276eba9	570664264	1	main_slash	11	main_slash	53	stimuli_target_trianglesquares.svg	stimuli_distractor_diamondtriangles.svg	22	yes	53	1	961
6.6.1	mac	2022-12-15	21:40:29	21:48:07	454335	60fd6b02340bf3233276eba9	570664264	1	main_slash	11	advance_on_keypress_SLASH	54	stimuli_target_trianglesquares.svg	stimuli_distractor_diamondtriangles.svg	22	yes	57	0	102
6.6.1	mac	2022-12-15	21:40:29	21:48:09	457134	60fd6b02340bf3233276eba9	570664264	1	main_slash	11	main_slash	55	stimuli_distractor_trianglediamonds.svg	stimuli_distractor_diamondtriangles.svg	35	no	0	1	2000
6.6.1	mac	2022-12-15	21:40:29	21:48:09	457134	60fd6b02340bf3233276eba9	570664264	1	main_slash	11	advance_on_keypress_SLASH	56	stimuli_distractor_trianglediamonds.svg	stimuli_distractor_diamondtriangles.svg	35	no	57	0	579
6.6.1	mac	2022-12-15	21:40:29	21:48:11	458842	60fd6b02340bf3233276eba9	570664264	1	main_slash	11	main_slash	57	stimuli_target_trianglecircles.svg	stimuli_distractor_diamondtriangles.svg	21	yes	53	1	500
6.6.1	mac	2022-12-15	21:40:29	21:48:11	458842	60fd6b02340bf3233276eba9	570664264	1	main_slash	11	advance_on_keypress_SLASH	58	stimuli_target_trianglecircles.svg	stimuli_distractor_diamondtriangles.svg	21	yes	57	0	190
6.6.1	mac	2022-12-15	21:40:29	21:48:12	460004	60fd6b02340bf3233276eba9	570664264	1	main_slash	11	main_slash	59	stimuli_distractor_trianglediamonds.svg	stimuli_distractor_trianglediamonds.svg	34	no	53	0	342
6.6.1	mac	2022-12-15	21:40:29	21:48:12	460004	60fd6b02340bf3233276eba9	570664264	1	main_slash	11	advance_on_keypress_SLASH	60	stimuli_distractor_trianglediamonds.svg	stimuli_distractor_trianglediamonds.svg	34	no	57	0	293
6.6.1	mac	2022-12-15	21:40:29	21:48:15	462939	60fd6b02340bf3233276eba9	570664264	1	main_slash	11	main_slash	61	stimuli_distractor_trianglediamonds.svg	stimuli_distractor_diamondtriangles.svg	36	no	0	1	2000
6.6.1	mac	2022-12-15	21:40:29	21:48:15	462939	60fd6b02340bf3233276eba9	570664264	1	main_slash	11	advance_on_keypress_SLASH	62	stimuli_distractor_trianglediamonds.svg	stimuli_distractor_diamondtriangles.svg	36	no	57	0	222
6.6.1	mac	2022-12-15	21:40:29	21:48:17	464511	60fd6b02340bf3233276eba9	570664264	1	main_slash	11	main_slash	63	stimuli_distractor_diamondtriangles.svg	stimuli_target_squarediamonds.svg	16	yes	53	1	660
6.6.1	mac	2022-12-15	21:40:29	21:48:17	464511	60fd6b02340bf3233276eba9	570664264	1	main_slash	11	advance_on_keypress_SLASH	64	stimuli_distractor_diamondtriangles.svg	stimuli_target_squarediamonds.svg	16	yes	57	0	155
6.6.1	mac	2022-12-15	21:40:29	21:48:18	466201	60fd6b02340bf3233276eba9	570664264	1	main_slash	11	main_slash	65	stimuli_target_diamondsquares.svg	stimuli_distractor_trianglediamonds.svg	20	yes	53	1	901
6.6.1	mac	2022-12-15	21:40:29	21:48:18	466201	60fd6b02340bf3233276eba9	570664264	1	main_slash	11	advance_on_keypress_SLASH	66	stimuli_target_diamondsquares.svg	stimuli_distractor_trianglediamonds.svg	20	yes	57	0	174
6.6.1	mac	2022-12-15	21:40:29	21:48:20	467447	60fd6b02340bf3233276eba9	570664264	1	main_slash	11	main_slash	67	stimuli_target_diamondcircles.svg	stimuli_distractor_trianglediamonds.svg	19	yes	53	1	444
6.6.1	mac	2022-12-15	21:40:29	21:48:20	467447	60fd6b02340bf3233276eba9	570664264	1	main_slash	11	advance_on_keypress_SLASH	68	stimuli_target_diamondcircles.svg	stimuli_distractor_trianglediamonds.svg	19	yes	57	0	163
6.6.1	mac	2022-12-15	21:40:29	21:48:21	468718	60fd6b02340bf3233276eba9	570664264	1	main_slash	11	main_slash	69	stimuli_target_diamondcircles.svg	stimuli_distractor_diamondtriangles.svg	23	yes	53	1	469
6.6.1	mac	2022-12-15	21:40:29	21:48:21	468718	60fd6b02340bf3233276eba9	570664264	1	main_slash	11	advance_on_keypress_SLASH	70	stimuli_target_diamondcircles.svg	stimuli_distractor_diamondtriangles.svg	23	yes	57	0	130
6.6.1	mac	2022-12-15	21:40:29	21:48:22	469969	60fd6b02340bf3233276eba9	570664264	1	main_slash	11	main_slash	71	stimuli_target_squaretriangles.svg	stimuli_distractor_trianglediamonds.svg	3	yes	53	1	477
6.6.1	mac	2022-12-15	21:40:29	21:48:22	469969	60fd6b02340bf3233276eba9	570664264	1	main_slash	11	advance_on_keypress_SLASH	72	stimuli_target_squaretriangles.svg	stimuli_distractor_trianglediamonds.svg	3	yes	57	0	112
6.6.1	mac	2022-12-15	21:40:29	21:48:24	471742	60fd6b02340bf3233276eba9	570664264	1	main_slash	11	main_slash	73	stimuli_distractor_trianglediamonds.svg	stimuli_target_squarediamonds.svg	12	yes	53	1	1021
6.6.1	mac	2022-12-15	21:40:29	21:48:24	471742	60fd6b02340bf3233276eba9	570664264	1	main_slash	11	advance_on_keypress_SLASH	74	stimuli_distractor_trianglediamonds.svg	stimuli_target_squarediamonds.svg	12	yes	57	0	79
6.6.1	mac	2022-12-15	21:40:29	21:48:25	473110	60fd6b02340bf3233276eba9	570664264	1	main_slash	11	main_slash	75	stimuli_distractor_diamondtriangles.svg	stimuli_target_circletriangles.svg	13	yes	53	1	601
6.6.1	mac	2022-12-15	21:40:29	21:48:25	473110	60fd6b02340bf3233276eba9	570664264	1	main_slash	11	advance_on_keypress_SLASH	76	stimuli_distractor_diamondtriangles.svg	stimuli_target_circletriangles.svg	13	yes	57	0	147
6.6.1	mac	2022-12-15	21:40:29	21:48:28	475888	60fd6b02340bf3233276eba9	570664264	1	main_slash	11	main_slash	77	stimuli_distractor_diamondtriangles.svg	stimuli_distractor_diamondtriangles.svg	39	no	0	1	2000
6.6.1	mac	2022-12-15	21:40:29	21:48:28	475888	60fd6b02340bf3233276eba9	570664264	1	main_slash	11	advance_on_keypress_SLASH	78	stimuli_distractor_diamondtriangles.svg	stimuli_distractor_diamondtriangles.svg	39	no	57	0	59
6.6.1	mac	2022-12-15	21:40:29	21:48:30	477407	60fd6b02340bf3233276eba9	570664264	1	main_slash	11	main_slash	79	stimuli_distractor_diamondtriangles.svg	stimuli_distractor_trianglediamonds.svg	38	no	53	0	782
6.6.1	mac	2022-12-15	21:40:29	21:48:30	477407	60fd6b02340bf3233276eba9	570664264	1	main_slash	11	advance_on_keypress_SLASH	80	stimuli_distractor_diamondtriangles.svg	stimuli_distractor_trianglediamonds.svg	38	no	57	0	176
6.6.1	mac	2022-12-15	21:40:29	21:48:32	480228	60fd6b02340bf3233276eba9	570664264	1	main_slash	11	main_slash	81	stimuli_distractor_trianglediamonds.svg	stimuli_distractor_trianglediamonds.svg	34	no	0	1	2000
6.6.1	mac	2022-12-15	21:40:29	21:48:32	480228	60fd6b02340bf3233276eba9	570664264	1	main_slash	11	advance_on_keypress_SLASH	82	stimuli_distractor_trianglediamonds.svg	stimuli_distractor_trianglediamonds.svg	34	no	57	0	184
6.6.1	mac	2022-12-15	21:40:29	21:48:34	481517	60fd6b02340bf3233276eba9	570664264	1	main_slash	11	main_slash	83	stimuli_target_trianglesquares.svg	stimuli_distractor_trianglediamonds.svg	18	yes	53	1	471
6.6.1	mac	2022-12-15	21:40:29	21:48:34	481517	60fd6b02340bf3233276eba9	570664264	1	main_slash	11	advance_on_keypress_SLASH	84	stimuli_target_trianglesquares.svg	stimuli_distractor_trianglediamonds.svg	18	yes	57	0	144
6.6.1	mac	2022-12-15	21:40:29	21:48:35	483061	60fd6b02340bf3233276eba9	570664264	1	main_slash	11	main_slash	85	stimuli_target_squaretriangles.svg	stimuli_distractor_trianglediamonds.svg	3	yes	53	1	763
6.6.1	mac	2022-12-15	21:40:29	21:48:35	483061	60fd6b02340bf3233276eba9	570664264	1	main_slash	11	advance_on_keypress_SLASH	86	stimuli_target_squaretriangles.svg	stimuli_distractor_trianglediamonds.svg	3	yes	57	0	112
6.6.1	mac	2022-12-15	21:40:29	21:48:36	484250	60fd6b02340bf3233276eba9	570664264	1	main_slash	11	main_slash	87	stimuli_target_trianglecircles.svg	stimuli_distractor_trianglediamonds.svg	17	yes	53	1	435
6.6.1	mac	2022-12-15	21:40:29	21:48:36	484250	60fd6b02340bf3233276eba9	570664264	1	main_slash	11	advance_on_keypress_SLASH	88	stimuli_target_trianglecircles.svg	stimuli_distractor_trianglediamonds.svg	17	yes	57	0	123
6.6.1	mac	2022-12-15	21:40:29	21:48:38	485628	60fd6b02340bf3233276eba9	570664264	1	main_slash	11	main_slash	89	stimuli_distractor_trianglediamonds.svg	stimuli_target_trianglecircles.svg	25	yes	53	1	632
6.6.1	mac	2022-12-15	21:40:29	21:48:38	485628	60fd6b02340bf3233276eba9	570664264	1	main_slash	11	advance_on_keypress_SLASH	90	stimuli_distractor_trianglediamonds.svg	stimuli_target_trianglecircles.svg	25	yes	57	0	67
6.6.1	mac	2022-12-15	21:40:29	21:48:39	487143	60fd6b02340bf3233276eba9	570664264	1	main_slash	11	main_slash	91	stimuli_target_diamondcircles.svg	stimuli_distractor_trianglediamonds.svg	19	yes	53	1	814
6.6.1	mac	2022-12-15	21:40:29	21:48:39	487143	60fd6b02340bf3233276eba9	570664264	1	main_slash	11	advance_on_keypress_SLASH	92	stimuli_target_diamondcircles.svg	stimuli_distractor_trianglediamonds.svg	19	yes	57	0	100
6.6.1	mac	2022-12-15	21:40:29	21:48:42	489352	60fd6b02340bf3233276eba9	570664264	1	main_slash	11	main_slash	93	stimuli_distractor_trianglediamonds.svg	stimuli_target_diamondsquares.svg	28	yes	53	1	1471
6.6.1	mac	2022-12-15	21:40:29	21:48:42	489352	60fd6b02340bf3233276eba9	570664264	1	main_slash	11	advance_on_keypress_SLASH	94	stimuli_distractor_trianglediamonds.svg	stimuli_target_diamondsquares.svg	28	yes	57	0	67
6.6.1	mac	2022-12-15	21:40:29	21:48:44	492104	60fd6b02340bf3233276eba9	570664264	1	main_slash	11	main_slash	95	stimuli_distractor_diamondtriangles.svg	stimuli_distractor_diamondtriangles.svg	39	no	0	1	2000
6.6.1	mac	2022-12-15	21:40:29	21:48:44	492104	60fd6b02340bf3233276eba9	570664264	1	main_slash	11	advance_on_keypress_SLASH	96	stimuli_distractor_diamondtriangles.svg	stimuli_distractor_diamondtriangles.svg	39	no	57	0	319
6.6.1	mac	2022-12-15	21:40:29	21:48:46	493497	60fd6b02340bf3233276eba9	570664264	1	main_slash	11	main_slash	97	stimuli_target_trianglecircles.svg	stimuli_distractor_diamondtriangles.svg	21	yes	53	1	424
6.6.1	mac	2022-12-15	21:40:29	21:48:46	493497	60fd6b02340bf3233276eba9	570664264	1	main_slash	11	advance_on_keypress_SLASH	98	stimuli_target_trianglecircles.svg	stimuli_distractor_diamondtriangles.svg	21	yes	57	0	112
6.6.1	mac	2022-12-15	21:40:29	21:48:47	494860	60fd6b02340bf3233276eba9	570664264	1	main_slash	11	main_slash	99	stimuli_distractor_diamondtriangles.svg	stimuli_distractor_trianglediamonds.svg	37	no	53	0	610
6.6.1	mac	2022-12-15	21:40:29	21:48:47	494860	60fd6b02340bf3233276eba9	570664264	1	main_slash	11	advance_on_keypress_SLASH	100	stimuli_distractor_diamondtriangles.svg	stimuli_distractor_trianglediamonds.svg	37	no	57	0	85
6.6.1	mac	2022-12-15	21:40:29	21:48:48	496006	60fd6b02340bf3233276eba9	570664264	1	main_slash	11	main_slash	101	stimuli_distractor_diamondtriangles.svg	stimuli_target_squaretriangles.svg	15	yes	53	1	428
6.6.1	mac	2022-12-15	21:40:29	21:48:48	496006	60fd6b02340bf3233276eba9	570664264	1	main_slash	11	advance_on_keypress_SLASH	102	stimuli_distractor_diamondtriangles.svg	stimuli_target_squaretriangles.svg	15	yes	57	0	95
6.6.1	mac	2022-12-15	21:40:29	21:48:49	497223	60fd6b02340bf3233276eba9	570664264	1	main_slash	11	main_slash	103	stimuli_target_circlediamonds.svg	stimuli_distractor_trianglediamonds.svg	2	yes	53	1	482
6.6.1	mac	2022-12-15	21:40:29	21:48:49	497223	60fd6b02340bf3233276eba9	570664264	1	main_slash	11	advance_on_keypress_SLASH	104	stimuli_target_circlediamonds.svg	stimuli_distractor_trianglediamonds.svg	2	yes	57	0	144
6.6.1	mac	2022-12-15	21:40:29	21:48:51	498448	60fd6b02340bf3233276eba9	570664264	1	main_slash	11	main_slash	105	stimuli_target_circletriangles.svg	stimuli_distractor_trianglediamonds.svg	1	yes	53	1	442
6.6.1	mac	2022-12-15	21:40:29	21:48:51	498448	60fd6b02340bf3233276eba9	570664264	1	main_slash	11	advance_on_keypress_SLASH	106	stimuli_target_circletriangles.svg	stimuli_distractor_trianglediamonds.svg	1	yes	57	0	82
6.6.1	mac	2022-12-15	21:40:29	21:48:53	501165	60fd6b02340bf3233276eba9	570664264	1	main_slash	11	main_slash	107	stimuli_distractor_trianglediamonds.svg	stimuli_distractor_trianglediamonds.svg	33	no	0	1	2000
6.6.1	mac	2022-12-15	21:40:29	21:48:53	501165	60fd6b02340bf3233276eba9	570664264	1	main_slash	11	advance_on_keypress_SLASH	108	stimuli_distractor_trianglediamonds.svg	stimuli_distractor_trianglediamonds.svg	33	no	57	0	597
6.6.1	mac	2022-12-15	21:40:29	21:48:55	502938	60fd6b02340bf3233276eba9	570664264	1	main_slash	11	main_slash	109	stimuli_distractor_diamondtriangles.svg	stimuli_target_circletriangles.svg	13	yes	53	1	493
6.6.1	mac	2022-12-15	21:40:29	21:48:55	502938	60fd6b02340bf3233276eba9	570664264	1	main_slash	11	advance_on_keypress_SLASH	110	stimuli_distractor_diamondtriangles.svg	stimuli_target_circletriangles.svg	13	yes	57	0	94
6.6.1	mac	2022-12-15	21:40:29	21:48:56	504101	60fd6b02340bf3233276eba9	570664264	1	main_slash	11	main_slash	111	stimuli_target_diamondsquares.svg	stimuli_distractor_trianglediamonds.svg	20	yes	53	1	428
6.6.1	mac	2022-12-15	21:40:29	21:48:56	504101	60fd6b02340bf3233276eba9	570664264	1	main_slash	11	advance_on_keypress_SLASH	112	stimuli_target_diamondsquares.svg	stimuli_distractor_trianglediamonds.svg	20	yes	57	0	128
6.6.1	mac	2022-12-15	21:40:29	21:48:57	505314	60fd6b02340bf3233276eba9	570664264	1	main_slash	11	main_slash	113	stimuli_distractor_trianglediamonds.svg	stimuli_target_circlediamonds.svg	10	yes	53	1	419
6.6.1	mac	2022-12-15	21:40:29	21:48:57	505314	60fd6b02340bf3233276eba9	570664264	1	main_slash	11	advance_on_keypress_SLASH	114	stimuli_distractor_trianglediamonds.svg	stimuli_target_circlediamonds.svg	10	yes	57	0	74
6.6.1	mac	2022-12-15	21:40:29	21:48:59	506652	60fd6b02340bf3233276eba9	570664264	1	main_slash	11	main_slash	115	stimuli_distractor_diamondtriangles.svg	stimuli_target_diamondcircles.svg	31	yes	53	1	626
6.6.1	mac	2022-12-15	21:40:29	21:48:59	506652	60fd6b02340bf3233276eba9	570664264	1	main_slash	11	advance_on_keypress_SLASH	116	stimuli_distractor_diamondtriangles.svg	stimuli_target_diamondcircles.svg	31	yes	57	0	57
6.6.1	mac	2022-12-15	21:40:29	21:49:00	507767	60fd6b02340bf3233276eba9	570664264	1	main_slash	11	main_slash	117	stimuli_distractor_trianglediamonds.svg	stimuli_target_trianglesquares.svg	26	yes	53	1	424
6.6.1	mac	2022-12-15	21:40:29	21:49:00	507767	60fd6b02340bf3233276eba9	570664264	1	main_slash	11	advance_on_keypress_SLASH	118	stimuli_distractor_trianglediamonds.svg	stimuli_target_trianglesquares.svg	26	yes	57	0	107
6.6.1	mac	2022-12-15	21:40:29	21:49:01	508955	60fd6b02340bf3233276eba9	570664264	1	main_slash	11	main_slash	119	stimuli_target_diamondcircles.svg	stimuli_distractor_diamondtriangles.svg	23	yes	53	1	436
6.6.1	mac	2022-12-15	21:40:29	21:49:01	508955	60fd6b02340bf3233276eba9	570664264	1	main_slash	11	advance_on_keypress_SLASH	120	stimuli_target_diamondcircles.svg	stimuli_distractor_diamondtriangles.svg	23	yes	57	0	65
6.6.1	mac	2022-12-15	21:40:29	21:49:03	510586	60fd6b02340bf3233276eba9	570664264	1	main_slash	11	main_slash	121	stimuli_distractor_trianglediamonds.svg	stimuli_target_squaretriangles.svg	11	yes	53	1	924
6.6.1	mac	2022-12-15	21:40:29	21:49:03	510586	60fd6b02340bf3233276eba9	570664264	1	main_slash	11	advance_on_keypress_SLASH	122	stimuli_distractor_trianglediamonds.svg	stimuli_target_squaretriangles.svg	11	yes	57	0	94
6.6.1	mac	2022-12-15	21:40:29	21:49:04	511745	60fd6b02340bf3233276eba9	570664264	1	main_slash	11	main_slash	123	stimuli_target_squarediamonds.svg	stimuli_distractor_diamondtriangles.svg	8	yes	53	1	429
6.6.1	mac	2022-12-15	21:40:29	21:49:04	511745	60fd6b02340bf3233276eba9	570664264	1	main_slash	11	advance_on_keypress_SLASH	124	stimuli_target_squarediamonds.svg	stimuli_distractor_diamondtriangles.svg	8	yes	57	0	92
6.6.1	mac	2022-12-15	21:40:29	21:49:05	512917	60fd6b02340bf3233276eba9	570664264	1	main_slash	11	main_slash	125	stimuli_target_circletriangles.svg	stimuli_distractor_diamondtriangles.svg	5	yes	53	1	441
6.6.1	mac	2022-12-15	21:40:29	21:49:05	512917	60fd6b02340bf3233276eba9	570664264	1	main_slash	11	advance_on_keypress_SLASH	126	stimuli_target_circletriangles.svg	stimuli_distractor_diamondtriangles.svg	5	yes	57	0	88
6.6.1	mac	2022-12-15	21:40:29	21:49:07	514689	60fd6b02340bf3233276eba9	570664264	1	main_slash	11	main_slash	127	stimuli_distractor_diamondtriangles.svg	stimuli_distractor_trianglediamonds.svg	38	no	53	0	1050
6.6.1	mac	2022-12-15	21:40:29	21:49:07	514689	60fd6b02340bf3233276eba9	570664264	1	main_slash	11	advance_on_keypress_SLASH	128	stimuli_distractor_diamondtriangles.svg	stimuli_distractor_trianglediamonds.svg	38	no	57	0	4
6.6.1	mac	2022-12-15	21:40:29	21:49:09	517118	60fd6b02340bf3233276eba9	570664264	1	main_slash	11	main_slash	129	stimuli_distractor_trianglediamonds.svg	stimuli_distractor_diamondtriangles.svg	36	no	53	0	1725
6.6.1	mac	2022-12-15	21:40:29	21:49:09	517118	60fd6b02340bf3233276eba9	570664264	1	main_slash	11	advance_on_keypress_SLASH	130	stimuli_distractor_trianglediamonds.svg	stimuli_distractor_diamondtriangles.svg	36	no	57	0	24
6.6.1	mac	2022-12-15	21:40:29	21:49:11	518719	60fd6b02340bf3233276eba9	570664264	1	main_slash	11	main_slash	131	stimuli_distractor_diamondtriangles.svg	stimuli_target_trianglecircles.svg	29	yes	53	1	897
6.6.1	mac	2022-12-15	21:40:29	21:49:11	518719	60fd6b02340bf3233276eba9	570664264	1	main_slash	11	advance_on_keypress_SLASH	132	stimuli_distractor_diamondtriangles.svg	stimuli_target_trianglecircles.svg	29	yes	57	0	69
6.6.1	mac	2022-12-15	21:40:29	21:49:12	520124	60fd6b02340bf3233276eba9	570664264	1	main_slash	11	main_slash	133	stimuli_distractor_diamondtriangles.svg	stimuli_target_diamondsquares.svg	32	yes	53	1	710
6.6.1	mac	2022-12-15	21:40:29	21:49:12	520124	60fd6b02340bf3233276eba9	570664264	1	main_slash	11	advance_on_keypress_SLASH	134	stimuli_distractor_diamondtriangles.svg	stimuli_target_diamondsquares.svg	32	yes	57	0	88
6.6.1	mac	2022-12-15	21:40:29	21:49:14	521519	60fd6b02340bf3233276eba9	570664264	1	main_slash	11	main_slash	135	stimuli_distractor_trianglediamonds.svg	stimuli_distractor_diamondtriangles.svg	35	no	53	0	674
6.6.1	mac	2022-12-15	21:40:29	21:49:14	521519	60fd6b02340bf3233276eba9	570664264	1	main_slash	11	advance_on_keypress_SLASH	136	stimuli_distractor_trianglediamonds.svg	stimuli_distractor_diamondtriangles.svg	35	no	57	0	70
6.6.1	mac	2022-12-15	21:40:29	21:49:15	522796	60fd6b02340bf3233276eba9	570664264	1	main_slash	11	main_slash	137	stimuli_target_trianglesquares.svg	stimuli_distractor_diamondtriangles.svg	22	yes	53	1	569
6.6.1	mac	2022-12-15	21:40:29	21:49:15	522796	60fd6b02340bf3233276eba9	570664264	1	main_slash	11	advance_on_keypress_SLASH	138	stimuli_target_trianglesquares.svg	stimuli_distractor_diamondtriangles.svg	22	yes	57	0	89
6.6.1	mac	2022-12-15	21:40:29	21:49:16	524042	60fd6b02340bf3233276eba9	570664264	1	main_slash	11	main_slash	139	stimuli_target_squarediamonds.svg	stimuli_distractor_trianglediamonds.svg	4	yes	53	1	519
6.6.1	mac	2022-12-15	21:40:29	21:49:16	524042	60fd6b02340bf3233276eba9	570664264	1	main_slash	11	advance_on_keypress_SLASH	140	stimuli_target_squarediamonds.svg	stimuli_distractor_trianglediamonds.svg	4	yes	57	0	150
6.6.1	mac	2022-12-15	21:40:29	21:49:18	525406	60fd6b02340bf3233276eba9	570664264	1	main_slash	11	main_slash	141	stimuli_distractor_diamondtriangles.svg	stimuli_target_trianglesquares.svg	30	yes	53	1	582
6.6.1	mac	2022-12-15	21:40:29	21:49:18	525406	60fd6b02340bf3233276eba9	570664264	1	main_slash	11	advance_on_keypress_SLASH	142	stimuli_distractor_diamondtriangles.svg	stimuli_target_trianglesquares.svg	30	yes	57	0	109
6.6.1	mac	2022-12-15	21:40:29	21:49:19	527255	60fd6b02340bf3233276eba9	570664264	1	main_slash	11	main_slash	143	stimuli_target_squaretriangles.svg	stimuli_distractor_diamondtriangles.svg	7	yes	53	1	1097
6.6.1	mac	2022-12-15	21:40:29	21:49:19	527255	60fd6b02340bf3233276eba9	570664264	1	main_slash	11	advance_on_keypress_SLASH	144	stimuli_target_squaretriangles.svg	stimuli_distractor_diamondtriangles.svg	7	yes	57	0	80
6.6.1	mac	2022-12-15	21:40:29	21:49:21	528428	60fd6b02340bf3233276eba9	570664264	1	main_slash	11	main_slash	145	stimuli_target_circlediamonds.svg	stimuli_distractor_diamondtriangles.svg	6	yes	53	1	447
6.6.1	mac	2022-12-15	21:40:29	21:49:21	528428	60fd6b02340bf3233276eba9	570664264	1	main_slash	11	advance_on_keypress_SLASH	146	stimuli_target_circlediamonds.svg	stimuli_distractor_diamondtriangles.svg	6	yes	57	0	83
6.6.1	mac	2022-12-15	21:40:29	21:49:22	529844	60fd6b02340bf3233276eba9	570664264	1	main_slash	11	main_slash	147	stimuli_distractor_trianglediamonds.svg	stimuli_target_squarediamonds.svg	12	yes	53	1	700
6.6.1	mac	2022-12-15	21:40:29	21:49:22	529844	60fd6b02340bf3233276eba9	570664264	1	main_slash	11	advance_on_keypress_SLASH	148	stimuli_distractor_trianglediamonds.svg	stimuli_target_squarediamonds.svg	12	yes	57	0	77
6.6.1	mac	2022-12-15	21:40:29	21:49:23	531186	60fd6b02340bf3233276eba9	570664264	1	main_slash	11	main_slash	149	stimuli_target_diamondsquares.svg	stimuli_distractor_diamondtriangles.svg	24	yes	53	1	627
6.6.1	mac	2022-12-15	21:40:29	21:49:23	531186	60fd6b02340bf3233276eba9	570664264	1	main_slash	11	advance_on_keypress_SLASH	150	stimuli_target_diamondsquares.svg	stimuli_distractor_diamondtriangles.svg	24	yes	57	0	104
6.6.1	mac	2022-12-15	21:40:29	21:49:26	533922	60fd6b02340bf3233276eba9	570664264	1	main_slash	11	main_slash	151	stimuli_distractor_diamondtriangles.svg	stimuli_distractor_diamondtriangles.svg	40	no	0	1	2000
6.6.1	mac	2022-12-15	21:40:29	21:49:26	533922	60fd6b02340bf3233276eba9	570664264	1	main_slash	11	advance_on_keypress_SLASH	152	stimuli_distractor_diamondtriangles.svg	stimuli_distractor_diamondtriangles.svg	40	no	57	0	265
6.6.1	mac	2022-12-15	21:40:29	21:49:28	535420	60fd6b02340bf3233276eba9	570664264	1	main_slash	11	main_slash	153	stimuli_distractor_diamondtriangles.svg	stimuli_target_squarediamonds.svg	16	yes	53	1	541
6.6.1	mac	2022-12-15	21:40:29	21:49:28	535420	60fd6b02340bf3233276eba9	570664264	1	main_slash	11	advance_on_keypress_SLASH	154	stimuli_distractor_diamondtriangles.svg	stimuli_target_squarediamonds.svg	16	yes	57	0	81
6.6.1	mac	2022-12-15	21:40:29	21:49:29	536708	60fd6b02340bf3233276eba9	570664264	1	main_slash	11	main_slash	155	stimuli_distractor_trianglediamonds.svg	stimuli_target_diamondcircles.svg	27	yes	53	1	575
6.6.1	mac	2022-12-15	21:40:29	21:49:29	536708	60fd6b02340bf3233276eba9	570664264	1	main_slash	11	advance_on_keypress_SLASH	156	stimuli_distractor_trianglediamonds.svg	stimuli_target_diamondcircles.svg	27	yes	57	0	91
6.6.1	mac	2022-12-15	21:40:29	21:49:30	537871	60fd6b02340bf3233276eba9	570664264	1	main_slash	11	main_slash	157	stimuli_distractor_diamondtriangles.svg	stimuli_target_circlediamonds.svg	14	yes	53	1	440
6.6.1	mac	2022-12-15	21:40:29	21:49:30	537871	60fd6b02340bf3233276eba9	570664264	1	main_slash	11	advance_on_keypress_SLASH	158	stimuli_distractor_diamondtriangles.svg	stimuli_target_circlediamonds.svg	14	yes	57	0	91
6.6.1	mac	2022-12-15	21:40:29	21:49:31	539016	60fd6b02340bf3233276eba9	570664264	1	main_slash	11	main_slash	159	stimuli_distractor_trianglediamonds.svg	stimuli_target_circletriangles.svg	9	yes	53	1	424
6.6.1	mac	2022-12-15	21:40:29	21:49:31	539016	60fd6b02340bf3233276eba9	570664264	1	main_slash	11	advance_on_keypress_SLASH	160	stimuli_distractor_trianglediamonds.svg	stimuli_target_circletriangles.svg	9	yes	57	0	97