build	computer.platform	date	time	timestamp	time_elapsed_ms	subject	group	session	blockcode	blocknum	trialcode	trialnum	stimulus_left	stimulus_right	stim_index	target_present	response	correct	latency
6.6.1	win	2022-12-14	20:00:45	20:05:33	286749	6154a88b71a7f4347658b0f7	277378821	1	practice_slash	5	practice_slash	1	stimuli_distractor_trianglediamonds.svg	stimuli_target_squarediamonds.svg	11	yes	53	1	508
6.6.1	win	2022-12-14	20:00:45	20:05:33	286749	6154a88b71a7f4347658b0f7	277378821	1	practice_slash	5	advance_on_keypress_SLASH	2	stimuli_distractor_trianglediamonds.svg	stimuli_target_squarediamonds.svg	11	yes	57	0	5646
6.6.1	win	2022-12-14	20:00:45	20:05:41	294844	6154a88b71a7f4347658b0f7	277378821	1	practice_slash	5	practice_slash	3	stimuli_distractor_diamondtriangles.svg	stimuli_distractor_diamondtriangles.svg	13	no	53	0	794
6.6.1	win	2022-12-14	20:00:45	20:05:41	294844	6154a88b71a7f4347658b0f7	277378821	1	practice_slash	5	advance_on_keypress_SLASH	4	stimuli_distractor_diamondtriangles.svg	stimuli_distractor_diamondtriangles.svg	13	no	57	0	990
6.6.1	win	2022-12-14	20:00:45	20:05:44	298038	6154a88b71a7f4347658b0f7	277378821	1	practice_slash	5	practice_slash	5	stimuli_distractor_trianglediamonds.svg	stimuli_target_diamondcircles.svg	12	yes	53	1	555
6.6.1	win	2022-12-14	20:00:45	20:05:44	298038	6154a88b71a7f4347658b0f7	277378821	1	practice_slash	5	advance_on_keypress_SLASH	6	stimuli_distractor_trianglediamonds.svg	stimuli_target_diamondcircles.svg	12	yes	57	0	664
6.6.1	win	2022-12-14	20:00:45	20:05:47	300805	6154a88b71a7f4347658b0f7	277378821	1	practice_slash	5	practice_slash	7	stimuli_distractor_diamondtriangles.svg	stimuli_distractor_trianglediamonds.svg	14	no	53	0	455
6.6.1	win	2022-12-14	20:00:45	20:05:47	300805	6154a88b71a7f4347658b0f7	277378821	1	practice_slash	5	advance_on_keypress_SLASH	8	stimuli_distractor_diamondtriangles.svg	stimuli_distractor_trianglediamonds.svg	14	no	57	0	244
6.6.1	win	2022-12-14	20:00:45	20:05:50	303287	6154a88b71a7f4347658b0f7	277378821	1	practice_slash	5	practice_slash	9	stimuli_target_diamondsquares.svg	stimuli_distractor_trianglediamonds.svg	6	yes	53	1	588
6.6.1	win	2022-12-14	20:00:45	20:05:50	303287	6154a88b71a7f4347658b0f7	277378821	1	practice_slash	5	advance_on_keypress_SLASH	10	stimuli_target_diamondsquares.svg	stimuli_distractor_trianglediamonds.svg	6	yes	57	0	488
6.6.1	win	2022-12-14	20:00:45	20:05:52	305947	6154a88b71a7f4347658b0f7	277378821	1	practice_slash	5	practice_slash	11	stimuli_distractor_diamondtriangles.svg	stimuli_target_trianglecircles.svg	9	yes	53	1	532
6.6.1	win	2022-12-14	20:00:45	20:05:52	305947	6154a88b71a7f4347658b0f7	277378821	1	practice_slash	5	advance_on_keypress_SLASH	12	stimuli_distractor_diamondtriangles.svg	stimuli_target_trianglecircles.svg	9	yes	57	0	399
6.6.1	win	2022-12-14	20:00:45	20:05:55	308421	6154a88b71a7f4347658b0f7	277378821	1	practice_slash	5	practice_slash	13	stimuli_distractor_trianglediamonds.svg	stimuli_distractor_trianglediamonds.svg	15	no	53	0	422
6.6.1	win	2022-12-14	20:00:45	20:05:55	308421	6154a88b71a7f4347658b0f7	277378821	1	practice_slash	5	advance_on_keypress_SLASH	14	stimuli_distractor_trianglediamonds.svg	stimuli_distractor_trianglediamonds.svg	15	no	57	0	375
6.6.1	win	2022-12-14	20:00:45	20:05:57	310832	6154a88b71a7f4347658b0f7	277378821	1	practice_slash	5	practice_slash	15	stimuli_target_circlediamonds.svg	stimuli_distractor_diamondtriangles.svg	1	yes	53	1	374
6.6.1	win	2022-12-14	20:00:45	20:05:57	310832	6154a88b71a7f4347658b0f7	277378821	1	practice_slash	5	advance_on_keypress_SLASH	16	stimuli_target_circlediamonds.svg	stimuli_distractor_diamondtriangles.svg	1	yes	57	0	460
6.6.1	win	2022-12-14	20:00:45	20:06:00	313569	6154a88b71a7f4347658b0f7	277378821	1	practice_slash	5	practice_slash	17	stimuli_target_diamondsquares.svg	stimuli_distractor_diamondtriangles.svg	3	yes	53	1	636
6.6.1	win	2022-12-14	20:00:45	20:06:00	313569	6154a88b71a7f4347658b0f7	277378821	1	practice_slash	5	advance_on_keypress_SLASH	18	stimuli_target_diamondsquares.svg	stimuli_distractor_diamondtriangles.svg	3	yes	57	0	236
6.6.1	win	2022-12-14	20:00:45	20:06:02	315831	6154a88b71a7f4347658b0f7	277378821	1	practice_slash	5	practice_slash	19	stimuli_target_squarediamonds.svg	stimuli_distractor_trianglediamonds.svg	5	yes	53	1	373
6.6.1	win	2022-12-14	20:00:45	20:06:02	315831	6154a88b71a7f4347658b0f7	277378821	1	practice_slash	5	advance_on_keypress_SLASH	20	stimuli_target_squarediamonds.svg	stimuli_distractor_trianglediamonds.svg	5	yes	57	0	231
6.6.1	win	2022-12-14	20:00:45	20:06:05	318238	6154a88b71a7f4347658b0f7	277378821	1	practice_slash	5	practice_slash	21	stimuli_distractor_diamondtriangles.svg	stimuli_target_diamondcircles.svg	8	yes	53	1	523
6.6.1	win	2022-12-14	20:00:45	20:06:05	318238	6154a88b71a7f4347658b0f7	277378821	1	practice_slash	5	advance_on_keypress_SLASH	22	stimuli_distractor_diamondtriangles.svg	stimuli_target_diamondcircles.svg	8	yes	57	0	235
6.6.1	win	2022-12-14	20:00:45	20:06:07	320519	6154a88b71a7f4347658b0f7	277378821	1	practice_slash	5	practice_slash	23	stimuli_target_circlediamonds.svg	stimuli_distractor_trianglediamonds.svg	4	yes	53	1	404
6.6.1	win	2022-12-14	20:00:45	20:06:07	320519	6154a88b71a7f4347658b0f7	277378821	1	practice_slash	5	advance_on_keypress_SLASH	24	stimuli_target_circlediamonds.svg	stimuli_distractor_trianglediamonds.svg	4	yes	57	0	228
6.6.1	win	2022-12-14	20:00:45	20:06:09	322855	6154a88b71a7f4347658b0f7	277378821	1	practice_slash	5	practice_slash	25	stimuli_distractor_trianglediamonds.svg	stimuli_target_circlediamonds.svg	10	yes	53	1	457
6.6.1	win	2022-12-14	20:00:45	20:06:09	322855	6154a88b71a7f4347658b0f7	277378821	1	practice_slash	5	advance_on_keypress_SLASH	26	stimuli_distractor_trianglediamonds.svg	stimuli_target_circlediamonds.svg	10	yes	57	0	157
6.6.1	win	2022-12-14	20:00:45	20:06:11	325056	6154a88b71a7f4347658b0f7	277378821	1	practice_slash	5	practice_slash	27	stimuli_distractor_diamondtriangles.svg	stimuli_target_circletriangles.svg	7	yes	53	1	393
6.6.1	win	2022-12-14	20:00:45	20:06:11	325056	6154a88b71a7f4347658b0f7	277378821	1	practice_slash	5	advance_on_keypress_SLASH	28	stimuli_distractor_diamondtriangles.svg	stimuli_target_circletriangles.svg	7	yes	57	0	258
6.6.1	win	2022-12-14	20:00:45	20:06:14	327365	6154a88b71a7f4347658b0f7	277378821	1	practice_slash	5	practice_slash	29	stimuli_target_squarediamonds.svg	stimuli_distractor_diamondtriangles.svg	2	yes	53	1	402
6.6.1	win	2022-12-14	20:00:45	20:06:14	327365	6154a88b71a7f4347658b0f7	277378821	1	practice_slash	5	advance_on_keypress_SLASH	30	stimuli_target_squarediamonds.svg	stimuli_distractor_diamondtriangles.svg	2	yes	57	0	310
6.6.1	win	2022-12-14	20:00:45	20:06:16	329728	6154a88b71a7f4347658b0f7	277378821	1	practice_slash	5	practice_slash	31	stimuli_distractor_trianglediamonds.svg	stimuli_distractor_diamondtriangles.svg	16	no	53	0	398
6.6.1	win	2022-12-14	20:00:45	20:06:16	329728	6154a88b71a7f4347658b0f7	277378821	1	practice_slash	5	advance_on_keypress_SLASH	32	stimuli_distractor_trianglediamonds.svg	stimuli_distractor_diamondtriangles.svg	16	no	57	0	861
6.6.1	win	2022-12-14	20:00:45	20:06:28	341973	6154a88b71a7f4347658b0f7	277378821	1	main_slash	7	main_slash	1	stimuli_distractor_trianglediamonds.svg	stimuli_target_diamondcircles.svg	27	yes	53	1	362
6.6.1	win	2022-12-14	20:00:45	20:06:28	341973	6154a88b71a7f4347658b0f7	277378821	1	main_slash	7	advance_on_keypress_SLASH	2	stimuli_distractor_trianglediamonds.svg	stimuli_target_diamondcircles.svg	27	yes	57	0	1115
6.6.1	win	2022-12-14	20:00:45	20:06:32	345745	6154a88b71a7f4347658b0f7	277378821	1	main_slash	7	main_slash	3	stimuli_distractor_diamondtriangles.svg	stimuli_distractor_trianglediamonds.svg	38	no	0	1	2000
6.6.1	win	2022-12-14	20:00:45	20:06:32	345745	6154a88b71a7f4347658b0f7	277378821	1	main_slash	7	advance_on_keypress_SLASH	4	stimuli_distractor_diamondtriangles.svg	stimuli_distractor_trianglediamonds.svg	38	no	57	0	1488
6.6.1	win	2022-12-14	20:00:45	20:06:35	348197	6154a88b71a7f4347658b0f7	277378821	1	main_slash	7	main_slash	5	stimuli_distractor_diamondtriangles.svg	stimuli_target_diamondsquares.svg	32	yes	53	1	319
6.6.1	win	2022-12-14	20:00:45	20:06:35	348197	6154a88b71a7f4347658b0f7	277378821	1	main_slash	7	advance_on_keypress_SLASH	6	stimuli_distractor_diamondtriangles.svg	stimuli_target_diamondsquares.svg	32	yes	57	0	725
6.6.1	win	2022-12-14	20:00:45	20:06:37	350172	6154a88b71a7f4347658b0f7	277378821	1	main_slash	7	main_slash	7	stimuli_target_circletriangles.svg	stimuli_distractor_diamondtriangles.svg	5	yes	53	1	611
6.6.1	win	2022-12-14	20:00:45	20:06:37	350172	6154a88b71a7f4347658b0f7	277378821	1	main_slash	7	advance_on_keypress_SLASH	8	stimuli_target_circletriangles.svg	stimuli_distractor_diamondtriangles.svg	5	yes	57	0	730
6.6.1	win	2022-12-14	20:00:45	20:06:38	351943	6154a88b71a7f4347658b0f7	277378821	1	main_slash	7	main_slash	9	stimuli_target_diamondcircles.svg	stimuli_distractor_diamondtriangles.svg	23	yes	53	1	372
6.6.1	win	2022-12-14	20:00:45	20:06:38	351943	6154a88b71a7f4347658b0f7	277378821	1	main_slash	7	advance_on_keypress_SLASH	10	stimuli_target_diamondcircles.svg	stimuli_distractor_diamondtriangles.svg	23	yes	57	0	524
6.6.1	win	2022-12-14	20:00:45	20:06:40	353821	6154a88b71a7f4347658b0f7	277378821	1	main_slash	7	main_slash	11	stimuli_target_squaretriangles.svg	stimuli_distractor_trianglediamonds.svg	3	yes	53	1	711
6.6.1	win	2022-12-14	20:00:45	20:06:40	353821	6154a88b71a7f4347658b0f7	277378821	1	main_slash	7	advance_on_keypress_SLASH	12	stimuli_target_squaretriangles.svg	stimuli_distractor_trianglediamonds.svg	3	yes	57	0	433
6.6.1	win	2022-12-14	20:00:45	20:06:42	355190	6154a88b71a7f4347658b0f7	277378821	1	main_slash	7	main_slash	13	stimuli_target_trianglesquares.svg	stimuli_distractor_diamondtriangles.svg	22	yes	53	1	296
6.6.1	win	2022-12-14	20:00:45	20:06:42	355190	6154a88b71a7f4347658b0f7	277378821	1	main_slash	7	advance_on_keypress_SLASH	14	stimuli_target_trianglesquares.svg	stimuli_distractor_diamondtriangles.svg	22	yes	57	0	639
6.6.1	win	2022-12-14	20:00:45	20:06:45	358477	6154a88b71a7f4347658b0f7	277378821	1	main_slash	7	main_slash	15	stimuli_distractor_trianglediamonds.svg	stimuli_distractor_trianglediamonds.svg	34	no	0	1	2000
6.6.1	win	2022-12-14	20:00:45	20:06:45	358477	6154a88b71a7f4347658b0f7	277378821	1	main_slash	7	advance_on_keypress_SLASH	16	stimuli_distractor_trianglediamonds.svg	stimuli_distractor_trianglediamonds.svg	34	no	57	0	656
6.6.1	win	2022-12-14	20:00:45	20:06:47	360362	6154a88b71a7f4347658b0f7	277378821	1	main_slash	7	main_slash	17	stimuli_distractor_trianglediamonds.svg	stimuli_target_trianglesquares.svg	26	yes	53	1	585
6.6.1	win	2022-12-14	20:00:45	20:06:47	360362	6154a88b71a7f4347658b0f7	277378821	1	main_slash	7	advance_on_keypress_SLASH	18	stimuli_distractor_trianglediamonds.svg	stimuli_target_trianglesquares.svg	26	yes	57	0	474
6.6.1	win	2022-12-14	20:00:45	20:06:48	361861	6154a88b71a7f4347658b0f7	277378821	1	main_slash	7	main_slash	19	stimuli_target_trianglecircles.svg	stimuli_distractor_trianglediamonds.svg	17	yes	53	1	384
6.6.1	win	2022-12-14	20:00:45	20:06:48	361861	6154a88b71a7f4347658b0f7	277378821	1	main_slash	7	advance_on_keypress_SLASH	20	stimuli_target_trianglecircles.svg	stimuli_distractor_trianglediamonds.svg	17	yes	57	0	346
6.6.1	win	2022-12-14	20:00:45	20:06:51	364860	6154a88b71a7f4347658b0f7	277378821	1	main_slash	7	main_slash	21	stimuli_distractor_trianglediamonds.svg	stimuli_distractor_diamondtriangles.svg	35	no	0	1	2000
6.6.1	win	2022-12-14	20:00:45	20:06:51	364860	6154a88b71a7f4347658b0f7	277378821	1	main_slash	7	advance_on_keypress_SLASH	22	stimuli_distractor_trianglediamonds.svg	stimuli_distractor_diamondtriangles.svg	35	no	57	0	349
6.6.1	win	2022-12-14	20:00:45	20:06:53	366416	6154a88b71a7f4347658b0f7	277378821	1	main_slash	7	main_slash	23	stimuli_distractor_diamondtriangles.svg	stimuli_target_squarediamonds.svg	16	yes	53	1	556
6.6.1	win	2022-12-14	20:00:45	20:06:53	366416	6154a88b71a7f4347658b0f7	277378821	1	main_slash	7	advance_on_keypress_SLASH	24	stimuli_distractor_diamondtriangles.svg	stimuli_target_squarediamonds.svg	16	yes	57	0	451
6.6.1	win	2022-12-14	20:00:45	20:06:54	367869	6154a88b71a7f4347658b0f7	277378821	1	main_slash	7	main_slash	25	stimuli_target_circlediamonds.svg	stimuli_distractor_diamondtriangles.svg	6	yes	53	1	358
6.6.1	win	2022-12-14	20:00:45	20:06:54	367869	6154a88b71a7f4347658b0f7	277378821	1	main_slash	7	advance_on_keypress_SLASH	26	stimuli_target_circlediamonds.svg	stimuli_distractor_diamondtriangles.svg	6	yes	57	0	280
6.6.1	win	2022-12-14	20:00:45	20:06:57	370793	6154a88b71a7f4347658b0f7	277378821	1	main_slash	7	main_slash	27	stimuli_target_diamondsquares.svg	stimuli_distractor_trianglediamonds.svg	20	yes	0	0	2000
6.6.1	win	2022-12-14	20:00:45	20:06:57	370793	6154a88b71a7f4347658b0f7	277378821	1	main_slash	7	advance_on_keypress_SLASH	28	stimuli_target_diamondsquares.svg	stimuli_distractor_trianglediamonds.svg	20	yes	57	0	232
6.6.1	win	2022-12-14	20:00:45	20:07:00	373677	6154a88b71a7f4347658b0f7	277378821	1	main_slash	7	main_slash	29	stimuli_distractor_diamondtriangles.svg	stimuli_distractor_diamondtriangles.svg	40	no	0	1	2000
6.6.1	win	2022-12-14	20:00:45	20:07:00	373677	6154a88b71a7f4347658b0f7	277378821	1	main_slash	7	advance_on_keypress_SLASH	30	stimuli_distractor_diamondtriangles.svg	stimuli_distractor_diamondtriangles.svg	40	no	57	0	253
6.6.1	win	2022-12-14	20:00:45	20:07:03	376576	6154a88b71a7f4347658b0f7	277378821	1	main_slash	7	main_slash	31	stimuli_distractor_trianglediamonds.svg	stimuli_target_squaretriangles.svg	11	yes	0	0	2000
6.6.1	win	2022-12-14	20:00:45	20:07:03	376576	6154a88b71a7f4347658b0f7	277378821	1	main_slash	7	advance_on_keypress_SLASH	32	stimuli_distractor_trianglediamonds.svg	stimuli_target_squaretriangles.svg	11	yes	57	0	367
6.6.1	win	2022-12-14	20:00:45	20:07:04	378011	6154a88b71a7f4347658b0f7	277378821	1	main_slash	7	main_slash	33	stimuli_distractor_diamondtriangles.svg	stimuli_target_diamondcircles.svg	31	yes	53	1	417
6.6.1	win	2022-12-14	20:00:45	20:07:04	378011	6154a88b71a7f4347658b0f7	277378821	1	main_slash	7	advance_on_keypress_SLASH	34	stimuli_distractor_diamondtriangles.svg	stimuli_target_diamondcircles.svg	31	yes	57	0	449
6.6.1	win	2022-12-14	20:00:45	20:07:06	379568	6154a88b71a7f4347658b0f7	277378821	1	main_slash	7	main_slash	35	stimuli_distractor_diamondtriangles.svg	stimuli_target_trianglesquares.svg	30	yes	53	1	459
6.6.1	win	2022-12-14	20:00:45	20:07:06	379568	6154a88b71a7f4347658b0f7	277378821	1	main_slash	7	advance_on_keypress_SLASH	36	stimuli_distractor_diamondtriangles.svg	stimuli_target_trianglesquares.svg	30	yes	57	0	304
6.6.1	win	2022-12-14	20:00:45	20:07:07	380918	6154a88b71a7f4347658b0f7	277378821	1	main_slash	7	main_slash	37	stimuli_distractor_trianglediamonds.svg	stimuli_target_trianglecircles.svg	25	yes	53	1	410
6.6.1	win	2022-12-14	20:00:45	20:07:07	380918	6154a88b71a7f4347658b0f7	277378821	1	main_slash	7	advance_on_keypress_SLASH	38	stimuli_distractor_trianglediamonds.svg	stimuli_target_trianglecircles.svg	25	yes	57	0	291
6.6.1	win	2022-12-14	20:00:45	20:07:09	382234	6154a88b71a7f4347658b0f7	277378821	1	main_slash	7	main_slash	39	stimuli_distractor_trianglediamonds.svg	stimuli_distractor_diamondtriangles.svg	36	no	53	0	392
6.6.1	win	2022-12-14	20:00:45	20:07:09	382234	6154a88b71a7f4347658b0f7	277378821	1	main_slash	7	advance_on_keypress_SLASH	40	stimuli_distractor_trianglediamonds.svg	stimuli_distractor_diamondtriangles.svg	36	no	57	0	321
6.6.1	win	2022-12-14	20:00:45	20:07:10	383620	6154a88b71a7f4347658b0f7	277378821	1	main_slash	7	main_slash	41	stimuli_target_circlediamonds.svg	stimuli_distractor_trianglediamonds.svg	2	yes	53	1	429
6.6.1	win	2022-12-14	20:00:45	20:07:10	383620	6154a88b71a7f4347658b0f7	277378821	1	main_slash	7	advance_on_keypress_SLASH	42	stimuli_target_circlediamonds.svg	stimuli_distractor_trianglediamonds.svg	2	yes	57	0	477
6.6.1	win	2022-12-14	20:00:45	20:07:12	385303	6154a88b71a7f4347658b0f7	277378821	1	main_slash	7	main_slash	43	stimuli_distractor_trianglediamonds.svg	stimuli_target_squarediamonds.svg	12	yes	53	1	560
6.6.1	win	2022-12-14	20:00:45	20:07:12	385303	6154a88b71a7f4347658b0f7	277378821	1	main_slash	7	advance_on_keypress_SLASH	44	stimuli_distractor_trianglediamonds.svg	stimuli_target_squarediamonds.svg	12	yes	57	0	229
6.6.1	win	2022-12-14	20:00:45	20:07:13	386574	6154a88b71a7f4347658b0f7	277378821	1	main_slash	7	main_slash	45	stimuli_distractor_diamondtriangles.svg	stimuli_target_circlediamonds.svg	14	yes	53	1	399
6.6.1	win	2022-12-14	20:00:45	20:07:13	386574	6154a88b71a7f4347658b0f7	277378821	1	main_slash	7	advance_on_keypress_SLASH	46	stimuli_distractor_diamondtriangles.svg	stimuli_target_circlediamonds.svg	14	yes	57	0	206
6.6.1	win	2022-12-14	20:00:45	20:07:16	389425	6154a88b71a7f4347658b0f7	277378821	1	main_slash	7	main_slash	47	stimuli_distractor_trianglediamonds.svg	stimuli_distractor_trianglediamonds.svg	33	no	0	1	2000
6.6.1	win	2022-12-14	20:00:45	20:07:16	389425	6154a88b71a7f4347658b0f7	277378821	1	main_slash	7	advance_on_keypress_SLASH	48	stimuli_distractor_trianglediamonds.svg	stimuli_distractor_trianglediamonds.svg	33	no	57	0	326
6.6.1	win	2022-12-14	20:00:45	20:07:17	390776	6154a88b71a7f4347658b0f7	277378821	1	main_slash	7	main_slash	49	stimuli_target_trianglecircles.svg	stimuli_distractor_diamondtriangles.svg	21	yes	53	1	385
6.6.1	win	2022-12-14	20:00:45	20:07:17	390776	6154a88b71a7f4347658b0f7	277378821	1	main_slash	7	advance_on_keypress_SLASH	50	stimuli_target_trianglecircles.svg	stimuli_distractor_diamondtriangles.svg	21	yes	57	0	322
6.6.1	win	2022-12-14	20:00:45	20:07:19	392259	6154a88b71a7f4347658b0f7	277378821	1	main_slash	7	main_slash	51	stimuli_distractor_diamondtriangles.svg	stimuli_target_trianglecircles.svg	29	yes	53	1	517
6.6.1	win	2022-12-14	20:00:45	20:07:19	392259	6154a88b71a7f4347658b0f7	277378821	1	main_slash	7	advance_on_keypress_SLASH	52	stimuli_distractor_diamondtriangles.svg	stimuli_target_trianglecircles.svg	29	yes	57	0	248
6.6.1	win	2022-12-14	20:00:45	20:07:21	395158	6154a88b71a7f4347658b0f7	277378821	1	main_slash	7	main_slash	53	stimuli_distractor_trianglediamonds.svg	stimuli_target_circlediamonds.svg	10	yes	0	0	2000
6.6.1	win	2022-12-14	20:00:45	20:07:21	395158	6154a88b71a7f4347658b0f7	277378821	1	main_slash	7	advance_on_keypress_SLASH	54	stimuli_distractor_trianglediamonds.svg	stimuli_target_circlediamonds.svg	10	yes	57	0	463
6.6.1	win	2022-12-14	20:00:45	20:07:23	396881	6154a88b71a7f4347658b0f7	277378821	1	main_slash	7	main_slash	55	stimuli_target_diamondsquares.svg	stimuli_distractor_diamondtriangles.svg	24	yes	53	1	605
6.6.1	win	2022-12-14	20:00:45	20:07:23	396881	6154a88b71a7f4347658b0f7	277378821	1	main_slash	7	advance_on_keypress_SLASH	56	stimuli_target_diamondsquares.svg	stimuli_distractor_diamondtriangles.svg	24	yes	57	0	659
6.6.1	win	2022-12-14	20:00:45	20:07:25	398653	6154a88b71a7f4347658b0f7	277378821	1	main_slash	7	main_slash	57	stimuli_target_squaretriangles.svg	stimuli_distractor_diamondtriangles.svg	7	yes	53	1	479
6.6.1	win	2022-12-14	20:00:45	20:07:25	398653	6154a88b71a7f4347658b0f7	277378821	1	main_slash	7	advance_on_keypress_SLASH	58	stimuli_target_squaretriangles.svg	stimuli_distractor_diamondtriangles.svg	7	yes	57	0	286
6.6.1	win	2022-12-14	20:00:45	20:07:26	399988	6154a88b71a7f4347658b0f7	277378821	1	main_slash	7	main_slash	59	stimuli_distractor_diamondtriangles.svg	stimuli_target_squaretriangles.svg	15	yes	53	1	398
6.6.1	win	2022-12-14	20:00:45	20:07:26	399988	6154a88b71a7f4347658b0f7	277378821	1	main_slash	7	advance_on_keypress_SLASH	60	stimuli_distractor_diamondtriangles.svg	stimuli_target_squaretriangles.svg	15	yes	57	0	253
6.6.1	win	2022-12-14	20:00:45	20:07:29	402891	6154a88b71a7f4347658b0f7	277378821	1	main_slash	7	main_slash	61	stimuli_distractor_diamondtriangles.svg	stimuli_distractor_diamondtriangles.svg	39	no	0	1	2000
6.6.1	win	2022-12-14	20:00:45	20:07:29	402891	6154a88b71a7f4347658b0f7	277378821	1	main_slash	7	advance_on_keypress_SLASH	62	stimuli_distractor_diamondtriangles.svg	stimuli_distractor_diamondtriangles.svg	39	no	57	0	377
6.6.1	win	2022-12-14	20:00:45	20:07:32	405907	6154a88b71a7f4347658b0f7	277378821	1	main_slash	7	main_slash	63	stimuli_distractor_diamondtriangles.svg	stimuli_distractor_trianglediamonds.svg	37	no	0	1	2000
6.6.1	win	2022-12-14	20:00:45	20:07:32	405907	6154a88b71a7f4347658b0f7	277378821	1	main_slash	7	advance_on_keypress_SLASH	64	stimuli_distractor_diamondtriangles.svg	stimuli_distractor_trianglediamonds.svg	37	no	57	0	268
6.6.1	win	2022-12-14	20:00:45	20:07:34	407563	6154a88b71a7f4347658b0f7	277378821	1	main_slash	7	main_slash	65	stimuli_target_squarediamonds.svg	stimuli_distractor_trianglediamonds.svg	4	yes	53	1	739
6.6.1	win	2022-12-14	20:00:45	20:07:34	407563	6154a88b71a7f4347658b0f7	277378821	1	main_slash	7	advance_on_keypress_SLASH	66	stimuli_target_squarediamonds.svg	stimuli_distractor_trianglediamonds.svg	4	yes	57	0	416
6.6.1	win	2022-12-14	20:00:45	20:07:35	409112	6154a88b71a7f4347658b0f7	277378821	1	main_slash	7	main_slash	67	stimuli_target_squarediamonds.svg	stimuli_distractor_diamondtriangles.svg	8	yes	53	1	487
6.6.1	win	2022-12-14	20:00:45	20:07:35	409112	6154a88b71a7f4347658b0f7	277378821	1	main_slash	7	advance_on_keypress_SLASH	68	stimuli_target_squarediamonds.svg	stimuli_distractor_diamondtriangles.svg	8	yes	57	0	357
6.6.1	win	2022-12-14	20:00:45	20:07:37	410568	6154a88b71a7f4347658b0f7	277378821	1	main_slash	7	main_slash	69	stimuli_target_circletriangles.svg	stimuli_distractor_trianglediamonds.svg	1	yes	53	1	460
6.6.1	win	2022-12-14	20:00:45	20:07:37	410568	6154a88b71a7f4347658b0f7	277378821	1	main_slash	7	advance_on_keypress_SLASH	70	stimuli_target_circletriangles.svg	stimuli_distractor_trianglediamonds.svg	1	yes	57	0	275
6.6.1	win	2022-12-14	20:00:45	20:07:38	411973	6154a88b71a7f4347658b0f7	277378821	1	main_slash	7	main_slash	71	stimuli_distractor_trianglediamonds.svg	stimuli_target_diamondsquares.svg	28	yes	53	1	483
6.6.1	win	2022-12-14	20:00:45	20:07:38	411973	6154a88b71a7f4347658b0f7	277378821	1	main_slash	7	advance_on_keypress_SLASH	72	stimuli_distractor_trianglediamonds.svg	stimuli_target_diamondsquares.svg	28	yes	57	0	225
6.6.1	win	2022-12-14	20:00:45	20:07:41	414840	6154a88b71a7f4347658b0f7	277378821	1	main_slash	7	main_slash	73	stimuli_distractor_trianglediamonds.svg	stimuli_target_circletriangles.svg	9	yes	0	0	2000
6.6.1	win	2022-12-14	20:00:45	20:07:41	414840	6154a88b71a7f4347658b0f7	277378821	1	main_slash	7	advance_on_keypress_SLASH	74	stimuli_distractor_trianglediamonds.svg	stimuli_target_circletriangles.svg	9	yes	57	0	478
6.6.1	win	2022-12-14	20:00:45	20:07:43	416427	6154a88b71a7f4347658b0f7	277378821	1	main_slash	7	main_slash	75	stimuli_target_diamondcircles.svg	stimuli_distractor_trianglediamonds.svg	19	yes	53	1	454
6.6.1	win	2022-12-14	20:00:45	20:07:43	416427	6154a88b71a7f4347658b0f7	277378821	1	main_slash	7	advance_on_keypress_SLASH	76	stimuli_target_diamondcircles.svg	stimuli_distractor_trianglediamonds.svg	19	yes	57	0	326
6.6.1	win	2022-12-14	20:00:45	20:07:46	419390	6154a88b71a7f4347658b0f7	277378821	1	main_slash	7	main_slash	77	stimuli_target_trianglesquares.svg	stimuli_distractor_trianglediamonds.svg	18	yes	0	0	2000
6.6.1	win	2022-12-14	20:00:45	20:07:46	419390	6154a88b71a7f4347658b0f7	277378821	1	main_slash	7	advance_on_keypress_SLASH	78	stimuli_target_trianglesquares.svg	stimuli_distractor_trianglediamonds.svg	18	yes	57	0	321
6.6.1	win	2022-12-14	20:00:45	20:07:47	420747	6154a88b71a7f4347658b0f7	277378821	1	main_slash	7	main_slash	79	stimuli_distractor_diamondtriangles.svg	stimuli_target_circletriangles.svg	13	yes	53	1	391
6.6.1	win	2022-12-14	20:00:45	20:07:47	420747	6154a88b71a7f4347658b0f7	277378821	1	main_slash	7	advance_on_keypress_SLASH	80	stimuli_distractor_diamondtriangles.svg	stimuli_target_circletriangles.svg	13	yes	57	0	357
6.6.1	win	2022-12-14	20:00:45	20:07:50	423740	6154a88b71a7f4347658b0f7	277378821	1	main_slash	7	main_slash	81	stimuli_distractor_trianglediamonds.svg	stimuli_distractor_trianglediamonds.svg	33	no	0	1	2000
6.6.1	win	2022-12-14	20:00:45	20:07:50	423740	6154a88b71a7f4347658b0f7	277378821	1	main_slash	7	advance_on_keypress_SLASH	82	stimuli_distractor_trianglediamonds.svg	stimuli_distractor_trianglediamonds.svg	33	no	57	0	242
6.6.1	win	2022-12-14	20:00:45	20:07:51	424923	6154a88b71a7f4347658b0f7	277378821	1	main_slash	7	main_slash	83	stimuli_target_trianglesquares.svg	stimuli_distractor_diamondtriangles.svg	22	yes	53	1	299
6.6.1	win	2022-12-14	20:00:45	20:07:51	424923	6154a88b71a7f4347658b0f7	277378821	1	main_slash	7	advance_on_keypress_SLASH	84	stimuli_target_trianglesquares.svg	stimuli_distractor_diamondtriangles.svg	22	yes	57	0	365
6.6.1	win	2022-12-14	20:00:45	20:07:54	427940	6154a88b71a7f4347658b0f7	277378821	1	main_slash	7	main_slash	85	stimuli_target_trianglesquares.svg	stimuli_distractor_trianglediamonds.svg	18	yes	0	0	2000
6.6.1	win	2022-12-14	20:00:45	20:07:54	427940	6154a88b71a7f4347658b0f7	277378821	1	main_slash	7	advance_on_keypress_SLASH	86	stimuli_target_trianglesquares.svg	stimuli_distractor_trianglediamonds.svg	18	yes	57	0	449
6.6.1	win	2022-12-14	20:00:45	20:07:56	429436	6154a88b71a7f4347658b0f7	277378821	1	main_slash	7	main_slash	87	stimuli_distractor_diamondtriangles.svg	stimuli_distractor_trianglediamonds.svg	37	no	53	0	398
6.6.1	win	2022-12-14	20:00:45	20:07:56	429436	6154a88b71a7f4347658b0f7	277378821	1	main_slash	7	advance_on_keypress_SLASH	88	stimuli_distractor_diamondtriangles.svg	stimuli_distractor_trianglediamonds.svg	37	no	57	0	375
6.6.1	win	2022-12-14	20:00:45	20:07:59	432456	6154a88b71a7f4347658b0f7	277378821	1	main_slash	7	main_slash	89	stimuli_distractor_diamondtriangles.svg	stimuli_distractor_diamondtriangles.svg	39	no	0	1	2000
6.6.1	win	2022-12-14	20:00:45	20:07:59	432456	6154a88b71a7f4347658b0f7	277378821	1	main_slash	7	advance_on_keypress_SLASH	90	stimuli_distractor_diamondtriangles.svg	stimuli_distractor_diamondtriangles.svg	39	no	57	0	498
6.6.1	win	2022-12-14	20:00:45	20:08:00	434043	6154a88b71a7f4347658b0f7	277378821	1	main_slash	7	main_slash	91	stimuli_distractor_trianglediamonds.svg	stimuli_distractor_trianglediamonds.svg	34	no	53	0	438
6.6.1	win	2022-12-14	20:00:45	20:08:00	434043	6154a88b71a7f4347658b0f7	277378821	1	main_slash	7	advance_on_keypress_SLASH	92	stimuli_distractor_trianglediamonds.svg	stimuli_distractor_trianglediamonds.svg	34	no	57	0	362
6.6.1	win	2022-12-14	20:00:45	20:08:03	437056	6154a88b71a7f4347658b0f7	277378821	1	main_slash	7	main_slash	93	stimuli_distractor_diamondtriangles.svg	stimuli_distractor_diamondtriangles.svg	40	no	0	1	2000
6.6.1	win	2022-12-14	20:00:45	20:08:03	437056	6154a88b71a7f4347658b0f7	277378821	1	main_slash	7	advance_on_keypress_SLASH	94	stimuli_distractor_diamondtriangles.svg	stimuli_distractor_diamondtriangles.svg	40	no	57	0	12969
6.6.1	win	2022-12-14	20:00:45	20:08:17	451117	6154a88b71a7f4347658b0f7	277378821	1	main_slash	7	main_slash	95	stimuli_target_diamondsquares.svg	stimuli_distractor_diamondtriangles.svg	24	yes	53	1	446
6.6.1	win	2022-12-14	20:00:45	20:08:17	451117	6154a88b71a7f4347658b0f7	277378821	1	main_slash	7	advance_on_keypress_SLASH	96	stimuli_target_diamondsquares.svg	stimuli_distractor_diamondtriangles.svg	24	yes	57	0	456
6.6.1	win	2022-12-14	20:00:45	20:08:19	452681	6154a88b71a7f4347658b0f7	277378821	1	main_slash	7	main_slash	97	stimuli_target_circletriangles.svg	stimuli_distractor_trianglediamonds.svg	1	yes	53	1	460
6.6.1	win	2022-12-14	20:00:45	20:08:19	452681	6154a88b71a7f4347658b0f7	277378821	1	main_slash	7	advance_on_keypress_SLASH	98	stimuli_target_circletriangles.svg	stimuli_distractor_trianglediamonds.svg	1	yes	57	0	263
6.6.1	win	2022-12-14	20:00:45	20:08:20	453908	6154a88b71a7f4347658b0f7	277378821	1	main_slash	7	main_slash	99	stimuli_distractor_trianglediamonds.svg	stimuli_target_circletriangles.svg	9	yes	53	1	319
6.6.1	win	2022-12-14	20:00:45	20:08:20	453908	6154a88b71a7f4347658b0f7	277378821	1	main_slash	7	advance_on_keypress_SLASH	100	stimuli_distractor_trianglediamonds.svg	stimuli_target_circletriangles.svg	9	yes	57	0	263
6.6.1	win	2022-12-14	20:00:45	20:08:22	455297	6154a88b71a7f4347658b0f7	277378821	1	main_slash	7	main_slash	101	stimuli_distractor_trianglediamonds.svg	stimuli_target_squarediamonds.svg	12	yes	53	1	476
6.6.1	win	2022-12-14	20:00:45	20:08:22	455297	6154a88b71a7f4347658b0f7	277378821	1	main_slash	7	advance_on_keypress_SLASH	102	stimuli_distractor_trianglediamonds.svg	stimuli_target_squarediamonds.svg	12	yes	57	0	385
6.6.1	win	2022-12-14	20:00:45	20:08:23	456703	6154a88b71a7f4347658b0f7	277378821	1	main_slash	7	main_slash	103	stimuli_distractor_diamondtriangles.svg	stimuli_target_circlediamonds.svg	14	yes	53	1	377
6.6.1	win	2022-12-14	20:00:45	20:08:23	456703	6154a88b71a7f4347658b0f7	277378821	1	main_slash	7	advance_on_keypress_SLASH	104	stimuli_distractor_diamondtriangles.svg	stimuli_target_circlediamonds.svg	14	yes	57	0	2180
6.6.1	win	2022-12-14	20:00:45	20:08:26	459862	6154a88b71a7f4347658b0f7	277378821	1	main_slash	7	main_slash	105	stimuli_target_squarediamonds.svg	stimuli_distractor_trianglediamonds.svg	4	yes	53	1	324
6.6.1	win	2022-12-14	20:00:45	20:08:26	459862	6154a88b71a7f4347658b0f7	277378821	1	main_slash	7	advance_on_keypress_SLASH	106	stimuli_target_squarediamonds.svg	stimuli_distractor_trianglediamonds.svg	4	yes	57	0	389
6.6.1	win	2022-12-14	20:00:45	20:08:29	462887	6154a88b71a7f4347658b0f7	277378821	1	main_slash	7	main_slash	107	stimuli_distractor_trianglediamonds.svg	stimuli_distractor_diamondtriangles.svg	36	no	0	1	2000
6.6.1	win	2022-12-14	20:00:45	20:08:29	462887	6154a88b71a7f4347658b0f7	277378821	1	main_slash	7	advance_on_keypress_SLASH	108	stimuli_distractor_trianglediamonds.svg	stimuli_distractor_diamondtriangles.svg	36	no	57	0	240
6.6.1	win	2022-12-14	20:00:45	20:08:31	464164	6154a88b71a7f4347658b0f7	277378821	1	main_slash	7	main_slash	109	stimuli_distractor_diamondtriangles.svg	stimuli_target_trianglecircles.svg	29	yes	53	1	394
6.6.1	win	2022-12-14	20:00:45	20:08:31	464164	6154a88b71a7f4347658b0f7	277378821	1	main_slash	7	advance_on_keypress_SLASH	110	stimuli_distractor_diamondtriangles.svg	stimuli_target_trianglecircles.svg	29	yes	57	0	379
6.6.1	win	2022-12-14	20:00:45	20:08:32	465650	6154a88b71a7f4347658b0f7	277378821	1	main_slash	7	main_slash	111	stimuli_target_squaretriangles.svg	stimuli_distractor_trianglediamonds.svg	3	yes	53	1	463
6.6.1	win	2022-12-14	20:00:45	20:08:32	465650	6154a88b71a7f4347658b0f7	277378821	1	main_slash	7	advance_on_keypress_SLASH	112	stimuli_target_squaretriangles.svg	stimuli_distractor_trianglediamonds.svg	3	yes	57	0	269
6.6.1	win	2022-12-14	20:00:45	20:08:33	466917	6154a88b71a7f4347658b0f7	277378821	1	main_slash	7	main_slash	113	stimuli_target_trianglecircles.svg	stimuli_distractor_trianglediamonds.svg	17	yes	53	1	347
6.6.1	win	2022-12-14	20:00:45	20:08:33	466917	6154a88b71a7f4347658b0f7	277378821	1	main_slash	7	advance_on_keypress_SLASH	114	stimuli_target_trianglecircles.svg	stimuli_distractor_trianglediamonds.svg	17	yes	57	0	246
6.6.1	win	2022-12-14	20:00:45	20:08:35	468203	6154a88b71a7f4347658b0f7	277378821	1	main_slash	7	main_slash	115	stimuli_target_circlediamonds.svg	stimuli_distractor_trianglediamonds.svg	2	yes	53	1	381
6.6.1	win	2022-12-14	20:00:45	20:08:35	468203	6154a88b71a7f4347658b0f7	277378821	1	main_slash	7	advance_on_keypress_SLASH	116	stimuli_target_circlediamonds.svg	stimuli_distractor_trianglediamonds.svg	2	yes	57	0	261
6.6.1	win	2022-12-14	20:00:45	20:08:37	471104	6154a88b71a7f4347658b0f7	277378821	1	main_slash	7	main_slash	117	stimuli_target_squarediamonds.svg	stimuli_distractor_diamondtriangles.svg	8	yes	0	0	2000
6.6.1	win	2022-12-14	20:00:45	20:08:37	471104	6154a88b71a7f4347658b0f7	277378821	1	main_slash	7	advance_on_keypress_SLASH	118	stimuli_target_squarediamonds.svg	stimuli_distractor_diamondtriangles.svg	8	yes	57	0	265
6.6.1	win	2022-12-14	20:00:45	20:08:40	474020	6154a88b71a7f4347658b0f7	277378821	1	main_slash	7	main_slash	119	stimuli_distractor_diamondtriangles.svg	stimuli_target_squarediamonds.svg	16	yes	0	0	2000
6.6.1	win	2022-12-14	20:00:45	20:08:40	474020	6154a88b71a7f4347658b0f7	277378821	1	main_slash	7	advance_on_keypress_SLASH	120	stimuli_distractor_diamondtriangles.svg	stimuli_target_squarediamonds.svg	16	yes	57	0	348
6.6.1	win	2022-12-14	20:00:45	20:08:42	475536	6154a88b71a7f4347658b0f7	277378821	1	main_slash	7	main_slash	121	stimuli_distractor_trianglediamonds.svg	stimuli_target_diamondcircles.svg	27	yes	53	1	506
6.6.1	win	2022-12-14	20:00:45	20:08:42	475536	6154a88b71a7f4347658b0f7	277378821	1	main_slash	7	advance_on_keypress_SLASH	122	stimuli_distractor_trianglediamonds.svg	stimuli_target_diamondcircles.svg	27	yes	57	0	419
6.6.1	win	2022-12-14	20:00:45	20:08:43	476986	6154a88b71a7f4347658b0f7	277378821	1	main_slash	7	main_slash	123	stimuli_target_diamondcircles.svg	stimuli_distractor_diamondtriangles.svg	23	yes	53	1	382
6.6.1	win	2022-12-14	20:00:45	20:08:43	476986	6154a88b71a7f4347658b0f7	277378821	1	main_slash	7	advance_on_keypress_SLASH	124	stimuli_target_diamondcircles.svg	stimuli_distractor_diamondtriangles.svg	23	yes	57	0	302
6.6.1	win	2022-12-14	20:00:45	20:08:46	479936	6154a88b71a7f4347658b0f7	277378821	1	main_slash	7	main_slash	125	stimuli_distractor_diamondtriangles.svg	stimuli_distractor_trianglediamonds.svg	38	no	0	1	2000
6.6.1	win	2022-12-14	20:00:45	20:08:46	479936	6154a88b71a7f4347658b0f7	277378821	1	main_slash	7	advance_on_keypress_SLASH	126	stimuli_distractor_diamondtriangles.svg	stimuli_distractor_trianglediamonds.svg	38	no	57	0	988
6.6.1	win	2022-12-14	20:00:45	20:08:48	481959	6154a88b71a7f4347658b0f7	277378821	1	main_slash	7	main_slash	127	stimuli_distractor_diamondtriangles.svg	stimuli_target_circletriangles.svg	13	yes	53	1	391
6.6.1	win	2022-12-14	20:00:45	20:08:48	481959	6154a88b71a7f4347658b0f7	277378821	1	main_slash	7	advance_on_keypress_SLASH	128	stimuli_distractor_diamondtriangles.svg	stimuli_target_circletriangles.svg	13	yes	57	0	475
6.6.1	win	2022-12-14	20:00:45	20:08:50	483352	6154a88b71a7f4347658b0f7	277378821	1	main_slash	7	main_slash	129	stimuli_target_trianglecircles.svg	stimuli_distractor_diamondtriangles.svg	21	yes	53	1	282
6.6.1	win	2022-12-14	20:00:45	20:08:50	483352	6154a88b71a7f4347658b0f7	277378821	1	main_slash	7	advance_on_keypress_SLASH	130	stimuli_target_trianglecircles.svg	stimuli_distractor_diamondtriangles.svg	21	yes	57	0	400
6.6.1	win	2022-12-14	20:00:45	20:08:53	486403	6154a88b71a7f4347658b0f7	277378821	1	main_slash	7	main_slash	131	stimuli_distractor_trianglediamonds.svg	stimuli_target_circlediamonds.svg	10	yes	0	0	2000
6.6.1	win	2022-12-14	20:00:45	20:08:53	486403	6154a88b71a7f4347658b0f7	277378821	1	main_slash	7	advance_on_keypress_SLASH	132	stimuli_distractor_trianglediamonds.svg	stimuli_target_circlediamonds.svg	10	yes	57	0	248
6.6.1	win	2022-12-14	20:00:45	20:08:54	487710	6154a88b71a7f4347658b0f7	277378821	1	main_slash	7	main_slash	133	stimuli_distractor_diamondtriangles.svg	stimuli_target_trianglesquares.svg	30	yes	53	1	408
6.6.1	win	2022-12-14	20:00:45	20:08:54	487710	6154a88b71a7f4347658b0f7	277378821	1	main_slash	7	advance_on_keypress_SLASH	134	stimuli_distractor_diamondtriangles.svg	stimuli_target_trianglesquares.svg	30	yes	57	0	417
6.6.1	win	2022-12-14	20:00:45	20:08:56	489341	6154a88b71a7f4347658b0f7	277378821	1	main_slash	7	main_slash	135	stimuli_target_circletriangles.svg	stimuli_distractor_diamondtriangles.svg	5	yes	53	1	573
6.6.1	win	2022-12-14	20:00:45	20:08:56	489341	6154a88b71a7f4347658b0f7	277378821	1	main_slash	7	advance_on_keypress_SLASH	136	stimuli_target_circletriangles.svg	stimuli_distractor_diamondtriangles.svg	5	yes	57	0	463
6.6.1	win	2022-12-14	20:00:45	20:08:59	492452	6154a88b71a7f4347658b0f7	277378821	1	main_slash	7	main_slash	137	stimuli_distractor_trianglediamonds.svg	stimuli_distractor_diamondtriangles.svg	35	no	0	1	2000
6.6.1	win	2022-12-14	20:00:45	20:08:59	492452	6154a88b71a7f4347658b0f7	277378821	1	main_slash	7	advance_on_keypress_SLASH	138	stimuli_distractor_trianglediamonds.svg	stimuli_distractor_diamondtriangles.svg	35	no	57	0	3063
6.6.1	win	2022-12-14	20:00:45	20:09:03	496620	6154a88b71a7f4347658b0f7	277378821	1	main_slash	7	main_slash	139	stimuli_target_squaretriangles.svg	stimuli_distractor_diamondtriangles.svg	7	yes	53	1	452
6.6.1	win	2022-12-14	20:00:45	20:09:03	496620	6154a88b71a7f4347658b0f7	277378821	1	main_slash	7	advance_on_keypress_SLASH	140	stimuli_target_squaretriangles.svg	stimuli_distractor_diamondtriangles.svg	7	yes	57	0	1470
6.6.1	win	2022-12-14	20:00:45	20:09:07	500735	6154a88b71a7f4347658b0f7	277378821	1	main_slash	7	main_slash	141	stimuli_distractor_trianglediamonds.svg	stimuli_target_diamondsquares.svg	28	yes	0	0	2000
6.6.1	win	2022-12-14	20:00:45	20:09:07	500735	6154a88b71a7f4347658b0f7	277378821	1	main_slash	7	advance_on_keypress_SLASH	142	stimuli_distractor_trianglediamonds.svg	stimuli_target_diamondsquares.svg	28	yes	57	0	616
6.6.1	win	2022-12-14	20:00:45	20:09:09	502495	6154a88b71a7f4347658b0f7	277378821	1	main_slash	7	main_slash	143	stimuli_distractor_trianglediamonds.svg	stimuli_target_squaretriangles.svg	11	yes	53	1	494
6.6.1	win	2022-12-14	20:00:45	20:09:09	502495	6154a88b71a7f4347658b0f7	277378821	1	main_slash	7	advance_on_keypress_SLASH	144	stimuli_distractor_trianglediamonds.svg	stimuli_target_squaretriangles.svg	11	yes	57	0	655
6.6.1	win	2022-12-14	20:00:45	20:09:12	505785	6154a88b71a7f4347658b0f7	277378821	1	main_slash	7	main_slash	145	stimuli_distractor_trianglediamonds.svg	stimuli_target_trianglesquares.svg	26	yes	0	0	2000
6.6.1	win	2022-12-14	20:00:45	20:09:12	505785	6154a88b71a7f4347658b0f7	277378821	1	main_slash	7	advance_on_keypress_SLASH	146	stimuli_distractor_trianglediamonds.svg	stimuli_target_trianglesquares.svg	26	yes	57	0	156
6.6.1	win	2022-12-14	20:00:45	20:09:13	506992	6154a88b71a7f4347658b0f7	277378821	1	main_slash	7	main_slash	147	stimuli_distractor_trianglediamonds.svg	stimuli_target_trianglecircles.svg	25	yes	53	1	409
6.6.1	win	2022-12-14	20:00:45	20:09:13	506992	6154a88b71a7f4347658b0f7	277378821	1	main_slash	7	advance_on_keypress_SLASH	148	stimuli_distractor_trianglediamonds.svg	stimuli_target_trianglecircles.svg	25	yes	57	0	543
6.6.1	win	2022-12-14	20:00:45	20:09:15	508703	6154a88b71a7f4347658b0f7	277378821	1	main_slash	7	main_slash	149	stimuli_target_diamondcircles.svg	stimuli_distractor_trianglediamonds.svg	19	yes	53	1	535
6.6.1	win	2022-12-14	20:00:45	20:09:15	508703	6154a88b71a7f4347658b0f7	277378821	1	main_slash	7	advance_on_keypress_SLASH	150	stimuli_target_diamondcircles.svg	stimuli_distractor_trianglediamonds.svg	19	yes	57	0	428
6.6.1	win	2022-12-14	20:00:45	20:09:17	510196	6154a88b71a7f4347658b0f7	277378821	1	main_slash	7	main_slash	151	stimuli_distractor_diamondtriangles.svg	stimuli_target_diamondcircles.svg	31	yes	53	1	411
6.6.1	win	2022-12-14	20:00:45	20:09:17	510196	6154a88b71a7f4347658b0f7	277378821	1	main_slash	7	advance_on_keypress_SLASH	152	stimuli_distractor_diamondtriangles.svg	stimuli_target_diamondcircles.svg	31	yes	57	0	438
6.6.1	win	2022-12-14	20:00:45	20:09:18	511632	6154a88b71a7f4347658b0f7	277378821	1	main_slash	7	main_slash	153	stimuli_target_circlediamonds.svg	stimuli_distractor_diamondtriangles.svg	6	yes	53	1	364
6.6.1	win	2022-12-14	20:00:45	20:09:18	511632	6154a88b71a7f4347658b0f7	277378821	1	main_slash	7	advance_on_keypress_SLASH	154	stimuli_target_circlediamonds.svg	stimuli_distractor_diamondtriangles.svg	6	yes	57	0	259
6.6.1	win	2022-12-14	20:00:45	20:09:21	514534	6154a88b71a7f4347658b0f7	277378821	1	main_slash	7	main_slash	155	stimuli_target_diamondsquares.svg	stimuli_distractor_trianglediamonds.svg	20	yes	0	0	2000
6.6.1	win	2022-12-14	20:00:45	20:09:21	514534	6154a88b71a7f4347658b0f7	277378821	1	main_slash	7	advance_on_keypress_SLASH	156	stimuli_target_diamondsquares.svg	stimuli_distractor_trianglediamonds.svg	20	yes	57	0	343
6.6.1	win	2022-12-14	20:00:45	20:09:22	515987	6154a88b71a7f4347658b0f7	277378821	1	main_slash	7	main_slash	157	stimuli_distractor_diamondtriangles.svg	stimuli_target_squaretriangles.svg	15	yes	53	1	470
6.6.1	win	2022-12-14	20:00:45	20:09:22	515987	6154a88b71a7f4347658b0f7	277378821	1	main_slash	7	advance_on_keypress_SLASH	158	stimuli_distractor_diamondtriangles.svg	stimuli_target_squaretriangles.svg	15	yes	57	0	429
6.6.1	win	2022-12-14	20:00:45	20:09:25	519067	6154a88b71a7f4347658b0f7	277378821	1	main_slash	7	main_slash	159	stimuli_distractor_diamondtriangles.svg	stimuli_target_diamondsquares.svg	32	yes	0	0	2000
6.6.1	win	2022-12-14	20:00:45	20:09:25	519067	6154a88b71a7f4347658b0f7	277378821	1	main_slash	7	advance_on_keypress_SLASH	160	stimuli_distractor_diamondtriangles.svg	stimuli_target_diamondsquares.svg	32	yes	57	0	5769
6.6.1	win	2022-12-14	20:00:45	20:12:37	710212	6154a88b71a7f4347658b0f7	277378821	1	practice_z	9	practice_z	1	stimuli_distractor_trianglediamonds.svg	stimuli_target_diamondcircles.svg	12	yes	44	1	703
6.6.1	win	2022-12-14	20:00:45	20:12:37	710212	6154a88b71a7f4347658b0f7	277378821	1	practice_z	9	advance_on_keypress_ZEE	2	stimuli_distractor_trianglediamonds.svg	stimuli_target_diamondcircles.svg	12	yes	57	0	11610
6.6.1	win	2022-12-14	20:00:45	20:12:50	723802	6154a88b71a7f4347658b0f7	277378821	1	practice_z	9	practice_z	3	stimuli_distractor_diamondtriangles.svg	stimuli_target_diamondcircles.svg	8	yes	44	1	328
6.6.1	win	2022-12-14	20:00:45	20:12:50	723802	6154a88b71a7f4347658b0f7	277378821	1	practice_z	9	advance_on_keypress_ZEE	4	stimuli_distractor_diamondtriangles.svg	stimuli_target_diamondcircles.svg	8	yes	57	0	481
6.6.1	win	2022-12-14	20:00:45	20:12:53	726409	6154a88b71a7f4347658b0f7	277378821	1	practice_z	9	practice_z	5	stimuli_target_squarediamonds.svg	stimuli_distractor_trianglediamonds.svg	5	yes	44	1	468
6.6.1	win	2022-12-14	20:00:45	20:12:53	726409	6154a88b71a7f4347658b0f7	277378821	1	practice_z	9	advance_on_keypress_ZEE	6	stimuli_target_squarediamonds.svg	stimuli_distractor_trianglediamonds.svg	5	yes	57	0	317
6.6.1	win	2022-12-14	20:00:45	20:12:57	730373	6154a88b71a7f4347658b0f7	277378821	1	practice_z	9	practice_z	7	stimuli_distractor_trianglediamonds.svg	stimuli_target_squarediamonds.svg	11	yes	0	0	2000
6.6.1	win	2022-12-14	20:00:45	20:12:57	730373	6154a88b71a7f4347658b0f7	277378821	1	practice_z	9	advance_on_keypress_ZEE	8	stimuli_distractor_trianglediamonds.svg	stimuli_target_squarediamonds.svg	11	yes	57	0	350
6.6.1	win	2022-12-14	20:00:45	20:13:01	734374	6154a88b71a7f4347658b0f7	277378821	1	practice_z	9	practice_z	9	stimuli_distractor_trianglediamonds.svg	stimuli_distractor_diamondtriangles.svg	16	no	0	1	2000
6.6.1	win	2022-12-14	20:00:45	20:13:01	734374	6154a88b71a7f4347658b0f7	277378821	1	practice_z	9	advance_on_keypress_ZEE	10	stimuli_distractor_trianglediamonds.svg	stimuli_distractor_diamondtriangles.svg	16	no	57	0	234
6.6.1	win	2022-12-14	20:00:45	20:13:03	736664	6154a88b71a7f4347658b0f7	277378821	1	practice_z	9	practice_z	11	stimuli_distractor_diamondtriangles.svg	stimuli_target_trianglecircles.svg	9	yes	44	1	408
6.6.1	win	2022-12-14	20:00:45	20:13:03	736664	6154a88b71a7f4347658b0f7	277378821	1	practice_z	9	advance_on_keypress_ZEE	12	stimuli_distractor_diamondtriangles.svg	stimuli_target_trianglecircles.svg	9	yes	57	0	411
6.6.1	win	2022-12-14	20:00:45	20:13:06	739248	6154a88b71a7f4347658b0f7	277378821	1	practice_z	9	practice_z	13	stimuli_target_squarediamonds.svg	stimuli_distractor_diamondtriangles.svg	2	yes	44	1	524
6.6.1	win	2022-12-14	20:00:45	20:13:06	739248	6154a88b71a7f4347658b0f7	277378821	1	practice_z	9	advance_on_keypress_ZEE	14	stimuli_target_squarediamonds.svg	stimuli_distractor_diamondtriangles.svg	2	yes	57	0	247
6.6.1	win	2022-12-14	20:00:45	20:13:08	741530	6154a88b71a7f4347658b0f7	277378821	1	practice_z	9	practice_z	15	stimuli_target_circlediamonds.svg	stimuli_distractor_trianglediamonds.svg	4	yes	44	1	392
6.6.1	win	2022-12-14	20:00:45	20:13:08	741530	6154a88b71a7f4347658b0f7	277378821	1	practice_z	9	advance_on_keypress_ZEE	16	stimuli_target_circlediamonds.svg	stimuli_distractor_trianglediamonds.svg	4	yes	57	0	220
6.6.1	win	2022-12-14	20:00:45	20:13:12	745390	6154a88b71a7f4347658b0f7	277378821	1	practice_z	9	practice_z	17	stimuli_distractor_diamondtriangles.svg	stimuli_distractor_trianglediamonds.svg	14	no	0	1	2000
6.6.1	win	2022-12-14	20:00:45	20:13:12	745390	6154a88b71a7f4347658b0f7	277378821	1	practice_z	9	advance_on_keypress_ZEE	18	stimuli_distractor_diamondtriangles.svg	stimuli_distractor_trianglediamonds.svg	14	no	57	0	264
6.6.1	win	2022-12-14	20:00:45	20:13:14	747803	6154a88b71a7f4347658b0f7	277378821	1	practice_z	9	practice_z	19	stimuli_target_diamondsquares.svg	stimuli_distractor_diamondtriangles.svg	3	yes	44	1	497
6.6.1	win	2022-12-14	20:00:45	20:13:14	747803	6154a88b71a7f4347658b0f7	277378821	1	practice_z	9	advance_on_keypress_ZEE	20	stimuli_target_diamondsquares.svg	stimuli_distractor_diamondtriangles.svg	3	yes	57	0	394
6.6.1	win	2022-12-14	20:00:45	20:13:18	751855	6154a88b71a7f4347658b0f7	277378821	1	practice_z	9	practice_z	21	stimuli_distractor_trianglediamonds.svg	stimuli_distractor_trianglediamonds.svg	15	no	0	1	2000
6.6.1	win	2022-12-14	20:00:45	20:13:18	751855	6154a88b71a7f4347658b0f7	277378821	1	practice_z	9	advance_on_keypress_ZEE	22	stimuli_distractor_trianglediamonds.svg	stimuli_distractor_trianglediamonds.svg	15	no	57	0	461
6.6.1	win	2022-12-14	20:00:45	20:13:22	755972	6154a88b71a7f4347658b0f7	277378821	1	practice_z	9	practice_z	23	stimuli_distractor_diamondtriangles.svg	stimuli_distractor_diamondtriangles.svg	13	no	0	1	2000
6.6.1	win	2022-12-14	20:00:45	20:13:22	755972	6154a88b71a7f4347658b0f7	277378821	1	practice_z	9	advance_on_keypress_ZEE	24	stimuli_distractor_diamondtriangles.svg	stimuli_distractor_diamondtriangles.svg	13	no	57	0	222
6.6.1	win	2022-12-14	20:00:45	20:13:25	758256	6154a88b71a7f4347658b0f7	277378821	1	practice_z	9	practice_z	25	stimuli_distractor_diamondtriangles.svg	stimuli_target_circletriangles.svg	7	yes	44	1	418
6.6.1	win	2022-12-14	20:00:45	20:13:25	758256	6154a88b71a7f4347658b0f7	277378821	1	practice_z	9	advance_on_keypress_ZEE	26	stimuli_distractor_diamondtriangles.svg	stimuli_target_circletriangles.svg	7	yes	57	0	264
6.6.1	win	2022-12-14	20:00:45	20:13:27	760518	6154a88b71a7f4347658b0f7	277378821	1	practice_z	9	practice_z	27	stimuli_target_diamondsquares.svg	stimuli_distractor_trianglediamonds.svg	6	yes	44	1	346
6.6.1	win	2022-12-14	20:00:45	20:13:27	760518	6154a88b71a7f4347658b0f7	277378821	1	practice_z	9	advance_on_keypress_ZEE	28	stimuli_target_diamondsquares.svg	stimuli_distractor_trianglediamonds.svg	6	yes	57	0	53
6.6.1	win	2022-12-14	20:00:45	20:13:29	762548	6154a88b71a7f4347658b0f7	277378821	1	practice_z	9	practice_z	29	stimuli_target_circlediamonds.svg	stimuli_distractor_diamondtriangles.svg	1	yes	44	1	327
6.6.1	win	2022-12-14	20:00:45	20:13:29	762548	6154a88b71a7f4347658b0f7	277378821	1	practice_z	9	advance_on_keypress_ZEE	30	stimuli_target_circlediamonds.svg	stimuli_distractor_diamondtriangles.svg	1	yes	57	0	305
6.6.1	win	2022-12-14	20:00:45	20:13:31	764960	6154a88b71a7f4347658b0f7	277378821	1	practice_z	9	practice_z	31	stimuli_distractor_trianglediamonds.svg	stimuli_target_circlediamonds.svg	10	yes	44	1	454
6.6.1	win	2022-12-14	20:00:45	20:13:31	764960	6154a88b71a7f4347658b0f7	277378821	1	practice_z	9	advance_on_keypress_ZEE	32	stimuli_distractor_trianglediamonds.svg	stimuli_target_circlediamonds.svg	10	yes	57	0	342
6.6.1	win	2022-12-14	20:00:45	20:14:32	825532	6154a88b71a7f4347658b0f7	277378821	1	main_z	11	main_z	1	stimuli_distractor_trianglediamonds.svg	stimuli_distractor_trianglediamonds.svg	33	no	44	0	372
6.6.1	win	2022-12-14	20:00:45	20:14:32	825532	6154a88b71a7f4347658b0f7	277378821	1	main_z	11	advance_on_keypress_ZEE	2	stimuli_distractor_trianglediamonds.svg	stimuli_distractor_trianglediamonds.svg	33	no	57	0	859
6.6.1	win	2022-12-14	20:00:45	20:14:34	827423	6154a88b71a7f4347658b0f7	277378821	1	main_z	11	main_z	3	stimuli_distractor_diamondtriangles.svg	stimuli_target_squarediamonds.svg	16	yes	44	1	391
6.6.1	win	2022-12-14	20:00:45	20:14:34	827423	6154a88b71a7f4347658b0f7	277378821	1	main_z	11	advance_on_keypress_ZEE	4	stimuli_distractor_diamondtriangles.svg	stimuli_target_squarediamonds.svg	16	yes	57	0	451
6.6.1	win	2022-12-14	20:00:45	20:14:35	828898	6154a88b71a7f4347658b0f7	277378821	1	main_z	11	main_z	5	stimuli_distractor_diamondtriangles.svg	stimuli_target_trianglecircles.svg	29	yes	44	1	381
6.6.1	win	2022-12-14	20:00:45	20:14:35	828898	6154a88b71a7f4347658b0f7	277378821	1	main_z	11	advance_on_keypress_ZEE	6	stimuli_distractor_diamondtriangles.svg	stimuli_target_trianglecircles.svg	29	yes	57	0	415
6.6.1	win	2022-12-14	20:00:45	20:14:37	830296	6154a88b71a7f4347658b0f7	277378821	1	main_z	11	main_z	7	stimuli_target_squarediamonds.svg	stimuli_distractor_diamondtriangles.svg	8	yes	44	1	331
6.6.1	win	2022-12-14	20:00:45	20:14:37	830296	6154a88b71a7f4347658b0f7	277378821	1	main_z	11	advance_on_keypress_ZEE	8	stimuli_target_squarediamonds.svg	stimuli_distractor_diamondtriangles.svg	8	yes	57	0	351
6.6.1	win	2022-12-14	20:00:45	20:14:38	831697	6154a88b71a7f4347658b0f7	277378821	1	main_z	11	main_z	9	stimuli_distractor_diamondtriangles.svg	stimuli_target_trianglesquares.svg	30	yes	44	1	399
6.6.1	win	2022-12-14	20:00:45	20:14:38	831697	6154a88b71a7f4347658b0f7	277378821	1	main_z	11	advance_on_keypress_ZEE	10	stimuli_distractor_diamondtriangles.svg	stimuli_target_trianglesquares.svg	30	yes	57	0	364
6.6.1	win	2022-12-14	20:00:45	20:14:41	834715	6154a88b71a7f4347658b0f7	277378821	1	main_z	11	main_z	11	stimuli_distractor_diamondtriangles.svg	stimuli_distractor_trianglediamonds.svg	37	no	0	1	2000
6.6.1	win	2022-12-14	20:00:45	20:14:41	834715	6154a88b71a7f4347658b0f7	277378821	1	main_z	11	advance_on_keypress_ZEE	12	stimuli_distractor_diamondtriangles.svg	stimuli_distractor_trianglediamonds.svg	37	no	57	0	236
6.6.1	win	2022-12-14	20:00:45	20:14:44	837598	6154a88b71a7f4347658b0f7	277378821	1	main_z	11	main_z	13	stimuli_distractor_diamondtriangles.svg	stimuli_distractor_diamondtriangles.svg	40	no	0	1	2000
6.6.1	win	2022-12-14	20:00:45	20:14:44	837598	6154a88b71a7f4347658b0f7	277378821	1	main_z	11	advance_on_keypress_ZEE	14	stimuli_distractor_diamondtriangles.svg	stimuli_distractor_diamondtriangles.svg	40	no	57	0	309
6.6.1	win	2022-12-14	20:00:45	20:14:45	838887	6154a88b71a7f4347658b0f7	277378821	1	main_z	11	main_z	15	stimuli_target_squarediamonds.svg	stimuli_distractor_trianglediamonds.svg	4	yes	44	1	339
6.6.1	win	2022-12-14	20:00:45	20:14:45	838887	6154a88b71a7f4347658b0f7	277378821	1	main_z	11	advance_on_keypress_ZEE	16	stimuli_target_squarediamonds.svg	stimuli_distractor_trianglediamonds.svg	4	yes	57	0	356
6.6.1	win	2022-12-14	20:00:45	20:14:48	841881	6154a88b71a7f4347658b0f7	277378821	1	main_z	11	main_z	17	stimuli_target_trianglesquares.svg	stimuli_distractor_trianglediamonds.svg	18	yes	0	0	2000
6.6.1	win	2022-12-14	20:00:45	20:14:48	841881	6154a88b71a7f4347658b0f7	277378821	1	main_z	11	advance_on_keypress_ZEE	18	stimuli_target_trianglesquares.svg	stimuli_distractor_trianglediamonds.svg	18	yes	57	0	291
6.6.1	win	2022-12-14	20:00:45	20:14:50	843197	6154a88b71a7f4347658b0f7	277378821	1	main_z	11	main_z	19	stimuli_target_trianglesquares.svg	stimuli_distractor_diamondtriangles.svg	22	yes	44	1	377
6.6.1	win	2022-12-14	20:00:45	20:14:50	843197	6154a88b71a7f4347658b0f7	277378821	1	main_z	11	advance_on_keypress_ZEE	20	stimuli_target_trianglesquares.svg	stimuli_distractor_diamondtriangles.svg	22	yes	57	0	398
6.6.1	win	2022-12-14	20:00:45	20:14:51	844644	6154a88b71a7f4347658b0f7	277378821	1	main_z	11	main_z	21	stimuli_distractor_diamondtriangles.svg	stimuli_target_circletriangles.svg	13	yes	44	1	397
6.6.1	win	2022-12-14	20:00:45	20:14:51	844644	6154a88b71a7f4347658b0f7	277378821	1	main_z	11	advance_on_keypress_ZEE	22	stimuli_distractor_diamondtriangles.svg	stimuli_target_circletriangles.svg	13	yes	57	0	362
6.6.1	win	2022-12-14	20:00:45	20:14:54	847664	6154a88b71a7f4347658b0f7	277378821	1	main_z	11	main_z	23	stimuli_target_diamondsquares.svg	stimuli_distractor_diamondtriangles.svg	24	yes	0	0	2000
6.6.1	win	2022-12-14	20:00:45	20:14:54	847664	6154a88b71a7f4347658b0f7	277378821	1	main_z	11	advance_on_keypress_ZEE	24	stimuli_target_diamondsquares.svg	stimuli_distractor_diamondtriangles.svg	24	yes	57	0	183
6.6.1	win	2022-12-14	20:00:45	20:14:55	848886	6154a88b71a7f4347658b0f7	277378821	1	main_z	11	main_z	25	stimuli_target_diamondcircles.svg	stimuli_distractor_trianglediamonds.svg	19	yes	44	1	389
6.6.1	win	2022-12-14	20:00:45	20:14:55	848886	6154a88b71a7f4347658b0f7	277378821	1	main_z	11	advance_on_keypress_ZEE	26	stimuli_target_diamondcircles.svg	stimuli_distractor_trianglediamonds.svg	19	yes	57	0	375
6.6.1	win	2022-12-14	20:00:45	20:14:57	850363	6154a88b71a7f4347658b0f7	277378821	1	main_z	11	main_z	27	stimuli_target_circletriangles.svg	stimuli_distractor_diamondtriangles.svg	5	yes	44	1	465
6.6.1	win	2022-12-14	20:00:45	20:14:57	850363	6154a88b71a7f4347658b0f7	277378821	1	main_z	11	advance_on_keypress_ZEE	28	stimuli_target_circletriangles.svg	stimuli_distractor_diamondtriangles.svg	5	yes	57	0	363
6.6.1	win	2022-12-14	20:00:45	20:14:59	852380	6154a88b71a7f4347658b0f7	277378821	1	main_z	11	main_z	29	stimuli_distractor_diamondtriangles.svg	stimuli_target_diamondsquares.svg	32	yes	44	1	999
6.6.1	win	2022-12-14	20:00:45	20:14:59	852380	6154a88b71a7f4347658b0f7	277378821	1	main_z	11	advance_on_keypress_ZEE	30	stimuli_distractor_diamondtriangles.svg	stimuli_target_diamondsquares.svg	32	yes	57	0	431
6.6.1	win	2022-12-14	20:00:45	20:15:00	854021	6154a88b71a7f4347658b0f7	277378821	1	main_z	11	main_z	31	stimuli_distractor_trianglediamonds.svg	stimuli_target_diamondsquares.svg	28	yes	44	1	558
6.6.1	win	2022-12-14	20:00:45	20:15:00	854021	6154a88b71a7f4347658b0f7	277378821	1	main_z	11	advance_on_keypress_ZEE	32	stimuli_distractor_trianglediamonds.svg	stimuli_target_diamondsquares.svg	28	yes	57	0	311
6.6.1	win	2022-12-14	20:00:45	20:15:02	855365	6154a88b71a7f4347658b0f7	277378821	1	main_z	11	main_z	33	stimuli_distractor_diamondtriangles.svg	stimuli_target_squaretriangles.svg	15	yes	44	1	386
6.6.1	win	2022-12-14	20:00:45	20:15:02	855365	6154a88b71a7f4347658b0f7	277378821	1	main_z	11	advance_on_keypress_ZEE	34	stimuli_distractor_diamondtriangles.svg	stimuli_target_squaretriangles.svg	15	yes	57	0	351
6.6.1	win	2022-12-14	20:00:45	20:15:05	858364	6154a88b71a7f4347658b0f7	277378821	1	main_z	11	main_z	35	stimuli_target_squaretriangles.svg	stimuli_distractor_trianglediamonds.svg	3	yes	0	0	2000
6.6.1	win	2022-12-14	20:00:45	20:15:05	858364	6154a88b71a7f4347658b0f7	277378821	1	main_z	11	advance_on_keypress_ZEE	36	stimuli_target_squaretriangles.svg	stimuli_distractor_trianglediamonds.svg	3	yes	57	0	359
6.6.1	win	2022-12-14	20:00:45	20:15:06	859664	6154a88b71a7f4347658b0f7	277378821	1	main_z	11	main_z	37	stimuli_target_circlediamonds.svg	stimuli_distractor_diamondtriangles.svg	6	yes	44	1	301
6.6.1	win	2022-12-14	20:00:45	20:15:06	859664	6154a88b71a7f4347658b0f7	277378821	1	main_z	11	advance_on_keypress_ZEE	38	stimuli_target_circlediamonds.svg	stimuli_distractor_diamondtriangles.svg	6	yes	57	0	326
6.6.1	win	2022-12-14	20:00:45	20:15:07	861088	6154a88b71a7f4347658b0f7	277378821	1	main_z	11	main_z	39	stimuli_target_trianglecircles.svg	stimuli_distractor_trianglediamonds.svg	17	yes	44	1	458
6.6.1	win	2022-12-14	20:00:45	20:15:07	861088	6154a88b71a7f4347658b0f7	277378821	1	main_z	11	advance_on_keypress_ZEE	40	stimuli_target_trianglecircles.svg	stimuli_distractor_trianglediamonds.svg	17	yes	57	0	402
6.6.1	win	2022-12-14	20:00:45	20:15:09	862675	6154a88b71a7f4347658b0f7	277378821	1	main_z	11	main_z	41	stimuli_distractor_trianglediamonds.svg	stimuli_distractor_trianglediamonds.svg	34	no	44	0	545
6.6.1	win	2022-12-14	20:00:45	20:15:09	862675	6154a88b71a7f4347658b0f7	277378821	1	main_z	11	advance_on_keypress_ZEE	42	stimuli_distractor_trianglediamonds.svg	stimuli_distractor_trianglediamonds.svg	34	no	57	0	387
6.6.1	win	2022-12-14	20:00:45	20:15:11	864197	6154a88b71a7f4347658b0f7	277378821	1	main_z	11	main_z	43	stimuli_distractor_diamondtriangles.svg	stimuli_target_circlediamonds.svg	14	yes	44	1	484
6.6.1	win	2022-12-14	20:00:45	20:15:11	864197	6154a88b71a7f4347658b0f7	277378821	1	main_z	11	advance_on_keypress_ZEE	44	stimuli_distractor_diamondtriangles.svg	stimuli_target_circlediamonds.svg	14	yes	57	0	11517
6.6.1	win	2022-12-14	20:00:45	20:15:23	876661	6154a88b71a7f4347658b0f7	277378821	1	main_z	11	main_z	45	stimuli_target_circletriangles.svg	stimuli_distractor_trianglediamonds.svg	1	yes	44	1	299
6.6.1	win	2022-12-14	20:00:45	20:15:23	876661	6154a88b71a7f4347658b0f7	277378821	1	main_z	11	advance_on_keypress_ZEE	46	stimuli_target_circletriangles.svg	stimuli_distractor_trianglediamonds.svg	1	yes	57	0	628
6.6.1	win	2022-12-14	20:00:45	20:15:25	878391	6154a88b71a7f4347658b0f7	277378821	1	main_z	11	main_z	47	stimuli_target_diamondsquares.svg	stimuli_distractor_trianglediamonds.svg	20	yes	44	1	446
6.6.1	win	2022-12-14	20:00:45	20:15:25	878391	6154a88b71a7f4347658b0f7	277378821	1	main_z	11	advance_on_keypress_ZEE	48	stimuli_target_diamondsquares.svg	stimuli_distractor_trianglediamonds.svg	20	yes	57	0	292
6.6.1	win	2022-12-14	20:00:45	20:15:26	879713	6154a88b71a7f4347658b0f7	277378821	1	main_z	11	main_z	49	stimuli_distractor_trianglediamonds.svg	stimuli_target_circletriangles.svg	9	yes	44	1	383
6.6.1	win	2022-12-14	20:00:45	20:15:26	879713	6154a88b71a7f4347658b0f7	277378821	1	main_z	11	advance_on_keypress_ZEE	50	stimuli_distractor_trianglediamonds.svg	stimuli_target_circletriangles.svg	9	yes	57	0	314
6.6.1	win	2022-12-14	20:00:45	20:15:27	881035	6154a88b71a7f4347658b0f7	277378821	1	main_z	11	main_z	51	stimuli_distractor_diamondtriangles.svg	stimuli_target_diamondcircles.svg	31	yes	44	1	357
6.6.1	win	2022-12-14	20:00:45	20:15:27	881035	6154a88b71a7f4347658b0f7	277378821	1	main_z	11	advance_on_keypress_ZEE	52	stimuli_distractor_diamondtriangles.svg	stimuli_target_diamondcircles.svg	31	yes	57	0	380
6.6.1	win	2022-12-14	20:00:45	20:15:29	882488	6154a88b71a7f4347658b0f7	277378821	1	main_z	11	main_z	53	stimuli_distractor_trianglediamonds.svg	stimuli_target_trianglesquares.svg	26	yes	44	1	426
6.6.1	win	2022-12-14	20:00:45	20:15:29	882488	6154a88b71a7f4347658b0f7	277378821	1	main_z	11	advance_on_keypress_ZEE	54	stimuli_distractor_trianglediamonds.svg	stimuli_target_trianglesquares.svg	26	yes	57	0	430
6.6.1	win	2022-12-14	20:00:45	20:15:30	883873	6154a88b71a7f4347658b0f7	277378821	1	main_z	11	main_z	55	stimuli_distractor_trianglediamonds.svg	stimuli_target_trianglecircles.svg	25	yes	44	1	311
6.6.1	win	2022-12-14	20:00:45	20:15:30	883873	6154a88b71a7f4347658b0f7	277378821	1	main_z	11	advance_on_keypress_ZEE	56	stimuli_distractor_trianglediamonds.svg	stimuli_target_trianglecircles.svg	25	yes	57	0	56944
6.6.1	win	2022-12-14	20:00:45	20:16:28	941791	6154a88b71a7f4347658b0f7	277378821	1	main_z	11	main_z	57	stimuli_distractor_diamondtriangles.svg	stimuli_distractor_trianglediamonds.svg	38	no	44	0	316
6.6.1	win	2022-12-14	20:00:45	20:16:28	941791	6154a88b71a7f4347658b0f7	277378821	1	main_z	11	advance_on_keypress_ZEE	58	stimuli_distractor_diamondtriangles.svg	stimuli_distractor_trianglediamonds.svg	38	no	57	0	415
6.6.1	win	2022-12-14	20:00:45	20:16:31	944858	6154a88b71a7f4347658b0f7	277378821	1	main_z	11	main_z	59	stimuli_distractor_trianglediamonds.svg	stimuli_distractor_diamondtriangles.svg	36	no	0	1	2000
6.6.1	win	2022-12-14	20:00:45	20:16:31	944858	6154a88b71a7f4347658b0f7	277378821	1	main_z	11	advance_on_keypress_ZEE	60	stimuli_distractor_trianglediamonds.svg	stimuli_distractor_diamondtriangles.svg	36	no	57	0	310
6.6.1	win	2022-12-14	20:00:45	20:16:33	946196	6154a88b71a7f4347658b0f7	277378821	1	main_z	11	main_z	61	stimuli_distractor_trianglediamonds.svg	stimuli_target_circlediamonds.svg	10	yes	44	1	389
6.6.1	win	2022-12-14	20:00:45	20:16:33	946196	6154a88b71a7f4347658b0f7	277378821	1	main_z	11	advance_on_keypress_ZEE	62	stimuli_distractor_trianglediamonds.svg	stimuli_target_circlediamonds.svg	10	yes	57	0	332
6.6.1	win	2022-12-14	20:00:45	20:16:34	947762	6154a88b71a7f4347658b0f7	277378821	1	main_z	11	main_z	63	stimuli_distractor_trianglediamonds.svg	stimuli_target_diamondcircles.svg	27	yes	44	1	588
6.6.1	win	2022-12-14	20:00:45	20:16:34	947762	6154a88b71a7f4347658b0f7	277378821	1	main_z	11	advance_on_keypress_ZEE	64	stimuli_distractor_trianglediamonds.svg	stimuli_target_diamondcircles.svg	27	yes	57	0	608
6.6.1	win	2022-12-14	20:00:45	20:16:36	949357	6154a88b71a7f4347658b0f7	277378821	1	main_z	11	main_z	65	stimuli_target_diamondcircles.svg	stimuli_distractor_diamondtriangles.svg	23	yes	44	1	349
6.6.1	win	2022-12-14	20:00:45	20:16:36	949357	6154a88b71a7f4347658b0f7	277378821	1	main_z	11	advance_on_keypress_ZEE	66	stimuli_target_diamondcircles.svg	stimuli_distractor_diamondtriangles.svg	23	yes	57	0	243
6.6.1	win	2022-12-14	20:00:45	20:16:39	952241	6154a88b71a7f4347658b0f7	277378821	1	main_z	11	main_z	67	stimuli_distractor_diamondtriangles.svg	stimuli_distractor_diamondtriangles.svg	39	no	0	1	2000
6.6.1	win	2022-12-14	20:00:45	20:16:39	952241	6154a88b71a7f4347658b0f7	277378821	1	main_z	11	advance_on_keypress_ZEE	68	stimuli_distractor_diamondtriangles.svg	stimuli_distractor_diamondtriangles.svg	39	no	57	0	1209
6.6.1	win	2022-12-14	20:00:45	20:16:41	954443	6154a88b71a7f4347658b0f7	277378821	1	main_z	11	main_z	69	stimuli_distractor_trianglediamonds.svg	stimuli_target_squaretriangles.svg	11	yes	44	1	352
6.6.1	win	2022-12-14	20:00:45	20:16:41	954443	6154a88b71a7f4347658b0f7	277378821	1	main_z	11	advance_on_keypress_ZEE	70	stimuli_distractor_trianglediamonds.svg	stimuli_target_squaretriangles.svg	11	yes	57	0	340
6.6.1	win	2022-12-14	20:00:45	20:16:42	955940	6154a88b71a7f4347658b0f7	277378821	1	main_z	11	main_z	71	stimuli_target_trianglecircles.svg	stimuli_distractor_diamondtriangles.svg	21	yes	44	1	507
6.6.1	win	2022-12-14	20:00:45	20:16:42	955940	6154a88b71a7f4347658b0f7	277378821	1	main_z	11	advance_on_keypress_ZEE	72	stimuli_target_trianglecircles.svg	stimuli_distractor_diamondtriangles.svg	21	yes	57	0	313
6.6.1	win	2022-12-14	20:00:45	20:16:44	957224	6154a88b71a7f4347658b0f7	277378821	1	main_z	11	main_z	73	stimuli_target_squaretriangles.svg	stimuli_distractor_diamondtriangles.svg	7	yes	44	1	317
6.6.1	win	2022-12-14	20:00:45	20:16:44	957224	6154a88b71a7f4347658b0f7	277378821	1	main_z	11	advance_on_keypress_ZEE	74	stimuli_target_squaretriangles.svg	stimuli_distractor_diamondtriangles.svg	7	yes	57	0	363
6.6.1	win	2022-12-14	20:00:45	20:16:45	958557	6154a88b71a7f4347658b0f7	277378821	1	main_z	11	main_z	75	stimuli_target_circlediamonds.svg	stimuli_distractor_trianglediamonds.svg	2	yes	44	1	317
6.6.1	win	2022-12-14	20:00:45	20:16:45	958557	6154a88b71a7f4347658b0f7	277378821	1	main_z	11	advance_on_keypress_ZEE	76	stimuli_target_circlediamonds.svg	stimuli_distractor_trianglediamonds.svg	2	yes	57	0	355
6.6.1	win	2022-12-14	20:00:45	20:16:47	960377	6154a88b71a7f4347658b0f7	277378821	1	main_z	11	main_z	77	stimuli_distractor_trianglediamonds.svg	stimuli_target_squarediamonds.svg	12	yes	44	1	819
6.6.1	win	2022-12-14	20:00:45	20:16:47	960377	6154a88b71a7f4347658b0f7	277378821	1	main_z	11	advance_on_keypress_ZEE	78	stimuli_distractor_trianglediamonds.svg	stimuli_target_squarediamonds.svg	12	yes	57	0	339
6.6.1	win	2022-12-14	20:00:45	20:16:48	961758	6154a88b71a7f4347658b0f7	277378821	1	main_z	11	main_z	79	stimuli_distractor_trianglediamonds.svg	stimuli_distractor_diamondtriangles.svg	35	no	44	0	400
6.6.1	win	2022-12-14	20:00:45	20:16:48	961758	6154a88b71a7f4347658b0f7	277378821	1	main_z	11	advance_on_keypress_ZEE	80	stimuli_distractor_trianglediamonds.svg	stimuli_distractor_diamondtriangles.svg	35	no	57	0	324
6.6.1	win	2022-12-14	20:00:45	20:16:49	963064	6154a88b71a7f4347658b0f7	277378821	1	main_z	11	main_z	81	stimuli_target_circlediamonds.svg	stimuli_distractor_diamondtriangles.svg	6	yes	44	1	340
6.6.1	win	2022-12-14	20:00:45	20:16:49	963064	6154a88b71a7f4347658b0f7	277378821	1	main_z	11	advance_on_keypress_ZEE	82	stimuli_target_circlediamonds.svg	stimuli_distractor_diamondtriangles.svg	6	yes	57	0	235
6.6.1	win	2022-12-14	20:00:45	20:16:51	964322	6154a88b71a7f4347658b0f7	277378821	1	main_z	11	main_z	83	stimuli_target_diamondcircles.svg	stimuli_distractor_trianglediamonds.svg	19	yes	44	1	381
6.6.1	win	2022-12-14	20:00:45	20:16:51	964322	6154a88b71a7f4347658b0f7	277378821	1	main_z	11	advance_on_keypress_ZEE	84	stimuli_target_diamondcircles.svg	stimuli_distractor_trianglediamonds.svg	19	yes	57	0	167
6.6.1	win	2022-12-14	20:00:45	20:16:52	965601	6154a88b71a7f4347658b0f7	277378821	1	main_z	11	main_z	85	stimuli_distractor_trianglediamonds.svg	stimuli_distractor_diamondtriangles.svg	36	no	44	0	461
6.6.1	win	2022-12-14	20:00:45	20:16:52	965601	6154a88b71a7f4347658b0f7	277378821	1	main_z	11	advance_on_keypress_ZEE	86	stimuli_distractor_trianglediamonds.svg	stimuli_distractor_diamondtriangles.svg	36	no	57	0	201
6.6.1	win	2022-12-14	20:00:45	20:16:55	968440	6154a88b71a7f4347658b0f7	277378821	1	main_z	11	main_z	87	stimuli_distractor_diamondtriangles.svg	stimuli_target_diamondsquares.svg	32	yes	0	0	2000
6.6.1	win	2022-12-14	20:00:45	20:16:55	968440	6154a88b71a7f4347658b0f7	277378821	1	main_z	11	advance_on_keypress_ZEE	88	stimuli_distractor_diamondtriangles.svg	stimuli_target_diamondsquares.svg	32	yes	57	0	336
6.6.1	win	2022-12-14	20:00:45	20:16:56	969730	6154a88b71a7f4347658b0f7	277378821	1	main_z	11	main_z	89	stimuli_target_diamondsquares.svg	stimuli_distractor_trianglediamonds.svg	20	yes	44	1	306
6.6.1	win	2022-12-14	20:00:45	20:16:56	969730	6154a88b71a7f4347658b0f7	277378821	1	main_z	11	advance_on_keypress_ZEE	90	stimuli_target_diamondsquares.svg	stimuli_distractor_trianglediamonds.svg	20	yes	57	0	4004
6.6.1	win	2022-12-14	20:00:45	20:17:01	974691	6154a88b71a7f4347658b0f7	277378821	1	main_z	11	main_z	91	stimuli_target_trianglesquares.svg	stimuli_distractor_diamondtriangles.svg	22	yes	44	1	317
6.6.1	win	2022-12-14	20:00:45	20:17:01	974691	6154a88b71a7f4347658b0f7	277378821	1	main_z	11	advance_on_keypress_ZEE	92	stimuli_target_trianglesquares.svg	stimuli_distractor_diamondtriangles.svg	22	yes	57	0	284
6.6.1	win	2022-12-14	20:00:45	20:17:02	976139	6154a88b71a7f4347658b0f7	277378821	1	main_z	11	main_z	93	stimuli_distractor_diamondtriangles.svg	stimuli_target_squarediamonds.svg	16	yes	44	1	516
6.6.1	win	2022-12-14	20:00:45	20:17:02	976139	6154a88b71a7f4347658b0f7	277378821	1	main_z	11	advance_on_keypress_ZEE	94	stimuli_distractor_diamondtriangles.svg	stimuli_target_squarediamonds.svg	16	yes	57	0	270
6.6.1	win	2022-12-14	20:00:45	20:17:04	977417	6154a88b71a7f4347658b0f7	277378821	1	main_z	11	main_z	95	stimuli_distractor_diamondtriangles.svg	stimuli_target_trianglecircles.svg	29	yes	44	1	360
6.6.1	win	2022-12-14	20:00:45	20:17:04	977417	6154a88b71a7f4347658b0f7	277378821	1	main_z	11	advance_on_keypress_ZEE	96	stimuli_distractor_diamondtriangles.svg	stimuli_target_trianglecircles.svg	29	yes	57	0	273
6.6.1	win	2022-12-14	20:00:45	20:17:05	978709	6154a88b71a7f4347658b0f7	277378821	1	main_z	11	main_z	97	stimuli_distractor_trianglediamonds.svg	stimuli_target_trianglecircles.svg	25	yes	44	1	386
6.6.1	win	2022-12-14	20:00:45	20:17:05	978709	6154a88b71a7f4347658b0f7	277378821	1	main_z	11	advance_on_keypress_ZEE	98	stimuli_distractor_trianglediamonds.svg	stimuli_target_trianglecircles.svg	25	yes	57	0	280
6.6.1	win	2022-12-14	20:00:45	20:17:07	980186	6154a88b71a7f4347658b0f7	277378821	1	main_z	11	main_z	99	stimuli_target_diamondsquares.svg	stimuli_distractor_diamondtriangles.svg	24	yes	44	1	547
6.6.1	win	2022-12-14	20:00:45	20:17:07	980186	6154a88b71a7f4347658b0f7	277378821	1	main_z	11	advance_on_keypress_ZEE	100	stimuli_target_diamondsquares.svg	stimuli_distractor_diamondtriangles.svg	24	yes	57	0	1585
6.6.1	win	2022-12-14	20:00:45	20:17:09	983080	6154a88b71a7f4347658b0f7	277378821	1	main_z	11	main_z	101	stimuli_target_squaretriangles.svg	stimuli_distractor_trianglediamonds.svg	3	yes	44	1	657
6.6.1	win	2022-12-14	20:00:45	20:17:09	983080	6154a88b71a7f4347658b0f7	277378821	1	main_z	11	advance_on_keypress_ZEE	102	stimuli_target_squaretriangles.svg	stimuli_distractor_trianglediamonds.svg	3	yes	57	0	530
6.6.1	win	2022-12-14	20:00:45	20:17:13	986255	6154a88b71a7f4347658b0f7	277378821	1	main_z	11	main_z	103	stimuli_distractor_trianglediamonds.svg	stimuli_distractor_trianglediamonds.svg	34	no	0	1	2000
6.6.1	win	2022-12-14	20:00:45	20:17:13	986255	6154a88b71a7f4347658b0f7	277378821	1	main_z	11	advance_on_keypress_ZEE	104	stimuli_distractor_trianglediamonds.svg	stimuli_distractor_trianglediamonds.svg	34	no	57	0	781
6.6.1	win	2022-12-14	20:00:45	20:17:14	988072	6154a88b71a7f4347658b0f7	277378821	1	main_z	11	main_z	105	stimuli_target_trianglecircles.svg	stimuli_distractor_trianglediamonds.svg	17	yes	44	1	372
6.6.1	win	2022-12-14	20:00:45	20:17:14	988072	6154a88b71a7f4347658b0f7	277378821	1	main_z	11	advance_on_keypress_ZEE	106	stimuli_target_trianglecircles.svg	stimuli_distractor_trianglediamonds.svg	17	yes	57	0	316
6.6.1	win	2022-12-14	20:00:45	20:17:16	989496	6154a88b71a7f4347658b0f7	277378821	1	main_z	11	main_z	107	stimuli_distractor_diamondtriangles.svg	stimuli_target_squaretriangles.svg	15	yes	44	1	458
6.6.1	win	2022-12-14	20:00:45	20:17:16	989496	6154a88b71a7f4347658b0f7	277378821	1	main_z	11	advance_on_keypress_ZEE	108	stimuli_distractor_diamondtriangles.svg	stimuli_target_squaretriangles.svg	15	yes	57	0	412
6.6.1	win	2022-12-14	20:00:45	20:17:17	991004	6154a88b71a7f4347658b0f7	277378821	1	main_z	11	main_z	109	stimuli_target_circletriangles.svg	stimuli_distractor_trianglediamonds.svg	1	yes	44	1	448
6.6.1	win	2022-12-14	20:00:45	20:17:17	991004	6154a88b71a7f4347658b0f7	277378821	1	main_z	11	advance_on_keypress_ZEE	110	stimuli_target_circletriangles.svg	stimuli_distractor_trianglediamonds.svg	1	yes	57	0	370
6.6.1	win	2022-12-14	20:00:45	20:17:19	992870	6154a88b71a7f4347658b0f7	277378821	1	main_z	11	main_z	111	stimuli_target_squarediamonds.svg	stimuli_distractor_diamondtriangles.svg	8	yes	44	1	848
6.6.1	win	2022-12-14	20:00:45	20:17:19	992870	6154a88b71a7f4347658b0f7	277378821	1	main_z	11	advance_on_keypress_ZEE	112	stimuli_target_squarediamonds.svg	stimuli_distractor_diamondtriangles.svg	8	yes	57	0	343
6.6.1	win	2022-12-14	20:00:45	20:17:21	994283	6154a88b71a7f4347658b0f7	277378821	1	main_z	11	main_z	113	stimuli_distractor_diamondtriangles.svg	stimuli_target_circlediamonds.svg	14	yes	44	1	429
6.6.1	win	2022-12-14	20:00:45	20:17:21	994283	6154a88b71a7f4347658b0f7	277378821	1	main_z	11	advance_on_keypress_ZEE	114	stimuli_distractor_diamondtriangles.svg	stimuli_target_circlediamonds.svg	14	yes	57	0	360
6.6.1	win	2022-12-14	20:00:45	20:17:24	997288	6154a88b71a7f4347658b0f7	277378821	1	main_z	11	main_z	115	stimuli_distractor_diamondtriangles.svg	stimuli_target_trianglesquares.svg	30	yes	0	0	2000
6.6.1	win	2022-12-14	20:00:45	20:17:24	997288	6154a88b71a7f4347658b0f7	277378821	1	main_z	11	advance_on_keypress_ZEE	116	stimuli_distractor_diamondtriangles.svg	stimuli_target_trianglesquares.svg	30	yes	57	0	2072
6.6.1	win	2022-12-14	20:00:45	20:17:27	1000652	6154a88b71a7f4347658b0f7	277378821	1	main_z	11	main_z	117	stimuli_target_squaretriangles.svg	stimuli_distractor_diamondtriangles.svg	7	yes	44	1	648
6.6.1	win	2022-12-14	20:00:45	20:17:27	1000652	6154a88b71a7f4347658b0f7	277378821	1	main_z	11	advance_on_keypress_ZEE	118	stimuli_target_squaretriangles.svg	stimuli_distractor_diamondtriangles.svg	7	yes	57	0	411
6.6.1	win	2022-12-14	20:00:45	20:17:30	1003705	6154a88b71a7f4347658b0f7	277378821	1	main_z	11	main_z	119	stimuli_distractor_diamondtriangles.svg	stimuli_distractor_diamondtriangles.svg	39	no	0	1	2000
6.6.1	win	2022-12-14	20:00:45	20:17:30	1003705	6154a88b71a7f4347658b0f7	277378821	1	main_z	11	advance_on_keypress_ZEE	120	stimuli_distractor_diamondtriangles.svg	stimuli_distractor_diamondtriangles.svg	39	no	57	0	974
6.6.1	win	2022-12-14	20:00:45	20:17:32	1005895	6154a88b71a7f4347658b0f7	277378821	1	main_z	11	main_z	121	stimuli_distractor_trianglediamonds.svg	stimuli_target_circletriangles.svg	9	yes	44	1	575
6.6.1	win	2022-12-14	20:00:45	20:17:32	1005895	6154a88b71a7f4347658b0f7	277378821	1	main_z	11	advance_on_keypress_ZEE	122	stimuli_distractor_trianglediamonds.svg	stimuli_target_circletriangles.svg	9	yes	57	0	335
6.6.1	win	2022-12-14	20:00:45	20:17:34	1007358	6154a88b71a7f4347658b0f7	277378821	1	main_z	11	main_z	123	stimuli_distractor_trianglediamonds.svg	stimuli_target_diamondcircles.svg	27	yes	44	1	486
6.6.1	win	2022-12-14	20:00:45	20:17:34	1007358	6154a88b71a7f4347658b0f7	277378821	1	main_z	11	advance_on_keypress_ZEE	124	stimuli_distractor_trianglediamonds.svg	stimuli_target_diamondcircles.svg	27	yes	57	0	3869
6.6.1	win	2022-12-14	20:00:45	20:17:40	1013871	6154a88b71a7f4347658b0f7	277378821	1	main_z	11	main_z	125	stimuli_distractor_diamondtriangles.svg	stimuli_distractor_diamondtriangles.svg	40	no	0	1	2000
6.6.1	win	2022-12-14	20:00:45	20:17:40	1013871	6154a88b71a7f4347658b0f7	277378821	1	main_z	11	advance_on_keypress_ZEE	126	stimuli_distractor_diamondtriangles.svg	stimuli_distractor_diamondtriangles.svg	40	no	57	0	270
6.6.1	win	2022-12-14	20:00:45	20:17:43	1016787	6154a88b71a7f4347658b0f7	277378821	1	main_z	11	main_z	127	stimuli_distractor_diamondtriangles.svg	stimuli_distractor_trianglediamonds.svg	37	no	0	1	2000
6.6.1	win	2022-12-14	20:00:45	20:17:43	1016787	6154a88b71a7f4347658b0f7	277378821	1	main_z	11	advance_on_keypress_ZEE	128	stimuli_distractor_diamondtriangles.svg	stimuli_distractor_trianglediamonds.svg	37	no	57	0	294
6.6.1	win	2022-12-14	20:00:45	20:17:46	1019721	6154a88b71a7f4347658b0f7	277378821	1	main_z	11	main_z	129	stimuli_distractor_trianglediamonds.svg	stimuli_distractor_trianglediamonds.svg	33	no	0	1	2000
6.6.1	win	2022-12-14	20:00:45	20:17:46	1019721	6154a88b71a7f4347658b0f7	277378821	1	main_z	11	advance_on_keypress_ZEE	130	stimuli_distractor_trianglediamonds.svg	stimuli_distractor_trianglediamonds.svg	33	no	57	0	349
6.6.1	win	2022-12-14	20:00:45	20:17:47	1021146	6154a88b71a7f4347658b0f7	277378821	1	main_z	11	main_z	131	stimuli_distractor_trianglediamonds.svg	stimuli_target_circlediamonds.svg	10	yes	44	1	426
6.6.1	win	2022-12-14	20:00:45	20:17:47	1021146	6154a88b71a7f4347658b0f7	277378821	1	main_z	11	advance_on_keypress_ZEE	132	stimuli_distractor_trianglediamonds.svg	stimuli_target_circlediamonds.svg	10	yes	57	0	1282
6.6.1	win	2022-12-14	20:00:45	20:17:50	1023551	6154a88b71a7f4347658b0f7	277378821	1	main_z	11	main_z	133	stimuli_distractor_trianglediamonds.svg	stimuli_target_trianglesquares.svg	26	yes	44	1	480
6.6.1	win	2022-12-14	20:00:45	20:17:50	1023551	6154a88b71a7f4347658b0f7	277378821	1	main_z	11	advance_on_keypress_ZEE	134	stimuli_distractor_trianglediamonds.svg	stimuli_target_trianglesquares.svg	26	yes	57	0	289
6.6.1	win	2022-12-14	20:00:45	20:17:51	1024838	6154a88b71a7f4347658b0f7	277378821	1	main_z	11	main_z	135	stimuli_target_trianglecircles.svg	stimuli_distractor_diamondtriangles.svg	21	yes	44	1	351
6.6.1	win	2022-12-14	20:00:45	20:17:51	1024838	6154a88b71a7f4347658b0f7	277378821	1	main_z	11	advance_on_keypress_ZEE	136	stimuli_target_trianglecircles.svg	stimuli_distractor_diamondtriangles.svg	21	yes	57	0	236
6.6.1	win	2022-12-14	20:00:45	20:17:52	1026103	6154a88b71a7f4347658b0f7	277378821	1	main_z	11	main_z	137	stimuli_target_diamondcircles.svg	stimuli_distractor_diamondtriangles.svg	23	yes	44	1	371
6.6.1	win	2022-12-14	20:00:45	20:17:52	1026103	6154a88b71a7f4347658b0f7	277378821	1	main_z	11	advance_on_keypress_ZEE	138	stimuli_target_diamondcircles.svg	stimuli_distractor_diamondtriangles.svg	23	yes	57	0	162
6.6.1	win	2022-12-14	20:00:45	20:17:55	1028920	6154a88b71a7f4347658b0f7	277378821	1	main_z	11	main_z	139	stimuli_target_trianglesquares.svg	stimuli_distractor_trianglediamonds.svg	18	yes	0	0	2000
6.6.1	win	2022-12-14	20:00:45	20:17:55	1028920	6154a88b71a7f4347658b0f7	277378821	1	main_z	11	advance_on_keypress_ZEE	140	stimuli_target_trianglesquares.svg	stimuli_distractor_trianglediamonds.svg	18	yes	57	0	419
6.6.1	win	2022-12-14	20:00:45	20:17:58	1031986	6154a88b71a7f4347658b0f7	277378821	1	main_z	11	main_z	141	stimuli_distractor_trianglediamonds.svg	stimuli_distractor_diamondtriangles.svg	35	no	0	1	2000
6.6.1	win	2022-12-14	20:00:45	20:17:58	1031986	6154a88b71a7f4347658b0f7	277378821	1	main_z	11	advance_on_keypress_ZEE	142	stimuli_distractor_trianglediamonds.svg	stimuli_distractor_diamondtriangles.svg	35	no	57	0	417
6.6.1	win	2022-12-14	20:00:45	20:18:00	1033539	6154a88b71a7f4347658b0f7	277378821	1	main_z	11	main_z	143	stimuli_distractor_diamondtriangles.svg	stimuli_target_circletriangles.svg	13	yes	44	1	486
6.6.1	win	2022-12-14	20:00:45	20:18:00	1033539	6154a88b71a7f4347658b0f7	277378821	1	main_z	11	advance_on_keypress_ZEE	144	stimuli_distractor_diamondtriangles.svg	stimuli_target_circletriangles.svg	13	yes	57	0	1992
6.6.1	win	2022-12-14	20:00:45	20:18:03	1036639	6154a88b71a7f4347658b0f7	277378821	1	main_z	11	main_z	145	stimuli_distractor_trianglediamonds.svg	stimuli_target_squaretriangles.svg	11	yes	44	1	470
6.6.1	win	2022-12-14	20:00:45	20:18:03	1036639	6154a88b71a7f4347658b0f7	277378821	1	main_z	11	advance_on_keypress_ZEE	146	stimuli_distractor_trianglediamonds.svg	stimuli_target_squaretriangles.svg	11	yes	57	0	311
6.6.1	win	2022-12-14	20:00:45	20:18:04	1038039	6154a88b71a7f4347658b0f7	277378821	1	main_z	11	main_z	147	stimuli_target_circlediamonds.svg	stimuli_distractor_trianglediamonds.svg	2	yes	44	1	453
6.6.1	win	2022-12-14	20:00:45	20:18:04	1038039	6154a88b71a7f4347658b0f7	277378821	1	main_z	11	advance_on_keypress_ZEE	148	stimuli_target_circlediamonds.svg	stimuli_distractor_trianglediamonds.svg	2	yes	57	0	757
6.6.1	win	2022-12-14	20:00:45	20:18:06	1039721	6154a88b71a7f4347658b0f7	277378821	1	main_z	11	main_z	149	stimuli_distractor_diamondtriangles.svg	stimuli_distractor_trianglediamonds.svg	38	no	44	0	285
6.6.1	win	2022-12-14	20:00:45	20:18:06	1039721	6154a88b71a7f4347658b0f7	277378821	1	main_z	11	advance_on_keypress_ZEE	150	stimuli_distractor_diamondtriangles.svg	stimuli_distractor_trianglediamonds.svg	38	no	57	0	419
6.6.1	win	2022-12-14	20:00:45	20:18:08	1041252	6154a88b71a7f4347658b0f7	277378821	1	main_z	11	main_z	151	stimuli_target_circletriangles.svg	stimuli_distractor_diamondtriangles.svg	5	yes	44	1	467
6.6.1	win	2022-12-14	20:00:45	20:18:08	1041252	6154a88b71a7f4347658b0f7	277378821	1	main_z	11	advance_on_keypress_ZEE	152	stimuli_target_circletriangles.svg	stimuli_distractor_diamondtriangles.svg	5	yes	57	0	349
6.6.1	win	2022-12-14	20:00:45	20:18:11	1044252	6154a88b71a7f4347658b0f7	277378821	1	main_z	11	main_z	153	stimuli_distractor_trianglediamonds.svg	stimuli_target_diamondsquares.svg	28	yes	0	0	2000
6.6.1	win	2022-12-14	20:00:45	20:18:11	1044252	6154a88b71a7f4347658b0f7	277378821	1	main_z	11	advance_on_keypress_ZEE	154	stimuli_distractor_trianglediamonds.svg	stimuli_target_diamondsquares.svg	28	yes	57	0	4038
6.6.1	win	2022-12-14	20:00:45	20:18:16	1049201	6154a88b71a7f4347658b0f7	277378821	1	main_z	11	main_z	155	stimuli_distractor_diamondtriangles.svg	stimuli_target_diamondcircles.svg	31	yes	44	1	265
6.6.1	win	2022-12-14	20:00:45	20:18:16	1049201	6154a88b71a7f4347658b0f7	277378821	1	main_z	11	advance_on_keypress_ZEE	156	stimuli_distractor_diamondtriangles.svg	stimuli_target_diamondcircles.svg	31	yes	57	0	964
6.6.1	win	2022-12-14	20:00:45	20:18:18	1051272	6154a88b71a7f4347658b0f7	277378821	1	main_z	11	main_z	157	stimuli_distractor_trianglediamonds.svg	stimuli_target_squarediamonds.svg	12	yes	44	1	453
6.6.1	win	2022-12-14	20:00:45	20:18:18	1051272	6154a88b71a7f4347658b0f7	277378821	1	main_z	11	advance_on_keypress_ZEE	158	stimuli_distractor_trianglediamonds.svg	stimuli_target_squarediamonds.svg	12	yes	57	0	360
6.6.1	win	2022-12-14	20:00:45	20:18:19	1052655	6154a88b71a7f4347658b0f7	277378821	1	main_z	11	main_z	159	stimuli_target_squarediamonds.svg	stimuli_distractor_trianglediamonds.svg	4	yes	44	1	388
6.6.1	win	2022-12-14	20:00:45	20:18:19	1052655	6154a88b71a7f4347658b0f7	277378821	1	main_z	11	advance_on_keypress_ZEE	160	stimuli_target_squarediamonds.svg	stimuli_distractor_trianglediamonds.svg	4	yes	57	0	319