build	computer.platform	date	time	timestamp	time_elapsed_ms	subject	group	session	blockcode	blocknum	trialcode	trialnum	stimulus_left	stimulus_right	stim_index	target_present	response	correct	latency
6.6.1	win	2022-12-14	12:59:19	13:02:42	200903	5d63867550d0dd0017805976	833300159	1	practice_slash	5	practice_slash	1	stimuli_distractor_diamondtriangles.svg	stimuli_distractor_trianglediamonds.svg	14	no	0	1	2000
6.6.1	win	2022-12-14	12:59:19	13:02:42	200903	5d63867550d0dd0017805976	833300159	1	practice_slash	5	advance_on_keypress_SLASH	2	stimuli_distractor_diamondtriangles.svg	stimuli_distractor_trianglediamonds.svg	14	no	57	0	2703
6.6.1	win	2022-12-14	12:59:19	13:02:48	207260	5d63867550d0dd0017805976	833300159	1	practice_slash	5	practice_slash	3	stimuli_distractor_trianglediamonds.svg	stimuli_distractor_diamondtriangles.svg	16	no	0	1	2000
6.6.1	win	2022-12-14	12:59:19	13:02:48	207260	5d63867550d0dd0017805976	833300159	1	practice_slash	5	advance_on_keypress_SLASH	4	stimuli_distractor_trianglediamonds.svg	stimuli_distractor_diamondtriangles.svg	16	no	57	0	793
6.6.1	win	2022-12-14	12:59:19	13:02:51	210516	5d63867550d0dd0017805976	833300159	1	practice_slash	5	practice_slash	5	stimuli_distractor_trianglediamonds.svg	stimuli_target_squarediamonds.svg	11	yes	53	1	802
6.6.1	win	2022-12-14	12:59:19	13:02:51	210516	5d63867550d0dd0017805976	833300159	1	practice_slash	5	advance_on_keypress_SLASH	6	stimuli_distractor_trianglediamonds.svg	stimuli_target_squarediamonds.svg	11	yes	57	0	1953
6.6.1	win	2022-12-14	12:59:19	13:02:56	215140	5d63867550d0dd0017805976	833300159	1	practice_slash	5	practice_slash	7	stimuli_distractor_trianglediamonds.svg	stimuli_target_diamondcircles.svg	12	yes	53	1	1020
6.6.1	win	2022-12-14	12:59:19	13:02:56	215140	5d63867550d0dd0017805976	833300159	1	practice_slash	5	advance_on_keypress_SLASH	8	stimuli_distractor_trianglediamonds.svg	stimuli_target_diamondcircles.svg	12	yes	57	0	3213
6.6.1	win	2022-12-14	12:59:19	13:03:03	222009	5d63867550d0dd0017805976	833300159	1	practice_slash	5	practice_slash	9	stimuli_distractor_trianglediamonds.svg	stimuli_distractor_trianglediamonds.svg	15	no	0	1	2000
6.6.1	win	2022-12-14	12:59:19	13:03:03	222009	5d63867550d0dd0017805976	833300159	1	practice_slash	5	advance_on_keypress_SLASH	10	stimuli_distractor_trianglediamonds.svg	stimuli_distractor_trianglediamonds.svg	15	no	57	0	845
6.6.1	win	2022-12-14	12:59:19	13:03:06	225297	5d63867550d0dd0017805976	833300159	1	practice_slash	5	practice_slash	11	stimuli_target_squarediamonds.svg	stimuli_distractor_trianglediamonds.svg	5	yes	53	1	781
6.6.1	win	2022-12-14	12:59:19	13:03:06	225297	5d63867550d0dd0017805976	833300159	1	practice_slash	5	advance_on_keypress_SLASH	12	stimuli_target_squarediamonds.svg	stimuli_distractor_trianglediamonds.svg	5	yes	57	0	631
6.6.1	win	2022-12-14	12:59:19	13:03:09	228290	5d63867550d0dd0017805976	833300159	1	practice_slash	5	practice_slash	13	stimuli_distractor_diamondtriangles.svg	stimuli_target_trianglecircles.svg	9	yes	53	1	705
6.6.1	win	2022-12-14	12:59:19	13:03:09	228290	5d63867550d0dd0017805976	833300159	1	practice_slash	5	advance_on_keypress_SLASH	14	stimuli_distractor_diamondtriangles.svg	stimuli_target_trianglecircles.svg	9	yes	57	0	959
6.6.1	win	2022-12-14	12:59:19	13:03:12	231607	5d63867550d0dd0017805976	833300159	1	practice_slash	5	practice_slash	15	stimuli_target_squarediamonds.svg	stimuli_distractor_diamondtriangles.svg	2	yes	53	1	702
6.6.1	win	2022-12-14	12:59:19	13:03:12	231607	5d63867550d0dd0017805976	833300159	1	practice_slash	5	advance_on_keypress_SLASH	16	stimuli_target_squarediamonds.svg	stimuli_distractor_diamondtriangles.svg	2	yes	57	0	1774
6.6.1	win	2022-12-14	12:59:19	13:03:18	237043	5d63867550d0dd0017805976	833300159	1	practice_slash	5	practice_slash	17	stimuli_target_diamondsquares.svg	stimuli_distractor_diamondtriangles.svg	3	yes	0	0	2000
6.6.1	win	2022-12-14	12:59:19	13:03:18	237043	5d63867550d0dd0017805976	833300159	1	practice_slash	5	advance_on_keypress_SLASH	18	stimuli_target_diamondsquares.svg	stimuli_distractor_diamondtriangles.svg	3	yes	57	0	1430
6.6.1	win	2022-12-14	12:59:19	13:03:22	240920	5d63867550d0dd0017805976	833300159	1	practice_slash	5	practice_slash	19	stimuli_target_circlediamonds.svg	stimuli_distractor_trianglediamonds.svg	4	yes	53	1	787
6.6.1	win	2022-12-14	12:59:19	13:03:22	240920	5d63867550d0dd0017805976	833300159	1	practice_slash	5	advance_on_keypress_SLASH	20	stimuli_target_circlediamonds.svg	stimuli_distractor_trianglediamonds.svg	4	yes	57	0	809
6.6.1	win	2022-12-14	12:59:19	13:03:25	244146	5d63867550d0dd0017805976	833300159	1	practice_slash	5	practice_slash	21	stimuli_distractor_diamondtriangles.svg	stimuli_target_circletriangles.svg	7	yes	53	1	759
6.6.1	win	2022-12-14	12:59:19	13:03:25	244146	5d63867550d0dd0017805976	833300159	1	practice_slash	5	advance_on_keypress_SLASH	22	stimuli_distractor_diamondtriangles.svg	stimuli_target_circletriangles.svg	7	yes	57	0	1103
6.6.1	win	2022-12-14	12:59:19	13:03:28	247691	5d63867550d0dd0017805976	833300159	1	practice_slash	5	practice_slash	23	stimuli_target_circlediamonds.svg	stimuli_distractor_diamondtriangles.svg	1	yes	53	1	785
6.6.1	win	2022-12-14	12:59:19	13:03:28	247691	5d63867550d0dd0017805976	833300159	1	practice_slash	5	advance_on_keypress_SLASH	24	stimuli_target_circlediamonds.svg	stimuli_distractor_diamondtriangles.svg	1	yes	57	0	801
6.6.1	win	2022-12-14	12:59:19	13:03:31	250827	5d63867550d0dd0017805976	833300159	1	practice_slash	5	practice_slash	25	stimuli_distractor_trianglediamonds.svg	stimuli_target_circlediamonds.svg	10	yes	53	1	684
6.6.1	win	2022-12-14	12:59:19	13:03:31	250827	5d63867550d0dd0017805976	833300159	1	practice_slash	5	advance_on_keypress_SLASH	26	stimuli_distractor_trianglediamonds.svg	stimuli_target_circlediamonds.svg	10	yes	57	0	1405
6.6.1	win	2022-12-14	12:59:19	13:03:35	254596	5d63867550d0dd0017805976	833300159	1	practice_slash	5	practice_slash	27	stimuli_distractor_diamondtriangles.svg	stimuli_target_diamondcircles.svg	8	yes	53	1	716
6.6.1	win	2022-12-14	12:59:19	13:03:35	254596	5d63867550d0dd0017805976	833300159	1	practice_slash	5	advance_on_keypress_SLASH	28	stimuli_distractor_diamondtriangles.svg	stimuli_target_diamondcircles.svg	8	yes	57	0	664
6.6.1	win	2022-12-14	12:59:19	13:03:39	258148	5d63867550d0dd0017805976	833300159	1	practice_slash	5	practice_slash	29	stimuli_distractor_diamondtriangles.svg	stimuli_distractor_diamondtriangles.svg	13	no	53	0	1231
6.6.1	win	2022-12-14	12:59:19	13:03:39	258148	5d63867550d0dd0017805976	833300159	1	practice_slash	5	advance_on_keypress_SLASH	30	stimuli_distractor_diamondtriangles.svg	stimuli_distractor_diamondtriangles.svg	13	no	57	0	554
6.6.1	win	2022-12-14	12:59:19	13:03:42	261361	5d63867550d0dd0017805976	833300159	1	practice_slash	5	practice_slash	31	stimuli_target_diamondsquares.svg	stimuli_distractor_trianglediamonds.svg	6	yes	53	1	1007
6.6.1	win	2022-12-14	12:59:19	13:03:42	261361	5d63867550d0dd0017805976	833300159	1	practice_slash	5	advance_on_keypress_SLASH	32	stimuli_target_diamondsquares.svg	stimuli_distractor_trianglediamonds.svg	6	yes	57	0	775
6.6.1	win	2022-12-14	12:59:19	13:03:53	272128	5d63867550d0dd0017805976	833300159	1	main_slash	7	main_slash	1	stimuli_target_circlediamonds.svg	stimuli_distractor_trianglediamonds.svg	2	yes	53	1	598
6.6.1	win	2022-12-14	12:59:19	13:03:53	272128	5d63867550d0dd0017805976	833300159	1	main_slash	7	advance_on_keypress_SLASH	2	stimuli_target_circlediamonds.svg	stimuli_distractor_trianglediamonds.svg	2	yes	57	0	1148
6.6.1	win	2022-12-14	12:59:19	13:03:55	274589	5d63867550d0dd0017805976	833300159	1	main_slash	7	main_slash	3	stimuli_target_circlediamonds.svg	stimuli_distractor_diamondtriangles.svg	6	yes	53	1	655
6.6.1	win	2022-12-14	12:59:19	13:03:55	274589	5d63867550d0dd0017805976	833300159	1	main_slash	7	advance_on_keypress_SLASH	4	stimuli_target_circlediamonds.svg	stimuli_distractor_diamondtriangles.svg	6	yes	57	0	1283
6.6.1	win	2022-12-14	12:59:19	13:03:58	277248	5d63867550d0dd0017805976	833300159	1	main_slash	7	main_slash	5	stimuli_distractor_trianglediamonds.svg	stimuli_target_squarediamonds.svg	12	yes	53	1	729
6.6.1	win	2022-12-14	12:59:19	13:03:58	277248	5d63867550d0dd0017805976	833300159	1	main_slash	7	advance_on_keypress_SLASH	6	stimuli_distractor_trianglediamonds.svg	stimuli_target_squarediamonds.svg	12	yes	57	0	916
6.6.1	win	2022-12-14	12:59:19	13:04:01	280821	5d63867550d0dd0017805976	833300159	1	main_slash	7	main_slash	7	stimuli_distractor_trianglediamonds.svg	stimuli_distractor_diamondtriangles.svg	36	no	0	1	2000
6.6.1	win	2022-12-14	12:59:19	13:04:01	280821	5d63867550d0dd0017805976	833300159	1	main_slash	7	advance_on_keypress_SLASH	8	stimuli_distractor_trianglediamonds.svg	stimuli_distractor_diamondtriangles.svg	36	no	57	0	721
6.6.1	win	2022-12-14	12:59:19	13:04:03	282821	5d63867550d0dd0017805976	833300159	1	main_slash	7	main_slash	9	stimuli_distractor_trianglediamonds.svg	stimuli_target_diamondcircles.svg	27	yes	53	1	629
6.6.1	win	2022-12-14	12:59:19	13:04:03	282821	5d63867550d0dd0017805976	833300159	1	main_slash	7	advance_on_keypress_SLASH	10	stimuli_distractor_trianglediamonds.svg	stimuli_target_diamondcircles.svg	27	yes	57	0	842
6.6.1	win	2022-12-14	12:59:19	13:04:07	286311	5d63867550d0dd0017805976	833300159	1	main_slash	7	main_slash	11	stimuli_distractor_diamondtriangles.svg	stimuli_distractor_trianglediamonds.svg	37	no	0	1	2000
6.6.1	win	2022-12-14	12:59:19	13:04:07	286311	5d63867550d0dd0017805976	833300159	1	main_slash	7	advance_on_keypress_SLASH	12	stimuli_distractor_diamondtriangles.svg	stimuli_distractor_trianglediamonds.svg	37	no	57	0	583
6.6.1	win	2022-12-14	12:59:19	13:04:09	288385	5d63867550d0dd0017805976	833300159	1	main_slash	7	main_slash	13	stimuli_target_diamondcircles.svg	stimuli_distractor_trianglediamonds.svg	19	yes	53	1	837
6.6.1	win	2022-12-14	12:59:19	13:04:09	288385	5d63867550d0dd0017805976	833300159	1	main_slash	7	advance_on_keypress_SLASH	14	stimuli_target_diamondcircles.svg	stimuli_distractor_trianglediamonds.svg	19	yes	57	0	771
6.6.1	win	2022-12-14	12:59:19	13:04:11	290813	5d63867550d0dd0017805976	833300159	1	main_slash	7	main_slash	15	stimuli_distractor_diamondtriangles.svg	stimuli_target_circletriangles.svg	13	yes	53	1	1013
6.6.1	win	2022-12-14	12:59:19	13:04:11	290813	5d63867550d0dd0017805976	833300159	1	main_slash	7	advance_on_keypress_SLASH	16	stimuli_distractor_diamondtriangles.svg	stimuli_target_circletriangles.svg	13	yes	57	0	1691
6.6.1	win	2022-12-14	12:59:19	13:04:15	293914	5d63867550d0dd0017805976	833300159	1	main_slash	7	main_slash	17	stimuli_distractor_trianglediamonds.svg	stimuli_target_squaretriangles.svg	11	yes	53	1	743
6.6.1	win	2022-12-14	12:59:19	13:04:15	293914	5d63867550d0dd0017805976	833300159	1	main_slash	7	advance_on_keypress_SLASH	18	stimuli_distractor_trianglediamonds.svg	stimuli_target_squaretriangles.svg	11	yes	57	0	767
6.6.1	win	2022-12-14	12:59:19	13:04:17	296270	5d63867550d0dd0017805976	833300159	1	main_slash	7	main_slash	19	stimuli_distractor_trianglediamonds.svg	stimuli_target_circletriangles.svg	9	yes	53	1	947
6.6.1	win	2022-12-14	12:59:19	13:04:17	296270	5d63867550d0dd0017805976	833300159	1	main_slash	7	advance_on_keypress_SLASH	20	stimuli_distractor_trianglediamonds.svg	stimuli_target_circletriangles.svg	9	yes	57	0	701
6.6.1	win	2022-12-14	12:59:19	13:04:19	298519	5d63867550d0dd0017805976	833300159	1	main_slash	7	main_slash	21	stimuli_target_trianglecircles.svg	stimuli_distractor_trianglediamonds.svg	17	yes	53	1	893
6.6.1	win	2022-12-14	12:59:19	13:04:19	298519	5d63867550d0dd0017805976	833300159	1	main_slash	7	advance_on_keypress_SLASH	22	stimuli_target_trianglecircles.svg	stimuli_distractor_trianglediamonds.svg	17	yes	57	0	923
6.6.1	win	2022-12-14	12:59:19	13:04:22	300937	5d63867550d0dd0017805976	833300159	1	main_slash	7	main_slash	23	stimuli_target_squarediamonds.svg	stimuli_distractor_diamondtriangles.svg	8	yes	53	1	859
6.6.1	win	2022-12-14	12:59:19	13:04:22	300937	5d63867550d0dd0017805976	833300159	1	main_slash	7	advance_on_keypress_SLASH	24	stimuli_target_squarediamonds.svg	stimuli_distractor_diamondtriangles.svg	8	yes	57	0	699
6.6.1	win	2022-12-14	12:59:19	13:04:24	303161	5d63867550d0dd0017805976	833300159	1	main_slash	7	main_slash	25	stimuli_target_circletriangles.svg	stimuli_distractor_trianglediamonds.svg	1	yes	53	1	880
6.6.1	win	2022-12-14	12:59:19	13:04:24	303161	5d63867550d0dd0017805976	833300159	1	main_slash	7	advance_on_keypress_SLASH	26	stimuli_target_circletriangles.svg	stimuli_distractor_trianglediamonds.svg	1	yes	57	0	835
6.6.1	win	2022-12-14	12:59:19	13:04:27	306129	5d63867550d0dd0017805976	833300159	1	main_slash	7	main_slash	27	stimuli_target_trianglesquares.svg	stimuli_distractor_diamondtriangles.svg	22	yes	53	1	1479
6.6.1	win	2022-12-14	12:59:19	13:04:27	306129	5d63867550d0dd0017805976	833300159	1	main_slash	7	advance_on_keypress_SLASH	28	stimuli_target_trianglesquares.svg	stimuli_distractor_diamondtriangles.svg	22	yes	57	0	655
6.6.1	win	2022-12-14	12:59:19	13:04:29	308354	5d63867550d0dd0017805976	833300159	1	main_slash	7	main_slash	29	stimuli_distractor_diamondtriangles.svg	stimuli_target_trianglecircles.svg	29	yes	53	1	918
6.6.1	win	2022-12-14	12:59:19	13:04:29	308354	5d63867550d0dd0017805976	833300159	1	main_slash	7	advance_on_keypress_SLASH	30	stimuli_distractor_diamondtriangles.svg	stimuli_target_trianglecircles.svg	29	yes	57	0	720
6.6.1	win	2022-12-14	12:59:19	13:04:31	310678	5d63867550d0dd0017805976	833300159	1	main_slash	7	main_slash	31	stimuli_distractor_trianglediamonds.svg	stimuli_target_trianglecircles.svg	25	yes	53	1	956
6.6.1	win	2022-12-14	12:59:19	13:04:31	310678	5d63867550d0dd0017805976	833300159	1	main_slash	7	advance_on_keypress_SLASH	32	stimuli_distractor_trianglediamonds.svg	stimuli_target_trianglecircles.svg	25	yes	57	0	620
6.6.1	win	2022-12-14	12:59:19	13:04:34	312943	5d63867550d0dd0017805976	833300159	1	main_slash	7	main_slash	33	stimuli_distractor_diamondtriangles.svg	stimuli_target_squarediamonds.svg	16	yes	53	1	1002
6.6.1	win	2022-12-14	12:59:19	13:04:34	312943	5d63867550d0dd0017805976	833300159	1	main_slash	7	advance_on_keypress_SLASH	34	stimuli_distractor_diamondtriangles.svg	stimuli_target_squarediamonds.svg	16	yes	57	0	739
6.6.1	win	2022-12-14	12:59:19	13:04:37	316328	5d63867550d0dd0017805976	833300159	1	main_slash	7	main_slash	35	stimuli_distractor_diamondtriangles.svg	stimuli_distractor_trianglediamonds.svg	38	no	0	1	2000
6.6.1	win	2022-12-14	12:59:19	13:04:37	316328	5d63867550d0dd0017805976	833300159	1	main_slash	7	advance_on_keypress_SLASH	36	stimuli_distractor_diamondtriangles.svg	stimuli_distractor_trianglediamonds.svg	38	no	57	0	583
6.6.1	win	2022-12-14	12:59:19	13:04:40	319564	5d63867550d0dd0017805976	833300159	1	main_slash	7	main_slash	37	stimuli_distractor_trianglediamonds.svg	stimuli_distractor_trianglediamonds.svg	34	no	0	1	2000
6.6.1	win	2022-12-14	12:59:19	13:04:40	319564	5d63867550d0dd0017805976	833300159	1	main_slash	7	advance_on_keypress_SLASH	38	stimuli_distractor_trianglediamonds.svg	stimuli_distractor_trianglediamonds.svg	34	no	57	0	2320
6.6.1	win	2022-12-14	12:59:19	13:04:45	324537	5d63867550d0dd0017805976	833300159	1	main_slash	7	main_slash	39	stimuli_distractor_diamondtriangles.svg	stimuli_distractor_diamondtriangles.svg	40	no	0	1	2000
6.6.1	win	2022-12-14	12:59:19	13:04:45	324537	5d63867550d0dd0017805976	833300159	1	main_slash	7	advance_on_keypress_SLASH	40	stimuli_distractor_diamondtriangles.svg	stimuli_distractor_diamondtriangles.svg	40	no	57	0	2195
6.6.1	win	2022-12-14	12:59:19	13:04:49	328026	5d63867550d0dd0017805976	833300159	1	main_slash	7	main_slash	41	stimuli_distractor_diamondtriangles.svg	stimuli_target_diamondcircles.svg	31	yes	53	1	634
6.6.1	win	2022-12-14	12:59:19	13:04:49	328026	5d63867550d0dd0017805976	833300159	1	main_slash	7	advance_on_keypress_SLASH	42	stimuli_distractor_diamondtriangles.svg	stimuli_target_diamondcircles.svg	31	yes	57	0	911
6.6.1	win	2022-12-14	12:59:19	13:04:51	330262	5d63867550d0dd0017805976	833300159	1	main_slash	7	main_slash	43	stimuli_distractor_diamondtriangles.svg	stimuli_target_circlediamonds.svg	14	yes	53	1	668
6.6.1	win	2022-12-14	12:59:19	13:04:51	330262	5d63867550d0dd0017805976	833300159	1	main_slash	7	advance_on_keypress_SLASH	44	stimuli_distractor_diamondtriangles.svg	stimuli_target_circlediamonds.svg	14	yes	57	0	623
6.6.1	win	2022-12-14	12:59:19	13:04:53	332261	5d63867550d0dd0017805976	833300159	1	main_slash	7	main_slash	45	stimuli_distractor_diamondtriangles.svg	stimuli_target_squaretriangles.svg	15	yes	53	1	731
6.6.1	win	2022-12-14	12:59:19	13:04:53	332261	5d63867550d0dd0017805976	833300159	1	main_slash	7	advance_on_keypress_SLASH	46	stimuli_distractor_diamondtriangles.svg	stimuli_target_squaretriangles.svg	15	yes	57	0	785
6.6.1	win	2022-12-14	12:59:19	13:04:55	334561	5d63867550d0dd0017805976	833300159	1	main_slash	7	main_slash	47	stimuli_target_diamondcircles.svg	stimuli_distractor_diamondtriangles.svg	23	yes	53	1	862
6.6.1	win	2022-12-14	12:59:19	13:04:55	334561	5d63867550d0dd0017805976	833300159	1	main_slash	7	advance_on_keypress_SLASH	48	stimuli_target_diamondcircles.svg	stimuli_distractor_diamondtriangles.svg	23	yes	57	0	1227
6.6.1	win	2022-12-14	12:59:19	13:04:58	337272	5d63867550d0dd0017805976	833300159	1	main_slash	7	main_slash	49	stimuli_target_trianglesquares.svg	stimuli_distractor_trianglediamonds.svg	18	yes	53	1	837
6.6.1	win	2022-12-14	12:59:19	13:04:58	337272	5d63867550d0dd0017805976	833300159	1	main_slash	7	advance_on_keypress_SLASH	50	stimuli_target_trianglesquares.svg	stimuli_distractor_trianglediamonds.svg	18	yes	57	0	755
6.6.1	win	2022-12-14	12:59:19	13:05:01	340671	5d63867550d0dd0017805976	833300159	1	main_slash	7	main_slash	51	stimuli_distractor_diamondtriangles.svg	stimuli_distractor_diamondtriangles.svg	39	no	0	1	2000
6.6.1	win	2022-12-14	12:59:19	13:05:01	340671	5d63867550d0dd0017805976	833300159	1	main_slash	7	advance_on_keypress_SLASH	52	stimuli_distractor_diamondtriangles.svg	stimuli_distractor_diamondtriangles.svg	39	no	57	0	1708
6.6.1	win	2022-12-14	12:59:19	13:05:04	343757	5d63867550d0dd0017805976	833300159	1	main_slash	7	main_slash	53	stimuli_target_trianglecircles.svg	stimuli_distractor_diamondtriangles.svg	21	yes	53	1	731
6.6.1	win	2022-12-14	12:59:19	13:05:04	343757	5d63867550d0dd0017805976	833300159	1	main_slash	7	advance_on_keypress_SLASH	54	stimuli_target_trianglecircles.svg	stimuli_distractor_diamondtriangles.svg	21	yes	57	0	1714
6.6.1	win	2022-12-14	12:59:19	13:05:08	347167	5d63867550d0dd0017805976	833300159	1	main_slash	7	main_slash	55	stimuli_distractor_diamondtriangles.svg	stimuli_target_trianglesquares.svg	30	yes	53	1	1038
6.6.1	win	2022-12-14	12:59:19	13:05:08	347167	5d63867550d0dd0017805976	833300159	1	main_slash	7	advance_on_keypress_SLASH	56	stimuli_distractor_diamondtriangles.svg	stimuli_target_trianglesquares.svg	30	yes	57	0	1218
6.6.1	win	2022-12-14	12:59:19	13:05:11	350668	5d63867550d0dd0017805976	833300159	1	main_slash	7	main_slash	57	stimuli_distractor_trianglediamonds.svg	stimuli_target_trianglesquares.svg	26	yes	53	1	1636
6.6.1	win	2022-12-14	12:59:19	13:05:11	350668	5d63867550d0dd0017805976	833300159	1	main_slash	7	advance_on_keypress_SLASH	58	stimuli_distractor_trianglediamonds.svg	stimuli_target_trianglesquares.svg	26	yes	57	0	569
6.6.1	win	2022-12-14	12:59:19	13:05:13	352856	5d63867550d0dd0017805976	833300159	1	main_slash	7	main_slash	59	stimuli_target_squaretriangles.svg	stimuli_distractor_trianglediamonds.svg	3	yes	53	1	970
6.6.1	win	2022-12-14	12:59:19	13:05:13	352856	5d63867550d0dd0017805976	833300159	1	main_slash	7	advance_on_keypress_SLASH	60	stimuli_target_squaretriangles.svg	stimuli_distractor_trianglediamonds.svg	3	yes	57	0	1494
6.6.1	win	2022-12-14	12:59:19	13:05:17	355941	5d63867550d0dd0017805976	833300159	1	main_slash	7	main_slash	61	stimuli_target_squaretriangles.svg	stimuli_distractor_diamondtriangles.svg	7	yes	53	1	952
6.6.1	win	2022-12-14	12:59:19	13:05:17	355941	5d63867550d0dd0017805976	833300159	1	main_slash	7	advance_on_keypress_SLASH	62	stimuli_target_squaretriangles.svg	stimuli_distractor_diamondtriangles.svg	7	yes	57	0	1246
6.6.1	win	2022-12-14	12:59:19	13:05:20	359842	5d63867550d0dd0017805976	833300159	1	main_slash	7	main_slash	63	stimuli_target_diamondsquares.svg	stimuli_distractor_trianglediamonds.svg	20	yes	0	0	2000
6.6.1	win	2022-12-14	12:59:19	13:05:20	359842	5d63867550d0dd0017805976	833300159	1	main_slash	7	advance_on_keypress_SLASH	64	stimuli_target_diamondsquares.svg	stimuli_distractor_trianglediamonds.svg	20	yes	57	0	795
6.6.1	win	2022-12-14	12:59:19	13:05:23	362560	5d63867550d0dd0017805976	833300159	1	main_slash	7	main_slash	65	stimuli_distractor_trianglediamonds.svg	stimuli_target_diamondsquares.svg	28	yes	53	1	1264
6.6.1	win	2022-12-14	12:59:19	13:05:23	362560	5d63867550d0dd0017805976	833300159	1	main_slash	7	advance_on_keypress_SLASH	66	stimuli_distractor_trianglediamonds.svg	stimuli_target_diamondsquares.svg	28	yes	57	0	724
6.6.1	win	2022-12-14	12:59:19	13:05:26	364907	5d63867550d0dd0017805976	833300159	1	main_slash	7	main_slash	67	stimuli_target_squarediamonds.svg	stimuli_distractor_trianglediamonds.svg	4	yes	53	1	975
6.6.1	win	2022-12-14	12:59:19	13:05:26	364907	5d63867550d0dd0017805976	833300159	1	main_slash	7	advance_on_keypress_SLASH	68	stimuli_target_squarediamonds.svg	stimuli_distractor_trianglediamonds.svg	4	yes	57	0	920
6.6.1	win	2022-12-14	12:59:19	13:05:28	367384	5d63867550d0dd0017805976	833300159	1	main_slash	7	main_slash	69	stimuli_target_diamondsquares.svg	stimuli_distractor_diamondtriangles.svg	24	yes	53	1	916
6.6.1	win	2022-12-14	12:59:19	13:05:28	367384	5d63867550d0dd0017805976	833300159	1	main_slash	7	advance_on_keypress_SLASH	70	stimuli_target_diamondsquares.svg	stimuli_distractor_diamondtriangles.svg	24	yes	57	0	575
6.6.1	win	2022-12-14	12:59:19	13:05:31	370604	5d63867550d0dd0017805976	833300159	1	main_slash	7	main_slash	71	stimuli_distractor_trianglediamonds.svg	stimuli_distractor_trianglediamonds.svg	33	no	0	1	2000
6.6.1	win	2022-12-14	12:59:19	13:05:31	370604	5d63867550d0dd0017805976	833300159	1	main_slash	7	advance_on_keypress_SLASH	72	stimuli_distractor_trianglediamonds.svg	stimuli_distractor_trianglediamonds.svg	33	no	57	0	2056
6.6.1	win	2022-12-14	12:59:19	13:05:35	374014	5d63867550d0dd0017805976	833300159	1	main_slash	7	main_slash	73	stimuli_distractor_trianglediamonds.svg	stimuli_target_circlediamonds.svg	10	yes	53	1	705
6.6.1	win	2022-12-14	12:59:19	13:05:35	374014	5d63867550d0dd0017805976	833300159	1	main_slash	7	advance_on_keypress_SLASH	74	stimuli_distractor_trianglediamonds.svg	stimuli_target_circlediamonds.svg	10	yes	57	0	1217
6.6.1	win	2022-12-14	12:59:19	13:05:38	377068	5d63867550d0dd0017805976	833300159	1	main_slash	7	main_slash	75	stimuli_distractor_diamondtriangles.svg	stimuli_target_diamondsquares.svg	32	yes	53	1	1189
6.6.1	win	2022-12-14	12:59:19	13:05:38	377068	5d63867550d0dd0017805976	833300159	1	main_slash	7	advance_on_keypress_SLASH	76	stimuli_distractor_diamondtriangles.svg	stimuli_target_diamondsquares.svg	32	yes	57	0	2563
6.6.1	win	2022-12-14	12:59:19	13:05:42	381038	5d63867550d0dd0017805976	833300159	1	main_slash	7	main_slash	77	stimuli_target_circletriangles.svg	stimuli_distractor_diamondtriangles.svg	5	yes	53	1	755
6.6.1	win	2022-12-14	12:59:19	13:05:42	381038	5d63867550d0dd0017805976	833300159	1	main_slash	7	advance_on_keypress_SLASH	78	stimuli_target_circletriangles.svg	stimuli_distractor_diamondtriangles.svg	5	yes	57	0	1201
6.6.1	win	2022-12-14	12:59:19	13:05:45	384886	5d63867550d0dd0017805976	833300159	1	main_slash	7	main_slash	79	stimuli_distractor_trianglediamonds.svg	stimuli_distractor_diamondtriangles.svg	35	no	0	1	2000
6.6.1	win	2022-12-14	12:59:19	13:05:45	384886	5d63867550d0dd0017805976	833300159	1	main_slash	7	advance_on_keypress_SLASH	80	stimuli_distractor_trianglediamonds.svg	stimuli_distractor_diamondtriangles.svg	35	no	57	0	407
6.6.1	win	2022-12-14	12:59:19	13:05:49	387940	5d63867550d0dd0017805976	833300159	1	main_slash	7	main_slash	81	stimuli_distractor_diamondtriangles.svg	stimuli_distractor_diamondtriangles.svg	39	no	0	1	2000
6.6.1	win	2022-12-14	12:59:19	13:05:49	387940	5d63867550d0dd0017805976	833300159	1	main_slash	7	advance_on_keypress_SLASH	82	stimuli_distractor_diamondtriangles.svg	stimuli_distractor_diamondtriangles.svg	39	no	57	0	378
6.6.1	win	2022-12-14	12:59:19	13:05:50	389666	5d63867550d0dd0017805976	833300159	1	main_slash	7	main_slash	83	stimuli_target_squarediamonds.svg	stimuli_distractor_diamondtriangles.svg	8	yes	53	1	690
6.6.1	win	2022-12-14	12:59:19	13:05:50	389666	5d63867550d0dd0017805976	833300159	1	main_slash	7	advance_on_keypress_SLASH	84	stimuli_target_squarediamonds.svg	stimuli_distractor_diamondtriangles.svg	8	yes	57	0	710
6.6.1	win	2022-12-14	12:59:19	13:05:53	391901	5d63867550d0dd0017805976	833300159	1	main_slash	7	main_slash	85	stimuli_distractor_diamondtriangles.svg	stimuli_target_trianglesquares.svg	30	yes	53	1	873
6.6.1	win	2022-12-14	12:59:19	13:05:53	391901	5d63867550d0dd0017805976	833300159	1	main_slash	7	advance_on_keypress_SLASH	86	stimuli_distractor_diamondtriangles.svg	stimuli_target_trianglesquares.svg	30	yes	57	0	678
6.6.1	win	2022-12-14	12:59:19	13:05:55	394114	5d63867550d0dd0017805976	833300159	1	main_slash	7	main_slash	87	stimuli_target_trianglecircles.svg	stimuli_distractor_diamondtriangles.svg	21	yes	53	1	884
6.6.1	win	2022-12-14	12:59:19	13:05:55	394114	5d63867550d0dd0017805976	833300159	1	main_slash	7	advance_on_keypress_SLASH	88	stimuli_target_trianglecircles.svg	stimuli_distractor_diamondtriangles.svg	21	yes	57	0	784
6.6.1	win	2022-12-14	12:59:19	13:05:57	396542	5d63867550d0dd0017805976	833300159	1	main_slash	7	main_slash	89	stimuli_distractor_trianglediamonds.svg	stimuli_target_trianglecircles.svg	25	yes	53	1	992
6.6.1	win	2022-12-14	12:59:19	13:05:57	396542	5d63867550d0dd0017805976	833300159	1	main_slash	7	advance_on_keypress_SLASH	90	stimuli_distractor_trianglediamonds.svg	stimuli_target_trianglecircles.svg	25	yes	57	0	792
6.6.1	win	2022-12-14	12:59:19	13:06:00	398914	5d63867550d0dd0017805976	833300159	1	main_slash	7	main_slash	91	stimuli_target_trianglecircles.svg	stimuli_distractor_trianglediamonds.svg	17	yes	53	1	944
6.6.1	win	2022-12-14	12:59:19	13:06:00	398914	5d63867550d0dd0017805976	833300159	1	main_slash	7	advance_on_keypress_SLASH	92	stimuli_target_trianglecircles.svg	stimuli_distractor_trianglediamonds.svg	17	yes	57	0	1041
6.6.1	win	2022-12-14	12:59:19	13:06:02	401547	5d63867550d0dd0017805976	833300159	1	main_slash	7	main_slash	93	stimuli_target_circlediamonds.svg	stimuli_distractor_trianglediamonds.svg	2	yes	53	1	941
6.6.1	win	2022-12-14	12:59:19	13:06:02	401547	5d63867550d0dd0017805976	833300159	1	main_slash	7	advance_on_keypress_SLASH	94	stimuli_target_circlediamonds.svg	stimuli_distractor_trianglediamonds.svg	2	yes	57	0	938
6.6.1	win	2022-12-14	12:59:19	13:06:04	403853	5d63867550d0dd0017805976	833300159	1	main_slash	7	main_slash	95	stimuli_target_trianglesquares.svg	stimuli_distractor_diamondtriangles.svg	22	yes	53	1	728
6.6.1	win	2022-12-14	12:59:19	13:06:04	403853	5d63867550d0dd0017805976	833300159	1	main_slash	7	advance_on_keypress_SLASH	96	stimuli_target_trianglesquares.svg	stimuli_distractor_diamondtriangles.svg	22	yes	57	0	900
6.6.1	win	2022-12-14	12:59:19	13:06:07	406331	5d63867550d0dd0017805976	833300159	1	main_slash	7	main_slash	97	stimuli_distractor_diamondtriangles.svg	stimuli_target_circlediamonds.svg	14	yes	53	1	921
6.6.1	win	2022-12-14	12:59:19	13:06:07	406331	5d63867550d0dd0017805976	833300159	1	main_slash	7	advance_on_keypress_SLASH	98	stimuli_distractor_diamondtriangles.svg	stimuli_target_circlediamonds.svg	14	yes	57	0	852
6.6.1	win	2022-12-14	12:59:19	13:06:10	409830	5d63867550d0dd0017805976	833300159	1	main_slash	7	main_slash	99	stimuli_distractor_diamondtriangles.svg	stimuli_distractor_trianglediamonds.svg	37	no	0	1	2000
6.6.1	win	2022-12-14	12:59:19	13:06:10	409830	5d63867550d0dd0017805976	833300159	1	main_slash	7	advance_on_keypress_SLASH	100	stimuli_distractor_diamondtriangles.svg	stimuli_distractor_trianglediamonds.svg	37	no	57	0	421
6.6.1	win	2022-12-14	12:59:19	13:06:12	411644	5d63867550d0dd0017805976	833300159	1	main_slash	7	main_slash	101	stimuli_distractor_trianglediamonds.svg	stimuli_target_squarediamonds.svg	12	yes	53	1	743
6.6.1	win	2022-12-14	12:59:19	13:06:12	411644	5d63867550d0dd0017805976	833300159	1	main_slash	7	advance_on_keypress_SLASH	102	stimuli_distractor_trianglediamonds.svg	stimuli_target_squarediamonds.svg	12	yes	57	0	831
6.6.1	win	2022-12-14	12:59:19	13:06:15	414071	5d63867550d0dd0017805976	833300159	1	main_slash	7	main_slash	103	stimuli_distractor_trianglediamonds.svg	stimuli_target_diamondcircles.svg	27	yes	53	1	951
6.6.1	win	2022-12-14	12:59:19	13:06:15	414071	5d63867550d0dd0017805976	833300159	1	main_slash	7	advance_on_keypress_SLASH	104	stimuli_distractor_trianglediamonds.svg	stimuli_target_diamondcircles.svg	27	yes	57	0	1113
6.6.1	win	2022-12-14	12:59:19	13:06:17	416838	5d63867550d0dd0017805976	833300159	1	main_slash	7	main_slash	105	stimuli_distractor_diamondtriangles.svg	stimuli_target_circletriangles.svg	13	yes	53	1	999
6.6.1	win	2022-12-14	12:59:19	13:06:17	416838	5d63867550d0dd0017805976	833300159	1	main_slash	7	advance_on_keypress_SLASH	106	stimuli_distractor_diamondtriangles.svg	stimuli_target_circletriangles.svg	13	yes	57	0	1164
6.6.1	win	2022-12-14	12:59:19	13:06:20	419757	5d63867550d0dd0017805976	833300159	1	main_slash	7	main_slash	107	stimuli_target_circletriangles.svg	stimuli_distractor_diamondtriangles.svg	5	yes	53	1	1098
6.6.1	win	2022-12-14	12:59:19	13:06:20	419757	5d63867550d0dd0017805976	833300159	1	main_slash	7	advance_on_keypress_SLASH	108	stimuli_target_circletriangles.svg	stimuli_distractor_diamondtriangles.svg	5	yes	57	0	792
6.6.1	win	2022-12-14	12:59:19	13:06:23	422117	5d63867550d0dd0017805976	833300159	1	main_slash	7	main_slash	109	stimuli_target_diamondsquares.svg	stimuli_distractor_diamondtriangles.svg	24	yes	53	1	922
6.6.1	win	2022-12-14	12:59:19	13:06:23	422117	5d63867550d0dd0017805976	833300159	1	main_slash	7	advance_on_keypress_SLASH	110	stimuli_target_diamondsquares.svg	stimuli_distractor_diamondtriangles.svg	24	yes	57	0	503
6.6.1	win	2022-12-14	12:59:19	13:06:25	424274	5d63867550d0dd0017805976	833300159	1	main_slash	7	main_slash	111	stimuli_distractor_diamondtriangles.svg	stimuli_target_squaretriangles.svg	15	yes	53	1	1010
6.6.1	win	2022-12-14	12:59:19	13:06:25	424274	5d63867550d0dd0017805976	833300159	1	main_slash	7	advance_on_keypress_SLASH	112	stimuli_distractor_diamondtriangles.svg	stimuli_target_squaretriangles.svg	15	yes	57	0	1403
6.6.1	win	2022-12-14	12:59:19	13:06:28	427270	5d63867550d0dd0017805976	833300159	1	main_slash	7	main_slash	113	stimuli_distractor_diamondtriangles.svg	stimuli_target_diamondsquares.svg	32	yes	53	1	952
6.6.1	win	2022-12-14	12:59:19	13:06:28	427270	5d63867550d0dd0017805976	833300159	1	main_slash	7	advance_on_keypress_SLASH	114	stimuli_distractor_diamondtriangles.svg	stimuli_target_diamondsquares.svg	32	yes	57	0	1043
6.6.1	win	2022-12-14	12:59:19	13:06:31	430085	5d63867550d0dd0017805976	833300159	1	main_slash	7	main_slash	115	stimuli_distractor_trianglediamonds.svg	stimuli_distractor_diamondtriangles.svg	35	no	53	0	1131
6.6.1	win	2022-12-14	12:59:19	13:06:31	430085	5d63867550d0dd0017805976	833300159	1	main_slash	7	advance_on_keypress_SLASH	116	stimuli_distractor_trianglediamonds.svg	stimuli_distractor_diamondtriangles.svg	35	no	57	0	633
6.6.1	win	2022-12-14	12:59:19	13:06:33	432286	5d63867550d0dd0017805976	833300159	1	main_slash	7	main_slash	117	stimuli_distractor_trianglediamonds.svg	stimuli_target_squaretriangles.svg	11	yes	53	1	913
6.6.1	win	2022-12-14	12:59:19	13:06:33	432286	5d63867550d0dd0017805976	833300159	1	main_slash	7	advance_on_keypress_SLASH	118	stimuli_distractor_trianglediamonds.svg	stimuli_target_squaretriangles.svg	11	yes	57	0	639
6.6.1	win	2022-12-14	12:59:19	13:06:35	434523	5d63867550d0dd0017805976	833300159	1	main_slash	7	main_slash	119	stimuli_distractor_diamondtriangles.svg	stimuli_target_trianglecircles.svg	29	yes	53	1	947
6.6.1	win	2022-12-14	12:59:19	13:06:35	434523	5d63867550d0dd0017805976	833300159	1	main_slash	7	advance_on_keypress_SLASH	120	stimuli_distractor_diamondtriangles.svg	stimuli_target_trianglecircles.svg	29	yes	57	0	589
6.6.1	win	2022-12-14	12:59:19	13:06:37	436787	5d63867550d0dd0017805976	833300159	1	main_slash	7	main_slash	121	stimuli_target_circletriangles.svg	stimuli_distractor_trianglediamonds.svg	1	yes	53	1	1026
6.6.1	win	2022-12-14	12:59:19	13:06:37	436787	5d63867550d0dd0017805976	833300159	1	main_slash	7	advance_on_keypress_SLASH	122	stimuli_target_circletriangles.svg	stimuli_distractor_trianglediamonds.svg	1	yes	57	0	13400
6.6.1	win	2022-12-14	12:59:19	13:06:52	451366	5d63867550d0dd0017805976	833300159	1	main_slash	7	main_slash	123	stimuli_target_diamondcircles.svg	stimuli_distractor_trianglediamonds.svg	19	yes	53	1	538
6.6.1	win	2022-12-14	12:59:19	13:06:52	451366	5d63867550d0dd0017805976	833300159	1	main_slash	7	advance_on_keypress_SLASH	124	stimuli_target_diamondcircles.svg	stimuli_distractor_trianglediamonds.svg	19	yes	57	0	1497
6.6.1	win	2022-12-14	12:59:19	13:06:55	454131	5d63867550d0dd0017805976	833300159	1	main_slash	7	main_slash	125	stimuli_target_circlediamonds.svg	stimuli_distractor_diamondtriangles.svg	6	yes	53	1	616
6.6.1	win	2022-12-14	12:59:19	13:06:55	454131	5d63867550d0dd0017805976	833300159	1	main_slash	7	advance_on_keypress_SLASH	126	stimuli_target_circlediamonds.svg	stimuli_distractor_diamondtriangles.svg	6	yes	57	0	799
6.6.1	win	2022-12-14	12:59:19	13:06:57	456848	5d63867550d0dd0017805976	833300159	1	main_slash	7	main_slash	127	stimuli_distractor_diamondtriangles.svg	stimuli_target_squarediamonds.svg	16	yes	53	1	1264
6.6.1	win	2022-12-14	12:59:19	13:06:57	456848	5d63867550d0dd0017805976	833300159	1	main_slash	7	advance_on_keypress_SLASH	128	stimuli_distractor_diamondtriangles.svg	stimuli_target_squarediamonds.svg	16	yes	57	0	942
6.6.1	win	2022-12-14	12:59:19	13:07:00	459265	5d63867550d0dd0017805976	833300159	1	main_slash	7	main_slash	129	stimuli_distractor_trianglediamonds.svg	stimuli_target_trianglesquares.svg	26	yes	53	1	829
6.6.1	win	2022-12-14	12:59:19	13:07:00	459265	5d63867550d0dd0017805976	833300159	1	main_slash	7	advance_on_keypress_SLASH	130	stimuli_distractor_trianglediamonds.svg	stimuli_target_trianglesquares.svg	26	yes	57	0	488
6.6.1	win	2022-12-14	12:59:19	13:07:02	461272	5d63867550d0dd0017805976	833300159	1	main_slash	7	main_slash	131	stimuli_target_diamondcircles.svg	stimuli_distractor_diamondtriangles.svg	23	yes	53	1	867
6.6.1	win	2022-12-14	12:59:19	13:07:02	461272	5d63867550d0dd0017805976	833300159	1	main_slash	7	advance_on_keypress_SLASH	132	stimuli_target_diamondcircles.svg	stimuli_distractor_diamondtriangles.svg	23	yes	57	0	663
6.6.1	win	2022-12-14	12:59:19	13:07:05	464591	5d63867550d0dd0017805976	833300159	1	main_slash	7	main_slash	133	stimuli_distractor_trianglediamonds.svg	stimuli_distractor_trianglediamonds.svg	34	no	0	1	2000
6.6.1	win	2022-12-14	12:59:19	13:07:05	464591	5d63867550d0dd0017805976	833300159	1	main_slash	7	advance_on_keypress_SLASH	134	stimuli_distractor_trianglediamonds.svg	stimuli_distractor_trianglediamonds.svg	34	no	57	0	402
6.6.1	win	2022-12-14	12:59:19	13:07:08	467644	5d63867550d0dd0017805976	833300159	1	main_slash	7	main_slash	135	stimuli_distractor_trianglediamonds.svg	stimuli_distractor_trianglediamonds.svg	33	no	0	1	2000
6.6.1	win	2022-12-14	12:59:19	13:07:08	467644	5d63867550d0dd0017805976	833300159	1	main_slash	7	advance_on_keypress_SLASH	136	stimuli_distractor_trianglediamonds.svg	stimuli_distractor_trianglediamonds.svg	33	no	57	0	359
6.6.1	win	2022-12-14	12:59:19	13:07:10	469306	5d63867550d0dd0017805976	833300159	1	main_slash	7	main_slash	137	stimuli_target_squaretriangles.svg	stimuli_distractor_diamondtriangles.svg	7	yes	53	1	658
6.6.1	win	2022-12-14	12:59:19	13:07:10	469306	5d63867550d0dd0017805976	833300159	1	main_slash	7	advance_on_keypress_SLASH	138	stimuli_target_squaretriangles.svg	stimuli_distractor_diamondtriangles.svg	7	yes	57	0	696
6.6.1	win	2022-12-14	12:59:19	13:07:12	471673	5d63867550d0dd0017805976	833300159	1	main_slash	7	main_slash	139	stimuli_distractor_trianglediamonds.svg	stimuli_target_diamondsquares.svg	28	yes	53	1	1023
6.6.1	win	2022-12-14	12:59:19	13:07:12	471673	5d63867550d0dd0017805976	833300159	1	main_slash	7	advance_on_keypress_SLASH	140	stimuli_distractor_trianglediamonds.svg	stimuli_target_diamondsquares.svg	28	yes	57	0	957
6.6.1	win	2022-12-14	12:59:19	13:07:16	475269	5d63867550d0dd0017805976	833300159	1	main_slash	7	main_slash	141	stimuli_distractor_diamondtriangles.svg	stimuli_distractor_trianglediamonds.svg	38	no	0	1	2000
6.6.1	win	2022-12-14	12:59:19	13:07:16	475269	5d63867550d0dd0017805976	833300159	1	main_slash	7	advance_on_keypress_SLASH	142	stimuli_distractor_diamondtriangles.svg	stimuli_distractor_trianglediamonds.svg	38	no	57	0	490
6.6.1	win	2022-12-14	12:59:19	13:07:18	477253	5d63867550d0dd0017805976	833300159	1	main_slash	7	main_slash	143	stimuli_target_trianglesquares.svg	stimuli_distractor_trianglediamonds.svg	18	yes	53	1	847
6.6.1	win	2022-12-14	12:59:19	13:07:18	477253	5d63867550d0dd0017805976	833300159	1	main_slash	7	advance_on_keypress_SLASH	144	stimuli_target_trianglesquares.svg	stimuli_distractor_trianglediamonds.svg	18	yes	57	0	1052
6.6.1	win	2022-12-14	12:59:19	13:07:21	480080	5d63867550d0dd0017805976	833300159	1	main_slash	7	main_slash	145	stimuli_target_squarediamonds.svg	stimuli_distractor_trianglediamonds.svg	4	yes	53	1	1121
6.6.1	win	2022-12-14	12:59:19	13:07:21	480080	5d63867550d0dd0017805976	833300159	1	main_slash	7	advance_on_keypress_SLASH	146	stimuli_target_squarediamonds.svg	stimuli_distractor_trianglediamonds.svg	4	yes	57	0	1428
6.6.1	win	2022-12-14	12:59:19	13:07:24	483178	5d63867550d0dd0017805976	833300159	1	main_slash	7	main_slash	147	stimuli_target_diamondsquares.svg	stimuli_distractor_trianglediamonds.svg	20	yes	53	1	1015
6.6.1	win	2022-12-14	12:59:19	13:07:24	483178	5d63867550d0dd0017805976	833300159	1	main_slash	7	advance_on_keypress_SLASH	148	stimuli_target_diamondsquares.svg	stimuli_distractor_trianglediamonds.svg	20	yes	57	0	1292
6.6.1	win	2022-12-14	12:59:19	13:07:27	485985	5d63867550d0dd0017805976	833300159	1	main_slash	7	main_slash	149	stimuli_distractor_trianglediamonds.svg	stimuli_target_circlediamonds.svg	10	yes	53	1	869
6.6.1	win	2022-12-14	12:59:19	13:07:27	485985	5d63867550d0dd0017805976	833300159	1	main_slash	7	advance_on_keypress_SLASH	150	stimuli_distractor_trianglediamonds.svg	stimuli_target_circlediamonds.svg	10	yes	57	0	537
6.6.1	win	2022-12-14	12:59:19	13:07:28	487895	5d63867550d0dd0017805976	833300159	1	main_slash	7	main_slash	151	stimuli_distractor_trianglediamonds.svg	stimuli_target_circletriangles.svg	9	yes	53	1	727
6.6.1	win	2022-12-14	12:59:19	13:07:28	487895	5d63867550d0dd0017805976	833300159	1	main_slash	7	advance_on_keypress_SLASH	152	stimuli_distractor_trianglediamonds.svg	stimuli_target_circletriangles.svg	9	yes	57	0	827
6.6.1	win	2022-12-14	12:59:19	13:07:32	491354	5d63867550d0dd0017805976	833300159	1	main_slash	7	main_slash	153	stimuli_distractor_diamondtriangles.svg	stimuli_distractor_diamondtriangles.svg	40	no	0	1	2000
6.6.1	win	2022-12-14	12:59:19	13:07:32	491354	5d63867550d0dd0017805976	833300159	1	main_slash	7	advance_on_keypress_SLASH	154	stimuli_distractor_diamondtriangles.svg	stimuli_distractor_diamondtriangles.svg	40	no	57	0	410
6.6.1	win	2022-12-14	12:59:19	13:07:34	493257	5d63867550d0dd0017805976	833300159	1	main_slash	7	main_slash	155	stimuli_target_squaretriangles.svg	stimuli_distractor_trianglediamonds.svg	3	yes	53	1	850
6.6.1	win	2022-12-14	12:59:19	13:07:34	493257	5d63867550d0dd0017805976	833300159	1	main_slash	7	advance_on_keypress_SLASH	156	stimuli_target_squaretriangles.svg	stimuli_distractor_trianglediamonds.svg	3	yes	57	0	951
6.6.1	win	2022-12-14	12:59:19	13:07:37	496860	5d63867550d0dd0017805976	833300159	1	main_slash	7	main_slash	157	stimuli_distractor_trianglediamonds.svg	stimuli_distractor_diamondtriangles.svg	36	no	0	1	2000
6.6.1	win	2022-12-14	12:59:19	13:07:37	496860	5d63867550d0dd0017805976	833300159	1	main_slash	7	advance_on_keypress_SLASH	158	stimuli_distractor_trianglediamonds.svg	stimuli_distractor_diamondtriangles.svg	36	no	57	0	389
6.6.1	win	2022-12-14	12:59:19	13:07:40	499402	5d63867550d0dd0017805976	833300159	1	main_slash	7	main_slash	159	stimuli_distractor_diamondtriangles.svg	stimuli_target_diamondcircles.svg	31	yes	53	1	1506
6.6.1	win	2022-12-14	12:59:19	13:07:40	499402	5d63867550d0dd0017805976	833300159	1	main_slash	7	advance_on_keypress_SLASH	160	stimuli_distractor_diamondtriangles.svg	stimuli_target_diamondcircles.svg	31	yes	57	0	3153
6.6.1	win	2022-12-14	12:59:19	13:08:12	531869	5d63867550d0dd0017805976	833300159	1	practice_z	9	practice_z	1	stimuli_target_circlediamonds.svg	stimuli_distractor_trianglediamonds.svg	4	yes	44	1	1000
6.6.1	win	2022-12-14	12:59:19	13:08:12	531869	5d63867550d0dd0017805976	833300159	1	practice_z	9	advance_on_keypress_ZEE	2	stimuli_target_circlediamonds.svg	stimuli_distractor_trianglediamonds.svg	4	yes	57	0	2133
6.6.1	win	2022-12-14	12:59:19	13:08:17	536357	5d63867550d0dd0017805976	833300159	1	practice_z	9	practice_z	3	stimuli_target_squarediamonds.svg	stimuli_distractor_trianglediamonds.svg	5	yes	44	1	700
6.6.1	win	2022-12-14	12:59:19	13:08:17	536357	5d63867550d0dd0017805976	833300159	1	practice_z	9	advance_on_keypress_ZEE	4	stimuli_target_squarediamonds.svg	stimuli_distractor_trianglediamonds.svg	5	yes	57	0	623
6.6.1	win	2022-12-14	12:59:19	13:08:20	539239	5d63867550d0dd0017805976	833300159	1	practice_z	9	practice_z	5	stimuli_distractor_trianglediamonds.svg	stimuli_target_circlediamonds.svg	10	yes	44	1	610
6.6.1	win	2022-12-14	12:59:19	13:08:20	539239	5d63867550d0dd0017805976	833300159	1	practice_z	9	advance_on_keypress_ZEE	6	stimuli_distractor_trianglediamonds.svg	stimuli_target_circlediamonds.svg	10	yes	57	0	642
6.6.1	win	2022-12-14	12:59:19	13:08:24	543548	5d63867550d0dd0017805976	833300159	1	practice_z	9	practice_z	7	stimuli_distractor_trianglediamonds.svg	stimuli_distractor_trianglediamonds.svg	15	no	0	1	2000
6.6.1	win	2022-12-14	12:59:19	13:08:24	543548	5d63867550d0dd0017805976	833300159	1	practice_z	9	advance_on_keypress_ZEE	8	stimuli_distractor_trianglediamonds.svg	stimuli_distractor_trianglediamonds.svg	15	no	57	0	593
6.6.1	win	2022-12-14	12:59:19	13:08:27	546461	5d63867550d0dd0017805976	833300159	1	practice_z	9	practice_z	9	stimuli_distractor_diamondtriangles.svg	stimuli_target_trianglecircles.svg	9	yes	44	1	659
6.6.1	win	2022-12-14	12:59:19	13:08:27	546461	5d63867550d0dd0017805976	833300159	1	practice_z	9	advance_on_keypress_ZEE	10	stimuli_distractor_diamondtriangles.svg	stimuli_target_trianglecircles.svg	9	yes	57	0	560
6.6.1	win	2022-12-14	12:59:19	13:08:30	549372	5d63867550d0dd0017805976	833300159	1	practice_z	9	practice_z	11	stimuli_distractor_diamondtriangles.svg	stimuli_target_circletriangles.svg	7	yes	44	1	682
6.6.1	win	2022-12-14	12:59:19	13:08:30	549372	5d63867550d0dd0017805976	833300159	1	practice_z	9	advance_on_keypress_ZEE	12	stimuli_distractor_diamondtriangles.svg	stimuli_target_circletriangles.svg	7	yes	57	0	989
6.6.1	win	2022-12-14	12:59:19	13:08:34	552960	5d63867550d0dd0017805976	833300159	1	practice_z	9	practice_z	13	stimuli_target_diamondsquares.svg	stimuli_distractor_trianglediamonds.svg	6	yes	44	1	950
6.6.1	win	2022-12-14	12:59:19	13:08:34	552960	5d63867550d0dd0017805976	833300159	1	practice_z	9	advance_on_keypress_ZEE	14	stimuli_target_diamondsquares.svg	stimuli_distractor_trianglediamonds.svg	6	yes	57	0	673
6.6.1	win	2022-12-14	12:59:19	13:08:37	556209	5d63867550d0dd0017805976	833300159	1	practice_z	9	practice_z	15	stimuli_target_diamondsquares.svg	stimuli_distractor_diamondtriangles.svg	3	yes	44	1	930
6.6.1	win	2022-12-14	12:59:19	13:08:37	556209	5d63867550d0dd0017805976	833300159	1	practice_z	9	advance_on_keypress_ZEE	16	stimuli_target_diamondsquares.svg	stimuli_distractor_diamondtriangles.svg	3	yes	57	0	559
6.6.1	win	2022-12-14	12:59:19	13:08:40	559369	5d63867550d0dd0017805976	833300159	1	practice_z	9	practice_z	17	stimuli_target_squarediamonds.svg	stimuli_distractor_diamondtriangles.svg	2	yes	44	1	936
6.6.1	win	2022-12-14	12:59:19	13:08:40	559369	5d63867550d0dd0017805976	833300159	1	practice_z	9	advance_on_keypress_ZEE	18	stimuli_target_squarediamonds.svg	stimuli_distractor_diamondtriangles.svg	2	yes	57	0	669
6.6.1	win	2022-12-14	12:59:19	13:08:44	563687	5d63867550d0dd0017805976	833300159	1	practice_z	9	practice_z	19	stimuli_distractor_trianglediamonds.svg	stimuli_distractor_diamondtriangles.svg	16	no	0	1	2000
6.6.1	win	2022-12-14	12:59:19	13:08:44	563687	5d63867550d0dd0017805976	833300159	1	practice_z	9	advance_on_keypress_ZEE	20	stimuli_distractor_trianglediamonds.svg	stimuli_distractor_diamondtriangles.svg	16	no	57	0	700
6.6.1	win	2022-12-14	12:59:19	13:08:49	568042	5d63867550d0dd0017805976	833300159	1	practice_z	9	practice_z	21	stimuli_distractor_diamondtriangles.svg	stimuli_distractor_trianglediamonds.svg	14	no	0	1	2000
6.6.1	win	2022-12-14	12:59:19	13:08:49	568042	5d63867550d0dd0017805976	833300159	1	practice_z	9	advance_on_keypress_ZEE	22	stimuli_distractor_diamondtriangles.svg	stimuli_distractor_trianglediamonds.svg	14	no	57	0	539
6.6.1	win	2022-12-14	12:59:19	13:08:53	572229	5d63867550d0dd0017805976	833300159	1	practice_z	9	practice_z	23	stimuli_distractor_diamondtriangles.svg	stimuli_distractor_diamondtriangles.svg	13	no	0	1	2000
6.6.1	win	2022-12-14	12:59:19	13:08:53	572229	5d63867550d0dd0017805976	833300159	1	practice_z	9	advance_on_keypress_ZEE	24	stimuli_distractor_diamondtriangles.svg	stimuli_distractor_diamondtriangles.svg	13	no	57	0	677
6.6.1	win	2022-12-14	12:59:19	13:08:56	575329	5d63867550d0dd0017805976	833300159	1	practice_z	9	practice_z	25	stimuli_distractor_trianglediamonds.svg	stimuli_target_squarediamonds.svg	11	yes	44	1	762
6.6.1	win	2022-12-14	12:59:19	13:08:56	575329	5d63867550d0dd0017805976	833300159	1	practice_z	9	advance_on_keypress_ZEE	26	stimuli_distractor_trianglediamonds.svg	stimuli_target_squarediamonds.svg	11	yes	57	0	563
6.6.1	win	2022-12-14	12:59:19	13:08:59	578517	5d63867550d0dd0017805976	833300159	1	practice_z	9	practice_z	27	stimuli_distractor_trianglediamonds.svg	stimuli_target_diamondcircles.svg	12	yes	44	1	963
6.6.1	win	2022-12-14	12:59:19	13:08:59	578517	5d63867550d0dd0017805976	833300159	1	practice_z	9	advance_on_keypress_ZEE	28	stimuli_distractor_trianglediamonds.svg	stimuli_target_diamondcircles.svg	12	yes	57	0	537
6.6.1	win	2022-12-14	12:59:19	13:09:02	581481	5d63867550d0dd0017805976	833300159	1	practice_z	9	practice_z	29	stimuli_target_circlediamonds.svg	stimuli_distractor_diamondtriangles.svg	1	yes	44	1	774
6.6.1	win	2022-12-14	12:59:19	13:09:02	581481	5d63867550d0dd0017805976	833300159	1	practice_z	9	advance_on_keypress_ZEE	30	stimuli_target_circlediamonds.svg	stimuli_distractor_diamondtriangles.svg	1	yes	57	0	499
6.6.1	win	2022-12-14	12:59:19	13:09:05	584269	5d63867550d0dd0017805976	833300159	1	practice_z	9	practice_z	31	stimuli_distractor_diamondtriangles.svg	stimuli_target_diamondcircles.svg	8	yes	44	1	642
6.6.1	win	2022-12-14	12:59:19	13:09:05	584269	5d63867550d0dd0017805976	833300159	1	practice_z	9	advance_on_keypress_ZEE	32	stimuli_distractor_diamondtriangles.svg	stimuli_target_diamondcircles.svg	8	yes	57	0	500
6.6.1	win	2022-12-14	12:59:19	13:09:11	590663	5d63867550d0dd0017805976	833300159	1	main_z	11	main_z	1	stimuli_distractor_trianglediamonds.svg	stimuli_distractor_diamondtriangles.svg	36	no	0	1	2000
6.6.1	win	2022-12-14	12:59:19	13:09:11	590663	5d63867550d0dd0017805976	833300159	1	main_z	11	advance_on_keypress_ZEE	2	stimuli_distractor_trianglediamonds.svg	stimuli_distractor_diamondtriangles.svg	36	no	57	0	4880
6.6.1	win	2022-12-14	12:59:19	13:09:17	596643	5d63867550d0dd0017805976	833300159	1	main_z	11	main_z	3	stimuli_distractor_diamondtriangles.svg	stimuli_target_circlediamonds.svg	14	yes	44	1	455
6.6.1	win	2022-12-14	12:59:19	13:09:17	596643	5d63867550d0dd0017805976	833300159	1	main_z	11	advance_on_keypress_ZEE	4	stimuli_distractor_diamondtriangles.svg	stimuli_target_circlediamonds.svg	14	yes	57	0	766
6.6.1	win	2022-12-14	12:59:19	13:09:19	598629	5d63867550d0dd0017805976	833300159	1	main_z	11	main_z	5	stimuli_distractor_diamondtriangles.svg	stimuli_target_trianglecircles.svg	29	yes	44	1	572
6.6.1	win	2022-12-14	12:59:19	13:09:19	598629	5d63867550d0dd0017805976	833300159	1	main_z	11	advance_on_keypress_ZEE	6	stimuli_distractor_diamondtriangles.svg	stimuli_target_trianglecircles.svg	29	yes	57	0	533
6.6.1	win	2022-12-14	12:59:19	13:09:21	600553	5d63867550d0dd0017805976	833300159	1	main_z	11	main_z	7	stimuli_target_circlediamonds.svg	stimuli_distractor_diamondtriangles.svg	6	yes	44	1	744
6.6.1	win	2022-12-14	12:59:19	13:09:21	600553	5d63867550d0dd0017805976	833300159	1	main_z	11	advance_on_keypress_ZEE	8	stimuli_target_circlediamonds.svg	stimuli_distractor_diamondtriangles.svg	6	yes	57	0	621
6.6.1	win	2022-12-14	12:59:19	13:09:24	603811	5d63867550d0dd0017805976	833300159	1	main_z	11	main_z	9	stimuli_distractor_diamondtriangles.svg	stimuli_distractor_trianglediamonds.svg	38	no	0	1	2000
6.6.1	win	2022-12-14	12:59:19	13:09:24	603811	5d63867550d0dd0017805976	833300159	1	main_z	11	advance_on_keypress_ZEE	10	stimuli_distractor_diamondtriangles.svg	stimuli_distractor_trianglediamonds.svg	38	no	57	0	278
6.6.1	win	2022-12-14	12:59:19	13:09:27	606747	5d63867550d0dd0017805976	833300159	1	main_z	11	main_z	11	stimuli_distractor_trianglediamonds.svg	stimuli_distractor_diamondtriangles.svg	35	no	0	1	2000
6.6.1	win	2022-12-14	12:59:19	13:09:27	606747	5d63867550d0dd0017805976	833300159	1	main_z	11	advance_on_keypress_ZEE	12	stimuli_distractor_trianglediamonds.svg	stimuli_distractor_diamondtriangles.svg	35	no	57	0	307
6.6.1	win	2022-12-14	12:59:19	13:09:29	608412	5d63867550d0dd0017805976	833300159	1	main_z	11	main_z	13	stimuli_distractor_diamondtriangles.svg	stimuli_target_diamondsquares.svg	32	yes	44	1	710
6.6.1	win	2022-12-14	12:59:19	13:09:29	608412	5d63867550d0dd0017805976	833300159	1	main_z	11	advance_on_keypress_ZEE	14	stimuli_distractor_diamondtriangles.svg	stimuli_target_diamondsquares.svg	32	yes	57	0	555
6.6.1	win	2022-12-14	12:59:19	13:09:31	610373	5d63867550d0dd0017805976	833300159	1	main_z	11	main_z	15	stimuli_distractor_trianglediamonds.svg	stimuli_target_squaretriangles.svg	11	yes	44	1	753
6.6.1	win	2022-12-14	12:59:19	13:09:31	610373	5d63867550d0dd0017805976	833300159	1	main_z	11	advance_on_keypress_ZEE	16	stimuli_distractor_trianglediamonds.svg	stimuli_target_squaretriangles.svg	11	yes	57	0	441
6.6.1	win	2022-12-14	12:59:19	13:09:33	612299	5d63867550d0dd0017805976	833300159	1	main_z	11	main_z	17	stimuli_target_trianglesquares.svg	stimuli_distractor_trianglediamonds.svg	18	yes	44	1	844
6.6.1	win	2022-12-14	12:59:19	13:09:33	612299	5d63867550d0dd0017805976	833300159	1	main_z	11	advance_on_keypress_ZEE	18	stimuli_target_trianglesquares.svg	stimuli_distractor_trianglediamonds.svg	18	yes	57	0	644
6.6.1	win	2022-12-14	12:59:19	13:09:35	614349	5d63867550d0dd0017805976	833300159	1	main_z	11	main_z	19	stimuli_distractor_trianglediamonds.svg	stimuli_target_trianglesquares.svg	26	yes	44	1	774
6.6.1	win	2022-12-14	12:59:19	13:09:35	614349	5d63867550d0dd0017805976	833300159	1	main_z	11	advance_on_keypress_ZEE	20	stimuli_distractor_trianglediamonds.svg	stimuli_target_trianglesquares.svg	26	yes	57	0	530
6.6.1	win	2022-12-14	12:59:19	13:09:37	616311	5d63867550d0dd0017805976	833300159	1	main_z	11	main_z	21	stimuli_distractor_trianglediamonds.svg	stimuli_target_circlediamonds.svg	10	yes	44	1	785
6.6.1	win	2022-12-14	12:59:19	13:09:37	616311	5d63867550d0dd0017805976	833300159	1	main_z	11	advance_on_keypress_ZEE	22	stimuli_distractor_trianglediamonds.svg	stimuli_target_circlediamonds.svg	10	yes	57	0	710
6.6.1	win	2022-12-14	12:59:19	13:09:39	618516	5d63867550d0dd0017805976	833300159	1	main_z	11	main_z	23	stimuli_target_diamondcircles.svg	stimuli_distractor_trianglediamonds.svg	19	yes	44	1	837
6.6.1	win	2022-12-14	12:59:19	13:09:39	618516	5d63867550d0dd0017805976	833300159	1	main_z	11	advance_on_keypress_ZEE	24	stimuli_target_diamondcircles.svg	stimuli_distractor_trianglediamonds.svg	19	yes	57	0	804
6.6.1	win	2022-12-14	12:59:19	13:09:41	620850	5d63867550d0dd0017805976	833300159	1	main_z	11	main_z	25	stimuli_distractor_diamondtriangles.svg	stimuli_target_squaretriangles.svg	15	yes	44	1	886
6.6.1	win	2022-12-14	12:59:19	13:09:41	620850	5d63867550d0dd0017805976	833300159	1	main_z	11	advance_on_keypress_ZEE	26	stimuli_distractor_diamondtriangles.svg	stimuli_target_squaretriangles.svg	15	yes	57	0	894
6.6.1	win	2022-12-14	12:59:19	13:09:44	623308	5d63867550d0dd0017805976	833300159	1	main_z	11	main_z	27	stimuli_distractor_trianglediamonds.svg	stimuli_target_diamondsquares.svg	28	yes	44	1	908
6.6.1	win	2022-12-14	12:59:19	13:09:44	623308	5d63867550d0dd0017805976	833300159	1	main_z	11	advance_on_keypress_ZEE	28	stimuli_distractor_trianglediamonds.svg	stimuli_target_diamondsquares.svg	28	yes	57	0	534
6.6.1	win	2022-12-14	12:59:19	13:09:47	626486	5d63867550d0dd0017805976	833300159	1	main_z	11	main_z	29	stimuli_distractor_diamondtriangles.svg	stimuli_distractor_trianglediamonds.svg	37	no	0	1	2000
6.6.1	win	2022-12-14	12:59:19	13:09:47	626486	5d63867550d0dd0017805976	833300159	1	main_z	11	advance_on_keypress_ZEE	30	stimuli_distractor_diamondtriangles.svg	stimuli_distractor_trianglediamonds.svg	37	no	57	0	399
6.6.1	win	2022-12-14	12:59:19	13:09:49	628335	5d63867550d0dd0017805976	833300159	1	main_z	11	main_z	31	stimuli_target_trianglesquares.svg	stimuli_distractor_diamondtriangles.svg	22	yes	44	1	796
6.6.1	win	2022-12-14	12:59:19	13:09:49	628335	5d63867550d0dd0017805976	833300159	1	main_z	11	advance_on_keypress_ZEE	32	stimuli_target_trianglesquares.svg	stimuli_distractor_diamondtriangles.svg	22	yes	57	0	541
6.6.1	win	2022-12-14	12:59:19	13:09:52	631525	5d63867550d0dd0017805976	833300159	1	main_z	11	main_z	33	stimuli_distractor_diamondtriangles.svg	stimuli_distractor_diamondtriangles.svg	40	no	0	1	2000
6.6.1	win	2022-12-14	12:59:19	13:09:52	631525	5d63867550d0dd0017805976	833300159	1	main_z	11	advance_on_keypress_ZEE	34	stimuli_distractor_diamondtriangles.svg	stimuli_distractor_diamondtriangles.svg	40	no	57	0	335
6.6.1	win	2022-12-14	12:59:19	13:09:54	633237	5d63867550d0dd0017805976	833300159	1	main_z	11	main_z	35	stimuli_target_diamondsquares.svg	stimuli_distractor_trianglediamonds.svg	20	yes	44	1	727
6.6.1	win	2022-12-14	12:59:19	13:09:54	633237	5d63867550d0dd0017805976	833300159	1	main_z	11	advance_on_keypress_ZEE	36	stimuli_target_diamondsquares.svg	stimuli_distractor_trianglediamonds.svg	20	yes	57	0	1226
6.6.1	win	2022-12-14	12:59:19	13:09:56	635878	5d63867550d0dd0017805976	833300159	1	main_z	11	main_z	37	stimuli_target_squaretriangles.svg	stimuli_distractor_trianglediamonds.svg	3	yes	44	1	780
6.6.1	win	2022-12-14	12:59:19	13:09:56	635878	5d63867550d0dd0017805976	833300159	1	main_z	11	advance_on_keypress_ZEE	38	stimuli_target_squaretriangles.svg	stimuli_distractor_trianglediamonds.svg	3	yes	57	0	596
6.6.1	win	2022-12-14	12:59:19	13:09:59	637994	5d63867550d0dd0017805976	833300159	1	main_z	11	main_z	39	stimuli_distractor_trianglediamonds.svg	stimuli_target_squarediamonds.svg	12	yes	44	1	861
6.6.1	win	2022-12-14	12:59:19	13:09:59	637994	5d63867550d0dd0017805976	833300159	1	main_z	11	advance_on_keypress_ZEE	40	stimuli_distractor_trianglediamonds.svg	stimuli_target_squarediamonds.svg	12	yes	57	0	774
6.6.1	win	2022-12-14	12:59:19	13:10:01	640125	5d63867550d0dd0017805976	833300159	1	main_z	11	main_z	41	stimuli_distractor_diamondtriangles.svg	stimuli_target_circletriangles.svg	13	yes	44	1	723
6.6.1	win	2022-12-14	12:59:19	13:10:01	640125	5d63867550d0dd0017805976	833300159	1	main_z	11	advance_on_keypress_ZEE	42	stimuli_distractor_diamondtriangles.svg	stimuli_target_circletriangles.svg	13	yes	57	0	657
6.6.1	win	2022-12-14	12:59:19	13:10:03	642158	5d63867550d0dd0017805976	833300159	1	main_z	11	main_z	43	stimuli_distractor_trianglediamonds.svg	stimuli_target_diamondcircles.svg	27	yes	44	1	737
6.6.1	win	2022-12-14	12:59:19	13:10:03	642158	5d63867550d0dd0017805976	833300159	1	main_z	11	advance_on_keypress_ZEE	44	stimuli_distractor_trianglediamonds.svg	stimuli_target_diamondcircles.svg	27	yes	57	0	538
6.6.1	win	2022-12-14	12:59:19	13:10:05	644130	5d63867550d0dd0017805976	833300159	1	main_z	11	main_z	45	stimuli_target_squaretriangles.svg	stimuli_distractor_diamondtriangles.svg	7	yes	44	1	790
6.6.1	win	2022-12-14	12:59:19	13:10:05	644130	5d63867550d0dd0017805976	833300159	1	main_z	11	advance_on_keypress_ZEE	46	stimuli_target_squaretriangles.svg	stimuli_distractor_diamondtriangles.svg	7	yes	57	0	675
6.6.1	win	2022-12-14	12:59:19	13:10:07	646210	5d63867550d0dd0017805976	833300159	1	main_z	11	main_z	47	stimuli_distractor_trianglediamonds.svg	stimuli_target_trianglecircles.svg	25	yes	44	1	768
6.6.1	win	2022-12-14	12:59:19	13:10:07	646210	5d63867550d0dd0017805976	833300159	1	main_z	11	advance_on_keypress_ZEE	48	stimuli_distractor_trianglediamonds.svg	stimuli_target_trianglecircles.svg	25	yes	57	0	565
6.6.1	win	2022-12-14	12:59:19	13:10:10	649428	5d63867550d0dd0017805976	833300159	1	main_z	11	main_z	49	stimuli_distractor_trianglediamonds.svg	stimuli_distractor_trianglediamonds.svg	34	no	0	1	2000
6.6.1	win	2022-12-14	12:59:19	13:10:10	649428	5d63867550d0dd0017805976	833300159	1	main_z	11	advance_on_keypress_ZEE	50	stimuli_distractor_trianglediamonds.svg	stimuli_distractor_trianglediamonds.svg	34	no	57	0	329
6.6.1	win	2022-12-14	12:59:19	13:10:12	651073	5d63867550d0dd0017805976	833300159	1	main_z	11	main_z	51	stimuli_target_trianglecircles.svg	stimuli_distractor_diamondtriangles.svg	21	yes	44	1	658
6.6.1	win	2022-12-14	12:59:19	13:10:12	651073	5d63867550d0dd0017805976	833300159	1	main_z	11	advance_on_keypress_ZEE	52	stimuli_target_trianglecircles.svg	stimuli_distractor_diamondtriangles.svg	21	yes	57	0	756
6.6.1	win	2022-12-14	12:59:19	13:10:14	653352	5d63867550d0dd0017805976	833300159	1	main_z	11	main_z	53	stimuli_target_circletriangles.svg	stimuli_distractor_trianglediamonds.svg	1	yes	44	1	885
6.6.1	win	2022-12-14	12:59:19	13:10:14	653352	5d63867550d0dd0017805976	833300159	1	main_z	11	advance_on_keypress_ZEE	54	stimuli_target_circletriangles.svg	stimuli_distractor_trianglediamonds.svg	1	yes	57	0	754
6.6.1	win	2022-12-14	12:59:19	13:10:16	655708	5d63867550d0dd0017805976	833300159	1	main_z	11	main_z	55	stimuli_distractor_diamondtriangles.svg	stimuli_target_trianglesquares.svg	30	yes	44	1	955
6.6.1	win	2022-12-14	12:59:19	13:10:16	655708	5d63867550d0dd0017805976	833300159	1	main_z	11	advance_on_keypress_ZEE	56	stimuli_distractor_diamondtriangles.svg	stimuli_target_trianglesquares.svg	30	yes	57	0	1162
6.6.1	win	2022-12-14	12:59:19	13:10:20	659522	5d63867550d0dd0017805976	833300159	1	main_z	11	main_z	57	stimuli_distractor_diamondtriangles.svg	stimuli_distractor_diamondtriangles.svg	39	no	0	1	2000
6.6.1	win	2022-12-14	12:59:19	13:10:20	659522	5d63867550d0dd0017805976	833300159	1	main_z	11	advance_on_keypress_ZEE	58	stimuli_distractor_diamondtriangles.svg	stimuli_distractor_diamondtriangles.svg	39	no	57	0	505
6.6.1	win	2022-12-14	12:59:19	13:10:22	661440	5d63867550d0dd0017805976	833300159	1	main_z	11	main_z	59	stimuli_target_trianglecircles.svg	stimuli_distractor_trianglediamonds.svg	17	yes	44	1	764
6.6.1	win	2022-12-14	12:59:19	13:10:22	661440	5d63867550d0dd0017805976	833300159	1	main_z	11	advance_on_keypress_ZEE	60	stimuli_target_trianglecircles.svg	stimuli_distractor_trianglediamonds.svg	17	yes	57	0	684
6.6.1	win	2022-12-14	12:59:19	13:10:24	663684	5d63867550d0dd0017805976	833300159	1	main_z	11	main_z	61	stimuli_target_squarediamonds.svg	stimuli_distractor_trianglediamonds.svg	4	yes	44	1	906
6.6.1	win	2022-12-14	12:59:19	13:10:24	663684	5d63867550d0dd0017805976	833300159	1	main_z	11	advance_on_keypress_ZEE	62	stimuli_target_squarediamonds.svg	stimuli_distractor_trianglediamonds.svg	4	yes	57	0	719
6.6.1	win	2022-12-14	12:59:19	13:10:27	665929	5d63867550d0dd0017805976	833300159	1	main_z	11	main_z	63	stimuli_target_circlediamonds.svg	stimuli_distractor_trianglediamonds.svg	2	yes	44	1	882
6.6.1	win	2022-12-14	12:59:19	13:10:27	665929	5d63867550d0dd0017805976	833300159	1	main_z	11	advance_on_keypress_ZEE	64	stimuli_target_circlediamonds.svg	stimuli_distractor_trianglediamonds.svg	2	yes	57	0	638
6.6.1	win	2022-12-14	12:59:19	13:10:29	668345	5d63867550d0dd0017805976	833300159	1	main_z	11	main_z	65	stimuli_target_circletriangles.svg	stimuli_distractor_diamondtriangles.svg	5	yes	44	1	1130
6.6.1	win	2022-12-14	12:59:19	13:10:29	668345	5d63867550d0dd0017805976	833300159	1	main_z	11	advance_on_keypress_ZEE	66	stimuli_target_circletriangles.svg	stimuli_distractor_diamondtriangles.svg	5	yes	57	0	650
6.6.1	win	2022-12-14	12:59:19	13:10:31	670599	5d63867550d0dd0017805976	833300159	1	main_z	11	main_z	67	stimuli_target_diamondsquares.svg	stimuli_distractor_diamondtriangles.svg	24	yes	44	1	947
6.6.1	win	2022-12-14	12:59:19	13:10:31	670599	5d63867550d0dd0017805976	833300159	1	main_z	11	advance_on_keypress_ZEE	68	stimuli_target_diamondsquares.svg	stimuli_distractor_diamondtriangles.svg	24	yes	57	0	1103
6.6.1	win	2022-12-14	12:59:19	13:10:34	673255	5d63867550d0dd0017805976	833300159	1	main_z	11	main_z	69	stimuli_target_squarediamonds.svg	stimuli_distractor_diamondtriangles.svg	8	yes	44	1	900
6.6.1	win	2022-12-14	12:59:19	13:10:34	673255	5d63867550d0dd0017805976	833300159	1	main_z	11	advance_on_keypress_ZEE	70	stimuli_target_squarediamonds.svg	stimuli_distractor_diamondtriangles.svg	8	yes	57	0	531
6.6.1	win	2022-12-14	12:59:19	13:10:37	676441	5d63867550d0dd0017805976	833300159	1	main_z	11	main_z	71	stimuli_distractor_trianglediamonds.svg	stimuli_distractor_trianglediamonds.svg	33	no	0	1	2000
6.6.1	win	2022-12-14	12:59:19	13:10:37	676441	5d63867550d0dd0017805976	833300159	1	main_z	11	advance_on_keypress_ZEE	72	stimuli_distractor_trianglediamonds.svg	stimuli_distractor_trianglediamonds.svg	33	no	57	0	358
6.6.1	win	2022-12-14	12:59:19	13:10:39	678171	5d63867550d0dd0017805976	833300159	1	main_z	11	main_z	73	stimuli_distractor_diamondtriangles.svg	stimuli_target_diamondcircles.svg	31	yes	44	1	727
6.6.1	win	2022-12-14	12:59:19	13:10:39	678171	5d63867550d0dd0017805976	833300159	1	main_z	11	advance_on_keypress_ZEE	74	stimuli_distractor_diamondtriangles.svg	stimuli_target_diamondcircles.svg	31	yes	57	0	690
6.6.1	win	2022-12-14	12:59:19	13:10:41	680204	5d63867550d0dd0017805976	833300159	1	main_z	11	main_z	75	stimuli_distractor_trianglediamonds.svg	stimuli_target_circletriangles.svg	9	yes	44	1	707
6.6.1	win	2022-12-14	12:59:19	13:10:41	680204	5d63867550d0dd0017805976	833300159	1	main_z	11	advance_on_keypress_ZEE	76	stimuli_distractor_trianglediamonds.svg	stimuli_target_circletriangles.svg	9	yes	57	0	542
6.6.1	win	2022-12-14	12:59:19	13:10:43	682273	5d63867550d0dd0017805976	833300159	1	main_z	11	main_z	77	stimuli_distractor_diamondtriangles.svg	stimuli_target_squarediamonds.svg	16	yes	44	1	891
6.6.1	win	2022-12-14	12:59:19	13:10:43	682273	5d63867550d0dd0017805976	833300159	1	main_z	11	advance_on_keypress_ZEE	78	stimuli_distractor_diamondtriangles.svg	stimuli_target_squarediamonds.svg	16	yes	57	0	709
6.6.1	win	2022-12-14	12:59:19	13:10:45	684589	5d63867550d0dd0017805976	833300159	1	main_z	11	main_z	79	stimuli_target_diamondcircles.svg	stimuli_distractor_diamondtriangles.svg	23	yes	44	1	971
6.6.1	win	2022-12-14	12:59:19	13:10:45	684589	5d63867550d0dd0017805976	833300159	1	main_z	11	advance_on_keypress_ZEE	80	stimuli_target_diamondcircles.svg	stimuli_distractor_diamondtriangles.svg	23	yes	57	0	605
6.6.1	win	2022-12-14	12:59:19	13:10:48	687837	5d63867550d0dd0017805976	833300159	1	main_z	11	main_z	81	stimuli_distractor_diamondtriangles.svg	stimuli_distractor_trianglediamonds.svg	37	no	0	1	2000
6.6.1	win	2022-12-14	12:59:19	13:10:48	687837	5d63867550d0dd0017805976	833300159	1	main_z	11	advance_on_keypress_ZEE	82	stimuli_distractor_diamondtriangles.svg	stimuli_distractor_trianglediamonds.svg	37	no	57	0	300
6.6.1	win	2022-12-14	12:59:19	13:10:50	689514	5d63867550d0dd0017805976	833300159	1	main_z	11	main_z	83	stimuli_distractor_trianglediamonds.svg	stimuli_target_diamondsquares.svg	28	yes	44	1	724
6.6.1	win	2022-12-14	12:59:19	13:10:50	689514	5d63867550d0dd0017805976	833300159	1	main_z	11	advance_on_keypress_ZEE	84	stimuli_distractor_trianglediamonds.svg	stimuli_target_diamondsquares.svg	28	yes	57	0	853
6.6.1	win	2022-12-14	12:59:19	13:10:53	691912	5d63867550d0dd0017805976	833300159	1	main_z	11	main_z	85	stimuli_target_circlediamonds.svg	stimuli_distractor_trianglediamonds.svg	2	yes	44	1	903
6.6.1	win	2022-12-14	12:59:19	13:10:53	691912	5d63867550d0dd0017805976	833300159	1	main_z	11	advance_on_keypress_ZEE	86	stimuli_target_circlediamonds.svg	stimuli_distractor_trianglediamonds.svg	2	yes	57	0	554
6.6.1	win	2022-12-14	12:59:19	13:10:56	695112	5d63867550d0dd0017805976	833300159	1	main_z	11	main_z	87	stimuli_distractor_diamondtriangles.svg	stimuli_distractor_diamondtriangles.svg	39	no	0	1	2000
6.6.1	win	2022-12-14	12:59:19	13:10:56	695112	5d63867550d0dd0017805976	833300159	1	main_z	11	advance_on_keypress_ZEE	88	stimuli_distractor_diamondtriangles.svg	stimuli_distractor_diamondtriangles.svg	39	no	57	0	578
6.6.1	win	2022-12-14	12:59:19	13:10:58	697239	5d63867550d0dd0017805976	833300159	1	main_z	11	main_z	89	stimuli_distractor_trianglediamonds.svg	stimuli_target_squaretriangles.svg	11	yes	44	1	890
6.6.1	win	2022-12-14	12:59:19	13:10:58	697239	5d63867550d0dd0017805976	833300159	1	main_z	11	advance_on_keypress_ZEE	90	stimuli_distractor_trianglediamonds.svg	stimuli_target_squaretriangles.svg	11	yes	57	0	729
6.6.1	win	2022-12-14	12:59:19	13:11:00	699348	5d63867550d0dd0017805976	833300159	1	main_z	11	main_z	91	stimuli_target_trianglecircles.svg	stimuli_distractor_diamondtriangles.svg	21	yes	44	1	730
6.6.1	win	2022-12-14	12:59:19	13:11:00	699348	5d63867550d0dd0017805976	833300159	1	main_z	11	advance_on_keypress_ZEE	92	stimuli_target_trianglecircles.svg	stimuli_distractor_diamondtriangles.svg	21	yes	57	0	986
6.6.1	win	2022-12-14	12:59:19	13:11:02	701815	5d63867550d0dd0017805976	833300159	1	main_z	11	main_z	93	stimuli_target_trianglesquares.svg	stimuli_distractor_diamondtriangles.svg	22	yes	44	1	828
6.6.1	win	2022-12-14	12:59:19	13:11:02	701815	5d63867550d0dd0017805976	833300159	1	main_z	11	advance_on_keypress_ZEE	94	stimuli_target_trianglesquares.svg	stimuli_distractor_diamondtriangles.svg	22	yes	57	0	595
6.6.1	win	2022-12-14	12:59:19	13:11:05	703905	5d63867550d0dd0017805976	833300159	1	main_z	11	main_z	95	stimuli_distractor_diamondtriangles.svg	stimuli_target_trianglecircles.svg	29	yes	44	1	850
6.6.1	win	2022-12-14	12:59:19	13:11:05	703905	5d63867550d0dd0017805976	833300159	1	main_z	11	advance_on_keypress_ZEE	96	stimuli_distractor_diamondtriangles.svg	stimuli_target_trianglecircles.svg	29	yes	57	0	557
6.6.1	win	2022-12-14	12:59:19	13:11:07	705981	5d63867550d0dd0017805976	833300159	1	main_z	11	main_z	97	stimuli_target_trianglesquares.svg	stimuli_distractor_trianglediamonds.svg	18	yes	44	1	873
6.6.1	win	2022-12-14	12:59:19	13:11:07	705981	5d63867550d0dd0017805976	833300159	1	main_z	11	advance_on_keypress_ZEE	98	stimuli_target_trianglesquares.svg	stimuli_distractor_trianglediamonds.svg	18	yes	57	0	429
6.6.1	win	2022-12-14	12:59:19	13:11:10	709060	5d63867550d0dd0017805976	833300159	1	main_z	11	main_z	99	stimuli_distractor_trianglediamonds.svg	stimuli_distractor_trianglediamonds.svg	33	no	0	1	2000
6.6.1	win	2022-12-14	12:59:19	13:11:10	709060	5d63867550d0dd0017805976	833300159	1	main_z	11	advance_on_keypress_ZEE	100	stimuli_distractor_trianglediamonds.svg	stimuli_distractor_trianglediamonds.svg	33	no	57	0	317
6.6.1	win	2022-12-14	12:59:19	13:11:11	710746	5d63867550d0dd0017805976	833300159	1	main_z	11	main_z	101	stimuli_target_diamondcircles.svg	stimuli_distractor_diamondtriangles.svg	23	yes	44	1	716
6.6.1	win	2022-12-14	12:59:19	13:11:11	710746	5d63867550d0dd0017805976	833300159	1	main_z	11	advance_on_keypress_ZEE	102	stimuli_target_diamondcircles.svg	stimuli_distractor_diamondtriangles.svg	23	yes	57	0	4404
6.6.1	win	2022-12-14	12:59:19	13:11:17	716392	5d63867550d0dd0017805976	833300159	1	main_z	11	main_z	103	stimuli_distractor_diamondtriangles.svg	stimuli_target_circletriangles.svg	13	yes	44	1	589
6.6.1	win	2022-12-14	12:59:19	13:11:17	716392	5d63867550d0dd0017805976	833300159	1	main_z	11	advance_on_keypress_ZEE	104	stimuli_distractor_diamondtriangles.svg	stimuli_target_circletriangles.svg	13	yes	57	0	571
6.6.1	win	2022-12-14	12:59:19	13:11:19	718242	5d63867550d0dd0017805976	833300159	1	main_z	11	main_z	105	stimuli_target_circlediamonds.svg	stimuli_distractor_diamondtriangles.svg	6	yes	44	1	636
6.6.1	win	2022-12-14	12:59:19	13:11:19	718242	5d63867550d0dd0017805976	833300159	1	main_z	11	advance_on_keypress_ZEE	106	stimuli_target_circlediamonds.svg	stimuli_distractor_diamondtriangles.svg	6	yes	57	0	570
6.6.1	win	2022-12-14	12:59:19	13:11:21	720292	5d63867550d0dd0017805976	833300159	1	main_z	11	main_z	107	stimuli_target_diamondsquares.svg	stimuli_distractor_trianglediamonds.svg	20	yes	44	1	834
6.6.1	win	2022-12-14	12:59:19	13:11:21	720292	5d63867550d0dd0017805976	833300159	1	main_z	11	advance_on_keypress_ZEE	108	stimuli_target_diamondsquares.svg	stimuli_distractor_trianglediamonds.svg	20	yes	57	0	482
6.6.1	win	2022-12-14	12:59:19	13:11:23	722281	5d63867550d0dd0017805976	833300159	1	main_z	11	main_z	109	stimuli_target_diamondsquares.svg	stimuli_distractor_diamondtriangles.svg	24	yes	44	1	855
6.6.1	win	2022-12-14	12:59:19	13:11:23	722281	5d63867550d0dd0017805976	833300159	1	main_z	11	advance_on_keypress_ZEE	110	stimuli_target_diamondsquares.svg	stimuli_distractor_diamondtriangles.svg	24	yes	57	0	726
6.6.1	win	2022-12-14	12:59:19	13:11:25	724426	5d63867550d0dd0017805976	833300159	1	main_z	11	main_z	111	stimuli_target_squaretriangles.svg	stimuli_distractor_diamondtriangles.svg	7	yes	44	1	781
6.6.1	win	2022-12-14	12:59:19	13:11:25	724426	5d63867550d0dd0017805976	833300159	1	main_z	11	advance_on_keypress_ZEE	112	stimuli_target_squaretriangles.svg	stimuli_distractor_diamondtriangles.svg	7	yes	57	0	555
6.6.1	win	2022-12-14	12:59:19	13:11:27	726452	5d63867550d0dd0017805976	833300159	1	main_z	11	main_z	113	stimuli_target_squarediamonds.svg	stimuli_distractor_trianglediamonds.svg	4	yes	44	1	821
6.6.1	win	2022-12-14	12:59:19	13:11:27	726452	5d63867550d0dd0017805976	833300159	1	main_z	11	advance_on_keypress_ZEE	114	stimuli_target_squarediamonds.svg	stimuli_distractor_trianglediamonds.svg	4	yes	57	0	299
6.6.1	win	2022-12-14	12:59:19	13:11:29	728168	5d63867550d0dd0017805976	833300159	1	main_z	11	main_z	115	stimuli_distractor_trianglediamonds.svg	stimuli_target_squarediamonds.svg	12	yes	44	1	769
6.6.1	win	2022-12-14	12:59:19	13:11:29	728168	5d63867550d0dd0017805976	833300159	1	main_z	11	advance_on_keypress_ZEE	116	stimuli_distractor_trianglediamonds.svg	stimuli_target_squarediamonds.svg	12	yes	57	0	278
6.6.1	win	2022-12-14	12:59:19	13:11:31	729912	5d63867550d0dd0017805976	833300159	1	main_z	11	main_z	117	stimuli_distractor_diamondtriangles.svg	stimuli_target_diamondcircles.svg	31	yes	44	1	811
6.6.1	win	2022-12-14	12:59:19	13:11:31	729912	5d63867550d0dd0017805976	833300159	1	main_z	11	advance_on_keypress_ZEE	118	stimuli_distractor_diamondtriangles.svg	stimuli_target_diamondcircles.svg	31	yes	57	0	337
6.6.1	win	2022-12-14	12:59:19	13:11:33	732887	5d63867550d0dd0017805976	833300159	1	main_z	11	main_z	119	stimuli_distractor_trianglediamonds.svg	stimuli_distractor_diamondtriangles.svg	36	no	0	1	2000
6.6.1	win	2022-12-14	12:59:19	13:11:33	732887	5d63867550d0dd0017805976	833300159	1	main_z	11	advance_on_keypress_ZEE	120	stimuli_distractor_trianglediamonds.svg	stimuli_distractor_diamondtriangles.svg	36	no	57	0	347
6.6.1	win	2022-12-14	12:59:19	13:11:36	735890	5d63867550d0dd0017805976	833300159	1	main_z	11	main_z	121	stimuli_distractor_diamondtriangles.svg	stimuli_distractor_trianglediamonds.svg	38	no	0	1	2000
6.6.1	win	2022-12-14	12:59:19	13:11:36	735890	5d63867550d0dd0017805976	833300159	1	main_z	11	advance_on_keypress_ZEE	122	stimuli_distractor_diamondtriangles.svg	stimuli_distractor_trianglediamonds.svg	38	no	57	0	516
6.6.1	win	2022-12-14	12:59:19	13:11:38	737824	5d63867550d0dd0017805976	833300159	1	main_z	11	main_z	123	stimuli_target_squaretriangles.svg	stimuli_distractor_trianglediamonds.svg	3	yes	44	1	764
6.6.1	win	2022-12-14	12:59:19	13:11:38	737824	5d63867550d0dd0017805976	833300159	1	main_z	11	advance_on_keypress_ZEE	124	stimuli_target_squaretriangles.svg	stimuli_distractor_trianglediamonds.svg	3	yes	57	0	443
6.6.1	win	2022-12-14	12:59:19	13:11:40	739709	5d63867550d0dd0017805976	833300159	1	main_z	11	main_z	125	stimuli_distractor_trianglediamonds.svg	stimuli_target_diamondcircles.svg	27	yes	44	1	779
6.6.1	win	2022-12-14	12:59:19	13:11:40	739709	5d63867550d0dd0017805976	833300159	1	main_z	11	advance_on_keypress_ZEE	126	stimuli_distractor_trianglediamonds.svg	stimuli_target_diamondcircles.svg	27	yes	57	0	489
6.6.1	win	2022-12-14	12:59:19	13:11:42	741607	5d63867550d0dd0017805976	833300159	1	main_z	11	main_z	127	stimuli_distractor_trianglediamonds.svg	stimuli_target_trianglecircles.svg	25	yes	44	1	759
6.6.1	win	2022-12-14	12:59:19	13:11:42	741607	5d63867550d0dd0017805976	833300159	1	main_z	11	advance_on_keypress_ZEE	128	stimuli_distractor_trianglediamonds.svg	stimuli_target_trianglecircles.svg	25	yes	57	0	412
6.6.1	win	2022-12-14	12:59:19	13:11:44	743659	5d63867550d0dd0017805976	833300159	1	main_z	11	main_z	129	stimuli_target_diamondcircles.svg	stimuli_distractor_trianglediamonds.svg	19	yes	44	1	993
6.6.1	win	2022-12-14	12:59:19	13:11:44	743659	5d63867550d0dd0017805976	833300159	1	main_z	11	advance_on_keypress_ZEE	130	stimuli_target_diamondcircles.svg	stimuli_distractor_trianglediamonds.svg	19	yes	57	0	854
6.6.1	win	2022-12-14	12:59:19	13:11:47	745935	5d63867550d0dd0017805976	833300159	1	main_z	11	main_z	131	stimuli_distractor_trianglediamonds.svg	stimuli_target_circlediamonds.svg	10	yes	44	1	783
6.6.1	win	2022-12-14	12:59:19	13:11:47	745935	5d63867550d0dd0017805976	833300159	1	main_z	11	advance_on_keypress_ZEE	132	stimuli_distractor_trianglediamonds.svg	stimuli_target_circlediamonds.svg	10	yes	57	0	464
6.6.1	win	2022-12-14	12:59:19	13:11:50	749054	5d63867550d0dd0017805976	833300159	1	main_z	11	main_z	133	stimuli_distractor_trianglediamonds.svg	stimuli_distractor_trianglediamonds.svg	34	no	0	1	2000
6.6.1	win	2022-12-14	12:59:19	13:11:50	749054	5d63867550d0dd0017805976	833300159	1	main_z	11	advance_on_keypress_ZEE	134	stimuli_distractor_trianglediamonds.svg	stimuli_distractor_trianglediamonds.svg	34	no	57	0	336
6.6.1	win	2022-12-14	12:59:19	13:11:51	750892	5d63867550d0dd0017805976	833300159	1	main_z	11	main_z	135	stimuli_distractor_diamondtriangles.svg	stimuli_target_trianglesquares.svg	30	yes	44	1	850
6.6.1	win	2022-12-14	12:59:19	13:11:51	750892	5d63867550d0dd0017805976	833300159	1	main_z	11	advance_on_keypress_ZEE	136	stimuli_distractor_diamondtriangles.svg	stimuli_target_trianglesquares.svg	30	yes	57	0	321
6.6.1	win	2022-12-14	12:59:19	13:11:53	752747	5d63867550d0dd0017805976	833300159	1	main_z	11	main_z	137	stimuli_distractor_diamondtriangles.svg	stimuli_target_squaretriangles.svg	15	yes	44	1	887
6.6.1	win	2022-12-14	12:59:19	13:11:53	752747	5d63867550d0dd0017805976	833300159	1	main_z	11	advance_on_keypress_ZEE	138	stimuli_distractor_diamondtriangles.svg	stimuli_target_squaretriangles.svg	15	yes	57	0	254
6.6.1	win	2022-12-14	12:59:19	13:11:55	754369	5d63867550d0dd0017805976	833300159	1	main_z	11	main_z	139	stimuli_distractor_diamondtriangles.svg	stimuli_target_circlediamonds.svg	14	yes	44	1	724
6.6.1	win	2022-12-14	12:59:19	13:11:55	754369	5d63867550d0dd0017805976	833300159	1	main_z	11	advance_on_keypress_ZEE	140	stimuli_distractor_diamondtriangles.svg	stimuli_target_circlediamonds.svg	14	yes	57	0	330
6.6.1	win	2022-12-14	12:59:19	13:11:57	756179	5d63867550d0dd0017805976	833300159	1	main_z	11	main_z	141	stimuli_distractor_trianglediamonds.svg	stimuli_target_trianglesquares.svg	26	yes	44	1	832
6.6.1	win	2022-12-14	12:59:19	13:11:57	756179	5d63867550d0dd0017805976	833300159	1	main_z	11	advance_on_keypress_ZEE	142	stimuli_distractor_trianglediamonds.svg	stimuli_target_trianglesquares.svg	26	yes	57	0	248
6.6.1	win	2022-12-14	12:59:19	13:11:59	757999	5d63867550d0dd0017805976	833300159	1	main_z	11	main_z	143	stimuli_distractor_diamondtriangles.svg	stimuli_target_squarediamonds.svg	16	yes	44	1	916
6.6.1	win	2022-12-14	12:59:19	13:11:59	757999	5d63867550d0dd0017805976	833300159	1	main_z	11	advance_on_keypress_ZEE	144	stimuli_distractor_diamondtriangles.svg	stimuli_target_squarediamonds.svg	16	yes	57	0	293
6.6.1	win	2022-12-14	12:59:19	13:12:01	760455	5d63867550d0dd0017805976	833300159	1	main_z	11	main_z	145	stimuli_target_trianglecircles.svg	stimuli_distractor_trianglediamonds.svg	17	yes	44	1	1522
6.6.1	win	2022-12-14	12:59:19	13:12:01	760455	5d63867550d0dd0017805976	833300159	1	main_z	11	advance_on_keypress_ZEE	146	stimuli_target_trianglecircles.svg	stimuli_distractor_trianglediamonds.svg	17	yes	57	0	89
6.6.1	win	2022-12-14	12:59:19	13:12:04	763187	5d63867550d0dd0017805976	833300159	1	main_z	11	main_z	147	stimuli_distractor_trianglediamonds.svg	stimuli_distractor_diamondtriangles.svg	35	no	0	1	2000
6.6.1	win	2022-12-14	12:59:19	13:12:04	763187	5d63867550d0dd0017805976	833300159	1	main_z	11	advance_on_keypress_ZEE	148	stimuli_distractor_trianglediamonds.svg	stimuli_distractor_diamondtriangles.svg	35	no	57	0	879
6.6.1	win	2022-12-14	12:59:19	13:12:06	765401	5d63867550d0dd0017805976	833300159	1	main_z	11	main_z	149	stimuli_target_circletriangles.svg	stimuli_distractor_trianglediamonds.svg	1	yes	44	1	677
6.6.1	win	2022-12-14	12:59:19	13:12:06	765401	5d63867550d0dd0017805976	833300159	1	main_z	11	advance_on_keypress_ZEE	150	stimuli_target_circletriangles.svg	stimuli_distractor_trianglediamonds.svg	1	yes	57	0	784
6.6.1	win	2022-12-14	12:59:19	13:12:09	768827	5d63867550d0dd0017805976	833300159	1	main_z	11	main_z	151	stimuli_distractor_diamondtriangles.svg	stimuli_distractor_diamondtriangles.svg	40	no	0	1	2000
6.6.1	win	2022-12-14	12:59:19	13:12:09	768827	5d63867550d0dd0017805976	833300159	1	main_z	11	advance_on_keypress_ZEE	152	stimuli_distractor_diamondtriangles.svg	stimuli_distractor_diamondtriangles.svg	40	no	57	0	436
6.6.1	win	2022-12-14	12:59:19	13:12:11	770756	5d63867550d0dd0017805976	833300159	1	main_z	11	main_z	153	stimuli_distractor_trianglediamonds.svg	stimuli_target_circletriangles.svg	9	yes	44	1	843
6.6.1	win	2022-12-14	12:59:19	13:12:11	770756	5d63867550d0dd0017805976	833300159	1	main_z	11	advance_on_keypress_ZEE	154	stimuli_distractor_trianglediamonds.svg	stimuli_target_circletriangles.svg	9	yes	57	0	426
6.6.1	win	2022-12-14	12:59:19	13:12:13	772652	5d63867550d0dd0017805976	833300159	1	main_z	11	main_z	155	stimuli_target_squarediamonds.svg	stimuli_distractor_diamondtriangles.svg	8	yes	44	1	836
6.6.1	win	2022-12-14	12:59:19	13:12:13	772652	5d63867550d0dd0017805976	833300159	1	main_z	11	advance_on_keypress_ZEE	156	stimuli_target_squarediamonds.svg	stimuli_distractor_diamondtriangles.svg	8	yes	57	0	460
6.6.1	win	2022-12-14	12:59:19	13:12:16	775768	5d63867550d0dd0017805976	833300159	1	main_z	11	main_z	157	stimuli_target_circletriangles.svg	stimuli_distractor_diamondtriangles.svg	5	yes	0	0	2000
6.6.1	win	2022-12-14	12:59:19	13:12:16	775768	5d63867550d0dd0017805976	833300159	1	main_z	11	advance_on_keypress_ZEE	158	stimuli_target_circletriangles.svg	stimuli_distractor_diamondtriangles.svg	5	yes	57	0	824
6.6.1	win	2022-12-14	12:59:19	13:12:19	778128	5d63867550d0dd0017805976	833300159	1	main_z	11	main_z	159	stimuli_distractor_diamondtriangles.svg	stimuli_target_diamondsquares.svg	32	yes	44	1	890
6.6.1	win	2022-12-14	12:59:19	13:12:19	778128	5d63867550d0dd0017805976	833300159	1	main_z	11	advance_on_keypress_ZEE	160	stimuli_distractor_diamondtriangles.svg	stimuli_target_diamondsquares.svg	32	yes	57	0	423
6.6.1	win	2022-12-14	12:59:19	13:12:19	778128	5d63867550d0dd0017805976	833300159	1	inst_14_end_questions	12			stimuli_distractor_diamondtriangles.svg	stimuli_target_diamondsquares.svg	32	yes	Ctrl+'Q'		