build	computer.platform	date	time	timestamp	time_elapsed_ms	subject	group	session	blockcode	blocknum	trialcode	trialnum	stimulus_left	stimulus_right	stim_index	target_present	response	correct	latency
6.6.0	win	2022-12-21	08:32:11	08:34:57	163265	5ffc9218eb4ab30bbeb6c301	525399763	1	practice_slash	5	practice_slash	1	stimuli_target_diamondsquares.svg	stimuli_distractor_trianglediamonds.svg	6	yes	0	0	2000
6.6.0	win	2022-12-21	08:32:11	08:34:57	163265	5ffc9218eb4ab30bbeb6c301	525399763	1	practice_slash	5	advance_on_keypress_SLASH	2	stimuli_target_diamondsquares.svg	stimuli_distractor_trianglediamonds.svg	6	yes	57	0	699
6.6.0	win	2022-12-21	08:32:11	08:35:00	166024	5ffc9218eb4ab30bbeb6c301	525399763	1	practice_slash	5	practice_slash	3	stimuli_distractor_diamondtriangles.svg	stimuli_distractor_trianglediamonds.svg	14	no	53	0	403
6.6.0	win	2022-12-21	08:32:11	08:35:00	166024	5ffc9218eb4ab30bbeb6c301	525399763	1	practice_slash	5	advance_on_keypress_SLASH	4	stimuli_distractor_diamondtriangles.svg	stimuli_distractor_trianglediamonds.svg	14	no	57	0	1324
6.6.0	win	2022-12-21	08:32:11	08:35:04	170001	5ffc9218eb4ab30bbeb6c301	525399763	1	practice_slash	5	practice_slash	5	stimuli_target_squarediamonds.svg	stimuli_distractor_diamondtriangles.svg	2	yes	53	1	994
6.6.0	win	2022-12-21	08:32:11	08:35:04	170001	5ffc9218eb4ab30bbeb6c301	525399763	1	practice_slash	5	advance_on_keypress_SLASH	6	stimuli_target_squarediamonds.svg	stimuli_distractor_diamondtriangles.svg	2	yes	57	0	1636
6.6.0	win	2022-12-21	08:32:11	08:35:08	173817	5ffc9218eb4ab30bbeb6c301	525399763	1	practice_slash	5	practice_slash	7	stimuli_distractor_diamondtriangles.svg	stimuli_target_trianglecircles.svg	9	yes	53	1	538
6.6.0	win	2022-12-21	08:32:11	08:35:08	173817	5ffc9218eb4ab30bbeb6c301	525399763	1	practice_slash	5	advance_on_keypress_SLASH	8	stimuli_distractor_diamondtriangles.svg	stimuli_target_trianglecircles.svg	9	yes	57	0	670
6.6.0	win	2022-12-21	08:32:11	08:35:11	176619	5ffc9218eb4ab30bbeb6c301	525399763	1	practice_slash	5	practice_slash	9	stimuli_target_squarediamonds.svg	stimuli_distractor_trianglediamonds.svg	5	yes	53	1	484
6.6.0	win	2022-12-21	08:32:11	08:35:11	176619	5ffc9218eb4ab30bbeb6c301	525399763	1	practice_slash	5	advance_on_keypress_SLASH	10	stimuli_target_squarediamonds.svg	stimuli_distractor_trianglediamonds.svg	5	yes	57	0	553
6.6.0	win	2022-12-21	08:32:11	08:35:13	179240	5ffc9218eb4ab30bbeb6c301	525399763	1	practice_slash	5	practice_slash	11	stimuli_target_circlediamonds.svg	stimuli_distractor_trianglediamonds.svg	4	yes	53	1	420
6.6.0	win	2022-12-21	08:32:11	08:35:13	179240	5ffc9218eb4ab30bbeb6c301	525399763	1	practice_slash	5	advance_on_keypress_SLASH	12	stimuli_target_circlediamonds.svg	stimuli_distractor_trianglediamonds.svg	4	yes	57	0	665
6.6.0	win	2022-12-21	08:32:11	08:35:16	181880	5ffc9218eb4ab30bbeb6c301	525399763	1	practice_slash	5	practice_slash	13	stimuli_target_circlediamonds.svg	stimuli_distractor_diamondtriangles.svg	1	yes	53	1	324
6.6.0	win	2022-12-21	08:32:11	08:35:16	181880	5ffc9218eb4ab30bbeb6c301	525399763	1	practice_slash	5	advance_on_keypress_SLASH	14	stimuli_target_circlediamonds.svg	stimuli_distractor_diamondtriangles.svg	1	yes	57	0	483
6.6.0	win	2022-12-21	08:32:11	08:35:20	186010	5ffc9218eb4ab30bbeb6c301	525399763	1	practice_slash	5	practice_slash	15	stimuli_distractor_trianglediamonds.svg	stimuli_distractor_diamondtriangles.svg	16	no	0	1	2000
6.6.0	win	2022-12-21	08:32:11	08:35:20	186010	5ffc9218eb4ab30bbeb6c301	525399763	1	practice_slash	5	advance_on_keypress_SLASH	16	stimuli_distractor_trianglediamonds.svg	stimuli_distractor_diamondtriangles.svg	16	no	57	0	480
6.6.0	win	2022-12-21	08:32:11	08:35:23	188494	5ffc9218eb4ab30bbeb6c301	525399763	1	practice_slash	5	practice_slash	17	stimuli_distractor_diamondtriangles.svg	stimuli_target_circletriangles.svg	7	yes	53	1	346
6.6.0	win	2022-12-21	08:32:11	08:35:23	188494	5ffc9218eb4ab30bbeb6c301	525399763	1	practice_slash	5	advance_on_keypress_SLASH	18	stimuli_distractor_diamondtriangles.svg	stimuli_target_circletriangles.svg	7	yes	57	0	809
6.6.0	win	2022-12-21	08:32:11	08:35:27	192968	5ffc9218eb4ab30bbeb6c301	525399763	1	practice_slash	5	practice_slash	19	stimuli_distractor_trianglediamonds.svg	stimuli_target_circlediamonds.svg	10	yes	0	0	2000
6.6.0	win	2022-12-21	08:32:11	08:35:27	192968	5ffc9218eb4ab30bbeb6c301	525399763	1	practice_slash	5	advance_on_keypress_SLASH	20	stimuli_distractor_trianglediamonds.svg	stimuli_target_circlediamonds.svg	10	yes	57	0	496
6.6.0	win	2022-12-21	08:32:11	08:35:30	195580	5ffc9218eb4ab30bbeb6c301	525399763	1	practice_slash	5	practice_slash	21	stimuli_distractor_diamondtriangles.svg	stimuli_target_diamondcircles.svg	8	yes	53	1	457
6.6.0	win	2022-12-21	08:32:11	08:35:30	195580	5ffc9218eb4ab30bbeb6c301	525399763	1	practice_slash	5	advance_on_keypress_SLASH	22	stimuli_distractor_diamondtriangles.svg	stimuli_target_diamondcircles.svg	8	yes	57	0	635
6.6.0	win	2022-12-21	08:32:11	08:35:34	199860	5ffc9218eb4ab30bbeb6c301	525399763	1	practice_slash	5	practice_slash	23	stimuli_distractor_trianglediamonds.svg	stimuli_distractor_trianglediamonds.svg	15	no	0	1	2000
6.6.0	win	2022-12-21	08:32:11	08:35:34	199860	5ffc9218eb4ab30bbeb6c301	525399763	1	practice_slash	5	advance_on_keypress_SLASH	24	stimuli_distractor_trianglediamonds.svg	stimuli_distractor_trianglediamonds.svg	15	no	57	0	473
6.6.0	win	2022-12-21	08:32:11	08:35:36	202234	5ffc9218eb4ab30bbeb6c301	525399763	1	practice_slash	5	practice_slash	25	stimuli_distractor_trianglediamonds.svg	stimuli_target_squarediamonds.svg	11	yes	53	1	251
6.6.0	win	2022-12-21	08:32:11	08:35:36	202234	5ffc9218eb4ab30bbeb6c301	525399763	1	practice_slash	5	advance_on_keypress_SLASH	26	stimuli_distractor_trianglediamonds.svg	stimuli_target_squarediamonds.svg	11	yes	57	0	577
6.6.0	win	2022-12-21	08:32:11	08:35:40	206468	5ffc9218eb4ab30bbeb6c301	525399763	1	practice_slash	5	practice_slash	27	stimuli_distractor_diamondtriangles.svg	stimuli_distractor_diamondtriangles.svg	13	no	0	1	2000
6.6.0	win	2022-12-21	08:32:11	08:35:40	206468	5ffc9218eb4ab30bbeb6c301	525399763	1	practice_slash	5	advance_on_keypress_SLASH	28	stimuli_distractor_diamondtriangles.svg	stimuli_distractor_diamondtriangles.svg	13	no	57	0	601
6.6.0	win	2022-12-21	08:32:11	08:35:43	208967	5ffc9218eb4ab30bbeb6c301	525399763	1	practice_slash	5	practice_slash	29	stimuli_distractor_trianglediamonds.svg	stimuli_target_diamondcircles.svg	12	yes	53	1	244
6.6.0	win	2022-12-21	08:32:11	08:35:43	208967	5ffc9218eb4ab30bbeb6c301	525399763	1	practice_slash	5	advance_on_keypress_SLASH	30	stimuli_distractor_trianglediamonds.svg	stimuli_target_diamondcircles.svg	12	yes	57	0	588
6.6.0	win	2022-12-21	08:32:11	08:35:46	211518	5ffc9218eb4ab30bbeb6c301	525399763	1	practice_slash	5	practice_slash	31	stimuli_target_diamondsquares.svg	stimuli_distractor_diamondtriangles.svg	3	yes	53	1	325
6.6.0	win	2022-12-21	08:32:11	08:35:46	211518	5ffc9218eb4ab30bbeb6c301	525399763	1	practice_slash	5	advance_on_keypress_SLASH	32	stimuli_target_diamondsquares.svg	stimuli_distractor_diamondtriangles.svg	3	yes	57	0	664
6.6.0	win	2022-12-21	08:32:11	08:35:50	216394	5ffc9218eb4ab30bbeb6c301	525399763	1	main_slash	7	main_slash	1	stimuli_distractor_trianglediamonds.svg	stimuli_target_circlediamonds.svg	10	yes	53	1	461
6.6.0	win	2022-12-21	08:32:11	08:35:50	216394	5ffc9218eb4ab30bbeb6c301	525399763	1	main_slash	7	advance_on_keypress_SLASH	2	stimuli_distractor_trianglediamonds.svg	stimuli_target_circlediamonds.svg	10	yes	57	0	932
6.6.0	win	2022-12-21	08:32:11	08:35:52	218291	5ffc9218eb4ab30bbeb6c301	525399763	1	main_slash	7	main_slash	3	stimuli_distractor_diamondtriangles.svg	stimuli_distractor_trianglediamonds.svg	38	no	53	0	290
6.6.0	win	2022-12-21	08:32:11	08:35:52	218291	5ffc9218eb4ab30bbeb6c301	525399763	1	main_slash	7	advance_on_keypress_SLASH	4	stimuli_distractor_diamondtriangles.svg	stimuli_distractor_trianglediamonds.svg	38	no	57	0	694
6.6.0	win	2022-12-21	08:32:11	08:35:56	221636	5ffc9218eb4ab30bbeb6c301	525399763	1	main_slash	7	main_slash	5	stimuli_distractor_diamondtriangles.svg	stimuli_target_circletriangles.svg	13	yes	0	0	2000
6.6.0	win	2022-12-21	08:32:11	08:35:56	221636	5ffc9218eb4ab30bbeb6c301	525399763	1	main_slash	7	advance_on_keypress_SLASH	6	stimuli_distractor_diamondtriangles.svg	stimuli_target_circletriangles.svg	13	yes	57	0	537
6.6.0	win	2022-12-21	08:32:11	08:35:57	223245	5ffc9218eb4ab30bbeb6c301	525399763	1	main_slash	7	main_slash	7	stimuli_target_trianglecircles.svg	stimuli_distractor_diamondtriangles.svg	21	yes	53	1	422
6.6.0	win	2022-12-21	08:32:11	08:35:57	223245	5ffc9218eb4ab30bbeb6c301	525399763	1	main_slash	7	advance_on_keypress_SLASH	8	stimuli_target_trianglecircles.svg	stimuli_distractor_diamondtriangles.svg	21	yes	57	0	875
6.6.0	win	2022-12-21	08:32:11	08:36:01	226759	5ffc9218eb4ab30bbeb6c301	525399763	1	main_slash	7	main_slash	9	stimuli_distractor_diamondtriangles.svg	stimuli_distractor_trianglediamonds.svg	37	no	0	1	2000
6.6.0	win	2022-12-21	08:32:11	08:36:01	226759	5ffc9218eb4ab30bbeb6c301	525399763	1	main_slash	7	advance_on_keypress_SLASH	10	stimuli_distractor_diamondtriangles.svg	stimuli_distractor_trianglediamonds.svg	37	no	57	0	564
6.6.0	win	2022-12-21	08:32:11	08:36:03	228586	5ffc9218eb4ab30bbeb6c301	525399763	1	main_slash	7	main_slash	11	stimuli_distractor_diamondtriangles.svg	stimuli_distractor_diamondtriangles.svg	39	no	53	0	606
6.6.0	win	2022-12-21	08:32:11	08:36:03	228586	5ffc9218eb4ab30bbeb6c301	525399763	1	main_slash	7	advance_on_keypress_SLASH	12	stimuli_distractor_diamondtriangles.svg	stimuli_distractor_diamondtriangles.svg	39	no	57	0	700
6.6.0	win	2022-12-21	08:32:11	08:36:06	231932	5ffc9218eb4ab30bbeb6c301	525399763	1	main_slash	7	main_slash	13	stimuli_distractor_trianglediamonds.svg	stimuli_distractor_trianglediamonds.svg	33	no	0	1	2000
6.6.0	win	2022-12-21	08:32:11	08:36:06	231932	5ffc9218eb4ab30bbeb6c301	525399763	1	main_slash	7	advance_on_keypress_SLASH	14	stimuli_distractor_trianglediamonds.svg	stimuli_distractor_trianglediamonds.svg	33	no	57	0	446
6.6.0	win	2022-12-21	08:32:11	08:36:07	233260	5ffc9218eb4ab30bbeb6c301	525399763	1	main_slash	7	main_slash	15	stimuli_target_squaretriangles.svg	stimuli_distractor_trianglediamonds.svg	3	yes	53	1	224
6.6.0	win	2022-12-21	08:32:11	08:36:07	233260	5ffc9218eb4ab30bbeb6c301	525399763	1	main_slash	7	advance_on_keypress_SLASH	16	stimuli_target_squaretriangles.svg	stimuli_distractor_trianglediamonds.svg	3	yes	57	0	810
6.6.0	win	2022-12-21	08:32:11	08:36:10	235673	5ffc9218eb4ab30bbeb6c301	525399763	1	main_slash	7	main_slash	17	stimuli_distractor_trianglediamonds.svg	stimuli_target_diamondcircles.svg	27	yes	53	1	968
6.6.0	win	2022-12-21	08:32:11	08:36:10	235673	5ffc9218eb4ab30bbeb6c301	525399763	1	main_slash	7	advance_on_keypress_SLASH	18	stimuli_distractor_trianglediamonds.svg	stimuli_target_diamondcircles.svg	27	yes	57	0	611
6.6.0	win	2022-12-21	08:32:11	08:36:13	238924	5ffc9218eb4ab30bbeb6c301	525399763	1	main_slash	7	main_slash	19	stimuli_distractor_trianglediamonds.svg	stimuli_distractor_trianglediamonds.svg	34	no	0	1	2000
6.6.0	win	2022-12-21	08:32:11	08:36:13	238924	5ffc9218eb4ab30bbeb6c301	525399763	1	main_slash	7	advance_on_keypress_SLASH	20	stimuli_distractor_trianglediamonds.svg	stimuli_distractor_trianglediamonds.svg	34	no	57	0	379
6.6.0	win	2022-12-21	08:32:11	08:36:14	240192	5ffc9218eb4ab30bbeb6c301	525399763	1	main_slash	7	main_slash	21	stimuli_distractor_diamondtriangles.svg	stimuli_target_diamondcircles.svg	31	yes	53	1	231
6.6.0	win	2022-12-21	08:32:11	08:36:14	240192	5ffc9218eb4ab30bbeb6c301	525399763	1	main_slash	7	advance_on_keypress_SLASH	22	stimuli_distractor_diamondtriangles.svg	stimuli_target_diamondcircles.svg	31	yes	57	0	1260
6.6.0	win	2022-12-21	08:32:11	08:36:17	242485	5ffc9218eb4ab30bbeb6c301	525399763	1	main_slash	7	main_slash	23	stimuli_distractor_diamondtriangles.svg	stimuli_target_squarediamonds.svg	16	yes	53	1	388
6.6.0	win	2022-12-21	08:32:11	08:36:17	242485	5ffc9218eb4ab30bbeb6c301	525399763	1	main_slash	7	advance_on_keypress_SLASH	24	stimuli_distractor_diamondtriangles.svg	stimuli_target_squarediamonds.svg	16	yes	57	0	538
6.6.0	win	2022-12-21	08:32:11	08:36:18	244224	5ffc9218eb4ab30bbeb6c301	525399763	1	main_slash	7	main_slash	25	stimuli_distractor_trianglediamonds.svg	stimuli_target_trianglecircles.svg	25	yes	53	1	558
6.6.0	win	2022-12-21	08:32:11	08:36:18	244224	5ffc9218eb4ab30bbeb6c301	525399763	1	main_slash	7	advance_on_keypress_SLASH	26	stimuli_distractor_trianglediamonds.svg	stimuli_target_trianglecircles.svg	25	yes	57	0	664
6.6.0	win	2022-12-21	08:32:11	08:36:22	247535	5ffc9218eb4ab30bbeb6c301	525399763	1	main_slash	7	main_slash	27	stimuli_distractor_diamondtriangles.svg	stimuli_target_circlediamonds.svg	14	yes	0	0	2000
6.6.0	win	2022-12-21	08:32:11	08:36:22	247535	5ffc9218eb4ab30bbeb6c301	525399763	1	main_slash	7	advance_on_keypress_SLASH	28	stimuli_distractor_diamondtriangles.svg	stimuli_target_circlediamonds.svg	14	yes	57	0	384
6.6.0	win	2022-12-21	08:32:11	08:36:23	248855	5ffc9218eb4ab30bbeb6c301	525399763	1	main_slash	7	main_slash	29	stimuli_distractor_diamondtriangles.svg	stimuli_target_diamondsquares.svg	32	yes	53	1	283
6.6.0	win	2022-12-21	08:32:11	08:36:23	248855	5ffc9218eb4ab30bbeb6c301	525399763	1	main_slash	7	advance_on_keypress_SLASH	30	stimuli_distractor_diamondtriangles.svg	stimuli_target_diamondsquares.svg	32	yes	57	0	863
6.6.0	win	2022-12-21	08:32:11	08:36:25	250898	5ffc9218eb4ab30bbeb6c301	525399763	1	main_slash	7	main_slash	31	stimuli_target_squarediamonds.svg	stimuli_distractor_diamondtriangles.svg	8	yes	53	1	524
6.6.0	win	2022-12-21	08:32:11	08:36:25	250898	5ffc9218eb4ab30bbeb6c301	525399763	1	main_slash	7	advance_on_keypress_SLASH	32	stimuli_target_squarediamonds.svg	stimuli_distractor_diamondtriangles.svg	8	yes	57	0	755
6.6.0	win	2022-12-21	08:32:11	08:36:27	252578	5ffc9218eb4ab30bbeb6c301	525399763	1	main_slash	7	main_slash	33	stimuli_target_diamondsquares.svg	stimuli_distractor_trianglediamonds.svg	20	yes	53	1	285
6.6.0	win	2022-12-21	08:32:11	08:36:27	252578	5ffc9218eb4ab30bbeb6c301	525399763	1	main_slash	7	advance_on_keypress_SLASH	34	stimuli_target_diamondsquares.svg	stimuli_distractor_trianglediamonds.svg	20	yes	57	0	867
6.6.0	win	2022-12-21	08:32:11	08:36:28	254362	5ffc9218eb4ab30bbeb6c301	525399763	1	main_slash	7	main_slash	35	stimuli_target_trianglecircles.svg	stimuli_distractor_trianglediamonds.svg	17	yes	53	1	267
6.6.0	win	2022-12-21	08:32:11	08:36:28	254362	5ffc9218eb4ab30bbeb6c301	525399763	1	main_slash	7	advance_on_keypress_SLASH	36	stimuli_target_trianglecircles.svg	stimuli_distractor_trianglediamonds.svg	17	yes	57	0	595
6.6.0	win	2022-12-21	08:32:11	08:36:30	255857	5ffc9218eb4ab30bbeb6c301	525399763	1	main_slash	7	main_slash	37	stimuli_distractor_diamondtriangles.svg	stimuli_distractor_diamondtriangles.svg	40	no	53	0	243
6.6.0	win	2022-12-21	08:32:11	08:36:30	255857	5ffc9218eb4ab30bbeb6c301	525399763	1	main_slash	7	advance_on_keypress_SLASH	38	stimuli_distractor_diamondtriangles.svg	stimuli_distractor_diamondtriangles.svg	40	no	57	0	547
6.6.0	win	2022-12-21	08:32:11	08:36:33	259049	5ffc9218eb4ab30bbeb6c301	525399763	1	main_slash	7	main_slash	39	stimuli_distractor_trianglediamonds.svg	stimuli_target_squarediamonds.svg	12	yes	0	0	2000
6.6.0	win	2022-12-21	08:32:11	08:36:33	259049	5ffc9218eb4ab30bbeb6c301	525399763	1	main_slash	7	advance_on_keypress_SLASH	40	stimuli_distractor_trianglediamonds.svg	stimuli_target_squarediamonds.svg	12	yes	57	0	368
6.6.0	win	2022-12-21	08:32:11	08:36:34	260351	5ffc9218eb4ab30bbeb6c301	525399763	1	main_slash	7	main_slash	41	stimuli_distractor_diamondtriangles.svg	stimuli_target_trianglecircles.svg	29	yes	53	1	282
6.6.0	win	2022-12-21	08:32:11	08:36:34	260351	5ffc9218eb4ab30bbeb6c301	525399763	1	main_slash	7	advance_on_keypress_SLASH	42	stimuli_distractor_diamondtriangles.svg	stimuli_target_trianglecircles.svg	29	yes	57	0	512
6.6.0	win	2022-12-21	08:32:11	08:36:36	261930	5ffc9218eb4ab30bbeb6c301	525399763	1	main_slash	7	main_slash	43	stimuli_target_diamondcircles.svg	stimuli_distractor_trianglediamonds.svg	19	yes	53	1	409
6.6.0	win	2022-12-21	08:32:11	08:36:36	261930	5ffc9218eb4ab30bbeb6c301	525399763	1	main_slash	7	advance_on_keypress_SLASH	44	stimuli_target_diamondcircles.svg	stimuli_distractor_trianglediamonds.svg	19	yes	57	0	484
6.6.0	win	2022-12-21	08:32:11	08:36:37	263314	5ffc9218eb4ab30bbeb6c301	525399763	1	main_slash	7	main_slash	45	stimuli_target_squaretriangles.svg	stimuli_distractor_diamondtriangles.svg	7	yes	53	1	258
6.6.0	win	2022-12-21	08:32:11	08:36:37	263314	5ffc9218eb4ab30bbeb6c301	525399763	1	main_slash	7	advance_on_keypress_SLASH	46	stimuli_target_squaretriangles.svg	stimuli_distractor_diamondtriangles.svg	7	yes	57	0	707
6.6.0	win	2022-12-21	08:32:11	08:36:39	264869	5ffc9218eb4ab30bbeb6c301	525399763	1	main_slash	7	main_slash	47	stimuli_distractor_trianglediamonds.svg	stimuli_target_circletriangles.svg	9	yes	53	1	210
6.6.0	win	2022-12-21	08:32:11	08:36:39	264869	5ffc9218eb4ab30bbeb6c301	525399763	1	main_slash	7	advance_on_keypress_SLASH	48	stimuli_distractor_trianglediamonds.svg	stimuli_target_circletriangles.svg	9	yes	57	0	1017
6.6.0	win	2022-12-21	08:32:11	08:36:41	266739	5ffc9218eb4ab30bbeb6c301	525399763	1	main_slash	7	main_slash	49	stimuli_distractor_trianglediamonds.svg	stimuli_target_diamondsquares.svg	28	yes	53	1	212
6.6.0	win	2022-12-21	08:32:11	08:36:41	266739	5ffc9218eb4ab30bbeb6c301	525399763	1	main_slash	7	advance_on_keypress_SLASH	50	stimuli_distractor_trianglediamonds.svg	stimuli_target_diamondsquares.svg	28	yes	57	0	727
6.6.0	win	2022-12-21	08:32:11	08:36:42	268331	5ffc9218eb4ab30bbeb6c301	525399763	1	main_slash	7	main_slash	51	stimuli_distractor_diamondtriangles.svg	stimuli_target_squaretriangles.svg	15	yes	53	1	218
6.6.0	win	2022-12-21	08:32:11	08:36:42	268331	5ffc9218eb4ab30bbeb6c301	525399763	1	main_slash	7	advance_on_keypress_SLASH	52	stimuli_distractor_diamondtriangles.svg	stimuli_target_squaretriangles.svg	15	yes	57	0	639
6.6.0	win	2022-12-21	08:32:11	08:36:44	270244	5ffc9218eb4ab30bbeb6c301	525399763	1	main_slash	7	main_slash	53	stimuli_distractor_diamondtriangles.svg	stimuli_target_trianglesquares.svg	30	yes	53	1	629
6.6.0	win	2022-12-21	08:32:11	08:36:44	270244	5ffc9218eb4ab30bbeb6c301	525399763	1	main_slash	7	advance_on_keypress_SLASH	54	stimuli_distractor_diamondtriangles.svg	stimuli_target_trianglesquares.svg	30	yes	57	0	590
6.6.0	win	2022-12-21	08:32:11	08:36:46	271720	5ffc9218eb4ab30bbeb6c301	525399763	1	main_slash	7	main_slash	55	stimuli_target_circlediamonds.svg	stimuli_distractor_diamondtriangles.svg	6	yes	53	1	236
6.6.0	win	2022-12-21	08:32:11	08:36:46	271720	5ffc9218eb4ab30bbeb6c301	525399763	1	main_slash	7	advance_on_keypress_SLASH	56	stimuli_target_circlediamonds.svg	stimuli_distractor_diamondtriangles.svg	6	yes	57	0	597
6.6.0	win	2022-12-21	08:32:11	08:36:47	273231	5ffc9218eb4ab30bbeb6c301	525399763	1	main_slash	7	main_slash	57	stimuli_target_diamondsquares.svg	stimuli_distractor_diamondtriangles.svg	24	yes	53	1	262
6.6.0	win	2022-12-21	08:32:11	08:36:47	273231	5ffc9218eb4ab30bbeb6c301	525399763	1	main_slash	7	advance_on_keypress_SLASH	58	stimuli_target_diamondsquares.svg	stimuli_distractor_diamondtriangles.svg	24	yes	57	0	852
6.6.0	win	2022-12-21	08:32:11	08:36:49	274982	5ffc9218eb4ab30bbeb6c301	525399763	1	main_slash	7	main_slash	59	stimuli_target_circletriangles.svg	stimuli_distractor_trianglediamonds.svg	1	yes	53	1	244
6.6.0	win	2022-12-21	08:32:11	08:36:49	274982	5ffc9218eb4ab30bbeb6c301	525399763	1	main_slash	7	advance_on_keypress_SLASH	60	stimuli_target_circletriangles.svg	stimuli_distractor_trianglediamonds.svg	1	yes	57	0	916
6.6.0	win	2022-12-21	08:32:11	08:36:51	276787	5ffc9218eb4ab30bbeb6c301	525399763	1	main_slash	7	main_slash	61	stimuli_target_trianglesquares.svg	stimuli_distractor_trianglediamonds.svg	18	yes	53	1	247
6.6.0	win	2022-12-21	08:32:11	08:36:51	276787	5ffc9218eb4ab30bbeb6c301	525399763	1	main_slash	7	advance_on_keypress_SLASH	62	stimuli_target_trianglesquares.svg	stimuli_distractor_trianglediamonds.svg	18	yes	57	0	820
6.6.0	win	2022-12-21	08:32:11	08:36:53	278558	5ffc9218eb4ab30bbeb6c301	525399763	1	main_slash	7	main_slash	63	stimuli_distractor_trianglediamonds.svg	stimuli_target_trianglesquares.svg	26	yes	53	1	299
6.6.0	win	2022-12-21	08:32:11	08:36:53	278558	5ffc9218eb4ab30bbeb6c301	525399763	1	main_slash	7	advance_on_keypress_SLASH	64	stimuli_distractor_trianglediamonds.svg	stimuli_target_trianglesquares.svg	26	yes	57	0	529
6.6.0	win	2022-12-21	08:32:11	08:36:54	279962	5ffc9218eb4ab30bbeb6c301	525399763	1	main_slash	7	main_slash	65	stimuli_distractor_trianglediamonds.svg	stimuli_distractor_diamondtriangles.svg	36	no	53	0	218
6.6.0	win	2022-12-21	08:32:11	08:36:54	279962	5ffc9218eb4ab30bbeb6c301	525399763	1	main_slash	7	advance_on_keypress_SLASH	66	stimuli_distractor_trianglediamonds.svg	stimuli_distractor_diamondtriangles.svg	36	no	57	0	592
6.6.0	win	2022-12-21	08:32:11	08:36:57	283196	5ffc9218eb4ab30bbeb6c301	525399763	1	main_slash	7	main_slash	67	stimuli_target_circlediamonds.svg	stimuli_distractor_trianglediamonds.svg	2	yes	0	0	2000
6.6.0	win	2022-12-21	08:32:11	08:36:57	283196	5ffc9218eb4ab30bbeb6c301	525399763	1	main_slash	7	advance_on_keypress_SLASH	68	stimuli_target_circlediamonds.svg	stimuli_distractor_trianglediamonds.svg	2	yes	57	0	311
6.6.0	win	2022-12-21	08:32:11	08:36:59	284549	5ffc9218eb4ab30bbeb6c301	525399763	1	main_slash	7	main_slash	69	stimuli_distractor_trianglediamonds.svg	stimuli_target_squaretriangles.svg	11	yes	53	1	383
6.6.0	win	2022-12-21	08:32:11	08:36:59	284549	5ffc9218eb4ab30bbeb6c301	525399763	1	main_slash	7	advance_on_keypress_SLASH	70	stimuli_distractor_trianglediamonds.svg	stimuli_target_squaretriangles.svg	11	yes	57	0	726
6.6.0	win	2022-12-21	08:32:11	08:37:00	286231	5ffc9218eb4ab30bbeb6c301	525399763	1	main_slash	7	main_slash	71	stimuli_target_circletriangles.svg	stimuli_distractor_diamondtriangles.svg	5	yes	53	1	313
6.6.0	win	2022-12-21	08:32:11	08:37:00	286231	5ffc9218eb4ab30bbeb6c301	525399763	1	main_slash	7	advance_on_keypress_SLASH	72	stimuli_target_circletriangles.svg	stimuli_distractor_diamondtriangles.svg	5	yes	57	0	485
6.6.0	win	2022-12-21	08:32:11	08:37:02	287894	5ffc9218eb4ab30bbeb6c301	525399763	1	main_slash	7	main_slash	73	stimuli_target_diamondcircles.svg	stimuli_distractor_diamondtriangles.svg	23	yes	53	1	524
6.6.0	win	2022-12-21	08:32:11	08:37:02	287894	5ffc9218eb4ab30bbeb6c301	525399763	1	main_slash	7	advance_on_keypress_SLASH	74	stimuli_target_diamondcircles.svg	stimuli_distractor_diamondtriangles.svg	23	yes	57	0	589
6.6.0	win	2022-12-21	08:32:11	08:37:04	289591	5ffc9218eb4ab30bbeb6c301	525399763	1	main_slash	7	main_slash	75	stimuli_distractor_trianglediamonds.svg	stimuli_distractor_diamondtriangles.svg	35	no	53	0	469
6.6.0	win	2022-12-21	08:32:11	08:37:04	289591	5ffc9218eb4ab30bbeb6c301	525399763	1	main_slash	7	advance_on_keypress_SLASH	76	stimuli_distractor_trianglediamonds.svg	stimuli_distractor_diamondtriangles.svg	35	no	57	0	561
6.6.0	win	2022-12-21	08:32:11	08:37:05	291121	5ffc9218eb4ab30bbeb6c301	525399763	1	main_slash	7	main_slash	77	stimuli_target_squarediamonds.svg	stimuli_distractor_trianglediamonds.svg	4	yes	53	1	313
6.6.0	win	2022-12-21	08:32:11	08:37:05	291121	5ffc9218eb4ab30bbeb6c301	525399763	1	main_slash	7	advance_on_keypress_SLASH	78	stimuli_target_squarediamonds.svg	stimuli_distractor_trianglediamonds.svg	4	yes	57	0	474
6.6.0	win	2022-12-21	08:32:11	08:37:07	292597	5ffc9218eb4ab30bbeb6c301	525399763	1	main_slash	7	main_slash	79	stimuli_target_trianglesquares.svg	stimuli_distractor_diamondtriangles.svg	22	yes	53	1	354
6.6.0	win	2022-12-21	08:32:11	08:37:07	292597	5ffc9218eb4ab30bbeb6c301	525399763	1	main_slash	7	advance_on_keypress_SLASH	80	stimuli_target_trianglesquares.svg	stimuli_distractor_diamondtriangles.svg	22	yes	57	0	519
6.6.0	win	2022-12-21	08:32:11	08:37:08	294074	5ffc9218eb4ab30bbeb6c301	525399763	1	main_slash	7	main_slash	81	stimuli_target_circlediamonds.svg	stimuli_distractor_diamondtriangles.svg	6	yes	53	1	313
6.6.0	win	2022-12-21	08:32:11	08:37:08	294074	5ffc9218eb4ab30bbeb6c301	525399763	1	main_slash	7	advance_on_keypress_SLASH	82	stimuli_target_circlediamonds.svg	stimuli_distractor_diamondtriangles.svg	6	yes	57	0	522
6.6.0	win	2022-12-21	08:32:11	08:37:10	295494	5ffc9218eb4ab30bbeb6c301	525399763	1	main_slash	7	main_slash	83	stimuli_target_circlediamonds.svg	stimuli_distractor_trianglediamonds.svg	2	yes	53	1	248
6.6.0	win	2022-12-21	08:32:11	08:37:10	295494	5ffc9218eb4ab30bbeb6c301	525399763	1	main_slash	7	advance_on_keypress_SLASH	84	stimuli_target_circlediamonds.svg	stimuli_distractor_trianglediamonds.svg	2	yes	57	0	540
6.6.0	win	2022-12-21	08:32:11	08:37:11	296948	5ffc9218eb4ab30bbeb6c301	525399763	1	main_slash	7	main_slash	85	stimuli_target_trianglesquares.svg	stimuli_distractor_diamondtriangles.svg	22	yes	53	1	266
6.6.0	win	2022-12-21	08:32:11	08:37:11	296948	5ffc9218eb4ab30bbeb6c301	525399763	1	main_slash	7	advance_on_keypress_SLASH	86	stimuli_target_trianglesquares.svg	stimuli_distractor_diamondtriangles.svg	22	yes	57	0	715
6.6.0	win	2022-12-21	08:32:11	08:37:13	298527	5ffc9218eb4ab30bbeb6c301	525399763	1	main_slash	7	main_slash	87	stimuli_distractor_trianglediamonds.svg	stimuli_distractor_trianglediamonds.svg	34	no	53	0	210
6.6.0	win	2022-12-21	08:32:11	08:37:13	298527	5ffc9218eb4ab30bbeb6c301	525399763	1	main_slash	7	advance_on_keypress_SLASH	88	stimuli_distractor_trianglediamonds.svg	stimuli_distractor_trianglediamonds.svg	34	no	57	0	822
6.6.0	win	2022-12-21	08:32:11	08:37:14	300254	5ffc9218eb4ab30bbeb6c301	525399763	1	main_slash	7	main_slash	89	stimuli_target_diamondsquares.svg	stimuli_distractor_diamondtriangles.svg	24	yes	53	1	268
6.6.0	win	2022-12-21	08:32:11	08:37:14	300254	5ffc9218eb4ab30bbeb6c301	525399763	1	main_slash	7	advance_on_keypress_SLASH	90	stimuli_target_diamondsquares.svg	stimuli_distractor_diamondtriangles.svg	24	yes	57	0	607
6.6.0	win	2022-12-21	08:32:11	08:37:16	301806	5ffc9218eb4ab30bbeb6c301	525399763	1	main_slash	7	main_slash	91	stimuli_target_circletriangles.svg	stimuli_distractor_trianglediamonds.svg	1	yes	53	1	303
6.6.0	win	2022-12-21	08:32:11	08:37:16	301806	5ffc9218eb4ab30bbeb6c301	525399763	1	main_slash	7	advance_on_keypress_SLASH	92	stimuli_target_circletriangles.svg	stimuli_distractor_trianglediamonds.svg	1	yes	57	0	504
6.6.0	win	2022-12-21	08:32:11	08:37:17	303305	5ffc9218eb4ab30bbeb6c301	525399763	1	main_slash	7	main_slash	93	stimuli_distractor_diamondtriangles.svg	stimuli_target_diamondcircles.svg	31	yes	53	1	349
6.6.0	win	2022-12-21	08:32:11	08:37:17	303305	5ffc9218eb4ab30bbeb6c301	525399763	1	main_slash	7	advance_on_keypress_SLASH	94	stimuli_distractor_diamondtriangles.svg	stimuli_target_diamondcircles.svg	31	yes	57	0	463
6.6.0	win	2022-12-21	08:32:11	08:37:19	304479	5ffc9218eb4ab30bbeb6c301	525399763	1	main_slash	7	main_slash	95	stimuli_distractor_trianglediamonds.svg	stimuli_target_diamondcircles.svg	27	yes	53	1	54
6.6.0	win	2022-12-21	08:32:11	08:37:19	304479	5ffc9218eb4ab30bbeb6c301	525399763	1	main_slash	7	advance_on_keypress_SLASH	96	stimuli_distractor_trianglediamonds.svg	stimuli_target_diamondcircles.svg	27	yes	57	0	741
6.6.0	win	2022-12-21	08:32:11	08:37:20	305904	5ffc9218eb4ab30bbeb6c301	525399763	1	main_slash	7	main_slash	97	stimuli_target_diamondcircles.svg	stimuli_distractor_diamondtriangles.svg	23	yes	53	1	44
6.6.0	win	2022-12-21	08:32:11	08:37:20	305904	5ffc9218eb4ab30bbeb6c301	525399763	1	main_slash	7	advance_on_keypress_SLASH	98	stimuli_target_diamondcircles.svg	stimuli_distractor_diamondtriangles.svg	23	yes	57	0	1715
6.6.0	win	2022-12-21	08:32:11	08:37:23	308619	5ffc9218eb4ab30bbeb6c301	525399763	1	main_slash	7	main_slash	99	stimuli_distractor_diamondtriangles.svg	stimuli_target_trianglecircles.svg	29	yes	53	1	340
6.6.0	win	2022-12-21	08:32:11	08:37:23	308619	5ffc9218eb4ab30bbeb6c301	525399763	1	main_slash	7	advance_on_keypress_SLASH	100	stimuli_distractor_diamondtriangles.svg	stimuli_target_trianglecircles.svg	29	yes	57	0	677
6.6.0	win	2022-12-21	08:32:11	08:37:24	310361	5ffc9218eb4ab30bbeb6c301	525399763	1	main_slash	7	main_slash	101	stimuli_target_squaretriangles.svg	stimuli_distractor_diamondtriangles.svg	7	yes	53	1	430
6.6.0	win	2022-12-21	08:32:11	08:37:24	310361	5ffc9218eb4ab30bbeb6c301	525399763	1	main_slash	7	advance_on_keypress_SLASH	102	stimuli_target_squaretriangles.svg	stimuli_distractor_diamondtriangles.svg	7	yes	57	0	502
6.6.0	win	2022-12-21	08:32:11	08:37:26	311821	5ffc9218eb4ab30bbeb6c301	525399763	1	main_slash	7	main_slash	103	stimuli_target_diamondsquares.svg	stimuli_distractor_trianglediamonds.svg	20	yes	53	1	304
6.6.0	win	2022-12-21	08:32:11	08:37:26	311821	5ffc9218eb4ab30bbeb6c301	525399763	1	main_slash	7	advance_on_keypress_SLASH	104	stimuli_target_diamondsquares.svg	stimuli_distractor_trianglediamonds.svg	20	yes	57	0	538
6.6.0	win	2022-12-21	08:32:11	08:37:27	313310	5ffc9218eb4ab30bbeb6c301	525399763	1	main_slash	7	main_slash	105	stimuli_target_squarediamonds.svg	stimuli_distractor_trianglediamonds.svg	4	yes	53	1	308
6.6.0	win	2022-12-21	08:32:11	08:37:27	313310	5ffc9218eb4ab30bbeb6c301	525399763	1	main_slash	7	advance_on_keypress_SLASH	106	stimuli_target_squarediamonds.svg	stimuli_distractor_trianglediamonds.svg	4	yes	57	0	582
6.6.0	win	2022-12-21	08:32:11	08:37:29	314755	5ffc9218eb4ab30bbeb6c301	525399763	1	main_slash	7	main_slash	107	stimuli_target_trianglecircles.svg	stimuli_distractor_diamondtriangles.svg	21	yes	53	1	219
6.6.0	win	2022-12-21	08:32:11	08:37:29	314755	5ffc9218eb4ab30bbeb6c301	525399763	1	main_slash	7	advance_on_keypress_SLASH	108	stimuli_target_trianglecircles.svg	stimuli_distractor_diamondtriangles.svg	21	yes	57	0	805
6.6.0	win	2022-12-21	08:32:11	08:37:30	316419	5ffc9218eb4ab30bbeb6c301	525399763	1	main_slash	7	main_slash	109	stimuli_target_squaretriangles.svg	stimuli_distractor_trianglediamonds.svg	3	yes	53	1	213
6.6.0	win	2022-12-21	08:32:11	08:37:30	316419	5ffc9218eb4ab30bbeb6c301	525399763	1	main_slash	7	advance_on_keypress_SLASH	110	stimuli_target_squaretriangles.svg	stimuli_distractor_trianglediamonds.svg	3	yes	57	0	1311
6.6.0	win	2022-12-21	08:32:11	08:37:33	318674	5ffc9218eb4ab30bbeb6c301	525399763	1	main_slash	7	main_slash	111	stimuli_target_diamondcircles.svg	stimuli_distractor_trianglediamonds.svg	19	yes	53	1	299
6.6.0	win	2022-12-21	08:32:11	08:37:33	318674	5ffc9218eb4ab30bbeb6c301	525399763	1	main_slash	7	advance_on_keypress_SLASH	112	stimuli_target_diamondcircles.svg	stimuli_distractor_trianglediamonds.svg	19	yes	57	0	500
6.6.0	win	2022-12-21	08:32:11	08:37:34	320172	5ffc9218eb4ab30bbeb6c301	525399763	1	main_slash	7	main_slash	113	stimuli_distractor_trianglediamonds.svg	stimuli_target_diamondsquares.svg	28	yes	53	1	345
6.6.0	win	2022-12-21	08:32:11	08:37:34	320172	5ffc9218eb4ab30bbeb6c301	525399763	1	main_slash	7	advance_on_keypress_SLASH	114	stimuli_distractor_trianglediamonds.svg	stimuli_target_diamondsquares.svg	28	yes	57	0	552
6.6.0	win	2022-12-21	08:32:11	08:37:37	323379	5ffc9218eb4ab30bbeb6c301	525399763	1	main_slash	7	main_slash	115	stimuli_distractor_diamondtriangles.svg	stimuli_target_diamondsquares.svg	32	yes	0	0	2000
6.6.0	win	2022-12-21	08:32:11	08:37:37	323379	5ffc9218eb4ab30bbeb6c301	525399763	1	main_slash	7	advance_on_keypress_SLASH	116	stimuli_distractor_diamondtriangles.svg	stimuli_target_diamondsquares.svg	32	yes	57	0	361
6.6.0	win	2022-12-21	08:32:11	08:37:39	324782	5ffc9218eb4ab30bbeb6c301	525399763	1	main_slash	7	main_slash	117	stimuli_distractor_trianglediamonds.svg	stimuli_target_trianglesquares.svg	26	yes	53	1	377
6.6.0	win	2022-12-21	08:32:11	08:37:39	324782	5ffc9218eb4ab30bbeb6c301	525399763	1	main_slash	7	advance_on_keypress_SLASH	118	stimuli_distractor_trianglediamonds.svg	stimuli_target_trianglesquares.svg	26	yes	57	0	483
6.6.0	win	2022-12-21	08:32:11	08:37:40	326322	5ffc9218eb4ab30bbeb6c301	525399763	1	main_slash	7	main_slash	119	stimuli_distractor_trianglediamonds.svg	stimuli_target_squarediamonds.svg	12	yes	53	1	404
6.6.0	win	2022-12-21	08:32:11	08:37:40	326322	5ffc9218eb4ab30bbeb6c301	525399763	1	main_slash	7	advance_on_keypress_SLASH	120	stimuli_distractor_trianglediamonds.svg	stimuli_target_squarediamonds.svg	12	yes	57	0	465
6.6.0	win	2022-12-21	08:32:11	08:37:42	327878	5ffc9218eb4ab30bbeb6c301	525399763	1	main_slash	7	main_slash	121	stimuli_distractor_diamondtriangles.svg	stimuli_distractor_trianglediamonds.svg	37	no	53	0	442
6.6.0	win	2022-12-21	08:32:11	08:37:42	327878	5ffc9218eb4ab30bbeb6c301	525399763	1	main_slash	7	advance_on_keypress_SLASH	122	stimuli_distractor_diamondtriangles.svg	stimuli_distractor_trianglediamonds.svg	37	no	57	0	788
6.6.0	win	2022-12-21	08:32:11	08:37:45	331306	5ffc9218eb4ab30bbeb6c301	525399763	1	main_slash	7	main_slash	123	stimuli_distractor_diamondtriangles.svg	stimuli_distractor_trianglediamonds.svg	38	no	0	1	2000
6.6.0	win	2022-12-21	08:32:11	08:37:45	331306	5ffc9218eb4ab30bbeb6c301	525399763	1	main_slash	7	advance_on_keypress_SLASH	124	stimuli_distractor_diamondtriangles.svg	stimuli_distractor_trianglediamonds.svg	38	no	57	0	376
6.6.0	win	2022-12-21	08:32:11	08:37:47	332610	5ffc9218eb4ab30bbeb6c301	525399763	1	main_slash	7	main_slash	125	stimuli_target_trianglecircles.svg	stimuli_distractor_trianglediamonds.svg	17	yes	53	1	284
6.6.0	win	2022-12-21	08:32:11	08:37:47	332610	5ffc9218eb4ab30bbeb6c301	525399763	1	main_slash	7	advance_on_keypress_SLASH	126	stimuli_target_trianglecircles.svg	stimuli_distractor_trianglediamonds.svg	17	yes	57	0	936
6.6.0	win	2022-12-21	08:32:11	08:37:49	334506	5ffc9218eb4ab30bbeb6c301	525399763	1	main_slash	7	main_slash	127	stimuli_distractor_trianglediamonds.svg	stimuli_target_squaretriangles.svg	11	yes	53	1	311
6.6.0	win	2022-12-21	08:32:11	08:37:49	334506	5ffc9218eb4ab30bbeb6c301	525399763	1	main_slash	7	advance_on_keypress_SLASH	128	stimuli_distractor_trianglediamonds.svg	stimuli_target_squaretriangles.svg	11	yes	57	0	897
6.6.0	win	2022-12-21	08:32:11	08:37:52	338047	5ffc9218eb4ab30bbeb6c301	525399763	1	main_slash	7	main_slash	129	stimuli_distractor_trianglediamonds.svg	stimuli_distractor_diamondtriangles.svg	35	no	0	1	2000
6.6.0	win	2022-12-21	08:32:11	08:37:52	338047	5ffc9218eb4ab30bbeb6c301	525399763	1	main_slash	7	advance_on_keypress_SLASH	130	stimuli_distractor_trianglediamonds.svg	stimuli_distractor_diamondtriangles.svg	35	no	57	0	292
6.6.0	win	2022-12-21	08:32:11	08:37:53	339281	5ffc9218eb4ab30bbeb6c301	525399763	1	main_slash	7	main_slash	131	stimuli_distractor_trianglediamonds.svg	stimuli_target_circletriangles.svg	9	yes	53	1	297
6.6.0	win	2022-12-21	08:32:11	08:37:53	339281	5ffc9218eb4ab30bbeb6c301	525399763	1	main_slash	7	advance_on_keypress_SLASH	132	stimuli_distractor_trianglediamonds.svg	stimuli_target_circletriangles.svg	9	yes	57	0	466
6.6.0	win	2022-12-21	08:32:11	08:37:55	340672	5ffc9218eb4ab30bbeb6c301	525399763	1	main_slash	7	main_slash	133	stimuli_target_squarediamonds.svg	stimuli_distractor_diamondtriangles.svg	8	yes	53	1	271
6.6.0	win	2022-12-21	08:32:11	08:37:55	340672	5ffc9218eb4ab30bbeb6c301	525399763	1	main_slash	7	advance_on_keypress_SLASH	134	stimuli_target_squarediamonds.svg	stimuli_distractor_diamondtriangles.svg	8	yes	57	0	465
6.6.0	win	2022-12-21	08:32:11	08:37:56	342194	5ffc9218eb4ab30bbeb6c301	525399763	1	main_slash	7	main_slash	135	stimuli_distractor_diamondtriangles.svg	stimuli_target_trianglesquares.svg	30	yes	53	1	407
6.6.0	win	2022-12-21	08:32:11	08:37:56	342194	5ffc9218eb4ab30bbeb6c301	525399763	1	main_slash	7	advance_on_keypress_SLASH	136	stimuli_distractor_diamondtriangles.svg	stimuli_target_trianglesquares.svg	30	yes	57	0	460
6.6.0	win	2022-12-21	08:32:11	08:37:58	343744	5ffc9218eb4ab30bbeb6c301	525399763	1	main_slash	7	main_slash	137	stimuli_target_circletriangles.svg	stimuli_distractor_diamondtriangles.svg	5	yes	53	1	455
6.6.0	win	2022-12-21	08:32:11	08:37:58	343744	5ffc9218eb4ab30bbeb6c301	525399763	1	main_slash	7	advance_on_keypress_SLASH	138	stimuli_target_circletriangles.svg	stimuli_distractor_diamondtriangles.svg	5	yes	57	0	459
6.6.0	win	2022-12-21	08:32:11	08:37:59	345324	5ffc9218eb4ab30bbeb6c301	525399763	1	main_slash	7	main_slash	139	stimuli_distractor_trianglediamonds.svg	stimuli_distractor_diamondtriangles.svg	36	no	53	0	483
6.6.0	win	2022-12-21	08:32:11	08:37:59	345324	5ffc9218eb4ab30bbeb6c301	525399763	1	main_slash	7	advance_on_keypress_SLASH	140	stimuli_distractor_trianglediamonds.svg	stimuli_distractor_diamondtriangles.svg	36	no	57	0	753
6.6.0	win	2022-12-21	08:32:11	08:38:01	347010	5ffc9218eb4ab30bbeb6c301	525399763	1	main_slash	7	main_slash	141	stimuli_distractor_diamondtriangles.svg	stimuli_target_squarediamonds.svg	16	yes	53	1	283
6.6.0	win	2022-12-21	08:32:11	08:38:01	347010	5ffc9218eb4ab30bbeb6c301	525399763	1	main_slash	7	advance_on_keypress_SLASH	142	stimuli_distractor_diamondtriangles.svg	stimuli_target_squarediamonds.svg	16	yes	57	0	434
6.6.0	win	2022-12-21	08:32:11	08:38:03	348481	5ffc9218eb4ab30bbeb6c301	525399763	1	main_slash	7	main_slash	143	stimuli_distractor_trianglediamonds.svg	stimuli_target_trianglecircles.svg	25	yes	53	1	386
6.6.0	win	2022-12-21	08:32:11	08:38:03	348481	5ffc9218eb4ab30bbeb6c301	525399763	1	main_slash	7	advance_on_keypress_SLASH	144	stimuli_distractor_trianglediamonds.svg	stimuli_target_trianglecircles.svg	25	yes	57	0	812
6.6.0	win	2022-12-21	08:32:11	08:38:04	350280	5ffc9218eb4ab30bbeb6c301	525399763	1	main_slash	7	main_slash	145	stimuli_distractor_diamondtriangles.svg	stimuli_distractor_diamondtriangles.svg	39	no	53	0	332
6.6.0	win	2022-12-21	08:32:11	08:38:04	350280	5ffc9218eb4ab30bbeb6c301	525399763	1	main_slash	7	advance_on_keypress_SLASH	146	stimuli_distractor_diamondtriangles.svg	stimuli_distractor_diamondtriangles.svg	39	no	57	0	448
6.6.0	win	2022-12-21	08:32:11	08:38:07	352501	5ffc9218eb4ab30bbeb6c301	525399763	1	main_slash	7	main_slash	147	stimuli_distractor_diamondtriangles.svg	stimuli_target_circletriangles.svg	13	yes	53	1	1118
6.6.0	win	2022-12-21	08:32:11	08:38:07	352501	5ffc9218eb4ab30bbeb6c301	525399763	1	main_slash	7	advance_on_keypress_SLASH	148	stimuli_distractor_diamondtriangles.svg	stimuli_target_circletriangles.svg	13	yes	57	0	527
6.6.0	win	2022-12-21	08:32:11	08:38:10	355669	5ffc9218eb4ab30bbeb6c301	525399763	1	main_slash	7	main_slash	149	stimuli_distractor_trianglediamonds.svg	stimuli_distractor_trianglediamonds.svg	33	no	0	1	2000
6.6.0	win	2022-12-21	08:32:11	08:38:10	355669	5ffc9218eb4ab30bbeb6c301	525399763	1	main_slash	7	advance_on_keypress_SLASH	150	stimuli_distractor_trianglediamonds.svg	stimuli_distractor_trianglediamonds.svg	33	no	57	0	464
6.6.0	win	2022-12-21	08:32:11	08:38:11	357195	5ffc9218eb4ab30bbeb6c301	525399763	1	main_slash	7	main_slash	151	stimuli_target_trianglesquares.svg	stimuli_distractor_trianglediamonds.svg	18	yes	53	1	406
6.6.0	win	2022-12-21	08:32:11	08:38:11	357195	5ffc9218eb4ab30bbeb6c301	525399763	1	main_slash	7	advance_on_keypress_SLASH	152	stimuli_target_trianglesquares.svg	stimuli_distractor_trianglediamonds.svg	18	yes	57	0	396
6.6.0	win	2022-12-21	08:32:11	08:38:13	358604	5ffc9218eb4ab30bbeb6c301	525399763	1	main_slash	7	main_slash	153	stimuli_distractor_trianglediamonds.svg	stimuli_target_circlediamonds.svg	10	yes	53	1	363
6.6.0	win	2022-12-21	08:32:11	08:38:13	358604	5ffc9218eb4ab30bbeb6c301	525399763	1	main_slash	7	advance_on_keypress_SLASH	154	stimuli_distractor_trianglediamonds.svg	stimuli_target_circlediamonds.svg	10	yes	57	0	432
6.6.0	win	2022-12-21	08:32:11	08:38:14	359974	5ffc9218eb4ab30bbeb6c301	525399763	1	main_slash	7	main_slash	155	stimuli_distractor_diamondtriangles.svg	stimuli_target_squaretriangles.svg	15	yes	53	1	281
6.6.0	win	2022-12-21	08:32:11	08:38:14	359974	5ffc9218eb4ab30bbeb6c301	525399763	1	main_slash	7	advance_on_keypress_SLASH	156	stimuli_distractor_diamondtriangles.svg	stimuli_target_squaretriangles.svg	15	yes	57	0	483
6.6.0	win	2022-12-21	08:32:11	08:38:16	361564	5ffc9218eb4ab30bbeb6c301	525399763	1	main_slash	7	main_slash	157	stimuli_distractor_diamondtriangles.svg	stimuli_target_circlediamonds.svg	14	yes	53	1	453
6.6.0	win	2022-12-21	08:32:11	08:38:16	361564	5ffc9218eb4ab30bbeb6c301	525399763	1	main_slash	7	advance_on_keypress_SLASH	158	stimuli_distractor_diamondtriangles.svg	stimuli_target_circlediamonds.svg	14	yes	57	0	462
6.6.0	win	2022-12-21	08:32:11	08:38:17	362977	5ffc9218eb4ab30bbeb6c301	525399763	1	main_slash	7	main_slash	159	stimuli_distractor_diamondtriangles.svg	stimuli_distractor_diamondtriangles.svg	40	no	53	0	297
6.6.0	win	2022-12-21	08:32:11	08:38:17	362977	5ffc9218eb4ab30bbeb6c301	525399763	1	main_slash	7	advance_on_keypress_SLASH	160	stimuli_distractor_diamondtriangles.svg	stimuli_distractor_diamondtriangles.svg	40	no	57	0	518
6.6.0	win	2022-12-21	08:32:11	08:38:29	375381	5ffc9218eb4ab30bbeb6c301	525399763	1	practice_z	9	practice_z	1	stimuli_distractor_trianglediamonds.svg	stimuli_target_squarediamonds.svg	11	yes	44	1	458
6.6.0	win	2022-12-21	08:32:11	08:38:29	375381	5ffc9218eb4ab30bbeb6c301	525399763	1	practice_z	9	advance_on_keypress_ZEE	2	stimuli_distractor_trianglediamonds.svg	stimuli_target_squarediamonds.svg	11	yes	57	0	1204
6.6.0	win	2022-12-21	08:32:11	08:38:33	378973	5ffc9218eb4ab30bbeb6c301	525399763	1	practice_z	9	practice_z	3	stimuli_target_diamondsquares.svg	stimuli_distractor_trianglediamonds.svg	6	yes	44	1	731
6.6.0	win	2022-12-21	08:32:11	08:38:33	378973	5ffc9218eb4ab30bbeb6c301	525399763	1	practice_z	9	advance_on_keypress_ZEE	4	stimuli_target_diamondsquares.svg	stimuli_distractor_trianglediamonds.svg	6	yes	57	0	455
6.6.0	win	2022-12-21	08:32:11	08:38:36	381501	5ffc9218eb4ab30bbeb6c301	525399763	1	practice_z	9	practice_z	5	stimuli_distractor_trianglediamonds.svg	stimuli_distractor_diamondtriangles.svg	16	no	44	0	422
6.6.0	win	2022-12-21	08:32:11	08:38:36	381501	5ffc9218eb4ab30bbeb6c301	525399763	1	practice_z	9	advance_on_keypress_ZEE	6	stimuli_distractor_trianglediamonds.svg	stimuli_distractor_diamondtriangles.svg	16	no	57	0	515
6.6.0	win	2022-12-21	08:32:11	08:38:38	384191	5ffc9218eb4ab30bbeb6c301	525399763	1	practice_z	9	practice_z	7	stimuli_target_diamondsquares.svg	stimuli_distractor_diamondtriangles.svg	3	yes	44	1	525
6.6.0	win	2022-12-21	08:32:11	08:38:38	384191	5ffc9218eb4ab30bbeb6c301	525399763	1	practice_z	9	advance_on_keypress_ZEE	8	stimuli_target_diamondsquares.svg	stimuli_distractor_diamondtriangles.svg	3	yes	57	0	414
6.6.0	win	2022-12-21	08:32:11	08:38:41	386688	5ffc9218eb4ab30bbeb6c301	525399763	1	practice_z	9	practice_z	9	stimuli_distractor_diamondtriangles.svg	stimuli_target_trianglecircles.svg	9	yes	44	1	435
6.6.0	win	2022-12-21	08:32:11	08:38:41	386688	5ffc9218eb4ab30bbeb6c301	525399763	1	practice_z	9	advance_on_keypress_ZEE	10	stimuli_distractor_diamondtriangles.svg	stimuli_target_trianglecircles.svg	9	yes	57	0	415
6.6.0	win	2022-12-21	08:32:11	08:38:43	389244	5ffc9218eb4ab30bbeb6c301	525399763	1	practice_z	9	practice_z	11	stimuli_distractor_trianglediamonds.svg	stimuli_target_diamondcircles.svg	12	yes	44	1	489
6.6.0	win	2022-12-21	08:32:11	08:38:43	389244	5ffc9218eb4ab30bbeb6c301	525399763	1	practice_z	9	advance_on_keypress_ZEE	12	stimuli_distractor_trianglediamonds.svg	stimuli_target_diamondcircles.svg	12	yes	57	0	498
6.6.0	win	2022-12-21	08:32:11	08:38:46	391801	5ffc9218eb4ab30bbeb6c301	525399763	1	practice_z	9	practice_z	13	stimuli_distractor_trianglediamonds.svg	stimuli_target_circlediamonds.svg	10	yes	44	1	409
6.6.0	win	2022-12-21	08:32:11	08:38:46	391801	5ffc9218eb4ab30bbeb6c301	525399763	1	practice_z	9	advance_on_keypress_ZEE	14	stimuli_distractor_trianglediamonds.svg	stimuli_target_circlediamonds.svg	10	yes	57	0	443
6.6.0	win	2022-12-21	08:32:11	08:38:50	395899	5ffc9218eb4ab30bbeb6c301	525399763	1	practice_z	9	practice_z	15	stimuli_distractor_diamondtriangles.svg	stimuli_distractor_diamondtriangles.svg	13	no	0	1	2000
6.6.0	win	2022-12-21	08:32:11	08:38:50	395899	5ffc9218eb4ab30bbeb6c301	525399763	1	practice_z	9	advance_on_keypress_ZEE	16	stimuli_distractor_diamondtriangles.svg	stimuli_distractor_diamondtriangles.svg	13	no	57	0	384
6.6.0	win	2022-12-21	08:32:11	08:38:52	398421	5ffc9218eb4ab30bbeb6c301	525399763	1	practice_z	9	practice_z	17	stimuli_target_squarediamonds.svg	stimuli_distractor_diamondtriangles.svg	2	yes	44	1	488
6.6.0	win	2022-12-21	08:32:11	08:38:52	398421	5ffc9218eb4ab30bbeb6c301	525399763	1	practice_z	9	advance_on_keypress_ZEE	18	stimuli_target_squarediamonds.svg	stimuli_distractor_diamondtriangles.svg	2	yes	57	0	466
6.6.0	win	2022-12-21	08:32:11	08:38:55	400979	5ffc9218eb4ab30bbeb6c301	525399763	1	practice_z	9	practice_z	19	stimuli_distractor_diamondtriangles.svg	stimuli_target_diamondcircles.svg	8	yes	44	1	441
6.6.0	win	2022-12-21	08:32:11	08:38:55	400979	5ffc9218eb4ab30bbeb6c301	525399763	1	practice_z	9	advance_on_keypress_ZEE	20	stimuli_distractor_diamondtriangles.svg	stimuli_target_diamondcircles.svg	8	yes	57	0	520
6.6.0	win	2022-12-21	08:32:11	08:38:58	403574	5ffc9218eb4ab30bbeb6c301	525399763	1	practice_z	9	practice_z	21	stimuli_target_circlediamonds.svg	stimuli_distractor_trianglediamonds.svg	4	yes	44	1	434
6.6.0	win	2022-12-21	08:32:11	08:38:58	403574	5ffc9218eb4ab30bbeb6c301	525399763	1	practice_z	9	advance_on_keypress_ZEE	22	stimuli_target_circlediamonds.svg	stimuli_distractor_trianglediamonds.svg	4	yes	57	0	652
6.6.0	win	2022-12-21	08:32:11	08:39:00	406429	5ffc9218eb4ab30bbeb6c301	525399763	1	practice_z	9	practice_z	23	stimuli_target_squarediamonds.svg	stimuli_distractor_trianglediamonds.svg	5	yes	44	1	552
6.6.0	win	2022-12-21	08:32:11	08:39:00	406429	5ffc9218eb4ab30bbeb6c301	525399763	1	practice_z	9	advance_on_keypress_ZEE	24	stimuli_target_squarediamonds.svg	stimuli_distractor_trianglediamonds.svg	5	yes	57	0	560
6.6.0	win	2022-12-21	08:32:11	08:39:03	408991	5ffc9218eb4ab30bbeb6c301	525399763	1	practice_z	9	practice_z	25	stimuli_distractor_diamondtriangles.svg	stimuli_target_circletriangles.svg	7	yes	44	1	344
6.6.0	win	2022-12-21	08:32:11	08:39:03	408991	5ffc9218eb4ab30bbeb6c301	525399763	1	practice_z	9	advance_on_keypress_ZEE	26	stimuli_distractor_diamondtriangles.svg	stimuli_target_circletriangles.svg	7	yes	57	0	459
6.6.0	win	2022-12-21	08:32:11	08:39:06	411495	5ffc9218eb4ab30bbeb6c301	525399763	1	practice_z	9	practice_z	27	stimuli_target_circlediamonds.svg	stimuli_distractor_diamondtriangles.svg	1	yes	44	1	412
6.6.0	win	2022-12-21	08:32:11	08:39:06	411495	5ffc9218eb4ab30bbeb6c301	525399763	1	practice_z	9	advance_on_keypress_ZEE	28	stimuli_target_circlediamonds.svg	stimuli_distractor_diamondtriangles.svg	1	yes	57	0	433
6.6.0	win	2022-12-21	08:32:11	08:39:08	414022	5ffc9218eb4ab30bbeb6c301	525399763	1	practice_z	9	practice_z	29	stimuli_distractor_trianglediamonds.svg	stimuli_distractor_trianglediamonds.svg	15	no	44	0	435
6.6.0	win	2022-12-21	08:32:11	08:39:08	414022	5ffc9218eb4ab30bbeb6c301	525399763	1	practice_z	9	advance_on_keypress_ZEE	30	stimuli_distractor_trianglediamonds.svg	stimuli_distractor_trianglediamonds.svg	15	no	57	0	572
6.6.0	win	2022-12-21	08:32:11	08:39:12	418239	5ffc9218eb4ab30bbeb6c301	525399763	1	practice_z	9	practice_z	31	stimuli_distractor_diamondtriangles.svg	stimuli_distractor_trianglediamonds.svg	14	no	0	1	2000
6.6.0	win	2022-12-21	08:32:11	08:39:12	418239	5ffc9218eb4ab30bbeb6c301	525399763	1	practice_z	9	advance_on_keypress_ZEE	32	stimuli_distractor_diamondtriangles.svg	stimuli_distractor_trianglediamonds.svg	14	no	57	0	392
6.6.0	win	2022-12-21	08:32:11	08:39:17	423090	5ffc9218eb4ab30bbeb6c301	525399763	1	main_z	11	main_z	1	stimuli_target_diamondcircles.svg	stimuli_distractor_diamondtriangles.svg	23	yes	44	1	710
6.6.0	win	2022-12-21	08:32:11	08:39:17	423090	5ffc9218eb4ab30bbeb6c301	525399763	1	main_z	11	advance_on_keypress_ZEE	2	stimuli_target_diamondcircles.svg	stimuli_distractor_diamondtriangles.svg	23	yes	57	0	734
6.6.0	win	2022-12-21	08:32:11	08:39:19	424834	5ffc9218eb4ab30bbeb6c301	525399763	1	main_z	11	main_z	3	stimuli_distractor_diamondtriangles.svg	stimuli_target_trianglecircles.svg	29	yes	44	1	352
6.6.0	win	2022-12-21	08:32:11	08:39:19	424834	5ffc9218eb4ab30bbeb6c301	525399763	1	main_z	11	advance_on_keypress_ZEE	4	stimuli_distractor_diamondtriangles.svg	stimuli_target_trianglecircles.svg	29	yes	57	0	626
6.6.0	win	2022-12-21	08:32:11	08:39:22	428101	5ffc9218eb4ab30bbeb6c301	525399763	1	main_z	11	main_z	5	stimuli_target_circletriangles.svg	stimuli_distractor_trianglediamonds.svg	1	yes	0	0	2000
6.6.0	win	2022-12-21	08:32:11	08:39:22	428101	5ffc9218eb4ab30bbeb6c301	525399763	1	main_z	11	advance_on_keypress_ZEE	6	stimuli_target_circletriangles.svg	stimuli_distractor_trianglediamonds.svg	1	yes	57	0	417
6.6.0	win	2022-12-21	08:32:11	08:39:24	429580	5ffc9218eb4ab30bbeb6c301	525399763	1	main_z	11	main_z	7	stimuli_distractor_trianglediamonds.svg	stimuli_target_circletriangles.svg	9	yes	44	1	409
6.6.0	win	2022-12-21	08:32:11	08:39:24	429580	5ffc9218eb4ab30bbeb6c301	525399763	1	main_z	11	advance_on_keypress_ZEE	8	stimuli_distractor_trianglediamonds.svg	stimuli_target_circletriangles.svg	9	yes	57	0	853
6.6.0	win	2022-12-21	08:32:11	08:39:27	433074	5ffc9218eb4ab30bbeb6c301	525399763	1	main_z	11	main_z	9	stimuli_distractor_diamondtriangles.svg	stimuli_distractor_trianglediamonds.svg	37	no	0	1	2000
6.6.0	win	2022-12-21	08:32:11	08:39:27	433074	5ffc9218eb4ab30bbeb6c301	525399763	1	main_z	11	advance_on_keypress_ZEE	10	stimuli_distractor_diamondtriangles.svg	stimuli_distractor_trianglediamonds.svg	37	no	57	0	259
6.6.0	win	2022-12-21	08:32:11	08:39:28	434313	5ffc9218eb4ab30bbeb6c301	525399763	1	main_z	11	main_z	11	stimuli_distractor_trianglediamonds.svg	stimuli_target_trianglesquares.svg	26	yes	44	1	336
6.6.0	win	2022-12-21	08:32:11	08:39:28	434313	5ffc9218eb4ab30bbeb6c301	525399763	1	main_z	11	advance_on_keypress_ZEE	12	stimuli_distractor_trianglediamonds.svg	stimuli_target_trianglesquares.svg	26	yes	57	0	600
6.6.0	win	2022-12-21	08:32:11	08:39:30	435945	5ffc9218eb4ab30bbeb6c301	525399763	1	main_z	11	main_z	13	stimuli_target_diamondcircles.svg	stimuli_distractor_trianglediamonds.svg	19	yes	44	1	380
6.6.0	win	2022-12-21	08:32:11	08:39:30	435945	5ffc9218eb4ab30bbeb6c301	525399763	1	main_z	11	advance_on_keypress_ZEE	14	stimuli_target_diamondcircles.svg	stimuli_distractor_trianglediamonds.svg	19	yes	57	0	508
6.6.0	win	2022-12-21	08:32:11	08:39:33	439100	5ffc9218eb4ab30bbeb6c301	525399763	1	main_z	11	main_z	15	stimuli_distractor_trianglediamonds.svg	stimuli_distractor_diamondtriangles.svg	36	no	0	1	2000
6.6.0	win	2022-12-21	08:32:11	08:39:33	439100	5ffc9218eb4ab30bbeb6c301	525399763	1	main_z	11	advance_on_keypress_ZEE	16	stimuli_distractor_trianglediamonds.svg	stimuli_distractor_diamondtriangles.svg	36	no	57	0	404
6.6.0	win	2022-12-21	08:32:11	08:39:34	440429	5ffc9218eb4ab30bbeb6c301	525399763	1	main_z	11	main_z	17	stimuli_distractor_diamondtriangles.svg	stimuli_target_diamondcircles.svg	31	yes	44	1	277
6.6.0	win	2022-12-21	08:32:11	08:39:34	440429	5ffc9218eb4ab30bbeb6c301	525399763	1	main_z	11	advance_on_keypress_ZEE	18	stimuli_distractor_diamondtriangles.svg	stimuli_target_diamondcircles.svg	31	yes	57	0	600
6.6.0	win	2022-12-21	08:32:11	08:39:36	442347	5ffc9218eb4ab30bbeb6c301	525399763	1	main_z	11	main_z	19	stimuli_target_squarediamonds.svg	stimuli_distractor_diamondtriangles.svg	8	yes	44	1	677
6.6.0	win	2022-12-21	08:32:11	08:39:36	442347	5ffc9218eb4ab30bbeb6c301	525399763	1	main_z	11	advance_on_keypress_ZEE	20	stimuli_target_squarediamonds.svg	stimuli_distractor_diamondtriangles.svg	8	yes	57	0	563
6.6.0	win	2022-12-21	08:32:11	08:39:38	444012	5ffc9218eb4ab30bbeb6c301	525399763	1	main_z	11	main_z	21	stimuli_distractor_diamondtriangles.svg	stimuli_target_circlediamonds.svg	14	yes	44	1	456
6.6.0	win	2022-12-21	08:32:11	08:39:38	444012	5ffc9218eb4ab30bbeb6c301	525399763	1	main_z	11	advance_on_keypress_ZEE	22	stimuli_distractor_diamondtriangles.svg	stimuli_target_circlediamonds.svg	14	yes	57	0	484
6.6.0	win	2022-12-21	08:32:11	08:39:40	445507	5ffc9218eb4ab30bbeb6c301	525399763	1	main_z	11	main_z	23	stimuli_target_trianglecircles.svg	stimuli_distractor_diamondtriangles.svg	21	yes	44	1	366
6.6.0	win	2022-12-21	08:32:11	08:39:40	445507	5ffc9218eb4ab30bbeb6c301	525399763	1	main_z	11	advance_on_keypress_ZEE	24	stimuli_target_trianglecircles.svg	stimuli_distractor_diamondtriangles.svg	21	yes	57	0	416
6.6.0	win	2022-12-21	08:32:11	08:39:41	446780	5ffc9218eb4ab30bbeb6c301	525399763	1	main_z	11	main_z	25	stimuli_distractor_trianglediamonds.svg	stimuli_target_diamondsquares.svg	28	yes	44	1	204
6.6.0	win	2022-12-21	08:32:11	08:39:41	446780	5ffc9218eb4ab30bbeb6c301	525399763	1	main_z	11	advance_on_keypress_ZEE	26	stimuli_distractor_trianglediamonds.svg	stimuli_target_diamondsquares.svg	28	yes	57	0	534
6.6.0	win	2022-12-21	08:32:11	08:39:44	449961	5ffc9218eb4ab30bbeb6c301	525399763	1	main_z	11	main_z	27	stimuli_distractor_diamondtriangles.svg	stimuli_target_diamondsquares.svg	32	yes	0	0	2000
6.6.0	win	2022-12-21	08:32:11	08:39:44	449961	5ffc9218eb4ab30bbeb6c301	525399763	1	main_z	11	advance_on_keypress_ZEE	28	stimuli_distractor_diamondtriangles.svg	stimuli_target_diamondsquares.svg	32	yes	57	0	348
6.6.0	win	2022-12-21	08:32:11	08:39:45	451193	5ffc9218eb4ab30bbeb6c301	525399763	1	main_z	11	main_z	29	stimuli_distractor_trianglediamonds.svg	stimuli_target_squaretriangles.svg	11	yes	44	1	228
6.6.0	win	2022-12-21	08:32:11	08:39:45	451193	5ffc9218eb4ab30bbeb6c301	525399763	1	main_z	11	advance_on_keypress_ZEE	30	stimuli_distractor_trianglediamonds.svg	stimuli_target_squaretriangles.svg	11	yes	57	0	442
6.6.0	win	2022-12-21	08:32:11	08:39:47	452512	5ffc9218eb4ab30bbeb6c301	525399763	1	main_z	11	main_z	31	stimuli_distractor_diamondtriangles.svg	stimuli_distractor_trianglediamonds.svg	38	no	44	0	229
6.6.0	win	2022-12-21	08:32:11	08:39:47	452512	5ffc9218eb4ab30bbeb6c301	525399763	1	main_z	11	advance_on_keypress_ZEE	32	stimuli_distractor_diamondtriangles.svg	stimuli_distractor_trianglediamonds.svg	38	no	57	0	850
6.6.0	win	2022-12-21	08:32:11	08:39:48	454236	5ffc9218eb4ab30bbeb6c301	525399763	1	main_z	11	main_z	33	stimuli_distractor_trianglediamonds.svg	stimuli_target_diamondcircles.svg	27	yes	44	1	217
6.6.0	win	2022-12-21	08:32:11	08:39:48	454236	5ffc9218eb4ab30bbeb6c301	525399763	1	main_z	11	advance_on_keypress_ZEE	34	stimuli_distractor_trianglediamonds.svg	stimuli_target_diamondcircles.svg	27	yes	57	0	1076
6.6.0	win	2022-12-21	08:32:11	08:39:51	456524	5ffc9218eb4ab30bbeb6c301	525399763	1	main_z	11	main_z	35	stimuli_target_squaretriangles.svg	stimuli_distractor_trianglediamonds.svg	3	yes	44	1	570
6.6.0	win	2022-12-21	08:32:11	08:39:51	456524	5ffc9218eb4ab30bbeb6c301	525399763	1	main_z	11	advance_on_keypress_ZEE	36	stimuli_target_squaretriangles.svg	stimuli_distractor_trianglediamonds.svg	3	yes	57	0	789
6.6.0	win	2022-12-21	08:32:11	08:39:53	458715	5ffc9218eb4ab30bbeb6c301	525399763	1	main_z	11	main_z	37	stimuli_distractor_diamondtriangles.svg	stimuli_target_circletriangles.svg	13	yes	44	1	757
6.6.0	win	2022-12-21	08:32:11	08:39:53	458715	5ffc9218eb4ab30bbeb6c301	525399763	1	main_z	11	advance_on_keypress_ZEE	38	stimuli_distractor_diamondtriangles.svg	stimuli_target_circletriangles.svg	13	yes	57	0	487
6.6.0	win	2022-12-21	08:32:11	08:39:55	460486	5ffc9218eb4ab30bbeb6c301	525399763	1	main_z	11	main_z	39	stimuli_distractor_diamondtriangles.svg	stimuli_target_squarediamonds.svg	16	yes	44	1	642
6.6.0	win	2022-12-21	08:32:11	08:39:55	460486	5ffc9218eb4ab30bbeb6c301	525399763	1	main_z	11	advance_on_keypress_ZEE	40	stimuli_distractor_diamondtriangles.svg	stimuli_target_squarediamonds.svg	16	yes	57	0	487
6.6.0	win	2022-12-21	08:32:11	08:39:58	463612	5ffc9218eb4ab30bbeb6c301	525399763	1	main_z	11	main_z	41	stimuli_distractor_trianglediamonds.svg	stimuli_distractor_trianglediamonds.svg	33	no	0	1	2000
6.6.0	win	2022-12-21	08:32:11	08:39:58	463612	5ffc9218eb4ab30bbeb6c301	525399763	1	main_z	11	advance_on_keypress_ZEE	42	stimuli_distractor_trianglediamonds.svg	stimuli_distractor_trianglediamonds.svg	33	no	57	0	274
6.6.0	win	2022-12-21	08:32:11	08:39:59	465012	5ffc9218eb4ab30bbeb6c301	525399763	1	main_z	11	main_z	43	stimuli_distractor_trianglediamonds.svg	stimuli_target_squarediamonds.svg	12	yes	44	1	480
6.6.0	win	2022-12-21	08:32:11	08:39:59	465012	5ffc9218eb4ab30bbeb6c301	525399763	1	main_z	11	advance_on_keypress_ZEE	44	stimuli_distractor_trianglediamonds.svg	stimuli_target_squarediamonds.svg	12	yes	57	0	468
6.6.0	win	2022-12-21	08:32:11	08:40:01	466719	5ffc9218eb4ab30bbeb6c301	525399763	1	main_z	11	main_z	45	stimuli_distractor_diamondtriangles.svg	stimuli_target_squaretriangles.svg	15	yes	44	1	585
6.6.0	win	2022-12-21	08:32:11	08:40:01	466719	5ffc9218eb4ab30bbeb6c301	525399763	1	main_z	11	advance_on_keypress_ZEE	46	stimuli_distractor_diamondtriangles.svg	stimuli_target_squaretriangles.svg	15	yes	57	0	507
6.6.0	win	2022-12-21	08:32:11	08:40:04	469869	5ffc9218eb4ab30bbeb6c301	525399763	1	main_z	11	main_z	47	stimuli_distractor_trianglediamonds.svg	stimuli_distractor_trianglediamonds.svg	34	no	0	1	2000
6.6.0	win	2022-12-21	08:32:11	08:40:04	469869	5ffc9218eb4ab30bbeb6c301	525399763	1	main_z	11	advance_on_keypress_ZEE	48	stimuli_distractor_trianglediamonds.svg	stimuli_distractor_trianglediamonds.svg	34	no	57	0	289
6.6.0	win	2022-12-21	08:32:11	08:40:06	471478	5ffc9218eb4ab30bbeb6c301	525399763	1	main_z	11	main_z	49	stimuli_target_trianglecircles.svg	stimuli_distractor_trianglediamonds.svg	17	yes	44	1	672
6.6.0	win	2022-12-21	08:32:11	08:40:06	471478	5ffc9218eb4ab30bbeb6c301	525399763	1	main_z	11	advance_on_keypress_ZEE	50	stimuli_target_trianglecircles.svg	stimuli_distractor_trianglediamonds.svg	17	yes	57	0	451
6.6.0	win	2022-12-21	08:32:11	08:40:07	473322	5ffc9218eb4ab30bbeb6c301	525399763	1	main_z	11	main_z	51	stimuli_target_circletriangles.svg	stimuli_distractor_diamondtriangles.svg	5	yes	44	1	747
6.6.0	win	2022-12-21	08:32:11	08:40:07	473322	5ffc9218eb4ab30bbeb6c301	525399763	1	main_z	11	advance_on_keypress_ZEE	52	stimuli_target_circletriangles.svg	stimuli_distractor_diamondtriangles.svg	5	yes	57	0	488
6.6.0	win	2022-12-21	08:32:11	08:40:09	475153	5ffc9218eb4ab30bbeb6c301	525399763	1	main_z	11	main_z	53	stimuli_distractor_diamondtriangles.svg	stimuli_target_trianglesquares.svg	30	yes	44	1	692
6.6.0	win	2022-12-21	08:32:11	08:40:09	475153	5ffc9218eb4ab30bbeb6c301	525399763	1	main_z	11	advance_on_keypress_ZEE	54	stimuli_distractor_diamondtriangles.svg	stimuli_target_trianglesquares.svg	30	yes	57	0	558
6.6.0	win	2022-12-21	08:32:11	08:40:11	476999	5ffc9218eb4ab30bbeb6c301	525399763	1	main_z	11	main_z	55	stimuli_distractor_trianglediamonds.svg	stimuli_distractor_diamondtriangles.svg	35	no	44	0	653
6.6.0	win	2022-12-21	08:32:11	08:40:11	476999	5ffc9218eb4ab30bbeb6c301	525399763	1	main_z	11	advance_on_keypress_ZEE	56	stimuli_distractor_trianglediamonds.svg	stimuli_distractor_diamondtriangles.svg	35	no	57	0	382
6.6.0	win	2022-12-21	08:32:11	08:40:12	478448	5ffc9218eb4ab30bbeb6c301	525399763	1	main_z	11	main_z	57	stimuli_target_circlediamonds.svg	stimuli_distractor_trianglediamonds.svg	2	yes	44	1	416
6.6.0	win	2022-12-21	08:32:11	08:40:12	478448	5ffc9218eb4ab30bbeb6c301	525399763	1	main_z	11	advance_on_keypress_ZEE	58	stimuli_target_circlediamonds.svg	stimuli_distractor_trianglediamonds.svg	2	yes	57	0	404
6.6.0	win	2022-12-21	08:32:11	08:40:16	481501	5ffc9218eb4ab30bbeb6c301	525399763	1	main_z	11	main_z	59	stimuli_distractor_diamondtriangles.svg	stimuli_distractor_diamondtriangles.svg	39	no	0	1	2000
6.6.0	win	2022-12-21	08:32:11	08:40:16	481501	5ffc9218eb4ab30bbeb6c301	525399763	1	main_z	11	advance_on_keypress_ZEE	60	stimuli_distractor_diamondtriangles.svg	stimuli_distractor_diamondtriangles.svg	39	no	57	0	286
6.6.0	win	2022-12-21	08:32:11	08:40:17	483051	5ffc9218eb4ab30bbeb6c301	525399763	1	main_z	11	main_z	61	stimuli_distractor_trianglediamonds.svg	stimuli_target_trianglecircles.svg	25	yes	44	1	614
6.6.0	win	2022-12-21	08:32:11	08:40:17	483051	5ffc9218eb4ab30bbeb6c301	525399763	1	main_z	11	advance_on_keypress_ZEE	62	stimuli_distractor_trianglediamonds.svg	stimuli_target_trianglecircles.svg	25	yes	57	0	393
6.6.0	win	2022-12-21	08:32:11	08:40:19	484569	5ffc9218eb4ab30bbeb6c301	525399763	1	main_z	11	main_z	63	stimuli_target_trianglesquares.svg	stimuli_distractor_trianglediamonds.svg	18	yes	44	1	479
6.6.0	win	2022-12-21	08:32:11	08:40:19	484569	5ffc9218eb4ab30bbeb6c301	525399763	1	main_z	11	advance_on_keypress_ZEE	64	stimuli_target_trianglesquares.svg	stimuli_distractor_trianglediamonds.svg	18	yes	57	0	386
6.6.0	win	2022-12-21	08:32:11	08:40:20	486036	5ffc9218eb4ab30bbeb6c301	525399763	1	main_z	11	main_z	65	stimuli_distractor_trianglediamonds.svg	stimuli_target_circlediamonds.svg	10	yes	44	1	428
6.6.0	win	2022-12-21	08:32:11	08:40:20	486036	5ffc9218eb4ab30bbeb6c301	525399763	1	main_z	11	advance_on_keypress_ZEE	66	stimuli_distractor_trianglediamonds.svg	stimuli_target_circlediamonds.svg	10	yes	57	0	407
6.6.0	win	2022-12-21	08:32:11	08:40:22	487593	5ffc9218eb4ab30bbeb6c301	525399763	1	main_z	11	main_z	67	stimuli_target_trianglesquares.svg	stimuli_distractor_diamondtriangles.svg	22	yes	44	1	516
6.6.0	win	2022-12-21	08:32:11	08:40:22	487593	5ffc9218eb4ab30bbeb6c301	525399763	1	main_z	11	advance_on_keypress_ZEE	68	stimuli_target_trianglesquares.svg	stimuli_distractor_diamondtriangles.svg	22	yes	57	0	480
6.6.0	win	2022-12-21	08:32:11	08:40:23	489426	5ffc9218eb4ab30bbeb6c301	525399763	1	main_z	11	main_z	69	stimuli_target_squaretriangles.svg	stimuli_distractor_diamondtriangles.svg	7	yes	44	1	697
6.6.0	win	2022-12-21	08:32:11	08:40:23	489426	5ffc9218eb4ab30bbeb6c301	525399763	1	main_z	11	advance_on_keypress_ZEE	70	stimuli_target_squaretriangles.svg	stimuli_distractor_diamondtriangles.svg	7	yes	57	0	462
6.6.0	win	2022-12-21	08:32:11	08:40:25	490866	5ffc9218eb4ab30bbeb6c301	525399763	1	main_z	11	main_z	71	stimuli_target_diamondsquares.svg	stimuli_distractor_diamondtriangles.svg	24	yes	44	1	319
6.6.0	win	2022-12-21	08:32:11	08:40:25	490866	5ffc9218eb4ab30bbeb6c301	525399763	1	main_z	11	advance_on_keypress_ZEE	72	stimuli_target_diamondsquares.svg	stimuli_distractor_diamondtriangles.svg	24	yes	57	0	645
6.6.0	win	2022-12-21	08:32:11	08:40:27	492575	5ffc9218eb4ab30bbeb6c301	525399763	1	main_z	11	main_z	73	stimuli_target_diamondsquares.svg	stimuli_distractor_trianglediamonds.svg	20	yes	44	1	409
6.6.0	win	2022-12-21	08:32:11	08:40:27	492575	5ffc9218eb4ab30bbeb6c301	525399763	1	main_z	11	advance_on_keypress_ZEE	74	stimuli_target_diamondsquares.svg	stimuli_distractor_trianglediamonds.svg	20	yes	57	0	469
6.6.0	win	2022-12-21	08:32:11	08:40:28	494109	5ffc9218eb4ab30bbeb6c301	525399763	1	main_z	11	main_z	75	stimuli_target_circlediamonds.svg	stimuli_distractor_diamondtriangles.svg	6	yes	44	1	424
6.6.0	win	2022-12-21	08:32:11	08:40:28	494109	5ffc9218eb4ab30bbeb6c301	525399763	1	main_z	11	advance_on_keypress_ZEE	76	stimuli_target_circlediamonds.svg	stimuli_distractor_diamondtriangles.svg	6	yes	57	0	372
6.6.0	win	2022-12-21	08:32:11	08:40:30	495503	5ffc9218eb4ab30bbeb6c301	525399763	1	main_z	11	main_z	77	stimuli_target_squarediamonds.svg	stimuli_distractor_trianglediamonds.svg	4	yes	44	1	378
6.6.0	win	2022-12-21	08:32:11	08:40:30	495503	5ffc9218eb4ab30bbeb6c301	525399763	1	main_z	11	advance_on_keypress_ZEE	78	stimuli_target_squarediamonds.svg	stimuli_distractor_trianglediamonds.svg	4	yes	57	0	318
6.6.0	win	2022-12-21	08:32:11	08:40:32	498472	5ffc9218eb4ab30bbeb6c301	525399763	1	main_z	11	main_z	79	stimuli_distractor_diamondtriangles.svg	stimuli_distractor_diamondtriangles.svg	40	no	0	1	2000
6.6.0	win	2022-12-21	08:32:11	08:40:32	498472	5ffc9218eb4ab30bbeb6c301	525399763	1	main_z	11	advance_on_keypress_ZEE	80	stimuli_distractor_diamondtriangles.svg	stimuli_distractor_diamondtriangles.svg	40	no	57	0	310
6.6.0	win	2022-12-21	08:32:11	08:40:34	499818	5ffc9218eb4ab30bbeb6c301	525399763	1	main_z	11	main_z	81	stimuli_distractor_trianglediamonds.svg	stimuli_target_squarediamonds.svg	12	yes	44	1	393
6.6.0	win	2022-12-21	08:32:11	08:40:34	499818	5ffc9218eb4ab30bbeb6c301	525399763	1	main_z	11	advance_on_keypress_ZEE	82	stimuli_distractor_trianglediamonds.svg	stimuli_target_squarediamonds.svg	12	yes	57	0	338
6.6.0	win	2022-12-21	08:32:11	08:40:35	501417	5ffc9218eb4ab30bbeb6c301	525399763	1	main_z	11	main_z	83	stimuli_target_diamondsquares.svg	stimuli_distractor_trianglediamonds.svg	20	yes	44	1	624
6.6.0	win	2022-12-21	08:32:11	08:40:35	501417	5ffc9218eb4ab30bbeb6c301	525399763	1	main_z	11	advance_on_keypress_ZEE	84	stimuli_target_diamondsquares.svg	stimuli_distractor_trianglediamonds.svg	20	yes	57	0	371
6.6.0	win	2022-12-21	08:32:11	08:40:37	502836	5ffc9218eb4ab30bbeb6c301	525399763	1	main_z	11	main_z	85	stimuli_distractor_trianglediamonds.svg	stimuli_distractor_diamondtriangles.svg	35	no	44	0	407
6.6.0	win	2022-12-21	08:32:11	08:40:37	502836	5ffc9218eb4ab30bbeb6c301	525399763	1	main_z	11	advance_on_keypress_ZEE	86	stimuli_distractor_trianglediamonds.svg	stimuli_distractor_diamondtriangles.svg	35	no	57	0	447
6.6.0	win	2022-12-21	08:32:11	08:40:38	504347	5ffc9218eb4ab30bbeb6c301	525399763	1	main_z	11	main_z	87	stimuli_distractor_trianglediamonds.svg	stimuli_target_trianglesquares.svg	26	yes	44	1	415
6.6.0	win	2022-12-21	08:32:11	08:40:38	504347	5ffc9218eb4ab30bbeb6c301	525399763	1	main_z	11	advance_on_keypress_ZEE	88	stimuli_distractor_trianglediamonds.svg	stimuli_target_trianglesquares.svg	26	yes	57	0	307
6.6.0	win	2022-12-21	08:32:11	08:40:40	505732	5ffc9218eb4ab30bbeb6c301	525399763	1	main_z	11	main_z	89	stimuli_distractor_trianglediamonds.svg	stimuli_target_diamondcircles.svg	27	yes	44	1	433
6.6.0	win	2022-12-21	08:32:11	08:40:40	505732	5ffc9218eb4ab30bbeb6c301	525399763	1	main_z	11	advance_on_keypress_ZEE	90	stimuli_distractor_trianglediamonds.svg	stimuli_target_diamondcircles.svg	27	yes	57	0	373
6.6.0	win	2022-12-21	08:32:11	08:40:41	507174	5ffc9218eb4ab30bbeb6c301	525399763	1	main_z	11	main_z	91	stimuli_distractor_diamondtriangles.svg	stimuli_target_squarediamonds.svg	16	yes	44	1	423
6.6.0	win	2022-12-21	08:32:11	08:40:41	507174	5ffc9218eb4ab30bbeb6c301	525399763	1	main_z	11	advance_on_keypress_ZEE	92	stimuli_distractor_diamondtriangles.svg	stimuli_target_squarediamonds.svg	16	yes	57	0	332
6.6.0	win	2022-12-21	08:32:11	08:40:43	508600	5ffc9218eb4ab30bbeb6c301	525399763	1	main_z	11	main_z	93	stimuli_distractor_diamondtriangles.svg	stimuli_target_circlediamonds.svg	14	yes	44	1	448
6.6.0	win	2022-12-21	08:32:11	08:40:43	508600	5ffc9218eb4ab30bbeb6c301	525399763	1	main_z	11	advance_on_keypress_ZEE	94	stimuli_distractor_diamondtriangles.svg	stimuli_target_circlediamonds.svg	14	yes	57	0	288
6.6.0	win	2022-12-21	08:32:11	08:40:44	509984	5ffc9218eb4ab30bbeb6c301	525399763	1	main_z	11	main_z	95	stimuli_distractor_diamondtriangles.svg	stimuli_target_squaretriangles.svg	15	yes	44	1	446
6.6.0	win	2022-12-21	08:32:11	08:40:44	509984	5ffc9218eb4ab30bbeb6c301	525399763	1	main_z	11	advance_on_keypress_ZEE	96	stimuli_distractor_diamondtriangles.svg	stimuli_target_squaretriangles.svg	15	yes	57	0	757
6.6.0	win	2022-12-21	08:32:11	08:40:46	511725	5ffc9218eb4ab30bbeb6c301	525399763	1	main_z	11	main_z	97	stimuli_target_squarediamonds.svg	stimuli_distractor_trianglediamonds.svg	4	yes	44	1	335
6.6.0	win	2022-12-21	08:32:11	08:40:46	511725	5ffc9218eb4ab30bbeb6c301	525399763	1	main_z	11	advance_on_keypress_ZEE	98	stimuli_target_squarediamonds.svg	stimuli_distractor_trianglediamonds.svg	4	yes	57	0	351
6.6.0	win	2022-12-21	08:32:11	08:40:47	513052	5ffc9218eb4ab30bbeb6c301	525399763	1	main_z	11	main_z	99	stimuli_target_circlediamonds.svg	stimuli_distractor_trianglediamonds.svg	2	yes	44	1	327
6.6.0	win	2022-12-21	08:32:11	08:40:47	513052	5ffc9218eb4ab30bbeb6c301	525399763	1	main_z	11	advance_on_keypress_ZEE	100	stimuli_target_circlediamonds.svg	stimuli_distractor_trianglediamonds.svg	2	yes	57	0	354
6.6.0	win	2022-12-21	08:32:11	08:40:48	514429	5ffc9218eb4ab30bbeb6c301	525399763	1	main_z	11	main_z	101	stimuli_target_squaretriangles.svg	stimuli_distractor_diamondtriangles.svg	7	yes	44	1	384
6.6.0	win	2022-12-21	08:32:11	08:40:48	514429	5ffc9218eb4ab30bbeb6c301	525399763	1	main_z	11	advance_on_keypress_ZEE	102	stimuli_target_squaretriangles.svg	stimuli_distractor_diamondtriangles.svg	7	yes	57	0	327
6.6.0	win	2022-12-21	08:32:11	08:40:50	515836	5ffc9218eb4ab30bbeb6c301	525399763	1	main_z	11	main_z	103	stimuli_distractor_diamondtriangles.svg	stimuli_target_trianglecircles.svg	29	yes	44	1	441
6.6.0	win	2022-12-21	08:32:11	08:40:50	515836	5ffc9218eb4ab30bbeb6c301	525399763	1	main_z	11	advance_on_keypress_ZEE	104	stimuli_distractor_diamondtriangles.svg	stimuli_target_trianglecircles.svg	29	yes	57	0	328
6.6.0	win	2022-12-21	08:32:11	08:40:53	518813	5ffc9218eb4ab30bbeb6c301	525399763	1	main_z	11	main_z	105	stimuli_distractor_diamondtriangles.svg	stimuli_distractor_diamondtriangles.svg	39	no	0	1	2000
6.6.0	win	2022-12-21	08:32:11	08:40:53	518813	5ffc9218eb4ab30bbeb6c301	525399763	1	main_z	11	advance_on_keypress_ZEE	106	stimuli_distractor_diamondtriangles.svg	stimuli_distractor_diamondtriangles.svg	39	no	57	0	312
6.6.0	win	2022-12-21	08:32:11	08:40:54	520089	5ffc9218eb4ab30bbeb6c301	525399763	1	main_z	11	main_z	107	stimuli_target_squaretriangles.svg	stimuli_distractor_trianglediamonds.svg	3	yes	44	1	305
6.6.0	win	2022-12-21	08:32:11	08:40:54	520089	5ffc9218eb4ab30bbeb6c301	525399763	1	main_z	11	advance_on_keypress_ZEE	108	stimuli_target_squaretriangles.svg	stimuli_distractor_trianglediamonds.svg	3	yes	57	0	303
6.6.0	win	2022-12-21	08:32:11	08:40:55	521393	5ffc9218eb4ab30bbeb6c301	525399763	1	main_z	11	main_z	109	stimuli_distractor_trianglediamonds.svg	stimuli_target_diamondsquares.svg	28	yes	44	1	358
6.6.0	win	2022-12-21	08:32:11	08:40:55	521393	5ffc9218eb4ab30bbeb6c301	525399763	1	main_z	11	advance_on_keypress_ZEE	110	stimuli_distractor_trianglediamonds.svg	stimuli_target_diamondsquares.svg	28	yes	57	0	367
6.6.0	win	2022-12-21	08:32:11	08:40:57	522809	5ffc9218eb4ab30bbeb6c301	525399763	1	main_z	11	main_z	111	stimuli_target_circletriangles.svg	stimuli_distractor_diamondtriangles.svg	5	yes	44	1	405
6.6.0	win	2022-12-21	08:32:11	08:40:57	522809	5ffc9218eb4ab30bbeb6c301	525399763	1	main_z	11	advance_on_keypress_ZEE	112	stimuli_target_circletriangles.svg	stimuli_distractor_diamondtriangles.svg	5	yes	57	0	724
6.6.0	win	2022-12-21	08:32:11	08:40:59	524697	5ffc9218eb4ab30bbeb6c301	525399763	1	main_z	11	main_z	113	stimuli_distractor_diamondtriangles.svg	stimuli_target_diamondsquares.svg	32	yes	44	1	525
6.6.0	win	2022-12-21	08:32:11	08:40:59	524697	5ffc9218eb4ab30bbeb6c301	525399763	1	main_z	11	advance_on_keypress_ZEE	114	stimuli_distractor_diamondtriangles.svg	stimuli_target_diamondsquares.svg	32	yes	57	0	354
6.6.0	win	2022-12-21	08:32:11	08:41:02	527691	5ffc9218eb4ab30bbeb6c301	525399763	1	main_z	11	main_z	115	stimuli_distractor_diamondtriangles.svg	stimuli_distractor_diamondtriangles.svg	40	no	0	1	2000
6.6.0	win	2022-12-21	08:32:11	08:41:02	527691	5ffc9218eb4ab30bbeb6c301	525399763	1	main_z	11	advance_on_keypress_ZEE	116	stimuli_distractor_diamondtriangles.svg	stimuli_distractor_diamondtriangles.svg	40	no	57	0	311
6.6.0	win	2022-12-21	08:32:11	08:41:03	529081	5ffc9218eb4ab30bbeb6c301	525399763	1	main_z	11	main_z	117	stimuli_distractor_diamondtriangles.svg	stimuli_target_diamondcircles.svg	31	yes	44	1	420
6.6.0	win	2022-12-21	08:32:11	08:41:03	529081	5ffc9218eb4ab30bbeb6c301	525399763	1	main_z	11	advance_on_keypress_ZEE	118	stimuli_distractor_diamondtriangles.svg	stimuli_target_diamondcircles.svg	31	yes	57	0	349
6.6.0	win	2022-12-21	08:32:11	08:41:05	530531	5ffc9218eb4ab30bbeb6c301	525399763	1	main_z	11	main_z	119	stimuli_target_diamondcircles.svg	stimuli_distractor_trianglediamonds.svg	19	yes	44	1	451
6.6.0	win	2022-12-21	08:32:11	08:41:05	530531	5ffc9218eb4ab30bbeb6c301	525399763	1	main_z	11	advance_on_keypress_ZEE	120	stimuli_target_diamondcircles.svg	stimuli_distractor_trianglediamonds.svg	19	yes	57	0	381
6.6.0	win	2022-12-21	08:32:11	08:41:06	532161	5ffc9218eb4ab30bbeb6c301	525399763	1	main_z	11	main_z	121	stimuli_distractor_trianglediamonds.svg	stimuli_target_circletriangles.svg	9	yes	44	1	596
6.6.0	win	2022-12-21	08:32:11	08:41:06	532161	5ffc9218eb4ab30bbeb6c301	525399763	1	main_z	11	advance_on_keypress_ZEE	122	stimuli_distractor_trianglediamonds.svg	stimuli_target_circletriangles.svg	9	yes	57	0	372
6.6.0	win	2022-12-21	08:32:11	08:41:08	533567	5ffc9218eb4ab30bbeb6c301	525399763	1	main_z	11	main_z	123	stimuli_distractor_trianglediamonds.svg	stimuli_distractor_trianglediamonds.svg	33	no	44	0	372
6.6.0	win	2022-12-21	08:32:11	08:41:08	533567	5ffc9218eb4ab30bbeb6c301	525399763	1	main_z	11	advance_on_keypress_ZEE	124	stimuli_distractor_trianglediamonds.svg	stimuli_distractor_trianglediamonds.svg	33	no	57	0	831
6.6.0	win	2022-12-21	08:32:11	08:41:10	535583	5ffc9218eb4ab30bbeb6c301	525399763	1	main_z	11	main_z	125	stimuli_target_diamondcircles.svg	stimuli_distractor_diamondtriangles.svg	23	yes	44	1	530
6.6.0	win	2022-12-21	08:32:11	08:41:10	535583	5ffc9218eb4ab30bbeb6c301	525399763	1	main_z	11	advance_on_keypress_ZEE	126	stimuli_target_diamondcircles.svg	stimuli_distractor_diamondtriangles.svg	23	yes	57	0	338
6.6.0	win	2022-12-21	08:32:11	08:41:11	537145	5ffc9218eb4ab30bbeb6c301	525399763	1	main_z	11	main_z	127	stimuli_target_trianglesquares.svg	stimuli_distractor_diamondtriangles.svg	22	yes	44	1	574
6.6.0	win	2022-12-21	08:32:11	08:41:11	537145	5ffc9218eb4ab30bbeb6c301	525399763	1	main_z	11	advance_on_keypress_ZEE	128	stimuli_target_trianglesquares.svg	stimuli_distractor_diamondtriangles.svg	22	yes	57	0	343
6.6.0	win	2022-12-21	08:32:11	08:41:13	538568	5ffc9218eb4ab30bbeb6c301	525399763	1	main_z	11	main_z	129	stimuli_target_trianglecircles.svg	stimuli_distractor_trianglediamonds.svg	17	yes	44	1	445
6.6.0	win	2022-12-21	08:32:11	08:41:13	538568	5ffc9218eb4ab30bbeb6c301	525399763	1	main_z	11	advance_on_keypress_ZEE	130	stimuli_target_trianglecircles.svg	stimuli_distractor_trianglediamonds.svg	17	yes	57	0	343
6.6.0	win	2022-12-21	08:32:11	08:41:14	539963	5ffc9218eb4ab30bbeb6c301	525399763	1	main_z	11	main_z	131	stimuli_distractor_trianglediamonds.svg	stimuli_target_circlediamonds.svg	10	yes	44	1	422
6.6.0	win	2022-12-21	08:32:11	08:41:14	539963	5ffc9218eb4ab30bbeb6c301	525399763	1	main_z	11	advance_on_keypress_ZEE	132	stimuli_distractor_trianglediamonds.svg	stimuli_target_circlediamonds.svg	10	yes	57	0	328
6.6.0	win	2022-12-21	08:32:11	08:41:15	541340	5ffc9218eb4ab30bbeb6c301	525399763	1	main_z	11	main_z	133	stimuli_target_circletriangles.svg	stimuli_distractor_trianglediamonds.svg	1	yes	44	1	397
6.6.0	win	2022-12-21	08:32:11	08:41:15	541340	5ffc9218eb4ab30bbeb6c301	525399763	1	main_z	11	advance_on_keypress_ZEE	134	stimuli_target_circletriangles.svg	stimuli_distractor_trianglediamonds.svg	1	yes	57	0	359
6.6.0	win	2022-12-21	08:32:11	08:41:17	542829	5ffc9218eb4ab30bbeb6c301	525399763	1	main_z	11	main_z	135	stimuli_target_diamondsquares.svg	stimuli_distractor_diamondtriangles.svg	24	yes	44	1	484
6.6.0	win	2022-12-21	08:32:11	08:41:17	542829	5ffc9218eb4ab30bbeb6c301	525399763	1	main_z	11	advance_on_keypress_ZEE	136	stimuli_target_diamondsquares.svg	stimuli_distractor_diamondtriangles.svg	24	yes	57	0	352
6.6.0	win	2022-12-21	08:32:11	08:41:18	544213	5ffc9218eb4ab30bbeb6c301	525399763	1	main_z	11	main_z	137	stimuli_distractor_diamondtriangles.svg	stimuli_distractor_trianglediamonds.svg	37	no	44	0	383
6.6.0	win	2022-12-21	08:32:11	08:41:18	544213	5ffc9218eb4ab30bbeb6c301	525399763	1	main_z	11	advance_on_keypress_ZEE	138	stimuli_distractor_diamondtriangles.svg	stimuli_distractor_trianglediamonds.svg	37	no	57	0	828
6.6.0	win	2022-12-21	08:32:11	08:41:22	547683	5ffc9218eb4ab30bbeb6c301	525399763	1	main_z	11	main_z	139	stimuli_distractor_trianglediamonds.svg	stimuli_distractor_trianglediamonds.svg	34	no	0	1	2000
6.6.0	win	2022-12-21	08:32:11	08:41:22	547683	5ffc9218eb4ab30bbeb6c301	525399763	1	main_z	11	advance_on_keypress_ZEE	140	stimuli_distractor_trianglediamonds.svg	stimuli_distractor_trianglediamonds.svg	34	no	57	0	363
6.6.0	win	2022-12-21	08:32:11	08:41:23	549019	5ffc9218eb4ab30bbeb6c301	525399763	1	main_z	11	main_z	141	stimuli_target_trianglesquares.svg	stimuli_distractor_trianglediamonds.svg	18	yes	44	1	316
6.6.0	win	2022-12-21	08:32:11	08:41:23	549019	5ffc9218eb4ab30bbeb6c301	525399763	1	main_z	11	advance_on_keypress_ZEE	142	stimuli_target_trianglesquares.svg	stimuli_distractor_trianglediamonds.svg	18	yes	57	0	297
6.6.0	win	2022-12-21	08:32:11	08:41:25	550551	5ffc9218eb4ab30bbeb6c301	525399763	1	main_z	11	main_z	143	stimuli_distractor_trianglediamonds.svg	stimuli_target_squaretriangles.svg	11	yes	44	1	580
6.6.0	win	2022-12-21	08:32:11	08:41:25	550551	5ffc9218eb4ab30bbeb6c301	525399763	1	main_z	11	advance_on_keypress_ZEE	144	stimuli_distractor_trianglediamonds.svg	stimuli_target_squaretriangles.svg	11	yes	57	0	365
6.6.0	win	2022-12-21	08:32:11	08:41:28	553573	5ffc9218eb4ab30bbeb6c301	525399763	1	main_z	11	main_z	145	stimuli_distractor_trianglediamonds.svg	stimuli_distractor_diamondtriangles.svg	36	no	0	1	2000
6.6.0	win	2022-12-21	08:32:11	08:41:28	553573	5ffc9218eb4ab30bbeb6c301	525399763	1	main_z	11	advance_on_keypress_ZEE	146	stimuli_distractor_trianglediamonds.svg	stimuli_distractor_diamondtriangles.svg	36	no	57	0	364
6.6.0	win	2022-12-21	08:32:11	08:41:29	554901	5ffc9218eb4ab30bbeb6c301	525399763	1	main_z	11	main_z	147	stimuli_distractor_diamondtriangles.svg	stimuli_target_trianglesquares.svg	30	yes	44	1	308
6.6.0	win	2022-12-21	08:32:11	08:41:29	554901	5ffc9218eb4ab30bbeb6c301	525399763	1	main_z	11	advance_on_keypress_ZEE	148	stimuli_distractor_diamondtriangles.svg	stimuli_target_trianglesquares.svg	30	yes	57	0	339
6.6.0	win	2022-12-21	08:32:11	08:41:30	556309	5ffc9218eb4ab30bbeb6c301	525399763	1	main_z	11	main_z	149	stimuli_target_trianglecircles.svg	stimuli_distractor_diamondtriangles.svg	21	yes	44	1	431
6.6.0	win	2022-12-21	08:32:11	08:41:30	556309	5ffc9218eb4ab30bbeb6c301	525399763	1	main_z	11	advance_on_keypress_ZEE	150	stimuli_target_trianglecircles.svg	stimuli_distractor_diamondtriangles.svg	21	yes	57	0	381
6.6.0	win	2022-12-21	08:32:11	08:41:32	557712	5ffc9218eb4ab30bbeb6c301	525399763	1	main_z	11	main_z	151	stimuli_distractor_trianglediamonds.svg	stimuli_target_trianglecircles.svg	25	yes	44	1	365
6.6.0	win	2022-12-21	08:32:11	08:41:32	557712	5ffc9218eb4ab30bbeb6c301	525399763	1	main_z	11	advance_on_keypress_ZEE	152	stimuli_distractor_trianglediamonds.svg	stimuli_target_trianglecircles.svg	25	yes	57	0	302
6.6.0	win	2022-12-21	08:32:11	08:41:35	560665	5ffc9218eb4ab30bbeb6c301	525399763	1	main_z	11	main_z	153	stimuli_distractor_diamondtriangles.svg	stimuli_distractor_trianglediamonds.svg	38	no	0	1	2000
6.6.0	win	2022-12-21	08:32:11	08:41:35	560665	5ffc9218eb4ab30bbeb6c301	525399763	1	main_z	11	advance_on_keypress_ZEE	154	stimuli_distractor_diamondtriangles.svg	stimuli_distractor_trianglediamonds.svg	38	no	57	0	509
6.6.0	win	2022-12-21	08:32:11	08:41:36	562272	5ffc9218eb4ab30bbeb6c301	525399763	1	main_z	11	main_z	155	stimuli_distractor_diamondtriangles.svg	stimuli_target_circletriangles.svg	13	yes	44	1	453
6.6.0	win	2022-12-21	08:32:11	08:41:36	562272	5ffc9218eb4ab30bbeb6c301	525399763	1	main_z	11	advance_on_keypress_ZEE	156	stimuli_distractor_diamondtriangles.svg	stimuli_target_circletriangles.svg	13	yes	57	0	282
6.6.0	win	2022-12-21	08:32:11	08:41:38	563636	5ffc9218eb4ab30bbeb6c301	525399763	1	main_z	11	main_z	157	stimuli_target_squarediamonds.svg	stimuli_distractor_diamondtriangles.svg	8	yes	44	1	432
6.6.0	win	2022-12-21	08:32:11	08:41:38	563636	5ffc9218eb4ab30bbeb6c301	525399763	1	main_z	11	advance_on_keypress_ZEE	158	stimuli_target_squarediamonds.svg	stimuli_distractor_diamondtriangles.svg	8	yes	57	0	283
6.6.0	win	2022-12-21	08:32:11	08:41:39	564926	5ffc9218eb4ab30bbeb6c301	525399763	1	main_z	11	main_z	159	stimuli_target_circlediamonds.svg	stimuli_distractor_diamondtriangles.svg	6	yes	44	1	353
6.6.0	win	2022-12-21	08:32:11	08:41:39	564926	5ffc9218eb4ab30bbeb6c301	525399763	1	main_z	11	advance_on_keypress_ZEE	160	stimuli_target_circlediamonds.svg	stimuli_distractor_diamondtriangles.svg	6	yes	57	0	282