build	computer.platform	date	time	timestamp	time_elapsed_ms	subject	group	session	blockcode	blocknum	trialcode	trialnum	stimulus_left	stimulus_right	stim_index	target_present	response	correct	latency
6.6.1	win	2022-12-14	13:24:11	13:26:12	118588	6111c4865701e1ba367af3e3	537108808	1	practice_z	5	practice_z	1	stimuli_distractor_diamondtriangles.svg	stimuli_distractor_diamondtriangles.svg	13	no	0	1	2000
6.6.1	win	2022-12-14	13:24:11	13:26:12	118588	6111c4865701e1ba367af3e3	537108808	1	practice_z	5	advance_on_keypress_ZEE	2	stimuli_distractor_diamondtriangles.svg	stimuli_distractor_diamondtriangles.svg	13	no	57	0	1051
6.6.1	win	2022-12-14	13:24:11	13:26:15	122163	6111c4865701e1ba367af3e3	537108808	1	practice_z	5	practice_z	3	stimuli_distractor_diamondtriangles.svg	stimuli_target_diamondcircles.svg	8	yes	44	1	863
6.6.1	win	2022-12-14	13:24:11	13:26:15	122163	6111c4865701e1ba367af3e3	537108808	1	practice_z	5	advance_on_keypress_ZEE	4	stimuli_distractor_diamondtriangles.svg	stimuli_target_diamondcircles.svg	8	yes	57	0	890
6.6.1	win	2022-12-14	13:24:11	13:26:18	125443	6111c4865701e1ba367af3e3	537108808	1	practice_z	5	practice_z	5	stimuli_target_squarediamonds.svg	stimuli_distractor_trianglediamonds.svg	5	yes	44	1	729
6.6.1	win	2022-12-14	13:24:11	13:26:18	125443	6111c4865701e1ba367af3e3	537108808	1	practice_z	5	advance_on_keypress_ZEE	6	stimuli_target_squarediamonds.svg	stimuli_distractor_trianglediamonds.svg	5	yes	57	0	742
6.6.1	win	2022-12-14	13:24:11	13:26:23	129827	6111c4865701e1ba367af3e3	537108808	1	practice_z	5	practice_z	7	stimuli_distractor_diamondtriangles.svg	stimuli_distractor_trianglediamonds.svg	14	no	0	1	2000
6.6.1	win	2022-12-14	13:24:11	13:26:23	129827	6111c4865701e1ba367af3e3	537108808	1	practice_z	5	advance_on_keypress_ZEE	8	stimuli_distractor_diamondtriangles.svg	stimuli_distractor_trianglediamonds.svg	14	no	57	0	706
6.6.1	win	2022-12-14	13:24:11	13:26:26	133354	6111c4865701e1ba367af3e3	537108808	1	practice_z	5	practice_z	9	stimuli_distractor_trianglediamonds.svg	stimuli_target_squarediamonds.svg	11	yes	44	1	1181
6.6.1	win	2022-12-14	13:24:11	13:26:26	133354	6111c4865701e1ba367af3e3	537108808	1	practice_z	5	advance_on_keypress_ZEE	10	stimuli_distractor_trianglediamonds.svg	stimuli_target_squarediamonds.svg	11	yes	57	0	716
6.6.1	win	2022-12-14	13:24:11	13:26:30	136739	6111c4865701e1ba367af3e3	537108808	1	practice_z	5	practice_z	11	stimuli_distractor_diamondtriangles.svg	stimuli_target_circletriangles.svg	7	yes	44	1	1019
6.6.1	win	2022-12-14	13:24:11	13:26:30	136739	6111c4865701e1ba367af3e3	537108808	1	practice_z	5	advance_on_keypress_ZEE	12	stimuli_distractor_diamondtriangles.svg	stimuli_target_circletriangles.svg	7	yes	57	0	917
6.6.1	win	2022-12-14	13:24:11	13:26:34	141299	6111c4865701e1ba367af3e3	537108808	1	practice_z	5	practice_z	13	stimuli_distractor_trianglediamonds.svg	stimuli_distractor_diamondtriangles.svg	16	no	0	1	2000
6.6.1	win	2022-12-14	13:24:11	13:26:34	141299	6111c4865701e1ba367af3e3	537108808	1	practice_z	5	advance_on_keypress_ZEE	14	stimuli_distractor_trianglediamonds.svg	stimuli_distractor_diamondtriangles.svg	16	no	57	0	542
6.6.1	win	2022-12-14	13:24:11	13:26:37	144141	6111c4865701e1ba367af3e3	537108808	1	practice_z	5	practice_z	15	stimuli_target_circlediamonds.svg	stimuli_distractor_diamondtriangles.svg	1	yes	44	1	646
6.6.1	win	2022-12-14	13:24:11	13:26:37	144141	6111c4865701e1ba367af3e3	537108808	1	practice_z	5	advance_on_keypress_ZEE	16	stimuli_target_circlediamonds.svg	stimuli_distractor_diamondtriangles.svg	1	yes	57	0	933
6.6.1	win	2022-12-14	13:24:11	13:26:42	148725	6111c4865701e1ba367af3e3	537108808	1	practice_z	5	practice_z	17	stimuli_target_diamondsquares.svg	stimuli_distractor_trianglediamonds.svg	6	yes	0	0	2000
6.6.1	win	2022-12-14	13:24:11	13:26:42	148725	6111c4865701e1ba367af3e3	537108808	1	practice_z	5	advance_on_keypress_ZEE	18	stimuli_target_diamondsquares.svg	stimuli_distractor_trianglediamonds.svg	6	yes	57	0	500
6.6.1	win	2022-12-14	13:24:11	13:26:46	152871	6111c4865701e1ba367af3e3	537108808	1	practice_z	5	practice_z	19	stimuli_distractor_trianglediamonds.svg	stimuli_distractor_trianglediamonds.svg	15	no	0	1	2000
6.6.1	win	2022-12-14	13:24:11	13:26:46	152871	6111c4865701e1ba367af3e3	537108808	1	practice_z	5	advance_on_keypress_ZEE	20	stimuli_distractor_trianglediamonds.svg	stimuli_distractor_trianglediamonds.svg	15	no	57	0	601
6.6.1	win	2022-12-14	13:24:11	13:26:49	155789	6111c4865701e1ba367af3e3	537108808	1	practice_z	5	practice_z	21	stimuli_target_squarediamonds.svg	stimuli_distractor_diamondtriangles.svg	2	yes	44	1	672
6.6.1	win	2022-12-14	13:24:11	13:26:49	155789	6111c4865701e1ba367af3e3	537108808	1	practice_z	5	advance_on_keypress_ZEE	22	stimuli_target_squarediamonds.svg	stimuli_distractor_diamondtriangles.svg	2	yes	57	0	818
6.6.1	win	2022-12-14	13:24:11	13:26:53	159663	6111c4865701e1ba367af3e3	537108808	1	practice_z	5	practice_z	23	stimuli_target_diamondsquares.svg	stimuli_distractor_diamondtriangles.svg	3	yes	44	1	1414
6.6.1	win	2022-12-14	13:24:11	13:26:53	159663	6111c4865701e1ba367af3e3	537108808	1	practice_z	5	advance_on_keypress_ZEE	24	stimuli_target_diamondsquares.svg	stimuli_distractor_diamondtriangles.svg	3	yes	57	0	477
6.6.1	win	2022-12-14	13:24:11	13:26:55	162392	6111c4865701e1ba367af3e3	537108808	1	practice_z	5	practice_z	25	stimuli_target_circlediamonds.svg	stimuli_distractor_trianglediamonds.svg	4	yes	44	1	598
6.6.1	win	2022-12-14	13:24:11	13:26:55	162392	6111c4865701e1ba367af3e3	537108808	1	practice_z	5	advance_on_keypress_ZEE	26	stimuli_target_circlediamonds.svg	stimuli_distractor_trianglediamonds.svg	4	yes	57	0	610
6.6.1	win	2022-12-14	13:24:11	13:26:58	165535	6111c4865701e1ba367af3e3	537108808	1	practice_z	5	practice_z	27	stimuli_distractor_trianglediamonds.svg	stimuli_target_circlediamonds.svg	10	yes	44	1	876
6.6.1	win	2022-12-14	13:24:11	13:26:58	165535	6111c4865701e1ba367af3e3	537108808	1	practice_z	5	advance_on_keypress_ZEE	28	stimuli_distractor_trianglediamonds.svg	stimuli_target_circlediamonds.svg	10	yes	57	0	636
6.6.1	win	2022-12-14	13:24:11	13:27:02	168594	6111c4865701e1ba367af3e3	537108808	1	practice_z	5	practice_z	29	stimuli_distractor_diamondtriangles.svg	stimuli_target_trianglecircles.svg	9	yes	44	1	772
6.6.1	win	2022-12-14	13:24:11	13:27:02	168594	6111c4865701e1ba367af3e3	537108808	1	practice_z	5	advance_on_keypress_ZEE	30	stimuli_distractor_diamondtriangles.svg	stimuli_target_trianglecircles.svg	9	yes	57	0	919
6.6.1	win	2022-12-14	13:24:11	13:27:05	171926	6111c4865701e1ba367af3e3	537108808	1	practice_z	5	practice_z	31	stimuli_distractor_trianglediamonds.svg	stimuli_target_diamondcircles.svg	12	yes	44	1	774
6.6.1	win	2022-12-14	13:24:11	13:27:05	171926	6111c4865701e1ba367af3e3	537108808	1	practice_z	5	advance_on_keypress_ZEE	32	stimuli_distractor_trianglediamonds.svg	stimuli_target_diamondcircles.svg	12	yes	57	0	725
6.6.1	win	2022-12-14	13:24:11	13:27:12	178661	6111c4865701e1ba367af3e3	537108808	1	main_z	7	main_z	1	stimuli_distractor_trianglediamonds.svg	stimuli_distractor_trianglediamonds.svg	34	no	0	1	2000
6.6.1	win	2022-12-14	13:24:11	13:27:12	178661	6111c4865701e1ba367af3e3	537108808	1	main_z	7	advance_on_keypress_ZEE	2	stimuli_distractor_trianglediamonds.svg	stimuli_distractor_trianglediamonds.svg	34	no	57	0	519
6.6.1	win	2022-12-14	13:24:11	13:27:13	180476	6111c4865701e1ba367af3e3	537108808	1	main_z	7	main_z	3	stimuli_distractor_trianglediamonds.svg	stimuli_target_diamondcircles.svg	27	yes	44	1	651
6.6.1	win	2022-12-14	13:24:11	13:27:13	180476	6111c4865701e1ba367af3e3	537108808	1	main_z	7	advance_on_keypress_ZEE	4	stimuli_distractor_trianglediamonds.svg	stimuli_target_diamondcircles.svg	27	yes	57	0	1008
6.6.1	win	2022-12-14	13:24:11	13:27:16	182702	6111c4865701e1ba367af3e3	537108808	1	main_z	7	main_z	5	stimuli_target_circlediamonds.svg	stimuli_distractor_diamondtriangles.svg	6	yes	44	1	580
6.6.1	win	2022-12-14	13:24:11	13:27:16	182702	6111c4865701e1ba367af3e3	537108808	1	main_z	7	advance_on_keypress_ZEE	6	stimuli_target_circlediamonds.svg	stimuli_distractor_diamondtriangles.svg	6	yes	57	0	657
6.6.1	win	2022-12-14	13:24:11	13:27:18	184544	6111c4865701e1ba367af3e3	537108808	1	main_z	7	main_z	7	stimuli_distractor_diamondtriangles.svg	stimuli_target_circletriangles.svg	13	yes	44	1	540
6.6.1	win	2022-12-14	13:24:11	13:27:18	184544	6111c4865701e1ba367af3e3	537108808	1	main_z	7	advance_on_keypress_ZEE	8	stimuli_distractor_diamondtriangles.svg	stimuli_target_circletriangles.svg	13	yes	57	0	504
6.6.1	win	2022-12-14	13:24:11	13:27:21	187702	6111c4865701e1ba367af3e3	537108808	1	main_z	7	main_z	9	stimuli_distractor_diamondtriangles.svg	stimuli_distractor_trianglediamonds.svg	37	no	0	1	2000
6.6.1	win	2022-12-14	13:24:11	13:27:21	187702	6111c4865701e1ba367af3e3	537108808	1	main_z	7	advance_on_keypress_ZEE	10	stimuli_distractor_diamondtriangles.svg	stimuli_distractor_trianglediamonds.svg	37	no	57	0	463
6.6.1	win	2022-12-14	13:24:11	13:27:22	189411	6111c4865701e1ba367af3e3	537108808	1	main_z	7	main_z	11	stimuli_target_circlediamonds.svg	stimuli_distractor_trianglediamonds.svg	2	yes	44	1	595
6.6.1	win	2022-12-14	13:24:11	13:27:22	189411	6111c4865701e1ba367af3e3	537108808	1	main_z	7	advance_on_keypress_ZEE	12	stimuli_target_circlediamonds.svg	stimuli_distractor_trianglediamonds.svg	2	yes	57	0	689
6.6.1	win	2022-12-14	13:24:11	13:27:24	191338	6111c4865701e1ba367af3e3	537108808	1	main_z	7	main_z	13	stimuli_target_diamondcircles.svg	stimuli_distractor_diamondtriangles.svg	23	yes	44	1	590
6.6.1	win	2022-12-14	13:24:11	13:27:24	191338	6111c4865701e1ba367af3e3	537108808	1	main_z	7	advance_on_keypress_ZEE	14	stimuli_target_diamondcircles.svg	stimuli_distractor_diamondtriangles.svg	23	yes	57	0	795
6.6.1	win	2022-12-14	13:24:11	13:27:26	193512	6111c4865701e1ba367af3e3	537108808	1	main_z	7	main_z	15	stimuli_distractor_trianglediamonds.svg	stimuli_target_diamondsquares.svg	28	yes	44	1	730
6.6.1	win	2022-12-14	13:24:11	13:27:26	193512	6111c4865701e1ba367af3e3	537108808	1	main_z	7	advance_on_keypress_ZEE	16	stimuli_distractor_trianglediamonds.svg	stimuli_target_diamondsquares.svg	28	yes	57	0	1951
6.6.1	win	2022-12-14	13:24:11	13:27:30	197144	6111c4865701e1ba367af3e3	537108808	1	main_z	7	main_z	17	stimuli_distractor_trianglediamonds.svg	stimuli_target_circletriangles.svg	9	yes	44	1	1034
6.6.1	win	2022-12-14	13:24:11	13:27:30	197144	6111c4865701e1ba367af3e3	537108808	1	main_z	7	advance_on_keypress_ZEE	18	stimuli_distractor_trianglediamonds.svg	stimuli_target_circletriangles.svg	9	yes	57	0	676
6.6.1	win	2022-12-14	13:24:11	13:27:33	200457	6111c4865701e1ba367af3e3	537108808	1	main_z	7	main_z	19	stimuli_distractor_trianglediamonds.svg	stimuli_distractor_trianglediamonds.svg	33	no	0	1	2000
6.6.1	win	2022-12-14	13:24:11	13:27:33	200457	6111c4865701e1ba367af3e3	537108808	1	main_z	7	advance_on_keypress_ZEE	20	stimuli_distractor_trianglediamonds.svg	stimuli_distractor_trianglediamonds.svg	33	no	57	0	546
6.6.1	win	2022-12-14	13:24:11	13:27:35	202298	6111c4865701e1ba367af3e3	537108808	1	main_z	7	main_z	21	stimuli_target_squarediamonds.svg	stimuli_distractor_trianglediamonds.svg	4	yes	44	1	644
6.6.1	win	2022-12-14	13:24:11	13:27:35	202298	6111c4865701e1ba367af3e3	537108808	1	main_z	7	advance_on_keypress_ZEE	22	stimuli_target_squarediamonds.svg	stimuli_distractor_trianglediamonds.svg	4	yes	57	0	536
6.6.1	win	2022-12-14	13:24:11	13:27:37	204138	6111c4865701e1ba367af3e3	537108808	1	main_z	7	main_z	23	stimuli_target_trianglesquares.svg	stimuli_distractor_trianglediamonds.svg	18	yes	44	1	652
6.6.1	win	2022-12-14	13:24:11	13:27:37	204138	6111c4865701e1ba367af3e3	537108808	1	main_z	7	advance_on_keypress_ZEE	24	stimuli_target_trianglesquares.svg	stimuli_distractor_trianglediamonds.svg	18	yes	57	0	524
6.6.1	win	2022-12-14	13:24:11	13:27:39	206082	6111c4865701e1ba367af3e3	537108808	1	main_z	7	main_z	25	stimuli_target_trianglesquares.svg	stimuli_distractor_diamondtriangles.svg	22	yes	44	1	781
6.6.1	win	2022-12-14	13:24:11	13:27:39	206082	6111c4865701e1ba367af3e3	537108808	1	main_z	7	advance_on_keypress_ZEE	26	stimuli_target_trianglesquares.svg	stimuli_distractor_diamondtriangles.svg	22	yes	57	0	851
6.6.1	win	2022-12-14	13:24:11	13:27:43	209582	6111c4865701e1ba367af3e3	537108808	1	main_z	7	main_z	27	stimuli_distractor_trianglediamonds.svg	stimuli_distractor_diamondtriangles.svg	35	no	0	1	2000
6.6.1	win	2022-12-14	13:24:11	13:27:43	209582	6111c4865701e1ba367af3e3	537108808	1	main_z	7	advance_on_keypress_ZEE	28	stimuli_distractor_trianglediamonds.svg	stimuli_distractor_diamondtriangles.svg	35	no	57	0	547
6.6.1	win	2022-12-14	13:24:11	13:27:44	211300	6111c4865701e1ba367af3e3	537108808	1	main_z	7	main_z	29	stimuli_target_squarediamonds.svg	stimuli_distractor_diamondtriangles.svg	8	yes	44	1	521
6.6.1	win	2022-12-14	13:24:11	13:27:44	211300	6111c4865701e1ba367af3e3	537108808	1	main_z	7	advance_on_keypress_ZEE	30	stimuli_target_squarediamonds.svg	stimuli_distractor_diamondtriangles.svg	8	yes	57	0	538
6.6.1	win	2022-12-14	13:24:11	13:27:46	213192	6111c4865701e1ba367af3e3	537108808	1	main_z	7	main_z	31	stimuli_distractor_trianglediamonds.svg	stimuli_target_squaretriangles.svg	11	yes	44	1	715
6.6.1	win	2022-12-14	13:24:11	13:27:46	213192	6111c4865701e1ba367af3e3	537108808	1	main_z	7	advance_on_keypress_ZEE	32	stimuli_distractor_trianglediamonds.svg	stimuli_target_squaretriangles.svg	11	yes	57	0	420
6.6.1	win	2022-12-14	13:24:11	13:27:48	214957	6111c4865701e1ba367af3e3	537108808	1	main_z	7	main_z	33	stimuli_distractor_diamondtriangles.svg	stimuli_target_trianglecircles.svg	29	yes	44	1	698
6.6.1	win	2022-12-14	13:24:11	13:27:48	214957	6111c4865701e1ba367af3e3	537108808	1	main_z	7	advance_on_keypress_ZEE	34	stimuli_distractor_diamondtriangles.svg	stimuli_target_trianglecircles.svg	29	yes	57	0	358
6.6.1	win	2022-12-14	13:24:11	13:27:51	217957	6111c4865701e1ba367af3e3	537108808	1	main_z	7	main_z	35	stimuli_distractor_diamondtriangles.svg	stimuli_target_trianglesquares.svg	30	yes	0	0	2000
6.6.1	win	2022-12-14	13:24:11	13:27:51	217957	6111c4865701e1ba367af3e3	537108808	1	main_z	7	advance_on_keypress_ZEE	36	stimuli_distractor_diamondtriangles.svg	stimuli_target_trianglesquares.svg	30	yes	57	0	367
6.6.1	win	2022-12-14	13:24:11	13:27:54	220971	6111c4865701e1ba367af3e3	537108808	1	main_z	7	main_z	37	stimuli_distractor_diamondtriangles.svg	stimuli_distractor_diamondtriangles.svg	40	no	0	1	2000
6.6.1	win	2022-12-14	13:24:11	13:27:54	220971	6111c4865701e1ba367af3e3	537108808	1	main_z	7	advance_on_keypress_ZEE	38	stimuli_distractor_diamondtriangles.svg	stimuli_distractor_diamondtriangles.svg	40	no	57	0	497
6.6.1	win	2022-12-14	13:24:11	13:27:56	222738	6111c4865701e1ba367af3e3	537108808	1	main_z	7	main_z	39	stimuli_target_trianglecircles.svg	stimuli_distractor_trianglediamonds.svg	17	yes	44	1	620
6.6.1	win	2022-12-14	13:24:11	13:27:56	222738	6111c4865701e1ba367af3e3	537108808	1	main_z	7	advance_on_keypress_ZEE	40	stimuli_target_trianglecircles.svg	stimuli_distractor_trianglediamonds.svg	17	yes	57	0	525
6.6.1	win	2022-12-14	13:24:11	13:27:57	224533	6111c4865701e1ba367af3e3	537108808	1	main_z	7	main_z	41	stimuli_distractor_trianglediamonds.svg	stimuli_target_squarediamonds.svg	12	yes	44	1	633
6.6.1	win	2022-12-14	13:24:11	13:27:57	224533	6111c4865701e1ba367af3e3	537108808	1	main_z	7	advance_on_keypress_ZEE	42	stimuli_distractor_trianglediamonds.svg	stimuli_target_squarediamonds.svg	12	yes	57	0	398
6.6.1	win	2022-12-14	13:24:11	13:27:59	226348	6111c4865701e1ba367af3e3	537108808	1	main_z	7	main_z	43	stimuli_target_diamondsquares.svg	stimuli_distractor_diamondtriangles.svg	24	yes	44	1	766
6.6.1	win	2022-12-14	13:24:11	13:27:59	226348	6111c4865701e1ba367af3e3	537108808	1	main_z	7	advance_on_keypress_ZEE	44	stimuli_target_diamondsquares.svg	stimuli_distractor_diamondtriangles.svg	24	yes	57	0	784
6.6.1	win	2022-12-14	13:24:11	13:28:01	228346	6111c4865701e1ba367af3e3	537108808	1	main_z	7	main_z	45	stimuli_distractor_trianglediamonds.svg	stimuli_target_circlediamonds.svg	10	yes	44	1	566
6.6.1	win	2022-12-14	13:24:11	13:28:01	228346	6111c4865701e1ba367af3e3	537108808	1	main_z	7	advance_on_keypress_ZEE	46	stimuli_distractor_trianglediamonds.svg	stimuli_target_circlediamonds.svg	10	yes	57	0	327
6.6.1	win	2022-12-14	13:24:11	13:28:03	230335	6111c4865701e1ba367af3e3	537108808	1	main_z	7	main_z	47	stimuli_distractor_trianglediamonds.svg	stimuli_target_trianglesquares.svg	26	yes	44	1	1023
6.6.1	win	2022-12-14	13:24:11	13:28:03	230335	6111c4865701e1ba367af3e3	537108808	1	main_z	7	advance_on_keypress_ZEE	48	stimuli_distractor_trianglediamonds.svg	stimuli_target_trianglesquares.svg	26	yes	57	0	314
6.6.1	win	2022-12-14	13:24:11	13:28:06	233293	6111c4865701e1ba367af3e3	537108808	1	main_z	7	main_z	49	stimuli_distractor_diamondtriangles.svg	stimuli_target_squarediamonds.svg	16	yes	0	0	2000
6.6.1	win	2022-12-14	13:24:11	13:28:06	233293	6111c4865701e1ba367af3e3	537108808	1	main_z	7	advance_on_keypress_ZEE	50	stimuli_distractor_diamondtriangles.svg	stimuli_target_squarediamonds.svg	16	yes	57	0	542
6.6.1	win	2022-12-14	13:24:11	13:28:09	236473	6111c4865701e1ba367af3e3	537108808	1	main_z	7	main_z	51	stimuli_distractor_diamondtriangles.svg	stimuli_distractor_trianglediamonds.svg	38	no	0	1	2000
6.6.1	win	2022-12-14	13:24:11	13:28:09	236473	6111c4865701e1ba367af3e3	537108808	1	main_z	7	advance_on_keypress_ZEE	52	stimuli_distractor_diamondtriangles.svg	stimuli_distractor_trianglediamonds.svg	38	no	57	0	575
6.6.1	win	2022-12-14	13:24:11	13:28:11	238366	6111c4865701e1ba367af3e3	537108808	1	main_z	7	main_z	53	stimuli_target_circletriangles.svg	stimuli_distractor_diamondtriangles.svg	5	yes	44	1	680
6.6.1	win	2022-12-14	13:24:11	13:28:11	238366	6111c4865701e1ba367af3e3	537108808	1	main_z	7	advance_on_keypress_ZEE	54	stimuli_target_circletriangles.svg	stimuli_distractor_diamondtriangles.svg	5	yes	57	0	403
6.6.1	win	2022-12-14	13:24:11	13:28:13	240088	6111c4865701e1ba367af3e3	537108808	1	main_z	7	main_z	55	stimuli_distractor_trianglediamonds.svg	stimuli_target_trianglecircles.svg	25	yes	44	1	669
6.6.1	win	2022-12-14	13:24:11	13:28:13	240088	6111c4865701e1ba367af3e3	537108808	1	main_z	7	advance_on_keypress_ZEE	56	stimuli_distractor_trianglediamonds.svg	stimuli_target_trianglecircles.svg	25	yes	57	0	409
6.6.1	win	2022-12-14	13:24:11	13:28:15	242062	6111c4865701e1ba367af3e3	537108808	1	main_z	7	main_z	57	stimuli_target_squaretriangles.svg	stimuli_distractor_trianglediamonds.svg	3	yes	44	1	928
6.6.1	win	2022-12-14	13:24:11	13:28:15	242062	6111c4865701e1ba367af3e3	537108808	1	main_z	7	advance_on_keypress_ZEE	58	stimuli_target_squaretriangles.svg	stimuli_distractor_trianglediamonds.svg	3	yes	57	0	399
6.6.1	win	2022-12-14	13:24:11	13:28:17	243666	6111c4865701e1ba367af3e3	537108808	1	main_z	7	main_z	59	stimuli_target_trianglecircles.svg	stimuli_distractor_diamondtriangles.svg	21	yes	44	1	548
6.6.1	win	2022-12-14	13:24:11	13:28:17	243666	6111c4865701e1ba367af3e3	537108808	1	main_z	7	advance_on_keypress_ZEE	60	stimuli_target_trianglecircles.svg	stimuli_distractor_diamondtriangles.svg	21	yes	57	0	356
6.6.1	win	2022-12-14	13:24:11	13:28:18	245259	6111c4865701e1ba367af3e3	537108808	1	main_z	7	main_z	61	stimuli_distractor_diamondtriangles.svg	stimuli_target_circlediamonds.svg	14	yes	44	1	595
6.6.1	win	2022-12-14	13:24:11	13:28:18	245259	6111c4865701e1ba367af3e3	537108808	1	main_z	7	advance_on_keypress_ZEE	62	stimuli_distractor_diamondtriangles.svg	stimuli_target_circlediamonds.svg	14	yes	57	0	277
6.6.1	win	2022-12-14	13:24:11	13:28:20	246743	6111c4865701e1ba367af3e3	537108808	1	main_z	7	main_z	63	stimuli_distractor_diamondtriangles.svg	stimuli_target_diamondcircles.svg	31	yes	44	1	547
6.6.1	win	2022-12-14	13:24:11	13:28:20	246743	6111c4865701e1ba367af3e3	537108808	1	main_z	7	advance_on_keypress_ZEE	64	stimuli_distractor_diamondtriangles.svg	stimuli_target_diamondcircles.svg	31	yes	57	0	546
6.6.1	win	2022-12-14	13:24:11	13:28:23	249944	6111c4865701e1ba367af3e3	537108808	1	main_z	7	main_z	65	stimuli_target_diamondsquares.svg	stimuli_distractor_trianglediamonds.svg	20	yes	0	0	2000
6.6.1	win	2022-12-14	13:24:11	13:28:23	249944	6111c4865701e1ba367af3e3	537108808	1	main_z	7	advance_on_keypress_ZEE	66	stimuli_target_diamondsquares.svg	stimuli_distractor_trianglediamonds.svg	20	yes	57	0	813
6.6.1	win	2022-12-14	13:24:11	13:28:25	252006	6111c4865701e1ba367af3e3	537108808	1	main_z	7	main_z	67	stimuli_target_circletriangles.svg	stimuli_distractor_trianglediamonds.svg	1	yes	44	1	599
6.6.1	win	2022-12-14	13:24:11	13:28:25	252006	6111c4865701e1ba367af3e3	537108808	1	main_z	7	advance_on_keypress_ZEE	68	stimuli_target_circletriangles.svg	stimuli_distractor_trianglediamonds.svg	1	yes	57	0	343
6.6.1	win	2022-12-14	13:24:11	13:28:26	253517	6111c4865701e1ba367af3e3	537108808	1	main_z	7	main_z	69	stimuli_target_diamondcircles.svg	stimuli_distractor_trianglediamonds.svg	19	yes	44	1	528
6.6.1	win	2022-12-14	13:24:11	13:28:26	253517	6111c4865701e1ba367af3e3	537108808	1	main_z	7	advance_on_keypress_ZEE	70	stimuli_target_diamondcircles.svg	stimuli_distractor_trianglediamonds.svg	19	yes	57	0	258
6.6.1	win	2022-12-14	13:24:11	13:28:28	255000	6111c4865701e1ba367af3e3	537108808	1	main_z	7	main_z	71	stimuli_distractor_diamondtriangles.svg	stimuli_target_squaretriangles.svg	15	yes	44	1	578
6.6.1	win	2022-12-14	13:24:11	13:28:28	255000	6111c4865701e1ba367af3e3	537108808	1	main_z	7	advance_on_keypress_ZEE	72	stimuli_distractor_diamondtriangles.svg	stimuli_target_squaretriangles.svg	15	yes	57	0	281
6.6.1	win	2022-12-14	13:24:11	13:28:29	256364	6111c4865701e1ba367af3e3	537108808	1	main_z	7	main_z	73	stimuli_target_squaretriangles.svg	stimuli_distractor_diamondtriangles.svg	7	yes	44	1	427
6.6.1	win	2022-12-14	13:24:11	13:28:29	256364	6111c4865701e1ba367af3e3	537108808	1	main_z	7	advance_on_keypress_ZEE	74	stimuli_target_squaretriangles.svg	stimuli_distractor_diamondtriangles.svg	7	yes	57	0	430
6.6.1	win	2022-12-14	13:24:11	13:28:32	259452	6111c4865701e1ba367af3e3	537108808	1	main_z	7	main_z	75	stimuli_distractor_diamondtriangles.svg	stimuli_distractor_diamondtriangles.svg	39	no	0	1	2000
6.6.1	win	2022-12-14	13:24:11	13:28:32	259452	6111c4865701e1ba367af3e3	537108808	1	main_z	7	advance_on_keypress_ZEE	76	stimuli_distractor_diamondtriangles.svg	stimuli_distractor_diamondtriangles.svg	39	no	57	0	475
6.6.1	win	2022-12-14	13:24:11	13:28:36	262566	6111c4865701e1ba367af3e3	537108808	1	main_z	7	main_z	77	stimuli_distractor_diamondtriangles.svg	stimuli_target_diamondsquares.svg	32	yes	0	0	2000
6.6.1	win	2022-12-14	13:24:11	13:28:36	262566	6111c4865701e1ba367af3e3	537108808	1	main_z	7	advance_on_keypress_ZEE	78	stimuli_distractor_diamondtriangles.svg	stimuli_target_diamondsquares.svg	32	yes	57	0	454
6.6.1	win	2022-12-14	13:24:11	13:28:39	265663	6111c4865701e1ba367af3e3	537108808	1	main_z	7	main_z	79	stimuli_distractor_trianglediamonds.svg	stimuli_distractor_diamondtriangles.svg	36	no	0	1	2000
6.6.1	win	2022-12-14	13:24:11	13:28:39	265663	6111c4865701e1ba367af3e3	537108808	1	main_z	7	advance_on_keypress_ZEE	80	stimuli_distractor_trianglediamonds.svg	stimuli_distractor_diamondtriangles.svg	36	no	57	0	676
6.6.1	win	2022-12-14	13:24:11	13:28:40	267544	6111c4865701e1ba367af3e3	537108808	1	main_z	7	main_z	81	stimuli_distractor_diamondtriangles.svg	stimuli_target_trianglecircles.svg	29	yes	44	1	568
6.6.1	win	2022-12-14	13:24:11	13:28:40	267544	6111c4865701e1ba367af3e3	537108808	1	main_z	7	advance_on_keypress_ZEE	82	stimuli_distractor_diamondtriangles.svg	stimuli_target_trianglecircles.svg	29	yes	57	0	301
6.6.1	win	2022-12-14	13:24:11	13:28:43	270491	6111c4865701e1ba367af3e3	537108808	1	main_z	7	main_z	83	stimuli_distractor_diamondtriangles.svg	stimuli_distractor_trianglediamonds.svg	38	no	0	1	2000
6.6.1	win	2022-12-14	13:24:11	13:28:43	270491	6111c4865701e1ba367af3e3	537108808	1	main_z	7	advance_on_keypress_ZEE	84	stimuli_distractor_diamondtriangles.svg	stimuli_distractor_trianglediamonds.svg	38	no	57	0	332
6.6.1	win	2022-12-14	13:24:11	13:28:46	273472	6111c4865701e1ba367af3e3	537108808	1	main_z	7	main_z	85	stimuli_distractor_trianglediamonds.svg	stimuli_distractor_diamondtriangles.svg	35	no	0	1	2000
6.6.1	win	2022-12-14	13:24:11	13:28:46	273472	6111c4865701e1ba367af3e3	537108808	1	main_z	7	advance_on_keypress_ZEE	86	stimuli_distractor_trianglediamonds.svg	stimuli_distractor_diamondtriangles.svg	35	no	57	0	230
6.6.1	win	2022-12-14	13:24:11	13:28:48	274915	6111c4865701e1ba367af3e3	537108808	1	main_z	7	main_z	87	stimuli_distractor_trianglediamonds.svg	stimuli_target_trianglecircles.svg	25	yes	44	1	562
6.6.1	win	2022-12-14	13:24:11	13:28:48	274915	6111c4865701e1ba367af3e3	537108808	1	main_z	7	advance_on_keypress_ZEE	88	stimuli_distractor_trianglediamonds.svg	stimuli_target_trianglecircles.svg	25	yes	57	0	322
6.6.1	win	2022-12-14	13:24:11	13:28:50	276701	6111c4865701e1ba367af3e3	537108808	1	main_z	7	main_z	89	stimuli_target_diamondsquares.svg	stimuli_distractor_diamondtriangles.svg	24	yes	44	1	815
6.6.1	win	2022-12-14	13:24:11	13:28:50	276701	6111c4865701e1ba367af3e3	537108808	1	main_z	7	advance_on_keypress_ZEE	90	stimuli_target_diamondsquares.svg	stimuli_distractor_diamondtriangles.svg	24	yes	57	0	239
6.6.1	win	2022-12-14	13:24:11	13:28:51	278200	6111c4865701e1ba367af3e3	537108808	1	main_z	7	main_z	91	stimuli_target_squaretriangles.svg	stimuli_distractor_trianglediamonds.svg	3	yes	44	1	617
6.6.1	win	2022-12-14	13:24:11	13:28:51	278200	6111c4865701e1ba367af3e3	537108808	1	main_z	7	advance_on_keypress_ZEE	92	stimuli_target_squaretriangles.svg	stimuli_distractor_trianglediamonds.svg	3	yes	57	0	312
6.6.1	win	2022-12-14	13:24:11	13:28:54	281165	6111c4865701e1ba367af3e3	537108808	1	main_z	7	main_z	93	stimuli_distractor_trianglediamonds.svg	stimuli_distractor_diamondtriangles.svg	36	no	0	1	2000
6.6.1	win	2022-12-14	13:24:11	13:28:54	281165	6111c4865701e1ba367af3e3	537108808	1	main_z	7	advance_on_keypress_ZEE	94	stimuli_distractor_trianglediamonds.svg	stimuli_distractor_diamondtriangles.svg	36	no	57	0	394
6.6.1	win	2022-12-14	13:24:11	13:28:56	282689	6111c4865701e1ba367af3e3	537108808	1	main_z	7	main_z	95	stimuli_target_squarediamonds.svg	stimuli_distractor_diamondtriangles.svg	8	yes	44	1	477
6.6.1	win	2022-12-14	13:24:11	13:28:56	282689	6111c4865701e1ba367af3e3	537108808	1	main_z	7	advance_on_keypress_ZEE	96	stimuli_target_squarediamonds.svg	stimuli_distractor_diamondtriangles.svg	8	yes	57	0	258
6.6.1	win	2022-12-14	13:24:11	13:28:57	284025	6111c4865701e1ba367af3e3	537108808	1	main_z	7	main_z	97	stimuli_target_circletriangles.svg	stimuli_distractor_diamondtriangles.svg	5	yes	44	1	447
6.6.1	win	2022-12-14	13:24:11	13:28:57	284025	6111c4865701e1ba367af3e3	537108808	1	main_z	7	advance_on_keypress_ZEE	98	stimuli_target_circletriangles.svg	stimuli_distractor_diamondtriangles.svg	5	yes	57	0	265
6.6.1	win	2022-12-14	13:24:11	13:28:58	285522	6111c4865701e1ba367af3e3	537108808	1	main_z	7	main_z	99	stimuli_distractor_diamondtriangles.svg	stimuli_target_diamondcircles.svg	31	yes	44	1	579
6.6.1	win	2022-12-14	13:24:11	13:28:58	285522	6111c4865701e1ba367af3e3	537108808	1	main_z	7	advance_on_keypress_ZEE	100	stimuli_distractor_diamondtriangles.svg	stimuli_target_diamondcircles.svg	31	yes	57	0	267
6.6.1	win	2022-12-14	13:24:11	13:29:00	286927	6111c4865701e1ba367af3e3	537108808	1	main_z	7	main_z	101	stimuli_target_squaretriangles.svg	stimuli_distractor_diamondtriangles.svg	7	yes	44	1	485
6.6.1	win	2022-12-14	13:24:11	13:29:00	286927	6111c4865701e1ba367af3e3	537108808	1	main_z	7	advance_on_keypress_ZEE	102	stimuli_target_squaretriangles.svg	stimuli_distractor_diamondtriangles.svg	7	yes	57	0	274
6.6.1	win	2022-12-14	13:24:11	13:29:01	288406	6111c4865701e1ba367af3e3	537108808	1	main_z	7	main_z	103	stimuli_distractor_diamondtriangles.svg	stimuli_target_circletriangles.svg	13	yes	44	1	565
6.6.1	win	2022-12-14	13:24:11	13:29:01	288406	6111c4865701e1ba367af3e3	537108808	1	main_z	7	advance_on_keypress_ZEE	104	stimuli_distractor_diamondtriangles.svg	stimuli_target_circletriangles.svg	13	yes	57	0	240
6.6.1	win	2022-12-14	13:24:11	13:29:03	289803	6111c4865701e1ba367af3e3	537108808	1	main_z	7	main_z	105	stimuli_target_trianglecircles.svg	stimuli_distractor_diamondtriangles.svg	21	yes	44	1	514
6.6.1	win	2022-12-14	13:24:11	13:29:03	289803	6111c4865701e1ba367af3e3	537108808	1	main_z	7	advance_on_keypress_ZEE	106	stimuli_target_trianglecircles.svg	stimuli_distractor_diamondtriangles.svg	21	yes	57	0	222
6.6.1	win	2022-12-14	13:24:11	13:29:04	291102	6111c4865701e1ba367af3e3	537108808	1	main_z	7	main_z	107	stimuli_distractor_diamondtriangles.svg	stimuli_target_trianglesquares.svg	30	yes	44	1	431
6.6.1	win	2022-12-14	13:24:11	13:29:04	291102	6111c4865701e1ba367af3e3	537108808	1	main_z	7	advance_on_keypress_ZEE	108	stimuli_distractor_diamondtriangles.svg	stimuli_target_trianglesquares.svg	30	yes	57	0	451
6.6.1	win	2022-12-14	13:24:11	13:29:06	292726	6111c4865701e1ba367af3e3	537108808	1	main_z	7	main_z	109	stimuli_distractor_diamondtriangles.svg	stimuli_target_circlediamonds.svg	14	yes	44	1	523
6.6.1	win	2022-12-14	13:24:11	13:29:06	292726	6111c4865701e1ba367af3e3	537108808	1	main_z	7	advance_on_keypress_ZEE	110	stimuli_distractor_diamondtriangles.svg	stimuli_target_circlediamonds.svg	14	yes	57	0	238
6.6.1	win	2022-12-14	13:24:11	13:29:09	295601	6111c4865701e1ba367af3e3	537108808	1	main_z	7	main_z	111	stimuli_distractor_trianglediamonds.svg	stimuli_distractor_trianglediamonds.svg	33	no	0	1	2000
6.6.1	win	2022-12-14	13:24:11	13:29:09	295601	6111c4865701e1ba367af3e3	537108808	1	main_z	7	advance_on_keypress_ZEE	112	stimuli_distractor_trianglediamonds.svg	stimuli_distractor_trianglediamonds.svg	33	no	57	0	251
6.6.1	win	2022-12-14	13:24:11	13:29:10	297035	6111c4865701e1ba367af3e3	537108808	1	main_z	7	main_z	113	stimuli_distractor_diamondtriangles.svg	stimuli_target_diamondsquares.svg	32	yes	44	1	536
6.6.1	win	2022-12-14	13:24:11	13:29:10	297035	6111c4865701e1ba367af3e3	537108808	1	main_z	7	advance_on_keypress_ZEE	114	stimuli_distractor_diamondtriangles.svg	stimuli_target_diamondsquares.svg	32	yes	57	0	614
6.6.1	win	2022-12-14	13:24:11	13:29:12	298840	6111c4865701e1ba367af3e3	537108808	1	main_z	7	main_z	115	stimuli_distractor_trianglediamonds.svg	stimuli_target_circletriangles.svg	9	yes	44	1	543
6.6.1	win	2022-12-14	13:24:11	13:29:12	298840	6111c4865701e1ba367af3e3	537108808	1	main_z	7	advance_on_keypress_ZEE	116	stimuli_distractor_trianglediamonds.svg	stimuli_target_circletriangles.svg	9	yes	57	0	290
6.6.1	win	2022-12-14	13:24:11	13:29:13	300311	6111c4865701e1ba367af3e3	537108808	1	main_z	7	main_z	117	stimuli_target_diamondcircles.svg	stimuli_distractor_trianglediamonds.svg	19	yes	44	1	548
6.6.1	win	2022-12-14	13:24:11	13:29:13	300311	6111c4865701e1ba367af3e3	537108808	1	main_z	7	advance_on_keypress_ZEE	118	stimuli_target_diamondcircles.svg	stimuli_distractor_trianglediamonds.svg	19	yes	57	0	204
6.6.1	win	2022-12-14	13:24:11	13:29:15	301726	6111c4865701e1ba367af3e3	537108808	1	main_z	7	main_z	119	stimuli_distractor_trianglediamonds.svg	stimuli_target_squaretriangles.svg	11	yes	44	1	565
6.6.1	win	2022-12-14	13:24:11	13:29:15	301726	6111c4865701e1ba367af3e3	537108808	1	main_z	7	advance_on_keypress_ZEE	120	stimuli_distractor_trianglediamonds.svg	stimuli_target_squaretriangles.svg	11	yes	57	0	207
6.6.1	win	2022-12-14	13:24:11	13:29:18	304576	6111c4865701e1ba367af3e3	537108808	1	main_z	7	main_z	121	stimuli_target_trianglesquares.svg	stimuli_distractor_trianglediamonds.svg	18	yes	0	0	2000
6.6.1	win	2022-12-14	13:24:11	13:29:18	304576	6111c4865701e1ba367af3e3	537108808	1	main_z	7	advance_on_keypress_ZEE	122	stimuli_target_trianglesquares.svg	stimuli_distractor_trianglediamonds.svg	18	yes	57	0	264
6.6.1	win	2022-12-14	13:24:11	13:29:19	305964	6111c4865701e1ba367af3e3	537108808	1	main_z	7	main_z	123	stimuli_distractor_trianglediamonds.svg	stimuli_target_circlediamonds.svg	10	yes	44	1	474
6.6.1	win	2022-12-14	13:24:11	13:29:19	305964	6111c4865701e1ba367af3e3	537108808	1	main_z	7	advance_on_keypress_ZEE	124	stimuli_distractor_trianglediamonds.svg	stimuli_target_circlediamonds.svg	10	yes	57	0	338
6.6.1	win	2022-12-14	13:24:11	13:29:22	308939	6111c4865701e1ba367af3e3	537108808	1	main_z	7	main_z	125	stimuli_target_diamondsquares.svg	stimuli_distractor_trianglediamonds.svg	20	yes	0	0	2000
6.6.1	win	2022-12-14	13:24:11	13:29:22	308939	6111c4865701e1ba367af3e3	537108808	1	main_z	7	advance_on_keypress_ZEE	126	stimuli_target_diamondsquares.svg	stimuli_distractor_trianglediamonds.svg	20	yes	57	0	242
6.6.1	win	2022-12-14	13:24:11	13:29:25	311820	6111c4865701e1ba367af3e3	537108808	1	main_z	7	main_z	127	stimuli_distractor_trianglediamonds.svg	stimuli_target_diamondcircles.svg	27	yes	0	0	2000
6.6.1	win	2022-12-14	13:24:11	13:29:25	311820	6111c4865701e1ba367af3e3	537108808	1	main_z	7	advance_on_keypress_ZEE	128	stimuli_distractor_trianglediamonds.svg	stimuli_target_diamondcircles.svg	27	yes	57	0	611
6.6.1	win	2022-12-14	13:24:11	13:29:27	313758	6111c4865701e1ba367af3e3	537108808	1	main_z	7	main_z	129	stimuli_target_circlediamonds.svg	stimuli_distractor_trianglediamonds.svg	2	yes	44	1	675
6.6.1	win	2022-12-14	13:24:11	13:29:27	313758	6111c4865701e1ba367af3e3	537108808	1	main_z	7	advance_on_keypress_ZEE	130	stimuli_target_circlediamonds.svg	stimuli_distractor_trianglediamonds.svg	2	yes	57	0	154
6.6.1	win	2022-12-14	13:24:11	13:29:30	316548	6111c4865701e1ba367af3e3	537108808	1	main_z	7	main_z	131	stimuli_distractor_diamondtriangles.svg	stimuli_distractor_diamondtriangles.svg	39	no	0	1	2000
6.6.1	win	2022-12-14	13:24:11	13:29:30	316548	6111c4865701e1ba367af3e3	537108808	1	main_z	7	advance_on_keypress_ZEE	132	stimuli_distractor_diamondtriangles.svg	stimuli_distractor_diamondtriangles.svg	39	no	57	0	291
6.6.1	win	2022-12-14	13:24:11	13:29:31	318143	6111c4865701e1ba367af3e3	537108808	1	main_z	7	main_z	133	stimuli_target_squarediamonds.svg	stimuli_distractor_trianglediamonds.svg	4	yes	44	1	664
6.6.1	win	2022-12-14	13:24:11	13:29:31	318143	6111c4865701e1ba367af3e3	537108808	1	main_z	7	advance_on_keypress_ZEE	134	stimuli_target_squarediamonds.svg	stimuli_distractor_trianglediamonds.svg	4	yes	57	0	144
6.6.1	win	2022-12-14	13:24:11	13:29:34	320928	6111c4865701e1ba367af3e3	537108808	1	main_z	7	main_z	135	stimuli_distractor_diamondtriangles.svg	stimuli_distractor_trianglediamonds.svg	37	no	0	1	2000
6.6.1	win	2022-12-14	13:24:11	13:29:34	320928	6111c4865701e1ba367af3e3	537108808	1	main_z	7	advance_on_keypress_ZEE	136	stimuli_distractor_diamondtriangles.svg	stimuli_distractor_trianglediamonds.svg	37	no	57	0	482
6.6.1	win	2022-12-14	13:24:11	13:29:36	322592	6111c4865701e1ba367af3e3	537108808	1	main_z	7	main_z	137	stimuli_target_trianglecircles.svg	stimuli_distractor_trianglediamonds.svg	17	yes	44	1	534
6.6.1	win	2022-12-14	13:24:11	13:29:36	322592	6111c4865701e1ba367af3e3	537108808	1	main_z	7	advance_on_keypress_ZEE	138	stimuli_target_trianglecircles.svg	stimuli_distractor_trianglediamonds.svg	17	yes	57	0	133
6.6.1	win	2022-12-14	13:24:11	13:29:38	325374	6111c4865701e1ba367af3e3	537108808	1	main_z	7	main_z	139	stimuli_distractor_trianglediamonds.svg	stimuli_distractor_trianglediamonds.svg	34	no	0	1	2000
6.6.1	win	2022-12-14	13:24:11	13:29:38	325374	6111c4865701e1ba367af3e3	537108808	1	main_z	7	advance_on_keypress_ZEE	140	stimuli_distractor_trianglediamonds.svg	stimuli_distractor_trianglediamonds.svg	34	no	57	0	221
6.6.1	win	2022-12-14	13:24:11	13:29:40	326797	6111c4865701e1ba367af3e3	537108808	1	main_z	7	main_z	141	stimuli_distractor_trianglediamonds.svg	stimuli_target_squarediamonds.svg	12	yes	44	1	559
6.6.1	win	2022-12-14	13:24:11	13:29:40	326797	6111c4865701e1ba367af3e3	537108808	1	main_z	7	advance_on_keypress_ZEE	142	stimuli_distractor_trianglediamonds.svg	stimuli_target_squarediamonds.svg	12	yes	57	0	160
6.6.1	win	2022-12-14	13:24:11	13:29:41	328161	6111c4865701e1ba367af3e3	537108808	1	main_z	7	main_z	143	stimuli_target_diamondcircles.svg	stimuli_distractor_diamondtriangles.svg	23	yes	44	1	575
6.6.1	win	2022-12-14	13:24:11	13:29:41	328161	6111c4865701e1ba367af3e3	537108808	1	main_z	7	advance_on_keypress_ZEE	144	stimuli_target_diamondcircles.svg	stimuli_distractor_diamondtriangles.svg	23	yes	57	0	138
6.6.1	win	2022-12-14	13:24:11	13:29:42	329468	6111c4865701e1ba367af3e3	537108808	1	main_z	7	main_z	145	stimuli_distractor_diamondtriangles.svg	stimuli_target_squarediamonds.svg	16	yes	44	1	533
6.6.1	win	2022-12-14	13:24:11	13:29:42	329468	6111c4865701e1ba367af3e3	537108808	1	main_z	7	advance_on_keypress_ZEE	146	stimuli_distractor_diamondtriangles.svg	stimuli_target_squarediamonds.svg	16	yes	57	0	122
6.6.1	win	2022-12-14	13:24:11	13:29:45	332234	6111c4865701e1ba367af3e3	537108808	1	main_z	7	main_z	147	stimuli_distractor_trianglediamonds.svg	stimuli_target_trianglesquares.svg	26	yes	0	0	2000
6.6.1	win	2022-12-14	13:24:11	13:29:45	332234	6111c4865701e1ba367af3e3	537108808	1	main_z	7	advance_on_keypress_ZEE	148	stimuli_distractor_trianglediamonds.svg	stimuli_target_trianglesquares.svg	26	yes	57	0	395
6.6.1	win	2022-12-14	13:24:11	13:29:47	333789	6111c4865701e1ba367af3e3	537108808	1	main_z	7	main_z	149	stimuli_target_circlediamonds.svg	stimuli_distractor_diamondtriangles.svg	6	yes	44	1	504
6.6.1	win	2022-12-14	13:24:11	13:29:47	333789	6111c4865701e1ba367af3e3	537108808	1	main_z	7	advance_on_keypress_ZEE	150	stimuli_target_circlediamonds.svg	stimuli_distractor_diamondtriangles.svg	6	yes	57	0	111
6.6.1	win	2022-12-14	13:24:11	13:29:48	335020	6111c4865701e1ba367af3e3	537108808	1	main_z	7	main_z	151	stimuli_target_circletriangles.svg	stimuli_distractor_trianglediamonds.svg	1	yes	44	1	490
6.6.1	win	2022-12-14	13:24:11	13:29:48	335020	6111c4865701e1ba367af3e3	537108808	1	main_z	7	advance_on_keypress_ZEE	152	stimuli_target_circletriangles.svg	stimuli_distractor_trianglediamonds.svg	1	yes	57	0	133
6.6.1	win	2022-12-14	13:24:11	13:29:51	337795	6111c4865701e1ba367af3e3	537108808	1	main_z	7	main_z	153	stimuli_distractor_diamondtriangles.svg	stimuli_distractor_diamondtriangles.svg	40	no	0	1	2000
6.6.1	win	2022-12-14	13:24:11	13:29:51	337795	6111c4865701e1ba367af3e3	537108808	1	main_z	7	advance_on_keypress_ZEE	154	stimuli_distractor_diamondtriangles.svg	stimuli_distractor_diamondtriangles.svg	40	no	57	0	603
6.6.1	win	2022-12-14	13:24:11	13:29:53	339635	6111c4865701e1ba367af3e3	537108808	1	main_z	7	main_z	155	stimuli_target_trianglesquares.svg	stimuli_distractor_diamondtriangles.svg	22	yes	44	1	594
6.6.1	win	2022-12-14	13:24:11	13:29:53	339635	6111c4865701e1ba367af3e3	537108808	1	main_z	7	advance_on_keypress_ZEE	156	stimuli_target_trianglesquares.svg	stimuli_distractor_diamondtriangles.svg	22	yes	57	0	101
6.6.1	win	2022-12-14	13:24:11	13:29:54	341084	6111c4865701e1ba367af3e3	537108808	1	main_z	7	main_z	157	stimuli_distractor_diamondtriangles.svg	stimuli_target_squaretriangles.svg	15	yes	44	1	710
6.6.1	win	2022-12-14	13:24:11	13:29:54	341084	6111c4865701e1ba367af3e3	537108808	1	main_z	7	advance_on_keypress_ZEE	158	stimuli_distractor_diamondtriangles.svg	stimuli_target_squaretriangles.svg	15	yes	57	0	138
6.6.1	win	2022-12-14	13:24:11	13:29:57	343856	6111c4865701e1ba367af3e3	537108808	1	main_z	7	main_z	159	stimuli_distractor_trianglediamonds.svg	stimuli_target_diamondsquares.svg	28	yes	0	0	2000
6.6.1	win	2022-12-14	13:24:11	13:29:57	343856	6111c4865701e1ba367af3e3	537108808	1	main_z	7	advance_on_keypress_ZEE	160	stimuli_distractor_trianglediamonds.svg	stimuli_target_diamondsquares.svg	28	yes	57	0	465
6.6.1	win	2022-12-14	13:24:11	13:30:16	363298	6111c4865701e1ba367af3e3	537108808	1	practice_slash	9	practice_slash	1	stimuli_target_circlediamonds.svg	stimuli_distractor_trianglediamonds.svg	4	yes	53	1	558
6.6.1	win	2022-12-14	13:24:11	13:30:16	363298	6111c4865701e1ba367af3e3	537108808	1	practice_slash	9	advance_on_keypress_SLASH	2	stimuli_target_circlediamonds.svg	stimuli_distractor_trianglediamonds.svg	4	yes	57	0	1059
6.6.1	win	2022-12-14	13:24:11	13:30:20	366580	6111c4865701e1ba367af3e3	537108808	1	practice_slash	9	practice_slash	3	stimuli_target_squarediamonds.svg	stimuli_distractor_trianglediamonds.svg	5	yes	53	1	559
6.6.1	win	2022-12-14	13:24:11	13:30:20	366580	6111c4865701e1ba367af3e3	537108808	1	practice_slash	9	advance_on_keypress_SLASH	4	stimuli_target_squarediamonds.svg	stimuli_distractor_trianglediamonds.svg	5	yes	57	0	492
6.6.1	win	2022-12-14	13:24:11	13:30:24	370717	6111c4865701e1ba367af3e3	537108808	1	practice_slash	9	practice_slash	5	stimuli_target_diamondsquares.svg	stimuli_distractor_trianglediamonds.svg	6	yes	0	0	2000
6.6.1	win	2022-12-14	13:24:11	13:30:24	370717	6111c4865701e1ba367af3e3	537108808	1	practice_slash	9	advance_on_keypress_SLASH	6	stimuli_target_diamondsquares.svg	stimuli_distractor_trianglediamonds.svg	6	yes	57	0	657
6.6.1	win	2022-12-14	13:24:11	13:30:27	373597	6111c4865701e1ba367af3e3	537108808	1	practice_slash	9	practice_slash	7	stimuli_target_diamondsquares.svg	stimuli_distractor_diamondtriangles.svg	3	yes	53	1	584
6.6.1	win	2022-12-14	13:24:11	13:30:27	373597	6111c4865701e1ba367af3e3	537108808	1	practice_slash	9	advance_on_keypress_SLASH	8	stimuli_target_diamondsquares.svg	stimuli_distractor_diamondtriangles.svg	3	yes	57	0	585
6.6.1	win	2022-12-14	13:24:11	13:30:29	376426	6111c4865701e1ba367af3e3	537108808	1	practice_slash	9	practice_slash	9	stimuli_target_circlediamonds.svg	stimuli_distractor_diamondtriangles.svg	1	yes	53	1	600
6.6.1	win	2022-12-14	13:24:11	13:30:29	376426	6111c4865701e1ba367af3e3	537108808	1	practice_slash	9	advance_on_keypress_SLASH	10	stimuli_target_circlediamonds.svg	stimuli_distractor_diamondtriangles.svg	1	yes	57	0	234
6.6.1	win	2022-12-14	13:24:11	13:30:32	378832	6111c4865701e1ba367af3e3	537108808	1	practice_slash	9	practice_slash	11	stimuli_distractor_trianglediamonds.svg	stimuli_target_squarediamonds.svg	11	yes	53	1	524
6.6.1	win	2022-12-14	13:24:11	13:30:32	378832	6111c4865701e1ba367af3e3	537108808	1	practice_slash	9	advance_on_keypress_SLASH	12	stimuli_distractor_trianglediamonds.svg	stimuli_target_squarediamonds.svg	11	yes	57	0	242
6.6.1	win	2022-12-14	13:24:11	13:30:34	381491	6111c4865701e1ba367af3e3	537108808	1	practice_slash	9	practice_slash	13	stimuli_distractor_trianglediamonds.svg	stimuli_target_circlediamonds.svg	10	yes	53	1	751
6.6.1	win	2022-12-14	13:24:11	13:30:34	381491	6111c4865701e1ba367af3e3	537108808	1	practice_slash	9	advance_on_keypress_SLASH	14	stimuli_distractor_trianglediamonds.svg	stimuli_target_circlediamonds.svg	10	yes	57	0	560
6.6.1	win	2022-12-14	13:24:11	13:30:37	384235	6111c4865701e1ba367af3e3	537108808	1	practice_slash	9	practice_slash	15	stimuli_target_squarediamonds.svg	stimuli_distractor_diamondtriangles.svg	2	yes	53	1	532
6.6.1	win	2022-12-14	13:24:11	13:30:37	384235	6111c4865701e1ba367af3e3	537108808	1	practice_slash	9	advance_on_keypress_SLASH	16	stimuli_target_squarediamonds.svg	stimuli_distractor_diamondtriangles.svg	2	yes	57	0	494
6.6.1	win	2022-12-14	13:24:11	13:30:41	388384	6111c4865701e1ba367af3e3	537108808	1	practice_slash	9	practice_slash	17	stimuli_distractor_diamondtriangles.svg	stimuli_distractor_diamondtriangles.svg	13	no	0	1	2000
6.6.1	win	2022-12-14	13:24:11	13:30:41	388384	6111c4865701e1ba367af3e3	537108808	1	practice_slash	9	advance_on_keypress_SLASH	18	stimuli_distractor_diamondtriangles.svg	stimuli_distractor_diamondtriangles.svg	13	no	57	0	759
6.6.1	win	2022-12-14	13:24:11	13:30:44	391339	6111c4865701e1ba367af3e3	537108808	1	practice_slash	9	practice_slash	19	stimuli_distractor_diamondtriangles.svg	stimuli_target_trianglecircles.svg	9	yes	53	1	559
6.6.1	win	2022-12-14	13:24:11	13:30:44	391339	6111c4865701e1ba367af3e3	537108808	1	practice_slash	9	advance_on_keypress_SLASH	20	stimuli_distractor_diamondtriangles.svg	stimuli_target_trianglecircles.svg	9	yes	57	0	210
6.6.1	win	2022-12-14	13:24:11	13:30:47	393725	6111c4865701e1ba367af3e3	537108808	1	practice_slash	9	practice_slash	21	stimuli_distractor_diamondtriangles.svg	stimuli_target_diamondcircles.svg	8	yes	53	1	505
6.6.1	win	2022-12-14	13:24:11	13:30:47	393725	6111c4865701e1ba367af3e3	537108808	1	practice_slash	9	advance_on_keypress_SLASH	22	stimuli_distractor_diamondtriangles.svg	stimuli_target_diamondcircles.svg	8	yes	57	0	225
6.6.1	win	2022-12-14	13:24:11	13:30:51	397609	6111c4865701e1ba367af3e3	537108808	1	practice_slash	9	practice_slash	23	stimuli_distractor_diamondtriangles.svg	stimuli_distractor_trianglediamonds.svg	14	no	0	1	2000
6.6.1	win	2022-12-14	13:24:11	13:30:51	397609	6111c4865701e1ba367af3e3	537108808	1	practice_slash	9	advance_on_keypress_SLASH	24	stimuli_distractor_diamondtriangles.svg	stimuli_distractor_trianglediamonds.svg	14	no	57	0	562
6.6.1	win	2022-12-14	13:24:11	13:30:54	400868	6111c4865701e1ba367af3e3	537108808	1	practice_slash	9	practice_slash	25	stimuli_distractor_diamondtriangles.svg	stimuli_target_circletriangles.svg	7	yes	53	1	1046
6.6.1	win	2022-12-14	13:24:11	13:30:54	400868	6111c4865701e1ba367af3e3	537108808	1	practice_slash	9	advance_on_keypress_SLASH	26	stimuli_distractor_diamondtriangles.svg	stimuli_target_circletriangles.svg	7	yes	57	0	288
6.6.1	win	2022-12-14	13:24:11	13:30:58	404802	6111c4865701e1ba367af3e3	537108808	1	practice_slash	9	practice_slash	27	stimuli_distractor_trianglediamonds.svg	stimuli_distractor_diamondtriangles.svg	16	no	0	1	2000
6.6.1	win	2022-12-14	13:24:11	13:30:58	404802	6111c4865701e1ba367af3e3	537108808	1	practice_slash	9	advance_on_keypress_SLASH	28	stimuli_distractor_trianglediamonds.svg	stimuli_distractor_diamondtriangles.svg	16	no	57	0	307
6.6.1	win	2022-12-14	13:24:11	13:31:02	408749	6111c4865701e1ba367af3e3	537108808	1	practice_slash	9	practice_slash	29	stimuli_distractor_trianglediamonds.svg	stimuli_distractor_trianglediamonds.svg	15	no	0	1	2000
6.6.1	win	2022-12-14	13:24:11	13:31:02	408749	6111c4865701e1ba367af3e3	537108808	1	practice_slash	9	advance_on_keypress_SLASH	30	stimuli_distractor_trianglediamonds.svg	stimuli_distractor_trianglediamonds.svg	15	no	57	0	437
6.6.1	win	2022-12-14	13:24:11	13:31:05	411639	6111c4865701e1ba367af3e3	537108808	1	practice_slash	9	practice_slash	31	stimuli_distractor_trianglediamonds.svg	stimuli_target_diamondcircles.svg	12	yes	53	1	811
6.6.1	win	2022-12-14	13:24:11	13:31:05	411639	6111c4865701e1ba367af3e3	537108808	1	practice_slash	9	advance_on_keypress_SLASH	32	stimuli_distractor_trianglediamonds.svg	stimuli_target_diamondcircles.svg	12	yes	57	0	408
6.6.1	win	2022-12-14	13:24:11	13:31:13	419869	6111c4865701e1ba367af3e3	537108808	1	main_slash	11	main_slash	1	stimuli_target_diamondcircles.svg	stimuli_distractor_diamondtriangles.svg	23	yes	0	0	2000
6.6.1	win	2022-12-14	13:24:11	13:31:13	419869	6111c4865701e1ba367af3e3	537108808	1	main_slash	11	advance_on_keypress_SLASH	2	stimuli_target_diamondcircles.svg	stimuli_distractor_diamondtriangles.svg	23	yes	57	0	438
6.6.1	win	2022-12-14	13:24:11	13:31:16	422949	6111c4865701e1ba367af3e3	537108808	1	main_slash	11	main_slash	3	stimuli_distractor_diamondtriangles.svg	stimuli_distractor_diamondtriangles.svg	40	no	0	1	2000
6.6.1	win	2022-12-14	13:24:11	13:31:16	422949	6111c4865701e1ba367af3e3	537108808	1	main_slash	11	advance_on_keypress_SLASH	4	stimuli_distractor_diamondtriangles.svg	stimuli_distractor_diamondtriangles.svg	40	no	57	0	385
6.6.1	win	2022-12-14	13:24:11	13:31:17	424495	6111c4865701e1ba367af3e3	537108808	1	main_slash	11	main_slash	5	stimuli_distractor_trianglediamonds.svg	stimuli_target_squaretriangles.svg	11	yes	53	1	516
6.6.1	win	2022-12-14	13:24:11	13:31:17	424495	6111c4865701e1ba367af3e3	537108808	1	main_slash	11	advance_on_keypress_SLASH	6	stimuli_distractor_trianglediamonds.svg	stimuli_target_squaretriangles.svg	11	yes	57	0	439
6.6.1	win	2022-12-14	13:24:11	13:31:19	426171	6111c4865701e1ba367af3e3	537108808	1	main_slash	11	main_slash	7	stimuli_target_trianglecircles.svg	stimuli_distractor_trianglediamonds.svg	17	yes	53	1	591
6.6.1	win	2022-12-14	13:24:11	13:31:19	426171	6111c4865701e1ba367af3e3	537108808	1	main_slash	11	advance_on_keypress_SLASH	8	stimuli_target_trianglecircles.svg	stimuli_distractor_trianglediamonds.svg	17	yes	57	0	705
6.6.1	win	2022-12-14	13:24:11	13:31:21	428023	6111c4865701e1ba367af3e3	537108808	1	main_slash	11	main_slash	9	stimuli_target_squaretriangles.svg	stimuli_distractor_trianglediamonds.svg	3	yes	53	1	500
6.6.1	win	2022-12-14	13:24:11	13:31:21	428023	6111c4865701e1ba367af3e3	537108808	1	main_slash	11	advance_on_keypress_SLASH	10	stimuli_target_squaretriangles.svg	stimuli_distractor_trianglediamonds.svg	3	yes	57	0	119
6.6.1	win	2022-12-14	13:24:11	13:31:22	429336	6111c4865701e1ba367af3e3	537108808	1	main_slash	11	main_slash	11	stimuli_distractor_diamondtriangles.svg	stimuli_target_squaretriangles.svg	15	yes	53	1	544
6.6.1	win	2022-12-14	13:24:11	13:31:22	429336	6111c4865701e1ba367af3e3	537108808	1	main_slash	11	advance_on_keypress_SLASH	12	stimuli_distractor_diamondtriangles.svg	stimuli_target_squaretriangles.svg	15	yes	57	0	135
6.6.1	win	2022-12-14	13:24:11	13:31:24	430619	6111c4865701e1ba367af3e3	537108808	1	main_slash	11	main_slash	13	stimuli_distractor_trianglediamonds.svg	stimuli_target_trianglecircles.svg	25	yes	53	1	495
6.6.1	win	2022-12-14	13:24:11	13:31:24	430619	6111c4865701e1ba367af3e3	537108808	1	main_slash	11	advance_on_keypress_SLASH	14	stimuli_distractor_trianglediamonds.svg	stimuli_target_trianglecircles.svg	25	yes	57	0	45
6.6.1	win	2022-12-14	13:24:11	13:31:26	433322	6111c4865701e1ba367af3e3	537108808	1	main_slash	11	main_slash	15	stimuli_distractor_trianglediamonds.svg	stimuli_distractor_diamondtriangles.svg	35	no	0	1	2000
6.6.1	win	2022-12-14	13:24:11	13:31:26	433322	6111c4865701e1ba367af3e3	537108808	1	main_slash	11	advance_on_keypress_SLASH	16	stimuli_distractor_trianglediamonds.svg	stimuli_distractor_diamondtriangles.svg	35	no	57	0	482
6.6.1	win	2022-12-14	13:24:11	13:31:28	434981	6111c4865701e1ba367af3e3	537108808	1	main_slash	11	main_slash	17	stimuli_distractor_diamondtriangles.svg	stimuli_target_circlediamonds.svg	14	yes	53	1	529
6.6.1	win	2022-12-14	13:24:11	13:31:28	434981	6111c4865701e1ba367af3e3	537108808	1	main_slash	11	advance_on_keypress_SLASH	18	stimuli_distractor_diamondtriangles.svg	stimuli_target_circlediamonds.svg	14	yes	57	0	118
6.6.1	win	2022-12-14	13:24:11	13:31:29	436370	6111c4865701e1ba367af3e3	537108808	1	main_slash	11	main_slash	19	stimuli_distractor_trianglediamonds.svg	stimuli_target_diamondcircles.svg	27	yes	53	1	618
6.6.1	win	2022-12-14	13:24:11	13:31:29	436370	6111c4865701e1ba367af3e3	537108808	1	main_slash	11	advance_on_keypress_SLASH	20	stimuli_distractor_trianglediamonds.svg	stimuli_target_diamondcircles.svg	27	yes	57	0	135
6.6.1	win	2022-12-14	13:24:11	13:31:31	437760	6111c4865701e1ba367af3e3	537108808	1	main_slash	11	main_slash	21	stimuli_target_trianglecircles.svg	stimuli_distractor_diamondtriangles.svg	21	yes	53	1	610
6.6.1	win	2022-12-14	13:24:11	13:31:31	437760	6111c4865701e1ba367af3e3	537108808	1	main_slash	11	advance_on_keypress_SLASH	22	stimuli_target_trianglecircles.svg	stimuli_distractor_diamondtriangles.svg	21	yes	57	0	137
6.6.1	win	2022-12-14	13:24:11	13:31:32	439128	6111c4865701e1ba367af3e3	537108808	1	main_slash	11	main_slash	23	stimuli_distractor_diamondtriangles.svg	stimuli_target_squarediamonds.svg	16	yes	53	1	596
6.6.1	win	2022-12-14	13:24:11	13:31:32	439128	6111c4865701e1ba367af3e3	537108808	1	main_slash	11	advance_on_keypress_SLASH	24	stimuli_distractor_diamondtriangles.svg	stimuli_target_squarediamonds.svg	16	yes	57	0	106
6.6.1	win	2022-12-14	13:24:11	13:31:35	441881	6111c4865701e1ba367af3e3	537108808	1	main_slash	11	main_slash	25	stimuli_target_squarediamonds.svg	stimuli_distractor_diamondtriangles.svg	8	yes	0	0	2000
6.6.1	win	2022-12-14	13:24:11	13:31:35	441881	6111c4865701e1ba367af3e3	537108808	1	main_slash	11	advance_on_keypress_SLASH	26	stimuli_target_squarediamonds.svg	stimuli_distractor_diamondtriangles.svg	8	yes	57	0	703
6.6.1	win	2022-12-14	13:24:11	13:31:37	443759	6111c4865701e1ba367af3e3	537108808	1	main_slash	11	main_slash	27	stimuli_target_trianglesquares.svg	stimuli_distractor_diamondtriangles.svg	22	yes	53	1	531
6.6.1	win	2022-12-14	13:24:11	13:31:37	443759	6111c4865701e1ba367af3e3	537108808	1	main_slash	11	advance_on_keypress_SLASH	28	stimuli_target_trianglesquares.svg	stimuli_distractor_diamondtriangles.svg	22	yes	57	0	87
6.6.1	win	2022-12-14	13:24:11	13:31:38	445009	6111c4865701e1ba367af3e3	537108808	1	main_slash	11	main_slash	29	stimuli_distractor_diamondtriangles.svg	stimuli_target_trianglesquares.svg	30	yes	53	1	515
6.6.1	win	2022-12-14	13:24:11	13:31:38	445009	6111c4865701e1ba367af3e3	537108808	1	main_slash	11	advance_on_keypress_SLASH	30	stimuli_distractor_diamondtriangles.svg	stimuli_target_trianglesquares.svg	30	yes	57	0	61
6.6.1	win	2022-12-14	13:24:11	13:31:41	447709	6111c4865701e1ba367af3e3	537108808	1	main_slash	11	main_slash	31	stimuli_distractor_diamondtriangles.svg	stimuli_target_circletriangles.svg	13	yes	0	0	2000
6.6.1	win	2022-12-14	13:24:11	13:31:41	447709	6111c4865701e1ba367af3e3	537108808	1	main_slash	11	advance_on_keypress_SLASH	32	stimuli_distractor_diamondtriangles.svg	stimuli_target_circletriangles.svg	13	yes	57	0	51
6.6.1	win	2022-12-14	13:24:11	13:31:42	449316	6111c4865701e1ba367af3e3	537108808	1	main_slash	11	main_slash	33	stimuli_distractor_trianglediamonds.svg	stimuli_target_circletriangles.svg	9	yes	53	1	909
6.6.1	win	2022-12-14	13:24:11	13:31:42	449316	6111c4865701e1ba367af3e3	537108808	1	main_slash	11	advance_on_keypress_SLASH	34	stimuli_distractor_trianglediamonds.svg	stimuli_target_circletriangles.svg	9	yes	57	0	277
6.6.1	win	2022-12-14	13:24:11	13:31:44	450790	6111c4865701e1ba367af3e3	537108808	1	main_slash	11	main_slash	35	stimuli_distractor_trianglediamonds.svg	stimuli_target_trianglesquares.svg	26	yes	53	1	568
6.6.1	win	2022-12-14	13:24:11	13:31:44	450790	6111c4865701e1ba367af3e3	537108808	1	main_slash	11	advance_on_keypress_SLASH	36	stimuli_distractor_trianglediamonds.svg	stimuli_target_trianglesquares.svg	26	yes	57	0	74
6.6.1	win	2022-12-14	13:24:11	13:31:46	453504	6111c4865701e1ba367af3e3	537108808	1	main_slash	11	main_slash	37	stimuli_distractor_trianglediamonds.svg	stimuli_distractor_trianglediamonds.svg	34	no	0	1	2000
6.6.1	win	2022-12-14	13:24:11	13:31:46	453504	6111c4865701e1ba367af3e3	537108808	1	main_slash	11	advance_on_keypress_SLASH	38	stimuli_distractor_trianglediamonds.svg	stimuli_distractor_trianglediamonds.svg	34	no	57	0	565
6.6.1	win	2022-12-14	13:24:11	13:31:50	456717	6111c4865701e1ba367af3e3	537108808	1	main_slash	11	main_slash	39	stimuli_distractor_trianglediamonds.svg	stimuli_distractor_diamondtriangles.svg	36	no	0	1	2000
6.6.1	win	2022-12-14	13:24:11	13:31:50	456717	6111c4865701e1ba367af3e3	537108808	1	main_slash	11	advance_on_keypress_SLASH	40	stimuli_distractor_trianglediamonds.svg	stimuli_distractor_diamondtriangles.svg	36	no	57	0	282
6.6.1	win	2022-12-14	13:24:11	13:31:51	458193	6111c4865701e1ba367af3e3	537108808	1	main_slash	11	main_slash	41	stimuli_distractor_diamondtriangles.svg	stimuli_target_trianglecircles.svg	29	yes	53	1	545
6.6.1	win	2022-12-14	13:24:11	13:31:51	458193	6111c4865701e1ba367af3e3	537108808	1	main_slash	11	advance_on_keypress_SLASH	42	stimuli_distractor_diamondtriangles.svg	stimuli_target_trianglecircles.svg	29	yes	57	0	67
6.6.1	win	2022-12-14	13:24:11	13:31:52	459411	6111c4865701e1ba367af3e3	537108808	1	main_slash	11	main_slash	43	stimuli_distractor_diamondtriangles.svg	stimuli_target_diamondcircles.svg	31	yes	53	1	498
6.6.1	win	2022-12-14	13:24:11	13:31:52	459411	6111c4865701e1ba367af3e3	537108808	1	main_slash	11	advance_on_keypress_SLASH	44	stimuli_distractor_diamondtriangles.svg	stimuli_target_diamondcircles.svg	31	yes	57	0	93
6.6.1	win	2022-12-14	13:24:11	13:31:55	462146	6111c4865701e1ba367af3e3	537108808	1	main_slash	11	main_slash	45	stimuli_distractor_trianglediamonds.svg	stimuli_distractor_trianglediamonds.svg	33	no	0	1	2000
6.6.1	win	2022-12-14	13:24:11	13:31:55	462146	6111c4865701e1ba367af3e3	537108808	1	main_slash	11	advance_on_keypress_SLASH	46	stimuli_distractor_trianglediamonds.svg	stimuli_distractor_trianglediamonds.svg	33	no	57	0	574
6.6.1	win	2022-12-14	13:24:11	13:31:58	464723	6111c4865701e1ba367af3e3	537108808	1	main_slash	11	main_slash	47	stimuli_target_circlediamonds.svg	stimuli_distractor_trianglediamonds.svg	2	yes	53	1	1364
6.6.1	win	2022-12-14	13:24:11	13:31:58	464723	6111c4865701e1ba367af3e3	537108808	1	main_slash	11	advance_on_keypress_SLASH	48	stimuli_target_circlediamonds.svg	stimuli_distractor_trianglediamonds.svg	2	yes	57	0	195
6.6.1	win	2022-12-14	13:24:11	13:31:59	466266	6111c4865701e1ba367af3e3	537108808	1	main_slash	11	main_slash	49	stimuli_target_trianglesquares.svg	stimuli_distractor_trianglediamonds.svg	18	yes	53	1	692
6.6.1	win	2022-12-14	13:24:11	13:31:59	466266	6111c4865701e1ba367af3e3	537108808	1	main_slash	11	advance_on_keypress_SLASH	50	stimuli_target_trianglesquares.svg	stimuli_distractor_trianglediamonds.svg	18	yes	57	0	80
6.6.1	win	2022-12-14	13:24:11	13:32:00	467504	6111c4865701e1ba367af3e3	537108808	1	main_slash	11	main_slash	51	stimuli_target_circlediamonds.svg	stimuli_distractor_diamondtriangles.svg	6	yes	53	1	515
6.6.1	win	2022-12-14	13:24:11	13:32:00	467504	6111c4865701e1ba367af3e3	537108808	1	main_slash	11	advance_on_keypress_SLASH	52	stimuli_target_circlediamonds.svg	stimuli_distractor_diamondtriangles.svg	6	yes	57	0	88
6.6.1	win	2022-12-14	13:24:11	13:32:03	470238	6111c4865701e1ba367af3e3	537108808	1	main_slash	11	main_slash	53	stimuli_distractor_diamondtriangles.svg	stimuli_distractor_trianglediamonds.svg	38	no	0	1	2000
6.6.1	win	2022-12-14	13:24:11	13:32:03	470238	6111c4865701e1ba367af3e3	537108808	1	main_slash	11	advance_on_keypress_SLASH	54	stimuli_distractor_diamondtriangles.svg	stimuli_distractor_trianglediamonds.svg	38	no	57	0	485
6.6.1	win	2022-12-14	13:24:11	13:32:06	473368	6111c4865701e1ba367af3e3	537108808	1	main_slash	11	main_slash	55	stimuli_distractor_diamondtriangles.svg	stimuli_distractor_trianglediamonds.svg	37	no	0	1	2000
6.6.1	win	2022-12-14	13:24:11	13:32:06	473368	6111c4865701e1ba367af3e3	537108808	1	main_slash	11	advance_on_keypress_SLASH	56	stimuli_distractor_diamondtriangles.svg	stimuli_distractor_trianglediamonds.svg	37	no	57	0	416
6.6.1	win	2022-12-14	13:24:11	13:32:08	475179	6111c4865701e1ba367af3e3	537108808	1	main_slash	11	main_slash	57	stimuli_distractor_diamondtriangles.svg	stimuli_target_diamondsquares.svg	32	yes	53	1	746
6.6.1	win	2022-12-14	13:24:11	13:32:08	475179	6111c4865701e1ba367af3e3	537108808	1	main_slash	11	advance_on_keypress_SLASH	58	stimuli_distractor_diamondtriangles.svg	stimuli_target_diamondsquares.svg	32	yes	57	0	87
6.6.1	win	2022-12-14	13:24:11	13:32:09	476409	6111c4865701e1ba367af3e3	537108808	1	main_slash	11	main_slash	59	stimuli_target_diamondcircles.svg	stimuli_distractor_trianglediamonds.svg	19	yes	53	1	495
6.6.1	win	2022-12-14	13:24:11	13:32:09	476409	6111c4865701e1ba367af3e3	537108808	1	main_slash	11	advance_on_keypress_SLASH	60	stimuli_target_diamondcircles.svg	stimuli_distractor_trianglediamonds.svg	19	yes	57	0	43
6.6.1	win	2022-12-14	13:24:11	13:32:11	477711	6111c4865701e1ba367af3e3	537108808	1	main_slash	11	main_slash	61	stimuli_target_circletriangles.svg	stimuli_distractor_diamondtriangles.svg	5	yes	53	1	615
6.6.1	win	2022-12-14	13:24:11	13:32:11	477711	6111c4865701e1ba367af3e3	537108808	1	main_slash	11	advance_on_keypress_SLASH	62	stimuli_target_circletriangles.svg	stimuli_distractor_diamondtriangles.svg	5	yes	57	0	75
6.6.1	win	2022-12-14	13:24:11	13:32:13	480428	6111c4865701e1ba367af3e3	537108808	1	main_slash	11	main_slash	63	stimuli_target_diamondsquares.svg	stimuli_distractor_trianglediamonds.svg	20	yes	0	0	2000
6.6.1	win	2022-12-14	13:24:11	13:32:13	480428	6111c4865701e1ba367af3e3	537108808	1	main_slash	11	advance_on_keypress_SLASH	64	stimuli_target_diamondsquares.svg	stimuli_distractor_trianglediamonds.svg	20	yes	57	0	301
6.6.1	win	2022-12-14	13:24:11	13:32:15	482015	6111c4865701e1ba367af3e3	537108808	1	main_slash	11	main_slash	65	stimuli_distractor_trianglediamonds.svg	stimuli_target_squarediamonds.svg	12	yes	53	1	639
6.6.1	win	2022-12-14	13:24:11	13:32:15	482015	6111c4865701e1ba367af3e3	537108808	1	main_slash	11	advance_on_keypress_SLASH	66	stimuli_distractor_trianglediamonds.svg	stimuli_target_squarediamonds.svg	12	yes	57	0	105
6.6.1	win	2022-12-14	13:24:11	13:32:16	483302	6111c4865701e1ba367af3e3	537108808	1	main_slash	11	main_slash	67	stimuli_target_circletriangles.svg	stimuli_distractor_trianglediamonds.svg	1	yes	53	1	544
6.6.1	win	2022-12-14	13:24:11	13:32:16	483302	6111c4865701e1ba367af3e3	537108808	1	main_slash	11	advance_on_keypress_SLASH	68	stimuli_target_circletriangles.svg	stimuli_distractor_trianglediamonds.svg	1	yes	57	0	62
6.6.1	win	2022-12-14	13:24:11	13:32:18	485010	6111c4865701e1ba367af3e3	537108808	1	main_slash	11	main_slash	69	stimuli_distractor_trianglediamonds.svg	stimuli_target_diamondsquares.svg	28	yes	53	1	987
6.6.1	win	2022-12-14	13:24:11	13:32:18	485010	6111c4865701e1ba367af3e3	537108808	1	main_slash	11	advance_on_keypress_SLASH	70	stimuli_distractor_trianglediamonds.svg	stimuli_target_diamondsquares.svg	28	yes	57	0	676
6.6.1	win	2022-12-14	13:24:11	13:32:20	486821	6111c4865701e1ba367af3e3	537108808	1	main_slash	11	main_slash	71	stimuli_target_squaretriangles.svg	stimuli_distractor_diamondtriangles.svg	7	yes	53	1	500
6.6.1	win	2022-12-14	13:24:11	13:32:20	486821	6111c4865701e1ba367af3e3	537108808	1	main_slash	11	advance_on_keypress_SLASH	72	stimuli_target_squaretriangles.svg	stimuli_distractor_diamondtriangles.svg	7	yes	57	0	35
6.6.1	win	2022-12-14	13:24:11	13:32:22	489503	6111c4865701e1ba367af3e3	537108808	1	main_slash	11	main_slash	73	stimuli_target_diamondsquares.svg	stimuli_distractor_diamondtriangles.svg	24	yes	0	0	2000
6.6.1	win	2022-12-14	13:24:11	13:32:22	489503	6111c4865701e1ba367af3e3	537108808	1	main_slash	11	advance_on_keypress_SLASH	74	stimuli_target_diamondsquares.svg	stimuli_distractor_diamondtriangles.svg	24	yes	57	0	453
6.6.1	win	2022-12-14	13:24:11	13:32:26	492600	6111c4865701e1ba367af3e3	537108808	1	main_slash	11	main_slash	75	stimuli_distractor_diamondtriangles.svg	stimuli_distractor_diamondtriangles.svg	39	no	0	1	2000
6.6.1	win	2022-12-14	13:24:11	13:32:26	492600	6111c4865701e1ba367af3e3	537108808	1	main_slash	11	advance_on_keypress_SLASH	76	stimuli_distractor_diamondtriangles.svg	stimuli_distractor_diamondtriangles.svg	39	no	57	0	269
6.6.1	win	2022-12-14	13:24:11	13:32:27	494211	6111c4865701e1ba367af3e3	537108808	1	main_slash	11	main_slash	77	stimuli_target_squarediamonds.svg	stimuli_distractor_trianglediamonds.svg	4	yes	53	1	697
6.6.1	win	2022-12-14	13:24:11	13:32:27	494211	6111c4865701e1ba367af3e3	537108808	1	main_slash	11	advance_on_keypress_SLASH	78	stimuli_target_squarediamonds.svg	stimuli_distractor_trianglediamonds.svg	4	yes	57	0	91
6.6.1	win	2022-12-14	13:24:11	13:32:28	495473	6111c4865701e1ba367af3e3	537108808	1	main_slash	11	main_slash	79	stimuli_distractor_trianglediamonds.svg	stimuli_target_circlediamonds.svg	10	yes	53	1	527
6.6.1	win	2022-12-14	13:24:11	13:32:28	495473	6111c4865701e1ba367af3e3	537108808	1	main_slash	11	advance_on_keypress_SLASH	80	stimuli_distractor_trianglediamonds.svg	stimuli_target_circlediamonds.svg	10	yes	57	0	58
6.6.1	win	2022-12-14	13:24:11	13:32:30	496745	6111c4865701e1ba367af3e3	537108808	1	main_slash	11	main_slash	81	stimuli_target_diamondcircles.svg	stimuli_distractor_diamondtriangles.svg	23	yes	53	1	567
6.6.1	win	2022-12-14	13:24:11	13:32:30	496745	6111c4865701e1ba367af3e3	537108808	1	main_slash	11	advance_on_keypress_SLASH	82	stimuli_target_diamondcircles.svg	stimuli_distractor_diamondtriangles.svg	23	yes	57	0	67
6.6.1	win	2022-12-14	13:24:11	13:32:32	499460	6111c4865701e1ba367af3e3	537108808	1	main_slash	11	main_slash	83	stimuli_distractor_trianglediamonds.svg	stimuli_target_diamondsquares.svg	28	yes	0	0	2000
6.6.1	win	2022-12-14	13:24:11	13:32:32	499460	6111c4865701e1ba367af3e3	537108808	1	main_slash	11	advance_on_keypress_SLASH	84	stimuli_distractor_trianglediamonds.svg	stimuli_target_diamondsquares.svg	28	yes	57	0	569
6.6.1	win	2022-12-14	13:24:11	13:32:35	501613	6111c4865701e1ba367af3e3	537108808	1	main_slash	11	main_slash	85	stimuli_target_diamondsquares.svg	stimuli_distractor_diamondtriangles.svg	24	yes	53	1	939
6.6.1	win	2022-12-14	13:24:11	13:32:35	501613	6111c4865701e1ba367af3e3	537108808	1	main_slash	11	advance_on_keypress_SLASH	86	stimuli_target_diamondsquares.svg	stimuli_distractor_diamondtriangles.svg	24	yes	57	0	78
6.6.1	win	2022-12-14	13:24:11	13:32:37	504339	6111c4865701e1ba367af3e3	537108808	1	main_slash	11	main_slash	87	stimuli_distractor_diamondtriangles.svg	stimuli_distractor_trianglediamonds.svg	37	no	0	1	2000
6.6.1	win	2022-12-14	13:24:11	13:32:37	504339	6111c4865701e1ba367af3e3	537108808	1	main_slash	11	advance_on_keypress_SLASH	88	stimuli_distractor_diamondtriangles.svg	stimuli_distractor_trianglediamonds.svg	37	no	57	0	518
6.6.1	win	2022-12-14	13:24:11	13:32:39	506356	6111c4865701e1ba367af3e3	537108808	1	main_slash	11	main_slash	89	stimuli_target_squaretriangles.svg	stimuli_distractor_trianglediamonds.svg	3	yes	53	1	853
6.6.1	win	2022-12-14	13:24:11	13:32:39	506356	6111c4865701e1ba367af3e3	537108808	1	main_slash	11	advance_on_keypress_SLASH	90	stimuli_target_squaretriangles.svg	stimuli_distractor_trianglediamonds.svg	3	yes	57	0	57
6.6.1	win	2022-12-14	13:24:11	13:32:42	509051	6111c4865701e1ba367af3e3	537108808	1	main_slash	11	main_slash	91	stimuli_distractor_diamondtriangles.svg	stimuli_target_diamondsquares.svg	32	yes	0	0	2000
6.6.1	win	2022-12-14	13:24:11	13:32:42	509051	6111c4865701e1ba367af3e3	537108808	1	main_slash	11	advance_on_keypress_SLASH	92	stimuli_distractor_diamondtriangles.svg	stimuli_target_diamondsquares.svg	32	yes	57	0	275
6.6.1	win	2022-12-14	13:24:11	13:32:43	510515	6111c4865701e1ba367af3e3	537108808	1	main_slash	11	main_slash	93	stimuli_target_circlediamonds.svg	stimuli_distractor_diamondtriangles.svg	6	yes	53	1	549
6.6.1	win	2022-12-14	13:24:11	13:32:43	510515	6111c4865701e1ba367af3e3	537108808	1	main_slash	11	advance_on_keypress_SLASH	94	stimuli_target_circlediamonds.svg	stimuli_distractor_diamondtriangles.svg	6	yes	57	0	40
6.6.1	win	2022-12-14	13:24:11	13:32:46	513198	6111c4865701e1ba367af3e3	537108808	1	main_slash	11	main_slash	95	stimuli_distractor_diamondtriangles.svg	stimuli_distractor_diamondtriangles.svg	39	no	0	1	2000
6.6.1	win	2022-12-14	13:24:11	13:32:46	513198	6111c4865701e1ba367af3e3	537108808	1	main_slash	11	advance_on_keypress_SLASH	96	stimuli_distractor_diamondtriangles.svg	stimuli_distractor_diamondtriangles.svg	39	no	57	0	400
6.6.1	win	2022-12-14	13:24:11	13:32:48	514797	6111c4865701e1ba367af3e3	537108808	1	main_slash	11	main_slash	97	stimuli_target_trianglesquares.svg	stimuli_distractor_diamondtriangles.svg	22	yes	53	1	552
6.6.1	win	2022-12-14	13:24:11	13:32:48	514797	6111c4865701e1ba367af3e3	537108808	1	main_slash	11	advance_on_keypress_SLASH	98	stimuli_target_trianglesquares.svg	stimuli_distractor_diamondtriangles.svg	22	yes	57	0	52
6.6.1	win	2022-12-14	13:24:11	13:32:49	516031	6111c4865701e1ba367af3e3	537108808	1	main_slash	11	main_slash	99	stimuli_distractor_diamondtriangles.svg	stimuli_target_squaretriangles.svg	15	yes	53	1	537
6.6.1	win	2022-12-14	13:24:11	13:32:49	516031	6111c4865701e1ba367af3e3	537108808	1	main_slash	11	advance_on_keypress_SLASH	100	stimuli_distractor_diamondtriangles.svg	stimuli_target_squaretriangles.svg	15	yes	57	0	71
6.6.1	win	2022-12-14	13:24:11	13:32:50	517306	6111c4865701e1ba367af3e3	537108808	1	main_slash	11	main_slash	101	stimuli_distractor_trianglediamonds.svg	stimuli_target_diamondcircles.svg	27	yes	53	1	563
6.6.1	win	2022-12-14	13:24:11	13:32:50	517306	6111c4865701e1ba367af3e3	537108808	1	main_slash	11	advance_on_keypress_SLASH	102	stimuli_distractor_trianglediamonds.svg	stimuli_target_diamondcircles.svg	27	yes	57	0	96
6.6.1	win	2022-12-14	13:24:11	13:32:51	518531	6111c4865701e1ba367af3e3	537108808	1	main_slash	11	main_slash	103	stimuli_target_diamondcircles.svg	stimuli_distractor_trianglediamonds.svg	19	yes	53	1	473
6.6.1	win	2022-12-14	13:24:11	13:32:51	518531	6111c4865701e1ba367af3e3	537108808	1	main_slash	11	advance_on_keypress_SLASH	104	stimuli_target_diamondcircles.svg	stimuli_distractor_trianglediamonds.svg	19	yes	57	0	64
6.6.1	win	2022-12-14	13:24:11	13:32:53	519768	6111c4865701e1ba367af3e3	537108808	1	main_slash	11	main_slash	105	stimuli_target_squarediamonds.svg	stimuli_distractor_trianglediamonds.svg	4	yes	53	1	528
6.6.1	win	2022-12-14	13:24:11	13:32:53	519768	6111c4865701e1ba367af3e3	537108808	1	main_slash	11	advance_on_keypress_SLASH	106	stimuli_target_squarediamonds.svg	stimuli_distractor_trianglediamonds.svg	4	yes	57	0	86
6.6.1	win	2022-12-14	13:24:11	13:32:54	520849	6111c4865701e1ba367af3e3	537108808	1	main_slash	11	main_slash	107	stimuli_distractor_trianglediamonds.svg	stimuli_target_circlediamonds.svg	10	yes	53	1	343
6.6.1	win	2022-12-14	13:24:11	13:32:54	520849	6111c4865701e1ba367af3e3	537108808	1	main_slash	11	advance_on_keypress_SLASH	108	stimuli_distractor_trianglediamonds.svg	stimuli_target_circlediamonds.svg	10	yes	57	0	123
6.6.1	win	2022-12-14	13:24:11	13:32:55	521965	6111c4865701e1ba367af3e3	537108808	1	main_slash	11	main_slash	109	stimuli_distractor_trianglediamonds.svg	stimuli_target_trianglecircles.svg	25	yes	53	1	360
6.6.1	win	2022-12-14	13:24:11	13:32:55	521965	6111c4865701e1ba367af3e3	537108808	1	main_slash	11	advance_on_keypress_SLASH	110	stimuli_distractor_trianglediamonds.svg	stimuli_target_trianglecircles.svg	25	yes	57	0	47
6.6.1	win	2022-12-14	13:24:11	13:32:56	523139	6111c4865701e1ba367af3e3	537108808	1	main_slash	11	main_slash	111	stimuli_distractor_diamondtriangles.svg	stimuli_target_diamondcircles.svg	31	yes	53	1	469
6.6.1	win	2022-12-14	13:24:11	13:32:56	523139	6111c4865701e1ba367af3e3	537108808	1	main_slash	11	advance_on_keypress_SLASH	112	stimuli_distractor_diamondtriangles.svg	stimuli_target_diamondcircles.svg	31	yes	57	0	14
6.6.1	win	2022-12-14	13:24:11	13:32:57	524331	6111c4865701e1ba367af3e3	537108808	1	main_slash	11	main_slash	113	stimuli_distractor_trianglediamonds.svg	stimuli_target_trianglesquares.svg	26	yes	53	1	528
6.6.1	win	2022-12-14	13:24:11	13:32:57	524331	6111c4865701e1ba367af3e3	537108808	1	main_slash	11	advance_on_keypress_SLASH	114	stimuli_distractor_trianglediamonds.svg	stimuli_target_trianglesquares.svg	26	yes	57	0	658
6.6.1	win	2022-12-14	13:24:11	13:32:59	526047	6111c4865701e1ba367af3e3	537108808	1	main_slash	11	main_slash	115	stimuli_distractor_trianglediamonds.svg	stimuli_target_squaretriangles.svg	11	yes	53	1	413
6.6.1	win	2022-12-14	13:24:11	13:32:59	526047	6111c4865701e1ba367af3e3	537108808	1	main_slash	11	advance_on_keypress_SLASH	116	stimuli_distractor_trianglediamonds.svg	stimuli_target_squaretriangles.svg	11	yes	57	0	45
6.6.1	win	2022-12-14	13:24:11	13:33:00	527225	6111c4865701e1ba367af3e3	537108808	1	main_slash	11	main_slash	117	stimuli_target_squaretriangles.svg	stimuli_distractor_diamondtriangles.svg	7	yes	53	1	474
6.6.1	win	2022-12-14	13:24:11	13:33:00	527225	6111c4865701e1ba367af3e3	537108808	1	main_slash	11	advance_on_keypress_SLASH	118	stimuli_target_squaretriangles.svg	stimuli_distractor_diamondtriangles.svg	7	yes	57	0	84
6.6.1	win	2022-12-14	13:24:11	13:33:01	528297	6111c4865701e1ba367af3e3	537108808	1	main_slash	11	main_slash	119	stimuli_target_trianglecircles.svg	stimuli_distractor_diamondtriangles.svg	21	yes	53	1	348
6.6.1	win	2022-12-14	13:24:11	13:33:01	528297	6111c4865701e1ba367af3e3	537108808	1	main_slash	11	advance_on_keypress_SLASH	120	stimuli_target_trianglecircles.svg	stimuli_distractor_diamondtriangles.svg	21	yes	57	0	70
6.6.1	win	2022-12-14	13:24:11	13:33:02	529353	6111c4865701e1ba367af3e3	537108808	1	main_slash	11	main_slash	121	stimuli_target_diamondsquares.svg	stimuli_distractor_trianglediamonds.svg	20	yes	53	1	338
6.6.1	win	2022-12-14	13:24:11	13:33:02	529353	6111c4865701e1ba367af3e3	537108808	1	main_slash	11	advance_on_keypress_SLASH	122	stimuli_target_diamondsquares.svg	stimuli_distractor_trianglediamonds.svg	20	yes	57	0	73
6.6.1	win	2022-12-14	13:24:11	13:33:04	530753	6111c4865701e1ba367af3e3	537108808	1	main_slash	11	main_slash	123	stimuli_distractor_diamondtriangles.svg	stimuli_target_circlediamonds.svg	14	yes	53	1	689
6.6.1	win	2022-12-14	13:24:11	13:33:04	530753	6111c4865701e1ba367af3e3	537108808	1	main_slash	11	advance_on_keypress_SLASH	124	stimuli_distractor_diamondtriangles.svg	stimuli_target_circlediamonds.svg	14	yes	57	0	94
6.6.1	win	2022-12-14	13:24:11	13:33:06	533479	6111c4865701e1ba367af3e3	537108808	1	main_slash	11	main_slash	125	stimuli_distractor_diamondtriangles.svg	stimuli_distractor_trianglediamonds.svg	38	no	0	1	2000
6.6.1	win	2022-12-14	13:24:11	13:33:06	533479	6111c4865701e1ba367af3e3	537108808	1	main_slash	11	advance_on_keypress_SLASH	126	stimuli_distractor_diamondtriangles.svg	stimuli_distractor_trianglediamonds.svg	38	no	57	0	279
6.6.1	win	2022-12-14	13:24:11	13:33:08	534955	6111c4865701e1ba367af3e3	537108808	1	main_slash	11	main_slash	127	stimuli_target_trianglesquares.svg	stimuli_distractor_trianglediamonds.svg	18	yes	53	1	547
6.6.1	win	2022-12-14	13:24:11	13:33:08	534955	6111c4865701e1ba367af3e3	537108808	1	main_slash	11	advance_on_keypress_SLASH	128	stimuli_target_trianglesquares.svg	stimuli_distractor_trianglediamonds.svg	18	yes	57	0	27
6.6.1	win	2022-12-14	13:24:11	13:33:11	537625	6111c4865701e1ba367af3e3	537108808	1	main_slash	11	main_slash	129	stimuli_target_squarediamonds.svg	stimuli_distractor_diamondtriangles.svg	8	yes	0	0	2000
6.6.1	win	2022-12-14	13:24:11	13:33:11	537625	6111c4865701e1ba367af3e3	537108808	1	main_slash	11	advance_on_keypress_SLASH	130	stimuli_target_squarediamonds.svg	stimuli_distractor_diamondtriangles.svg	8	yes	57	0	428
6.6.1	win	2022-12-14	13:24:11	13:33:12	539290	6111c4865701e1ba367af3e3	537108808	1	main_slash	11	main_slash	131	stimuli_distractor_trianglediamonds.svg	stimuli_target_circletriangles.svg	9	yes	53	1	601
6.6.1	win	2022-12-14	13:24:11	13:33:12	539290	6111c4865701e1ba367af3e3	537108808	1	main_slash	11	advance_on_keypress_SLASH	132	stimuli_distractor_trianglediamonds.svg	stimuli_target_circletriangles.svg	9	yes	57	0	69
6.6.1	win	2022-12-14	13:24:11	13:33:15	542004	6111c4865701e1ba367af3e3	537108808	1	main_slash	11	main_slash	133	stimuli_distractor_diamondtriangles.svg	stimuli_distractor_diamondtriangles.svg	40	no	0	1	2000
6.6.1	win	2022-12-14	13:24:11	13:33:15	542004	6111c4865701e1ba367af3e3	537108808	1	main_slash	11	advance_on_keypress_SLASH	134	stimuli_distractor_diamondtriangles.svg	stimuli_distractor_diamondtriangles.svg	40	no	57	0	475
6.6.1	win	2022-12-14	13:24:11	13:33:16	543536	6111c4865701e1ba367af3e3	537108808	1	main_slash	11	main_slash	135	stimuli_distractor_diamondtriangles.svg	stimuli_target_circletriangles.svg	13	yes	53	1	418
6.6.1	win	2022-12-14	13:24:11	13:33:16	543536	6111c4865701e1ba367af3e3	537108808	1	main_slash	11	advance_on_keypress_SLASH	136	stimuli_distractor_diamondtriangles.svg	stimuli_target_circletriangles.svg	13	yes	57	0	41
6.6.1	win	2022-12-14	13:24:11	13:33:18	544739	6111c4865701e1ba367af3e3	537108808	1	main_slash	11	main_slash	137	stimuli_target_circletriangles.svg	stimuli_distractor_trianglediamonds.svg	1	yes	53	1	523
6.6.1	win	2022-12-14	13:24:11	13:33:18	544739	6111c4865701e1ba367af3e3	537108808	1	main_slash	11	advance_on_keypress_SLASH	138	stimuli_target_circletriangles.svg	stimuli_distractor_trianglediamonds.svg	1	yes	57	0	60
6.6.1	win	2022-12-14	13:24:11	13:33:20	547432	6111c4865701e1ba367af3e3	537108808	1	main_slash	11	main_slash	139	stimuli_distractor_trianglediamonds.svg	stimuli_distractor_diamondtriangles.svg	36	no	0	1	2000
6.6.1	win	2022-12-14	13:24:11	13:33:20	547432	6111c4865701e1ba367af3e3	537108808	1	main_slash	11	advance_on_keypress_SLASH	140	stimuli_distractor_trianglediamonds.svg	stimuli_distractor_diamondtriangles.svg	36	no	57	0	311
6.6.1	win	2022-12-14	13:24:11	13:33:22	548837	6111c4865701e1ba367af3e3	537108808	1	main_slash	11	main_slash	141	stimuli_distractor_diamondtriangles.svg	stimuli_target_squarediamonds.svg	16	yes	53	1	457
6.6.1	win	2022-12-14	13:24:11	13:33:22	548837	6111c4865701e1ba367af3e3	537108808	1	main_slash	11	advance_on_keypress_SLASH	142	stimuli_distractor_diamondtriangles.svg	stimuli_target_squarediamonds.svg	16	yes	57	0	29
6.6.1	win	2022-12-14	13:24:11	13:33:23	549931	6111c4865701e1ba367af3e3	537108808	1	main_slash	11	main_slash	143	stimuli_distractor_trianglediamonds.svg	stimuli_target_squarediamonds.svg	12	yes	53	1	419
6.6.1	win	2022-12-14	13:24:11	13:33:23	549931	6111c4865701e1ba367af3e3	537108808	1	main_slash	11	advance_on_keypress_SLASH	144	stimuli_distractor_trianglediamonds.svg	stimuli_target_squarediamonds.svg	12	yes	57	0	33
6.6.1	win	2022-12-14	13:24:11	13:33:24	551102	6111c4865701e1ba367af3e3	537108808	1	main_slash	11	main_slash	145	stimuli_distractor_diamondtriangles.svg	stimuli_target_trianglecircles.svg	29	yes	53	1	491
6.6.1	win	2022-12-14	13:24:11	13:33:24	551102	6111c4865701e1ba367af3e3	537108808	1	main_slash	11	advance_on_keypress_SLASH	146	stimuli_distractor_diamondtriangles.svg	stimuli_target_trianglecircles.svg	29	yes	57	0	52
6.6.1	win	2022-12-14	13:24:11	13:33:27	553793	6111c4865701e1ba367af3e3	537108808	1	main_slash	11	main_slash	147	stimuli_distractor_trianglediamonds.svg	stimuli_distractor_trianglediamonds.svg	33	no	0	1	2000
6.6.1	win	2022-12-14	13:24:11	13:33:27	553793	6111c4865701e1ba367af3e3	537108808	1	main_slash	11	advance_on_keypress_SLASH	148	stimuli_distractor_trianglediamonds.svg	stimuli_distractor_trianglediamonds.svg	33	no	57	0	448
6.6.1	win	2022-12-14	13:24:11	13:33:28	555255	6111c4865701e1ba367af3e3	537108808	1	main_slash	11	main_slash	149	stimuli_target_circlediamonds.svg	stimuli_distractor_trianglediamonds.svg	2	yes	53	1	365
6.6.1	win	2022-12-14	13:24:11	13:33:28	555255	6111c4865701e1ba367af3e3	537108808	1	main_slash	11	advance_on_keypress_SLASH	150	stimuli_target_circlediamonds.svg	stimuli_distractor_trianglediamonds.svg	2	yes	57	0	57
6.6.1	win	2022-12-14	13:24:11	13:33:29	556421	6111c4865701e1ba367af3e3	537108808	1	main_slash	11	main_slash	151	stimuli_distractor_diamondtriangles.svg	stimuli_target_trianglesquares.svg	30	yes	53	1	465
6.6.1	win	2022-12-14	13:24:11	13:33:29	556421	6111c4865701e1ba367af3e3	537108808	1	main_slash	11	advance_on_keypress_SLASH	152	stimuli_distractor_diamondtriangles.svg	stimuli_target_trianglesquares.svg	30	yes	57	0	20
6.6.1	win	2022-12-14	13:24:11	13:33:30	557494	6111c4865701e1ba367af3e3	537108808	1	main_slash	11	main_slash	153	stimuli_distractor_trianglediamonds.svg	stimuli_distractor_diamondtriangles.svg	35	no	53	0	406
6.6.1	win	2022-12-14	13:24:11	13:33:30	557494	6111c4865701e1ba367af3e3	537108808	1	main_slash	11	advance_on_keypress_SLASH	154	stimuli_distractor_trianglediamonds.svg	stimuli_distractor_diamondtriangles.svg	35	no	57	0	817
6.6.1	win	2022-12-14	13:24:11	13:33:34	560953	6111c4865701e1ba367af3e3	537108808	1	main_slash	11	main_slash	155	stimuli_distractor_trianglediamonds.svg	stimuli_distractor_trianglediamonds.svg	34	no	0	1	2000
6.6.1	win	2022-12-14	13:24:11	13:33:34	560953	6111c4865701e1ba367af3e3	537108808	1	main_slash	11	advance_on_keypress_SLASH	156	stimuli_distractor_trianglediamonds.svg	stimuli_distractor_trianglediamonds.svg	34	no	57	0	321
6.6.1	win	2022-12-14	13:24:11	13:33:36	563520	6111c4865701e1ba367af3e3	537108808	1	main_slash	11	main_slash	157	stimuli_target_trianglecircles.svg	stimuli_distractor_trianglediamonds.svg	17	yes	53	1	1603
6.6.1	win	2022-12-14	13:24:11	13:33:36	563520	6111c4865701e1ba367af3e3	537108808	1	main_slash	11	advance_on_keypress_SLASH	158	stimuli_target_trianglecircles.svg	stimuli_distractor_trianglediamonds.svg	17	yes	57	0	583
6.6.1	win	2022-12-14	13:24:11	13:33:38	565158	6111c4865701e1ba367af3e3	537108808	1	main_slash	11	main_slash	159	stimuli_target_circletriangles.svg	stimuli_distractor_diamondtriangles.svg	5	yes	53	1	410
6.6.1	win	2022-12-14	13:24:11	13:33:38	565158	6111c4865701e1ba367af3e3	537108808	1	main_slash	11	advance_on_keypress_SLASH	160	stimuli_target_circletriangles.svg	stimuli_distractor_diamondtriangles.svg	5	yes	57	0	116