build	computer.platform	date	time	timestamp	time_elapsed_ms	subject	group	session	blockcode	blocknum	trialcode	trialnum	stimulus_left	stimulus_right	stim_index	target_present	response	correct	latency
6.6.1	win	2022-12-22	14:54:37	14:56:34	115419	5ba840da26605b00013c8119	945086913	1	practice_slash	5	practice_slash	1	stimuli_target_circlediamonds.svg	stimuli_distractor_diamondtriangles.svg	1	yes	53	1	1768
6.6.1	win	2022-12-22	14:54:37	14:56:34	115419	5ba840da26605b00013c8119	945086913	1	practice_slash	5	advance_on_keypress_SLASH	2	stimuli_target_circlediamonds.svg	stimuli_distractor_diamondtriangles.svg	1	yes	57	0	1214
6.6.1	win	2022-12-22	14:54:37	14:56:38	120280	5ba840da26605b00013c8119	945086913	1	practice_slash	5	practice_slash	3	stimuli_distractor_diamondtriangles.svg	stimuli_distractor_diamondtriangles.svg	13	no	0	1	2000
6.6.1	win	2022-12-22	14:54:37	14:56:38	120280	5ba840da26605b00013c8119	945086913	1	practice_slash	5	advance_on_keypress_SLASH	4	stimuli_distractor_diamondtriangles.svg	stimuli_distractor_diamondtriangles.svg	13	no	57	0	768
6.6.1	win	2022-12-22	14:54:37	14:56:42	123674	5ba840da26605b00013c8119	945086913	1	practice_slash	5	practice_slash	5	stimuli_target_diamondsquares.svg	stimuli_distractor_diamondtriangles.svg	3	yes	53	1	980
6.6.1	win	2022-12-22	14:54:37	14:56:42	123674	5ba840da26605b00013c8119	945086913	1	practice_slash	5	advance_on_keypress_SLASH	6	stimuli_target_diamondsquares.svg	stimuli_distractor_diamondtriangles.svg	3	yes	57	0	866
6.6.1	win	2022-12-22	14:54:37	14:56:45	127162	5ba840da26605b00013c8119	945086913	1	practice_slash	5	practice_slash	7	stimuli_distractor_trianglediamonds.svg	stimuli_target_diamondcircles.svg	12	yes	53	1	972
6.6.1	win	2022-12-22	14:54:37	14:56:45	127162	5ba840da26605b00013c8119	945086913	1	practice_slash	5	advance_on_keypress_SLASH	8	stimuli_distractor_trianglediamonds.svg	stimuli_target_diamondcircles.svg	12	yes	57	0	867
6.6.1	win	2022-12-22	14:54:37	14:56:49	130565	5ba840da26605b00013c8119	945086913	1	practice_slash	5	practice_slash	9	stimuli_distractor_trianglediamonds.svg	stimuli_target_circlediamonds.svg	10	yes	53	1	893
6.6.1	win	2022-12-22	14:54:37	14:56:49	130565	5ba840da26605b00013c8119	945086913	1	practice_slash	5	advance_on_keypress_SLASH	10	stimuli_distractor_trianglediamonds.svg	stimuli_target_circlediamonds.svg	10	yes	57	0	414
6.6.1	win	2022-12-22	14:54:37	14:56:52	133409	5ba840da26605b00013c8119	945086913	1	practice_slash	5	practice_slash	11	stimuli_distractor_trianglediamonds.svg	stimuli_target_squarediamonds.svg	11	yes	53	1	774
6.6.1	win	2022-12-22	14:54:37	14:56:52	133409	5ba840da26605b00013c8119	945086913	1	practice_slash	5	advance_on_keypress_SLASH	12	stimuli_distractor_trianglediamonds.svg	stimuli_target_squarediamonds.svg	11	yes	57	0	766
6.6.1	win	2022-12-22	14:54:37	14:56:55	136575	5ba840da26605b00013c8119	945086913	1	practice_slash	5	practice_slash	13	stimuli_distractor_diamondtriangles.svg	stimuli_target_diamondcircles.svg	8	yes	53	1	759
6.6.1	win	2022-12-22	14:54:37	14:56:55	136575	5ba840da26605b00013c8119	945086913	1	practice_slash	5	advance_on_keypress_SLASH	14	stimuli_distractor_diamondtriangles.svg	stimuli_target_diamondcircles.svg	8	yes	57	0	406
6.6.1	win	2022-12-22	14:54:37	14:56:58	139536	5ba840da26605b00013c8119	945086913	1	practice_slash	5	practice_slash	15	stimuli_target_squarediamonds.svg	stimuli_distractor_trianglediamonds.svg	5	yes	53	1	906
6.6.1	win	2022-12-22	14:54:37	14:56:58	139536	5ba840da26605b00013c8119	945086913	1	practice_slash	5	advance_on_keypress_SLASH	16	stimuli_target_squarediamonds.svg	stimuli_distractor_trianglediamonds.svg	5	yes	57	0	624
6.6.1	win	2022-12-22	14:54:37	14:57:01	142739	5ba840da26605b00013c8119	945086913	1	practice_slash	5	practice_slash	17	stimuli_target_diamondsquares.svg	stimuli_distractor_trianglediamonds.svg	6	yes	53	1	945
6.6.1	win	2022-12-22	14:54:37	14:57:01	142739	5ba840da26605b00013c8119	945086913	1	practice_slash	5	advance_on_keypress_SLASH	18	stimuli_target_diamondsquares.svg	stimuli_distractor_trianglediamonds.svg	6	yes	57	0	390
6.6.1	win	2022-12-22	14:54:37	14:57:04	145637	5ba840da26605b00013c8119	945086913	1	practice_slash	5	practice_slash	19	stimuli_distractor_diamondtriangles.svg	stimuli_target_trianglecircles.svg	9	yes	53	1	863
6.6.1	win	2022-12-22	14:54:37	14:57:04	145637	5ba840da26605b00013c8119	945086913	1	practice_slash	5	advance_on_keypress_SLASH	20	stimuli_distractor_diamondtriangles.svg	stimuli_target_trianglecircles.svg	9	yes	57	0	797
6.6.1	win	2022-12-22	14:54:37	14:57:08	150089	5ba840da26605b00013c8119	945086913	1	practice_slash	5	practice_slash	21	stimuli_distractor_diamondtriangles.svg	stimuli_distractor_trianglediamonds.svg	14	no	0	1	2000
6.6.1	win	2022-12-22	14:54:37	14:57:08	150089	5ba840da26605b00013c8119	945086913	1	practice_slash	5	advance_on_keypress_SLASH	22	stimuli_distractor_diamondtriangles.svg	stimuli_distractor_trianglediamonds.svg	14	no	57	0	594
6.6.1	win	2022-12-22	14:54:37	14:57:11	153260	5ba840da26605b00013c8119	945086913	1	practice_slash	5	practice_slash	23	stimuli_target_circlediamonds.svg	stimuli_distractor_trianglediamonds.svg	4	yes	53	1	943
6.6.1	win	2022-12-22	14:54:37	14:57:11	153260	5ba840da26605b00013c8119	945086913	1	practice_slash	5	advance_on_keypress_SLASH	24	stimuli_target_circlediamonds.svg	stimuli_distractor_trianglediamonds.svg	4	yes	57	0	535
6.6.1	win	2022-12-22	14:54:37	14:57:16	157448	5ba840da26605b00013c8119	945086913	1	practice_slash	5	practice_slash	25	stimuli_distractor_trianglediamonds.svg	stimuli_distractor_trianglediamonds.svg	15	no	0	1	2000
6.6.1	win	2022-12-22	14:54:37	14:57:16	157448	5ba840da26605b00013c8119	945086913	1	practice_slash	5	advance_on_keypress_SLASH	26	stimuli_distractor_trianglediamonds.svg	stimuli_distractor_trianglediamonds.svg	15	no	57	0	596
6.6.1	win	2022-12-22	14:54:37	14:57:19	160548	5ba840da26605b00013c8119	945086913	1	practice_slash	5	practice_slash	27	stimuli_target_squarediamonds.svg	stimuli_distractor_diamondtriangles.svg	2	yes	53	1	853
6.6.1	win	2022-12-22	14:54:37	14:57:19	160548	5ba840da26605b00013c8119	945086913	1	practice_slash	5	advance_on_keypress_SLASH	28	stimuli_target_squarediamonds.svg	stimuli_distractor_diamondtriangles.svg	2	yes	57	0	481
6.6.1	win	2022-12-22	14:54:37	14:57:22	163628	5ba840da26605b00013c8119	945086913	1	practice_slash	5	practice_slash	29	stimuli_distractor_diamondtriangles.svg	stimuli_target_circletriangles.svg	7	yes	53	1	953
6.6.1	win	2022-12-22	14:54:37	14:57:22	163628	5ba840da26605b00013c8119	945086913	1	practice_slash	5	advance_on_keypress_SLASH	30	stimuli_distractor_diamondtriangles.svg	stimuli_target_circletriangles.svg	7	yes	57	0	560
6.6.1	win	2022-12-22	14:54:37	14:57:26	167822	5ba840da26605b00013c8119	945086913	1	practice_slash	5	practice_slash	31	stimuli_distractor_trianglediamonds.svg	stimuli_distractor_diamondtriangles.svg	16	no	0	1	2000
6.6.1	win	2022-12-22	14:54:37	14:57:26	167822	5ba840da26605b00013c8119	945086913	1	practice_slash	5	advance_on_keypress_SLASH	32	stimuli_distractor_trianglediamonds.svg	stimuli_distractor_diamondtriangles.svg	16	no	57	0	598
6.6.1	win	2022-12-22	14:54:37	14:57:34	175729	5ba840da26605b00013c8119	945086913	1	main_slash	7	main_slash	1	stimuli_target_trianglesquares.svg	stimuli_distractor_diamondtriangles.svg	22	yes	53	1	801
6.6.1	win	2022-12-22	14:54:37	14:57:34	175729	5ba840da26605b00013c8119	945086913	1	main_slash	7	advance_on_keypress_SLASH	2	stimuli_target_trianglesquares.svg	stimuli_distractor_diamondtriangles.svg	22	yes	57	0	1246
6.6.1	win	2022-12-22	14:54:37	14:57:37	178575	5ba840da26605b00013c8119	945086913	1	main_slash	7	main_slash	3	stimuli_target_trianglesquares.svg	stimuli_distractor_trianglediamonds.svg	18	yes	53	1	950
6.6.1	win	2022-12-22	14:54:37	14:57:37	178575	5ba840da26605b00013c8119	945086913	1	main_slash	7	advance_on_keypress_SLASH	4	stimuli_target_trianglesquares.svg	stimuli_distractor_trianglediamonds.svg	18	yes	57	0	957
6.6.1	win	2022-12-22	14:54:37	14:57:40	182174	5ba840da26605b00013c8119	945086913	1	main_slash	7	main_slash	5	stimuli_target_circlediamonds.svg	stimuli_distractor_trianglediamonds.svg	2	yes	0	0	2000
6.6.1	win	2022-12-22	14:54:37	14:57:40	182174	5ba840da26605b00013c8119	945086913	1	main_slash	7	advance_on_keypress_SLASH	6	stimuli_target_circlediamonds.svg	stimuli_distractor_trianglediamonds.svg	2	yes	57	0	434
6.6.1	win	2022-12-22	14:54:37	14:57:42	184158	5ba840da26605b00013c8119	945086913	1	main_slash	7	main_slash	7	stimuli_target_squaretriangles.svg	stimuli_distractor_trianglediamonds.svg	3	yes	53	1	903
6.6.1	win	2022-12-22	14:54:37	14:57:42	184158	5ba840da26605b00013c8119	945086913	1	main_slash	7	advance_on_keypress_SLASH	8	stimuli_target_squaretriangles.svg	stimuli_distractor_trianglediamonds.svg	3	yes	57	0	551
6.6.1	win	2022-12-22	14:54:37	14:57:45	187353	5ba840da26605b00013c8119	945086913	1	main_slash	7	main_slash	9	stimuli_distractor_diamondtriangles.svg	stimuli_target_circlediamonds.svg	14	yes	0	0	2000
6.6.1	win	2022-12-22	14:54:37	14:57:45	187353	5ba840da26605b00013c8119	945086913	1	main_slash	7	advance_on_keypress_SLASH	10	stimuli_distractor_diamondtriangles.svg	stimuli_target_circlediamonds.svg	14	yes	57	0	748
6.6.1	win	2022-12-22	14:54:37	14:57:48	189576	5ba840da26605b00013c8119	945086913	1	main_slash	7	main_slash	11	stimuli_target_trianglecircles.svg	stimuli_distractor_trianglediamonds.svg	17	yes	53	1	827
6.6.1	win	2022-12-22	14:54:37	14:57:48	189576	5ba840da26605b00013c8119	945086913	1	main_slash	7	advance_on_keypress_SLASH	12	stimuli_target_trianglecircles.svg	stimuli_distractor_trianglediamonds.svg	17	yes	57	0	670
6.6.1	win	2022-12-22	14:54:37	14:57:50	191808	5ba840da26605b00013c8119	945086913	1	main_slash	7	main_slash	13	stimuli_distractor_diamondtriangles.svg	stimuli_target_trianglesquares.svg	30	yes	53	1	928
6.6.1	win	2022-12-22	14:54:37	14:57:50	191808	5ba840da26605b00013c8119	945086913	1	main_slash	7	advance_on_keypress_SLASH	14	stimuli_distractor_diamondtriangles.svg	stimuli_target_trianglesquares.svg	30	yes	57	0	775
6.6.1	win	2022-12-22	14:54:37	14:57:53	195212	5ba840da26605b00013c8119	945086913	1	main_slash	7	main_slash	15	stimuli_distractor_trianglediamonds.svg	stimuli_distractor_trianglediamonds.svg	33	no	0	1	2000
6.6.1	win	2022-12-22	14:54:37	14:57:53	195212	5ba840da26605b00013c8119	945086913	1	main_slash	7	advance_on_keypress_SLASH	16	stimuli_distractor_trianglediamonds.svg	stimuli_distractor_trianglediamonds.svg	33	no	57	0	360
6.6.1	win	2022-12-22	14:54:37	14:57:55	197113	5ba840da26605b00013c8119	945086913	1	main_slash	7	main_slash	17	stimuli_target_circletriangles.svg	stimuli_distractor_diamondtriangles.svg	5	yes	53	1	904
6.6.1	win	2022-12-22	14:54:37	14:57:55	197113	5ba840da26605b00013c8119	945086913	1	main_slash	7	advance_on_keypress_SLASH	18	stimuli_target_circletriangles.svg	stimuli_distractor_diamondtriangles.svg	5	yes	57	0	614
6.6.1	win	2022-12-22	14:54:37	14:57:57	199331	5ba840da26605b00013c8119	945086913	1	main_slash	7	main_slash	19	stimuli_target_squarediamonds.svg	stimuli_distractor_trianglediamonds.svg	4	yes	53	1	957
6.6.1	win	2022-12-22	14:54:37	14:57:57	199331	5ba840da26605b00013c8119	945086913	1	main_slash	7	advance_on_keypress_SLASH	20	stimuli_target_squarediamonds.svg	stimuli_distractor_trianglediamonds.svg	4	yes	57	0	546
6.6.1	win	2022-12-22	14:54:37	14:58:00	201712	5ba840da26605b00013c8119	945086913	1	main_slash	7	main_slash	21	stimuli_distractor_trianglediamonds.svg	stimuli_target_trianglesquares.svg	26	yes	53	1	1190
6.6.1	win	2022-12-22	14:54:37	14:58:00	201712	5ba840da26605b00013c8119	945086913	1	main_slash	7	advance_on_keypress_SLASH	22	stimuli_distractor_trianglediamonds.svg	stimuli_target_trianglesquares.svg	26	yes	57	0	803
6.6.1	win	2022-12-22	14:54:37	14:58:03	205153	5ba840da26605b00013c8119	945086913	1	main_slash	7	main_slash	23	stimuli_distractor_diamondtriangles.svg	stimuli_distractor_diamondtriangles.svg	39	no	0	1	2000
6.6.1	win	2022-12-22	14:54:37	14:58:03	205153	5ba840da26605b00013c8119	945086913	1	main_slash	7	advance_on_keypress_SLASH	24	stimuli_distractor_diamondtriangles.svg	stimuli_distractor_diamondtriangles.svg	39	no	57	0	518
6.6.1	win	2022-12-22	14:54:37	14:58:05	207221	5ba840da26605b00013c8119	945086913	1	main_slash	7	main_slash	25	stimuli_distractor_diamondtriangles.svg	stimuli_target_squarediamonds.svg	16	yes	53	1	903
6.6.1	win	2022-12-22	14:54:37	14:58:05	207221	5ba840da26605b00013c8119	945086913	1	main_slash	7	advance_on_keypress_SLASH	26	stimuli_distractor_diamondtriangles.svg	stimuli_target_squarediamonds.svg	16	yes	57	0	569
6.6.1	win	2022-12-22	14:54:37	14:58:07	209353	5ba840da26605b00013c8119	945086913	1	main_slash	7	main_slash	27	stimuli_distractor_diamondtriangles.svg	stimuli_target_diamondsquares.svg	32	yes	53	1	921
6.6.1	win	2022-12-22	14:54:37	14:58:07	209353	5ba840da26605b00013c8119	945086913	1	main_slash	7	advance_on_keypress_SLASH	28	stimuli_distractor_diamondtriangles.svg	stimuli_target_diamondsquares.svg	32	yes	57	0	503
6.6.1	win	2022-12-22	14:54:37	14:58:11	212497	5ba840da26605b00013c8119	945086913	1	main_slash	7	main_slash	29	stimuli_distractor_trianglediamonds.svg	stimuli_distractor_trianglediamonds.svg	34	no	0	1	2000
6.6.1	win	2022-12-22	14:54:37	14:58:11	212497	5ba840da26605b00013c8119	945086913	1	main_slash	7	advance_on_keypress_SLASH	30	stimuli_distractor_trianglediamonds.svg	stimuli_distractor_trianglediamonds.svg	34	no	57	0	340
6.6.1	win	2022-12-22	14:54:37	14:58:12	214337	5ba840da26605b00013c8119	945086913	1	main_slash	7	main_slash	31	stimuli_target_trianglecircles.svg	stimuli_distractor_diamondtriangles.svg	21	yes	53	1	858
6.6.1	win	2022-12-22	14:54:37	14:58:12	214337	5ba840da26605b00013c8119	945086913	1	main_slash	7	advance_on_keypress_SLASH	32	stimuli_target_trianglecircles.svg	stimuli_distractor_diamondtriangles.svg	21	yes	57	0	859
6.6.1	win	2022-12-22	14:54:37	14:58:15	216797	5ba840da26605b00013c8119	945086913	1	main_slash	7	main_slash	33	stimuli_distractor_trianglediamonds.svg	stimuli_target_squarediamonds.svg	12	yes	53	1	972
6.6.1	win	2022-12-22	14:54:37	14:58:15	216797	5ba840da26605b00013c8119	945086913	1	main_slash	7	advance_on_keypress_SLASH	34	stimuli_distractor_trianglediamonds.svg	stimuli_target_squarediamonds.svg	12	yes	57	0	784
6.6.1	win	2022-12-22	14:54:37	14:58:17	219185	5ba840da26605b00013c8119	945086913	1	main_slash	7	main_slash	35	stimuli_target_diamondcircles.svg	stimuli_distractor_diamondtriangles.svg	23	yes	53	1	962
6.6.1	win	2022-12-22	14:54:37	14:58:17	219185	5ba840da26605b00013c8119	945086913	1	main_slash	7	advance_on_keypress_SLASH	36	stimuli_target_diamondcircles.svg	stimuli_distractor_diamondtriangles.svg	23	yes	57	0	1069
6.6.1	win	2022-12-22	14:54:37	14:58:21	222888	5ba840da26605b00013c8119	945086913	1	main_slash	7	main_slash	37	stimuli_distractor_trianglediamonds.svg	stimuli_distractor_diamondtriangles.svg	36	no	0	1	2000
6.6.1	win	2022-12-22	14:54:37	14:58:21	222888	5ba840da26605b00013c8119	945086913	1	main_slash	7	advance_on_keypress_SLASH	38	stimuli_distractor_trianglediamonds.svg	stimuli_distractor_diamondtriangles.svg	36	no	57	0	364
6.6.1	win	2022-12-22	14:54:37	14:58:23	224991	5ba840da26605b00013c8119	945086913	1	main_slash	7	main_slash	39	stimuli_target_circletriangles.svg	stimuli_distractor_trianglediamonds.svg	1	yes	53	1	1090
6.6.1	win	2022-12-22	14:54:37	14:58:23	224991	5ba840da26605b00013c8119	945086913	1	main_slash	7	advance_on_keypress_SLASH	40	stimuli_target_circletriangles.svg	stimuli_distractor_trianglediamonds.svg	1	yes	57	0	1032
6.6.1	win	2022-12-22	14:54:37	14:58:26	227457	5ba840da26605b00013c8119	945086913	1	main_slash	7	main_slash	41	stimuli_distractor_trianglediamonds.svg	stimuli_target_trianglecircles.svg	25	yes	53	1	791
6.6.1	win	2022-12-22	14:54:37	14:58:26	227457	5ba840da26605b00013c8119	945086913	1	main_slash	7	advance_on_keypress_SLASH	42	stimuli_distractor_trianglediamonds.svg	stimuli_target_trianglecircles.svg	25	yes	57	0	2128
6.6.1	win	2022-12-22	14:54:37	14:58:29	231004	5ba840da26605b00013c8119	945086913	1	main_slash	7	main_slash	43	stimuli_target_squaretriangles.svg	stimuli_distractor_diamondtriangles.svg	7	yes	53	1	775
6.6.1	win	2022-12-22	14:54:37	14:58:29	231004	5ba840da26605b00013c8119	945086913	1	main_slash	7	advance_on_keypress_SLASH	44	stimuli_target_squaretriangles.svg	stimuli_distractor_diamondtriangles.svg	7	yes	57	0	1206
6.6.1	win	2022-12-22	14:54:37	14:58:32	233614	5ba840da26605b00013c8119	945086913	1	main_slash	7	main_slash	45	stimuli_target_squarediamonds.svg	stimuli_distractor_diamondtriangles.svg	8	yes	53	1	770
6.6.1	win	2022-12-22	14:54:37	14:58:32	233614	5ba840da26605b00013c8119	945086913	1	main_slash	7	advance_on_keypress_SLASH	46	stimuli_target_squarediamonds.svg	stimuli_distractor_diamondtriangles.svg	8	yes	57	0	1033
6.6.1	win	2022-12-22	14:54:37	14:58:34	236278	5ba840da26605b00013c8119	945086913	1	main_slash	7	main_slash	47	stimuli_distractor_diamondtriangles.svg	stimuli_target_circletriangles.svg	13	yes	53	1	985
6.6.1	win	2022-12-22	14:54:37	14:58:34	236278	5ba840da26605b00013c8119	945086913	1	main_slash	7	advance_on_keypress_SLASH	48	stimuli_distractor_diamondtriangles.svg	stimuli_target_circletriangles.svg	13	yes	57	0	905
6.6.1	win	2022-12-22	14:54:37	14:58:38	239823	5ba840da26605b00013c8119	945086913	1	main_slash	7	main_slash	49	stimuli_distractor_trianglediamonds.svg	stimuli_target_circletriangles.svg	9	yes	0	0	2000
6.6.1	win	2022-12-22	14:54:37	14:58:38	239823	5ba840da26605b00013c8119	945086913	1	main_slash	7	advance_on_keypress_SLASH	50	stimuli_distractor_trianglediamonds.svg	stimuli_target_circletriangles.svg	9	yes	57	0	303
6.6.1	win	2022-12-22	14:54:37	14:58:41	242771	5ba840da26605b00013c8119	945086913	1	main_slash	7	main_slash	51	stimuli_distractor_trianglediamonds.svg	stimuli_distractor_diamondtriangles.svg	35	no	0	1	2000
6.6.1	win	2022-12-22	14:54:37	14:58:41	242771	5ba840da26605b00013c8119	945086913	1	main_slash	7	advance_on_keypress_SLASH	52	stimuli_distractor_trianglediamonds.svg	stimuli_distractor_diamondtriangles.svg	35	no	57	0	353
6.6.1	win	2022-12-22	14:54:37	14:58:43	244596	5ba840da26605b00013c8119	945086913	1	main_slash	7	main_slash	53	stimuli_distractor_diamondtriangles.svg	stimuli_target_diamondcircles.svg	31	yes	53	1	828
6.6.1	win	2022-12-22	14:54:37	14:58:43	244596	5ba840da26605b00013c8119	945086913	1	main_slash	7	advance_on_keypress_SLASH	54	stimuli_distractor_diamondtriangles.svg	stimuli_target_diamondcircles.svg	31	yes	57	0	1094
6.6.1	win	2022-12-22	14:54:37	14:58:46	248332	5ba840da26605b00013c8119	945086913	1	main_slash	7	main_slash	55	stimuli_distractor_diamondtriangles.svg	stimuli_distractor_trianglediamonds.svg	38	no	0	1	2000
6.6.1	win	2022-12-22	14:54:37	14:58:46	248332	5ba840da26605b00013c8119	945086913	1	main_slash	7	advance_on_keypress_SLASH	56	stimuli_distractor_diamondtriangles.svg	stimuli_distractor_trianglediamonds.svg	38	no	57	0	310
6.6.1	win	2022-12-22	14:54:37	14:58:49	251280	5ba840da26605b00013c8119	945086913	1	main_slash	7	main_slash	57	stimuli_distractor_diamondtriangles.svg	stimuli_distractor_trianglediamonds.svg	37	no	0	1	2000
6.6.1	win	2022-12-22	14:54:37	14:58:49	251280	5ba840da26605b00013c8119	945086913	1	main_slash	7	advance_on_keypress_SLASH	58	stimuli_distractor_diamondtriangles.svg	stimuli_distractor_trianglediamonds.svg	37	no	57	0	311
6.6.1	win	2022-12-22	14:54:37	14:58:51	253087	5ba840da26605b00013c8119	945086913	1	main_slash	7	main_slash	59	stimuli_distractor_diamondtriangles.svg	stimuli_target_squaretriangles.svg	15	yes	53	1	859
6.6.1	win	2022-12-22	14:54:37	14:58:51	253087	5ba840da26605b00013c8119	945086913	1	main_slash	7	advance_on_keypress_SLASH	60	stimuli_distractor_diamondtriangles.svg	stimuli_target_squaretriangles.svg	15	yes	57	0	871
6.6.1	win	2022-12-22	14:54:37	14:58:54	255636	5ba840da26605b00013c8119	945086913	1	main_slash	7	main_slash	61	stimuli_target_diamondcircles.svg	stimuli_distractor_trianglediamonds.svg	19	yes	53	1	1043
6.6.1	win	2022-12-22	14:54:37	14:58:54	255636	5ba840da26605b00013c8119	945086913	1	main_slash	7	advance_on_keypress_SLASH	62	stimuli_target_diamondcircles.svg	stimuli_distractor_trianglediamonds.svg	19	yes	57	0	760
6.6.1	win	2022-12-22	14:54:37	14:58:57	259024	5ba840da26605b00013c8119	945086913	1	main_slash	7	main_slash	63	stimuli_target_diamondsquares.svg	stimuli_distractor_trianglediamonds.svg	20	yes	0	0	2000
6.6.1	win	2022-12-22	14:54:37	14:58:57	259024	5ba840da26605b00013c8119	945086913	1	main_slash	7	advance_on_keypress_SLASH	64	stimuli_target_diamondsquares.svg	stimuli_distractor_trianglediamonds.svg	20	yes	57	0	562
6.6.1	win	2022-12-22	14:54:37	14:58:59	261120	5ba840da26605b00013c8119	945086913	1	main_slash	7	main_slash	65	stimuli_target_circlediamonds.svg	stimuli_distractor_diamondtriangles.svg	6	yes	53	1	899
6.6.1	win	2022-12-22	14:54:37	14:58:59	261120	5ba840da26605b00013c8119	945086913	1	main_slash	7	advance_on_keypress_SLASH	66	stimuli_target_circlediamonds.svg	stimuli_distractor_diamondtriangles.svg	6	yes	57	0	345
6.6.1	win	2022-12-22	14:54:37	14:59:01	263193	5ba840da26605b00013c8119	945086913	1	main_slash	7	main_slash	67	stimuli_distractor_trianglediamonds.svg	stimuli_target_diamondsquares.svg	28	yes	53	1	1091
6.6.1	win	2022-12-22	14:54:37	14:59:01	263193	5ba840da26605b00013c8119	945086913	1	main_slash	7	advance_on_keypress_SLASH	68	stimuli_distractor_trianglediamonds.svg	stimuli_target_diamondsquares.svg	28	yes	57	0	884
6.6.1	win	2022-12-22	14:54:37	14:59:05	266717	5ba840da26605b00013c8119	945086913	1	main_slash	7	main_slash	69	stimuli_distractor_diamondtriangles.svg	stimuli_distractor_diamondtriangles.svg	40	no	0	1	2000
6.6.1	win	2022-12-22	14:54:37	14:59:05	266717	5ba840da26605b00013c8119	945086913	1	main_slash	7	advance_on_keypress_SLASH	70	stimuli_distractor_diamondtriangles.svg	stimuli_distractor_diamondtriangles.svg	40	no	57	0	265
6.6.1	win	2022-12-22	14:54:37	14:59:07	268603	5ba840da26605b00013c8119	945086913	1	main_slash	7	main_slash	71	stimuli_distractor_trianglediamonds.svg	stimuli_target_diamondcircles.svg	27	yes	53	1	973
6.6.1	win	2022-12-22	14:54:37	14:59:07	268603	5ba840da26605b00013c8119	945086913	1	main_slash	7	advance_on_keypress_SLASH	72	stimuli_distractor_trianglediamonds.svg	stimuli_target_diamondcircles.svg	27	yes	57	0	1323
6.6.1	win	2022-12-22	14:54:37	14:59:10	271611	5ba840da26605b00013c8119	945086913	1	main_slash	7	main_slash	73	stimuli_target_diamondsquares.svg	stimuli_distractor_diamondtriangles.svg	24	yes	53	1	1050
6.6.1	win	2022-12-22	14:54:37	14:59:10	271611	5ba840da26605b00013c8119	945086913	1	main_slash	7	advance_on_keypress_SLASH	74	stimuli_target_diamondsquares.svg	stimuli_distractor_diamondtriangles.svg	24	yes	57	0	912
6.6.1	win	2022-12-22	14:54:37	14:59:12	274228	5ba840da26605b00013c8119	945086913	1	main_slash	7	main_slash	75	stimuli_distractor_trianglediamonds.svg	stimuli_target_squaretriangles.svg	11	yes	53	1	1053
6.6.1	win	2022-12-22	14:54:37	14:59:12	274228	5ba840da26605b00013c8119	945086913	1	main_slash	7	advance_on_keypress_SLASH	76	stimuli_distractor_trianglediamonds.svg	stimuli_target_squaretriangles.svg	11	yes	57	0	1000
6.6.1	win	2022-12-22	14:54:37	14:59:16	277873	5ba840da26605b00013c8119	945086913	1	main_slash	7	main_slash	77	stimuli_distractor_trianglediamonds.svg	stimuli_target_circlediamonds.svg	10	yes	0	0	2000
6.6.1	win	2022-12-22	14:54:37	14:59:16	277873	5ba840da26605b00013c8119	945086913	1	main_slash	7	advance_on_keypress_SLASH	78	stimuli_distractor_trianglediamonds.svg	stimuli_target_circlediamonds.svg	10	yes	57	0	238
6.6.1	win	2022-12-22	14:54:37	14:59:18	279728	5ba840da26605b00013c8119	945086913	1	main_slash	7	main_slash	79	stimuli_distractor_diamondtriangles.svg	stimuli_target_trianglecircles.svg	29	yes	53	1	973
6.6.1	win	2022-12-22	14:54:37	14:59:18	279728	5ba840da26605b00013c8119	945086913	1	main_slash	7	advance_on_keypress_SLASH	80	stimuli_distractor_diamondtriangles.svg	stimuli_target_trianglecircles.svg	29	yes	57	0	958
6.6.1	win	2022-12-22	14:54:37	14:59:20	282238	5ba840da26605b00013c8119	945086913	1	main_slash	7	main_slash	81	stimuli_target_trianglecircles.svg	stimuli_distractor_trianglediamonds.svg	17	yes	53	1	919
6.6.1	win	2022-12-22	14:54:37	14:59:20	282238	5ba840da26605b00013c8119	945086913	1	main_slash	7	advance_on_keypress_SLASH	82	stimuli_target_trianglecircles.svg	stimuli_distractor_trianglediamonds.svg	17	yes	57	0	1059
6.6.1	win	2022-12-22	14:54:37	14:59:23	284727	5ba840da26605b00013c8119	945086913	1	main_slash	7	main_slash	83	stimuli_target_squaretriangles.svg	stimuli_distractor_trianglediamonds.svg	3	yes	53	1	794
6.6.1	win	2022-12-22	14:54:37	14:59:23	284727	5ba840da26605b00013c8119	945086913	1	main_slash	7	advance_on_keypress_SLASH	84	stimuli_target_squaretriangles.svg	stimuli_distractor_trianglediamonds.svg	3	yes	57	0	1732
6.6.1	win	2022-12-22	14:54:37	14:59:27	288452	5ba840da26605b00013c8119	945086913	1	main_slash	7	main_slash	85	stimuli_distractor_diamondtriangles.svg	stimuli_target_circlediamonds.svg	14	yes	53	1	1356
6.6.1	win	2022-12-22	14:54:37	14:59:27	288452	5ba840da26605b00013c8119	945086913	1	main_slash	7	advance_on_keypress_SLASH	86	stimuli_distractor_diamondtriangles.svg	stimuli_target_circlediamonds.svg	14	yes	57	0	885
6.6.1	win	2022-12-22	14:54:37	14:59:30	291978	5ba840da26605b00013c8119	945086913	1	main_slash	7	main_slash	87	stimuli_distractor_trianglediamonds.svg	stimuli_distractor_diamondtriangles.svg	36	no	0	1	2000
6.6.1	win	2022-12-22	14:54:37	14:59:30	291978	5ba840da26605b00013c8119	945086913	1	main_slash	7	advance_on_keypress_SLASH	88	stimuli_distractor_trianglediamonds.svg	stimuli_distractor_diamondtriangles.svg	36	no	57	0	277
6.6.1	win	2022-12-22	14:54:37	14:59:32	293783	5ba840da26605b00013c8119	945086913	1	main_slash	7	main_slash	89	stimuli_target_trianglesquares.svg	stimuli_distractor_diamondtriangles.svg	22	yes	53	1	892
6.6.1	win	2022-12-22	14:54:37	14:59:32	293783	5ba840da26605b00013c8119	945086913	1	main_slash	7	advance_on_keypress_SLASH	90	stimuli_target_trianglesquares.svg	stimuli_distractor_diamondtriangles.svg	22	yes	57	0	1010
6.6.1	win	2022-12-22	14:54:37	14:59:34	296365	5ba840da26605b00013c8119	945086913	1	main_slash	7	main_slash	91	stimuli_target_diamondcircles.svg	stimuli_distractor_diamondtriangles.svg	23	yes	53	1	942
6.6.1	win	2022-12-22	14:54:37	14:59:34	296365	5ba840da26605b00013c8119	945086913	1	main_slash	7	advance_on_keypress_SLASH	92	stimuli_target_diamondcircles.svg	stimuli_distractor_diamondtriangles.svg	23	yes	57	0	597
6.6.1	win	2022-12-22	14:54:37	14:59:37	298552	5ba840da26605b00013c8119	945086913	1	main_slash	7	main_slash	93	stimuli_target_circlediamonds.svg	stimuli_distractor_diamondtriangles.svg	6	yes	53	1	948
6.6.1	win	2022-12-22	14:54:37	14:59:37	298552	5ba840da26605b00013c8119	945086913	1	main_slash	7	advance_on_keypress_SLASH	94	stimuli_target_circlediamonds.svg	stimuli_distractor_diamondtriangles.svg	6	yes	57	0	812
6.6.1	win	2022-12-22	14:54:37	14:59:39	300969	5ba840da26605b00013c8119	945086913	1	main_slash	7	main_slash	95	stimuli_distractor_trianglediamonds.svg	stimuli_target_squarediamonds.svg	12	yes	53	1	966
6.6.1	win	2022-12-22	14:54:37	14:59:39	300969	5ba840da26605b00013c8119	945086913	1	main_slash	7	advance_on_keypress_SLASH	96	stimuli_distractor_trianglediamonds.svg	stimuli_target_squarediamonds.svg	12	yes	57	0	722
6.6.1	win	2022-12-22	14:54:37	14:59:41	303300	5ba840da26605b00013c8119	945086913	1	main_slash	7	main_slash	97	stimuli_distractor_diamondtriangles.svg	stimuli_target_diamondsquares.svg	32	yes	53	1	966
6.6.1	win	2022-12-22	14:54:37	14:59:41	303300	5ba840da26605b00013c8119	945086913	1	main_slash	7	advance_on_keypress_SLASH	98	stimuli_distractor_diamondtriangles.svg	stimuli_target_diamondsquares.svg	32	yes	57	0	523
6.6.1	win	2022-12-22	14:54:37	14:59:45	306465	5ba840da26605b00013c8119	945086913	1	main_slash	7	main_slash	99	stimuli_distractor_diamondtriangles.svg	stimuli_distractor_trianglediamonds.svg	37	no	0	1	2000
6.6.1	win	2022-12-22	14:54:37	14:59:45	306465	5ba840da26605b00013c8119	945086913	1	main_slash	7	advance_on_keypress_SLASH	100	stimuli_distractor_diamondtriangles.svg	stimuli_distractor_trianglediamonds.svg	37	no	57	0	290
6.6.1	win	2022-12-22	14:54:37	14:59:47	308412	5ba840da26605b00013c8119	945086913	1	main_slash	7	main_slash	101	stimuli_target_circletriangles.svg	stimuli_distractor_diamondtriangles.svg	5	yes	53	1	1017
6.6.1	win	2022-12-22	14:54:37	14:59:47	308412	5ba840da26605b00013c8119	945086913	1	main_slash	7	advance_on_keypress_SLASH	102	stimuli_target_circletriangles.svg	stimuli_distractor_diamondtriangles.svg	5	yes	57	0	771
6.6.1	win	2022-12-22	14:54:37	14:59:49	310949	5ba840da26605b00013c8119	945086913	1	main_slash	7	main_slash	103	stimuli_target_diamondcircles.svg	stimuli_distractor_trianglediamonds.svg	19	yes	53	1	1122
6.6.1	win	2022-12-22	14:54:37	14:59:49	310949	5ba840da26605b00013c8119	945086913	1	main_slash	7	advance_on_keypress_SLASH	104	stimuli_target_diamondcircles.svg	stimuli_distractor_trianglediamonds.svg	19	yes	57	0	597
6.6.1	win	2022-12-22	14:54:37	14:59:51	313119	5ba840da26605b00013c8119	945086913	1	main_slash	7	main_slash	105	stimuli_distractor_trianglediamonds.svg	stimuli_target_squaretriangles.svg	11	yes	53	1	928
6.6.1	win	2022-12-22	14:54:37	14:59:51	313119	5ba840da26605b00013c8119	945086913	1	main_slash	7	advance_on_keypress_SLASH	106	stimuli_distractor_trianglediamonds.svg	stimuli_target_squaretriangles.svg	11	yes	57	0	871
6.6.1	win	2022-12-22	14:54:37	14:59:54	315551	5ba840da26605b00013c8119	945086913	1	main_slash	7	main_slash	107	stimuli_target_circletriangles.svg	stimuli_distractor_trianglediamonds.svg	1	yes	53	1	928
6.6.1	win	2022-12-22	14:54:37	14:59:54	315551	5ba840da26605b00013c8119	945086913	1	main_slash	7	advance_on_keypress_SLASH	108	stimuli_target_circletriangles.svg	stimuli_distractor_trianglediamonds.svg	1	yes	57	0	732
6.6.1	win	2022-12-22	14:54:37	14:59:56	317926	5ba840da26605b00013c8119	945086913	1	main_slash	7	main_slash	109	stimuli_distractor_diamondtriangles.svg	stimuli_target_squaretriangles.svg	15	yes	53	1	989
6.6.1	win	2022-12-22	14:54:37	14:59:56	317926	5ba840da26605b00013c8119	945086913	1	main_slash	7	advance_on_keypress_SLASH	110	stimuli_distractor_diamondtriangles.svg	stimuli_target_squaretriangles.svg	15	yes	57	0	893
6.6.1	win	2022-12-22	14:54:37	14:59:59	320726	5ba840da26605b00013c8119	945086913	1	main_slash	7	main_slash	111	stimuli_distractor_diamondtriangles.svg	stimuli_target_circletriangles.svg	13	yes	53	1	1273
6.6.1	win	2022-12-22	14:54:37	14:59:59	320726	5ba840da26605b00013c8119	945086913	1	main_slash	7	advance_on_keypress_SLASH	112	stimuli_distractor_diamondtriangles.svg	stimuli_target_circletriangles.svg	13	yes	57	0	918
6.6.1	win	2022-12-22	14:54:37	15:00:02	324283	5ba840da26605b00013c8119	945086913	1	main_slash	7	main_slash	113	stimuli_distractor_trianglediamonds.svg	stimuli_distractor_diamondtriangles.svg	35	no	0	1	2000
6.6.1	win	2022-12-22	14:54:37	15:00:02	324283	5ba840da26605b00013c8119	945086913	1	main_slash	7	advance_on_keypress_SLASH	114	stimuli_distractor_trianglediamonds.svg	stimuli_distractor_diamondtriangles.svg	35	no	57	0	257
6.6.1	win	2022-12-22	14:54:37	15:00:05	327180	5ba840da26605b00013c8119	945086913	1	main_slash	7	main_slash	115	stimuli_distractor_trianglediamonds.svg	stimuli_distractor_trianglediamonds.svg	34	no	0	1	2000
6.6.1	win	2022-12-22	14:54:37	15:00:05	327180	5ba840da26605b00013c8119	945086913	1	main_slash	7	advance_on_keypress_SLASH	116	stimuli_distractor_trianglediamonds.svg	stimuli_distractor_trianglediamonds.svg	34	no	57	0	349
6.6.1	win	2022-12-22	14:54:37	15:00:07	329307	5ba840da26605b00013c8119	945086913	1	main_slash	7	main_slash	117	stimuli_distractor_diamondtriangles.svg	stimuli_target_squarediamonds.svg	16	yes	53	1	1130
6.6.1	win	2022-12-22	14:54:37	15:00:07	329307	5ba840da26605b00013c8119	945086913	1	main_slash	7	advance_on_keypress_SLASH	118	stimuli_distractor_diamondtriangles.svg	stimuli_target_squarediamonds.svg	16	yes	57	0	869
6.6.1	win	2022-12-22	14:54:37	15:00:11	332825	5ba840da26605b00013c8119	945086913	1	main_slash	7	main_slash	119	stimuli_distractor_diamondtriangles.svg	stimuli_distractor_diamondtriangles.svg	40	no	0	1	2000
6.6.1	win	2022-12-22	14:54:37	15:00:11	332825	5ba840da26605b00013c8119	945086913	1	main_slash	7	advance_on_keypress_SLASH	120	stimuli_distractor_diamondtriangles.svg	stimuli_distractor_diamondtriangles.svg	40	no	57	0	497
6.6.1	win	2022-12-22	14:54:37	15:00:13	335345	5ba840da26605b00013c8119	945086913	1	main_slash	7	main_slash	121	stimuli_distractor_trianglediamonds.svg	stimuli_target_diamondsquares.svg	28	yes	53	1	1373
6.6.1	win	2022-12-22	14:54:37	15:00:13	335345	5ba840da26605b00013c8119	945086913	1	main_slash	7	advance_on_keypress_SLASH	122	stimuli_distractor_trianglediamonds.svg	stimuli_target_diamondsquares.svg	28	yes	57	0	837
6.6.1	win	2022-12-22	14:54:37	15:00:16	337921	5ba840da26605b00013c8119	945086913	1	main_slash	7	main_slash	123	stimuli_distractor_trianglediamonds.svg	stimuli_target_circletriangles.svg	9	yes	53	1	1100
6.6.1	win	2022-12-22	14:54:37	15:00:16	337921	5ba840da26605b00013c8119	945086913	1	main_slash	7	advance_on_keypress_SLASH	124	stimuli_distractor_trianglediamonds.svg	stimuli_target_circletriangles.svg	9	yes	57	0	634
6.6.1	win	2022-12-22	14:54:37	15:00:18	340102	5ba840da26605b00013c8119	945086913	1	main_slash	7	main_slash	125	stimuli_target_squarediamonds.svg	stimuli_distractor_trianglediamonds.svg	4	yes	53	1	901
6.6.1	win	2022-12-22	14:54:37	15:00:18	340102	5ba840da26605b00013c8119	945086913	1	main_slash	7	advance_on_keypress_SLASH	126	stimuli_target_squarediamonds.svg	stimuli_distractor_trianglediamonds.svg	4	yes	57	0	622
6.6.1	win	2022-12-22	14:54:37	15:00:21	342418	5ba840da26605b00013c8119	945086913	1	main_slash	7	main_slash	127	stimuli_distractor_trianglediamonds.svg	stimuli_target_circlediamonds.svg	10	yes	53	1	1052
6.6.1	win	2022-12-22	14:54:37	15:00:21	342418	5ba840da26605b00013c8119	945086913	1	main_slash	7	advance_on_keypress_SLASH	128	stimuli_distractor_trianglediamonds.svg	stimuli_target_circlediamonds.svg	10	yes	57	0	654
6.6.1	win	2022-12-22	14:54:37	15:00:24	345714	5ba840da26605b00013c8119	945086913	1	main_slash	7	main_slash	129	stimuli_distractor_diamondtriangles.svg	stimuli_distractor_trianglediamonds.svg	38	no	0	1	2000
6.6.1	win	2022-12-22	14:54:37	15:00:24	345714	5ba840da26605b00013c8119	945086913	1	main_slash	7	advance_on_keypress_SLASH	130	stimuli_distractor_diamondtriangles.svg	stimuli_distractor_trianglediamonds.svg	38	no	57	0	640
6.6.1	win	2022-12-22	14:54:37	15:00:26	348098	5ba840da26605b00013c8119	945086913	1	main_slash	7	main_slash	131	stimuli_distractor_trianglediamonds.svg	stimuli_target_diamondcircles.svg	27	yes	53	1	1104
6.6.1	win	2022-12-22	14:54:37	15:00:26	348098	5ba840da26605b00013c8119	945086913	1	main_slash	7	advance_on_keypress_SLASH	132	stimuli_distractor_trianglediamonds.svg	stimuli_target_diamondcircles.svg	27	yes	57	0	612
6.6.1	win	2022-12-22	14:54:37	15:00:29	350799	5ba840da26605b00013c8119	945086913	1	main_slash	7	main_slash	133	stimuli_distractor_diamondtriangles.svg	stimuli_target_trianglesquares.svg	30	yes	53	1	1440
6.6.1	win	2022-12-22	14:54:37	15:00:29	350799	5ba840da26605b00013c8119	945086913	1	main_slash	7	advance_on_keypress_SLASH	134	stimuli_distractor_diamondtriangles.svg	stimuli_target_trianglesquares.svg	30	yes	57	0	675
6.6.1	win	2022-12-22	14:54:37	15:00:31	353085	5ba840da26605b00013c8119	945086913	1	main_slash	7	main_slash	135	stimuli_target_diamondsquares.svg	stimuli_distractor_diamondtriangles.svg	24	yes	53	1	978
6.6.1	win	2022-12-22	14:54:37	15:00:31	353085	5ba840da26605b00013c8119	945086913	1	main_slash	7	advance_on_keypress_SLASH	136	stimuli_target_diamondsquares.svg	stimuli_distractor_diamondtriangles.svg	24	yes	57	0	767
6.6.1	win	2022-12-22	14:54:37	15:00:34	355417	5ba840da26605b00013c8119	945086913	1	main_slash	7	main_slash	137	stimuli_distractor_trianglediamonds.svg	stimuli_target_trianglesquares.svg	26	yes	53	1	928
6.6.1	win	2022-12-22	14:54:37	15:00:34	355417	5ba840da26605b00013c8119	945086913	1	main_slash	7	advance_on_keypress_SLASH	138	stimuli_distractor_trianglediamonds.svg	stimuli_target_trianglesquares.svg	26	yes	57	0	632
6.6.1	win	2022-12-22	14:54:37	15:00:36	357827	5ba840da26605b00013c8119	945086913	1	main_slash	7	main_slash	139	stimuli_target_trianglesquares.svg	stimuli_distractor_trianglediamonds.svg	18	yes	53	1	1124
6.6.1	win	2022-12-22	14:54:37	15:00:36	357827	5ba840da26605b00013c8119	945086913	1	main_slash	7	advance_on_keypress_SLASH	140	stimuli_target_trianglesquares.svg	stimuli_distractor_trianglediamonds.svg	18	yes	57	0	796
6.6.1	win	2022-12-22	14:54:37	15:00:38	360291	5ba840da26605b00013c8119	945086913	1	main_slash	7	main_slash	141	stimuli_target_squarediamonds.svg	stimuli_distractor_diamondtriangles.svg	8	yes	53	1	1023
6.6.1	win	2022-12-22	14:54:37	15:00:38	360291	5ba840da26605b00013c8119	945086913	1	main_slash	7	advance_on_keypress_SLASH	142	stimuli_target_squarediamonds.svg	stimuli_distractor_diamondtriangles.svg	8	yes	57	0	432
6.6.1	win	2022-12-22	14:54:37	15:00:41	362467	5ba840da26605b00013c8119	945086913	1	main_slash	7	main_slash	143	stimuli_target_squaretriangles.svg	stimuli_distractor_diamondtriangles.svg	7	yes	53	1	1102
6.6.1	win	2022-12-22	14:54:37	15:00:41	362467	5ba840da26605b00013c8119	945086913	1	main_slash	7	advance_on_keypress_SLASH	144	stimuli_target_squaretriangles.svg	stimuli_distractor_diamondtriangles.svg	7	yes	57	0	639
6.6.1	win	2022-12-22	14:54:37	15:00:43	364876	5ba840da26605b00013c8119	945086913	1	main_slash	7	main_slash	145	stimuli_distractor_trianglediamonds.svg	stimuli_target_trianglecircles.svg	25	yes	53	1	1130
6.6.1	win	2022-12-22	14:54:37	15:00:43	364876	5ba840da26605b00013c8119	945086913	1	main_slash	7	advance_on_keypress_SLASH	146	stimuli_distractor_trianglediamonds.svg	stimuli_target_trianglecircles.svg	25	yes	57	0	465
6.6.1	win	2022-12-22	14:54:37	15:00:45	366982	5ba840da26605b00013c8119	945086913	1	main_slash	7	main_slash	147	stimuli_target_trianglecircles.svg	stimuli_distractor_diamondtriangles.svg	21	yes	53	1	987
6.6.1	win	2022-12-22	14:54:37	15:00:45	366982	5ba840da26605b00013c8119	945086913	1	main_slash	7	advance_on_keypress_SLASH	148	stimuli_target_trianglecircles.svg	stimuli_distractor_diamondtriangles.svg	21	yes	57	0	503
6.6.1	win	2022-12-22	14:54:37	15:00:47	369156	5ba840da26605b00013c8119	945086913	1	main_slash	7	main_slash	149	stimuli_target_circlediamonds.svg	stimuli_distractor_trianglediamonds.svg	2	yes	53	1	1030
6.6.1	win	2022-12-22	14:54:37	15:00:47	369156	5ba840da26605b00013c8119	945086913	1	main_slash	7	advance_on_keypress_SLASH	150	stimuli_target_circlediamonds.svg	stimuli_distractor_trianglediamonds.svg	2	yes	57	0	805
6.6.1	win	2022-12-22	14:54:37	15:00:50	371606	5ba840da26605b00013c8119	945086913	1	main_slash	7	main_slash	151	stimuli_target_diamondsquares.svg	stimuli_distractor_trianglediamonds.svg	20	yes	53	1	998
6.6.1	win	2022-12-22	14:54:37	15:00:50	371606	5ba840da26605b00013c8119	945086913	1	main_slash	7	advance_on_keypress_SLASH	152	stimuli_target_diamondsquares.svg	stimuli_distractor_trianglediamonds.svg	20	yes	57	0	507
6.6.1	win	2022-12-22	14:54:37	15:00:52	373676	5ba840da26605b00013c8119	945086913	1	main_slash	7	main_slash	153	stimuli_distractor_diamondtriangles.svg	stimuli_target_trianglecircles.svg	29	yes	53	1	920
6.6.1	win	2022-12-22	14:54:37	15:00:52	373676	5ba840da26605b00013c8119	945086913	1	main_slash	7	advance_on_keypress_SLASH	154	stimuli_distractor_diamondtriangles.svg	stimuli_target_trianglecircles.svg	29	yes	57	0	597
6.6.1	win	2022-12-22	14:54:37	15:00:54	376232	5ba840da26605b00013c8119	945086913	1	main_slash	7	main_slash	155	stimuli_distractor_diamondtriangles.svg	stimuli_target_diamondcircles.svg	31	yes	53	1	1311
6.6.1	win	2022-12-22	14:54:37	15:00:54	376232	5ba840da26605b00013c8119	945086913	1	main_slash	7	advance_on_keypress_SLASH	156	stimuli_distractor_diamondtriangles.svg	stimuli_target_diamondcircles.svg	31	yes	57	0	476
6.6.1	win	2022-12-22	14:54:37	15:00:57	379351	5ba840da26605b00013c8119	945086913	1	main_slash	7	main_slash	157	stimuli_distractor_trianglediamonds.svg	stimuli_distractor_trianglediamonds.svg	33	no	0	1	2000
6.6.1	win	2022-12-22	14:54:37	15:00:57	379351	5ba840da26605b00013c8119	945086913	1	main_slash	7	advance_on_keypress_SLASH	158	stimuli_distractor_trianglediamonds.svg	stimuli_distractor_trianglediamonds.svg	33	no	57	0	318
6.6.1	win	2022-12-22	14:54:37	15:01:00	382315	5ba840da26605b00013c8119	945086913	1	main_slash	7	main_slash	159	stimuli_distractor_diamondtriangles.svg	stimuli_distractor_diamondtriangles.svg	39	no	0	1	2000
6.6.1	win	2022-12-22	14:54:37	15:01:00	382315	5ba840da26605b00013c8119	945086913	1	main_slash	7	advance_on_keypress_SLASH	160	stimuli_distractor_diamondtriangles.svg	stimuli_distractor_diamondtriangles.svg	39	no	57	0	316
6.6.1	win	2022-12-22	14:54:37	15:01:40	422070	5ba840da26605b00013c8119	945086913	1	practice_z	9	practice_z	1	stimuli_target_squarediamonds.svg	stimuli_distractor_trianglediamonds.svg	5	yes	44	1	987
6.6.1	win	2022-12-22	14:54:37	15:01:40	422070	5ba840da26605b00013c8119	945086913	1	practice_z	9	advance_on_keypress_ZEE	2	stimuli_target_squarediamonds.svg	stimuli_distractor_trianglediamonds.svg	5	yes	57	0	1161
6.6.1	win	2022-12-22	14:54:37	15:01:45	426879	5ba840da26605b00013c8119	945086913	1	practice_z	9	practice_z	3	stimuli_distractor_diamondtriangles.svg	stimuli_distractor_diamondtriangles.svg	13	no	0	1	2000
6.6.1	win	2022-12-22	14:54:37	15:01:45	426879	5ba840da26605b00013c8119	945086913	1	practice_z	9	advance_on_keypress_ZEE	4	stimuli_distractor_diamondtriangles.svg	stimuli_distractor_diamondtriangles.svg	13	no	57	0	303
6.6.1	win	2022-12-22	14:54:37	15:01:48	429863	5ba840da26605b00013c8119	945086913	1	practice_z	9	practice_z	5	stimuli_target_diamondsquares.svg	stimuli_distractor_diamondtriangles.svg	3	yes	44	1	1037
6.6.1	win	2022-12-22	14:54:37	15:01:48	429863	5ba840da26605b00013c8119	945086913	1	practice_z	9	advance_on_keypress_ZEE	6	stimuli_target_diamondsquares.svg	stimuli_distractor_diamondtriangles.svg	3	yes	57	0	286
6.6.1	win	2022-12-22	14:54:37	15:01:51	432803	5ba840da26605b00013c8119	945086913	1	practice_z	9	practice_z	7	stimuli_distractor_diamondtriangles.svg	stimuli_target_trianglecircles.svg	9	yes	44	1	1013
6.6.1	win	2022-12-22	14:54:37	15:01:51	432803	5ba840da26605b00013c8119	945086913	1	practice_z	9	advance_on_keypress_ZEE	8	stimuli_distractor_diamondtriangles.svg	stimuli_target_trianglecircles.svg	9	yes	57	0	351
6.6.1	win	2022-12-22	14:54:37	15:01:54	435759	5ba840da26605b00013c8119	945086913	1	practice_z	9	practice_z	9	stimuli_target_diamondsquares.svg	stimuli_distractor_trianglediamonds.svg	6	yes	44	1	955
6.6.1	win	2022-12-22	14:54:37	15:01:54	435759	5ba840da26605b00013c8119	945086913	1	practice_z	9	advance_on_keypress_ZEE	10	stimuli_target_diamondsquares.svg	stimuli_distractor_trianglediamonds.svg	6	yes	57	0	402
6.6.1	win	2022-12-22	14:54:37	15:01:57	438875	5ba840da26605b00013c8119	945086913	1	practice_z	9	practice_z	11	stimuli_distractor_trianglediamonds.svg	stimuli_target_squarediamonds.svg	11	yes	44	1	1073
6.6.1	win	2022-12-22	14:54:37	15:01:57	438875	5ba840da26605b00013c8119	945086913	1	practice_z	9	advance_on_keypress_ZEE	12	stimuli_distractor_trianglediamonds.svg	stimuli_target_squarediamonds.svg	11	yes	57	0	270
6.6.1	win	2022-12-22	14:54:37	15:02:00	441803	5ba840da26605b00013c8119	945086913	1	practice_z	9	practice_z	13	stimuli_target_squarediamonds.svg	stimuli_distractor_diamondtriangles.svg	2	yes	44	1	1020
6.6.1	win	2022-12-22	14:54:37	15:02:00	441803	5ba840da26605b00013c8119	945086913	1	practice_z	9	advance_on_keypress_ZEE	14	stimuli_target_squarediamonds.svg	stimuli_distractor_diamondtriangles.svg	2	yes	57	0	234
6.6.1	win	2022-12-22	14:54:37	15:02:03	444517	5ba840da26605b00013c8119	945086913	1	practice_z	9	practice_z	15	stimuli_distractor_trianglediamonds.svg	stimuli_target_circlediamonds.svg	10	yes	44	1	837
6.6.1	win	2022-12-22	14:54:37	15:02:03	444517	5ba840da26605b00013c8119	945086913	1	practice_z	9	advance_on_keypress_ZEE	16	stimuli_distractor_trianglediamonds.svg	stimuli_target_circlediamonds.svg	10	yes	57	0	385
6.6.1	win	2022-12-22	14:54:37	15:02:06	447596	5ba840da26605b00013c8119	945086913	1	practice_z	9	practice_z	17	stimuli_distractor_trianglediamonds.svg	stimuli_target_diamondcircles.svg	12	yes	44	1	1053
6.6.1	win	2022-12-22	14:54:37	15:02:06	447596	5ba840da26605b00013c8119	945086913	1	practice_z	9	advance_on_keypress_ZEE	18	stimuli_distractor_trianglediamonds.svg	stimuli_target_diamondcircles.svg	12	yes	57	0	442
6.6.1	win	2022-12-22	14:54:37	15:02:09	450648	5ba840da26605b00013c8119	945086913	1	practice_z	9	practice_z	19	stimuli_distractor_diamondtriangles.svg	stimuli_target_diamondcircles.svg	8	yes	44	1	974
6.6.1	win	2022-12-22	14:54:37	15:02:09	450648	5ba840da26605b00013c8119	945086913	1	practice_z	9	advance_on_keypress_ZEE	20	stimuli_distractor_diamondtriangles.svg	stimuli_target_diamondcircles.svg	8	yes	57	0	409
6.6.1	win	2022-12-22	14:54:37	15:02:13	454689	5ba840da26605b00013c8119	945086913	1	practice_z	9	practice_z	21	stimuli_distractor_diamondtriangles.svg	stimuli_distractor_trianglediamonds.svg	14	no	0	1	2000
6.6.1	win	2022-12-22	14:54:37	15:02:13	454689	5ba840da26605b00013c8119	945086913	1	practice_z	9	advance_on_keypress_ZEE	22	stimuli_distractor_diamondtriangles.svg	stimuli_distractor_trianglediamonds.svg	14	no	57	0	387
6.6.1	win	2022-12-22	14:54:37	15:02:16	457520	5ba840da26605b00013c8119	945086913	1	practice_z	9	practice_z	23	stimuli_target_circlediamonds.svg	stimuli_distractor_trianglediamonds.svg	4	yes	44	1	801
6.6.1	win	2022-12-22	14:54:37	15:02:16	457520	5ba840da26605b00013c8119	945086913	1	practice_z	9	advance_on_keypress_ZEE	24	stimuli_target_circlediamonds.svg	stimuli_distractor_trianglediamonds.svg	4	yes	57	0	360
6.6.1	win	2022-12-22	14:54:37	15:02:18	460312	5ba840da26605b00013c8119	945086913	1	practice_z	9	practice_z	25	stimuli_distractor_diamondtriangles.svg	stimuli_target_circletriangles.svg	7	yes	44	1	796
6.6.1	win	2022-12-22	14:54:37	15:02:18	460312	5ba840da26605b00013c8119	945086913	1	practice_z	9	advance_on_keypress_ZEE	26	stimuli_distractor_diamondtriangles.svg	stimuli_target_circletriangles.svg	7	yes	57	0	355
6.6.1	win	2022-12-22	14:54:37	15:02:22	464313	5ba840da26605b00013c8119	945086913	1	practice_z	9	practice_z	27	stimuli_distractor_trianglediamonds.svg	stimuli_distractor_diamondtriangles.svg	16	no	0	1	2000
6.6.1	win	2022-12-22	14:54:37	15:02:22	464313	5ba840da26605b00013c8119	945086913	1	practice_z	9	advance_on_keypress_ZEE	28	stimuli_distractor_trianglediamonds.svg	stimuli_distractor_diamondtriangles.svg	16	no	57	0	360
6.6.1	win	2022-12-22	14:54:37	15:02:25	467102	5ba840da26605b00013c8119	945086913	1	practice_z	9	practice_z	29	stimuli_target_circlediamonds.svg	stimuli_distractor_diamondtriangles.svg	1	yes	44	1	792
6.6.1	win	2022-12-22	14:54:37	15:02:25	467102	5ba840da26605b00013c8119	945086913	1	practice_z	9	advance_on_keypress_ZEE	30	stimuli_target_circlediamonds.svg	stimuli_distractor_diamondtriangles.svg	1	yes	57	0	375
6.6.1	win	2022-12-22	14:54:37	15:02:29	471124	5ba840da26605b00013c8119	945086913	1	practice_z	9	practice_z	31	stimuli_distractor_trianglediamonds.svg	stimuli_distractor_trianglediamonds.svg	15	no	0	1	2000
6.6.1	win	2022-12-22	14:54:37	15:02:29	471124	5ba840da26605b00013c8119	945086913	1	practice_z	9	advance_on_keypress_ZEE	32	stimuli_distractor_trianglediamonds.svg	stimuli_distractor_trianglediamonds.svg	15	no	57	0	380
6.6.1	win	2022-12-22	14:54:37	15:02:35	477102	5ba840da26605b00013c8119	945086913	1	main_z	11	main_z	1	stimuli_target_circletriangles.svg	stimuli_distractor_diamondtriangles.svg	5	yes	44	1	1036
6.6.1	win	2022-12-22	14:54:37	15:02:35	477102	5ba840da26605b00013c8119	945086913	1	main_z	11	advance_on_keypress_ZEE	2	stimuli_target_circletriangles.svg	stimuli_distractor_diamondtriangles.svg	5	yes	57	0	840
6.6.1	win	2022-12-22	14:54:37	15:02:38	479463	5ba840da26605b00013c8119	945086913	1	main_z	11	main_z	3	stimuli_distractor_diamondtriangles.svg	stimuli_target_circletriangles.svg	13	yes	44	1	883
6.6.1	win	2022-12-22	14:54:37	15:02:38	479463	5ba840da26605b00013c8119	945086913	1	main_z	11	advance_on_keypress_ZEE	4	stimuli_distractor_diamondtriangles.svg	stimuli_target_circletriangles.svg	13	yes	57	0	661
6.6.1	win	2022-12-22	14:54:37	15:02:40	481841	5ba840da26605b00013c8119	945086913	1	main_z	11	main_z	5	stimuli_target_diamondcircles.svg	stimuli_distractor_diamondtriangles.svg	23	yes	44	1	1080
6.6.1	win	2022-12-22	14:54:37	15:02:40	481841	5ba840da26605b00013c8119	945086913	1	main_z	11	advance_on_keypress_ZEE	6	stimuli_target_diamondcircles.svg	stimuli_distractor_diamondtriangles.svg	23	yes	57	0	663
6.6.1	win	2022-12-22	14:54:37	15:02:42	484049	5ba840da26605b00013c8119	945086913	1	main_z	11	main_z	7	stimuli_target_diamondsquares.svg	stimuli_distractor_trianglediamonds.svg	20	yes	44	1	890
6.6.1	win	2022-12-22	14:54:37	15:02:42	484049	5ba840da26605b00013c8119	945086913	1	main_z	11	advance_on_keypress_ZEE	8	stimuli_target_diamondsquares.svg	stimuli_distractor_trianglediamonds.svg	20	yes	57	0	568
6.6.1	win	2022-12-22	14:54:37	15:02:45	487257	5ba840da26605b00013c8119	945086913	1	main_z	11	main_z	9	stimuli_distractor_trianglediamonds.svg	stimuli_distractor_trianglediamonds.svg	34	no	0	1	2000
6.6.1	win	2022-12-22	14:54:37	15:02:45	487257	5ba840da26605b00013c8119	945086913	1	main_z	11	advance_on_keypress_ZEE	10	stimuli_distractor_trianglediamonds.svg	stimuli_distractor_trianglediamonds.svg	34	no	57	0	323
6.6.1	win	2022-12-22	14:54:37	15:02:47	489096	5ba840da26605b00013c8119	945086913	1	main_z	11	main_z	11	stimuli_target_diamondsquares.svg	stimuli_distractor_diamondtriangles.svg	24	yes	44	1	875
6.6.1	win	2022-12-22	14:54:37	15:02:47	489096	5ba840da26605b00013c8119	945086913	1	main_z	11	advance_on_keypress_ZEE	12	stimuli_target_diamondsquares.svg	stimuli_distractor_diamondtriangles.svg	24	yes	57	0	649
6.6.1	win	2022-12-22	14:54:37	15:02:49	491364	5ba840da26605b00013c8119	945086913	1	main_z	11	main_z	13	stimuli_distractor_trianglediamonds.svg	stimuli_target_squaretriangles.svg	11	yes	44	1	978
6.6.1	win	2022-12-22	14:54:37	15:02:49	491364	5ba840da26605b00013c8119	945086913	1	main_z	11	advance_on_keypress_ZEE	14	stimuli_distractor_trianglediamonds.svg	stimuli_target_squaretriangles.svg	11	yes	57	0	399
6.6.1	win	2022-12-22	14:54:37	15:02:51	493391	5ba840da26605b00013c8119	945086913	1	main_z	11	main_z	15	stimuli_target_trianglecircles.svg	stimuli_distractor_trianglediamonds.svg	17	yes	44	1	974
6.6.1	win	2022-12-22	14:54:37	15:02:51	493391	5ba840da26605b00013c8119	945086913	1	main_z	11	advance_on_keypress_ZEE	16	stimuli_target_trianglecircles.svg	stimuli_distractor_trianglediamonds.svg	17	yes	57	0	622
6.6.1	win	2022-12-22	14:54:37	15:02:54	495696	5ba840da26605b00013c8119	945086913	1	main_z	11	main_z	17	stimuli_target_circlediamonds.svg	stimuli_distractor_diamondtriangles.svg	6	yes	44	1	1047
6.6.1	win	2022-12-22	14:54:37	15:02:54	495696	5ba840da26605b00013c8119	945086913	1	main_z	11	advance_on_keypress_ZEE	18	stimuli_target_circlediamonds.svg	stimuli_distractor_diamondtriangles.svg	6	yes	57	0	463
6.6.1	win	2022-12-22	14:54:37	15:02:56	497684	5ba840da26605b00013c8119	945086913	1	main_z	11	main_z	19	stimuli_distractor_diamondtriangles.svg	stimuli_target_diamondsquares.svg	32	yes	44	1	870
6.6.1	win	2022-12-22	14:54:37	15:02:56	497684	5ba840da26605b00013c8119	945086913	1	main_z	11	advance_on_keypress_ZEE	20	stimuli_distractor_diamondtriangles.svg	stimuli_target_diamondsquares.svg	32	yes	57	0	461
6.6.1	win	2022-12-22	14:54:37	15:02:58	499771	5ba840da26605b00013c8119	945086913	1	main_z	11	main_z	21	stimuli_distractor_trianglediamonds.svg	stimuli_target_squarediamonds.svg	12	yes	44	1	992
6.6.1	win	2022-12-22	14:54:37	15:02:58	499771	5ba840da26605b00013c8119	945086913	1	main_z	11	advance_on_keypress_ZEE	22	stimuli_distractor_trianglediamonds.svg	stimuli_target_squarediamonds.svg	12	yes	57	0	593
6.6.1	win	2022-12-22	14:54:37	15:03:00	501924	5ba840da26605b00013c8119	945086913	1	main_z	11	main_z	23	stimuli_distractor_diamondtriangles.svg	stimuli_target_trianglecircles.svg	29	yes	44	1	931
6.6.1	win	2022-12-22	14:54:37	15:03:00	501924	5ba840da26605b00013c8119	945086913	1	main_z	11	advance_on_keypress_ZEE	24	stimuli_distractor_diamondtriangles.svg	stimuli_target_trianglecircles.svg	29	yes	57	0	536
6.6.1	win	2022-12-22	14:54:37	15:03:02	504305	5ba840da26605b00013c8119	945086913	1	main_z	11	main_z	25	stimuli_target_circlediamonds.svg	stimuli_distractor_trianglediamonds.svg	2	yes	44	1	1197
6.6.1	win	2022-12-22	14:54:37	15:03:02	504305	5ba840da26605b00013c8119	945086913	1	main_z	11	advance_on_keypress_ZEE	26	stimuli_target_circlediamonds.svg	stimuli_distractor_trianglediamonds.svg	2	yes	57	0	519
6.6.1	win	2022-12-22	14:54:37	15:03:05	506670	5ba840da26605b00013c8119	945086913	1	main_z	11	main_z	27	stimuli_distractor_diamondtriangles.svg	stimuli_target_squaretriangles.svg	15	yes	44	1	1198
6.6.1	win	2022-12-22	14:54:37	15:03:05	506670	5ba840da26605b00013c8119	945086913	1	main_z	11	advance_on_keypress_ZEE	28	stimuli_distractor_diamondtriangles.svg	stimuli_target_squaretriangles.svg	15	yes	57	0	728
6.6.1	win	2022-12-22	14:54:37	15:03:07	508993	5ba840da26605b00013c8119	945086913	1	main_z	11	main_z	29	stimuli_distractor_diamondtriangles.svg	stimuli_target_circlediamonds.svg	14	yes	44	1	955
6.6.1	win	2022-12-22	14:54:37	15:03:07	508993	5ba840da26605b00013c8119	945086913	1	main_z	11	advance_on_keypress_ZEE	30	stimuli_distractor_diamondtriangles.svg	stimuli_target_circlediamonds.svg	14	yes	57	0	755
6.6.1	win	2022-12-22	14:54:37	15:03:10	512386	5ba840da26605b00013c8119	945086913	1	main_z	11	main_z	31	stimuli_distractor_diamondtriangles.svg	stimuli_distractor_diamondtriangles.svg	40	no	0	1	2000
6.6.1	win	2022-12-22	14:54:37	15:03:10	512386	5ba840da26605b00013c8119	945086913	1	main_z	11	advance_on_keypress_ZEE	32	stimuli_distractor_diamondtriangles.svg	stimuli_distractor_diamondtriangles.svg	40	no	57	0	379
6.6.1	win	2022-12-22	14:54:37	15:03:12	514232	5ba840da26605b00013c8119	945086913	1	main_z	11	main_z	33	stimuli_distractor_trianglediamonds.svg	stimuli_target_diamondsquares.svg	28	yes	44	1	833
6.6.1	win	2022-12-22	14:54:37	15:03:12	514232	5ba840da26605b00013c8119	945086913	1	main_z	11	advance_on_keypress_ZEE	34	stimuli_distractor_trianglediamonds.svg	stimuli_target_diamondsquares.svg	28	yes	57	0	343
6.6.1	win	2022-12-22	14:54:37	15:03:15	516758	5ba840da26605b00013c8119	945086913	1	main_z	11	main_z	35	stimuli_distractor_trianglediamonds.svg	stimuli_distractor_diamondtriangles.svg	35	no	44	0	1544
6.6.1	win	2022-12-22	14:54:37	15:03:15	516758	5ba840da26605b00013c8119	945086913	1	main_z	11	advance_on_keypress_ZEE	36	stimuli_distractor_trianglediamonds.svg	stimuli_distractor_diamondtriangles.svg	35	no	57	0	431
6.6.1	win	2022-12-22	14:54:37	15:03:17	518750	5ba840da26605b00013c8119	945086913	1	main_z	11	main_z	37	stimuli_target_trianglesquares.svg	stimuli_distractor_trianglediamonds.svg	18	yes	44	1	904
6.6.1	win	2022-12-22	14:54:37	15:03:17	518750	5ba840da26605b00013c8119	945086913	1	main_z	11	advance_on_keypress_ZEE	38	stimuli_target_trianglesquares.svg	stimuli_distractor_trianglediamonds.svg	18	yes	57	0	467
6.6.1	win	2022-12-22	14:54:37	15:03:19	520836	5ba840da26605b00013c8119	945086913	1	main_z	11	main_z	39	stimuli_target_squarediamonds.svg	stimuli_distractor_trianglediamonds.svg	4	yes	44	1	975
6.6.1	win	2022-12-22	14:54:37	15:03:19	520836	5ba840da26605b00013c8119	945086913	1	main_z	11	advance_on_keypress_ZEE	40	stimuli_target_squarediamonds.svg	stimuli_distractor_trianglediamonds.svg	4	yes	57	0	765
6.6.1	win	2022-12-22	14:54:37	15:03:22	524242	5ba840da26605b00013c8119	945086913	1	main_z	11	main_z	41	stimuli_distractor_trianglediamonds.svg	stimuli_target_diamondcircles.svg	27	yes	0	0	2000
6.6.1	win	2022-12-22	14:54:37	15:03:22	524242	5ba840da26605b00013c8119	945086913	1	main_z	11	advance_on_keypress_ZEE	42	stimuli_distractor_trianglediamonds.svg	stimuli_target_diamondcircles.svg	27	yes	57	0	319
6.6.1	win	2022-12-22	14:54:37	15:03:24	526280	5ba840da26605b00013c8119	945086913	1	main_z	11	main_z	43	stimuli_target_circletriangles.svg	stimuli_distractor_trianglediamonds.svg	1	yes	44	1	1075
6.6.1	win	2022-12-22	14:54:37	15:03:24	526280	5ba840da26605b00013c8119	945086913	1	main_z	11	advance_on_keypress_ZEE	44	stimuli_target_circletriangles.svg	stimuli_distractor_trianglediamonds.svg	1	yes	57	0	470
6.6.1	win	2022-12-22	14:54:37	15:03:27	529387	5ba840da26605b00013c8119	945086913	1	main_z	11	main_z	45	stimuli_distractor_diamondtriangles.svg	stimuli_distractor_trianglediamonds.svg	37	no	0	1	2000
6.6.1	win	2022-12-22	14:54:37	15:03:27	529387	5ba840da26605b00013c8119	945086913	1	main_z	11	advance_on_keypress_ZEE	46	stimuli_distractor_diamondtriangles.svg	stimuli_distractor_trianglediamonds.svg	37	no	57	0	337
6.6.1	win	2022-12-22	14:54:37	15:03:29	531351	5ba840da26605b00013c8119	945086913	1	main_z	11	main_z	47	stimuli_distractor_diamondtriangles.svg	stimuli_target_squarediamonds.svg	16	yes	44	1	984
6.6.1	win	2022-12-22	14:54:37	15:03:29	531351	5ba840da26605b00013c8119	945086913	1	main_z	11	advance_on_keypress_ZEE	48	stimuli_distractor_diamondtriangles.svg	stimuli_target_squarediamonds.svg	16	yes	57	0	362
6.6.1	win	2022-12-22	14:54:37	15:03:32	533759	5ba840da26605b00013c8119	945086913	1	main_z	11	main_z	49	stimuli_target_squarediamonds.svg	stimuli_distractor_diamondtriangles.svg	8	yes	44	1	1410
6.6.1	win	2022-12-22	14:54:37	15:03:32	533759	5ba840da26605b00013c8119	945086913	1	main_z	11	advance_on_keypress_ZEE	50	stimuli_target_squarediamonds.svg	stimuli_distractor_diamondtriangles.svg	8	yes	57	0	685
6.6.1	win	2022-12-22	14:54:37	15:03:34	536242	5ba840da26605b00013c8119	945086913	1	main_z	11	main_z	51	stimuli_distractor_trianglediamonds.svg	stimuli_distractor_diamondtriangles.svg	36	no	44	0	1161
6.6.1	win	2022-12-22	14:54:37	15:03:34	536242	5ba840da26605b00013c8119	945086913	1	main_z	11	advance_on_keypress_ZEE	52	stimuli_distractor_trianglediamonds.svg	stimuli_distractor_diamondtriangles.svg	36	no	57	0	525
6.6.1	win	2022-12-22	14:54:37	15:03:36	538247	5ba840da26605b00013c8119	945086913	1	main_z	11	main_z	53	stimuli_target_diamondcircles.svg	stimuli_distractor_trianglediamonds.svg	19	yes	44	1	836
6.6.1	win	2022-12-22	14:54:37	15:03:36	538247	5ba840da26605b00013c8119	945086913	1	main_z	11	advance_on_keypress_ZEE	54	stimuli_target_diamondcircles.svg	stimuli_distractor_trianglediamonds.svg	19	yes	57	0	793
6.6.1	win	2022-12-22	14:54:37	15:03:39	540645	5ba840da26605b00013c8119	945086913	1	main_z	11	main_z	55	stimuli_distractor_diamondtriangles.svg	stimuli_target_diamondcircles.svg	31	yes	44	1	969
6.6.1	win	2022-12-22	14:54:37	15:03:39	540645	5ba840da26605b00013c8119	945086913	1	main_z	11	advance_on_keypress_ZEE	56	stimuli_distractor_diamondtriangles.svg	stimuli_target_diamondcircles.svg	31	yes	57	0	644
6.6.1	win	2022-12-22	14:54:37	15:03:42	543924	5ba840da26605b00013c8119	945086913	1	main_z	11	main_z	57	stimuli_distractor_trianglediamonds.svg	stimuli_distractor_trianglediamonds.svg	33	no	0	1	2000
6.6.1	win	2022-12-22	14:54:37	15:03:42	543924	5ba840da26605b00013c8119	945086913	1	main_z	11	advance_on_keypress_ZEE	58	stimuli_distractor_trianglediamonds.svg	stimuli_distractor_trianglediamonds.svg	33	no	57	0	233
6.6.1	win	2022-12-22	14:54:37	15:03:44	545767	5ba840da26605b00013c8119	945086913	1	main_z	11	main_z	59	stimuli_target_trianglesquares.svg	stimuli_distractor_diamondtriangles.svg	22	yes	44	1	962
6.6.1	win	2022-12-22	14:54:37	15:03:44	545767	5ba840da26605b00013c8119	945086913	1	main_z	11	advance_on_keypress_ZEE	60	stimuli_target_trianglesquares.svg	stimuli_distractor_diamondtriangles.svg	22	yes	57	0	515
6.6.1	win	2022-12-22	14:54:37	15:03:46	548032	5ba840da26605b00013c8119	945086913	1	main_z	11	main_z	61	stimuli_distractor_trianglediamonds.svg	stimuli_target_trianglesquares.svg	26	yes	44	1	1094
6.6.1	win	2022-12-22	14:54:37	15:03:46	548032	5ba840da26605b00013c8119	945086913	1	main_z	11	advance_on_keypress_ZEE	62	stimuli_distractor_trianglediamonds.svg	stimuli_target_trianglesquares.svg	26	yes	57	0	522
6.6.1	win	2022-12-22	14:54:37	15:03:49	551201	5ba840da26605b00013c8119	945086913	1	main_z	11	main_z	63	stimuli_distractor_diamondtriangles.svg	stimuli_distractor_diamondtriangles.svg	39	no	0	1	2000
6.6.1	win	2022-12-22	14:54:37	15:03:49	551201	5ba840da26605b00013c8119	945086913	1	main_z	11	advance_on_keypress_ZEE	64	stimuli_distractor_diamondtriangles.svg	stimuli_distractor_diamondtriangles.svg	39	no	57	0	287
6.6.1	win	2022-12-22	14:54:37	15:03:52	554132	5ba840da26605b00013c8119	945086913	1	main_z	11	main_z	65	stimuli_distractor_diamondtriangles.svg	stimuli_distractor_trianglediamonds.svg	38	no	0	1	2000
6.6.1	win	2022-12-22	14:54:37	15:03:52	554132	5ba840da26605b00013c8119	945086913	1	main_z	11	advance_on_keypress_ZEE	66	stimuli_distractor_diamondtriangles.svg	stimuli_distractor_trianglediamonds.svg	38	no	57	0	361
6.6.1	win	2022-12-22	14:54:37	15:03:54	556084	5ba840da26605b00013c8119	945086913	1	main_z	11	main_z	67	stimuli_distractor_trianglediamonds.svg	stimuli_target_circlediamonds.svg	10	yes	44	1	955
6.6.1	win	2022-12-22	14:54:37	15:03:54	556084	5ba840da26605b00013c8119	945086913	1	main_z	11	advance_on_keypress_ZEE	68	stimuli_distractor_trianglediamonds.svg	stimuli_target_circlediamonds.svg	10	yes	57	0	364
6.6.1	win	2022-12-22	14:54:37	15:03:56	557992	5ba840da26605b00013c8119	945086913	1	main_z	11	main_z	69	stimuli_distractor_trianglediamonds.svg	stimuli_target_circletriangles.svg	9	yes	44	1	898
6.6.1	win	2022-12-22	14:54:37	15:03:56	557992	5ba840da26605b00013c8119	945086913	1	main_z	11	advance_on_keypress_ZEE	70	stimuli_distractor_trianglediamonds.svg	stimuli_target_circletriangles.svg	9	yes	57	0	281
6.6.1	win	2022-12-22	14:54:37	15:03:58	559775	5ba840da26605b00013c8119	945086913	1	main_z	11	main_z	71	stimuli_distractor_trianglediamonds.svg	stimuli_target_trianglecircles.svg	25	yes	44	1	849
6.6.1	win	2022-12-22	14:54:37	15:03:58	559775	5ba840da26605b00013c8119	945086913	1	main_z	11	advance_on_keypress_ZEE	72	stimuli_distractor_trianglediamonds.svg	stimuli_target_trianglecircles.svg	25	yes	57	0	312
6.6.1	win	2022-12-22	14:54:37	15:04:00	561591	5ba840da26605b00013c8119	945086913	1	main_z	11	main_z	73	stimuli_distractor_diamondtriangles.svg	stimuli_target_trianglesquares.svg	30	yes	44	1	866
6.6.1	win	2022-12-22	14:54:37	15:04:00	561591	5ba840da26605b00013c8119	945086913	1	main_z	11	advance_on_keypress_ZEE	74	stimuli_distractor_diamondtriangles.svg	stimuli_target_trianglesquares.svg	30	yes	57	0	309
6.6.1	win	2022-12-22	14:54:37	15:04:02	563472	5ba840da26605b00013c8119	945086913	1	main_z	11	main_z	75	stimuli_target_squaretriangles.svg	stimuli_distractor_diamondtriangles.svg	7	yes	44	1	933
6.6.1	win	2022-12-22	14:54:37	15:04:02	563472	5ba840da26605b00013c8119	945086913	1	main_z	11	advance_on_keypress_ZEE	76	stimuli_target_squaretriangles.svg	stimuli_distractor_diamondtriangles.svg	7	yes	57	0	512
6.6.1	win	2022-12-22	14:54:37	15:04:04	565587	5ba840da26605b00013c8119	945086913	1	main_z	11	main_z	77	stimuli_target_squaretriangles.svg	stimuli_distractor_trianglediamonds.svg	3	yes	44	1	966
6.6.1	win	2022-12-22	14:54:37	15:04:04	565587	5ba840da26605b00013c8119	945086913	1	main_z	11	advance_on_keypress_ZEE	78	stimuli_target_squaretriangles.svg	stimuli_distractor_trianglediamonds.svg	3	yes	57	0	534
6.6.1	win	2022-12-22	14:54:37	15:04:06	567578	5ba840da26605b00013c8119	945086913	1	main_z	11	main_z	79	stimuli_target_trianglecircles.svg	stimuli_distractor_diamondtriangles.svg	21	yes	44	1	809
6.6.1	win	2022-12-22	14:54:37	15:04:06	567578	5ba840da26605b00013c8119	945086913	1	main_z	11	advance_on_keypress_ZEE	80	stimuli_target_trianglecircles.svg	stimuli_distractor_diamondtriangles.svg	21	yes	57	0	348
6.6.1	win	2022-12-22	14:54:37	15:04:08	569426	5ba840da26605b00013c8119	945086913	1	main_z	11	main_z	81	stimuli_distractor_trianglediamonds.svg	stimuli_target_circletriangles.svg	9	yes	44	1	858
6.6.1	win	2022-12-22	14:54:37	15:04:08	569426	5ba840da26605b00013c8119	945086913	1	main_z	11	advance_on_keypress_ZEE	82	stimuli_distractor_trianglediamonds.svg	stimuli_target_circletriangles.svg	9	yes	57	0	325
6.6.1	win	2022-12-22	14:54:37	15:04:09	571246	5ba840da26605b00013c8119	945086913	1	main_z	11	main_z	83	stimuli_distractor_trianglediamonds.svg	stimuli_target_squarediamonds.svg	12	yes	44	1	863
6.6.1	win	2022-12-22	14:54:37	15:04:09	571246	5ba840da26605b00013c8119	945086913	1	main_z	11	advance_on_keypress_ZEE	84	stimuli_distractor_trianglediamonds.svg	stimuli_target_squarediamonds.svg	12	yes	57	0	291
6.6.1	win	2022-12-22	14:54:37	15:04:11	573012	5ba840da26605b00013c8119	945086913	1	main_z	11	main_z	85	stimuli_distractor_trianglediamonds.svg	stimuli_target_diamondcircles.svg	27	yes	44	1	830
6.6.1	win	2022-12-22	14:54:37	15:04:11	573012	5ba840da26605b00013c8119	945086913	1	main_z	11	advance_on_keypress_ZEE	86	stimuli_distractor_trianglediamonds.svg	stimuli_target_diamondcircles.svg	27	yes	57	0	398
6.6.1	win	2022-12-22	14:54:37	15:04:14	576063	5ba840da26605b00013c8119	945086913	1	main_z	11	main_z	87	stimuli_distractor_trianglediamonds.svg	stimuli_distractor_diamondtriangles.svg	35	no	0	1	2000
6.6.1	win	2022-12-22	14:54:37	15:04:14	576063	5ba840da26605b00013c8119	945086913	1	main_z	11	advance_on_keypress_ZEE	88	stimuli_distractor_trianglediamonds.svg	stimuli_distractor_diamondtriangles.svg	35	no	57	0	283
6.6.1	win	2022-12-22	14:54:37	15:04:16	577768	5ba840da26605b00013c8119	945086913	1	main_z	11	main_z	89	stimuli_target_squaretriangles.svg	stimuli_distractor_trianglediamonds.svg	3	yes	44	1	773
6.6.1	win	2022-12-22	14:54:37	15:04:16	577768	5ba840da26605b00013c8119	945086913	1	main_z	11	advance_on_keypress_ZEE	90	stimuli_target_squaretriangles.svg	stimuli_distractor_trianglediamonds.svg	3	yes	57	0	313
6.6.1	win	2022-12-22	14:54:37	15:04:18	579649	5ba840da26605b00013c8119	945086913	1	main_z	11	main_z	91	stimuli_target_circlediamonds.svg	stimuli_distractor_diamondtriangles.svg	6	yes	44	1	923
6.6.1	win	2022-12-22	14:54:37	15:04:18	579649	5ba840da26605b00013c8119	945086913	1	main_z	11	advance_on_keypress_ZEE	92	stimuli_target_circlediamonds.svg	stimuli_distractor_diamondtriangles.svg	6	yes	57	0	440
6.6.1	win	2022-12-22	14:54:37	15:04:20	581581	5ba840da26605b00013c8119	945086913	1	main_z	11	main_z	93	stimuli_distractor_trianglediamonds.svg	stimuli_target_circlediamonds.svg	10	yes	44	1	857
6.6.1	win	2022-12-22	14:54:37	15:04:20	581581	5ba840da26605b00013c8119	945086913	1	main_z	11	advance_on_keypress_ZEE	94	stimuli_distractor_trianglediamonds.svg	stimuli_target_circlediamonds.svg	10	yes	57	0	608
6.6.1	win	2022-12-22	14:54:37	15:04:22	583750	5ba840da26605b00013c8119	945086913	1	main_z	11	main_z	95	stimuli_target_circlediamonds.svg	stimuli_distractor_trianglediamonds.svg	2	yes	44	1	928
6.6.1	win	2022-12-22	14:54:37	15:04:22	583750	5ba840da26605b00013c8119	945086913	1	main_z	11	advance_on_keypress_ZEE	96	stimuli_target_circlediamonds.svg	stimuli_distractor_trianglediamonds.svg	2	yes	57	0	541
6.6.1	win	2022-12-22	14:54:37	15:04:24	585983	5ba840da26605b00013c8119	945086913	1	main_z	11	main_z	97	stimuli_distractor_diamondtriangles.svg	stimuli_target_circletriangles.svg	13	yes	44	1	1046
6.6.1	win	2022-12-22	14:54:37	15:04:24	585983	5ba840da26605b00013c8119	945086913	1	main_z	11	advance_on_keypress_ZEE	98	stimuli_distractor_diamondtriangles.svg	stimuli_target_circletriangles.svg	13	yes	57	0	581
6.6.1	win	2022-12-22	14:54:37	15:04:27	589218	5ba840da26605b00013c8119	945086913	1	main_z	11	main_z	99	stimuli_distractor_diamondtriangles.svg	stimuli_distractor_trianglediamonds.svg	38	no	0	1	2000
6.6.1	win	2022-12-22	14:54:37	15:04:27	589218	5ba840da26605b00013c8119	945086913	1	main_z	11	advance_on_keypress_ZEE	100	stimuli_distractor_diamondtriangles.svg	stimuli_distractor_trianglediamonds.svg	38	no	57	0	2302
6.6.1	win	2022-12-22	14:54:37	15:04:31	593366	5ba840da26605b00013c8119	945086913	1	main_z	11	main_z	101	stimuli_target_diamondsquares.svg	stimuli_distractor_trianglediamonds.svg	20	yes	44	1	1201
6.6.1	win	2022-12-22	14:54:37	15:04:31	593366	5ba840da26605b00013c8119	945086913	1	main_z	11	advance_on_keypress_ZEE	102	stimuli_target_diamondsquares.svg	stimuli_distractor_trianglediamonds.svg	20	yes	57	0	456
6.6.1	win	2022-12-22	14:54:37	15:04:35	596462	5ba840da26605b00013c8119	945086913	1	main_z	11	main_z	103	stimuli_distractor_diamondtriangles.svg	stimuli_distractor_diamondtriangles.svg	39	no	0	1	2000
6.6.1	win	2022-12-22	14:54:37	15:04:35	596462	5ba840da26605b00013c8119	945086913	1	main_z	11	advance_on_keypress_ZEE	104	stimuli_distractor_diamondtriangles.svg	stimuli_distractor_diamondtriangles.svg	39	no	57	0	311
6.6.1	win	2022-12-22	14:54:37	15:04:36	598222	5ba840da26605b00013c8119	945086913	1	main_z	11	main_z	105	stimuli_target_squarediamonds.svg	stimuli_distractor_diamondtriangles.svg	8	yes	44	1	813
6.6.1	win	2022-12-22	14:54:37	15:04:36	598222	5ba840da26605b00013c8119	945086913	1	main_z	11	advance_on_keypress_ZEE	106	stimuli_target_squarediamonds.svg	stimuli_distractor_diamondtriangles.svg	8	yes	57	0	504
6.6.1	win	2022-12-22	14:54:37	15:04:39	600519	5ba840da26605b00013c8119	945086913	1	main_z	11	main_z	107	stimuli_distractor_diamondtriangles.svg	stimuli_distractor_trianglediamonds.svg	37	no	44	0	1145
6.6.1	win	2022-12-22	14:54:37	15:04:39	600519	5ba840da26605b00013c8119	945086913	1	main_z	11	advance_on_keypress_ZEE	108	stimuli_distractor_diamondtriangles.svg	stimuli_distractor_trianglediamonds.svg	37	no	57	0	403
6.6.1	win	2022-12-22	14:54:37	15:04:42	603573	5ba840da26605b00013c8119	945086913	1	main_z	11	main_z	109	stimuli_distractor_trianglediamonds.svg	stimuli_distractor_diamondtriangles.svg	36	no	0	1	2000
6.6.1	win	2022-12-22	14:54:37	15:04:42	603573	5ba840da26605b00013c8119	945086913	1	main_z	11	advance_on_keypress_ZEE	110	stimuli_distractor_trianglediamonds.svg	stimuli_distractor_diamondtriangles.svg	36	no	57	0	44
6.6.1	win	2022-12-22	14:54:37	15:04:43	605223	5ba840da26605b00013c8119	945086913	1	main_z	11	main_z	111	stimuli_distractor_diamondtriangles.svg	stimuli_target_diamondsquares.svg	32	yes	44	1	970
6.6.1	win	2022-12-22	14:54:37	15:04:43	605223	5ba840da26605b00013c8119	945086913	1	main_z	11	advance_on_keypress_ZEE	112	stimuli_distractor_diamondtriangles.svg	stimuli_target_diamondsquares.svg	32	yes	57	0	578
6.6.1	win	2022-12-22	14:54:37	15:04:46	607539	5ba840da26605b00013c8119	945086913	1	main_z	11	main_z	113	stimuli_target_circletriangles.svg	stimuli_distractor_diamondtriangles.svg	5	yes	44	1	1105
6.6.1	win	2022-12-22	14:54:37	15:04:46	607539	5ba840da26605b00013c8119	945086913	1	main_z	11	advance_on_keypress_ZEE	114	stimuli_target_circletriangles.svg	stimuli_distractor_diamondtriangles.svg	5	yes	57	0	769
6.6.1	win	2022-12-22	14:54:37	15:04:48	609931	5ba840da26605b00013c8119	945086913	1	main_z	11	main_z	115	stimuli_target_trianglesquares.svg	stimuli_distractor_trianglediamonds.svg	18	yes	44	1	982
6.6.1	win	2022-12-22	14:54:37	15:04:48	609931	5ba840da26605b00013c8119	945086913	1	main_z	11	advance_on_keypress_ZEE	116	stimuli_target_trianglesquares.svg	stimuli_distractor_trianglediamonds.svg	18	yes	57	0	438
6.6.1	win	2022-12-22	14:54:37	15:04:50	612015	5ba840da26605b00013c8119	945086913	1	main_z	11	main_z	117	stimuli_target_diamondcircles.svg	stimuli_distractor_trianglediamonds.svg	19	yes	44	1	1001
6.6.1	win	2022-12-22	14:54:37	15:04:50	612015	5ba840da26605b00013c8119	945086913	1	main_z	11	advance_on_keypress_ZEE	118	stimuli_target_diamondcircles.svg	stimuli_distractor_trianglediamonds.svg	19	yes	57	0	349
6.6.1	win	2022-12-22	14:54:37	15:04:52	614134	5ba840da26605b00013c8119	945086913	1	main_z	11	main_z	119	stimuli_distractor_trianglediamonds.svg	stimuli_target_trianglesquares.svg	26	yes	44	1	1122
6.6.1	win	2022-12-22	14:54:37	15:04:52	614134	5ba840da26605b00013c8119	945086913	1	main_z	11	advance_on_keypress_ZEE	120	stimuli_distractor_trianglediamonds.svg	stimuli_target_trianglesquares.svg	26	yes	57	0	590
6.6.1	win	2022-12-22	14:54:37	15:04:55	617360	5ba840da26605b00013c8119	945086913	1	main_z	11	main_z	121	stimuli_distractor_diamondtriangles.svg	stimuli_distractor_diamondtriangles.svg	40	no	0	1	2000
6.6.1	win	2022-12-22	14:54:37	15:04:55	617360	5ba840da26605b00013c8119	945086913	1	main_z	11	advance_on_keypress_ZEE	122	stimuli_distractor_diamondtriangles.svg	stimuli_distractor_diamondtriangles.svg	40	no	57	0	303
6.6.1	win	2022-12-22	14:54:37	15:04:57	619332	5ba840da26605b00013c8119	945086913	1	main_z	11	main_z	123	stimuli_target_trianglecircles.svg	stimuli_distractor_diamondtriangles.svg	21	yes	44	1	1024
6.6.1	win	2022-12-22	14:54:37	15:04:57	619332	5ba840da26605b00013c8119	945086913	1	main_z	11	advance_on_keypress_ZEE	124	stimuli_target_trianglecircles.svg	stimuli_distractor_diamondtriangles.svg	21	yes	57	0	429
6.6.1	win	2022-12-22	14:54:37	15:04:59	621376	5ba840da26605b00013c8119	945086913	1	main_z	11	main_z	125	stimuli_distractor_trianglediamonds.svg	stimuli_target_trianglecircles.svg	25	yes	44	1	987
6.6.1	win	2022-12-22	14:54:37	15:04:59	621376	5ba840da26605b00013c8119	945086913	1	main_z	11	advance_on_keypress_ZEE	126	stimuli_distractor_trianglediamonds.svg	stimuli_target_trianglecircles.svg	25	yes	57	0	562
6.6.1	win	2022-12-22	14:54:37	15:05:02	623765	5ba840da26605b00013c8119	945086913	1	main_z	11	main_z	127	stimuli_distractor_diamondtriangles.svg	stimuli_target_circlediamonds.svg	14	yes	44	1	1177
6.6.1	win	2022-12-22	14:54:37	15:05:02	623765	5ba840da26605b00013c8119	945086913	1	main_z	11	advance_on_keypress_ZEE	128	stimuli_distractor_diamondtriangles.svg	stimuli_target_circlediamonds.svg	14	yes	57	0	517
6.6.1	win	2022-12-22	14:54:37	15:05:04	625860	5ba840da26605b00013c8119	945086913	1	main_z	11	main_z	129	stimuli_target_diamondsquares.svg	stimuli_distractor_diamondtriangles.svg	24	yes	44	1	941
6.6.1	win	2022-12-22	14:54:37	15:05:04	625860	5ba840da26605b00013c8119	945086913	1	main_z	11	advance_on_keypress_ZEE	130	stimuli_target_diamondsquares.svg	stimuli_distractor_diamondtriangles.svg	24	yes	57	0	1732
6.6.1	win	2022-12-22	14:54:37	15:05:07	629050	5ba840da26605b00013c8119	945086913	1	main_z	11	main_z	131	stimuli_distractor_trianglediamonds.svg	stimuli_target_diamondsquares.svg	28	yes	44	1	818
6.6.1	win	2022-12-22	14:54:37	15:05:07	629050	5ba840da26605b00013c8119	945086913	1	main_z	11	advance_on_keypress_ZEE	132	stimuli_distractor_trianglediamonds.svg	stimuli_target_diamondsquares.svg	28	yes	57	0	981
6.6.1	win	2022-12-22	14:54:37	15:05:10	631410	5ba840da26605b00013c8119	945086913	1	main_z	11	main_z	133	stimuli_target_squarediamonds.svg	stimuli_distractor_trianglediamonds.svg	4	yes	44	1	730
6.6.1	win	2022-12-22	14:54:37	15:05:10	631410	5ba840da26605b00013c8119	945086913	1	main_z	11	advance_on_keypress_ZEE	134	stimuli_target_squarediamonds.svg	stimuli_distractor_trianglediamonds.svg	4	yes	57	0	1506
6.6.1	win	2022-12-22	14:54:37	15:05:13	634455	5ba840da26605b00013c8119	945086913	1	main_z	11	main_z	135	stimuli_distractor_diamondtriangles.svg	stimuli_target_squarediamonds.svg	16	yes	44	1	894
6.6.1	win	2022-12-22	14:54:37	15:05:13	634455	5ba840da26605b00013c8119	945086913	1	main_z	11	advance_on_keypress_ZEE	136	stimuli_distractor_diamondtriangles.svg	stimuli_target_squarediamonds.svg	16	yes	57	0	816
6.6.1	win	2022-12-22	14:54:37	15:05:16	637909	5ba840da26605b00013c8119	945086913	1	main_z	11	main_z	137	stimuli_distractor_trianglediamonds.svg	stimuli_distractor_trianglediamonds.svg	34	no	0	1	2000
6.6.1	win	2022-12-22	14:54:37	15:05:16	637909	5ba840da26605b00013c8119	945086913	1	main_z	11	advance_on_keypress_ZEE	138	stimuli_distractor_trianglediamonds.svg	stimuli_distractor_trianglediamonds.svg	34	no	57	0	344
6.6.1	win	2022-12-22	14:54:37	15:05:19	640890	5ba840da26605b00013c8119	945086913	1	main_z	11	main_z	139	stimuli_distractor_trianglediamonds.svg	stimuli_distractor_trianglediamonds.svg	33	no	0	1	2000
6.6.1	win	2022-12-22	14:54:37	15:05:19	640890	5ba840da26605b00013c8119	945086913	1	main_z	11	advance_on_keypress_ZEE	140	stimuli_distractor_trianglediamonds.svg	stimuli_distractor_trianglediamonds.svg	33	no	57	0	287
6.6.1	win	2022-12-22	14:54:37	15:05:21	642919	5ba840da26605b00013c8119	945086913	1	main_z	11	main_z	141	stimuli_target_trianglesquares.svg	stimuli_distractor_diamondtriangles.svg	22	yes	44	1	1098
6.6.1	win	2022-12-22	14:54:37	15:05:21	642919	5ba840da26605b00013c8119	945086913	1	main_z	11	advance_on_keypress_ZEE	142	stimuli_target_trianglesquares.svg	stimuli_distractor_diamondtriangles.svg	22	yes	57	0	597
6.6.1	win	2022-12-22	14:54:37	15:05:24	645786	5ba840da26605b00013c8119	945086913	1	main_z	11	main_z	143	stimuli_distractor_diamondtriangles.svg	stimuli_target_diamondcircles.svg	31	yes	44	1	1618
6.6.1	win	2022-12-22	14:54:37	15:05:24	645786	5ba840da26605b00013c8119	945086913	1	main_z	11	advance_on_keypress_ZEE	144	stimuli_distractor_diamondtriangles.svg	stimuli_target_diamondcircles.svg	31	yes	57	0	1008
6.6.1	win	2022-12-22	14:54:37	15:05:27	648411	5ba840da26605b00013c8119	945086913	1	main_z	11	main_z	145	stimuli_target_trianglecircles.svg	stimuli_distractor_trianglediamonds.svg	17	yes	44	1	978
6.6.1	win	2022-12-22	14:54:37	15:05:27	648411	5ba840da26605b00013c8119	945086913	1	main_z	11	advance_on_keypress_ZEE	146	stimuli_target_trianglecircles.svg	stimuli_distractor_trianglediamonds.svg	17	yes	57	0	543
6.6.1	win	2022-12-22	14:54:37	15:05:29	650423	5ba840da26605b00013c8119	945086913	1	main_z	11	main_z	147	stimuli_distractor_diamondtriangles.svg	stimuli_target_trianglesquares.svg	30	yes	44	1	825
6.6.1	win	2022-12-22	14:54:37	15:05:29	650423	5ba840da26605b00013c8119	945086913	1	main_z	11	advance_on_keypress_ZEE	148	stimuli_distractor_diamondtriangles.svg	stimuli_target_trianglesquares.svg	30	yes	57	0	517
6.6.1	win	2022-12-22	14:54:37	15:05:30	652392	5ba840da26605b00013c8119	945086913	1	main_z	11	main_z	149	stimuli_target_squaretriangles.svg	stimuli_distractor_diamondtriangles.svg	7	yes	44	1	814
6.6.1	win	2022-12-22	14:54:37	15:05:30	652392	5ba840da26605b00013c8119	945086913	1	main_z	11	advance_on_keypress_ZEE	150	stimuli_target_squaretriangles.svg	stimuli_distractor_diamondtriangles.svg	7	yes	57	0	534
6.6.1	win	2022-12-22	14:54:37	15:05:33	654422	5ba840da26605b00013c8119	945086913	1	main_z	11	main_z	151	stimuli_distractor_trianglediamonds.svg	stimuli_target_squaretriangles.svg	11	yes	44	1	845
6.6.1	win	2022-12-22	14:54:37	15:05:33	654422	5ba840da26605b00013c8119	945086913	1	main_z	11	advance_on_keypress_ZEE	152	stimuli_distractor_trianglediamonds.svg	stimuli_target_squaretriangles.svg	11	yes	57	0	549
6.6.1	win	2022-12-22	14:54:37	15:05:35	656449	5ba840da26605b00013c8119	945086913	1	main_z	11	main_z	153	stimuli_distractor_diamondtriangles.svg	stimuli_target_squaretriangles.svg	15	yes	44	1	824
6.6.1	win	2022-12-22	14:54:37	15:05:35	656449	5ba840da26605b00013c8119	945086913	1	main_z	11	advance_on_keypress_ZEE	154	stimuli_distractor_diamondtriangles.svg	stimuli_target_squaretriangles.svg	15	yes	57	0	487
6.6.1	win	2022-12-22	14:54:37	15:05:36	658322	5ba840da26605b00013c8119	945086913	1	main_z	11	main_z	155	stimuli_target_diamondcircles.svg	stimuli_distractor_diamondtriangles.svg	23	yes	44	1	748
6.6.1	win	2022-12-22	14:54:37	15:05:36	658322	5ba840da26605b00013c8119	945086913	1	main_z	11	advance_on_keypress_ZEE	156	stimuli_target_diamondcircles.svg	stimuli_distractor_diamondtriangles.svg	23	yes	57	0	407
6.6.1	win	2022-12-22	14:54:37	15:05:38	660154	5ba840da26605b00013c8119	945086913	1	main_z	11	main_z	157	stimuli_distractor_diamondtriangles.svg	stimuli_target_trianglecircles.svg	29	yes	44	1	782
6.6.1	win	2022-12-22	14:54:37	15:05:38	660154	5ba840da26605b00013c8119	945086913	1	main_z	11	advance_on_keypress_ZEE	158	stimuli_distractor_diamondtriangles.svg	stimuli_target_trianglecircles.svg	29	yes	57	0	991
6.6.1	win	2022-12-22	14:54:37	15:05:41	662497	5ba840da26605b00013c8119	945086913	1	main_z	11	main_z	159	stimuli_target_circletriangles.svg	stimuli_distractor_trianglediamonds.svg	1	yes	44	1	711
6.6.1	win	2022-12-22	14:54:37	15:05:41	662497	5ba840da26605b00013c8119	945086913	1	main_z	11	advance_on_keypress_ZEE	160	stimuli_target_circletriangles.svg	stimuli_distractor_trianglediamonds.svg	1	yes	57	0	562