build	computer.platform	date	time	timestamp	time_elapsed_ms	subject	group	session	blockcode	blocknum	trialcode	trialnum	stimulus_left	stimulus_right	stim_index	target_present	response	correct	latency
6.6.1	mac	2022-12-14	14:36:38	14:40:30	229232	616d0c1b16a0437469b6cd74	120610229	1	practice_slash	5	practice_slash	1	stimuli_target_squarediamonds.svg	stimuli_distractor_diamondtriangles.svg	2	yes	53	1	1015
6.6.1	mac	2022-12-14	14:36:38	14:40:30	229232	616d0c1b16a0437469b6cd74	120610229	1	practice_slash	5	advance_on_keypress_SLASH	2	stimuli_target_squarediamonds.svg	stimuli_distractor_diamondtriangles.svg	2	yes	57	0	1056
6.6.1	mac	2022-12-14	14:36:38	14:40:34	233600	616d0c1b16a0437469b6cd74	120610229	1	practice_slash	5	practice_slash	3	stimuli_distractor_trianglediamonds.svg	stimuli_distractor_trianglediamonds.svg	15	no	53	0	1647
6.6.1	mac	2022-12-14	14:36:38	14:40:34	233600	616d0c1b16a0437469b6cd74	120610229	1	practice_slash	5	advance_on_keypress_SLASH	4	stimuli_distractor_trianglediamonds.svg	stimuli_distractor_trianglediamonds.svg	15	no	57	0	1065
6.6.1	mac	2022-12-14	14:36:38	14:40:39	238290	616d0c1b16a0437469b6cd74	120610229	1	practice_slash	5	practice_slash	5	stimuli_distractor_diamondtriangles.svg	stimuli_distractor_trianglediamonds.svg	14	no	0	1	2000
6.6.1	mac	2022-12-14	14:36:38	14:40:39	238290	616d0c1b16a0437469b6cd74	120610229	1	practice_slash	5	advance_on_keypress_SLASH	6	stimuli_distractor_diamondtriangles.svg	stimuli_distractor_trianglediamonds.svg	14	no	57	0	864
6.6.1	mac	2022-12-14	14:36:38	14:40:43	242216	616d0c1b16a0437469b6cd74	120610229	1	practice_slash	5	practice_slash	7	stimuli_distractor_trianglediamonds.svg	stimuli_target_squarediamonds.svg	11	yes	53	1	1435
6.6.1	mac	2022-12-14	14:36:38	14:40:43	242216	616d0c1b16a0437469b6cd74	120610229	1	practice_slash	5	advance_on_keypress_SLASH	8	stimuli_distractor_trianglediamonds.svg	stimuli_target_squarediamonds.svg	11	yes	57	0	702
6.6.1	mac	2022-12-14	14:36:38	14:40:47	246304	616d0c1b16a0437469b6cd74	120610229	1	practice_slash	5	practice_slash	9	stimuli_distractor_trianglediamonds.svg	stimuli_distractor_diamondtriangles.svg	16	no	53	0	1752
6.6.1	mac	2022-12-14	14:36:38	14:40:47	246304	616d0c1b16a0437469b6cd74	120610229	1	practice_slash	5	advance_on_keypress_SLASH	10	stimuli_distractor_trianglediamonds.svg	stimuli_distractor_diamondtriangles.svg	16	no	57	0	663
6.6.1	mac	2022-12-14	14:36:38	14:40:51	250112	616d0c1b16a0437469b6cd74	120610229	1	practice_slash	5	practice_slash	11	stimuli_distractor_trianglediamonds.svg	stimuli_target_diamondcircles.svg	12	yes	53	1	1506
6.6.1	mac	2022-12-14	14:36:38	14:40:51	250112	616d0c1b16a0437469b6cd74	120610229	1	practice_slash	5	advance_on_keypress_SLASH	12	stimuli_distractor_trianglediamonds.svg	stimuli_target_diamondcircles.svg	12	yes	57	0	602
6.6.1	mac	2022-12-14	14:36:38	14:40:54	253408	616d0c1b16a0437469b6cd74	120610229	1	practice_slash	5	practice_slash	13	stimuli_target_circlediamonds.svg	stimuli_distractor_trianglediamonds.svg	4	yes	53	1	1065
6.6.1	mac	2022-12-14	14:36:38	14:40:54	253408	616d0c1b16a0437469b6cd74	120610229	1	practice_slash	5	advance_on_keypress_SLASH	14	stimuli_target_circlediamonds.svg	stimuli_distractor_trianglediamonds.svg	4	yes	57	0	563
6.6.1	mac	2022-12-14	14:36:38	14:40:57	256888	616d0c1b16a0437469b6cd74	120610229	1	practice_slash	5	practice_slash	15	stimuli_distractor_diamondtriangles.svg	stimuli_target_diamondcircles.svg	8	yes	53	1	1275
6.6.1	mac	2022-12-14	14:36:38	14:40:57	256888	616d0c1b16a0437469b6cd74	120610229	1	practice_slash	5	advance_on_keypress_SLASH	16	stimuli_distractor_diamondtriangles.svg	stimuli_target_diamondcircles.svg	8	yes	57	0	451
6.6.1	mac	2022-12-14	14:36:38	14:41:00	259984	616d0c1b16a0437469b6cd74	120610229	1	practice_slash	5	practice_slash	17	stimuli_target_squarediamonds.svg	stimuli_distractor_trianglediamonds.svg	5	yes	53	1	1016
6.6.1	mac	2022-12-14	14:36:38	14:41:00	259984	616d0c1b16a0437469b6cd74	120610229	1	practice_slash	5	advance_on_keypress_SLASH	18	stimuli_target_squarediamonds.svg	stimuli_distractor_trianglediamonds.svg	5	yes	57	0	572
6.6.1	mac	2022-12-14	14:36:38	14:41:05	264185	616d0c1b16a0437469b6cd74	120610229	1	practice_slash	5	practice_slash	19	stimuli_target_diamondsquares.svg	stimuli_distractor_trianglediamonds.svg	6	yes	0	0	2000
6.6.1	mac	2022-12-14	14:36:38	14:41:05	264185	616d0c1b16a0437469b6cd74	120610229	1	practice_slash	5	advance_on_keypress_SLASH	20	stimuli_target_diamondsquares.svg	stimuli_distractor_trianglediamonds.svg	6	yes	57	0	560
6.6.1	mac	2022-12-14	14:36:38	14:41:09	268390	616d0c1b16a0437469b6cd74	120610229	1	practice_slash	5	practice_slash	21	stimuli_distractor_diamondtriangles.svg	stimuli_distractor_diamondtriangles.svg	13	no	0	1	2000
6.6.1	mac	2022-12-14	14:36:38	14:41:09	268390	616d0c1b16a0437469b6cd74	120610229	1	practice_slash	5	advance_on_keypress_SLASH	22	stimuli_distractor_diamondtriangles.svg	stimuli_distractor_diamondtriangles.svg	13	no	57	0	451
6.6.1	mac	2022-12-14	14:36:38	14:41:12	271336	616d0c1b16a0437469b6cd74	120610229	1	practice_slash	5	practice_slash	23	stimuli_target_circlediamonds.svg	stimuli_distractor_diamondtriangles.svg	1	yes	53	1	856
6.6.1	mac	2022-12-14	14:36:38	14:41:12	271336	616d0c1b16a0437469b6cd74	120610229	1	practice_slash	5	advance_on_keypress_SLASH	24	stimuli_target_circlediamonds.svg	stimuli_distractor_diamondtriangles.svg	1	yes	57	0	531
6.6.1	mac	2022-12-14	14:36:38	14:41:15	274512	616d0c1b16a0437469b6cd74	120610229	1	practice_slash	5	practice_slash	25	stimuli_distractor_diamondtriangles.svg	stimuli_target_trianglecircles.svg	9	yes	53	1	1012
6.6.1	mac	2022-12-14	14:36:38	14:41:15	274512	616d0c1b16a0437469b6cd74	120610229	1	practice_slash	5	advance_on_keypress_SLASH	26	stimuli_distractor_diamondtriangles.svg	stimuli_target_trianglecircles.svg	9	yes	57	0	409
6.6.1	mac	2022-12-14	14:36:38	14:41:18	277841	616d0c1b16a0437469b6cd74	120610229	1	practice_slash	5	practice_slash	27	stimuli_target_diamondsquares.svg	stimuli_distractor_diamondtriangles.svg	3	yes	53	1	1304
6.6.1	mac	2022-12-14	14:36:38	14:41:18	277841	616d0c1b16a0437469b6cd74	120610229	1	practice_slash	5	advance_on_keypress_SLASH	28	stimuli_target_diamondsquares.svg	stimuli_distractor_diamondtriangles.svg	3	yes	57	0	439
6.6.1	mac	2022-12-14	14:36:38	14:41:21	280904	616d0c1b16a0437469b6cd74	120610229	1	practice_slash	5	practice_slash	29	stimuli_distractor_trianglediamonds.svg	stimuli_target_circlediamonds.svg	10	yes	53	1	997
6.6.1	mac	2022-12-14	14:36:38	14:41:21	280904	616d0c1b16a0437469b6cd74	120610229	1	practice_slash	5	advance_on_keypress_SLASH	30	stimuli_distractor_trianglediamonds.svg	stimuli_target_circlediamonds.svg	10	yes	57	0	482
6.6.1	mac	2022-12-14	14:36:38	14:41:24	284016	616d0c1b16a0437469b6cd74	120610229	1	practice_slash	5	practice_slash	31	stimuli_distractor_diamondtriangles.svg	stimuli_target_circletriangles.svg	7	yes	53	1	989
6.6.1	mac	2022-12-14	14:36:38	14:41:24	284016	616d0c1b16a0437469b6cd74	120610229	1	practice_slash	5	advance_on_keypress_SLASH	32	stimuli_distractor_diamondtriangles.svg	stimuli_target_circletriangles.svg	7	yes	57	0	482
6.6.1	mac	2022-12-14	14:36:38	14:41:30	289048	616d0c1b16a0437469b6cd74	120610229	1	main_slash	7	main_slash	1	stimuli_distractor_trianglediamonds.svg	stimuli_target_diamondcircles.svg	27	yes	53	1	1114
6.6.1	mac	2022-12-14	14:36:38	14:41:30	289048	616d0c1b16a0437469b6cd74	120610229	1	main_slash	7	advance_on_keypress_SLASH	2	stimuli_distractor_trianglediamonds.svg	stimuli_target_diamondcircles.svg	27	yes	57	0	763
6.6.1	mac	2022-12-14	14:36:38	14:41:32	291376	616d0c1b16a0437469b6cd74	120610229	1	main_slash	7	main_slash	3	stimuli_distractor_diamondtriangles.svg	stimuli_target_circletriangles.svg	13	yes	53	1	923
6.6.1	mac	2022-12-14	14:36:38	14:41:32	291376	616d0c1b16a0437469b6cd74	120610229	1	main_slash	7	advance_on_keypress_SLASH	4	stimuli_distractor_diamondtriangles.svg	stimuli_target_circletriangles.svg	13	yes	57	0	604
6.6.1	mac	2022-12-14	14:36:38	14:41:34	293632	616d0c1b16a0437469b6cd74	120610229	1	main_slash	7	main_slash	5	stimuli_distractor_diamondtriangles.svg	stimuli_target_diamondsquares.svg	32	yes	53	1	1026
6.6.1	mac	2022-12-14	14:36:38	14:41:34	293632	616d0c1b16a0437469b6cd74	120610229	1	main_slash	7	advance_on_keypress_SLASH	6	stimuli_distractor_diamondtriangles.svg	stimuli_target_diamondsquares.svg	32	yes	57	0	464
6.6.1	mac	2022-12-14	14:36:38	14:41:37	296722	616d0c1b16a0437469b6cd74	120610229	1	main_slash	7	main_slash	7	stimuli_distractor_diamondtriangles.svg	stimuli_target_squaretriangles.svg	15	yes	0	0	2000
6.6.1	mac	2022-12-14	14:36:38	14:41:37	296722	616d0c1b16a0437469b6cd74	120610229	1	main_slash	7	advance_on_keypress_SLASH	8	stimuli_distractor_diamondtriangles.svg	stimuli_target_squaretriangles.svg	15	yes	57	0	488
6.6.1	mac	2022-12-14	14:36:38	14:41:39	298784	616d0c1b16a0437469b6cd74	120610229	1	main_slash	7	main_slash	9	stimuli_distractor_diamondtriangles.svg	stimuli_target_trianglesquares.svg	30	yes	53	1	939
6.6.1	mac	2022-12-14	14:36:38	14:41:39	298784	616d0c1b16a0437469b6cd74	120610229	1	main_slash	7	advance_on_keypress_SLASH	10	stimuli_distractor_diamondtriangles.svg	stimuli_target_trianglesquares.svg	30	yes	57	0	700
6.6.1	mac	2022-12-14	14:36:38	14:41:43	302111	616d0c1b16a0437469b6cd74	120610229	1	main_slash	7	main_slash	11	stimuli_distractor_diamondtriangles.svg	stimuli_distractor_diamondtriangles.svg	40	no	0	1	2000
6.6.1	mac	2022-12-14	14:36:38	14:41:43	302111	616d0c1b16a0437469b6cd74	120610229	1	main_slash	7	advance_on_keypress_SLASH	12	stimuli_distractor_diamondtriangles.svg	stimuli_distractor_diamondtriangles.svg	40	no	57	0	339
6.6.1	mac	2022-12-14	14:36:38	14:41:45	304080	616d0c1b16a0437469b6cd74	120610229	1	main_slash	7	main_slash	13	stimuli_target_trianglesquares.svg	stimuli_distractor_diamondtriangles.svg	22	yes	53	1	1013
6.6.1	mac	2022-12-14	14:36:38	14:41:45	304080	616d0c1b16a0437469b6cd74	120610229	1	main_slash	7	advance_on_keypress_SLASH	14	stimuli_target_trianglesquares.svg	stimuli_distractor_diamondtriangles.svg	22	yes	57	0	1251
6.6.1	mac	2022-12-14	14:36:38	14:41:48	307104	616d0c1b16a0437469b6cd74	120610229	1	main_slash	7	main_slash	15	stimuli_target_squaretriangles.svg	stimuli_distractor_trianglediamonds.svg	3	yes	53	1	1151
6.6.1	mac	2022-12-14	14:36:38	14:41:48	307104	616d0c1b16a0437469b6cd74	120610229	1	main_slash	7	advance_on_keypress_SLASH	16	stimuli_target_squaretriangles.svg	stimuli_distractor_trianglediamonds.svg	3	yes	57	0	998
6.6.1	mac	2022-12-14	14:36:38	14:41:50	309880	616d0c1b16a0437469b6cd74	120610229	1	main_slash	7	main_slash	17	stimuli_target_diamondcircles.svg	stimuli_distractor_diamondtriangles.svg	23	yes	53	1	1140
6.6.1	mac	2022-12-14	14:36:38	14:41:50	309880	616d0c1b16a0437469b6cd74	120610229	1	main_slash	7	advance_on_keypress_SLASH	18	stimuli_target_diamondcircles.svg	stimuli_distractor_diamondtriangles.svg	23	yes	57	0	995
6.6.1	mac	2022-12-14	14:36:38	14:41:53	312520	616d0c1b16a0437469b6cd74	120610229	1	main_slash	7	main_slash	19	stimuli_target_circlediamonds.svg	stimuli_distractor_diamondtriangles.svg	6	yes	53	1	1027
6.6.1	mac	2022-12-14	14:36:38	14:41:53	312520	616d0c1b16a0437469b6cd74	120610229	1	main_slash	7	advance_on_keypress_SLASH	20	stimuli_target_circlediamonds.svg	stimuli_distractor_diamondtriangles.svg	6	yes	57	0	784
6.6.1	mac	2022-12-14	14:36:38	14:41:55	314960	616d0c1b16a0437469b6cd74	120610229	1	main_slash	7	main_slash	21	stimuli_distractor_trianglediamonds.svg	stimuli_target_squarediamonds.svg	12	yes	53	1	1032
6.6.1	mac	2022-12-14	14:36:38	14:41:55	314960	616d0c1b16a0437469b6cd74	120610229	1	main_slash	7	advance_on_keypress_SLASH	22	stimuli_distractor_trianglediamonds.svg	stimuli_target_squarediamonds.svg	12	yes	57	0	723
6.6.1	mac	2022-12-14	14:36:38	14:41:58	317400	616d0c1b16a0437469b6cd74	120610229	1	main_slash	7	main_slash	23	stimuli_target_trianglesquares.svg	stimuli_distractor_trianglediamonds.svg	18	yes	53	1	1085
6.6.1	mac	2022-12-14	14:36:38	14:41:58	317400	616d0c1b16a0437469b6cd74	120610229	1	main_slash	7	advance_on_keypress_SLASH	24	stimuli_target_trianglesquares.svg	stimuli_distractor_trianglediamonds.svg	18	yes	57	0	831
6.6.1	mac	2022-12-14	14:36:38	14:42:01	320696	616d0c1b16a0437469b6cd74	120610229	1	main_slash	7	main_slash	25	stimuli_distractor_diamondtriangles.svg	stimuli_target_diamondcircles.svg	31	yes	53	1	1828
6.6.1	mac	2022-12-14	14:36:38	14:42:01	320696	616d0c1b16a0437469b6cd74	120610229	1	main_slash	7	advance_on_keypress_SLASH	26	stimuli_distractor_diamondtriangles.svg	stimuli_target_diamondcircles.svg	31	yes	57	0	1024
6.6.1	mac	2022-12-14	14:36:38	14:42:04	323980	616d0c1b16a0437469b6cd74	120610229	1	main_slash	7	main_slash	27	stimuli_distractor_trianglediamonds.svg	stimuli_target_circlediamonds.svg	10	yes	53	1	1637
6.6.1	mac	2022-12-14	14:36:38	14:42:04	323980	616d0c1b16a0437469b6cd74	120610229	1	main_slash	7	advance_on_keypress_SLASH	28	stimuli_distractor_trianglediamonds.svg	stimuli_target_circlediamonds.svg	10	yes	57	0	841
6.6.1	mac	2022-12-14	14:36:38	14:42:07	326568	616d0c1b16a0437469b6cd74	120610229	1	main_slash	7	main_slash	29	stimuli_distractor_trianglediamonds.svg	stimuli_target_squaretriangles.svg	11	yes	53	1	1126
6.6.1	mac	2022-12-14	14:36:38	14:42:07	326568	616d0c1b16a0437469b6cd74	120610229	1	main_slash	7	advance_on_keypress_SLASH	30	stimuli_distractor_trianglediamonds.svg	stimuli_target_squaretriangles.svg	11	yes	57	0	663
6.6.1	mac	2022-12-14	14:36:38	14:42:09	328992	616d0c1b16a0437469b6cd74	120610229	1	main_slash	7	main_slash	31	stimuli_distractor_trianglediamonds.svg	stimuli_target_diamondsquares.svg	28	yes	53	1	1131
6.6.1	mac	2022-12-14	14:36:38	14:42:09	328992	616d0c1b16a0437469b6cd74	120610229	1	main_slash	7	advance_on_keypress_SLASH	32	stimuli_distractor_trianglediamonds.svg	stimuli_target_diamondsquares.svg	28	yes	57	0	451
6.6.1	mac	2022-12-14	14:36:38	14:42:12	331344	616d0c1b16a0437469b6cd74	120610229	1	main_slash	7	main_slash	33	stimuli_target_squaretriangles.svg	stimuli_distractor_diamondtriangles.svg	7	yes	53	1	1264
6.6.1	mac	2022-12-14	14:36:38	14:42:12	331344	616d0c1b16a0437469b6cd74	120610229	1	main_slash	7	advance_on_keypress_SLASH	34	stimuli_target_squaretriangles.svg	stimuli_distractor_diamondtriangles.svg	7	yes	57	0	291
6.6.1	mac	2022-12-14	14:36:38	14:42:14	333384	616d0c1b16a0437469b6cd74	120610229	1	main_slash	7	main_slash	35	stimuli_target_diamondcircles.svg	stimuli_distractor_trianglediamonds.svg	19	yes	53	1	1118
6.6.1	mac	2022-12-14	14:36:38	14:42:14	333384	616d0c1b16a0437469b6cd74	120610229	1	main_slash	7	advance_on_keypress_SLASH	36	stimuli_target_diamondcircles.svg	stimuli_distractor_trianglediamonds.svg	19	yes	57	0	335
6.6.1	mac	2022-12-14	14:36:38	14:42:17	336349	616d0c1b16a0437469b6cd74	120610229	1	main_slash	7	main_slash	37	stimuli_distractor_trianglediamonds.svg	stimuli_distractor_trianglediamonds.svg	34	no	0	1	2000
6.6.1	mac	2022-12-14	14:36:38	14:42:17	336349	616d0c1b16a0437469b6cd74	120610229	1	main_slash	7	advance_on_keypress_SLASH	38	stimuli_distractor_trianglediamonds.svg	stimuli_distractor_trianglediamonds.svg	34	no	57	0	437
6.6.1	mac	2022-12-14	14:36:38	14:42:19	338504	616d0c1b16a0437469b6cd74	120610229	1	main_slash	7	main_slash	39	stimuli_distractor_diamondtriangles.svg	stimuli_target_circlediamonds.svg	14	yes	53	1	1083
6.6.1	mac	2022-12-14	14:36:38	14:42:19	338504	616d0c1b16a0437469b6cd74	120610229	1	main_slash	7	advance_on_keypress_SLASH	40	stimuli_distractor_diamondtriangles.svg	stimuli_target_circlediamonds.svg	14	yes	57	0	564
6.6.1	mac	2022-12-14	14:36:38	14:42:21	340776	616d0c1b16a0437469b6cd74	120610229	1	main_slash	7	main_slash	41	stimuli_distractor_trianglediamonds.svg	stimuli_target_trianglesquares.svg	26	yes	53	1	1069
6.6.1	mac	2022-12-14	14:36:38	14:42:21	340776	616d0c1b16a0437469b6cd74	120610229	1	main_slash	7	advance_on_keypress_SLASH	42	stimuli_distractor_trianglediamonds.svg	stimuli_target_trianglesquares.svg	26	yes	57	0	271
6.6.1	mac	2022-12-14	14:36:38	14:42:23	342776	616d0c1b16a0437469b6cd74	120610229	1	main_slash	7	main_slash	43	stimuli_target_trianglecircles.svg	stimuli_distractor_diamondtriangles.svg	21	yes	53	1	1100
6.6.1	mac	2022-12-14	14:36:38	14:42:23	342776	616d0c1b16a0437469b6cd74	120610229	1	main_slash	7	advance_on_keypress_SLASH	44	stimuli_target_trianglecircles.svg	stimuli_distractor_diamondtriangles.svg	21	yes	57	0	157
6.6.1	mac	2022-12-14	14:36:38	14:42:25	344768	616d0c1b16a0437469b6cd74	120610229	1	main_slash	7	main_slash	45	stimuli_distractor_diamondtriangles.svg	stimuli_target_squarediamonds.svg	16	yes	53	1	1207
6.6.1	mac	2022-12-14	14:36:38	14:42:25	344768	616d0c1b16a0437469b6cd74	120610229	1	main_slash	7	advance_on_keypress_SLASH	46	stimuli_distractor_diamondtriangles.svg	stimuli_target_squarediamonds.svg	16	yes	57	0	203
6.6.1	mac	2022-12-14	14:36:38	14:42:27	346696	616d0c1b16a0437469b6cd74	120610229	1	main_slash	7	main_slash	47	stimuli_target_squarediamonds.svg	stimuli_distractor_trianglediamonds.svg	4	yes	53	1	1099
6.6.1	mac	2022-12-14	14:36:38	14:42:27	346696	616d0c1b16a0437469b6cd74	120610229	1	main_slash	7	advance_on_keypress_SLASH	48	stimuli_target_squarediamonds.svg	stimuli_distractor_trianglediamonds.svg	4	yes	57	0	132
6.6.1	mac	2022-12-14	14:36:38	14:42:29	348552	616d0c1b16a0437469b6cd74	120610229	1	main_slash	7	main_slash	49	stimuli_target_diamondsquares.svg	stimuli_distractor_trianglediamonds.svg	20	yes	53	1	1086
6.6.1	mac	2022-12-14	14:36:38	14:42:29	348552	616d0c1b16a0437469b6cd74	120610229	1	main_slash	7	advance_on_keypress_SLASH	50	stimuli_target_diamondsquares.svg	stimuli_distractor_trianglediamonds.svg	20	yes	57	0	200
6.6.1	mac	2022-12-14	14:36:38	14:42:32	351382	616d0c1b16a0437469b6cd74	120610229	1	main_slash	7	main_slash	51	stimuli_distractor_trianglediamonds.svg	stimuli_distractor_diamondtriangles.svg	35	no	0	1	2000
6.6.1	mac	2022-12-14	14:36:38	14:42:32	351382	616d0c1b16a0437469b6cd74	120610229	1	main_slash	7	advance_on_keypress_SLASH	52	stimuli_distractor_trianglediamonds.svg	stimuli_distractor_diamondtriangles.svg	35	no	57	0	396
6.6.1	mac	2022-12-14	14:36:38	14:42:35	354402	616d0c1b16a0437469b6cd74	120610229	1	main_slash	7	main_slash	53	stimuli_distractor_trianglediamonds.svg	stimuli_distractor_trianglediamonds.svg	33	no	0	1	2000
6.6.1	mac	2022-12-14	14:36:38	14:42:35	354402	616d0c1b16a0437469b6cd74	120610229	1	main_slash	7	advance_on_keypress_SLASH	54	stimuli_distractor_trianglediamonds.svg	stimuli_distractor_trianglediamonds.svg	33	no	57	0	272
6.6.1	mac	2022-12-14	14:36:38	14:42:38	357289	616d0c1b16a0437469b6cd74	120610229	1	main_slash	7	main_slash	55	stimuli_distractor_trianglediamonds.svg	stimuli_distractor_diamondtriangles.svg	36	no	0	1	2000
6.6.1	mac	2022-12-14	14:36:38	14:42:38	357289	616d0c1b16a0437469b6cd74	120610229	1	main_slash	7	advance_on_keypress_SLASH	56	stimuli_distractor_trianglediamonds.svg	stimuli_distractor_diamondtriangles.svg	36	no	57	0	96
6.6.1	mac	2022-12-14	14:36:38	14:42:39	358960	616d0c1b16a0437469b6cd74	120610229	1	main_slash	7	main_slash	57	stimuli_target_circletriangles.svg	stimuli_distractor_trianglediamonds.svg	1	yes	53	1	932
6.6.1	mac	2022-12-14	14:36:38	14:42:39	358960	616d0c1b16a0437469b6cd74	120610229	1	main_slash	7	advance_on_keypress_SLASH	58	stimuli_target_circletriangles.svg	stimuli_distractor_trianglediamonds.svg	1	yes	57	0	228
6.6.1	mac	2022-12-14	14:36:38	14:42:41	360872	616d0c1b16a0437469b6cd74	120610229	1	main_slash	7	main_slash	59	stimuli_target_circlediamonds.svg	stimuli_distractor_trianglediamonds.svg	2	yes	53	1	1059
6.6.1	mac	2022-12-14	14:36:38	14:42:41	360872	616d0c1b16a0437469b6cd74	120610229	1	main_slash	7	advance_on_keypress_SLASH	60	stimuli_target_circlediamonds.svg	stimuli_distractor_trianglediamonds.svg	2	yes	57	0	255
6.6.1	mac	2022-12-14	14:36:38	14:42:44	363746	616d0c1b16a0437469b6cd74	120610229	1	main_slash	7	main_slash	61	stimuli_distractor_diamondtriangles.svg	stimuli_distractor_diamondtriangles.svg	39	no	0	1	2000
6.6.1	mac	2022-12-14	14:36:38	14:42:44	363746	616d0c1b16a0437469b6cd74	120610229	1	main_slash	7	advance_on_keypress_SLASH	62	stimuli_distractor_diamondtriangles.svg	stimuli_distractor_diamondtriangles.svg	39	no	57	0	432
6.6.1	mac	2022-12-14	14:36:38	14:42:47	366816	616d0c1b16a0437469b6cd74	120610229	1	main_slash	7	main_slash	63	stimuli_distractor_diamondtriangles.svg	stimuli_distractor_trianglediamonds.svg	38	no	0	1	2000
6.6.1	mac	2022-12-14	14:36:38	14:42:47	366816	616d0c1b16a0437469b6cd74	120610229	1	main_slash	7	advance_on_keypress_SLASH	64	stimuli_distractor_diamondtriangles.svg	stimuli_distractor_trianglediamonds.svg	38	no	57	0	314
6.6.1	mac	2022-12-14	14:36:38	14:42:49	368615	616d0c1b16a0437469b6cd74	120610229	1	main_slash	7	main_slash	65	stimuli_target_squarediamonds.svg	stimuli_distractor_diamondtriangles.svg	8	yes	53	1	845
6.6.1	mac	2022-12-14	14:36:38	14:42:49	368615	616d0c1b16a0437469b6cd74	120610229	1	main_slash	7	advance_on_keypress_SLASH	66	stimuli_target_squarediamonds.svg	stimuli_distractor_diamondtriangles.svg	8	yes	57	0	447
6.6.1	mac	2022-12-14	14:36:38	14:42:51	370672	616d0c1b16a0437469b6cd74	120610229	1	main_slash	7	main_slash	67	stimuli_distractor_trianglediamonds.svg	stimuli_target_trianglecircles.svg	25	yes	53	1	981
6.6.1	mac	2022-12-14	14:36:38	14:42:51	370672	616d0c1b16a0437469b6cd74	120610229	1	main_slash	7	advance_on_keypress_SLASH	68	stimuli_distractor_trianglediamonds.svg	stimuli_target_trianglecircles.svg	25	yes	57	0	380
6.6.1	mac	2022-12-14	14:36:38	14:42:54	373689	616d0c1b16a0437469b6cd74	120610229	1	main_slash	7	main_slash	69	stimuli_distractor_diamondtriangles.svg	stimuli_distractor_trianglediamonds.svg	37	no	0	1	2000
6.6.1	mac	2022-12-14	14:36:38	14:42:54	373689	616d0c1b16a0437469b6cd74	120610229	1	main_slash	7	advance_on_keypress_SLASH	70	stimuli_distractor_diamondtriangles.svg	stimuli_distractor_trianglediamonds.svg	37	no	57	0	280
6.6.1	mac	2022-12-14	14:36:38	14:42:56	375480	616d0c1b16a0437469b6cd74	120610229	1	main_slash	7	main_slash	71	stimuli_target_trianglecircles.svg	stimuli_distractor_trianglediamonds.svg	17	yes	53	1	868
6.6.1	mac	2022-12-14	14:36:38	14:42:56	375480	616d0c1b16a0437469b6cd74	120610229	1	main_slash	7	advance_on_keypress_SLASH	72	stimuli_target_trianglecircles.svg	stimuli_distractor_trianglediamonds.svg	17	yes	57	0	327
6.6.1	mac	2022-12-14	14:36:38	14:42:58	377336	616d0c1b16a0437469b6cd74	120610229	1	main_slash	7	main_slash	73	stimuli_distractor_diamondtriangles.svg	stimuli_target_trianglecircles.svg	29	yes	53	1	904
6.6.1	mac	2022-12-14	14:36:38	14:42:58	377336	616d0c1b16a0437469b6cd74	120610229	1	main_slash	7	advance_on_keypress_SLASH	74	stimuli_distractor_diamondtriangles.svg	stimuli_target_trianglecircles.svg	29	yes	57	0	243
6.6.1	mac	2022-12-14	14:36:38	14:43:00	379224	616d0c1b16a0437469b6cd74	120610229	1	main_slash	7	main_slash	75	stimuli_target_diamondsquares.svg	stimuli_distractor_diamondtriangles.svg	24	yes	53	1	1024
6.6.1	mac	2022-12-14	14:36:38	14:43:00	379224	616d0c1b16a0437469b6cd74	120610229	1	main_slash	7	advance_on_keypress_SLASH	76	stimuli_target_diamondsquares.svg	stimuli_distractor_diamondtriangles.svg	24	yes	57	0	162
6.6.1	mac	2022-12-14	14:36:38	14:43:02	381112	616d0c1b16a0437469b6cd74	120610229	1	main_slash	7	main_slash	77	stimuli_distractor_trianglediamonds.svg	stimuli_target_circletriangles.svg	9	yes	53	1	1043
6.6.1	mac	2022-12-14	14:36:38	14:43:02	381112	616d0c1b16a0437469b6cd74	120610229	1	main_slash	7	advance_on_keypress_SLASH	78	stimuli_distractor_trianglediamonds.svg	stimuli_target_circletriangles.svg	9	yes	57	0	303
6.6.1	mac	2022-12-14	14:36:38	14:43:04	383216	616d0c1b16a0437469b6cd74	120610229	1	main_slash	7	main_slash	79	stimuli_target_circletriangles.svg	stimuli_distractor_diamondtriangles.svg	5	yes	53	1	1162
6.6.1	mac	2022-12-14	14:36:38	14:43:04	383216	616d0c1b16a0437469b6cd74	120610229	1	main_slash	7	advance_on_keypress_SLASH	80	stimuli_target_circletriangles.svg	stimuli_distractor_diamondtriangles.svg	5	yes	57	0	281
6.6.1	mac	2022-12-14	14:36:38	14:43:06	385192	616d0c1b16a0437469b6cd74	120610229	1	main_slash	7	main_slash	81	stimuli_distractor_diamondtriangles.svg	stimuli_target_circlediamonds.svg	14	yes	53	1	1069
6.6.1	mac	2022-12-14	14:36:38	14:43:06	385192	616d0c1b16a0437469b6cd74	120610229	1	main_slash	7	advance_on_keypress_SLASH	82	stimuli_distractor_diamondtriangles.svg	stimuli_target_circlediamonds.svg	14	yes	57	0	247
6.6.1	mac	2022-12-14	14:36:38	14:43:08	387120	616d0c1b16a0437469b6cd74	120610229	1	main_slash	7	main_slash	83	stimuli_target_circlediamonds.svg	stimuli_distractor_trianglediamonds.svg	2	yes	53	1	1044
6.6.1	mac	2022-12-14	14:36:38	14:43:08	387120	616d0c1b16a0437469b6cd74	120610229	1	main_slash	7	advance_on_keypress_SLASH	84	stimuli_target_circlediamonds.svg	stimuli_distractor_trianglediamonds.svg	2	yes	57	0	225
6.6.1	mac	2022-12-14	14:36:38	14:43:09	388984	616d0c1b16a0437469b6cd74	120610229	1	main_slash	7	main_slash	85	stimuli_distractor_diamondtriangles.svg	stimuli_target_diamondsquares.svg	32	yes	53	1	1024
6.6.1	mac	2022-12-14	14:36:38	14:43:09	388984	616d0c1b16a0437469b6cd74	120610229	1	main_slash	7	advance_on_keypress_SLASH	86	stimuli_distractor_diamondtriangles.svg	stimuli_target_diamondsquares.svg	32	yes	57	0	284
6.6.1	mac	2022-12-14	14:36:38	14:43:11	390935	616d0c1b16a0437469b6cd74	120610229	1	main_slash	7	main_slash	87	stimuli_target_circlediamonds.svg	stimuli_distractor_diamondtriangles.svg	6	yes	53	1	1039
6.6.1	mac	2022-12-14	14:36:38	14:43:11	390935	616d0c1b16a0437469b6cd74	120610229	1	main_slash	7	advance_on_keypress_SLASH	88	stimuli_target_circlediamonds.svg	stimuli_distractor_diamondtriangles.svg	6	yes	57	0	284
6.6.1	mac	2022-12-14	14:36:38	14:43:13	392887	616d0c1b16a0437469b6cd74	120610229	1	main_slash	7	main_slash	89	stimuli_distractor_trianglediamonds.svg	stimuli_target_circletriangles.svg	9	yes	53	1	1040
6.6.1	mac	2022-12-14	14:36:38	14:43:13	392887	616d0c1b16a0437469b6cd74	120610229	1	main_slash	7	advance_on_keypress_SLASH	90	stimuli_distractor_trianglediamonds.svg	stimuli_target_circletriangles.svg	9	yes	57	0	341
6.6.1	mac	2022-12-14	14:36:38	14:43:15	394864	616d0c1b16a0437469b6cd74	120610229	1	main_slash	7	main_slash	91	stimuli_target_trianglesquares.svg	stimuli_distractor_diamondtriangles.svg	22	yes	53	1	1014
6.6.1	mac	2022-12-14	14:36:38	14:43:15	394864	616d0c1b16a0437469b6cd74	120610229	1	main_slash	7	advance_on_keypress_SLASH	92	stimuli_target_trianglesquares.svg	stimuli_distractor_diamondtriangles.svg	22	yes	57	0	258
6.6.1	mac	2022-12-14	14:36:38	14:43:17	396800	616d0c1b16a0437469b6cd74	120610229	1	main_slash	7	main_slash	93	stimuli_distractor_trianglediamonds.svg	stimuli_target_trianglecircles.svg	25	yes	53	1	1048
6.6.1	mac	2022-12-14	14:36:38	14:43:17	396800	616d0c1b16a0437469b6cd74	120610229	1	main_slash	7	advance_on_keypress_SLASH	94	stimuli_distractor_trianglediamonds.svg	stimuli_target_trianglecircles.svg	25	yes	57	0	339
6.6.1	mac	2022-12-14	14:36:38	14:43:19	398872	616d0c1b16a0437469b6cd74	120610229	1	main_slash	7	main_slash	95	stimuli_distractor_diamondtriangles.svg	stimuli_target_squaretriangles.svg	15	yes	53	1	1101
6.6.1	mac	2022-12-14	14:36:38	14:43:19	398872	616d0c1b16a0437469b6cd74	120610229	1	main_slash	7	advance_on_keypress_SLASH	96	stimuli_distractor_diamondtriangles.svg	stimuli_target_squaretriangles.svg	15	yes	57	0	326
6.6.1	mac	2022-12-14	14:36:38	14:43:21	400832	616d0c1b16a0437469b6cd74	120610229	1	main_slash	7	main_slash	97	stimuli_target_trianglesquares.svg	stimuli_distractor_trianglediamonds.svg	18	yes	53	1	1008
6.6.1	mac	2022-12-14	14:36:38	14:43:21	400832	616d0c1b16a0437469b6cd74	120610229	1	main_slash	7	advance_on_keypress_SLASH	98	stimuli_target_trianglesquares.svg	stimuli_distractor_trianglediamonds.svg	18	yes	57	0	262
6.6.1	mac	2022-12-14	14:36:38	14:43:24	403707	616d0c1b16a0437469b6cd74	120610229	1	main_slash	7	main_slash	99	stimuli_distractor_diamondtriangles.svg	stimuli_distractor_diamondtriangles.svg	39	no	0	1	2000
6.6.1	mac	2022-12-14	14:36:38	14:43:24	403707	616d0c1b16a0437469b6cd74	120610229	1	main_slash	7	advance_on_keypress_SLASH	100	stimuli_distractor_diamondtriangles.svg	stimuli_distractor_diamondtriangles.svg	39	no	57	0	671
6.6.1	mac	2022-12-14	14:36:38	14:43:26	405712	616d0c1b16a0437469b6cd74	120610229	1	main_slash	7	main_slash	101	stimuli_distractor_diamondtriangles.svg	stimuli_target_trianglecircles.svg	29	yes	53	1	699
6.6.1	mac	2022-12-14	14:36:38	14:43:26	405712	616d0c1b16a0437469b6cd74	120610229	1	main_slash	7	advance_on_keypress_SLASH	102	stimuli_distractor_diamondtriangles.svg	stimuli_target_trianglecircles.svg	29	yes	57	0	333
6.6.1	mac	2022-12-14	14:36:38	14:43:28	407752	616d0c1b16a0437469b6cd74	120610229	1	main_slash	7	main_slash	103	stimuli_target_squaretriangles.svg	stimuli_distractor_trianglediamonds.svg	3	yes	53	1	1071
6.6.1	mac	2022-12-14	14:36:38	14:43:28	407752	616d0c1b16a0437469b6cd74	120610229	1	main_slash	7	advance_on_keypress_SLASH	104	stimuli_target_squaretriangles.svg	stimuli_distractor_trianglediamonds.svg	3	yes	57	0	409
6.6.1	mac	2022-12-14	14:36:38	14:43:30	409848	616d0c1b16a0437469b6cd74	120610229	1	main_slash	7	main_slash	105	stimuli_target_trianglecircles.svg	stimuli_distractor_diamondtriangles.svg	21	yes	53	1	1064
6.6.1	mac	2022-12-14	14:36:38	14:43:30	409848	616d0c1b16a0437469b6cd74	120610229	1	main_slash	7	advance_on_keypress_SLASH	106	stimuli_target_trianglecircles.svg	stimuli_distractor_diamondtriangles.svg	21	yes	57	0	363
6.6.1	mac	2022-12-14	14:36:38	14:43:32	411920	616d0c1b16a0437469b6cd74	120610229	1	main_slash	7	main_slash	107	stimuli_distractor_trianglediamonds.svg	stimuli_target_squaretriangles.svg	11	yes	53	1	1068
6.6.1	mac	2022-12-14	14:36:38	14:43:32	411920	616d0c1b16a0437469b6cd74	120610229	1	main_slash	7	advance_on_keypress_SLASH	108	stimuli_distractor_trianglediamonds.svg	stimuli_target_squaretriangles.svg	11	yes	57	0	430
6.6.1	mac	2022-12-14	14:36:38	14:43:34	413832	616d0c1b16a0437469b6cd74	120610229	1	main_slash	7	main_slash	109	stimuli_target_diamondcircles.svg	stimuli_distractor_diamondtriangles.svg	23	yes	53	1	843
6.6.1	mac	2022-12-14	14:36:38	14:43:34	413832	616d0c1b16a0437469b6cd74	120610229	1	main_slash	7	advance_on_keypress_SLASH	110	stimuli_target_diamondcircles.svg	stimuli_distractor_diamondtriangles.svg	23	yes	57	0	672
6.6.1	mac	2022-12-14	14:36:38	14:43:37	416160	616d0c1b16a0437469b6cd74	120610229	1	main_slash	7	main_slash	111	stimuli_target_squaretriangles.svg	stimuli_distractor_diamondtriangles.svg	7	yes	53	1	1036
6.6.1	mac	2022-12-14	14:36:38	14:43:37	416160	616d0c1b16a0437469b6cd74	120610229	1	main_slash	7	advance_on_keypress_SLASH	112	stimuli_target_squaretriangles.svg	stimuli_distractor_diamondtriangles.svg	7	yes	57	0	288
6.6.1	mac	2022-12-14	14:36:38	14:43:40	419074	616d0c1b16a0437469b6cd74	120610229	1	main_slash	7	main_slash	113	stimuli_distractor_diamondtriangles.svg	stimuli_distractor_diamondtriangles.svg	40	no	0	1	2000
6.6.1	mac	2022-12-14	14:36:38	14:43:40	419074	616d0c1b16a0437469b6cd74	120610229	1	main_slash	7	advance_on_keypress_SLASH	114	stimuli_distractor_diamondtriangles.svg	stimuli_distractor_diamondtriangles.svg	40	no	57	0	953
6.6.1	mac	2022-12-14	14:36:38	14:43:42	421696	616d0c1b16a0437469b6cd74	120610229	1	main_slash	7	main_slash	115	stimuli_target_diamondsquares.svg	stimuli_distractor_trianglediamonds.svg	20	yes	53	1	1049
6.6.1	mac	2022-12-14	14:36:38	14:43:42	421696	616d0c1b16a0437469b6cd74	120610229	1	main_slash	7	advance_on_keypress_SLASH	116	stimuli_target_diamondsquares.svg	stimuli_distractor_trianglediamonds.svg	20	yes	57	0	333
6.6.1	mac	2022-12-14	14:36:38	14:43:44	423752	616d0c1b16a0437469b6cd74	120610229	1	main_slash	7	main_slash	117	stimuli_target_circletriangles.svg	stimuli_distractor_trianglediamonds.svg	1	yes	53	1	1086
6.6.1	mac	2022-12-14	14:36:38	14:43:44	423752	616d0c1b16a0437469b6cd74	120610229	1	main_slash	7	advance_on_keypress_SLASH	118	stimuli_target_circletriangles.svg	stimuli_distractor_trianglediamonds.svg	1	yes	57	0	248
6.6.1	mac	2022-12-14	14:36:38	14:43:46	425776	616d0c1b16a0437469b6cd74	120610229	1	main_slash	7	main_slash	119	stimuli_target_trianglecircles.svg	stimuli_distractor_trianglediamonds.svg	17	yes	53	1	1141
6.6.1	mac	2022-12-14	14:36:38	14:43:46	425776	616d0c1b16a0437469b6cd74	120610229	1	main_slash	7	advance_on_keypress_SLASH	120	stimuli_target_trianglecircles.svg	stimuli_distractor_trianglediamonds.svg	17	yes	57	0	229
6.6.1	mac	2022-12-14	14:36:38	14:43:48	427824	616d0c1b16a0437469b6cd74	120610229	1	main_slash	7	main_slash	121	stimuli_distractor_trianglediamonds.svg	stimuli_target_trianglesquares.svg	26	yes	53	1	1187
6.6.1	mac	2022-12-14	14:36:38	14:43:48	427824	616d0c1b16a0437469b6cd74	120610229	1	main_slash	7	advance_on_keypress_SLASH	122	stimuli_distractor_trianglediamonds.svg	stimuli_target_trianglesquares.svg	26	yes	57	0	169
6.6.1	mac	2022-12-14	14:36:38	14:43:51	430619	616d0c1b16a0437469b6cd74	120610229	1	main_slash	7	main_slash	123	stimuli_distractor_trianglediamonds.svg	stimuli_target_diamondsquares.svg	28	yes	0	0	2000
6.6.1	mac	2022-12-14	14:36:38	14:43:51	430619	616d0c1b16a0437469b6cd74	120610229	1	main_slash	7	advance_on_keypress_SLASH	124	stimuli_distractor_trianglediamonds.svg	stimuli_target_diamondsquares.svg	28	yes	57	0	630
6.6.1	mac	2022-12-14	14:36:38	14:43:53	432784	616d0c1b16a0437469b6cd74	120610229	1	main_slash	7	main_slash	125	stimuli_distractor_diamondtriangles.svg	stimuli_target_diamondcircles.svg	31	yes	53	1	892
6.6.1	mac	2022-12-14	14:36:38	14:43:53	432784	616d0c1b16a0437469b6cd74	120610229	1	main_slash	7	advance_on_keypress_SLASH	126	stimuli_distractor_diamondtriangles.svg	stimuli_target_diamondcircles.svg	31	yes	57	0	157
6.6.1	mac	2022-12-14	14:36:38	14:43:55	434464	616d0c1b16a0437469b6cd74	120610229	1	main_slash	7	main_slash	127	stimuli_target_diamondcircles.svg	stimuli_distractor_trianglediamonds.svg	19	yes	53	1	903
6.6.1	mac	2022-12-14	14:36:38	14:43:55	434464	616d0c1b16a0437469b6cd74	120610229	1	main_slash	7	advance_on_keypress_SLASH	128	stimuli_target_diamondcircles.svg	stimuli_distractor_trianglediamonds.svg	19	yes	57	0	184
6.6.1	mac	2022-12-14	14:36:38	14:43:57	436144	616d0c1b16a0437469b6cd74	120610229	1	main_slash	7	main_slash	129	stimuli_distractor_trianglediamonds.svg	stimuli_target_diamondcircles.svg	27	yes	53	1	864
6.6.1	mac	2022-12-14	14:36:38	14:43:57	436144	616d0c1b16a0437469b6cd74	120610229	1	main_slash	7	advance_on_keypress_SLASH	130	stimuli_distractor_trianglediamonds.svg	stimuli_target_diamondcircles.svg	27	yes	57	0	211
6.6.1	mac	2022-12-14	14:36:38	14:43:59	438995	616d0c1b16a0437469b6cd74	120610229	1	main_slash	7	main_slash	131	stimuli_distractor_diamondtriangles.svg	stimuli_target_trianglesquares.svg	30	yes	0	0	2000
6.6.1	mac	2022-12-14	14:36:38	14:43:59	438995	616d0c1b16a0437469b6cd74	120610229	1	main_slash	7	advance_on_keypress_SLASH	132	stimuli_distractor_diamondtriangles.svg	stimuli_target_trianglesquares.svg	30	yes	57	0	726
6.6.1	mac	2022-12-14	14:36:38	14:44:03	442348	616d0c1b16a0437469b6cd74	120610229	1	main_slash	7	main_slash	133	stimuli_distractor_diamondtriangles.svg	stimuli_distractor_trianglediamonds.svg	38	no	0	1	2000
6.6.1	mac	2022-12-14	14:36:38	14:44:03	442348	616d0c1b16a0437469b6cd74	120610229	1	main_slash	7	advance_on_keypress_SLASH	134	stimuli_distractor_diamondtriangles.svg	stimuli_distractor_trianglediamonds.svg	38	no	57	0	950
6.6.1	mac	2022-12-14	14:36:38	14:44:05	444864	616d0c1b16a0437469b6cd74	120610229	1	main_slash	7	main_slash	135	stimuli_target_squarediamonds.svg	stimuli_distractor_diamondtriangles.svg	8	yes	53	1	941
6.6.1	mac	2022-12-14	14:36:38	14:44:05	444864	616d0c1b16a0437469b6cd74	120610229	1	main_slash	7	advance_on_keypress_SLASH	136	stimuli_target_squarediamonds.svg	stimuli_distractor_diamondtriangles.svg	8	yes	57	0	238
6.6.1	mac	2022-12-14	14:36:38	14:44:08	447722	616d0c1b16a0437469b6cd74	120610229	1	main_slash	7	main_slash	137	stimuli_distractor_trianglediamonds.svg	stimuli_distractor_diamondtriangles.svg	35	no	0	1	2000
6.6.1	mac	2022-12-14	14:36:38	14:44:08	447722	616d0c1b16a0437469b6cd74	120610229	1	main_slash	7	advance_on_keypress_SLASH	138	stimuli_distractor_trianglediamonds.svg	stimuli_distractor_diamondtriangles.svg	35	no	57	0	480
6.6.1	mac	2022-12-14	14:36:38	14:44:11	450826	616d0c1b16a0437469b6cd74	120610229	1	main_slash	7	main_slash	139	stimuli_distractor_diamondtriangles.svg	stimuli_distractor_trianglediamonds.svg	37	no	0	1	2000
6.6.1	mac	2022-12-14	14:36:38	14:44:11	450826	616d0c1b16a0437469b6cd74	120610229	1	main_slash	7	advance_on_keypress_SLASH	140	stimuli_distractor_diamondtriangles.svg	stimuli_distractor_trianglediamonds.svg	37	no	57	0	641
6.6.1	mac	2022-12-14	14:36:38	14:44:13	452992	616d0c1b16a0437469b6cd74	120610229	1	main_slash	7	main_slash	141	stimuli_target_circletriangles.svg	stimuli_distractor_diamondtriangles.svg	5	yes	53	1	894
6.6.1	mac	2022-12-14	14:36:38	14:44:13	452992	616d0c1b16a0437469b6cd74	120610229	1	main_slash	7	advance_on_keypress_SLASH	142	stimuli_target_circletriangles.svg	stimuli_distractor_diamondtriangles.svg	5	yes	57	0	193
6.6.1	mac	2022-12-14	14:36:38	14:44:15	454584	616d0c1b16a0437469b6cd74	120610229	1	main_slash	7	main_slash	143	stimuli_target_diamondsquares.svg	stimuli_distractor_diamondtriangles.svg	24	yes	53	1	784
6.6.1	mac	2022-12-14	14:36:38	14:44:15	454584	616d0c1b16a0437469b6cd74	120610229	1	main_slash	7	advance_on_keypress_SLASH	144	stimuli_target_diamondsquares.svg	stimuli_distractor_diamondtriangles.svg	24	yes	57	0	167
6.6.1	mac	2022-12-14	14:36:38	14:44:17	456568	616d0c1b16a0437469b6cd74	120610229	1	main_slash	7	main_slash	145	stimuli_distractor_diamondtriangles.svg	stimuli_target_squarediamonds.svg	16	yes	53	1	1183
6.6.1	mac	2022-12-14	14:36:38	14:44:17	456568	616d0c1b16a0437469b6cd74	120610229	1	main_slash	7	advance_on_keypress_SLASH	146	stimuli_distractor_diamondtriangles.svg	stimuli_target_squarediamonds.svg	16	yes	57	0	221
6.6.1	mac	2022-12-14	14:36:38	14:44:19	458360	616d0c1b16a0437469b6cd74	120610229	1	main_slash	7	main_slash	147	stimuli_target_squarediamonds.svg	stimuli_distractor_trianglediamonds.svg	4	yes	53	1	939
6.6.1	mac	2022-12-14	14:36:38	14:44:19	458360	616d0c1b16a0437469b6cd74	120610229	1	main_slash	7	advance_on_keypress_SLASH	148	stimuli_target_squarediamonds.svg	stimuli_distractor_trianglediamonds.svg	4	yes	57	0	243
6.6.1	mac	2022-12-14	14:36:38	14:44:21	460192	616d0c1b16a0437469b6cd74	120610229	1	main_slash	7	main_slash	149	stimuli_distractor_trianglediamonds.svg	stimuli_target_squarediamonds.svg	12	yes	53	1	969
6.6.1	mac	2022-12-14	14:36:38	14:44:21	460192	616d0c1b16a0437469b6cd74	120610229	1	main_slash	7	advance_on_keypress_SLASH	150	stimuli_distractor_trianglediamonds.svg	stimuli_target_squarediamonds.svg	12	yes	57	0	200
6.6.1	mac	2022-12-14	14:36:38	14:44:22	461920	616d0c1b16a0437469b6cd74	120610229	1	main_slash	7	main_slash	151	stimuli_distractor_trianglediamonds.svg	stimuli_target_circlediamonds.svg	10	yes	53	1	896
6.6.1	mac	2022-12-14	14:36:38	14:44:22	461920	616d0c1b16a0437469b6cd74	120610229	1	main_slash	7	advance_on_keypress_SLASH	152	stimuli_distractor_trianglediamonds.svg	stimuli_target_circlediamonds.svg	10	yes	57	0	187
6.6.1	mac	2022-12-14	14:36:38	14:44:24	463640	616d0c1b16a0437469b6cd74	120610229	1	main_slash	7	main_slash	153	stimuli_distractor_diamondtriangles.svg	stimuli_target_circletriangles.svg	13	yes	53	1	913
6.6.1	mac	2022-12-14	14:36:38	14:44:24	463640	616d0c1b16a0437469b6cd74	120610229	1	main_slash	7	advance_on_keypress_SLASH	154	stimuli_distractor_diamondtriangles.svg	stimuli_target_circletriangles.svg	13	yes	57	0	146
6.6.1	mac	2022-12-14	14:36:38	14:44:27	466426	616d0c1b16a0437469b6cd74	120610229	1	main_slash	7	main_slash	155	stimuli_distractor_trianglediamonds.svg	stimuli_distractor_trianglediamonds.svg	33	no	0	1	2000
6.6.1	mac	2022-12-14	14:36:38	14:44:27	466426	616d0c1b16a0437469b6cd74	120610229	1	main_slash	7	advance_on_keypress_SLASH	156	stimuli_distractor_trianglediamonds.svg	stimuli_distractor_trianglediamonds.svg	33	no	57	0	448
6.6.1	mac	2022-12-14	14:36:38	14:44:30	469513	616d0c1b16a0437469b6cd74	120610229	1	main_slash	7	main_slash	157	stimuli_distractor_trianglediamonds.svg	stimuli_distractor_trianglediamonds.svg	34	no	0	1	2000
6.6.1	mac	2022-12-14	14:36:38	14:44:30	469513	616d0c1b16a0437469b6cd74	120610229	1	main_slash	7	advance_on_keypress_SLASH	158	stimuli_distractor_trianglediamonds.svg	stimuli_distractor_trianglediamonds.svg	34	no	57	0	609
6.6.1	mac	2022-12-14	14:36:38	14:44:33	472749	616d0c1b16a0437469b6cd74	120610229	1	main_slash	7	main_slash	159	stimuli_distractor_trianglediamonds.svg	stimuli_distractor_diamondtriangles.svg	36	no	0	1	2000
6.6.1	mac	2022-12-14	14:36:38	14:44:33	472749	616d0c1b16a0437469b6cd74	120610229	1	main_slash	7	advance_on_keypress_SLASH	160	stimuli_distractor_trianglediamonds.svg	stimuli_distractor_diamondtriangles.svg	36	no	57	0	237
6.6.1	mac	2022-12-14	14:36:38	14:45:00	500016	616d0c1b16a0437469b6cd74	120610229	1	practice_z	9	practice_z	1	stimuli_distractor_trianglediamonds.svg	stimuli_target_circlediamonds.svg	10	yes	44	1	733
6.6.1	mac	2022-12-14	14:36:38	14:45:00	500016	616d0c1b16a0437469b6cd74	120610229	1	practice_z	9	advance_on_keypress_ZEE	2	stimuli_distractor_trianglediamonds.svg	stimuli_target_circlediamonds.svg	10	yes	57	0	757
6.6.1	mac	2022-12-14	14:36:38	14:45:04	503200	616d0c1b16a0437469b6cd74	120610229	1	practice_z	9	practice_z	3	stimuli_distractor_trianglediamonds.svg	stimuli_target_diamondcircles.svg	12	yes	44	1	798
6.6.1	mac	2022-12-14	14:36:38	14:45:04	503200	616d0c1b16a0437469b6cd74	120610229	1	practice_z	9	advance_on_keypress_ZEE	4	stimuli_distractor_trianglediamonds.svg	stimuli_target_diamondcircles.svg	12	yes	57	0	466
6.6.1	mac	2022-12-14	14:36:38	14:45:07	506240	616d0c1b16a0437469b6cd74	120610229	1	practice_z	9	practice_z	5	stimuli_target_squarediamonds.svg	stimuli_distractor_diamondtriangles.svg	2	yes	44	1	951
6.6.1	mac	2022-12-14	14:36:38	14:45:07	506240	616d0c1b16a0437469b6cd74	120610229	1	practice_z	9	advance_on_keypress_ZEE	6	stimuli_target_squarediamonds.svg	stimuli_distractor_diamondtriangles.svg	2	yes	57	0	741
6.6.1	mac	2022-12-14	14:36:38	14:45:10	509368	616d0c1b16a0437469b6cd74	120610229	1	practice_z	9	practice_z	7	stimuli_distractor_diamondtriangles.svg	stimuli_target_trianglecircles.svg	9	yes	44	1	758
6.6.1	mac	2022-12-14	14:36:38	14:45:10	509368	616d0c1b16a0437469b6cd74	120610229	1	practice_z	9	advance_on_keypress_ZEE	8	stimuli_distractor_diamondtriangles.svg	stimuli_target_trianglecircles.svg	9	yes	57	0	574
6.6.1	mac	2022-12-14	14:36:38	14:45:14	513560	616d0c1b16a0437469b6cd74	120610229	1	practice_z	9	practice_z	9	stimuli_target_diamondsquares.svg	stimuli_distractor_diamondtriangles.svg	3	yes	0	0	2000
6.6.1	mac	2022-12-14	14:36:38	14:45:14	513560	616d0c1b16a0437469b6cd74	120610229	1	practice_z	9	advance_on_keypress_ZEE	10	stimuli_target_diamondsquares.svg	stimuli_distractor_diamondtriangles.svg	3	yes	57	0	649
6.6.1	mac	2022-12-14	14:36:38	14:45:17	516720	616d0c1b16a0437469b6cd74	120610229	1	practice_z	9	practice_z	11	stimuli_distractor_diamondtriangles.svg	stimuli_target_circletriangles.svg	7	yes	44	1	886
6.6.1	mac	2022-12-14	14:36:38	14:45:17	516720	616d0c1b16a0437469b6cd74	120610229	1	practice_z	9	advance_on_keypress_ZEE	12	stimuli_distractor_diamondtriangles.svg	stimuli_target_circletriangles.svg	7	yes	57	0	751
6.6.1	mac	2022-12-14	14:36:38	14:45:22	521102	616d0c1b16a0437469b6cd74	120610229	1	practice_z	9	practice_z	13	stimuli_distractor_diamondtriangles.svg	stimuli_distractor_diamondtriangles.svg	13	no	0	1	2000
6.6.1	mac	2022-12-14	14:36:38	14:45:22	521102	616d0c1b16a0437469b6cd74	120610229	1	practice_z	9	advance_on_keypress_ZEE	14	stimuli_distractor_diamondtriangles.svg	stimuli_distractor_diamondtriangles.svg	13	no	57	0	604
6.6.1	mac	2022-12-14	14:36:38	14:45:26	525323	616d0c1b16a0437469b6cd74	120610229	1	practice_z	9	practice_z	15	stimuli_distractor_trianglediamonds.svg	stimuli_distractor_diamondtriangles.svg	16	no	0	1	2000
6.6.1	mac	2022-12-14	14:36:38	14:45:26	525323	616d0c1b16a0437469b6cd74	120610229	1	practice_z	9	advance_on_keypress_ZEE	16	stimuli_distractor_trianglediamonds.svg	stimuli_distractor_diamondtriangles.svg	16	no	57	0	582
6.6.1	mac	2022-12-14	14:36:38	14:45:29	528512	616d0c1b16a0437469b6cd74	120610229	1	practice_z	9	practice_z	17	stimuli_target_circlediamonds.svg	stimuli_distractor_trianglediamonds.svg	4	yes	44	1	965
6.6.1	mac	2022-12-14	14:36:38	14:45:29	528512	616d0c1b16a0437469b6cd74	120610229	1	practice_z	9	advance_on_keypress_ZEE	18	stimuli_target_circlediamonds.svg	stimuli_distractor_trianglediamonds.svg	4	yes	57	0	315
6.6.1	mac	2022-12-14	14:36:38	14:45:33	532465	616d0c1b16a0437469b6cd74	120610229	1	practice_z	9	practice_z	19	stimuli_distractor_trianglediamonds.svg	stimuli_distractor_trianglediamonds.svg	15	no	0	1	2000
6.6.1	mac	2022-12-14	14:36:38	14:45:33	532465	616d0c1b16a0437469b6cd74	120610229	1	practice_z	9	advance_on_keypress_ZEE	20	stimuli_distractor_trianglediamonds.svg	stimuli_distractor_trianglediamonds.svg	15	no	57	0	577
6.6.1	mac	2022-12-14	14:36:38	14:45:36	535464	616d0c1b16a0437469b6cd74	120610229	1	practice_z	9	practice_z	21	stimuli_target_circlediamonds.svg	stimuli_distractor_diamondtriangles.svg	1	yes	44	1	776
6.6.1	mac	2022-12-14	14:36:38	14:45:36	535464	616d0c1b16a0437469b6cd74	120610229	1	practice_z	9	advance_on_keypress_ZEE	22	stimuli_target_circlediamonds.svg	stimuli_distractor_diamondtriangles.svg	1	yes	57	0	605
6.6.1	mac	2022-12-14	14:36:38	14:45:39	538656	616d0c1b16a0437469b6cd74	120610229	1	practice_z	9	practice_z	23	stimuli_distractor_trianglediamonds.svg	stimuli_target_squarediamonds.svg	11	yes	44	1	964
6.6.1	mac	2022-12-14	14:36:38	14:45:39	538656	616d0c1b16a0437469b6cd74	120610229	1	practice_z	9	advance_on_keypress_ZEE	24	stimuli_distractor_trianglediamonds.svg	stimuli_target_squarediamonds.svg	11	yes	57	0	459
6.6.1	mac	2022-12-14	14:36:38	14:45:42	541577	616d0c1b16a0437469b6cd74	120610229	1	practice_z	9	practice_z	25	stimuli_distractor_diamondtriangles.svg	stimuli_target_diamondcircles.svg	8	yes	44	1	831
6.6.1	mac	2022-12-14	14:36:38	14:45:42	541577	616d0c1b16a0437469b6cd74	120610229	1	practice_z	9	advance_on_keypress_ZEE	26	stimuli_distractor_diamondtriangles.svg	stimuli_target_diamondcircles.svg	8	yes	57	0	563
6.6.1	mac	2022-12-14	14:36:38	14:45:45	544656	616d0c1b16a0437469b6cd74	120610229	1	practice_z	9	practice_z	27	stimuli_target_squarediamonds.svg	stimuli_distractor_trianglediamonds.svg	5	yes	44	1	874
6.6.1	mac	2022-12-14	14:36:38	14:45:45	544656	616d0c1b16a0437469b6cd74	120610229	1	practice_z	9	advance_on_keypress_ZEE	28	stimuli_target_squarediamonds.svg	stimuli_distractor_trianglediamonds.svg	5	yes	57	0	476
6.6.1	mac	2022-12-14	14:36:38	14:45:49	548748	616d0c1b16a0437469b6cd74	120610229	1	practice_z	9	practice_z	29	stimuli_distractor_diamondtriangles.svg	stimuli_distractor_trianglediamonds.svg	14	no	0	1	2000
6.6.1	mac	2022-12-14	14:36:38	14:45:49	548748	616d0c1b16a0437469b6cd74	120610229	1	practice_z	9	advance_on_keypress_ZEE	30	stimuli_distractor_diamondtriangles.svg	stimuli_distractor_trianglediamonds.svg	14	no	57	0	549
6.6.1	mac	2022-12-14	14:36:38	14:45:53	552920	616d0c1b16a0437469b6cd74	120610229	1	practice_z	9	practice_z	31	stimuli_target_diamondsquares.svg	stimuli_distractor_trianglediamonds.svg	6	yes	0	0	2000
6.6.1	mac	2022-12-14	14:36:38	14:45:53	552920	616d0c1b16a0437469b6cd74	120610229	1	practice_z	9	advance_on_keypress_ZEE	32	stimuli_target_diamondsquares.svg	stimuli_distractor_trianglediamonds.svg	6	yes	57	0	857
6.6.1	mac	2022-12-14	14:36:38	14:45:57	556912	616d0c1b16a0437469b6cd74	120610229	1	main_z	11	main_z	1	stimuli_distractor_diamondtriangles.svg	stimuli_target_trianglesquares.svg	30	yes	44	1	882
6.6.1	mac	2022-12-14	14:36:38	14:45:57	556912	616d0c1b16a0437469b6cd74	120610229	1	main_z	11	advance_on_keypress_ZEE	2	stimuli_distractor_diamondtriangles.svg	stimuli_target_trianglesquares.svg	30	yes	57	0	421
6.6.1	mac	2022-12-14	14:36:38	14:46:00	559963	616d0c1b16a0437469b6cd74	120610229	1	main_z	11	main_z	3	stimuli_distractor_trianglediamonds.svg	stimuli_distractor_diamondtriangles.svg	35	no	0	1	2000
6.6.1	mac	2022-12-14	14:36:38	14:46:00	559963	616d0c1b16a0437469b6cd74	120610229	1	main_z	11	advance_on_keypress_ZEE	4	stimuli_distractor_trianglediamonds.svg	stimuli_distractor_diamondtriangles.svg	35	no	57	0	488
6.6.1	mac	2022-12-14	14:36:38	14:46:02	561752	616d0c1b16a0437469b6cd74	120610229	1	main_z	11	main_z	5	stimuli_target_diamondcircles.svg	stimuli_distractor_diamondtriangles.svg	23	yes	44	1	667
6.6.1	mac	2022-12-14	14:36:38	14:46:02	561752	616d0c1b16a0437469b6cd74	120610229	1	main_z	11	advance_on_keypress_ZEE	6	stimuli_target_diamondcircles.svg	stimuli_distractor_diamondtriangles.svg	23	yes	57	0	558
6.6.1	mac	2022-12-14	14:36:38	14:46:04	563824	616d0c1b16a0437469b6cd74	120610229	1	main_z	11	main_z	7	stimuli_distractor_trianglediamonds.svg	stimuli_target_trianglecircles.svg	25	yes	44	1	887
6.6.1	mac	2022-12-14	14:36:38	14:46:04	563824	616d0c1b16a0437469b6cd74	120610229	1	main_z	11	advance_on_keypress_ZEE	8	stimuli_distractor_trianglediamonds.svg	stimuli_target_trianglecircles.svg	25	yes	57	0	217
6.6.1	mac	2022-12-14	14:36:38	14:46:06	565480	616d0c1b16a0437469b6cd74	120610229	1	main_z	11	main_z	9	stimuli_distractor_trianglediamonds.svg	stimuli_target_diamondsquares.svg	28	yes	44	1	807
6.6.1	mac	2022-12-14	14:36:38	14:46:06	565480	616d0c1b16a0437469b6cd74	120610229	1	main_z	11	advance_on_keypress_ZEE	10	stimuli_distractor_trianglediamonds.svg	stimuli_target_diamondsquares.svg	28	yes	57	0	205
6.6.1	mac	2022-12-14	14:36:38	14:46:08	567208	616d0c1b16a0437469b6cd74	120610229	1	main_z	11	main_z	11	stimuli_target_trianglesquares.svg	stimuli_distractor_diamondtriangles.svg	22	yes	44	1	900
6.6.1	mac	2022-12-14	14:36:38	14:46:08	567208	616d0c1b16a0437469b6cd74	120610229	1	main_z	11	advance_on_keypress_ZEE	12	stimuli_target_trianglesquares.svg	stimuli_distractor_diamondtriangles.svg	22	yes	57	0	198
6.6.1	mac	2022-12-14	14:36:38	14:46:09	568705	616d0c1b16a0437469b6cd74	120610229	1	main_z	11	main_z	13	stimuli_target_circletriangles.svg	stimuli_distractor_trianglediamonds.svg	1	yes	44	1	661
6.6.1	mac	2022-12-14	14:36:38	14:46:09	568705	616d0c1b16a0437469b6cd74	120610229	1	main_z	11	advance_on_keypress_ZEE	14	stimuli_target_circletriangles.svg	stimuli_distractor_trianglediamonds.svg	1	yes	57	0	274
6.6.1	mac	2022-12-14	14:36:38	14:46:11	570408	616d0c1b16a0437469b6cd74	120610229	1	main_z	11	main_z	15	stimuli_target_trianglecircles.svg	stimuli_distractor_trianglediamonds.svg	17	yes	44	1	813
6.6.1	mac	2022-12-14	14:36:38	14:46:11	570408	616d0c1b16a0437469b6cd74	120610229	1	main_z	11	advance_on_keypress_ZEE	16	stimuli_target_trianglecircles.svg	stimuli_distractor_trianglediamonds.svg	17	yes	57	0	202
6.6.1	mac	2022-12-14	14:36:38	14:46:14	573244	616d0c1b16a0437469b6cd74	120610229	1	main_z	11	main_z	17	stimuli_distractor_trianglediamonds.svg	stimuli_distractor_trianglediamonds.svg	34	no	0	1	2000
6.6.1	mac	2022-12-14	14:36:38	14:46:14	573244	616d0c1b16a0437469b6cd74	120610229	1	main_z	11	advance_on_keypress_ZEE	18	stimuli_distractor_trianglediamonds.svg	stimuli_distractor_trianglediamonds.svg	34	no	57	0	406
6.6.1	mac	2022-12-14	14:36:38	14:46:15	575024	616d0c1b16a0437469b6cd74	120610229	1	main_z	11	main_z	19	stimuli_distractor_diamondtriangles.svg	stimuli_target_diamondcircles.svg	31	yes	44	1	741
6.6.1	mac	2022-12-14	14:36:38	14:46:15	575024	616d0c1b16a0437469b6cd74	120610229	1	main_z	11	advance_on_keypress_ZEE	20	stimuli_distractor_diamondtriangles.svg	stimuli_target_diamondcircles.svg	31	yes	57	0	222
6.6.1	mac	2022-12-14	14:36:38	14:46:17	576608	616d0c1b16a0437469b6cd74	120610229	1	main_z	11	main_z	21	stimuli_distractor_trianglediamonds.svg	stimuli_target_diamondcircles.svg	27	yes	44	1	740
6.6.1	mac	2022-12-14	14:36:38	14:46:17	576608	616d0c1b16a0437469b6cd74	120610229	1	main_z	11	advance_on_keypress_ZEE	22	stimuli_distractor_trianglediamonds.svg	stimuli_target_diamondcircles.svg	27	yes	57	0	228
6.6.1	mac	2022-12-14	14:36:38	14:46:20	579467	616d0c1b16a0437469b6cd74	120610229	1	main_z	11	main_z	23	stimuli_distractor_diamondtriangles.svg	stimuli_target_squaretriangles.svg	15	yes	0	0	2000
6.6.1	mac	2022-12-14	14:36:38	14:46:20	579467	616d0c1b16a0437469b6cd74	120610229	1	main_z	11	advance_on_keypress_ZEE	24	stimuli_distractor_diamondtriangles.svg	stimuli_target_squaretriangles.svg	15	yes	57	0	295
6.6.1	mac	2022-12-14	14:36:38	14:46:22	581368	616d0c1b16a0437469b6cd74	120610229	1	main_z	11	main_z	25	stimuli_distractor_diamondtriangles.svg	stimuli_target_circlediamonds.svg	14	yes	44	1	961
6.6.1	mac	2022-12-14	14:36:38	14:46:22	581368	616d0c1b16a0437469b6cd74	120610229	1	main_z	11	advance_on_keypress_ZEE	26	stimuli_distractor_diamondtriangles.svg	stimuli_target_circlediamonds.svg	14	yes	57	0	185
6.6.1	mac	2022-12-14	14:36:38	14:46:23	582920	616d0c1b16a0437469b6cd74	120610229	1	main_z	11	main_z	27	stimuli_distractor_diamondtriangles.svg	stimuli_target_trianglecircles.svg	29	yes	44	1	745
6.6.1	mac	2022-12-14	14:36:38	14:46:23	582920	616d0c1b16a0437469b6cd74	120610229	1	main_z	11	advance_on_keypress_ZEE	28	stimuli_distractor_diamondtriangles.svg	stimuli_target_trianglecircles.svg	29	yes	57	0	235
6.6.1	mac	2022-12-14	14:36:38	14:46:25	584528	616d0c1b16a0437469b6cd74	120610229	1	main_z	11	main_z	29	stimuli_target_circlediamonds.svg	stimuli_distractor_trianglediamonds.svg	2	yes	44	1	751
6.6.1	mac	2022-12-14	14:36:38	14:46:25	584528	616d0c1b16a0437469b6cd74	120610229	1	main_z	11	advance_on_keypress_ZEE	30	stimuli_target_circlediamonds.svg	stimuli_distractor_trianglediamonds.svg	2	yes	57	0	199
6.6.1	mac	2022-12-14	14:36:38	14:46:28	587359	616d0c1b16a0437469b6cd74	120610229	1	main_z	11	main_z	31	stimuli_distractor_trianglediamonds.svg	stimuli_target_squaretriangles.svg	11	yes	0	0	2000
6.6.1	mac	2022-12-14	14:36:38	14:46:28	587359	616d0c1b16a0437469b6cd74	120610229	1	main_z	11	advance_on_keypress_ZEE	32	stimuli_distractor_trianglediamonds.svg	stimuli_target_squaretriangles.svg	11	yes	57	0	355
6.6.1	mac	2022-12-14	14:36:38	14:46:30	589136	616d0c1b16a0437469b6cd74	120610229	1	main_z	11	main_z	33	stimuli_target_diamondsquares.svg	stimuli_distractor_diamondtriangles.svg	24	yes	44	1	788
6.6.1	mac	2022-12-14	14:36:38	14:46:30	589136	616d0c1b16a0437469b6cd74	120610229	1	main_z	11	advance_on_keypress_ZEE	34	stimuli_target_diamondsquares.svg	stimuli_distractor_diamondtriangles.svg	24	yes	57	0	195
6.6.1	mac	2022-12-14	14:36:38	14:46:31	590696	616d0c1b16a0437469b6cd74	120610229	1	main_z	11	main_z	35	stimuli_target_diamondsquares.svg	stimuli_distractor_trianglediamonds.svg	20	yes	44	1	746
6.6.1	mac	2022-12-14	14:36:38	14:46:31	590696	616d0c1b16a0437469b6cd74	120610229	1	main_z	11	advance_on_keypress_ZEE	36	stimuli_target_diamondsquares.svg	stimuli_distractor_trianglediamonds.svg	20	yes	57	0	275
6.6.1	mac	2022-12-14	14:36:38	14:46:34	593582	616d0c1b16a0437469b6cd74	120610229	1	main_z	11	main_z	37	stimuli_distractor_diamondtriangles.svg	stimuli_distractor_trianglediamonds.svg	38	no	0	1	2000
6.6.1	mac	2022-12-14	14:36:38	14:46:34	593582	616d0c1b16a0437469b6cd74	120610229	1	main_z	11	advance_on_keypress_ZEE	38	stimuli_distractor_diamondtriangles.svg	stimuli_distractor_trianglediamonds.svg	38	no	57	0	461
6.6.1	mac	2022-12-14	14:36:38	14:46:36	595544	616d0c1b16a0437469b6cd74	120610229	1	main_z	11	main_z	39	stimuli_target_circlediamonds.svg	stimuli_distractor_diamondtriangles.svg	6	yes	44	1	872
6.6.1	mac	2022-12-14	14:36:38	14:46:36	595544	616d0c1b16a0437469b6cd74	120610229	1	main_z	11	advance_on_keypress_ZEE	40	stimuli_target_circlediamonds.svg	stimuli_distractor_diamondtriangles.svg	6	yes	57	0	251
6.6.1	mac	2022-12-14	14:36:38	14:46:38	597584	616d0c1b16a0437469b6cd74	120610229	1	main_z	11	main_z	41	stimuli_distractor_trianglediamonds.svg	stimuli_target_circletriangles.svg	9	yes	44	1	1160
6.6.1	mac	2022-12-14	14:36:38	14:46:38	597584	616d0c1b16a0437469b6cd74	120610229	1	main_z	11	advance_on_keypress_ZEE	42	stimuli_distractor_trianglediamonds.svg	stimuli_target_circletriangles.svg	9	yes	57	0	128
6.6.1	mac	2022-12-14	14:36:38	14:46:40	599232	616d0c1b16a0437469b6cd74	120610229	1	main_z	11	main_z	43	stimuli_distractor_trianglediamonds.svg	stimuli_target_circlediamonds.svg	10	yes	44	1	890
6.6.1	mac	2022-12-14	14:36:38	14:46:40	599232	616d0c1b16a0437469b6cd74	120610229	1	main_z	11	advance_on_keypress_ZEE	44	stimuli_distractor_trianglediamonds.svg	stimuli_target_circlediamonds.svg	10	yes	57	0	171
6.6.1	mac	2022-12-14	14:36:38	14:46:41	600912	616d0c1b16a0437469b6cd74	120610229	1	main_z	11	main_z	45	stimuli_target_squaretriangles.svg	stimuli_distractor_diamondtriangles.svg	7	yes	44	1	884
6.6.1	mac	2022-12-14	14:36:38	14:46:41	600912	616d0c1b16a0437469b6cd74	120610229	1	main_z	11	advance_on_keypress_ZEE	46	stimuli_target_squaretriangles.svg	stimuli_distractor_diamondtriangles.svg	7	yes	57	0	182
6.6.1	mac	2022-12-14	14:36:38	14:46:43	602672	616d0c1b16a0437469b6cd74	120610229	1	main_z	11	main_z	47	stimuli_target_trianglesquares.svg	stimuli_distractor_trianglediamonds.svg	18	yes	44	1	942
6.6.1	mac	2022-12-14	14:36:38	14:46:43	602672	616d0c1b16a0437469b6cd74	120610229	1	main_z	11	advance_on_keypress_ZEE	48	stimuli_target_trianglesquares.svg	stimuli_distractor_trianglediamonds.svg	18	yes	57	0	167
6.6.1	mac	2022-12-14	14:36:38	14:46:45	604392	616d0c1b16a0437469b6cd74	120610229	1	main_z	11	main_z	49	stimuli_distractor_diamondtriangles.svg	stimuli_target_squarediamonds.svg	16	yes	44	1	927
6.6.1	mac	2022-12-14	14:36:38	14:46:45	604392	616d0c1b16a0437469b6cd74	120610229	1	main_z	11	advance_on_keypress_ZEE	50	stimuli_distractor_diamondtriangles.svg	stimuli_target_squarediamonds.svg	16	yes	57	0	216
6.6.1	mac	2022-12-14	14:36:38	14:46:46	605984	616d0c1b16a0437469b6cd74	120610229	1	main_z	11	main_z	51	stimuli_target_circletriangles.svg	stimuli_distractor_diamondtriangles.svg	5	yes	44	1	751
6.6.1	mac	2022-12-14	14:36:38	14:46:46	605984	616d0c1b16a0437469b6cd74	120610229	1	main_z	11	advance_on_keypress_ZEE	52	stimuli_target_circletriangles.svg	stimuli_distractor_diamondtriangles.svg	5	yes	57	0	230
6.6.1	mac	2022-12-14	14:36:38	14:46:48	607672	616d0c1b16a0437469b6cd74	120610229	1	main_z	11	main_z	53	stimuli_distractor_trianglediamonds.svg	stimuli_target_trianglesquares.svg	26	yes	44	1	820
6.6.1	mac	2022-12-14	14:36:38	14:46:48	607672	616d0c1b16a0437469b6cd74	120610229	1	main_z	11	advance_on_keypress_ZEE	54	stimuli_distractor_trianglediamonds.svg	stimuli_target_trianglesquares.svg	26	yes	57	0	185
6.6.1	mac	2022-12-14	14:36:38	14:46:50	609264	616d0c1b16a0437469b6cd74	120610229	1	main_z	11	main_z	55	stimuli_target_diamondcircles.svg	stimuli_distractor_trianglediamonds.svg	19	yes	44	1	776
6.6.1	mac	2022-12-14	14:36:38	14:46:50	609264	616d0c1b16a0437469b6cd74	120610229	1	main_z	11	advance_on_keypress_ZEE	56	stimuli_target_diamondcircles.svg	stimuli_distractor_trianglediamonds.svg	19	yes	57	0	200
6.6.1	mac	2022-12-14	14:36:38	14:46:53	612086	616d0c1b16a0437469b6cd74	120610229	1	main_z	11	main_z	57	stimuli_distractor_trianglediamonds.svg	stimuli_distractor_trianglediamonds.svg	33	no	0	1	2000
6.6.1	mac	2022-12-14	14:36:38	14:46:53	612086	616d0c1b16a0437469b6cd74	120610229	1	main_z	11	advance_on_keypress_ZEE	58	stimuli_distractor_trianglediamonds.svg	stimuli_distractor_trianglediamonds.svg	33	no	57	0	356
6.6.1	mac	2022-12-14	14:36:38	14:46:54	613856	616d0c1b16a0437469b6cd74	120610229	1	main_z	11	main_z	59	stimuli_target_squarediamonds.svg	stimuli_distractor_trianglediamonds.svg	4	yes	44	1	797
6.6.1	mac	2022-12-14	14:36:38	14:46:54	613856	616d0c1b16a0437469b6cd74	120610229	1	main_z	11	advance_on_keypress_ZEE	60	stimuli_target_squarediamonds.svg	stimuli_distractor_trianglediamonds.svg	4	yes	57	0	155
6.6.1	mac	2022-12-14	14:36:38	14:46:56	615408	616d0c1b16a0437469b6cd74	120610229	1	main_z	11	main_z	61	stimuli_target_squarediamonds.svg	stimuli_distractor_diamondtriangles.svg	8	yes	44	1	764
6.6.1	mac	2022-12-14	14:36:38	14:46:56	615408	616d0c1b16a0437469b6cd74	120610229	1	main_z	11	advance_on_keypress_ZEE	62	stimuli_target_squarediamonds.svg	stimuli_distractor_diamondtriangles.svg	8	yes	57	0	171
6.6.1	mac	2022-12-14	14:36:38	14:46:57	616984	616d0c1b16a0437469b6cd74	120610229	1	main_z	11	main_z	63	stimuli_target_squaretriangles.svg	stimuli_distractor_trianglediamonds.svg	3	yes	44	1	771
6.6.1	mac	2022-12-14	14:36:38	14:46:57	616984	616d0c1b16a0437469b6cd74	120610229	1	main_z	11	advance_on_keypress_ZEE	64	stimuli_target_squaretriangles.svg	stimuli_distractor_trianglediamonds.svg	3	yes	57	0	171
6.6.1	mac	2022-12-14	14:36:38	14:46:59	618512	616d0c1b16a0437469b6cd74	120610229	1	main_z	11	main_z	65	stimuli_target_trianglecircles.svg	stimuli_distractor_diamondtriangles.svg	21	yes	44	1	731
6.6.1	mac	2022-12-14	14:36:38	14:46:59	618512	616d0c1b16a0437469b6cd74	120610229	1	main_z	11	advance_on_keypress_ZEE	66	stimuli_target_trianglecircles.svg	stimuli_distractor_diamondtriangles.svg	21	yes	57	0	220
6.6.1	mac	2022-12-14	14:36:38	14:47:02	621364	616d0c1b16a0437469b6cd74	120610229	1	main_z	11	main_z	67	stimuli_distractor_trianglediamonds.svg	stimuli_distractor_diamondtriangles.svg	36	no	0	1	2000
6.6.1	mac	2022-12-14	14:36:38	14:47:02	621364	616d0c1b16a0437469b6cd74	120610229	1	main_z	11	advance_on_keypress_ZEE	68	stimuli_distractor_trianglediamonds.svg	stimuli_distractor_diamondtriangles.svg	36	no	57	0	687
6.6.1	mac	2022-12-14	14:36:38	14:47:04	623368	616d0c1b16a0437469b6cd74	120610229	1	main_z	11	main_z	69	stimuli_distractor_trianglediamonds.svg	stimuli_target_squarediamonds.svg	12	yes	44	1	698
6.6.1	mac	2022-12-14	14:36:38	14:47:04	623368	616d0c1b16a0437469b6cd74	120610229	1	main_z	11	advance_on_keypress_ZEE	70	stimuli_distractor_trianglediamonds.svg	stimuli_target_squarediamonds.svg	12	yes	57	0	180
6.6.1	mac	2022-12-14	14:36:38	14:47:07	626185	616d0c1b16a0437469b6cd74	120610229	1	main_z	11	main_z	71	stimuli_distractor_diamondtriangles.svg	stimuli_distractor_trianglediamonds.svg	37	no	0	1	2000
6.6.1	mac	2022-12-14	14:36:38	14:47:07	626185	616d0c1b16a0437469b6cd74	120610229	1	main_z	11	advance_on_keypress_ZEE	72	stimuli_distractor_diamondtriangles.svg	stimuli_distractor_trianglediamonds.svg	37	no	57	0	714
6.6.1	mac	2022-12-14	14:36:38	14:47:09	628232	616d0c1b16a0437469b6cd74	120610229	1	main_z	11	main_z	73	stimuli_distractor_diamondtriangles.svg	stimuli_target_circletriangles.svg	13	yes	44	1	708
6.6.1	mac	2022-12-14	14:36:38	14:47:09	628232	616d0c1b16a0437469b6cd74	120610229	1	main_z	11	advance_on_keypress_ZEE	74	stimuli_distractor_diamondtriangles.svg	stimuli_target_circletriangles.svg	13	yes	57	0	158
6.6.1	mac	2022-12-14	14:36:38	14:47:11	631024	616d0c1b16a0437469b6cd74	120610229	1	main_z	11	main_z	75	stimuli_distractor_diamondtriangles.svg	stimuli_distractor_diamondtriangles.svg	40	no	0	1	2000
6.6.1	mac	2022-12-14	14:36:38	14:47:11	631024	616d0c1b16a0437469b6cd74	120610229	1	main_z	11	advance_on_keypress_ZEE	76	stimuli_distractor_diamondtriangles.svg	stimuli_distractor_diamondtriangles.svg	40	no	57	0	521
6.6.1	mac	2022-12-14	14:36:38	14:47:15	634056	616d0c1b16a0437469b6cd74	120610229	1	main_z	11	main_z	77	stimuli_distractor_diamondtriangles.svg	stimuli_target_diamondsquares.svg	32	yes	44	1	1876
6.6.1	mac	2022-12-14	14:36:38	14:47:15	634056	616d0c1b16a0437469b6cd74	120610229	1	main_z	11	advance_on_keypress_ZEE	78	stimuli_distractor_diamondtriangles.svg	stimuli_target_diamondsquares.svg	32	yes	57	0	319
6.6.1	mac	2022-12-14	14:36:38	14:47:17	636998	616d0c1b16a0437469b6cd74	120610229	1	main_z	11	main_z	79	stimuli_distractor_diamondtriangles.svg	stimuli_distractor_diamondtriangles.svg	39	no	0	1	2000
6.6.1	mac	2022-12-14	14:36:38	14:47:17	636998	616d0c1b16a0437469b6cd74	120610229	1	main_z	11	advance_on_keypress_ZEE	80	stimuli_distractor_diamondtriangles.svg	stimuli_distractor_diamondtriangles.svg	39	no	57	0	701
6.6.1	mac	2022-12-14	14:36:38	14:47:20	639120	616d0c1b16a0437469b6cd74	120610229	1	main_z	11	main_z	81	stimuli_target_squaretriangles.svg	stimuli_distractor_trianglediamonds.svg	3	yes	44	1	783
6.6.1	mac	2022-12-14	14:36:38	14:47:20	639120	616d0c1b16a0437469b6cd74	120610229	1	main_z	11	advance_on_keypress_ZEE	82	stimuli_target_squaretriangles.svg	stimuli_distractor_trianglediamonds.svg	3	yes	57	0	149
6.6.1	mac	2022-12-14	14:36:38	14:47:21	640800	616d0c1b16a0437469b6cd74	120610229	1	main_z	11	main_z	83	stimuli_target_squarediamonds.svg	stimuli_distractor_diamondtriangles.svg	8	yes	44	1	894
6.6.1	mac	2022-12-14	14:36:38	14:47:21	640800	616d0c1b16a0437469b6cd74	120610229	1	main_z	11	advance_on_keypress_ZEE	84	stimuli_target_squarediamonds.svg	stimuli_distractor_diamondtriangles.svg	8	yes	57	0	233
6.6.1	mac	2022-12-14	14:36:38	14:47:23	642416	616d0c1b16a0437469b6cd74	120610229	1	main_z	11	main_z	85	stimuli_distractor_trianglediamonds.svg	stimuli_target_trianglecircles.svg	25	yes	44	1	759
6.6.1	mac	2022-12-14	14:36:38	14:47:23	642416	616d0c1b16a0437469b6cd74	120610229	1	main_z	11	advance_on_keypress_ZEE	86	stimuli_distractor_trianglediamonds.svg	stimuli_target_trianglecircles.svg	25	yes	57	0	215
6.6.1	mac	2022-12-14	14:36:38	14:47:26	645256	616d0c1b16a0437469b6cd74	120610229	1	main_z	11	main_z	87	stimuli_distractor_trianglediamonds.svg	stimuli_distractor_trianglediamonds.svg	34	no	0	1	2000
6.6.1	mac	2022-12-14	14:36:38	14:47:26	645256	616d0c1b16a0437469b6cd74	120610229	1	main_z	11	advance_on_keypress_ZEE	88	stimuli_distractor_trianglediamonds.svg	stimuli_distractor_trianglediamonds.svg	34	no	57	0	681
6.6.1	mac	2022-12-14	14:36:38	14:47:29	648576	616d0c1b16a0437469b6cd74	120610229	1	main_z	11	main_z	89	stimuli_distractor_diamondtriangles.svg	stimuli_distractor_trianglediamonds.svg	38	no	0	1	2000
6.6.1	mac	2022-12-14	14:36:38	14:47:29	648576	616d0c1b16a0437469b6cd74	120610229	1	main_z	11	advance_on_keypress_ZEE	90	stimuli_distractor_diamondtriangles.svg	stimuli_distractor_trianglediamonds.svg	38	no	57	0	601
6.6.1	mac	2022-12-14	14:36:38	14:47:31	650544	616d0c1b16a0437469b6cd74	120610229	1	main_z	11	main_z	91	stimuli_target_trianglesquares.svg	stimuli_distractor_trianglediamonds.svg	18	yes	44	1	728
6.6.1	mac	2022-12-14	14:36:38	14:47:31	650544	616d0c1b16a0437469b6cd74	120610229	1	main_z	11	advance_on_keypress_ZEE	92	stimuli_target_trianglesquares.svg	stimuli_distractor_trianglediamonds.svg	18	yes	57	0	168
6.6.1	mac	2022-12-14	14:36:38	14:47:34	653332	616d0c1b16a0437469b6cd74	120610229	1	main_z	11	main_z	93	stimuli_distractor_trianglediamonds.svg	stimuli_distractor_trianglediamonds.svg	33	no	0	1	2000
6.6.1	mac	2022-12-14	14:36:38	14:47:34	653332	616d0c1b16a0437469b6cd74	120610229	1	main_z	11	advance_on_keypress_ZEE	94	stimuli_distractor_trianglediamonds.svg	stimuli_distractor_trianglediamonds.svg	33	no	57	0	782
6.6.1	mac	2022-12-14	14:36:38	14:47:36	655474	616d0c1b16a0437469b6cd74	120610229	1	main_z	11	main_z	95	stimuli_distractor_diamondtriangles.svg	stimuli_target_squarediamonds.svg	16	yes	44	1	717
6.6.1	mac	2022-12-14	14:36:38	14:47:36	655474	616d0c1b16a0437469b6cd74	120610229	1	main_z	11	advance_on_keypress_ZEE	96	stimuli_distractor_diamondtriangles.svg	stimuli_target_squarediamonds.svg	16	yes	57	0	158
6.6.1	mac	2022-12-14	14:36:38	14:47:37	657008	616d0c1b16a0437469b6cd74	120610229	1	main_z	11	main_z	97	stimuli_distractor_trianglediamonds.svg	stimuli_target_circlediamonds.svg	10	yes	44	1	752
6.6.1	mac	2022-12-14	14:36:38	14:47:37	657008	616d0c1b16a0437469b6cd74	120610229	1	main_z	11	advance_on_keypress_ZEE	98	stimuli_distractor_trianglediamonds.svg	stimuli_target_circlediamonds.svg	10	yes	57	0	223
6.6.1	mac	2022-12-14	14:36:38	14:47:39	658592	616d0c1b16a0437469b6cd74	120610229	1	main_z	11	main_z	99	stimuli_target_squarediamonds.svg	stimuli_distractor_trianglediamonds.svg	4	yes	44	1	733
6.6.1	mac	2022-12-14	14:36:38	14:47:39	658592	616d0c1b16a0437469b6cd74	120610229	1	main_z	11	advance_on_keypress_ZEE	100	stimuli_target_squarediamonds.svg	stimuli_distractor_trianglediamonds.svg	4	yes	57	0	294
6.6.1	mac	2022-12-14	14:36:38	14:47:41	660240	616d0c1b16a0437469b6cd74	120610229	1	main_z	11	main_z	101	stimuli_target_circletriangles.svg	stimuli_distractor_diamondtriangles.svg	5	yes	44	1	730
6.6.1	mac	2022-12-14	14:36:38	14:47:41	660240	616d0c1b16a0437469b6cd74	120610229	1	main_z	11	advance_on_keypress_ZEE	102	stimuli_target_circletriangles.svg	stimuli_distractor_diamondtriangles.svg	5	yes	57	0	211
6.6.1	mac	2022-12-14	14:36:38	14:47:44	663059	616d0c1b16a0437469b6cd74	120610229	1	main_z	11	main_z	103	stimuli_distractor_trianglediamonds.svg	stimuli_distractor_diamondtriangles.svg	35	no	0	1	2000
6.6.1	mac	2022-12-14	14:36:38	14:47:44	663059	616d0c1b16a0437469b6cd74	120610229	1	main_z	11	advance_on_keypress_ZEE	104	stimuli_distractor_trianglediamonds.svg	stimuli_distractor_diamondtriangles.svg	35	no	57	0	376
6.6.1	mac	2022-12-14	14:36:38	14:47:46	665056	616d0c1b16a0437469b6cd74	120610229	1	main_z	11	main_z	105	stimuli_target_diamondsquares.svg	stimuli_distractor_trianglediamonds.svg	20	yes	44	1	1007
6.6.1	mac	2022-12-14	14:36:38	14:47:46	665056	616d0c1b16a0437469b6cd74	120610229	1	main_z	11	advance_on_keypress_ZEE	106	stimuli_target_diamondsquares.svg	stimuli_distractor_trianglediamonds.svg	20	yes	57	0	198
6.6.1	mac	2022-12-14	14:36:38	14:47:47	666464	616d0c1b16a0437469b6cd74	120610229	1	main_z	11	main_z	107	stimuli_target_circlediamonds.svg	stimuli_distractor_trianglediamonds.svg	2	yes	44	1	580
6.6.1	mac	2022-12-14	14:36:38	14:47:47	666464	616d0c1b16a0437469b6cd74	120610229	1	main_z	11	advance_on_keypress_ZEE	108	stimuli_target_circlediamonds.svg	stimuli_distractor_trianglediamonds.svg	2	yes	57	0	219
6.6.1	mac	2022-12-14	14:36:38	14:47:49	668064	616d0c1b16a0437469b6cd74	120610229	1	main_z	11	main_z	109	stimuli_target_trianglecircles.svg	stimuli_distractor_diamondtriangles.svg	21	yes	44	1	745
6.6.1	mac	2022-12-14	14:36:38	14:47:49	668064	616d0c1b16a0437469b6cd74	120610229	1	main_z	11	advance_on_keypress_ZEE	110	stimuli_target_trianglecircles.svg	stimuli_distractor_diamondtriangles.svg	21	yes	57	0	250
6.6.1	mac	2022-12-14	14:36:38	14:47:50	669616	616d0c1b16a0437469b6cd74	120610229	1	main_z	11	main_z	111	stimuli_distractor_diamondtriangles.svg	stimuli_target_trianglesquares.svg	30	yes	44	1	679
6.6.1	mac	2022-12-14	14:36:38	14:47:50	669616	616d0c1b16a0437469b6cd74	120610229	1	main_z	11	advance_on_keypress_ZEE	112	stimuli_distractor_diamondtriangles.svg	stimuli_target_trianglesquares.svg	30	yes	57	0	251
6.6.1	mac	2022-12-14	14:36:38	14:47:53	672486	616d0c1b16a0437469b6cd74	120610229	1	main_z	11	main_z	113	stimuli_distractor_diamondtriangles.svg	stimuli_distractor_trianglediamonds.svg	37	no	0	1	2000
6.6.1	mac	2022-12-14	14:36:38	14:47:53	672486	616d0c1b16a0437469b6cd74	120610229	1	main_z	11	advance_on_keypress_ZEE	114	stimuli_distractor_diamondtriangles.svg	stimuli_distractor_trianglediamonds.svg	37	no	57	0	573
6.6.1	mac	2022-12-14	14:36:38	14:47:55	674168	616d0c1b16a0437469b6cd74	120610229	1	main_z	11	main_z	115	stimuli_target_circlediamonds.svg	stimuli_distractor_diamondtriangles.svg	6	yes	44	1	492
6.6.1	mac	2022-12-14	14:36:38	14:47:55	674168	616d0c1b16a0437469b6cd74	120610229	1	main_z	11	advance_on_keypress_ZEE	116	stimuli_target_circlediamonds.svg	stimuli_distractor_diamondtriangles.svg	6	yes	57	0	215
6.6.1	mac	2022-12-14	14:36:38	14:47:57	677008	616d0c1b16a0437469b6cd74	120610229	1	main_z	11	main_z	117	stimuli_distractor_trianglediamonds.svg	stimuli_distractor_diamondtriangles.svg	36	no	0	1	2000
6.6.1	mac	2022-12-14	14:36:38	14:47:57	677008	616d0c1b16a0437469b6cd74	120610229	1	main_z	11	advance_on_keypress_ZEE	118	stimuli_distractor_trianglediamonds.svg	stimuli_distractor_diamondtriangles.svg	36	no	57	0	706
6.6.1	mac	2022-12-14	14:36:38	14:48:00	679152	616d0c1b16a0437469b6cd74	120610229	1	main_z	11	main_z	119	stimuli_distractor_diamondtriangles.svg	stimuli_target_diamondsquares.svg	32	yes	44	1	804
6.6.1	mac	2022-12-14	14:36:38	14:48:00	679152	616d0c1b16a0437469b6cd74	120610229	1	main_z	11	advance_on_keypress_ZEE	120	stimuli_distractor_diamondtriangles.svg	stimuli_target_diamondsquares.svg	32	yes	57	0	163
6.6.1	mac	2022-12-14	14:36:38	14:48:01	680688	616d0c1b16a0437469b6cd74	120610229	1	main_z	11	main_z	121	stimuli_distractor_trianglediamonds.svg	stimuli_target_circletriangles.svg	9	yes	44	1	739
6.6.1	mac	2022-12-14	14:36:38	14:48:01	680688	616d0c1b16a0437469b6cd74	120610229	1	main_z	11	advance_on_keypress_ZEE	122	stimuli_distractor_trianglediamonds.svg	stimuli_target_circletriangles.svg	9	yes	57	0	187
6.6.1	mac	2022-12-14	14:36:38	14:48:03	682272	616d0c1b16a0437469b6cd74	120610229	1	main_z	11	main_z	123	stimuli_target_trianglecircles.svg	stimuli_distractor_trianglediamonds.svg	17	yes	44	1	771
6.6.1	mac	2022-12-14	14:36:38	14:48:03	682272	616d0c1b16a0437469b6cd74	120610229	1	main_z	11	advance_on_keypress_ZEE	124	stimuli_target_trianglecircles.svg	stimuli_distractor_trianglediamonds.svg	17	yes	57	0	163
6.6.1	mac	2022-12-14	14:36:38	14:48:04	683832	616d0c1b16a0437469b6cd74	120610229	1	main_z	11	main_z	125	stimuli_target_circletriangles.svg	stimuli_distractor_trianglediamonds.svg	1	yes	44	1	779
6.6.1	mac	2022-12-14	14:36:38	14:48:04	683832	616d0c1b16a0437469b6cd74	120610229	1	main_z	11	advance_on_keypress_ZEE	126	stimuli_target_circletriangles.svg	stimuli_distractor_trianglediamonds.svg	1	yes	57	0	243
6.6.1	mac	2022-12-14	14:36:38	14:48:06	685456	616d0c1b16a0437469b6cd74	120610229	1	main_z	11	main_z	127	stimuli_distractor_trianglediamonds.svg	stimuli_target_trianglesquares.svg	26	yes	44	1	768
6.6.1	mac	2022-12-14	14:36:38	14:48:06	685456	616d0c1b16a0437469b6cd74	120610229	1	main_z	11	advance_on_keypress_ZEE	128	stimuli_distractor_trianglediamonds.svg	stimuli_target_trianglesquares.svg	26	yes	57	0	183
6.6.1	mac	2022-12-14	14:36:38	14:48:08	687040	616d0c1b16a0437469b6cd74	120610229	1	main_z	11	main_z	129	stimuli_distractor_diamondtriangles.svg	stimuli_target_circlediamonds.svg	14	yes	44	1	767
6.6.1	mac	2022-12-14	14:36:38	14:48:08	687040	616d0c1b16a0437469b6cd74	120610229	1	main_z	11	advance_on_keypress_ZEE	130	stimuli_distractor_diamondtriangles.svg	stimuli_target_circlediamonds.svg	14	yes	57	0	222
6.6.1	mac	2022-12-14	14:36:38	14:48:09	688600	616d0c1b16a0437469b6cd74	120610229	1	main_z	11	main_z	131	stimuli_distractor_diamondtriangles.svg	stimuli_target_trianglecircles.svg	29	yes	44	1	708
6.6.1	mac	2022-12-14	14:36:38	14:48:09	688600	616d0c1b16a0437469b6cd74	120610229	1	main_z	11	advance_on_keypress_ZEE	132	stimuli_distractor_diamondtriangles.svg	stimuli_target_trianglecircles.svg	29	yes	57	0	199
6.6.1	mac	2022-12-14	14:36:38	14:48:12	691424	616d0c1b16a0437469b6cd74	120610229	1	main_z	11	main_z	133	stimuli_target_diamondsquares.svg	stimuli_distractor_diamondtriangles.svg	24	yes	0	0	2000
6.6.1	mac	2022-12-14	14:36:38	14:48:12	691424	616d0c1b16a0437469b6cd74	120610229	1	main_z	11	advance_on_keypress_ZEE	134	stimuli_target_diamondsquares.svg	stimuli_distractor_diamondtriangles.svg	24	yes	57	0	562
6.6.1	mac	2022-12-14	14:36:38	14:48:14	693384	616d0c1b16a0437469b6cd74	120610229	1	main_z	11	main_z	135	stimuli_distractor_trianglediamonds.svg	stimuli_target_diamondcircles.svg	27	yes	44	1	754
6.6.1	mac	2022-12-14	14:36:38	14:48:14	693384	616d0c1b16a0437469b6cd74	120610229	1	main_z	11	advance_on_keypress_ZEE	136	stimuli_distractor_trianglediamonds.svg	stimuli_target_diamondcircles.svg	27	yes	57	0	193
6.6.1	mac	2022-12-14	14:36:38	14:48:15	694752	616d0c1b16a0437469b6cd74	120610229	1	main_z	11	main_z	137	stimuli_target_diamondcircles.svg	stimuli_distractor_trianglediamonds.svg	19	yes	44	1	553
6.6.1	mac	2022-12-14	14:36:38	14:48:15	694752	616d0c1b16a0437469b6cd74	120610229	1	main_z	11	advance_on_keypress_ZEE	138	stimuli_target_diamondcircles.svg	stimuli_distractor_trianglediamonds.svg	19	yes	57	0	281
6.6.1	mac	2022-12-14	14:36:38	14:48:18	697665	616d0c1b16a0437469b6cd74	120610229	1	main_z	11	main_z	139	stimuli_distractor_diamondtriangles.svg	stimuli_distractor_diamondtriangles.svg	40	no	0	1	2000
6.6.1	mac	2022-12-14	14:36:38	14:48:18	697665	616d0c1b16a0437469b6cd74	120610229	1	main_z	11	advance_on_keypress_ZEE	140	stimuli_distractor_diamondtriangles.svg	stimuli_distractor_diamondtriangles.svg	40	no	57	0	778
6.6.1	mac	2022-12-14	14:36:38	14:48:20	699728	616d0c1b16a0437469b6cd74	120610229	1	main_z	11	main_z	141	stimuli_distractor_trianglediamonds.svg	stimuli_target_diamondsquares.svg	28	yes	44	1	657
6.6.1	mac	2022-12-14	14:36:38	14:48:20	699728	616d0c1b16a0437469b6cd74	120610229	1	main_z	11	advance_on_keypress_ZEE	142	stimuli_distractor_trianglediamonds.svg	stimuli_target_diamondsquares.svg	28	yes	57	0	213
6.6.1	mac	2022-12-14	14:36:38	14:48:22	701288	616d0c1b16a0437469b6cd74	120610229	1	main_z	11	main_z	143	stimuli_distractor_trianglediamonds.svg	stimuli_target_squarediamonds.svg	12	yes	44	1	717
6.6.1	mac	2022-12-14	14:36:38	14:48:22	701288	616d0c1b16a0437469b6cd74	120610229	1	main_z	11	advance_on_keypress_ZEE	144	stimuli_distractor_trianglediamonds.svg	stimuli_target_squarediamonds.svg	12	yes	57	0	181
6.6.1	mac	2022-12-14	14:36:38	14:48:23	702776	616d0c1b16a0437469b6cd74	120610229	1	main_z	11	main_z	145	stimuli_target_trianglesquares.svg	stimuli_distractor_diamondtriangles.svg	22	yes	44	1	669
6.6.1	mac	2022-12-14	14:36:38	14:48:23	702776	616d0c1b16a0437469b6cd74	120610229	1	main_z	11	advance_on_keypress_ZEE	146	stimuli_target_trianglesquares.svg	stimuli_distractor_diamondtriangles.svg	22	yes	57	0	232
6.6.1	mac	2022-12-14	14:36:38	14:48:26	705640	616d0c1b16a0437469b6cd74	120610229	1	main_z	11	main_z	147	stimuli_distractor_diamondtriangles.svg	stimuli_distractor_diamondtriangles.svg	39	no	0	1	2000
6.6.1	mac	2022-12-14	14:36:38	14:48:26	705640	616d0c1b16a0437469b6cd74	120610229	1	main_z	11	advance_on_keypress_ZEE	148	stimuli_distractor_diamondtriangles.svg	stimuli_distractor_diamondtriangles.svg	39	no	57	0	442
6.6.1	mac	2022-12-14	14:36:38	14:48:28	707432	616d0c1b16a0437469b6cd74	120610229	1	main_z	11	main_z	149	stimuli_distractor_diamondtriangles.svg	stimuli_target_circletriangles.svg	13	yes	44	1	719
6.6.1	mac	2022-12-14	14:36:38	14:48:28	707432	616d0c1b16a0437469b6cd74	120610229	1	main_z	11	advance_on_keypress_ZEE	150	stimuli_distractor_diamondtriangles.svg	stimuli_target_circletriangles.svg	13	yes	57	0	209
6.6.1	mac	2022-12-14	14:36:38	14:48:29	708896	616d0c1b16a0437469b6cd74	120610229	1	main_z	11	main_z	151	stimuli_target_diamondcircles.svg	stimuli_distractor_diamondtriangles.svg	23	yes	44	1	632
6.6.1	mac	2022-12-14	14:36:38	14:48:29	708896	616d0c1b16a0437469b6cd74	120610229	1	main_z	11	advance_on_keypress_ZEE	152	stimuli_target_diamondcircles.svg	stimuli_distractor_diamondtriangles.svg	23	yes	57	0	165
6.6.1	mac	2022-12-14	14:36:38	14:48:31	710416	616d0c1b16a0437469b6cd74	120610229	1	main_z	11	main_z	153	stimuli_distractor_diamondtriangles.svg	stimuli_target_diamondcircles.svg	31	yes	44	1	717
6.6.1	mac	2022-12-14	14:36:38	14:48:31	710416	616d0c1b16a0437469b6cd74	120610229	1	main_z	11	advance_on_keypress_ZEE	154	stimuli_distractor_diamondtriangles.svg	stimuli_target_diamondcircles.svg	31	yes	57	0	198
6.6.1	mac	2022-12-14	14:36:38	14:48:32	711904	616d0c1b16a0437469b6cd74	120610229	1	main_z	11	main_z	155	stimuli_target_squaretriangles.svg	stimuli_distractor_diamondtriangles.svg	7	yes	44	1	653
6.6.1	mac	2022-12-14	14:36:38	14:48:32	711904	616d0c1b16a0437469b6cd74	120610229	1	main_z	11	advance_on_keypress_ZEE	156	stimuli_target_squaretriangles.svg	stimuli_distractor_diamondtriangles.svg	7	yes	57	0	186
6.6.1	mac	2022-12-14	14:36:38	14:48:34	713808	616d0c1b16a0437469b6cd74	120610229	1	main_z	11	main_z	157	stimuli_distractor_diamondtriangles.svg	stimuli_target_squaretriangles.svg	15	yes	44	1	1089
6.6.1	mac	2022-12-14	14:36:38	14:48:34	713808	616d0c1b16a0437469b6cd74	120610229	1	main_z	11	advance_on_keypress_ZEE	158	stimuli_distractor_diamondtriangles.svg	stimuli_target_squaretriangles.svg	15	yes	57	0	267
6.6.1	mac	2022-12-14	14:36:38	14:48:36	715448	616d0c1b16a0437469b6cd74	120610229	1	main_z	11	main_z	159	stimuli_distractor_trianglediamonds.svg	stimuli_target_squaretriangles.svg	11	yes	44	1	743
6.6.1	mac	2022-12-14	14:36:38	14:48:36	715448	616d0c1b16a0437469b6cd74	120610229	1	main_z	11	advance_on_keypress_ZEE	160	stimuli_distractor_trianglediamonds.svg	stimuli_target_squaretriangles.svg	11	yes	57	0	232