build	computer.platform	date	time	timestamp	time_elapsed_ms	subject	group	session	blockcode	blocknum	trialcode	trialnum	stimulus_left	stimulus_right	stim_index	target_present	response	correct	latency
6.6.1	win	2022-12-14	14:27:06	14:29:14	126002	56e2d87a0756b2000da6303d	393771372	1	practice_z	5	practice_z	1	stimuli_target_circlediamonds.svg	stimuli_distractor_trianglediamonds.svg	4	yes	44	1	739
6.6.1	win	2022-12-14	14:27:06	14:29:14	126002	56e2d87a0756b2000da6303d	393771372	1	practice_z	5	advance_on_keypress_ZEE	2	stimuli_target_circlediamonds.svg	stimuli_distractor_trianglediamonds.svg	4	yes	57	0	1501
6.6.1	win	2022-12-14	14:27:06	14:29:18	130265	56e2d87a0756b2000da6303d	393771372	1	practice_z	5	practice_z	3	stimuli_target_diamondsquares.svg	stimuli_distractor_trianglediamonds.svg	6	yes	44	1	1097
6.6.1	win	2022-12-14	14:27:06	14:29:18	130265	56e2d87a0756b2000da6303d	393771372	1	practice_z	5	advance_on_keypress_ZEE	4	stimuli_target_diamondsquares.svg	stimuli_distractor_trianglediamonds.svg	6	yes	57	0	471
6.6.1	win	2022-12-14	14:27:06	14:29:21	133362	56e2d87a0756b2000da6303d	393771372	1	practice_z	5	practice_z	5	stimuli_distractor_trianglediamonds.svg	stimuli_target_squarediamonds.svg	11	yes	44	1	961
6.6.1	win	2022-12-14	14:27:06	14:29:21	133362	56e2d87a0756b2000da6303d	393771372	1	practice_z	5	advance_on_keypress_ZEE	6	stimuli_distractor_trianglediamonds.svg	stimuli_target_squarediamonds.svg	11	yes	57	0	190
6.6.1	win	2022-12-14	14:27:06	14:29:25	137205	56e2d87a0756b2000da6303d	393771372	1	practice_z	5	practice_z	7	stimuli_distractor_trianglediamonds.svg	stimuli_distractor_trianglediamonds.svg	15	no	0	1	2000
6.6.1	win	2022-12-14	14:27:06	14:29:25	137205	56e2d87a0756b2000da6303d	393771372	1	practice_z	5	advance_on_keypress_ZEE	8	stimuli_distractor_trianglediamonds.svg	stimuli_distractor_trianglediamonds.svg	15	no	57	0	1403
6.6.1	win	2022-12-14	14:27:06	14:29:30	141674	56e2d87a0756b2000da6303d	393771372	1	practice_z	5	practice_z	9	stimuli_distractor_diamondtriangles.svg	stimuli_distractor_trianglediamonds.svg	14	no	44	0	1401
6.6.1	win	2022-12-14	14:27:06	14:29:30	141674	56e2d87a0756b2000da6303d	393771372	1	practice_z	5	advance_on_keypress_ZEE	10	stimuli_distractor_diamondtriangles.svg	stimuli_distractor_trianglediamonds.svg	14	no	57	0	1622
6.6.1	win	2022-12-14	14:27:06	14:29:34	145938	56e2d87a0756b2000da6303d	393771372	1	practice_z	5	practice_z	11	stimuli_target_circlediamonds.svg	stimuli_distractor_diamondtriangles.svg	1	yes	44	1	976
6.6.1	win	2022-12-14	14:27:06	14:29:34	145938	56e2d87a0756b2000da6303d	393771372	1	practice_z	5	advance_on_keypress_ZEE	12	stimuli_target_circlediamonds.svg	stimuli_distractor_diamondtriangles.svg	1	yes	57	0	461
6.6.1	win	2022-12-14	14:27:06	14:29:38	150065	56e2d87a0756b2000da6303d	393771372	1	practice_z	5	practice_z	13	stimuli_distractor_diamondtriangles.svg	stimuli_distractor_diamondtriangles.svg	13	no	0	1	2000
6.6.1	win	2022-12-14	14:27:06	14:29:38	150065	56e2d87a0756b2000da6303d	393771372	1	practice_z	5	advance_on_keypress_ZEE	14	stimuli_distractor_diamondtriangles.svg	stimuli_distractor_diamondtriangles.svg	13	no	57	0	461
6.6.1	win	2022-12-14	14:27:06	14:29:41	153225	56e2d87a0756b2000da6303d	393771372	1	practice_z	5	practice_z	15	stimuli_distractor_diamondtriangles.svg	stimuli_target_trianglecircles.svg	9	yes	44	1	1032
6.6.1	win	2022-12-14	14:27:06	14:29:41	153225	56e2d87a0756b2000da6303d	393771372	1	practice_z	5	advance_on_keypress_ZEE	16	stimuli_distractor_diamondtriangles.svg	stimuli_target_trianglecircles.svg	9	yes	57	0	311
6.6.1	win	2022-12-14	14:27:06	14:29:44	156338	56e2d87a0756b2000da6303d	393771372	1	practice_z	5	practice_z	17	stimuli_target_squarediamonds.svg	stimuli_distractor_diamondtriangles.svg	2	yes	44	1	1137
6.6.1	win	2022-12-14	14:27:06	14:29:44	156338	56e2d87a0756b2000da6303d	393771372	1	practice_z	5	advance_on_keypress_ZEE	18	stimuli_target_squarediamonds.svg	stimuli_distractor_diamondtriangles.svg	2	yes	57	0	437
6.6.1	win	2022-12-14	14:27:06	14:29:47	159394	56e2d87a0756b2000da6303d	393771372	1	practice_z	5	practice_z	19	stimuli_distractor_diamondtriangles.svg	stimuli_target_diamondcircles.svg	8	yes	44	1	953
6.6.1	win	2022-12-14	14:27:06	14:29:47	159394	56e2d87a0756b2000da6303d	393771372	1	practice_z	5	advance_on_keypress_ZEE	20	stimuli_distractor_diamondtriangles.svg	stimuli_target_diamondcircles.svg	8	yes	57	0	406
6.6.1	win	2022-12-14	14:27:06	14:29:50	162529	56e2d87a0756b2000da6303d	393771372	1	practice_z	5	practice_z	21	stimuli_target_squarediamonds.svg	stimuli_distractor_trianglediamonds.svg	5	yes	44	1	1064
6.6.1	win	2022-12-14	14:27:06	14:29:50	162529	56e2d87a0756b2000da6303d	393771372	1	practice_z	5	advance_on_keypress_ZEE	22	stimuli_target_squarediamonds.svg	stimuli_distractor_trianglediamonds.svg	5	yes	57	0	422
6.6.1	win	2022-12-14	14:27:06	14:29:54	165602	56e2d87a0756b2000da6303d	393771372	1	practice_z	5	practice_z	23	stimuli_distractor_trianglediamonds.svg	stimuli_target_circlediamonds.svg	10	yes	44	1	984
6.6.1	win	2022-12-14	14:27:06	14:29:54	165602	56e2d87a0756b2000da6303d	393771372	1	practice_z	5	advance_on_keypress_ZEE	24	stimuli_distractor_trianglediamonds.svg	stimuli_target_circlediamonds.svg	10	yes	57	0	382
6.6.1	win	2022-12-14	14:27:06	14:29:57	168682	56e2d87a0756b2000da6303d	393771372	1	practice_z	5	practice_z	25	stimuli_target_diamondsquares.svg	stimuli_distractor_diamondtriangles.svg	3	yes	44	1	1033
6.6.1	win	2022-12-14	14:27:06	14:29:57	168682	56e2d87a0756b2000da6303d	393771372	1	practice_z	5	advance_on_keypress_ZEE	26	stimuli_target_diamondsquares.svg	stimuli_distractor_diamondtriangles.svg	3	yes	57	0	390
6.6.1	win	2022-12-14	14:27:06	14:30:00	171802	56e2d87a0756b2000da6303d	393771372	1	practice_z	5	practice_z	27	stimuli_distractor_diamondtriangles.svg	stimuli_target_circletriangles.svg	7	yes	44	1	1065
6.6.1	win	2022-12-14	14:27:06	14:30:00	171802	56e2d87a0756b2000da6303d	393771372	1	practice_z	5	advance_on_keypress_ZEE	28	stimuli_distractor_diamondtriangles.svg	stimuli_target_circletriangles.svg	7	yes	57	0	341
6.6.1	win	2022-12-14	14:27:06	14:30:03	174794	56e2d87a0756b2000da6303d	393771372	1	practice_z	5	practice_z	29	stimuli_distractor_trianglediamonds.svg	stimuli_target_diamondcircles.svg	12	yes	44	1	986
6.6.1	win	2022-12-14	14:27:06	14:30:03	174794	56e2d87a0756b2000da6303d	393771372	1	practice_z	5	advance_on_keypress_ZEE	30	stimuli_distractor_trianglediamonds.svg	stimuli_target_diamondcircles.svg	12	yes	57	0	294
6.6.1	win	2022-12-14	14:27:06	14:30:07	178753	56e2d87a0756b2000da6303d	393771372	1	practice_z	5	practice_z	31	stimuli_distractor_trianglediamonds.svg	stimuli_distractor_diamondtriangles.svg	16	no	0	1	2000
6.6.1	win	2022-12-14	14:27:06	14:30:07	178753	56e2d87a0756b2000da6303d	393771372	1	practice_z	5	advance_on_keypress_ZEE	32	stimuli_distractor_trianglediamonds.svg	stimuli_distractor_diamondtriangles.svg	16	no	57	0	310
6.6.1	win	2022-12-14	14:27:06	14:30:18	190393	56e2d87a0756b2000da6303d	393771372	1	main_z	7	main_z	1	stimuli_distractor_diamondtriangles.svg	stimuli_target_circlediamonds.svg	14	yes	44	1	734
6.6.1	win	2022-12-14	14:27:06	14:30:18	190393	56e2d87a0756b2000da6303d	393771372	1	main_z	7	advance_on_keypress_ZEE	2	stimuli_distractor_diamondtriangles.svg	stimuli_target_circlediamonds.svg	14	yes	57	0	2633
6.6.1	win	2022-12-14	14:27:06	14:30:23	194624	56e2d87a0756b2000da6303d	393771372	1	main_z	7	main_z	3	stimuli_target_diamondcircles.svg	stimuli_distractor_trianglediamonds.svg	19	yes	44	1	936
6.6.1	win	2022-12-14	14:27:06	14:30:23	194624	56e2d87a0756b2000da6303d	393771372	1	main_z	7	advance_on_keypress_ZEE	4	stimuli_target_diamondcircles.svg	stimuli_distractor_trianglediamonds.svg	19	yes	57	0	505
6.6.1	win	2022-12-14	14:27:06	14:30:25	196672	56e2d87a0756b2000da6303d	393771372	1	main_z	7	main_z	5	stimuli_target_trianglesquares.svg	stimuli_distractor_diamondtriangles.svg	22	yes	44	1	881
6.6.1	win	2022-12-14	14:27:06	14:30:25	196672	56e2d87a0756b2000da6303d	393771372	1	main_z	7	advance_on_keypress_ZEE	6	stimuli_target_trianglesquares.svg	stimuli_distractor_diamondtriangles.svg	22	yes	57	0	402
6.6.1	win	2022-12-14	14:27:06	14:30:27	198848	56e2d87a0756b2000da6303d	393771372	1	main_z	7	main_z	7	stimuli_target_squarediamonds.svg	stimuli_distractor_trianglediamonds.svg	4	yes	44	1	1113
6.6.1	win	2022-12-14	14:27:06	14:30:27	198848	56e2d87a0756b2000da6303d	393771372	1	main_z	7	advance_on_keypress_ZEE	8	stimuli_target_squarediamonds.svg	stimuli_distractor_trianglediamonds.svg	4	yes	57	0	554
6.6.1	win	2022-12-14	14:27:06	14:30:30	202063	56e2d87a0756b2000da6303d	393771372	1	main_z	7	main_z	9	stimuli_distractor_trianglediamonds.svg	stimuli_distractor_trianglediamonds.svg	34	no	0	1	2000
6.6.1	win	2022-12-14	14:27:06	14:30:30	202063	56e2d87a0756b2000da6303d	393771372	1	main_z	7	advance_on_keypress_ZEE	10	stimuli_distractor_trianglediamonds.svg	stimuli_distractor_trianglediamonds.svg	34	no	57	0	330
6.6.1	win	2022-12-14	14:27:06	14:30:32	203896	56e2d87a0756b2000da6303d	393771372	1	main_z	7	main_z	11	stimuli_target_circletriangles.svg	stimuli_distractor_diamondtriangles.svg	5	yes	44	1	842
6.6.1	win	2022-12-14	14:27:06	14:30:32	203896	56e2d87a0756b2000da6303d	393771372	1	main_z	7	advance_on_keypress_ZEE	12	stimuli_target_circletriangles.svg	stimuli_distractor_diamondtriangles.svg	5	yes	57	0	385
6.6.1	win	2022-12-14	14:27:06	14:30:34	205952	56e2d87a0756b2000da6303d	393771372	1	main_z	7	main_z	13	stimuli_target_diamondsquares.svg	stimuli_distractor_trianglediamonds.svg	20	yes	44	1	1008
6.6.1	win	2022-12-14	14:27:06	14:30:34	205952	56e2d87a0756b2000da6303d	393771372	1	main_z	7	advance_on_keypress_ZEE	14	stimuli_target_diamondsquares.svg	stimuli_distractor_trianglediamonds.svg	20	yes	57	0	417
6.6.1	win	2022-12-14	14:27:06	14:30:36	207936	56e2d87a0756b2000da6303d	393771372	1	main_z	7	main_z	15	stimuli_distractor_trianglediamonds.svg	stimuli_target_diamondcircles.svg	27	yes	44	1	905
6.6.1	win	2022-12-14	14:27:06	14:30:36	207936	56e2d87a0756b2000da6303d	393771372	1	main_z	7	advance_on_keypress_ZEE	16	stimuli_distractor_trianglediamonds.svg	stimuli_target_diamondcircles.svg	27	yes	57	0	361
6.6.1	win	2022-12-14	14:27:06	14:30:38	209960	56e2d87a0756b2000da6303d	393771372	1	main_z	7	main_z	17	stimuli_target_circletriangles.svg	stimuli_distractor_trianglediamonds.svg	1	yes	44	1	1001
6.6.1	win	2022-12-14	14:27:06	14:30:38	209960	56e2d87a0756b2000da6303d	393771372	1	main_z	7	advance_on_keypress_ZEE	18	stimuli_target_circletriangles.svg	stimuli_distractor_trianglediamonds.svg	1	yes	57	0	329
6.6.1	win	2022-12-14	14:27:06	14:30:41	212951	56e2d87a0756b2000da6303d	393771372	1	main_z	7	main_z	19	stimuli_distractor_diamondtriangles.svg	stimuli_distractor_trianglediamonds.svg	37	no	0	1	2000
6.6.1	win	2022-12-14	14:27:06	14:30:41	212951	56e2d87a0756b2000da6303d	393771372	1	main_z	7	advance_on_keypress_ZEE	20	stimuli_distractor_diamondtriangles.svg	stimuli_distractor_trianglediamonds.svg	37	no	57	0	315
6.6.1	win	2022-12-14	14:27:06	14:30:43	214927	56e2d87a0756b2000da6303d	393771372	1	main_z	7	main_z	21	stimuli_target_trianglecircles.svg	stimuli_distractor_diamondtriangles.svg	21	yes	44	1	1000
6.6.1	win	2022-12-14	14:27:06	14:30:43	214927	56e2d87a0756b2000da6303d	393771372	1	main_z	7	advance_on_keypress_ZEE	22	stimuli_target_trianglecircles.svg	stimuli_distractor_diamondtriangles.svg	21	yes	57	0	434
6.6.1	win	2022-12-14	14:27:06	14:30:45	216992	56e2d87a0756b2000da6303d	393771372	1	main_z	7	main_z	23	stimuli_distractor_trianglediamonds.svg	stimuli_target_squaretriangles.svg	11	yes	44	1	968
6.6.1	win	2022-12-14	14:27:06	14:30:45	216992	56e2d87a0756b2000da6303d	393771372	1	main_z	7	advance_on_keypress_ZEE	24	stimuli_distractor_trianglediamonds.svg	stimuli_target_squaretriangles.svg	11	yes	57	0	369
6.6.1	win	2022-12-14	14:27:06	14:30:47	218977	56e2d87a0756b2000da6303d	393771372	1	main_z	7	main_z	25	stimuli_distractor_diamondtriangles.svg	stimuli_target_diamondsquares.svg	32	yes	44	1	953
6.6.1	win	2022-12-14	14:27:06	14:30:47	218977	56e2d87a0756b2000da6303d	393771372	1	main_z	7	advance_on_keypress_ZEE	26	stimuli_distractor_diamondtriangles.svg	stimuli_target_diamondsquares.svg	32	yes	57	0	345
6.6.1	win	2022-12-14	14:27:06	14:30:49	220937	56e2d87a0756b2000da6303d	393771372	1	main_z	7	main_z	27	stimuli_target_circlediamonds.svg	stimuli_distractor_diamondtriangles.svg	6	yes	44	1	952
6.6.1	win	2022-12-14	14:27:06	14:30:49	220937	56e2d87a0756b2000da6303d	393771372	1	main_z	7	advance_on_keypress_ZEE	28	stimuli_target_circlediamonds.svg	stimuli_distractor_diamondtriangles.svg	6	yes	57	0	393
6.6.1	win	2022-12-14	14:27:06	14:30:51	222921	56e2d87a0756b2000da6303d	393771372	1	main_z	7	main_z	29	stimuli_distractor_trianglediamonds.svg	stimuli_target_squarediamonds.svg	12	yes	44	1	929
6.6.1	win	2022-12-14	14:27:06	14:30:51	222921	56e2d87a0756b2000da6303d	393771372	1	main_z	7	advance_on_keypress_ZEE	30	stimuli_distractor_trianglediamonds.svg	stimuli_target_squarediamonds.svg	12	yes	57	0	321
6.6.1	win	2022-12-14	14:27:06	14:30:53	224873	56e2d87a0756b2000da6303d	393771372	1	main_z	7	main_z	31	stimuli_distractor_trianglediamonds.svg	stimuli_target_circlediamonds.svg	10	yes	44	1	968
6.6.1	win	2022-12-14	14:27:06	14:30:53	224873	56e2d87a0756b2000da6303d	393771372	1	main_z	7	advance_on_keypress_ZEE	32	stimuli_distractor_trianglediamonds.svg	stimuli_target_circlediamonds.svg	10	yes	57	0	345
6.6.1	win	2022-12-14	14:27:06	14:30:55	226760	56e2d87a0756b2000da6303d	393771372	1	main_z	7	main_z	33	stimuli_distractor_diamondtriangles.svg	stimuli_target_circletriangles.svg	13	yes	44	1	881
6.6.1	win	2022-12-14	14:27:06	14:30:55	226760	56e2d87a0756b2000da6303d	393771372	1	main_z	7	advance_on_keypress_ZEE	34	stimuli_distractor_diamondtriangles.svg	stimuli_target_circletriangles.svg	13	yes	57	0	330
6.6.1	win	2022-12-14	14:27:06	14:30:58	229751	56e2d87a0756b2000da6303d	393771372	1	main_z	7	main_z	35	stimuli_distractor_trianglediamonds.svg	stimuli_distractor_trianglediamonds.svg	33	no	0	1	2000
6.6.1	win	2022-12-14	14:27:06	14:30:58	229751	56e2d87a0756b2000da6303d	393771372	1	main_z	7	advance_on_keypress_ZEE	36	stimuli_distractor_trianglediamonds.svg	stimuli_distractor_trianglediamonds.svg	33	no	57	0	515
6.6.1	win	2022-12-14	14:27:06	14:31:00	231768	56e2d87a0756b2000da6303d	393771372	1	main_z	7	main_z	37	stimuli_target_diamondcircles.svg	stimuli_distractor_diamondtriangles.svg	23	yes	44	1	841
6.6.1	win	2022-12-14	14:27:06	14:31:00	231768	56e2d87a0756b2000da6303d	393771372	1	main_z	7	advance_on_keypress_ZEE	38	stimuli_target_diamondcircles.svg	stimuli_distractor_diamondtriangles.svg	23	yes	57	0	386
6.6.1	win	2022-12-14	14:27:06	14:31:03	234816	56e2d87a0756b2000da6303d	393771372	1	main_z	7	main_z	39	stimuli_distractor_diamondtriangles.svg	stimuli_distractor_trianglediamonds.svg	38	no	0	1	2000
6.6.1	win	2022-12-14	14:27:06	14:31:03	234816	56e2d87a0756b2000da6303d	393771372	1	main_z	7	advance_on_keypress_ZEE	40	stimuli_distractor_diamondtriangles.svg	stimuli_distractor_trianglediamonds.svg	38	no	57	0	714
6.6.1	win	2022-12-14	14:27:06	14:31:05	237136	56e2d87a0756b2000da6303d	393771372	1	main_z	7	main_z	41	stimuli_target_trianglesquares.svg	stimuli_distractor_trianglediamonds.svg	18	yes	44	1	945
6.6.1	win	2022-12-14	14:27:06	14:31:05	237136	56e2d87a0756b2000da6303d	393771372	1	main_z	7	advance_on_keypress_ZEE	42	stimuli_target_trianglesquares.svg	stimuli_distractor_trianglediamonds.svg	18	yes	57	0	441
6.6.1	win	2022-12-14	14:27:06	14:31:07	239312	56e2d87a0756b2000da6303d	393771372	1	main_z	7	main_z	43	stimuli_target_circlediamonds.svg	stimuli_distractor_trianglediamonds.svg	2	yes	44	1	1073
6.6.1	win	2022-12-14	14:27:06	14:31:07	239312	56e2d87a0756b2000da6303d	393771372	1	main_z	7	advance_on_keypress_ZEE	44	stimuli_target_circlediamonds.svg	stimuli_distractor_trianglediamonds.svg	2	yes	57	0	649
6.6.1	win	2022-12-14	14:27:06	14:31:10	241600	56e2d87a0756b2000da6303d	393771372	1	main_z	7	main_z	45	stimuli_target_squaretriangles.svg	stimuli_distractor_diamondtriangles.svg	7	yes	44	1	977
6.6.1	win	2022-12-14	14:27:06	14:31:10	241600	56e2d87a0756b2000da6303d	393771372	1	main_z	7	advance_on_keypress_ZEE	46	stimuli_target_squaretriangles.svg	stimuli_distractor_diamondtriangles.svg	7	yes	57	0	465
6.6.1	win	2022-12-14	14:27:06	14:31:13	244727	56e2d87a0756b2000da6303d	393771372	1	main_z	7	main_z	47	stimuli_distractor_diamondtriangles.svg	stimuli_distractor_diamondtriangles.svg	39	no	0	1	2000
6.6.1	win	2022-12-14	14:27:06	14:31:13	244727	56e2d87a0756b2000da6303d	393771372	1	main_z	7	advance_on_keypress_ZEE	48	stimuli_distractor_diamondtriangles.svg	stimuli_distractor_diamondtriangles.svg	39	no	57	0	330
6.6.1	win	2022-12-14	14:27:06	14:31:15	246671	56e2d87a0756b2000da6303d	393771372	1	main_z	7	main_z	49	stimuli_distractor_trianglediamonds.svg	stimuli_target_circletriangles.svg	9	yes	44	1	953
6.6.1	win	2022-12-14	14:27:06	14:31:15	246671	56e2d87a0756b2000da6303d	393771372	1	main_z	7	advance_on_keypress_ZEE	50	stimuli_distractor_trianglediamonds.svg	stimuli_target_circletriangles.svg	9	yes	57	0	327
6.6.1	win	2022-12-14	14:27:06	14:31:18	249655	56e2d87a0756b2000da6303d	393771372	1	main_z	7	main_z	51	stimuli_distractor_diamondtriangles.svg	stimuli_distractor_diamondtriangles.svg	40	no	0	1	2000
6.6.1	win	2022-12-14	14:27:06	14:31:18	249655	56e2d87a0756b2000da6303d	393771372	1	main_z	7	advance_on_keypress_ZEE	52	stimuli_distractor_diamondtriangles.svg	stimuli_distractor_diamondtriangles.svg	40	no	57	0	330
6.6.1	win	2022-12-14	14:27:06	14:31:20	251608	56e2d87a0756b2000da6303d	393771372	1	main_z	7	main_z	53	stimuli_distractor_diamondtriangles.svg	stimuli_target_squarediamonds.svg	16	yes	44	1	961
6.6.1	win	2022-12-14	14:27:06	14:31:20	251608	56e2d87a0756b2000da6303d	393771372	1	main_z	7	advance_on_keypress_ZEE	54	stimuli_distractor_diamondtriangles.svg	stimuli_target_squarediamonds.svg	16	yes	57	0	346
6.6.1	win	2022-12-14	14:27:06	14:31:22	253664	56e2d87a0756b2000da6303d	393771372	1	main_z	7	main_z	55	stimuli_distractor_diamondtriangles.svg	stimuli_target_trianglecircles.svg	29	yes	44	1	1048
6.6.1	win	2022-12-14	14:27:06	14:31:22	253664	56e2d87a0756b2000da6303d	393771372	1	main_z	7	advance_on_keypress_ZEE	56	stimuli_distractor_diamondtriangles.svg	stimuli_target_trianglecircles.svg	29	yes	57	0	338
6.6.1	win	2022-12-14	14:27:06	14:31:25	256662	56e2d87a0756b2000da6303d	393771372	1	main_z	7	main_z	57	stimuli_distractor_trianglediamonds.svg	stimuli_distractor_diamondtriangles.svg	36	no	0	1	2000
6.6.1	win	2022-12-14	14:27:06	14:31:25	256662	56e2d87a0756b2000da6303d	393771372	1	main_z	7	advance_on_keypress_ZEE	58	stimuli_distractor_trianglediamonds.svg	stimuli_distractor_diamondtriangles.svg	36	no	57	0	252
6.6.1	win	2022-12-14	14:27:06	14:31:27	258608	56e2d87a0756b2000da6303d	393771372	1	main_z	7	main_z	59	stimuli_distractor_trianglediamonds.svg	stimuli_target_diamondsquares.svg	28	yes	44	1	1033
6.6.1	win	2022-12-14	14:27:06	14:31:27	258608	56e2d87a0756b2000da6303d	393771372	1	main_z	7	advance_on_keypress_ZEE	60	stimuli_distractor_trianglediamonds.svg	stimuli_target_diamondsquares.svg	28	yes	57	0	305
6.6.1	win	2022-12-14	14:27:06	14:31:29	261488	56e2d87a0756b2000da6303d	393771372	1	main_z	7	main_z	61	stimuli_target_squaretriangles.svg	stimuli_distractor_trianglediamonds.svg	3	yes	44	1	1913
6.6.1	win	2022-12-14	14:27:06	14:31:29	261488	56e2d87a0756b2000da6303d	393771372	1	main_z	7	advance_on_keypress_ZEE	62	stimuli_target_squaretriangles.svg	stimuli_distractor_trianglediamonds.svg	3	yes	57	0	593
6.6.1	win	2022-12-14	14:27:06	14:31:32	263912	56e2d87a0756b2000da6303d	393771372	1	main_z	7	main_z	63	stimuli_distractor_trianglediamonds.svg	stimuli_target_trianglesquares.svg	26	yes	44	1	1170
6.6.1	win	2022-12-14	14:27:06	14:31:32	263912	56e2d87a0756b2000da6303d	393771372	1	main_z	7	advance_on_keypress_ZEE	64	stimuli_distractor_trianglediamonds.svg	stimuli_target_trianglesquares.svg	26	yes	57	0	353
6.6.1	win	2022-12-14	14:27:06	14:31:34	266344	56e2d87a0756b2000da6303d	393771372	1	main_z	7	main_z	65	stimuli_distractor_trianglediamonds.svg	stimuli_distractor_diamondtriangles.svg	35	no	44	0	1417
6.6.1	win	2022-12-14	14:27:06	14:31:34	266344	56e2d87a0756b2000da6303d	393771372	1	main_z	7	advance_on_keypress_ZEE	66	stimuli_distractor_trianglediamonds.svg	stimuli_distractor_diamondtriangles.svg	35	no	57	0	465
6.6.1	win	2022-12-14	14:27:06	14:31:36	268425	56e2d87a0756b2000da6303d	393771372	1	main_z	7	main_z	67	stimuli_distractor_diamondtriangles.svg	stimuli_target_diamondcircles.svg	31	yes	44	1	952
6.6.1	win	2022-12-14	14:27:06	14:31:36	268425	56e2d87a0756b2000da6303d	393771372	1	main_z	7	advance_on_keypress_ZEE	68	stimuli_distractor_diamondtriangles.svg	stimuli_target_diamondcircles.svg	31	yes	57	0	329
6.6.1	win	2022-12-14	14:27:06	14:31:38	270376	56e2d87a0756b2000da6303d	393771372	1	main_z	7	main_z	69	stimuli_target_trianglecircles.svg	stimuli_distractor_trianglediamonds.svg	17	yes	44	1	961
6.6.1	win	2022-12-14	14:27:06	14:31:38	270376	56e2d87a0756b2000da6303d	393771372	1	main_z	7	advance_on_keypress_ZEE	70	stimuli_target_trianglecircles.svg	stimuli_distractor_trianglediamonds.svg	17	yes	57	0	329
6.6.1	win	2022-12-14	14:27:06	14:31:40	272456	56e2d87a0756b2000da6303d	393771372	1	main_z	7	main_z	71	stimuli_target_diamondsquares.svg	stimuli_distractor_diamondtriangles.svg	24	yes	44	1	1089
6.6.1	win	2022-12-14	14:27:06	14:31:40	272456	56e2d87a0756b2000da6303d	393771372	1	main_z	7	advance_on_keypress_ZEE	72	stimuli_target_diamondsquares.svg	stimuli_distractor_diamondtriangles.svg	24	yes	57	0	329
6.6.1	win	2022-12-14	14:27:06	14:31:42	274313	56e2d87a0756b2000da6303d	393771372	1	main_z	7	main_z	73	stimuli_target_squarediamonds.svg	stimuli_distractor_diamondtriangles.svg	8	yes	44	1	865
6.6.1	win	2022-12-14	14:27:06	14:31:42	274313	56e2d87a0756b2000da6303d	393771372	1	main_z	7	advance_on_keypress_ZEE	74	stimuli_target_squarediamonds.svg	stimuli_distractor_diamondtriangles.svg	8	yes	57	0	257
6.6.1	win	2022-12-14	14:27:06	14:31:44	276528	56e2d87a0756b2000da6303d	393771372	1	main_z	7	main_z	75	stimuli_distractor_diamondtriangles.svg	stimuli_target_squaretriangles.svg	15	yes	44	1	1296
6.6.1	win	2022-12-14	14:27:06	14:31:44	276528	56e2d87a0756b2000da6303d	393771372	1	main_z	7	advance_on_keypress_ZEE	76	stimuli_distractor_diamondtriangles.svg	stimuli_target_squaretriangles.svg	15	yes	57	0	265
6.6.1	win	2022-12-14	14:27:06	14:31:46	278489	56e2d87a0756b2000da6303d	393771372	1	main_z	7	main_z	77	stimuli_distractor_trianglediamonds.svg	stimuli_target_trianglecircles.svg	25	yes	44	1	1033
6.6.1	win	2022-12-14	14:27:06	14:31:46	278489	56e2d87a0756b2000da6303d	393771372	1	main_z	7	advance_on_keypress_ZEE	78	stimuli_distractor_trianglediamonds.svg	stimuli_target_trianglecircles.svg	25	yes	57	0	297
6.6.1	win	2022-12-14	14:27:06	14:31:48	280320	56e2d87a0756b2000da6303d	393771372	1	main_z	7	main_z	79	stimuli_distractor_diamondtriangles.svg	stimuli_target_trianglesquares.svg	30	yes	44	1	873
6.6.1	win	2022-12-14	14:27:06	14:31:48	280320	56e2d87a0756b2000da6303d	393771372	1	main_z	7	advance_on_keypress_ZEE	80	stimuli_distractor_diamondtriangles.svg	stimuli_target_trianglesquares.svg	30	yes	57	0	273
6.6.1	win	2022-12-14	14:27:06	14:31:50	282088	56e2d87a0756b2000da6303d	393771372	1	main_z	7	main_z	81	stimuli_target_circletriangles.svg	stimuli_distractor_diamondtriangles.svg	5	yes	44	1	833
6.6.1	win	2022-12-14	14:27:06	14:31:50	282088	56e2d87a0756b2000da6303d	393771372	1	main_z	7	advance_on_keypress_ZEE	82	stimuli_target_circletriangles.svg	stimuli_distractor_diamondtriangles.svg	5	yes	57	0	282
6.6.1	win	2022-12-14	14:27:06	14:31:52	283848	56e2d87a0756b2000da6303d	393771372	1	main_z	7	main_z	83	stimuli_distractor_diamondtriangles.svg	stimuli_target_diamondsquares.svg	32	yes	44	1	817
6.6.1	win	2022-12-14	14:27:06	14:31:52	283848	56e2d87a0756b2000da6303d	393771372	1	main_z	7	advance_on_keypress_ZEE	84	stimuli_distractor_diamondtriangles.svg	stimuli_target_diamondsquares.svg	32	yes	57	0	273
6.6.1	win	2022-12-14	14:27:06	14:31:54	285921	56e2d87a0756b2000da6303d	393771372	1	main_z	7	main_z	85	stimuli_target_diamondsquares.svg	stimuli_distractor_trianglediamonds.svg	20	yes	44	1	1138
6.6.1	win	2022-12-14	14:27:06	14:31:54	285921	56e2d87a0756b2000da6303d	393771372	1	main_z	7	advance_on_keypress_ZEE	86	stimuli_target_diamondsquares.svg	stimuli_distractor_trianglediamonds.svg	20	yes	57	0	321
6.6.1	win	2022-12-14	14:27:06	14:31:56	287704	56e2d87a0756b2000da6303d	393771372	1	main_z	7	main_z	87	stimuli_target_trianglecircles.svg	stimuli_distractor_trianglediamonds.svg	17	yes	44	1	801
6.6.1	win	2022-12-14	14:27:06	14:31:56	287704	56e2d87a0756b2000da6303d	393771372	1	main_z	7	advance_on_keypress_ZEE	88	stimuli_target_trianglecircles.svg	stimuli_distractor_trianglediamonds.svg	17	yes	57	0	257
6.6.1	win	2022-12-14	14:27:06	14:31:57	289449	56e2d87a0756b2000da6303d	393771372	1	main_z	7	main_z	89	stimuli_distractor_diamondtriangles.svg	stimuli_target_circletriangles.svg	13	yes	44	1	825
6.6.1	win	2022-12-14	14:27:06	14:31:57	289449	56e2d87a0756b2000da6303d	393771372	1	main_z	7	advance_on_keypress_ZEE	90	stimuli_distractor_diamondtriangles.svg	stimuli_target_circletriangles.svg	13	yes	57	0	4017
6.6.1	win	2022-12-14	14:27:06	14:32:03	294856	56e2d87a0756b2000da6303d	393771372	1	main_z	7	main_z	91	stimuli_target_squarediamonds.svg	stimuli_distractor_trianglediamonds.svg	4	yes	44	1	730
6.6.1	win	2022-12-14	14:27:06	14:32:03	294856	56e2d87a0756b2000da6303d	393771372	1	main_z	7	advance_on_keypress_ZEE	92	stimuli_target_squarediamonds.svg	stimuli_distractor_trianglediamonds.svg	4	yes	57	0	714
6.6.1	win	2022-12-14	14:27:06	14:32:05	296960	56e2d87a0756b2000da6303d	393771372	1	main_z	7	main_z	93	stimuli_distractor_trianglediamonds.svg	stimuli_target_squaretriangles.svg	11	yes	44	1	729
6.6.1	win	2022-12-14	14:27:06	14:32:05	296960	56e2d87a0756b2000da6303d	393771372	1	main_z	7	advance_on_keypress_ZEE	94	stimuli_distractor_trianglediamonds.svg	stimuli_target_squaretriangles.svg	11	yes	57	0	434
6.6.1	win	2022-12-14	14:27:06	14:32:08	300055	56e2d87a0756b2000da6303d	393771372	1	main_z	7	main_z	95	stimuli_distractor_trianglediamonds.svg	stimuli_distractor_diamondtriangles.svg	35	no	0	1	2000
6.6.1	win	2022-12-14	14:27:06	14:32:08	300055	56e2d87a0756b2000da6303d	393771372	1	main_z	7	advance_on_keypress_ZEE	96	stimuli_distractor_trianglediamonds.svg	stimuli_distractor_diamondtriangles.svg	35	no	57	0	291
6.6.1	win	2022-12-14	14:27:06	14:32:10	302081	56e2d87a0756b2000da6303d	393771372	1	main_z	7	main_z	97	stimuli_distractor_diamondtriangles.svg	stimuli_target_squarediamonds.svg	16	yes	44	1	1073
6.6.1	win	2022-12-14	14:27:06	14:32:10	302081	56e2d87a0756b2000da6303d	393771372	1	main_z	7	advance_on_keypress_ZEE	98	stimuli_distractor_diamondtriangles.svg	stimuli_target_squarediamonds.svg	16	yes	57	0	337
6.6.1	win	2022-12-14	14:27:06	14:32:12	304016	56e2d87a0756b2000da6303d	393771372	1	main_z	7	main_z	99	stimuli_distractor_diamondtriangles.svg	stimuli_target_diamondcircles.svg	31	yes	44	1	937
6.6.1	win	2022-12-14	14:27:06	14:32:12	304016	56e2d87a0756b2000da6303d	393771372	1	main_z	7	advance_on_keypress_ZEE	100	stimuli_distractor_diamondtriangles.svg	stimuli_target_diamondcircles.svg	31	yes	57	0	290
6.6.1	win	2022-12-14	14:27:06	14:32:14	305953	56e2d87a0756b2000da6303d	393771372	1	main_z	7	main_z	101	stimuli_target_circlediamonds.svg	stimuli_distractor_diamondtriangles.svg	6	yes	44	1	985
6.6.1	win	2022-12-14	14:27:06	14:32:14	305953	56e2d87a0756b2000da6303d	393771372	1	main_z	7	advance_on_keypress_ZEE	102	stimuli_target_circlediamonds.svg	stimuli_distractor_diamondtriangles.svg	6	yes	57	0	249
6.6.1	win	2022-12-14	14:27:06	14:32:16	307840	56e2d87a0756b2000da6303d	393771372	1	main_z	7	main_z	103	stimuli_distractor_trianglediamonds.svg	stimuli_target_diamondsquares.svg	28	yes	44	1	976
6.6.1	win	2022-12-14	14:27:06	14:32:16	307840	56e2d87a0756b2000da6303d	393771372	1	main_z	7	advance_on_keypress_ZEE	104	stimuli_distractor_trianglediamonds.svg	stimuli_target_diamondsquares.svg	28	yes	57	0	233
6.6.1	win	2022-12-14	14:27:06	14:32:18	309704	56e2d87a0756b2000da6303d	393771372	1	main_z	7	main_z	105	stimuli_distractor_diamondtriangles.svg	stimuli_target_trianglecircles.svg	29	yes	44	1	969
6.6.1	win	2022-12-14	14:27:06	14:32:18	309704	56e2d87a0756b2000da6303d	393771372	1	main_z	7	advance_on_keypress_ZEE	106	stimuli_distractor_diamondtriangles.svg	stimuli_target_trianglecircles.svg	29	yes	57	0	298
6.6.1	win	2022-12-14	14:27:06	14:32:20	311632	56e2d87a0756b2000da6303d	393771372	1	main_z	7	main_z	107	stimuli_target_circlediamonds.svg	stimuli_distractor_trianglediamonds.svg	2	yes	44	1	970
6.6.1	win	2022-12-14	14:27:06	14:32:20	311632	56e2d87a0756b2000da6303d	393771372	1	main_z	7	advance_on_keypress_ZEE	108	stimuli_target_circlediamonds.svg	stimuli_distractor_trianglediamonds.svg	2	yes	57	0	258
6.6.1	win	2022-12-14	14:27:06	14:32:21	313481	56e2d87a0756b2000da6303d	393771372	1	main_z	7	main_z	109	stimuli_distractor_diamondtriangles.svg	stimuli_target_trianglesquares.svg	30	yes	44	1	929
6.6.1	win	2022-12-14	14:27:06	14:32:21	313481	56e2d87a0756b2000da6303d	393771372	1	main_z	7	advance_on_keypress_ZEE	110	stimuli_distractor_diamondtriangles.svg	stimuli_target_trianglesquares.svg	30	yes	57	0	216
6.6.1	win	2022-12-14	14:27:06	14:32:24	316360	56e2d87a0756b2000da6303d	393771372	1	main_z	7	main_z	111	stimuli_distractor_trianglediamonds.svg	stimuli_distractor_trianglediamonds.svg	34	no	0	1	2000
6.6.1	win	2022-12-14	14:27:06	14:32:24	316360	56e2d87a0756b2000da6303d	393771372	1	main_z	7	advance_on_keypress_ZEE	112	stimuli_distractor_trianglediamonds.svg	stimuli_distractor_trianglediamonds.svg	34	no	57	0	298
6.6.1	win	2022-12-14	14:27:06	14:32:26	318120	56e2d87a0756b2000da6303d	393771372	1	main_z	7	main_z	113	stimuli_target_trianglesquares.svg	stimuli_distractor_trianglediamonds.svg	18	yes	44	1	801
6.6.1	win	2022-12-14	14:27:06	14:32:26	318120	56e2d87a0756b2000da6303d	393771372	1	main_z	7	advance_on_keypress_ZEE	114	stimuli_target_trianglesquares.svg	stimuli_distractor_trianglediamonds.svg	18	yes	57	0	329
6.6.1	win	2022-12-14	14:27:06	14:32:28	320560	56e2d87a0756b2000da6303d	393771372	1	main_z	7	main_z	115	stimuli_distractor_diamondtriangles.svg	stimuli_target_squaretriangles.svg	15	yes	44	1	1449
6.6.1	win	2022-12-14	14:27:06	14:32:28	320560	56e2d87a0756b2000da6303d	393771372	1	main_z	7	advance_on_keypress_ZEE	116	stimuli_distractor_diamondtriangles.svg	stimuli_target_squaretriangles.svg	15	yes	57	0	385
6.6.1	win	2022-12-14	14:27:06	14:32:32	323606	56e2d87a0756b2000da6303d	393771372	1	main_z	7	main_z	117	stimuli_distractor_trianglediamonds.svg	stimuli_distractor_trianglediamonds.svg	33	no	0	1	2000
6.6.1	win	2022-12-14	14:27:06	14:32:32	323606	56e2d87a0756b2000da6303d	393771372	1	main_z	7	advance_on_keypress_ZEE	118	stimuli_distractor_trianglediamonds.svg	stimuli_distractor_trianglediamonds.svg	33	no	57	0	283
6.6.1	win	2022-12-14	14:27:06	14:32:33	325496	56e2d87a0756b2000da6303d	393771372	1	main_z	7	main_z	119	stimuli_target_squaretriangles.svg	stimuli_distractor_trianglediamonds.svg	3	yes	44	1	945
6.6.1	win	2022-12-14	14:27:06	14:32:33	325496	56e2d87a0756b2000da6303d	393771372	1	main_z	7	advance_on_keypress_ZEE	120	stimuli_target_squaretriangles.svg	stimuli_distractor_trianglediamonds.svg	3	yes	57	0	314
6.6.1	win	2022-12-14	14:27:06	14:32:35	327249	56e2d87a0756b2000da6303d	393771372	1	main_z	7	main_z	121	stimuli_target_squarediamonds.svg	stimuli_distractor_diamondtriangles.svg	8	yes	44	1	777
6.6.1	win	2022-12-14	14:27:06	14:32:35	327249	56e2d87a0756b2000da6303d	393771372	1	main_z	7	advance_on_keypress_ZEE	122	stimuli_target_squarediamonds.svg	stimuli_distractor_diamondtriangles.svg	8	yes	57	0	289
6.6.1	win	2022-12-14	14:27:06	14:32:37	329120	56e2d87a0756b2000da6303d	393771372	1	main_z	7	main_z	123	stimuli_distractor_trianglediamonds.svg	stimuli_target_diamondcircles.svg	27	yes	44	1	921
6.6.1	win	2022-12-14	14:27:06	14:32:37	329120	56e2d87a0756b2000da6303d	393771372	1	main_z	7	advance_on_keypress_ZEE	124	stimuli_distractor_trianglediamonds.svg	stimuli_target_diamondcircles.svg	27	yes	57	0	193
6.6.1	win	2022-12-14	14:27:06	14:32:39	330896	56e2d87a0756b2000da6303d	393771372	1	main_z	7	main_z	125	stimuli_distractor_trianglediamonds.svg	stimuli_target_circletriangles.svg	9	yes	44	1	920
6.6.1	win	2022-12-14	14:27:06	14:32:39	330896	56e2d87a0756b2000da6303d	393771372	1	main_z	7	advance_on_keypress_ZEE	126	stimuli_distractor_trianglediamonds.svg	stimuli_target_circletriangles.svg	9	yes	57	0	257
6.6.1	win	2022-12-14	14:27:06	14:32:41	333264	56e2d87a0756b2000da6303d	393771372	1	main_z	7	main_z	127	stimuli_distractor_trianglediamonds.svg	stimuli_distractor_diamondtriangles.svg	36	no	44	0	1448
6.6.1	win	2022-12-14	14:27:06	14:32:41	333264	56e2d87a0756b2000da6303d	393771372	1	main_z	7	advance_on_keypress_ZEE	128	stimuli_distractor_trianglediamonds.svg	stimuli_distractor_diamondtriangles.svg	36	no	57	0	178
6.6.1	win	2022-12-14	14:27:06	14:32:43	335129	56e2d87a0756b2000da6303d	393771372	1	main_z	7	main_z	129	stimuli_distractor_trianglediamonds.svg	stimuli_target_trianglesquares.svg	26	yes	44	1	1025
6.6.1	win	2022-12-14	14:27:06	14:32:43	335129	56e2d87a0756b2000da6303d	393771372	1	main_z	7	advance_on_keypress_ZEE	130	stimuli_distractor_trianglediamonds.svg	stimuli_target_trianglesquares.svg	26	yes	57	0	185
6.6.1	win	2022-12-14	14:27:06	14:32:46	337969	56e2d87a0756b2000da6303d	393771372	1	main_z	7	main_z	131	stimuli_distractor_diamondtriangles.svg	stimuli_distractor_diamondtriangles.svg	40	no	0	1	2000
6.6.1	win	2022-12-14	14:27:06	14:32:46	337969	56e2d87a0756b2000da6303d	393771372	1	main_z	7	advance_on_keypress_ZEE	132	stimuli_distractor_diamondtriangles.svg	stimuli_distractor_diamondtriangles.svg	40	no	57	0	305
6.6.1	win	2022-12-14	14:27:06	14:32:49	340934	56e2d87a0756b2000da6303d	393771372	1	main_z	7	main_z	133	stimuli_distractor_diamondtriangles.svg	stimuli_distractor_diamondtriangles.svg	39	no	0	1	2000
6.6.1	win	2022-12-14	14:27:06	14:32:49	340934	56e2d87a0756b2000da6303d	393771372	1	main_z	7	advance_on_keypress_ZEE	134	stimuli_distractor_diamondtriangles.svg	stimuli_distractor_diamondtriangles.svg	39	no	57	0	292
6.6.1	win	2022-12-14	14:27:06	14:32:51	342921	56e2d87a0756b2000da6303d	393771372	1	main_z	7	main_z	135	stimuli_distractor_trianglediamonds.svg	stimuli_target_trianglecircles.svg	25	yes	44	1	1033
6.6.1	win	2022-12-14	14:27:06	14:32:51	342921	56e2d87a0756b2000da6303d	393771372	1	main_z	7	advance_on_keypress_ZEE	136	stimuli_distractor_trianglediamonds.svg	stimuli_target_trianglecircles.svg	25	yes	57	0	249
6.6.1	win	2022-12-14	14:27:06	14:32:53	344784	56e2d87a0756b2000da6303d	393771372	1	main_z	7	main_z	137	stimuli_distractor_trianglediamonds.svg	stimuli_target_circlediamonds.svg	10	yes	44	1	953
6.6.1	win	2022-12-14	14:27:06	14:32:53	344784	56e2d87a0756b2000da6303d	393771372	1	main_z	7	advance_on_keypress_ZEE	138	stimuli_distractor_trianglediamonds.svg	stimuli_target_circlediamonds.svg	10	yes	57	0	217
6.6.1	win	2022-12-14	14:27:06	14:32:54	346512	56e2d87a0756b2000da6303d	393771372	1	main_z	7	main_z	139	stimuli_target_squaretriangles.svg	stimuli_distractor_diamondtriangles.svg	7	yes	44	1	848
6.6.1	win	2022-12-14	14:27:06	14:32:54	346512	56e2d87a0756b2000da6303d	393771372	1	main_z	7	advance_on_keypress_ZEE	140	stimuli_target_squaretriangles.svg	stimuli_distractor_diamondtriangles.svg	7	yes	57	0	218
6.6.1	win	2022-12-14	14:27:06	14:32:57	349391	56e2d87a0756b2000da6303d	393771372	1	main_z	7	main_z	141	stimuli_distractor_diamondtriangles.svg	stimuli_distractor_trianglediamonds.svg	37	no	0	1	2000
6.6.1	win	2022-12-14	14:27:06	14:32:57	349391	56e2d87a0756b2000da6303d	393771372	1	main_z	7	advance_on_keypress_ZEE	142	stimuli_distractor_diamondtriangles.svg	stimuli_distractor_trianglediamonds.svg	37	no	57	0	426
6.6.1	win	2022-12-14	14:27:06	14:32:59	351136	56e2d87a0756b2000da6303d	393771372	1	main_z	7	main_z	143	stimuli_target_circletriangles.svg	stimuli_distractor_trianglediamonds.svg	1	yes	44	1	657
6.6.1	win	2022-12-14	14:27:06	14:32:59	351136	56e2d87a0756b2000da6303d	393771372	1	main_z	7	advance_on_keypress_ZEE	144	stimuli_target_circletriangles.svg	stimuli_distractor_trianglediamonds.svg	1	yes	57	0	345
6.6.1	win	2022-12-14	14:27:06	14:33:01	353001	56e2d87a0756b2000da6303d	393771372	1	main_z	7	main_z	145	stimuli_target_trianglesquares.svg	stimuli_distractor_diamondtriangles.svg	22	yes	44	1	857
6.6.1	win	2022-12-14	14:27:06	14:33:01	353001	56e2d87a0756b2000da6303d	393771372	1	main_z	7	advance_on_keypress_ZEE	146	stimuli_target_trianglesquares.svg	stimuli_distractor_diamondtriangles.svg	22	yes	57	0	257
6.6.1	win	2022-12-14	14:27:06	14:33:03	355048	56e2d87a0756b2000da6303d	393771372	1	main_z	7	main_z	147	stimuli_distractor_trianglediamonds.svg	stimuli_target_squarediamonds.svg	12	yes	44	1	1129
6.6.1	win	2022-12-14	14:27:06	14:33:03	355048	56e2d87a0756b2000da6303d	393771372	1	main_z	7	advance_on_keypress_ZEE	148	stimuli_distractor_trianglediamonds.svg	stimuli_target_squarediamonds.svg	12	yes	57	0	226
6.6.1	win	2022-12-14	14:27:06	14:33:05	357320	56e2d87a0756b2000da6303d	393771372	1	main_z	7	main_z	149	stimuli_target_diamondsquares.svg	stimuli_distractor_diamondtriangles.svg	24	yes	44	1	1385
6.6.1	win	2022-12-14	14:27:06	14:33:05	357320	56e2d87a0756b2000da6303d	393771372	1	main_z	7	advance_on_keypress_ZEE	150	stimuli_target_diamondsquares.svg	stimuli_distractor_diamondtriangles.svg	24	yes	57	0	250
6.6.1	win	2022-12-14	14:27:06	14:33:08	360231	56e2d87a0756b2000da6303d	393771372	1	main_z	7	main_z	151	stimuli_distractor_diamondtriangles.svg	stimuli_distractor_trianglediamonds.svg	38	no	0	1	2000
6.6.1	win	2022-12-14	14:27:06	14:33:08	360231	56e2d87a0756b2000da6303d	393771372	1	main_z	7	advance_on_keypress_ZEE	152	stimuli_distractor_diamondtriangles.svg	stimuli_distractor_trianglediamonds.svg	38	no	57	0	307
6.6.1	win	2022-12-14	14:27:06	14:33:10	362113	56e2d87a0756b2000da6303d	393771372	1	main_z	7	main_z	153	stimuli_target_diamondcircles.svg	stimuli_distractor_diamondtriangles.svg	23	yes	44	1	913
6.6.1	win	2022-12-14	14:27:06	14:33:10	362113	56e2d87a0756b2000da6303d	393771372	1	main_z	7	advance_on_keypress_ZEE	154	stimuli_target_diamondcircles.svg	stimuli_distractor_diamondtriangles.svg	23	yes	57	0	265
6.6.1	win	2022-12-14	14:27:06	14:33:12	363800	56e2d87a0756b2000da6303d	393771372	1	main_z	7	main_z	155	stimuli_target_diamondcircles.svg	stimuli_distractor_trianglediamonds.svg	19	yes	44	1	760
6.6.1	win	2022-12-14	14:27:06	14:33:12	363800	56e2d87a0756b2000da6303d	393771372	1	main_z	7	advance_on_keypress_ZEE	156	stimuli_target_diamondcircles.svg	stimuli_distractor_trianglediamonds.svg	19	yes	57	0	273
6.6.1	win	2022-12-14	14:27:06	14:33:13	365480	56e2d87a0756b2000da6303d	393771372	1	main_z	7	main_z	157	stimuli_distractor_diamondtriangles.svg	stimuli_target_circlediamonds.svg	14	yes	44	1	746
6.6.1	win	2022-12-14	14:27:06	14:33:13	365480	56e2d87a0756b2000da6303d	393771372	1	main_z	7	advance_on_keypress_ZEE	158	stimuli_distractor_diamondtriangles.svg	stimuli_target_circlediamonds.svg	14	yes	57	0	257
6.6.1	win	2022-12-14	14:27:06	14:33:15	367088	56e2d87a0756b2000da6303d	393771372	1	main_z	7	main_z	159	stimuli_target_trianglecircles.svg	stimuli_distractor_diamondtriangles.svg	21	yes	44	1	688
6.6.1	win	2022-12-14	14:27:06	14:33:15	367088	56e2d87a0756b2000da6303d	393771372	1	main_z	7	advance_on_keypress_ZEE	160	stimuli_target_trianglecircles.svg	stimuli_distractor_diamondtriangles.svg	21	yes	57	0	202
6.6.1	win	2022-12-14	14:27:06	14:33:36	388225	56e2d87a0756b2000da6303d	393771372	1	practice_slash	9	practice_slash	1	stimuli_distractor_trianglediamonds.svg	stimuli_target_squarediamonds.svg	11	yes	53	1	688
6.6.1	win	2022-12-14	14:27:06	14:33:36	388225	56e2d87a0756b2000da6303d	393771372	1	practice_slash	9	advance_on_keypress_SLASH	2	stimuli_distractor_trianglediamonds.svg	stimuli_target_squarediamonds.svg	11	yes	57	0	478
6.6.1	win	2022-12-14	14:27:06	14:33:39	391290	56e2d87a0756b2000da6303d	393771372	1	practice_slash	9	practice_slash	3	stimuli_target_diamondsquares.svg	stimuli_distractor_diamondtriangles.svg	3	yes	53	1	921
6.6.1	win	2022-12-14	14:27:06	14:33:39	391290	56e2d87a0756b2000da6303d	393771372	1	practice_slash	9	advance_on_keypress_SLASH	4	stimuli_target_diamondsquares.svg	stimuli_distractor_diamondtriangles.svg	3	yes	57	0	310
6.6.1	win	2022-12-14	14:27:06	14:33:43	395266	56e2d87a0756b2000da6303d	393771372	1	practice_slash	9	practice_slash	5	stimuli_distractor_trianglediamonds.svg	stimuli_distractor_trianglediamonds.svg	15	no	0	1	2000
6.6.1	win	2022-12-14	14:27:06	14:33:43	395266	56e2d87a0756b2000da6303d	393771372	1	practice_slash	9	advance_on_keypress_SLASH	6	stimuli_distractor_trianglediamonds.svg	stimuli_distractor_trianglediamonds.svg	15	no	57	0	318
6.6.1	win	2022-12-14	14:27:06	14:33:46	398178	56e2d87a0756b2000da6303d	393771372	1	practice_slash	9	practice_slash	7	stimuli_target_circlediamonds.svg	stimuli_distractor_trianglediamonds.svg	4	yes	53	1	930
6.6.1	win	2022-12-14	14:27:06	14:33:46	398178	56e2d87a0756b2000da6303d	393771372	1	practice_slash	9	advance_on_keypress_SLASH	8	stimuli_target_circlediamonds.svg	stimuli_distractor_trianglediamonds.svg	4	yes	57	0	334
6.6.1	win	2022-12-14	14:27:06	14:33:49	401419	56e2d87a0756b2000da6303d	393771372	1	practice_slash	9	practice_slash	9	stimuli_target_squarediamonds.svg	stimuli_distractor_trianglediamonds.svg	5	yes	53	1	1242
6.6.1	win	2022-12-14	14:27:06	14:33:49	401419	56e2d87a0756b2000da6303d	393771372	1	practice_slash	9	advance_on_keypress_SLASH	10	stimuli_target_squarediamonds.svg	stimuli_distractor_trianglediamonds.svg	5	yes	57	0	357
6.6.1	win	2022-12-14	14:27:06	14:33:53	405442	56e2d87a0756b2000da6303d	393771372	1	practice_slash	9	practice_slash	11	stimuli_distractor_trianglediamonds.svg	stimuli_distractor_diamondtriangles.svg	16	no	0	1	2000
6.6.1	win	2022-12-14	14:27:06	14:33:53	405442	56e2d87a0756b2000da6303d	393771372	1	practice_slash	9	advance_on_keypress_SLASH	12	stimuli_distractor_trianglediamonds.svg	stimuli_distractor_diamondtriangles.svg	16	no	57	0	422
6.6.1	win	2022-12-14	14:27:06	14:33:56	408505	56e2d87a0756b2000da6303d	393771372	1	practice_slash	9	practice_slash	13	stimuli_distractor_trianglediamonds.svg	stimuli_target_diamondcircles.svg	12	yes	53	1	978
6.6.1	win	2022-12-14	14:27:06	14:33:56	408505	56e2d87a0756b2000da6303d	393771372	1	practice_slash	9	advance_on_keypress_SLASH	14	stimuli_distractor_trianglediamonds.svg	stimuli_target_diamondcircles.svg	12	yes	57	0	543
6.6.1	win	2022-12-14	14:27:06	14:34:01	412713	56e2d87a0756b2000da6303d	393771372	1	practice_slash	9	practice_slash	15	stimuli_distractor_diamondtriangles.svg	stimuli_distractor_diamondtriangles.svg	13	no	0	1	2000
6.6.1	win	2022-12-14	14:27:06	14:34:01	412713	56e2d87a0756b2000da6303d	393771372	1	practice_slash	9	advance_on_keypress_SLASH	16	stimuli_distractor_diamondtriangles.svg	stimuli_distractor_diamondtriangles.svg	13	no	57	0	719
6.6.1	win	2022-12-14	14:27:06	14:34:04	416163	56e2d87a0756b2000da6303d	393771372	1	practice_slash	9	practice_slash	17	stimuli_target_squarediamonds.svg	stimuli_distractor_diamondtriangles.svg	2	yes	53	1	1066
6.6.1	win	2022-12-14	14:27:06	14:34:04	416163	56e2d87a0756b2000da6303d	393771372	1	practice_slash	9	advance_on_keypress_SLASH	18	stimuli_target_squarediamonds.svg	stimuli_distractor_diamondtriangles.svg	2	yes	57	0	597
6.6.1	win	2022-12-14	14:27:06	14:34:07	419378	56e2d87a0756b2000da6303d	393771372	1	practice_slash	9	practice_slash	19	stimuli_target_circlediamonds.svg	stimuli_distractor_diamondtriangles.svg	1	yes	53	1	953
6.6.1	win	2022-12-14	14:27:06	14:34:07	419378	56e2d87a0756b2000da6303d	393771372	1	practice_slash	9	advance_on_keypress_SLASH	20	stimuli_target_circlediamonds.svg	stimuli_distractor_diamondtriangles.svg	1	yes	57	0	494
6.6.1	win	2022-12-14	14:27:06	14:34:11	423537	56e2d87a0756b2000da6303d	393771372	1	practice_slash	9	practice_slash	21	stimuli_distractor_diamondtriangles.svg	stimuli_distractor_trianglediamonds.svg	14	no	0	1	2000
6.6.1	win	2022-12-14	14:27:06	14:34:11	423537	56e2d87a0756b2000da6303d	393771372	1	practice_slash	9	advance_on_keypress_SLASH	22	stimuli_distractor_diamondtriangles.svg	stimuli_distractor_trianglediamonds.svg	14	no	57	0	551
6.6.1	win	2022-12-14	14:27:06	14:34:15	426617	56e2d87a0756b2000da6303d	393771372	1	practice_slash	9	practice_slash	23	stimuli_target_diamondsquares.svg	stimuli_distractor_trianglediamonds.svg	6	yes	53	1	865
6.6.1	win	2022-12-14	14:27:06	14:34:15	426617	56e2d87a0756b2000da6303d	393771372	1	practice_slash	9	advance_on_keypress_SLASH	24	stimuli_target_diamondsquares.svg	stimuli_distractor_trianglediamonds.svg	6	yes	57	0	663
6.6.1	win	2022-12-14	14:27:06	14:34:18	429938	56e2d87a0756b2000da6303d	393771372	1	practice_slash	9	practice_slash	25	stimuli_distractor_trianglediamonds.svg	stimuli_target_circlediamonds.svg	10	yes	53	1	993
6.6.1	win	2022-12-14	14:27:06	14:34:18	429938	56e2d87a0756b2000da6303d	393771372	1	practice_slash	9	advance_on_keypress_SLASH	26	stimuli_distractor_trianglediamonds.svg	stimuli_target_circlediamonds.svg	10	yes	57	0	438
6.6.1	win	2022-12-14	14:27:06	14:34:21	432914	56e2d87a0756b2000da6303d	393771372	1	practice_slash	9	practice_slash	27	stimuli_distractor_diamondtriangles.svg	stimuli_target_circletriangles.svg	7	yes	53	1	873
6.6.1	win	2022-12-14	14:27:06	14:34:21	432914	56e2d87a0756b2000da6303d	393771372	1	practice_slash	9	advance_on_keypress_SLASH	28	stimuli_distractor_diamondtriangles.svg	stimuli_target_circletriangles.svg	7	yes	57	0	526
6.6.1	win	2022-12-14	14:27:06	14:34:24	436034	56e2d87a0756b2000da6303d	393771372	1	practice_slash	9	practice_slash	29	stimuli_distractor_diamondtriangles.svg	stimuli_target_trianglecircles.svg	9	yes	53	1	929
6.6.1	win	2022-12-14	14:27:06	14:34:24	436034	56e2d87a0756b2000da6303d	393771372	1	practice_slash	9	advance_on_keypress_SLASH	30	stimuli_distractor_diamondtriangles.svg	stimuli_target_trianglecircles.svg	9	yes	57	0	550
6.6.1	win	2022-12-14	14:27:06	14:34:27	438994	56e2d87a0756b2000da6303d	393771372	1	practice_slash	9	practice_slash	31	stimuli_distractor_diamondtriangles.svg	stimuli_target_diamondcircles.svg	8	yes	53	1	745
6.6.1	win	2022-12-14	14:27:06	14:34:27	438994	56e2d87a0756b2000da6303d	393771372	1	practice_slash	9	advance_on_keypress_SLASH	32	stimuli_distractor_diamondtriangles.svg	stimuli_target_diamondcircles.svg	8	yes	57	0	430
6.6.1	win	2022-12-14	14:27:06	14:34:32	444022	56e2d87a0756b2000da6303d	393771372	1	main_slash	11	main_slash	1	stimuli_target_diamondcircles.svg	stimuli_distractor_trianglediamonds.svg	19	yes	53	1	686
6.6.1	win	2022-12-14	14:27:06	14:34:32	444022	56e2d87a0756b2000da6303d	393771372	1	main_slash	11	advance_on_keypress_SLASH	2	stimuli_target_diamondcircles.svg	stimuli_distractor_trianglediamonds.svg	19	yes	57	0	674
6.6.1	win	2022-12-14	14:27:06	14:34:34	446086	56e2d87a0756b2000da6303d	393771372	1	main_slash	11	main_slash	3	stimuli_target_circletriangles.svg	stimuli_distractor_trianglediamonds.svg	1	yes	53	1	729
6.6.1	win	2022-12-14	14:27:06	14:34:34	446086	56e2d87a0756b2000da6303d	393771372	1	main_slash	11	advance_on_keypress_SLASH	4	stimuli_target_circletriangles.svg	stimuli_distractor_trianglediamonds.svg	1	yes	57	0	538
6.6.1	win	2022-12-14	14:27:06	14:34:36	447974	56e2d87a0756b2000da6303d	393771372	1	main_slash	11	main_slash	5	stimuli_target_diamondcircles.svg	stimuli_distractor_diamondtriangles.svg	23	yes	53	1	689
6.6.1	win	2022-12-14	14:27:06	14:34:36	447974	56e2d87a0756b2000da6303d	393771372	1	main_slash	11	advance_on_keypress_SLASH	6	stimuli_target_diamondcircles.svg	stimuli_distractor_diamondtriangles.svg	23	yes	57	0	394
6.6.1	win	2022-12-14	14:27:06	14:34:39	451029	56e2d87a0756b2000da6303d	393771372	1	main_slash	11	main_slash	7	stimuli_distractor_diamondtriangles.svg	stimuli_distractor_diamondtriangles.svg	39	no	0	1	2000
6.6.1	win	2022-12-14	14:27:06	14:34:39	451029	56e2d87a0756b2000da6303d	393771372	1	main_slash	11	advance_on_keypress_SLASH	8	stimuli_distractor_diamondtriangles.svg	stimuli_distractor_diamondtriangles.svg	39	no	57	0	290
6.6.1	win	2022-12-14	14:27:06	14:34:42	453981	56e2d87a0756b2000da6303d	393771372	1	main_slash	11	main_slash	9	stimuli_distractor_trianglediamonds.svg	stimuli_distractor_trianglediamonds.svg	33	no	0	1	2000
6.6.1	win	2022-12-14	14:27:06	14:34:42	453981	56e2d87a0756b2000da6303d	393771372	1	main_slash	11	advance_on_keypress_SLASH	10	stimuli_distractor_trianglediamonds.svg	stimuli_distractor_trianglediamonds.svg	33	no	57	0	387
6.6.1	win	2022-12-14	14:27:06	14:34:44	456142	56e2d87a0756b2000da6303d	393771372	1	main_slash	11	main_slash	11	stimuli_distractor_diamondtriangles.svg	stimuli_target_squaretriangles.svg	15	yes	53	1	1113
6.6.1	win	2022-12-14	14:27:06	14:34:44	456142	56e2d87a0756b2000da6303d	393771372	1	main_slash	11	advance_on_keypress_SLASH	12	stimuli_distractor_diamondtriangles.svg	stimuli_target_squaretriangles.svg	15	yes	57	0	513
6.6.1	win	2022-12-14	14:27:06	14:34:47	458854	56e2d87a0756b2000da6303d	393771372	1	main_slash	11	main_slash	13	stimuli_target_diamondsquares.svg	stimuli_distractor_trianglediamonds.svg	20	yes	53	1	1536
6.6.1	win	2022-12-14	14:27:06	14:34:47	458854	56e2d87a0756b2000da6303d	393771372	1	main_slash	11	advance_on_keypress_SLASH	14	stimuli_target_diamondsquares.svg	stimuli_distractor_trianglediamonds.svg	20	yes	57	0	346
6.6.1	win	2022-12-14	14:27:06	14:34:49	460870	56e2d87a0756b2000da6303d	393771372	1	main_slash	11	main_slash	15	stimuli_target_circlediamonds.svg	stimuli_distractor_diamondtriangles.svg	6	yes	53	1	1009
6.6.1	win	2022-12-14	14:27:06	14:34:49	460870	56e2d87a0756b2000da6303d	393771372	1	main_slash	11	advance_on_keypress_SLASH	16	stimuli_target_circlediamonds.svg	stimuli_distractor_diamondtriangles.svg	6	yes	57	0	314
6.6.1	win	2022-12-14	14:27:06	14:34:51	462608	56e2d87a0756b2000da6303d	393771372	1	main_slash	11	main_slash	17	stimuli_distractor_diamondtriangles.svg	stimuli_target_circletriangles.svg	13	yes	53	1	761
6.6.1	win	2022-12-14	14:27:06	14:34:51	462608	56e2d87a0756b2000da6303d	393771372	1	main_slash	11	advance_on_keypress_SLASH	18	stimuli_distractor_diamondtriangles.svg	stimuli_target_circletriangles.svg	13	yes	57	0	336
6.6.1	win	2022-12-14	14:27:06	14:34:53	465502	56e2d87a0756b2000da6303d	393771372	1	main_slash	11	main_slash	19	stimuli_distractor_trianglediamonds.svg	stimuli_target_diamondcircles.svg	27	yes	53	1	1897
6.6.1	win	2022-12-14	14:27:06	14:34:53	465502	56e2d87a0756b2000da6303d	393771372	1	main_slash	11	advance_on_keypress_SLASH	20	stimuli_distractor_trianglediamonds.svg	stimuli_target_diamondcircles.svg	27	yes	57	0	321
6.6.1	win	2022-12-14	14:27:06	14:34:55	467278	56e2d87a0756b2000da6303d	393771372	1	main_slash	11	main_slash	21	stimuli_target_circlediamonds.svg	stimuli_distractor_trianglediamonds.svg	2	yes	53	1	793
6.6.1	win	2022-12-14	14:27:06	14:34:55	467278	56e2d87a0756b2000da6303d	393771372	1	main_slash	11	advance_on_keypress_SLASH	22	stimuli_target_circlediamonds.svg	stimuli_distractor_trianglediamonds.svg	2	yes	57	0	314
6.6.1	win	2022-12-14	14:27:06	14:34:57	469111	56e2d87a0756b2000da6303d	393771372	1	main_slash	11	main_slash	23	stimuli_target_circletriangles.svg	stimuli_distractor_diamondtriangles.svg	5	yes	53	1	857
6.6.1	win	2022-12-14	14:27:06	14:34:57	469111	56e2d87a0756b2000da6303d	393771372	1	main_slash	11	advance_on_keypress_SLASH	24	stimuli_target_circletriangles.svg	stimuli_distractor_diamondtriangles.svg	5	yes	57	0	225
6.6.1	win	2022-12-14	14:27:06	14:34:59	471374	56e2d87a0756b2000da6303d	393771372	1	main_slash	11	main_slash	25	stimuli_distractor_trianglediamonds.svg	stimuli_target_trianglesquares.svg	26	yes	53	1	1377
6.6.1	win	2022-12-14	14:27:06	14:34:59	471374	56e2d87a0756b2000da6303d	393771372	1	main_slash	11	advance_on_keypress_SLASH	26	stimuli_distractor_trianglediamonds.svg	stimuli_target_trianglesquares.svg	26	yes	57	0	265
6.6.1	win	2022-12-14	14:27:06	14:35:01	473054	56e2d87a0756b2000da6303d	393771372	1	main_slash	11	main_slash	27	stimuli_distractor_trianglediamonds.svg	stimuli_target_circletriangles.svg	9	yes	53	1	753
6.6.1	win	2022-12-14	14:27:06	14:35:01	473054	56e2d87a0756b2000da6303d	393771372	1	main_slash	11	advance_on_keypress_SLASH	28	stimuli_distractor_trianglediamonds.svg	stimuli_target_circletriangles.svg	9	yes	57	0	305
6.6.1	win	2022-12-14	14:27:06	14:35:03	474878	56e2d87a0756b2000da6303d	393771372	1	main_slash	11	main_slash	29	stimuli_distractor_trianglediamonds.svg	stimuli_target_squaretriangles.svg	11	yes	53	1	857
6.6.1	win	2022-12-14	14:27:06	14:35:03	474878	56e2d87a0756b2000da6303d	393771372	1	main_slash	11	advance_on_keypress_SLASH	30	stimuli_distractor_trianglediamonds.svg	stimuli_target_squaretriangles.svg	11	yes	57	0	290
6.6.1	win	2022-12-14	14:27:06	14:35:05	476613	56e2d87a0756b2000da6303d	393771372	1	main_slash	11	main_slash	31	stimuli_distractor_trianglediamonds.svg	stimuli_target_circlediamonds.svg	10	yes	53	1	785
6.6.1	win	2022-12-14	14:27:06	14:35:05	476613	56e2d87a0756b2000da6303d	393771372	1	main_slash	11	advance_on_keypress_SLASH	32	stimuli_distractor_trianglediamonds.svg	stimuli_target_circlediamonds.svg	10	yes	57	0	306
6.6.1	win	2022-12-14	14:27:06	14:35:06	478550	56e2d87a0756b2000da6303d	393771372	1	main_slash	11	main_slash	33	stimuli_distractor_diamondtriangles.svg	stimuli_target_diamondcircles.svg	31	yes	53	1	968
6.6.1	win	2022-12-14	14:27:06	14:35:06	478550	56e2d87a0756b2000da6303d	393771372	1	main_slash	11	advance_on_keypress_SLASH	34	stimuli_distractor_diamondtriangles.svg	stimuli_target_diamondcircles.svg	31	yes	57	0	234
6.6.1	win	2022-12-14	14:27:06	14:35:08	480270	56e2d87a0756b2000da6303d	393771372	1	main_slash	11	main_slash	35	stimuli_distractor_trianglediamonds.svg	stimuli_target_squarediamonds.svg	12	yes	53	1	825
6.6.1	win	2022-12-14	14:27:06	14:35:08	480270	56e2d87a0756b2000da6303d	393771372	1	main_slash	11	advance_on_keypress_SLASH	36	stimuli_distractor_trianglediamonds.svg	stimuli_target_squarediamonds.svg	12	yes	57	0	305
6.6.1	win	2022-12-14	14:27:06	14:35:10	482038	56e2d87a0756b2000da6303d	393771372	1	main_slash	11	main_slash	37	stimuli_target_squaretriangles.svg	stimuli_distractor_diamondtriangles.svg	7	yes	53	1	801
6.6.1	win	2022-12-14	14:27:06	14:35:10	482038	56e2d87a0756b2000da6303d	393771372	1	main_slash	11	advance_on_keypress_SLASH	38	stimuli_target_squaretriangles.svg	stimuli_distractor_diamondtriangles.svg	7	yes	57	0	345
6.6.1	win	2022-12-14	14:27:06	14:35:12	484294	56e2d87a0756b2000da6303d	393771372	1	main_slash	11	main_slash	39	stimuli_distractor_diamondtriangles.svg	stimuli_target_trianglesquares.svg	30	yes	53	1	1250
6.6.1	win	2022-12-14	14:27:06	14:35:12	484294	56e2d87a0756b2000da6303d	393771372	1	main_slash	11	advance_on_keypress_SLASH	40	stimuli_distractor_diamondtriangles.svg	stimuli_target_trianglesquares.svg	30	yes	57	0	241
6.6.1	win	2022-12-14	14:27:06	14:35:14	486038	56e2d87a0756b2000da6303d	393771372	1	main_slash	11	main_slash	41	stimuli_distractor_diamondtriangles.svg	stimuli_target_squarediamonds.svg	16	yes	53	1	841
6.6.1	win	2022-12-14	14:27:06	14:35:14	486038	56e2d87a0756b2000da6303d	393771372	1	main_slash	11	advance_on_keypress_SLASH	42	stimuli_distractor_diamondtriangles.svg	stimuli_target_squarediamonds.svg	16	yes	57	0	298
6.6.1	win	2022-12-14	14:27:06	14:35:16	487823	56e2d87a0756b2000da6303d	393771372	1	main_slash	11	main_slash	43	stimuli_target_trianglesquares.svg	stimuli_distractor_diamondtriangles.svg	22	yes	53	1	825
6.6.1	win	2022-12-14	14:27:06	14:35:16	487823	56e2d87a0756b2000da6303d	393771372	1	main_slash	11	advance_on_keypress_SLASH	44	stimuli_target_trianglesquares.svg	stimuli_distractor_diamondtriangles.svg	22	yes	57	0	297
6.6.1	win	2022-12-14	14:27:06	14:35:17	489551	56e2d87a0756b2000da6303d	393771372	1	main_slash	11	main_slash	45	stimuli_distractor_diamondtriangles.svg	stimuli_target_diamondsquares.svg	32	yes	53	1	769
6.6.1	win	2022-12-14	14:27:06	14:35:17	489551	56e2d87a0756b2000da6303d	393771372	1	main_slash	11	advance_on_keypress_SLASH	46	stimuli_distractor_diamondtriangles.svg	stimuli_target_diamondsquares.svg	32	yes	57	0	376
6.6.1	win	2022-12-14	14:27:06	14:35:19	491398	56e2d87a0756b2000da6303d	393771372	1	main_slash	11	main_slash	47	stimuli_distractor_diamondtriangles.svg	stimuli_target_trianglecircles.svg	29	yes	53	1	810
6.6.1	win	2022-12-14	14:27:06	14:35:19	491398	56e2d87a0756b2000da6303d	393771372	1	main_slash	11	advance_on_keypress_SLASH	48	stimuli_distractor_diamondtriangles.svg	stimuli_target_trianglecircles.svg	29	yes	57	0	314
6.6.1	win	2022-12-14	14:27:06	14:35:22	494223	56e2d87a0756b2000da6303d	393771372	1	main_slash	11	main_slash	49	stimuli_target_squaretriangles.svg	stimuli_distractor_trianglediamonds.svg	3	yes	53	1	1849
6.6.1	win	2022-12-14	14:27:06	14:35:22	494223	56e2d87a0756b2000da6303d	393771372	1	main_slash	11	advance_on_keypress_SLASH	50	stimuli_target_squaretriangles.svg	stimuli_distractor_trianglediamonds.svg	3	yes	57	0	241
6.6.1	win	2022-12-14	14:27:06	14:35:24	496006	56e2d87a0756b2000da6303d	393771372	1	main_slash	11	main_slash	51	stimuli_distractor_diamondtriangles.svg	stimuli_target_circlediamonds.svg	14	yes	53	1	881
6.6.1	win	2022-12-14	14:27:06	14:35:24	496006	56e2d87a0756b2000da6303d	393771372	1	main_slash	11	advance_on_keypress_SLASH	52	stimuli_distractor_diamondtriangles.svg	stimuli_target_circlediamonds.svg	14	yes	57	0	257
6.6.1	win	2022-12-14	14:27:06	14:35:26	498142	56e2d87a0756b2000da6303d	393771372	1	main_slash	11	main_slash	53	stimuli_target_trianglecircles.svg	stimuli_distractor_trianglediamonds.svg	17	yes	53	1	1217
6.6.1	win	2022-12-14	14:27:06	14:35:26	498142	56e2d87a0756b2000da6303d	393771372	1	main_slash	11	advance_on_keypress_SLASH	54	stimuli_target_trianglecircles.svg	stimuli_distractor_trianglediamonds.svg	17	yes	57	0	250
6.6.1	win	2022-12-14	14:27:06	14:35:28	499814	56e2d87a0756b2000da6303d	393771372	1	main_slash	11	main_slash	55	stimuli_target_squarediamonds.svg	stimuli_distractor_diamondtriangles.svg	8	yes	53	1	761
6.6.1	win	2022-12-14	14:27:06	14:35:28	499814	56e2d87a0756b2000da6303d	393771372	1	main_slash	11	advance_on_keypress_SLASH	56	stimuli_target_squarediamonds.svg	stimuli_distractor_diamondtriangles.svg	8	yes	57	0	266
6.6.1	win	2022-12-14	14:27:06	14:35:30	501806	56e2d87a0756b2000da6303d	393771372	1	main_slash	11	main_slash	57	stimuli_distractor_diamondtriangles.svg	stimuli_distractor_trianglediamonds.svg	37	no	53	0	1065
6.6.1	win	2022-12-14	14:27:06	14:35:30	501806	56e2d87a0756b2000da6303d	393771372	1	main_slash	11	advance_on_keypress_SLASH	58	stimuli_distractor_diamondtriangles.svg	stimuli_distractor_trianglediamonds.svg	37	no	57	0	354
6.6.1	win	2022-12-14	14:27:06	14:35:32	503718	56e2d87a0756b2000da6303d	393771372	1	main_slash	11	main_slash	59	stimuli_target_trianglesquares.svg	stimuli_distractor_trianglediamonds.svg	18	yes	53	1	896
6.6.1	win	2022-12-14	14:27:06	14:35:32	503718	56e2d87a0756b2000da6303d	393771372	1	main_slash	11	advance_on_keypress_SLASH	60	stimuli_target_trianglesquares.svg	stimuli_distractor_trianglediamonds.svg	18	yes	57	0	265
6.6.1	win	2022-12-14	14:27:06	14:35:33	505502	56e2d87a0756b2000da6303d	393771372	1	main_slash	11	main_slash	61	stimuli_distractor_trianglediamonds.svg	stimuli_target_trianglecircles.svg	25	yes	53	1	857
6.6.1	win	2022-12-14	14:27:06	14:35:33	505502	56e2d87a0756b2000da6303d	393771372	1	main_slash	11	advance_on_keypress_SLASH	62	stimuli_distractor_trianglediamonds.svg	stimuli_target_trianglecircles.svg	25	yes	57	0	281
6.6.1	win	2022-12-14	14:27:06	14:35:36	508445	56e2d87a0756b2000da6303d	393771372	1	main_slash	11	main_slash	63	stimuli_distractor_diamondtriangles.svg	stimuli_distractor_diamondtriangles.svg	40	no	0	1	2000
6.6.1	win	2022-12-14	14:27:06	14:35:36	508445	56e2d87a0756b2000da6303d	393771372	1	main_slash	11	advance_on_keypress_SLASH	64	stimuli_distractor_diamondtriangles.svg	stimuli_distractor_diamondtriangles.svg	40	no	57	0	338
6.6.1	win	2022-12-14	14:27:06	14:35:39	511444	56e2d87a0756b2000da6303d	393771372	1	main_slash	11	main_slash	65	stimuli_distractor_trianglediamonds.svg	stimuli_distractor_trianglediamonds.svg	34	no	0	1	2000
6.6.1	win	2022-12-14	14:27:06	14:35:39	511444	56e2d87a0756b2000da6303d	393771372	1	main_slash	11	advance_on_keypress_SLASH	66	stimuli_distractor_trianglediamonds.svg	stimuli_distractor_trianglediamonds.svg	34	no	57	0	308
6.6.1	win	2022-12-14	14:27:06	14:35:41	513167	56e2d87a0756b2000da6303d	393771372	1	main_slash	11	main_slash	67	stimuli_target_trianglecircles.svg	stimuli_distractor_diamondtriangles.svg	21	yes	53	1	753
6.6.1	win	2022-12-14	14:27:06	14:35:41	513167	56e2d87a0756b2000da6303d	393771372	1	main_slash	11	advance_on_keypress_SLASH	68	stimuli_target_trianglecircles.svg	stimuli_distractor_diamondtriangles.svg	21	yes	57	0	377
6.6.1	win	2022-12-14	14:27:06	14:35:44	516205	56e2d87a0756b2000da6303d	393771372	1	main_slash	11	main_slash	69	stimuli_distractor_diamondtriangles.svg	stimuli_distractor_trianglediamonds.svg	38	no	0	1	2000
6.6.1	win	2022-12-14	14:27:06	14:35:44	516205	56e2d87a0756b2000da6303d	393771372	1	main_slash	11	advance_on_keypress_SLASH	70	stimuli_distractor_diamondtriangles.svg	stimuli_distractor_trianglediamonds.svg	38	no	57	0	371
6.6.1	win	2022-12-14	14:27:06	14:35:47	519238	56e2d87a0756b2000da6303d	393771372	1	main_slash	11	main_slash	71	stimuli_distractor_trianglediamonds.svg	stimuli_distractor_diamondtriangles.svg	36	no	0	1	2000
6.6.1	win	2022-12-14	14:27:06	14:35:47	519238	56e2d87a0756b2000da6303d	393771372	1	main_slash	11	advance_on_keypress_SLASH	72	stimuli_distractor_trianglediamonds.svg	stimuli_distractor_diamondtriangles.svg	36	no	57	0	610
6.6.1	win	2022-12-14	14:27:06	14:35:49	521334	56e2d87a0756b2000da6303d	393771372	1	main_slash	11	main_slash	73	stimuli_target_squarediamonds.svg	stimuli_distractor_trianglediamonds.svg	4	yes	53	1	824
6.6.1	win	2022-12-14	14:27:06	14:35:49	521334	56e2d87a0756b2000da6303d	393771372	1	main_slash	11	advance_on_keypress_SLASH	74	stimuli_target_squarediamonds.svg	stimuli_distractor_trianglediamonds.svg	4	yes	57	0	298
6.6.1	win	2022-12-14	14:27:06	14:35:51	523134	56e2d87a0756b2000da6303d	393771372	1	main_slash	11	main_slash	75	stimuli_target_diamondsquares.svg	stimuli_distractor_diamondtriangles.svg	24	yes	53	1	841
6.6.1	win	2022-12-14	14:27:06	14:35:51	523134	56e2d87a0756b2000da6303d	393771372	1	main_slash	11	advance_on_keypress_SLASH	76	stimuli_target_diamondsquares.svg	stimuli_distractor_diamondtriangles.svg	24	yes	57	0	241
6.6.1	win	2022-12-14	14:27:06	14:35:53	525174	56e2d87a0756b2000da6303d	393771372	1	main_slash	11	main_slash	77	stimuli_distractor_trianglediamonds.svg	stimuli_target_diamondsquares.svg	28	yes	53	1	1137
6.6.1	win	2022-12-14	14:27:06	14:35:53	525174	56e2d87a0756b2000da6303d	393771372	1	main_slash	11	advance_on_keypress_SLASH	78	stimuli_distractor_trianglediamonds.svg	stimuli_target_diamondsquares.svg	28	yes	57	0	274
6.6.1	win	2022-12-14	14:27:06	14:35:56	528108	56e2d87a0756b2000da6303d	393771372	1	main_slash	11	main_slash	79	stimuli_distractor_trianglediamonds.svg	stimuli_distractor_diamondtriangles.svg	35	no	0	1	2000
6.6.1	win	2022-12-14	14:27:06	14:35:56	528108	56e2d87a0756b2000da6303d	393771372	1	main_slash	11	advance_on_keypress_SLASH	80	stimuli_distractor_trianglediamonds.svg	stimuli_distractor_diamondtriangles.svg	35	no	57	0	404
6.6.1	win	2022-12-14	14:27:06	14:35:59	531174	56e2d87a0756b2000da6303d	393771372	1	main_slash	11	main_slash	81	stimuli_distractor_diamondtriangles.svg	stimuli_distractor_trianglediamonds.svg	38	no	0	1	2000
6.6.1	win	2022-12-14	14:27:06	14:35:59	531174	56e2d87a0756b2000da6303d	393771372	1	main_slash	11	advance_on_keypress_SLASH	82	stimuli_distractor_diamondtriangles.svg	stimuli_distractor_trianglediamonds.svg	38	no	57	0	338
6.6.1	win	2022-12-14	14:27:06	14:36:01	533038	56e2d87a0756b2000da6303d	393771372	1	main_slash	11	main_slash	83	stimuli_distractor_diamondtriangles.svg	stimuli_target_trianglesquares.svg	30	yes	53	1	866
6.6.1	win	2022-12-14	14:27:06	14:36:01	533038	56e2d87a0756b2000da6303d	393771372	1	main_slash	11	advance_on_keypress_SLASH	84	stimuli_distractor_diamondtriangles.svg	stimuli_target_trianglesquares.svg	30	yes	57	0	449
6.6.1	win	2022-12-14	14:27:06	14:36:04	535606	56e2d87a0756b2000da6303d	393771372	1	main_slash	11	main_slash	85	stimuli_distractor_trianglediamonds.svg	stimuli_distractor_diamondtriangles.svg	35	no	53	0	1457
6.6.1	win	2022-12-14	14:27:06	14:36:04	535606	56e2d87a0756b2000da6303d	393771372	1	main_slash	11	advance_on_keypress_SLASH	86	stimuli_distractor_trianglediamonds.svg	stimuli_distractor_diamondtriangles.svg	35	no	57	0	273
6.6.1	win	2022-12-14	14:27:06	14:36:05	537430	56e2d87a0756b2000da6303d	393771372	1	main_slash	11	main_slash	87	stimuli_distractor_diamondtriangles.svg	stimuli_target_diamondcircles.svg	31	yes	53	1	889
6.6.1	win	2022-12-14	14:27:06	14:36:05	537430	56e2d87a0756b2000da6303d	393771372	1	main_slash	11	advance_on_keypress_SLASH	88	stimuli_distractor_diamondtriangles.svg	stimuli_target_diamondcircles.svg	31	yes	57	0	313
6.6.1	win	2022-12-14	14:27:06	14:36:07	539214	56e2d87a0756b2000da6303d	393771372	1	main_slash	11	main_slash	89	stimuli_distractor_trianglediamonds.svg	stimuli_target_diamondsquares.svg	28	yes	53	1	809
6.6.1	win	2022-12-14	14:27:06	14:36:07	539214	56e2d87a0756b2000da6303d	393771372	1	main_slash	11	advance_on_keypress_SLASH	90	stimuli_distractor_trianglediamonds.svg	stimuli_target_diamondsquares.svg	28	yes	57	0	274
6.6.1	win	2022-12-14	14:27:06	14:36:09	541110	56e2d87a0756b2000da6303d	393771372	1	main_slash	11	main_slash	91	stimuli_distractor_trianglediamonds.svg	stimuli_target_squarediamonds.svg	12	yes	53	1	961
6.6.1	win	2022-12-14	14:27:06	14:36:09	541110	56e2d87a0756b2000da6303d	393771372	1	main_slash	11	advance_on_keypress_SLASH	92	stimuli_distractor_trianglediamonds.svg	stimuli_target_squarediamonds.svg	12	yes	57	0	274
6.6.1	win	2022-12-14	14:27:06	14:36:11	542814	56e2d87a0756b2000da6303d	393771372	1	main_slash	11	main_slash	93	stimuli_distractor_diamondtriangles.svg	stimuli_target_squarediamonds.svg	16	yes	53	1	769
6.6.1	win	2022-12-14	14:27:06	14:36:11	542814	56e2d87a0756b2000da6303d	393771372	1	main_slash	11	advance_on_keypress_SLASH	94	stimuli_distractor_diamondtriangles.svg	stimuli_target_squarediamonds.svg	16	yes	57	0	322
6.6.1	win	2022-12-14	14:27:06	14:36:13	544694	56e2d87a0756b2000da6303d	393771372	1	main_slash	11	main_slash	95	stimuli_distractor_diamondtriangles.svg	stimuli_target_circletriangles.svg	13	yes	53	1	897
6.6.1	win	2022-12-14	14:27:06	14:36:13	544694	56e2d87a0756b2000da6303d	393771372	1	main_slash	11	advance_on_keypress_SLASH	96	stimuli_distractor_diamondtriangles.svg	stimuli_target_circletriangles.svg	13	yes	57	0	226
6.6.1	win	2022-12-14	14:27:06	14:36:15	547580	56e2d87a0756b2000da6303d	393771372	1	main_slash	11	main_slash	97	stimuli_distractor_trianglediamonds.svg	stimuli_distractor_trianglediamonds.svg	33	no	0	1	2000
6.6.1	win	2022-12-14	14:27:06	14:36:15	547580	56e2d87a0756b2000da6303d	393771372	1	main_slash	11	advance_on_keypress_SLASH	98	stimuli_distractor_trianglediamonds.svg	stimuli_distractor_trianglediamonds.svg	33	no	57	0	332
6.6.1	win	2022-12-14	14:27:06	14:36:17	549533	56e2d87a0756b2000da6303d	393771372	1	main_slash	11	main_slash	99	stimuli_target_squarediamonds.svg	stimuli_distractor_diamondtriangles.svg	8	yes	53	1	961
6.6.1	win	2022-12-14	14:27:06	14:36:17	549533	56e2d87a0756b2000da6303d	393771372	1	main_slash	11	advance_on_keypress_SLASH	100	stimuli_target_squarediamonds.svg	stimuli_distractor_diamondtriangles.svg	8	yes	57	0	266
6.6.1	win	2022-12-14	14:27:06	14:36:19	551190	56e2d87a0756b2000da6303d	393771372	1	main_slash	11	main_slash	101	stimuli_target_trianglecircles.svg	stimuli_distractor_diamondtriangles.svg	21	yes	53	1	729
6.6.1	win	2022-12-14	14:27:06	14:36:19	551190	56e2d87a0756b2000da6303d	393771372	1	main_slash	11	advance_on_keypress_SLASH	102	stimuli_target_trianglecircles.svg	stimuli_distractor_diamondtriangles.svg	21	yes	57	0	314
6.6.1	win	2022-12-14	14:27:06	14:36:22	554165	56e2d87a0756b2000da6303d	393771372	1	main_slash	11	main_slash	103	stimuli_distractor_trianglediamonds.svg	stimuli_distractor_trianglediamonds.svg	34	no	0	1	2000
6.6.1	win	2022-12-14	14:27:06	14:36:22	554165	56e2d87a0756b2000da6303d	393771372	1	main_slash	11	advance_on_keypress_SLASH	104	stimuli_distractor_trianglediamonds.svg	stimuli_distractor_trianglediamonds.svg	34	no	57	0	554
6.6.1	win	2022-12-14	14:27:06	14:36:24	556390	56e2d87a0756b2000da6303d	393771372	1	main_slash	11	main_slash	105	stimuli_target_diamondsquares.svg	stimuli_distractor_diamondtriangles.svg	24	yes	53	1	1009
6.6.1	win	2022-12-14	14:27:06	14:36:24	556390	56e2d87a0756b2000da6303d	393771372	1	main_slash	11	advance_on_keypress_SLASH	106	stimuli_target_diamondsquares.svg	stimuli_distractor_diamondtriangles.svg	24	yes	57	0	161
6.6.1	win	2022-12-14	14:27:06	14:36:27	559213	56e2d87a0756b2000da6303d	393771372	1	main_slash	11	main_slash	107	stimuli_target_circlediamonds.svg	stimuli_distractor_trianglediamonds.svg	2	yes	0	0	2000
6.6.1	win	2022-12-14	14:27:06	14:36:27	559213	56e2d87a0756b2000da6303d	393771372	1	main_slash	11	advance_on_keypress_SLASH	108	stimuli_target_circlediamonds.svg	stimuli_distractor_trianglediamonds.svg	2	yes	57	0	739
6.6.1	win	2022-12-14	14:27:06	14:36:29	561558	56e2d87a0756b2000da6303d	393771372	1	main_slash	11	main_slash	109	stimuli_distractor_trianglediamonds.svg	stimuli_target_trianglesquares.svg	26	yes	53	1	945
6.6.1	win	2022-12-14	14:27:06	14:36:29	561558	56e2d87a0756b2000da6303d	393771372	1	main_slash	11	advance_on_keypress_SLASH	110	stimuli_distractor_trianglediamonds.svg	stimuli_target_trianglesquares.svg	26	yes	57	0	153
6.6.1	win	2022-12-14	14:27:06	14:36:31	563126	56e2d87a0756b2000da6303d	393771372	1	main_slash	11	main_slash	111	stimuli_distractor_trianglediamonds.svg	stimuli_target_circlediamonds.svg	10	yes	53	1	762
6.6.1	win	2022-12-14	14:27:06	14:36:31	563126	56e2d87a0756b2000da6303d	393771372	1	main_slash	11	advance_on_keypress_SLASH	112	stimuli_distractor_trianglediamonds.svg	stimuli_target_circlediamonds.svg	10	yes	57	0	250
6.6.1	win	2022-12-14	14:27:06	14:36:33	564974	56e2d87a0756b2000da6303d	393771372	1	main_slash	11	main_slash	113	stimuli_target_trianglesquares.svg	stimuli_distractor_trianglediamonds.svg	18	yes	53	1	937
6.6.1	win	2022-12-14	14:27:06	14:36:33	564974	56e2d87a0756b2000da6303d	393771372	1	main_slash	11	advance_on_keypress_SLASH	114	stimuli_target_trianglesquares.svg	stimuli_distractor_trianglediamonds.svg	18	yes	57	0	225
6.6.1	win	2022-12-14	14:27:06	14:36:36	567861	56e2d87a0756b2000da6303d	393771372	1	main_slash	11	main_slash	115	stimuli_distractor_diamondtriangles.svg	stimuli_distractor_diamondtriangles.svg	39	no	0	1	2000
6.6.1	win	2022-12-14	14:27:06	14:36:36	567861	56e2d87a0756b2000da6303d	393771372	1	main_slash	11	advance_on_keypress_SLASH	116	stimuli_distractor_diamondtriangles.svg	stimuli_distractor_diamondtriangles.svg	39	no	57	0	491
6.6.1	win	2022-12-14	14:27:06	14:36:38	569926	56e2d87a0756b2000da6303d	393771372	1	main_slash	11	main_slash	117	stimuli_target_trianglesquares.svg	stimuli_distractor_diamondtriangles.svg	22	yes	53	1	913
6.6.1	win	2022-12-14	14:27:06	14:36:38	569926	56e2d87a0756b2000da6303d	393771372	1	main_slash	11	advance_on_keypress_SLASH	118	stimuli_target_trianglesquares.svg	stimuli_distractor_diamondtriangles.svg	22	yes	57	0	218
6.6.1	win	2022-12-14	14:27:06	14:36:41	572805	56e2d87a0756b2000da6303d	393771372	1	main_slash	11	main_slash	119	stimuli_distractor_diamondtriangles.svg	stimuli_distractor_trianglediamonds.svg	37	no	0	1	2000
6.6.1	win	2022-12-14	14:27:06	14:36:41	572805	56e2d87a0756b2000da6303d	393771372	1	main_slash	11	advance_on_keypress_SLASH	120	stimuli_distractor_diamondtriangles.svg	stimuli_distractor_trianglediamonds.svg	37	no	57	0	419
6.6.1	win	2022-12-14	14:27:06	14:36:43	574807	56e2d87a0756b2000da6303d	393771372	1	main_slash	11	main_slash	121	stimuli_distractor_trianglediamonds.svg	stimuli_target_circletriangles.svg	9	yes	53	1	921
6.6.1	win	2022-12-14	14:27:06	14:36:43	574807	56e2d87a0756b2000da6303d	393771372	1	main_slash	11	advance_on_keypress_SLASH	122	stimuli_distractor_trianglediamonds.svg	stimuli_target_circletriangles.svg	9	yes	57	0	225
6.6.1	win	2022-12-14	14:27:06	14:36:44	576494	56e2d87a0756b2000da6303d	393771372	1	main_slash	11	main_slash	123	stimuli_target_circletriangles.svg	stimuli_distractor_trianglediamonds.svg	1	yes	53	1	801
6.6.1	win	2022-12-14	14:27:06	14:36:44	576494	56e2d87a0756b2000da6303d	393771372	1	main_slash	11	advance_on_keypress_SLASH	124	stimuli_target_circletriangles.svg	stimuli_distractor_trianglediamonds.svg	1	yes	57	0	193
6.6.1	win	2022-12-14	14:27:06	14:36:46	578175	56e2d87a0756b2000da6303d	393771372	1	main_slash	11	main_slash	125	stimuli_target_squarediamonds.svg	stimuli_distractor_trianglediamonds.svg	4	yes	53	1	841
6.6.1	win	2022-12-14	14:27:06	14:36:46	578175	56e2d87a0756b2000da6303d	393771372	1	main_slash	11	advance_on_keypress_SLASH	126	stimuli_target_squarediamonds.svg	stimuli_distractor_trianglediamonds.svg	4	yes	57	0	281
6.6.1	win	2022-12-14	14:27:06	14:36:48	580039	56e2d87a0756b2000da6303d	393771372	1	main_slash	11	main_slash	127	stimuli_distractor_trianglediamonds.svg	stimuli_target_squaretriangles.svg	11	yes	53	1	921
6.6.1	win	2022-12-14	14:27:06	14:36:48	580039	56e2d87a0756b2000da6303d	393771372	1	main_slash	11	advance_on_keypress_SLASH	128	stimuli_distractor_trianglediamonds.svg	stimuli_target_squaretriangles.svg	11	yes	57	0	225
6.6.1	win	2022-12-14	14:27:06	14:36:50	581774	56e2d87a0756b2000da6303d	393771372	1	main_slash	11	main_slash	129	stimuli_target_circlediamonds.svg	stimuli_distractor_diamondtriangles.svg	6	yes	53	1	849
6.6.1	win	2022-12-14	14:27:06	14:36:50	581774	56e2d87a0756b2000da6303d	393771372	1	main_slash	11	advance_on_keypress_SLASH	130	stimuli_target_circlediamonds.svg	stimuli_distractor_diamondtriangles.svg	6	yes	57	0	298
6.6.1	win	2022-12-14	14:27:06	14:36:53	584733	56e2d87a0756b2000da6303d	393771372	1	main_slash	11	main_slash	131	stimuli_distractor_trianglediamonds.svg	stimuli_distractor_diamondtriangles.svg	36	no	0	1	2000
6.6.1	win	2022-12-14	14:27:06	14:36:53	584733	56e2d87a0756b2000da6303d	393771372	1	main_slash	11	advance_on_keypress_SLASH	132	stimuli_distractor_trianglediamonds.svg	stimuli_distractor_diamondtriangles.svg	36	no	57	0	290
6.6.1	win	2022-12-14	14:27:06	14:36:55	586606	56e2d87a0756b2000da6303d	393771372	1	main_slash	11	main_slash	133	stimuli_distractor_diamondtriangles.svg	stimuli_target_diamondsquares.svg	32	yes	53	1	921
6.6.1	win	2022-12-14	14:27:06	14:36:55	586606	56e2d87a0756b2000da6303d	393771372	1	main_slash	11	advance_on_keypress_SLASH	134	stimuli_distractor_diamondtriangles.svg	stimuli_target_diamondsquares.svg	32	yes	57	0	738
6.6.1	win	2022-12-14	14:27:06	14:36:57	588910	56e2d87a0756b2000da6303d	393771372	1	main_slash	11	main_slash	135	stimuli_target_diamondsquares.svg	stimuli_distractor_trianglediamonds.svg	20	yes	53	1	905
6.6.1	win	2022-12-14	14:27:06	14:36:57	588910	56e2d87a0756b2000da6303d	393771372	1	main_slash	11	advance_on_keypress_SLASH	136	stimuli_target_diamondsquares.svg	stimuli_distractor_trianglediamonds.svg	20	yes	57	0	250
6.6.1	win	2022-12-14	14:27:06	14:36:59	590742	56e2d87a0756b2000da6303d	393771372	1	main_slash	11	main_slash	137	stimuli_target_trianglecircles.svg	stimuli_distractor_trianglediamonds.svg	17	yes	53	1	921
6.6.1	win	2022-12-14	14:27:06	14:36:59	590742	56e2d87a0756b2000da6303d	393771372	1	main_slash	11	advance_on_keypress_SLASH	138	stimuli_target_trianglecircles.svg	stimuli_distractor_trianglediamonds.svg	17	yes	57	0	217
6.6.1	win	2022-12-14	14:27:06	14:37:00	592486	56e2d87a0756b2000da6303d	393771372	1	main_slash	11	main_slash	139	stimuli_distractor_trianglediamonds.svg	stimuli_target_diamondcircles.svg	27	yes	53	1	865
6.6.1	win	2022-12-14	14:27:06	14:37:00	592486	56e2d87a0756b2000da6303d	393771372	1	main_slash	11	advance_on_keypress_SLASH	140	stimuli_distractor_trianglediamonds.svg	stimuli_target_diamondcircles.svg	27	yes	57	0	682
6.6.1	win	2022-12-14	14:27:06	14:37:03	594647	56e2d87a0756b2000da6303d	393771372	1	main_slash	11	main_slash	141	stimuli_target_circletriangles.svg	stimuli_distractor_diamondtriangles.svg	5	yes	53	1	817
6.6.1	win	2022-12-14	14:27:06	14:37:03	594647	56e2d87a0756b2000da6303d	393771372	1	main_slash	11	advance_on_keypress_SLASH	142	stimuli_target_circletriangles.svg	stimuli_distractor_diamondtriangles.svg	5	yes	57	0	290
6.6.1	win	2022-12-14	14:27:06	14:37:06	597597	56e2d87a0756b2000da6303d	393771372	1	main_slash	11	main_slash	143	stimuli_distractor_diamondtriangles.svg	stimuli_distractor_diamondtriangles.svg	40	no	0	1	2000
6.6.1	win	2022-12-14	14:27:06	14:37:06	597597	56e2d87a0756b2000da6303d	393771372	1	main_slash	11	advance_on_keypress_SLASH	144	stimuli_distractor_diamondtriangles.svg	stimuli_distractor_diamondtriangles.svg	40	no	57	0	995
6.6.1	win	2022-12-14	14:27:06	14:37:08	600134	56e2d87a0756b2000da6303d	393771372	1	main_slash	11	main_slash	145	stimuli_distractor_diamondtriangles.svg	stimuli_target_trianglecircles.svg	29	yes	53	1	881
6.6.1	win	2022-12-14	14:27:06	14:37:08	600134	56e2d87a0756b2000da6303d	393771372	1	main_slash	11	advance_on_keypress_SLASH	146	stimuli_distractor_diamondtriangles.svg	stimuli_target_trianglecircles.svg	29	yes	57	0	234
6.6.1	win	2022-12-14	14:27:06	14:37:10	601942	56e2d87a0756b2000da6303d	393771372	1	main_slash	11	main_slash	147	stimuli_target_squaretriangles.svg	stimuli_distractor_trianglediamonds.svg	3	yes	53	1	913
6.6.1	win	2022-12-14	14:27:06	14:37:10	601942	56e2d87a0756b2000da6303d	393771372	1	main_slash	11	advance_on_keypress_SLASH	148	stimuli_target_squaretriangles.svg	stimuli_distractor_trianglediamonds.svg	3	yes	57	0	4986
6.6.1	win	2022-12-14	14:27:06	14:37:16	608302	56e2d87a0756b2000da6303d	393771372	1	main_slash	11	main_slash	149	stimuli_target_diamondcircles.svg	stimuli_distractor_diamondtriangles.svg	23	yes	53	1	713
6.6.1	win	2022-12-14	14:27:06	14:37:16	608302	56e2d87a0756b2000da6303d	393771372	1	main_slash	11	advance_on_keypress_SLASH	150	stimuli_target_diamondcircles.svg	stimuli_distractor_diamondtriangles.svg	23	yes	57	0	634
6.6.1	win	2022-12-14	14:27:06	14:37:18	610254	56e2d87a0756b2000da6303d	393771372	1	main_slash	11	main_slash	151	stimuli_target_diamondcircles.svg	stimuli_distractor_trianglediamonds.svg	19	yes	53	1	657
6.6.1	win	2022-12-14	14:27:06	14:37:18	610254	56e2d87a0756b2000da6303d	393771372	1	main_slash	11	advance_on_keypress_SLASH	152	stimuli_target_diamondcircles.svg	stimuli_distractor_trianglediamonds.svg	19	yes	57	0	474
6.6.1	win	2022-12-14	14:27:06	14:37:20	612070	56e2d87a0756b2000da6303d	393771372	1	main_slash	11	main_slash	153	stimuli_distractor_trianglediamonds.svg	stimuli_target_trianglecircles.svg	25	yes	53	1	681
6.6.1	win	2022-12-14	14:27:06	14:37:20	612070	56e2d87a0756b2000da6303d	393771372	1	main_slash	11	advance_on_keypress_SLASH	154	stimuli_distractor_trianglediamonds.svg	stimuli_target_trianglecircles.svg	25	yes	57	0	338
6.6.1	win	2022-12-14	14:27:06	14:37:22	613774	56e2d87a0756b2000da6303d	393771372	1	main_slash	11	main_slash	155	stimuli_distractor_diamondtriangles.svg	stimuli_target_circlediamonds.svg	14	yes	53	1	705
6.6.1	win	2022-12-14	14:27:06	14:37:22	613774	56e2d87a0756b2000da6303d	393771372	1	main_slash	11	advance_on_keypress_SLASH	156	stimuli_distractor_diamondtriangles.svg	stimuli_target_circlediamonds.svg	14	yes	57	0	321
6.6.1	win	2022-12-14	14:27:06	14:37:23	615454	56e2d87a0756b2000da6303d	393771372	1	main_slash	11	main_slash	157	stimuli_distractor_diamondtriangles.svg	stimuli_target_squaretriangles.svg	15	yes	53	1	698
6.6.1	win	2022-12-14	14:27:06	14:37:23	615454	56e2d87a0756b2000da6303d	393771372	1	main_slash	11	advance_on_keypress_SLASH	158	stimuli_distractor_diamondtriangles.svg	stimuli_target_squaretriangles.svg	15	yes	57	0	330
6.6.1	win	2022-12-14	14:27:06	14:37:25	617165	56e2d87a0756b2000da6303d	393771372	1	main_slash	11	main_slash	159	stimuli_target_squaretriangles.svg	stimuli_distractor_diamondtriangles.svg	7	yes	53	1	721
6.6.1	win	2022-12-14	14:27:06	14:37:25	617165	56e2d87a0756b2000da6303d	393771372	1	main_slash	11	advance_on_keypress_SLASH	160	stimuli_target_squaretriangles.svg	stimuli_distractor_diamondtriangles.svg	7	yes	57	0	290