build	computer.platform	date	time	timestamp	time_elapsed_ms	subject	group	session	blockcode	blocknum	trialcode	trialnum	stimulus_left	stimulus_right	stim_index	target_present	response	correct	latency
6.6.1	mac	2022-12-21	08:05:29	08:08:10	160241	5e2b4e61a7f804000a55eee7	21575289	1	practice_slash	5	practice_slash	1	stimuli_distractor_trianglediamonds.svg	stimuli_distractor_diamondtriangles.svg	16	no	0	1	2000
6.6.1	mac	2022-12-21	08:05:29	08:08:10	160241	5e2b4e61a7f804000a55eee7	21575289	1	practice_slash	5	advance_on_keypress_SLASH	2	stimuli_distractor_trianglediamonds.svg	stimuli_distractor_diamondtriangles.svg	16	no	57	0	3079
6.6.1	mac	2022-12-21	08:05:29	08:08:17	166957	5e2b4e61a7f804000a55eee7	21575289	1	practice_slash	5	practice_slash	3	stimuli_distractor_trianglediamonds.svg	stimuli_target_squarediamonds.svg	11	yes	0	0	2000
6.6.1	mac	2022-12-21	08:05:29	08:08:17	166957	5e2b4e61a7f804000a55eee7	21575289	1	practice_slash	5	advance_on_keypress_SLASH	4	stimuli_distractor_trianglediamonds.svg	stimuli_target_squarediamonds.svg	11	yes	57	0	1208
6.6.1	mac	2022-12-21	08:05:29	08:08:20	170718	5e2b4e61a7f804000a55eee7	21575289	1	practice_slash	5	practice_slash	5	stimuli_distractor_trianglediamonds.svg	stimuli_target_circlediamonds.svg	10	yes	53	1	928
6.6.1	mac	2022-12-21	08:05:29	08:08:20	170718	5e2b4e61a7f804000a55eee7	21575289	1	practice_slash	5	advance_on_keypress_SLASH	6	stimuli_distractor_trianglediamonds.svg	stimuli_target_circlediamonds.svg	10	yes	57	0	1150
6.6.1	mac	2022-12-21	08:05:29	08:08:25	175505	5e2b4e61a7f804000a55eee7	21575289	1	practice_slash	5	practice_slash	7	stimuli_distractor_diamondtriangles.svg	stimuli_target_diamondcircles.svg	8	yes	0	0	2000
6.6.1	mac	2022-12-21	08:05:29	08:08:25	175505	5e2b4e61a7f804000a55eee7	21575289	1	practice_slash	5	advance_on_keypress_SLASH	8	stimuli_distractor_diamondtriangles.svg	stimuli_target_diamondcircles.svg	8	yes	57	0	1085
6.6.1	mac	2022-12-21	08:05:29	08:08:28	178803	5e2b4e61a7f804000a55eee7	21575289	1	practice_slash	5	practice_slash	9	stimuli_target_circlediamonds.svg	stimuli_distractor_diamondtriangles.svg	1	yes	53	1	581
6.6.1	mac	2022-12-21	08:05:29	08:08:28	178803	5e2b4e61a7f804000a55eee7	21575289	1	practice_slash	5	advance_on_keypress_SLASH	10	stimuli_target_circlediamonds.svg	stimuli_distractor_diamondtriangles.svg	1	yes	57	0	733
6.6.1	mac	2022-12-21	08:05:29	08:08:33	183173	5e2b4e61a7f804000a55eee7	21575289	1	practice_slash	5	practice_slash	11	stimuli_distractor_trianglediamonds.svg	stimuli_distractor_trianglediamonds.svg	15	no	0	1	2000
6.6.1	mac	2022-12-21	08:05:29	08:08:33	183173	5e2b4e61a7f804000a55eee7	21575289	1	practice_slash	5	advance_on_keypress_SLASH	12	stimuli_distractor_trianglediamonds.svg	stimuli_distractor_trianglediamonds.svg	15	no	57	0	391
6.6.1	mac	2022-12-21	08:05:29	08:08:37	187190	5e2b4e61a7f804000a55eee7	21575289	1	practice_slash	5	practice_slash	13	stimuli_target_diamondsquares.svg	stimuli_distractor_trianglediamonds.svg	6	yes	0	0	2000
6.6.1	mac	2022-12-21	08:05:29	08:08:37	187190	5e2b4e61a7f804000a55eee7	21575289	1	practice_slash	5	advance_on_keypress_SLASH	14	stimuli_target_diamondsquares.svg	stimuli_distractor_trianglediamonds.svg	6	yes	57	0	426
6.6.1	mac	2022-12-21	08:05:29	08:08:40	190119	5e2b4e61a7f804000a55eee7	21575289	1	practice_slash	5	practice_slash	15	stimuli_distractor_diamondtriangles.svg	stimuli_target_trianglecircles.svg	9	yes	53	1	862
6.6.1	mac	2022-12-21	08:05:29	08:08:40	190119	5e2b4e61a7f804000a55eee7	21575289	1	practice_slash	5	advance_on_keypress_SLASH	16	stimuli_distractor_diamondtriangles.svg	stimuli_target_trianglecircles.svg	9	yes	57	0	601
6.6.1	mac	2022-12-21	08:05:29	08:08:43	193468	5e2b4e61a7f804000a55eee7	21575289	1	practice_slash	5	practice_slash	17	stimuli_target_diamondsquares.svg	stimuli_distractor_diamondtriangles.svg	3	yes	53	1	1111
6.6.1	mac	2022-12-21	08:05:29	08:08:43	193468	5e2b4e61a7f804000a55eee7	21575289	1	practice_slash	5	advance_on_keypress_SLASH	18	stimuli_target_diamondsquares.svg	stimuli_distractor_diamondtriangles.svg	3	yes	57	0	510
6.6.1	mac	2022-12-21	08:05:29	08:08:46	196373	5e2b4e61a7f804000a55eee7	21575289	1	practice_slash	5	practice_slash	19	stimuli_distractor_diamondtriangles.svg	stimuli_distractor_trianglediamonds.svg	14	no	53	0	767
6.6.1	mac	2022-12-21	08:05:29	08:08:46	196373	5e2b4e61a7f804000a55eee7	21575289	1	practice_slash	5	advance_on_keypress_SLASH	20	stimuli_distractor_diamondtriangles.svg	stimuli_distractor_trianglediamonds.svg	14	no	57	0	512
6.6.1	mac	2022-12-21	08:05:29	08:08:49	199310	5e2b4e61a7f804000a55eee7	21575289	1	practice_slash	5	practice_slash	21	stimuli_target_squarediamonds.svg	stimuli_distractor_trianglediamonds.svg	5	yes	53	1	787
6.6.1	mac	2022-12-21	08:05:29	08:08:49	199310	5e2b4e61a7f804000a55eee7	21575289	1	practice_slash	5	advance_on_keypress_SLASH	22	stimuli_target_squarediamonds.svg	stimuli_distractor_trianglediamonds.svg	5	yes	57	0	1379
6.6.1	mac	2022-12-21	08:05:29	08:08:53	203740	5e2b4e61a7f804000a55eee7	21575289	1	practice_slash	5	practice_slash	23	stimuli_distractor_trianglediamonds.svg	stimuli_target_diamondcircles.svg	12	yes	53	1	1416
6.6.1	mac	2022-12-21	08:05:29	08:08:53	203740	5e2b4e61a7f804000a55eee7	21575289	1	practice_slash	5	advance_on_keypress_SLASH	24	stimuli_distractor_trianglediamonds.svg	stimuli_target_diamondcircles.svg	12	yes	57	0	497
6.6.1	mac	2022-12-21	08:05:29	08:08:56	206713	5e2b4e61a7f804000a55eee7	21575289	1	practice_slash	5	practice_slash	25	stimuli_target_circlediamonds.svg	stimuli_distractor_trianglediamonds.svg	4	yes	53	1	840
6.6.1	mac	2022-12-21	08:05:29	08:08:56	206713	5e2b4e61a7f804000a55eee7	21575289	1	practice_slash	5	advance_on_keypress_SLASH	26	stimuli_target_circlediamonds.svg	stimuli_distractor_trianglediamonds.svg	4	yes	57	0	478
6.6.1	mac	2022-12-21	08:05:29	08:09:00	210824	5e2b4e61a7f804000a55eee7	21575289	1	practice_slash	5	practice_slash	27	stimuli_distractor_diamondtriangles.svg	stimuli_distractor_diamondtriangles.svg	13	no	0	1	2000
6.6.1	mac	2022-12-21	08:05:29	08:09:00	210824	5e2b4e61a7f804000a55eee7	21575289	1	practice_slash	5	advance_on_keypress_SLASH	28	stimuli_distractor_diamondtriangles.svg	stimuli_distractor_diamondtriangles.svg	13	no	57	0	417
6.6.1	mac	2022-12-21	08:05:29	08:09:03	213539	5e2b4e61a7f804000a55eee7	21575289	1	practice_slash	5	practice_slash	29	stimuli_target_squarediamonds.svg	stimuli_distractor_diamondtriangles.svg	2	yes	53	1	667
6.6.1	mac	2022-12-21	08:05:29	08:09:03	213539	5e2b4e61a7f804000a55eee7	21575289	1	practice_slash	5	advance_on_keypress_SLASH	30	stimuli_target_squarediamonds.svg	stimuli_distractor_diamondtriangles.svg	2	yes	57	0	451
6.6.1	mac	2022-12-21	08:05:29	08:09:06	216405	5e2b4e61a7f804000a55eee7	21575289	1	practice_slash	5	practice_slash	31	stimuli_distractor_diamondtriangles.svg	stimuli_target_circletriangles.svg	7	yes	53	1	782
6.6.1	mac	2022-12-21	08:05:29	08:09:06	216405	5e2b4e61a7f804000a55eee7	21575289	1	practice_slash	5	advance_on_keypress_SLASH	32	stimuli_distractor_diamondtriangles.svg	stimuli_target_circletriangles.svg	7	yes	57	0	499
6.6.1	mac	2022-12-21	08:05:29	08:09:17	227234	5e2b4e61a7f804000a55eee7	21575289	1	main_slash	7	main_slash	1	stimuli_distractor_trianglediamonds.svg	stimuli_distractor_diamondtriangles.svg	36	no	53	0	1077
6.6.1	mac	2022-12-21	08:05:29	08:09:17	227234	5e2b4e61a7f804000a55eee7	21575289	1	main_slash	7	advance_on_keypress_SLASH	2	stimuli_distractor_trianglediamonds.svg	stimuli_distractor_diamondtriangles.svg	36	no	57	0	973
6.6.1	mac	2022-12-21	08:05:29	08:09:21	230840	5e2b4e61a7f804000a55eee7	21575289	1	main_slash	7	main_slash	3	stimuli_distractor_trianglediamonds.svg	stimuli_distractor_trianglediamonds.svg	33	no	0	1	2000
6.6.1	mac	2022-12-21	08:05:29	08:09:21	230840	5e2b4e61a7f804000a55eee7	21575289	1	main_slash	7	advance_on_keypress_SLASH	4	stimuli_distractor_trianglediamonds.svg	stimuli_distractor_trianglediamonds.svg	33	no	57	0	606
6.6.1	mac	2022-12-21	08:05:29	08:09:22	232752	5e2b4e61a7f804000a55eee7	21575289	1	main_slash	7	main_slash	5	stimuli_distractor_diamondtriangles.svg	stimuli_target_trianglecircles.svg	29	yes	53	1	680
6.6.1	mac	2022-12-21	08:05:29	08:09:22	232752	5e2b4e61a7f804000a55eee7	21575289	1	main_slash	7	advance_on_keypress_SLASH	6	stimuli_distractor_diamondtriangles.svg	stimuli_target_trianglecircles.svg	29	yes	57	0	1203
6.6.1	mac	2022-12-21	08:05:29	08:09:25	235444	5e2b4e61a7f804000a55eee7	21575289	1	main_slash	7	main_slash	7	stimuli_target_trianglecircles.svg	stimuli_distractor_trianglediamonds.svg	17	yes	53	1	855
6.6.1	mac	2022-12-21	08:05:29	08:09:25	235444	5e2b4e61a7f804000a55eee7	21575289	1	main_slash	7	advance_on_keypress_SLASH	8	stimuli_target_trianglecircles.svg	stimuli_distractor_trianglediamonds.svg	17	yes	57	0	803
6.6.1	mac	2022-12-21	08:05:29	08:09:27	237630	5e2b4e61a7f804000a55eee7	21575289	1	main_slash	7	main_slash	9	stimuli_distractor_trianglediamonds.svg	stimuli_target_circlediamonds.svg	10	yes	53	1	758
6.6.1	mac	2022-12-21	08:05:29	08:09:27	237630	5e2b4e61a7f804000a55eee7	21575289	1	main_slash	7	advance_on_keypress_SLASH	10	stimuli_distractor_trianglediamonds.svg	stimuli_target_circlediamonds.svg	10	yes	57	0	1489
6.6.1	mac	2022-12-21	08:05:29	08:09:31	241739	5e2b4e61a7f804000a55eee7	21575289	1	main_slash	7	main_slash	11	stimuli_distractor_diamondtriangles.svg	stimuli_distractor_trianglediamonds.svg	37	no	0	1	2000
6.6.1	mac	2022-12-21	08:05:29	08:09:31	241739	5e2b4e61a7f804000a55eee7	21575289	1	main_slash	7	advance_on_keypress_SLASH	12	stimuli_distractor_diamondtriangles.svg	stimuli_distractor_trianglediamonds.svg	37	no	57	0	570
6.6.1	mac	2022-12-21	08:05:29	08:09:34	243968	5e2b4e61a7f804000a55eee7	21575289	1	main_slash	7	main_slash	13	stimuli_distractor_trianglediamonds.svg	stimuli_target_squaretriangles.svg	11	yes	53	1	1029
6.6.1	mac	2022-12-21	08:05:29	08:09:34	243968	5e2b4e61a7f804000a55eee7	21575289	1	main_slash	7	advance_on_keypress_SLASH	14	stimuli_distractor_trianglediamonds.svg	stimuli_target_squaretriangles.svg	11	yes	57	0	938
6.6.1	mac	2022-12-21	08:05:29	08:09:36	246359	5e2b4e61a7f804000a55eee7	21575289	1	main_slash	7	main_slash	15	stimuli_target_diamondcircles.svg	stimuli_distractor_diamondtriangles.svg	23	yes	53	1	820
6.6.1	mac	2022-12-21	08:05:29	08:09:36	246359	5e2b4e61a7f804000a55eee7	21575289	1	main_slash	7	advance_on_keypress_SLASH	16	stimuli_target_diamondcircles.svg	stimuli_distractor_diamondtriangles.svg	23	yes	57	0	996
6.6.1	mac	2022-12-21	08:05:29	08:09:38	248780	5e2b4e61a7f804000a55eee7	21575289	1	main_slash	7	main_slash	17	stimuli_distractor_trianglediamonds.svg	stimuli_target_trianglesquares.svg	26	yes	53	1	791
6.6.1	mac	2022-12-21	08:05:29	08:09:38	248780	5e2b4e61a7f804000a55eee7	21575289	1	main_slash	7	advance_on_keypress_SLASH	18	stimuli_distractor_trianglediamonds.svg	stimuli_target_trianglesquares.svg	26	yes	57	0	1812
6.6.1	mac	2022-12-21	08:05:29	08:09:41	251739	5e2b4e61a7f804000a55eee7	21575289	1	main_slash	7	main_slash	19	stimuli_target_circlediamonds.svg	stimuli_distractor_diamondtriangles.svg	6	yes	53	1	518
6.6.1	mac	2022-12-21	08:05:29	08:09:41	251739	5e2b4e61a7f804000a55eee7	21575289	1	main_slash	7	advance_on_keypress_SLASH	20	stimuli_target_circlediamonds.svg	stimuli_distractor_diamondtriangles.svg	6	yes	57	0	864
6.6.1	mac	2022-12-21	08:05:29	08:09:44	253885	5e2b4e61a7f804000a55eee7	21575289	1	main_slash	7	main_slash	21	stimuli_target_squarediamonds.svg	stimuli_distractor_diamondtriangles.svg	8	yes	53	1	648
6.6.1	mac	2022-12-21	08:05:29	08:09:44	253885	5e2b4e61a7f804000a55eee7	21575289	1	main_slash	7	advance_on_keypress_SLASH	22	stimuli_target_squarediamonds.svg	stimuli_distractor_diamondtriangles.svg	8	yes	57	0	620
6.6.1	mac	2022-12-21	08:05:29	08:09:46	255856	5e2b4e61a7f804000a55eee7	21575289	1	main_slash	7	main_slash	23	stimuli_target_circletriangles.svg	stimuli_distractor_trianglediamonds.svg	1	yes	53	1	717
6.6.1	mac	2022-12-21	08:05:29	08:09:46	255856	5e2b4e61a7f804000a55eee7	21575289	1	main_slash	7	advance_on_keypress_SLASH	24	stimuli_target_circletriangles.svg	stimuli_distractor_trianglediamonds.svg	1	yes	57	0	820
6.6.1	mac	2022-12-21	08:05:29	08:09:49	259306	5e2b4e61a7f804000a55eee7	21575289	1	main_slash	7	main_slash	25	stimuli_distractor_diamondtriangles.svg	stimuli_distractor_trianglediamonds.svg	38	no	0	1	2000
6.6.1	mac	2022-12-21	08:05:29	08:09:49	259306	5e2b4e61a7f804000a55eee7	21575289	1	main_slash	7	advance_on_keypress_SLASH	26	stimuli_distractor_diamondtriangles.svg	stimuli_distractor_trianglediamonds.svg	38	no	57	0	632
6.6.1	mac	2022-12-21	08:05:29	08:09:51	261383	5e2b4e61a7f804000a55eee7	21575289	1	main_slash	7	main_slash	27	stimuli_distractor_trianglediamonds.svg	stimuli_target_circletriangles.svg	9	yes	53	1	811
6.6.1	mac	2022-12-21	08:05:29	08:09:51	261383	5e2b4e61a7f804000a55eee7	21575289	1	main_slash	7	advance_on_keypress_SLASH	28	stimuli_distractor_trianglediamonds.svg	stimuli_target_circletriangles.svg	9	yes	57	0	691
6.6.1	mac	2022-12-21	08:05:29	08:09:53	263606	5e2b4e61a7f804000a55eee7	21575289	1	main_slash	7	main_slash	29	stimuli_target_trianglesquares.svg	stimuli_distractor_diamondtriangles.svg	22	yes	53	1	900
6.6.1	mac	2022-12-21	08:05:29	08:09:53	263606	5e2b4e61a7f804000a55eee7	21575289	1	main_slash	7	advance_on_keypress_SLASH	30	stimuli_target_trianglesquares.svg	stimuli_distractor_diamondtriangles.svg	22	yes	57	0	551
6.6.1	mac	2022-12-21	08:05:29	08:09:55	265664	5e2b4e61a7f804000a55eee7	21575289	1	main_slash	7	main_slash	31	stimuli_distractor_diamondtriangles.svg	stimuli_target_diamondsquares.svg	32	yes	53	1	875
6.6.1	mac	2022-12-21	08:05:29	08:09:55	265664	5e2b4e61a7f804000a55eee7	21575289	1	main_slash	7	advance_on_keypress_SLASH	32	stimuli_distractor_diamondtriangles.svg	stimuli_target_diamondsquares.svg	32	yes	57	0	426
6.6.1	mac	2022-12-21	08:05:29	08:09:58	267873	5e2b4e61a7f804000a55eee7	21575289	1	main_slash	7	main_slash	33	stimuli_target_trianglecircles.svg	stimuli_distractor_diamondtriangles.svg	21	yes	53	1	1167
6.6.1	mac	2022-12-21	08:05:29	08:09:58	267873	5e2b4e61a7f804000a55eee7	21575289	1	main_slash	7	advance_on_keypress_SLASH	34	stimuli_target_trianglecircles.svg	stimuli_distractor_diamondtriangles.svg	21	yes	57	0	590
6.6.1	mac	2022-12-21	08:05:29	08:10:00	270517	5e2b4e61a7f804000a55eee7	21575289	1	main_slash	7	main_slash	35	stimuli_target_diamondsquares.svg	stimuli_distractor_trianglediamonds.svg	20	yes	53	1	1428
6.6.1	mac	2022-12-21	08:05:29	08:10:00	270517	5e2b4e61a7f804000a55eee7	21575289	1	main_slash	7	advance_on_keypress_SLASH	36	stimuli_target_diamondsquares.svg	stimuli_distractor_trianglediamonds.svg	20	yes	57	0	658
6.6.1	mac	2022-12-21	08:05:29	08:10:02	272822	5e2b4e61a7f804000a55eee7	21575289	1	main_slash	7	main_slash	37	stimuli_distractor_diamondtriangles.svg	stimuli_target_trianglesquares.svg	30	yes	53	1	1015
6.6.1	mac	2022-12-21	08:05:29	08:10:02	272822	5e2b4e61a7f804000a55eee7	21575289	1	main_slash	7	advance_on_keypress_SLASH	38	stimuli_distractor_diamondtriangles.svg	stimuli_target_trianglesquares.svg	30	yes	57	0	552
6.6.1	mac	2022-12-21	08:05:29	08:10:05	274856	5e2b4e61a7f804000a55eee7	21575289	1	main_slash	7	main_slash	39	stimuli_distractor_trianglediamonds.svg	stimuli_target_trianglecircles.svg	25	yes	53	1	850
6.6.1	mac	2022-12-21	08:05:29	08:10:05	274856	5e2b4e61a7f804000a55eee7	21575289	1	main_slash	7	advance_on_keypress_SLASH	40	stimuli_distractor_trianglediamonds.svg	stimuli_target_trianglecircles.svg	25	yes	57	0	536
6.6.1	mac	2022-12-21	08:05:29	08:10:08	278023	5e2b4e61a7f804000a55eee7	21575289	1	main_slash	7	main_slash	41	stimuli_distractor_trianglediamonds.svg	stimuli_distractor_trianglediamonds.svg	34	no	0	1	2000
6.6.1	mac	2022-12-21	08:05:29	08:10:08	278023	5e2b4e61a7f804000a55eee7	21575289	1	main_slash	7	advance_on_keypress_SLASH	42	stimuli_distractor_trianglediamonds.svg	stimuli_distractor_trianglediamonds.svg	34	no	57	0	423
6.6.1	mac	2022-12-21	08:05:29	08:10:10	280025	5e2b4e61a7f804000a55eee7	21575289	1	main_slash	7	main_slash	43	stimuli_target_trianglesquares.svg	stimuli_distractor_trianglediamonds.svg	18	yes	53	1	953
6.6.1	mac	2022-12-21	08:05:29	08:10:10	280025	5e2b4e61a7f804000a55eee7	21575289	1	main_slash	7	advance_on_keypress_SLASH	44	stimuli_target_trianglesquares.svg	stimuli_distractor_trianglediamonds.svg	18	yes	57	0	402
6.6.1	mac	2022-12-21	08:05:29	08:10:12	281879	5e2b4e61a7f804000a55eee7	21575289	1	main_slash	7	main_slash	45	stimuli_target_circletriangles.svg	stimuli_distractor_diamondtriangles.svg	5	yes	53	1	823
6.6.1	mac	2022-12-21	08:05:29	08:10:12	281879	5e2b4e61a7f804000a55eee7	21575289	1	main_slash	7	advance_on_keypress_SLASH	46	stimuli_target_circletriangles.svg	stimuli_distractor_diamondtriangles.svg	5	yes	57	0	359
6.6.1	mac	2022-12-21	08:05:29	08:10:13	283696	5e2b4e61a7f804000a55eee7	21575289	1	main_slash	7	main_slash	47	stimuli_distractor_trianglediamonds.svg	stimuli_target_diamondcircles.svg	27	yes	53	1	840
6.6.1	mac	2022-12-21	08:05:29	08:10:13	283696	5e2b4e61a7f804000a55eee7	21575289	1	main_slash	7	advance_on_keypress_SLASH	48	stimuli_distractor_trianglediamonds.svg	stimuli_target_diamondcircles.svg	27	yes	57	0	329
6.6.1	mac	2022-12-21	08:05:29	08:10:15	285492	5e2b4e61a7f804000a55eee7	21575289	1	main_slash	7	main_slash	49	stimuli_distractor_trianglediamonds.svg	stimuli_target_squarediamonds.svg	12	yes	53	1	836
6.6.1	mac	2022-12-21	08:05:29	08:10:15	285492	5e2b4e61a7f804000a55eee7	21575289	1	main_slash	7	advance_on_keypress_SLASH	50	stimuli_distractor_trianglediamonds.svg	stimuli_target_squarediamonds.svg	12	yes	57	0	351
6.6.1	mac	2022-12-21	08:05:29	08:10:17	287315	5e2b4e61a7f804000a55eee7	21575289	1	main_slash	7	main_slash	51	stimuli_target_circlediamonds.svg	stimuli_distractor_trianglediamonds.svg	2	yes	53	1	843
6.6.1	mac	2022-12-21	08:05:29	08:10:17	287315	5e2b4e61a7f804000a55eee7	21575289	1	main_slash	7	advance_on_keypress_SLASH	52	stimuli_target_circlediamonds.svg	stimuli_distractor_trianglediamonds.svg	2	yes	57	0	311
6.6.1	mac	2022-12-21	08:05:29	08:10:19	289080	5e2b4e61a7f804000a55eee7	21575289	1	main_slash	7	main_slash	53	stimuli_target_diamondsquares.svg	stimuli_distractor_diamondtriangles.svg	24	yes	53	1	840
6.6.1	mac	2022-12-21	08:05:29	08:10:19	289080	5e2b4e61a7f804000a55eee7	21575289	1	main_slash	7	advance_on_keypress_SLASH	54	stimuli_target_diamondsquares.svg	stimuli_distractor_diamondtriangles.svg	24	yes	57	0	395
6.6.1	mac	2022-12-21	08:05:29	08:10:21	290911	5e2b4e61a7f804000a55eee7	21575289	1	main_slash	7	main_slash	55	stimuli_distractor_diamondtriangles.svg	stimuli_target_circletriangles.svg	13	yes	53	1	805
6.6.1	mac	2022-12-21	08:05:29	08:10:21	290911	5e2b4e61a7f804000a55eee7	21575289	1	main_slash	7	advance_on_keypress_SLASH	56	stimuli_distractor_diamondtriangles.svg	stimuli_target_circletriangles.svg	13	yes	57	0	427
6.6.1	mac	2022-12-21	08:05:29	08:10:22	292784	5e2b4e61a7f804000a55eee7	21575289	1	main_slash	7	main_slash	57	stimuli_target_squaretriangles.svg	stimuli_distractor_diamondtriangles.svg	7	yes	53	1	828
6.6.1	mac	2022-12-21	08:05:29	08:10:22	292784	5e2b4e61a7f804000a55eee7	21575289	1	main_slash	7	advance_on_keypress_SLASH	58	stimuli_target_squaretriangles.svg	stimuli_distractor_diamondtriangles.svg	7	yes	57	0	359
6.6.1	mac	2022-12-21	08:05:29	08:10:24	294639	5e2b4e61a7f804000a55eee7	21575289	1	main_slash	7	main_slash	59	stimuli_target_squarediamonds.svg	stimuli_distractor_trianglediamonds.svg	4	yes	53	1	866
6.6.1	mac	2022-12-21	08:05:29	08:10:24	294639	5e2b4e61a7f804000a55eee7	21575289	1	main_slash	7	advance_on_keypress_SLASH	60	stimuli_target_squarediamonds.svg	stimuli_distractor_trianglediamonds.svg	4	yes	57	0	459
6.6.1	mac	2022-12-21	08:05:29	08:10:27	297722	5e2b4e61a7f804000a55eee7	21575289	1	main_slash	7	main_slash	61	stimuli_distractor_trianglediamonds.svg	stimuli_target_diamondsquares.svg	28	yes	0	0	2000
6.6.1	mac	2022-12-21	08:05:29	08:10:27	297722	5e2b4e61a7f804000a55eee7	21575289	1	main_slash	7	advance_on_keypress_SLASH	62	stimuli_distractor_trianglediamonds.svg	stimuli_target_diamondsquares.svg	28	yes	57	0	590
6.6.1	mac	2022-12-21	08:05:29	08:10:29	299681	5e2b4e61a7f804000a55eee7	21575289	1	main_slash	7	main_slash	63	stimuli_distractor_diamondtriangles.svg	stimuli_target_squaretriangles.svg	15	yes	53	1	741
6.6.1	mac	2022-12-21	08:05:29	08:10:29	299681	5e2b4e61a7f804000a55eee7	21575289	1	main_slash	7	advance_on_keypress_SLASH	64	stimuli_distractor_diamondtriangles.svg	stimuli_target_squaretriangles.svg	15	yes	57	0	441
6.6.1	mac	2022-12-21	08:05:29	08:10:31	301454	5e2b4e61a7f804000a55eee7	21575289	1	main_slash	7	main_slash	65	stimuli_distractor_diamondtriangles.svg	stimuli_target_diamondcircles.svg	31	yes	53	1	715
6.6.1	mac	2022-12-21	08:05:29	08:10:31	301454	5e2b4e61a7f804000a55eee7	21575289	1	main_slash	7	advance_on_keypress_SLASH	66	stimuli_distractor_diamondtriangles.svg	stimuli_target_diamondcircles.svg	31	yes	57	0	346
6.6.1	mac	2022-12-21	08:05:29	08:10:33	303265	5e2b4e61a7f804000a55eee7	21575289	1	main_slash	7	main_slash	67	stimuli_distractor_diamondtriangles.svg	stimuli_target_squarediamonds.svg	16	yes	53	1	843
6.6.1	mac	2022-12-21	08:05:29	08:10:33	303265	5e2b4e61a7f804000a55eee7	21575289	1	main_slash	7	advance_on_keypress_SLASH	68	stimuli_distractor_diamondtriangles.svg	stimuli_target_squarediamonds.svg	16	yes	57	0	268
6.6.1	mac	2022-12-21	08:05:29	08:10:35	305031	5e2b4e61a7f804000a55eee7	21575289	1	main_slash	7	main_slash	69	stimuli_target_diamondcircles.svg	stimuli_distractor_trianglediamonds.svg	19	yes	53	1	875
6.6.1	mac	2022-12-21	08:05:29	08:10:35	305031	5e2b4e61a7f804000a55eee7	21575289	1	main_slash	7	advance_on_keypress_SLASH	70	stimuli_target_diamondcircles.svg	stimuli_distractor_trianglediamonds.svg	19	yes	57	0	432
6.6.1	mac	2022-12-21	08:05:29	08:10:38	308089	5e2b4e61a7f804000a55eee7	21575289	1	main_slash	7	main_slash	71	stimuli_distractor_diamondtriangles.svg	stimuli_distractor_diamondtriangles.svg	40	no	0	1	2000
6.6.1	mac	2022-12-21	08:05:29	08:10:38	308089	5e2b4e61a7f804000a55eee7	21575289	1	main_slash	7	advance_on_keypress_SLASH	72	stimuli_distractor_diamondtriangles.svg	stimuli_distractor_diamondtriangles.svg	40	no	57	0	4259
6.6.1	mac	2022-12-21	08:05:29	08:10:43	313793	5e2b4e61a7f804000a55eee7	21575289	1	main_slash	7	main_slash	73	stimuli_target_squaretriangles.svg	stimuli_distractor_trianglediamonds.svg	3	yes	53	1	804
6.6.1	mac	2022-12-21	08:05:29	08:10:43	313793	5e2b4e61a7f804000a55eee7	21575289	1	main_slash	7	advance_on_keypress_SLASH	74	stimuli_target_squaretriangles.svg	stimuli_distractor_trianglediamonds.svg	3	yes	57	0	342
6.6.1	mac	2022-12-21	08:05:29	08:10:45	315531	5e2b4e61a7f804000a55eee7	21575289	1	main_slash	7	main_slash	75	stimuli_distractor_diamondtriangles.svg	stimuli_target_circlediamonds.svg	14	yes	53	1	759
6.6.1	mac	2022-12-21	08:05:29	08:10:45	315531	5e2b4e61a7f804000a55eee7	21575289	1	main_slash	7	advance_on_keypress_SLASH	76	stimuli_distractor_diamondtriangles.svg	stimuli_target_circlediamonds.svg	14	yes	57	0	264
6.6.1	mac	2022-12-21	08:05:29	08:10:48	318422	5e2b4e61a7f804000a55eee7	21575289	1	main_slash	7	main_slash	77	stimuli_distractor_diamondtriangles.svg	stimuli_distractor_diamondtriangles.svg	39	no	0	1	2000
6.6.1	mac	2022-12-21	08:05:29	08:10:48	318422	5e2b4e61a7f804000a55eee7	21575289	1	main_slash	7	advance_on_keypress_SLASH	78	stimuli_distractor_diamondtriangles.svg	stimuli_distractor_diamondtriangles.svg	39	no	57	0	384
6.6.1	mac	2022-12-21	08:05:29	08:10:50	320363	5e2b4e61a7f804000a55eee7	21575289	1	main_slash	7	main_slash	79	stimuli_distractor_trianglediamonds.svg	stimuli_distractor_diamondtriangles.svg	35	no	53	0	923
6.6.1	mac	2022-12-21	08:05:29	08:10:50	320363	5e2b4e61a7f804000a55eee7	21575289	1	main_slash	7	advance_on_keypress_SLASH	80	stimuli_distractor_trianglediamonds.svg	stimuli_distractor_diamondtriangles.svg	35	no	57	0	447
6.6.1	mac	2022-12-21	08:05:29	08:10:52	322171	5e2b4e61a7f804000a55eee7	21575289	1	main_slash	7	main_slash	81	stimuli_distractor_trianglediamonds.svg	stimuli_target_circlediamonds.svg	10	yes	53	1	732
6.6.1	mac	2022-12-21	08:05:29	08:10:52	322171	5e2b4e61a7f804000a55eee7	21575289	1	main_slash	7	advance_on_keypress_SLASH	82	stimuli_distractor_trianglediamonds.svg	stimuli_target_circlediamonds.svg	10	yes	57	0	235
6.6.1	mac	2022-12-21	08:05:29	08:10:54	323905	5e2b4e61a7f804000a55eee7	21575289	1	main_slash	7	main_slash	83	stimuli_target_trianglecircles.svg	stimuli_distractor_trianglediamonds.svg	17	yes	53	1	866
6.6.1	mac	2022-12-21	08:05:29	08:10:54	323905	5e2b4e61a7f804000a55eee7	21575289	1	main_slash	7	advance_on_keypress_SLASH	84	stimuli_target_trianglecircles.svg	stimuli_distractor_trianglediamonds.svg	17	yes	57	0	239
6.6.1	mac	2022-12-21	08:05:29	08:10:55	325616	5e2b4e61a7f804000a55eee7	21575289	1	main_slash	7	main_slash	85	stimuli_target_circletriangles.svg	stimuli_distractor_diamondtriangles.svg	5	yes	53	1	843
6.6.1	mac	2022-12-21	08:05:29	08:10:55	325616	5e2b4e61a7f804000a55eee7	21575289	1	main_slash	7	advance_on_keypress_SLASH	86	stimuli_target_circletriangles.svg	stimuli_distractor_diamondtriangles.svg	5	yes	57	0	211
6.6.1	mac	2022-12-21	08:05:29	08:10:57	327318	5e2b4e61a7f804000a55eee7	21575289	1	main_slash	7	main_slash	87	stimuli_target_trianglesquares.svg	stimuli_distractor_trianglediamonds.svg	18	yes	53	1	879
6.6.1	mac	2022-12-21	08:05:29	08:10:57	327318	5e2b4e61a7f804000a55eee7	21575289	1	main_slash	7	advance_on_keypress_SLASH	88	stimuli_target_trianglesquares.svg	stimuli_distractor_trianglediamonds.svg	18	yes	57	0	242
6.6.1	mac	2022-12-21	08:05:29	08:10:59	329027	5e2b4e61a7f804000a55eee7	21575289	1	main_slash	7	main_slash	89	stimuli_distractor_diamondtriangles.svg	stimuli_target_diamondcircles.svg	31	yes	53	1	838
6.6.1	mac	2022-12-21	08:05:29	08:10:59	329027	5e2b4e61a7f804000a55eee7	21575289	1	main_slash	7	advance_on_keypress_SLASH	90	stimuli_distractor_diamondtriangles.svg	stimuli_target_diamondcircles.svg	31	yes	57	0	265
6.6.1	mac	2022-12-21	08:05:29	08:11:02	331923	5e2b4e61a7f804000a55eee7	21575289	1	main_slash	7	main_slash	91	stimuli_distractor_trianglediamonds.svg	stimuli_target_diamondsquares.svg	28	yes	0	0	2000
6.6.1	mac	2022-12-21	08:05:29	08:11:02	331923	5e2b4e61a7f804000a55eee7	21575289	1	main_slash	7	advance_on_keypress_SLASH	92	stimuli_distractor_trianglediamonds.svg	stimuli_target_diamondsquares.svg	28	yes	57	0	326
6.6.1	mac	2022-12-21	08:05:29	08:11:03	333696	5e2b4e61a7f804000a55eee7	21575289	1	main_slash	7	main_slash	93	stimuli_distractor_diamondtriangles.svg	stimuli_target_diamondsquares.svg	32	yes	53	1	824
6.6.1	mac	2022-12-21	08:05:29	08:11:03	333696	5e2b4e61a7f804000a55eee7	21575289	1	main_slash	7	advance_on_keypress_SLASH	94	stimuli_distractor_diamondtriangles.svg	stimuli_target_diamondsquares.svg	32	yes	57	0	293
6.6.1	mac	2022-12-21	08:05:29	08:11:05	335269	5e2b4e61a7f804000a55eee7	21575289	1	main_slash	7	main_slash	95	stimuli_target_squarediamonds.svg	stimuli_distractor_diamondtriangles.svg	8	yes	53	1	663
6.6.1	mac	2022-12-21	08:05:29	08:11:05	335269	5e2b4e61a7f804000a55eee7	21575289	1	main_slash	7	advance_on_keypress_SLASH	96	stimuli_target_squarediamonds.svg	stimuli_distractor_diamondtriangles.svg	8	yes	57	0	187
6.6.1	mac	2022-12-21	08:05:29	08:11:08	338090	5e2b4e61a7f804000a55eee7	21575289	1	main_slash	7	main_slash	97	stimuli_distractor_diamondtriangles.svg	stimuli_distractor_trianglediamonds.svg	38	no	0	1	2000
6.6.1	mac	2022-12-21	08:05:29	08:11:08	338090	5e2b4e61a7f804000a55eee7	21575289	1	main_slash	7	advance_on_keypress_SLASH	98	stimuli_distractor_diamondtriangles.svg	stimuli_distractor_trianglediamonds.svg	38	no	57	0	534
6.6.1	mac	2022-12-21	08:05:29	08:11:10	339955	5e2b4e61a7f804000a55eee7	21575289	1	main_slash	7	main_slash	99	stimuli_target_circletriangles.svg	stimuli_distractor_trianglediamonds.svg	1	yes	53	1	699
6.6.1	mac	2022-12-21	08:05:29	08:11:10	339955	5e2b4e61a7f804000a55eee7	21575289	1	main_slash	7	advance_on_keypress_SLASH	100	stimuli_target_circletriangles.svg	stimuli_distractor_trianglediamonds.svg	1	yes	57	0	225
6.6.1	mac	2022-12-21	08:05:29	08:11:12	342805	5e2b4e61a7f804000a55eee7	21575289	1	main_slash	7	main_slash	101	stimuli_distractor_trianglediamonds.svg	stimuli_distractor_trianglediamonds.svg	34	no	0	1	2000
6.6.1	mac	2022-12-21	08:05:29	08:11:12	342805	5e2b4e61a7f804000a55eee7	21575289	1	main_slash	7	advance_on_keypress_SLASH	102	stimuli_distractor_trianglediamonds.svg	stimuli_distractor_trianglediamonds.svg	34	no	57	0	561
6.6.1	mac	2022-12-21	08:05:29	08:11:14	344694	5e2b4e61a7f804000a55eee7	21575289	1	main_slash	7	main_slash	103	stimuli_target_squarediamonds.svg	stimuli_distractor_trianglediamonds.svg	4	yes	53	1	705
6.6.1	mac	2022-12-21	08:05:29	08:11:14	344694	5e2b4e61a7f804000a55eee7	21575289	1	main_slash	7	advance_on_keypress_SLASH	104	stimuli_target_squarediamonds.svg	stimuli_distractor_trianglediamonds.svg	4	yes	57	0	319
6.6.1	mac	2022-12-21	08:05:29	08:11:17	347641	5e2b4e61a7f804000a55eee7	21575289	1	main_slash	7	main_slash	105	stimuli_distractor_trianglediamonds.svg	stimuli_distractor_trianglediamonds.svg	33	no	0	1	2000
6.6.1	mac	2022-12-21	08:05:29	08:11:17	347641	5e2b4e61a7f804000a55eee7	21575289	1	main_slash	7	advance_on_keypress_SLASH	106	stimuli_distractor_trianglediamonds.svg	stimuli_distractor_trianglediamonds.svg	33	no	57	0	407
6.6.1	mac	2022-12-21	08:05:29	08:11:19	349396	5e2b4e61a7f804000a55eee7	21575289	1	main_slash	7	main_slash	107	stimuli_distractor_trianglediamonds.svg	stimuli_target_circletriangles.svg	9	yes	53	1	724
6.6.1	mac	2022-12-21	08:05:29	08:11:19	349396	5e2b4e61a7f804000a55eee7	21575289	1	main_slash	7	advance_on_keypress_SLASH	108	stimuli_distractor_trianglediamonds.svg	stimuli_target_circletriangles.svg	9	yes	57	0	224
6.6.1	mac	2022-12-21	08:05:29	08:11:21	351303	5e2b4e61a7f804000a55eee7	21575289	1	main_slash	7	main_slash	109	stimuli_target_diamondcircles.svg	stimuli_distractor_diamondtriangles.svg	23	yes	53	1	1064
6.6.1	mac	2022-12-21	08:05:29	08:11:21	351303	5e2b4e61a7f804000a55eee7	21575289	1	main_slash	7	advance_on_keypress_SLASH	110	stimuli_target_diamondcircles.svg	stimuli_distractor_diamondtriangles.svg	23	yes	57	0	648
6.6.1	mac	2022-12-21	08:05:29	08:11:23	353384	5e2b4e61a7f804000a55eee7	21575289	1	main_slash	7	main_slash	111	stimuli_target_trianglecircles.svg	stimuli_distractor_diamondtriangles.svg	21	yes	53	1	795
6.6.1	mac	2022-12-21	08:05:29	08:11:23	353384	5e2b4e61a7f804000a55eee7	21575289	1	main_slash	7	advance_on_keypress_SLASH	112	stimuli_target_trianglecircles.svg	stimuli_distractor_diamondtriangles.svg	21	yes	57	0	240
6.6.1	mac	2022-12-21	08:05:29	08:11:26	355987	5e2b4e61a7f804000a55eee7	21575289	1	main_slash	7	main_slash	113	stimuli_distractor_trianglediamonds.svg	stimuli_target_squarediamonds.svg	12	yes	53	1	1729
6.6.1	mac	2022-12-21	08:05:29	08:11:26	355987	5e2b4e61a7f804000a55eee7	21575289	1	main_slash	7	advance_on_keypress_SLASH	114	stimuli_distractor_trianglediamonds.svg	stimuli_target_squarediamonds.svg	12	yes	57	0	1431
6.6.1	mac	2022-12-21	08:05:29	08:11:29	358851	5e2b4e61a7f804000a55eee7	21575289	1	main_slash	7	main_slash	115	stimuli_target_trianglesquares.svg	stimuli_distractor_diamondtriangles.svg	22	yes	53	1	795
6.6.1	mac	2022-12-21	08:05:29	08:11:29	358851	5e2b4e61a7f804000a55eee7	21575289	1	main_slash	7	advance_on_keypress_SLASH	116	stimuli_target_trianglesquares.svg	stimuli_distractor_diamondtriangles.svg	22	yes	57	0	390
6.6.1	mac	2022-12-21	08:05:29	08:11:30	360601	5e2b4e61a7f804000a55eee7	21575289	1	main_slash	7	main_slash	117	stimuli_target_squaretriangles.svg	stimuli_distractor_diamondtriangles.svg	7	yes	53	1	729
6.6.1	mac	2022-12-21	08:05:29	08:11:30	360601	5e2b4e61a7f804000a55eee7	21575289	1	main_slash	7	advance_on_keypress_SLASH	118	stimuli_target_squaretriangles.svg	stimuli_distractor_diamondtriangles.svg	7	yes	57	0	240
6.6.1	mac	2022-12-21	08:05:29	08:11:32	362194	5e2b4e61a7f804000a55eee7	21575289	1	main_slash	7	main_slash	119	stimuli_target_squaretriangles.svg	stimuli_distractor_trianglediamonds.svg	3	yes	53	1	723
6.6.1	mac	2022-12-21	08:05:29	08:11:32	362194	5e2b4e61a7f804000a55eee7	21575289	1	main_slash	7	advance_on_keypress_SLASH	120	stimuli_target_squaretriangles.svg	stimuli_distractor_trianglediamonds.svg	3	yes	57	0	150
6.6.1	mac	2022-12-21	08:05:29	08:11:34	363874	5e2b4e61a7f804000a55eee7	21575289	1	main_slash	7	main_slash	121	stimuli_distractor_trianglediamonds.svg	stimuli_target_trianglecircles.svg	25	yes	53	1	901
6.6.1	mac	2022-12-21	08:05:29	08:11:34	363874	5e2b4e61a7f804000a55eee7	21575289	1	main_slash	7	advance_on_keypress_SLASH	122	stimuli_distractor_trianglediamonds.svg	stimuli_target_trianglecircles.svg	25	yes	57	0	175
6.6.1	mac	2022-12-21	08:05:29	08:11:35	365465	5e2b4e61a7f804000a55eee7	21575289	1	main_slash	7	main_slash	123	stimuli_distractor_trianglediamonds.svg	stimuli_distractor_diamondtriangles.svg	36	no	53	0	793
6.6.1	mac	2022-12-21	08:05:29	08:11:35	365465	5e2b4e61a7f804000a55eee7	21575289	1	main_slash	7	advance_on_keypress_SLASH	124	stimuli_distractor_trianglediamonds.svg	stimuli_distractor_diamondtriangles.svg	36	no	57	0	588
6.6.1	mac	2022-12-21	08:05:29	08:11:37	367406	5e2b4e61a7f804000a55eee7	21575289	1	main_slash	7	main_slash	125	stimuli_distractor_diamondtriangles.svg	stimuli_target_circletriangles.svg	13	yes	53	1	734
6.6.1	mac	2022-12-21	08:05:29	08:11:37	367406	5e2b4e61a7f804000a55eee7	21575289	1	main_slash	7	advance_on_keypress_SLASH	126	stimuli_distractor_diamondtriangles.svg	stimuli_target_circletriangles.svg	13	yes	57	0	191
6.6.1	mac	2022-12-21	08:05:29	08:11:39	369084	5e2b4e61a7f804000a55eee7	21575289	1	main_slash	7	main_slash	127	stimuli_distractor_diamondtriangles.svg	stimuli_target_squaretriangles.svg	15	yes	53	1	862
6.6.1	mac	2022-12-21	08:05:29	08:11:39	369084	5e2b4e61a7f804000a55eee7	21575289	1	main_slash	7	advance_on_keypress_SLASH	128	stimuli_distractor_diamondtriangles.svg	stimuli_target_squaretriangles.svg	15	yes	57	0	198
6.6.1	mac	2022-12-21	08:05:29	08:11:40	370712	5e2b4e61a7f804000a55eee7	21575289	1	main_slash	7	main_slash	129	stimuli_distractor_diamondtriangles.svg	stimuli_target_circlediamonds.svg	14	yes	53	1	790
6.6.1	mac	2022-12-21	08:05:29	08:11:40	370712	5e2b4e61a7f804000a55eee7	21575289	1	main_slash	7	advance_on_keypress_SLASH	130	stimuli_distractor_diamondtriangles.svg	stimuli_target_circlediamonds.svg	14	yes	57	0	195
6.6.1	mac	2022-12-21	08:05:29	08:11:42	372266	5e2b4e61a7f804000a55eee7	21575289	1	main_slash	7	main_slash	131	stimuli_target_circlediamonds.svg	stimuli_distractor_trianglediamonds.svg	2	yes	53	1	744
6.6.1	mac	2022-12-21	08:05:29	08:11:42	372266	5e2b4e61a7f804000a55eee7	21575289	1	main_slash	7	advance_on_keypress_SLASH	132	stimuli_target_circlediamonds.svg	stimuli_distractor_trianglediamonds.svg	2	yes	57	0	179
6.6.1	mac	2022-12-21	08:05:29	08:11:43	373818	5e2b4e61a7f804000a55eee7	21575289	1	main_slash	7	main_slash	133	stimuli_distractor_diamondtriangles.svg	stimuli_target_trianglecircles.svg	29	yes	53	1	745
6.6.1	mac	2022-12-21	08:05:29	08:11:43	373818	5e2b4e61a7f804000a55eee7	21575289	1	main_slash	7	advance_on_keypress_SLASH	134	stimuli_distractor_diamondtriangles.svg	stimuli_target_trianglecircles.svg	29	yes	57	0	148
6.6.1	mac	2022-12-21	08:05:29	08:11:46	376606	5e2b4e61a7f804000a55eee7	21575289	1	main_slash	7	main_slash	135	stimuli_distractor_trianglediamonds.svg	stimuli_distractor_diamondtriangles.svg	35	no	0	1	2000
6.6.1	mac	2022-12-21	08:05:29	08:11:46	376606	5e2b4e61a7f804000a55eee7	21575289	1	main_slash	7	advance_on_keypress_SLASH	136	stimuli_distractor_trianglediamonds.svg	stimuli_distractor_diamondtriangles.svg	35	no	57	0	516
6.6.1	mac	2022-12-21	08:05:29	08:11:48	378725	5e2b4e61a7f804000a55eee7	21575289	1	main_slash	7	main_slash	137	stimuli_target_diamondcircles.svg	stimuli_distractor_trianglediamonds.svg	19	yes	53	1	969
6.6.1	mac	2022-12-21	08:05:29	08:11:48	378725	5e2b4e61a7f804000a55eee7	21575289	1	main_slash	7	advance_on_keypress_SLASH	138	stimuli_target_diamondcircles.svg	stimuli_distractor_trianglediamonds.svg	19	yes	57	0	344
6.6.1	mac	2022-12-21	08:05:29	08:11:51	381689	5e2b4e61a7f804000a55eee7	21575289	1	main_slash	7	main_slash	139	stimuli_distractor_diamondtriangles.svg	stimuli_distractor_trianglediamonds.svg	37	no	0	1	2000
6.6.1	mac	2022-12-21	08:05:29	08:11:51	381689	5e2b4e61a7f804000a55eee7	21575289	1	main_slash	7	advance_on_keypress_SLASH	140	stimuli_distractor_diamondtriangles.svg	stimuli_distractor_trianglediamonds.svg	37	no	57	0	703
6.6.1	mac	2022-12-21	08:05:29	08:11:54	383895	5e2b4e61a7f804000a55eee7	21575289	1	main_slash	7	main_slash	141	stimuli_distractor_diamondtriangles.svg	stimuli_target_trianglesquares.svg	30	yes	53	1	872
6.6.1	mac	2022-12-21	08:05:29	08:11:54	383895	5e2b4e61a7f804000a55eee7	21575289	1	main_slash	7	advance_on_keypress_SLASH	142	stimuli_distractor_diamondtriangles.svg	stimuli_target_trianglesquares.svg	30	yes	57	0	212
6.6.1	mac	2022-12-21	08:05:29	08:11:55	385684	5e2b4e61a7f804000a55eee7	21575289	1	main_slash	7	main_slash	143	stimuli_target_diamondsquares.svg	stimuli_distractor_trianglediamonds.svg	20	yes	53	1	945
6.6.1	mac	2022-12-21	08:05:29	08:11:55	385684	5e2b4e61a7f804000a55eee7	21575289	1	main_slash	7	advance_on_keypress_SLASH	144	stimuli_target_diamondsquares.svg	stimuli_distractor_trianglediamonds.svg	20	yes	57	0	170
6.6.1	mac	2022-12-21	08:05:29	08:11:57	387474	5e2b4e61a7f804000a55eee7	21575289	1	main_slash	7	main_slash	145	stimuli_target_diamondsquares.svg	stimuli_distractor_diamondtriangles.svg	24	yes	53	1	985
6.6.1	mac	2022-12-21	08:05:29	08:11:57	387474	5e2b4e61a7f804000a55eee7	21575289	1	main_slash	7	advance_on_keypress_SLASH	146	stimuli_target_diamondsquares.svg	stimuli_distractor_diamondtriangles.svg	24	yes	57	0	172
6.6.1	mac	2022-12-21	08:05:29	08:11:59	389150	5e2b4e61a7f804000a55eee7	21575289	1	main_slash	7	main_slash	147	stimuli_target_circlediamonds.svg	stimuli_distractor_diamondtriangles.svg	6	yes	53	1	877
6.6.1	mac	2022-12-21	08:05:29	08:11:59	389150	5e2b4e61a7f804000a55eee7	21575289	1	main_slash	7	advance_on_keypress_SLASH	148	stimuli_target_circlediamonds.svg	stimuli_distractor_diamondtriangles.svg	6	yes	57	0	189
6.6.1	mac	2022-12-21	08:05:29	08:12:01	391437	5e2b4e61a7f804000a55eee7	21575289	1	main_slash	7	main_slash	149	stimuli_distractor_diamondtriangles.svg	stimuli_distractor_diamondtriangles.svg	40	no	53	0	1481
6.6.1	mac	2022-12-21	08:05:29	08:12:01	391437	5e2b4e61a7f804000a55eee7	21575289	1	main_slash	7	advance_on_keypress_SLASH	150	stimuli_distractor_diamondtriangles.svg	stimuli_distractor_diamondtriangles.svg	40	no	57	0	585
6.6.1	mac	2022-12-21	08:05:29	08:12:03	393383	5e2b4e61a7f804000a55eee7	21575289	1	main_slash	7	main_slash	151	stimuli_distractor_trianglediamonds.svg	stimuli_target_diamondcircles.svg	27	yes	53	1	727
6.6.1	mac	2022-12-21	08:05:29	08:12:03	393383	5e2b4e61a7f804000a55eee7	21575289	1	main_slash	7	advance_on_keypress_SLASH	152	stimuli_distractor_trianglediamonds.svg	stimuli_target_diamondcircles.svg	27	yes	57	0	224
6.6.1	mac	2022-12-21	08:05:29	08:12:06	396222	5e2b4e61a7f804000a55eee7	21575289	1	main_slash	7	main_slash	153	stimuli_distractor_diamondtriangles.svg	stimuli_distractor_diamondtriangles.svg	39	no	0	1	2000
6.6.1	mac	2022-12-21	08:05:29	08:12:06	396222	5e2b4e61a7f804000a55eee7	21575289	1	main_slash	7	advance_on_keypress_SLASH	154	stimuli_distractor_diamondtriangles.svg	stimuli_distractor_diamondtriangles.svg	39	no	57	0	500
6.6.1	mac	2022-12-21	08:05:29	08:12:08	398065	5e2b4e61a7f804000a55eee7	21575289	1	main_slash	7	main_slash	155	stimuli_distractor_trianglediamonds.svg	stimuli_target_squaretriangles.svg	11	yes	53	1	709
6.6.1	mac	2022-12-21	08:05:29	08:12:08	398065	5e2b4e61a7f804000a55eee7	21575289	1	main_slash	7	advance_on_keypress_SLASH	156	stimuli_distractor_trianglediamonds.svg	stimuli_target_squaretriangles.svg	11	yes	57	0	162
6.6.1	mac	2022-12-21	08:05:29	08:12:09	399796	5e2b4e61a7f804000a55eee7	21575289	1	main_slash	7	main_slash	157	stimuli_distractor_trianglediamonds.svg	stimuli_target_trianglesquares.svg	26	yes	53	1	956
6.6.1	mac	2022-12-21	08:05:29	08:12:09	399796	5e2b4e61a7f804000a55eee7	21575289	1	main_slash	7	advance_on_keypress_SLASH	158	stimuli_distractor_trianglediamonds.svg	stimuli_target_trianglesquares.svg	26	yes	57	0	145
6.6.1	mac	2022-12-21	08:05:29	08:12:11	401462	5e2b4e61a7f804000a55eee7	21575289	1	main_slash	7	main_slash	159	stimuli_distractor_diamondtriangles.svg	stimuli_target_squarediamonds.svg	16	yes	53	1	907
6.6.1	mac	2022-12-21	08:05:29	08:12:11	401462	5e2b4e61a7f804000a55eee7	21575289	1	main_slash	7	advance_on_keypress_SLASH	160	stimuli_distractor_diamondtriangles.svg	stimuli_target_squarediamonds.svg	16	yes	57	0	135
6.6.1	mac	2022-12-21	08:05:29	08:12:39	428909	5e2b4e61a7f804000a55eee7	21575289	1	practice_z	9	practice_z	1	stimuli_distractor_trianglediamonds.svg	stimuli_target_squarediamonds.svg	11	yes	44	1	735
6.6.1	mac	2022-12-21	08:05:29	08:12:39	428909	5e2b4e61a7f804000a55eee7	21575289	1	practice_z	9	advance_on_keypress_ZEE	2	stimuli_distractor_trianglediamonds.svg	stimuli_target_squarediamonds.svg	11	yes	57	0	637
6.6.1	mac	2022-12-21	08:05:29	08:12:42	431941	5e2b4e61a7f804000a55eee7	21575289	1	practice_z	9	practice_z	3	stimuli_distractor_diamondtriangles.svg	stimuli_target_diamondcircles.svg	8	yes	44	1	768
6.6.1	mac	2022-12-21	08:05:29	08:12:42	431941	5e2b4e61a7f804000a55eee7	21575289	1	practice_z	9	advance_on_keypress_ZEE	4	stimuli_distractor_diamondtriangles.svg	stimuli_target_diamondcircles.svg	8	yes	57	0	539
6.6.1	mac	2022-12-21	08:05:29	08:12:44	434812	5e2b4e61a7f804000a55eee7	21575289	1	practice_z	9	practice_z	5	stimuli_distractor_diamondtriangles.svg	stimuli_target_trianglecircles.svg	9	yes	44	1	705
6.6.1	mac	2022-12-21	08:05:29	08:12:44	434812	5e2b4e61a7f804000a55eee7	21575289	1	practice_z	9	advance_on_keypress_ZEE	6	stimuli_distractor_diamondtriangles.svg	stimuli_target_trianglecircles.svg	9	yes	57	0	627
6.6.1	mac	2022-12-21	08:05:29	08:12:48	437915	5e2b4e61a7f804000a55eee7	21575289	1	practice_z	9	practice_z	7	stimuli_distractor_trianglediamonds.svg	stimuli_target_diamondcircles.svg	12	yes	44	1	841
6.6.1	mac	2022-12-21	08:05:29	08:12:48	437915	5e2b4e61a7f804000a55eee7	21575289	1	practice_z	9	advance_on_keypress_ZEE	8	stimuli_distractor_trianglediamonds.svg	stimuli_target_diamondcircles.svg	12	yes	57	0	526
6.6.1	mac	2022-12-21	08:05:29	08:12:50	440752	5e2b4e61a7f804000a55eee7	21575289	1	practice_z	9	practice_z	9	stimuli_target_squarediamonds.svg	stimuli_distractor_trianglediamonds.svg	5	yes	44	1	695
6.6.1	mac	2022-12-21	08:05:29	08:12:50	440752	5e2b4e61a7f804000a55eee7	21575289	1	practice_z	9	advance_on_keypress_ZEE	10	stimuli_target_squarediamonds.svg	stimuli_distractor_trianglediamonds.svg	5	yes	57	0	499
6.6.1	mac	2022-12-21	08:05:29	08:12:53	443695	5e2b4e61a7f804000a55eee7	21575289	1	practice_z	9	practice_z	11	stimuli_distractor_diamondtriangles.svg	stimuli_target_circletriangles.svg	7	yes	44	1	805
6.6.1	mac	2022-12-21	08:05:29	08:12:53	443695	5e2b4e61a7f804000a55eee7	21575289	1	practice_z	9	advance_on_keypress_ZEE	12	stimuli_distractor_diamondtriangles.svg	stimuli_target_circletriangles.svg	7	yes	57	0	443
6.6.1	mac	2022-12-21	08:05:29	08:12:56	446468	5e2b4e61a7f804000a55eee7	21575289	1	practice_z	9	practice_z	13	stimuli_target_circlediamonds.svg	stimuli_distractor_diamondtriangles.svg	1	yes	44	1	700
6.6.1	mac	2022-12-21	08:05:29	08:12:56	446468	5e2b4e61a7f804000a55eee7	21575289	1	practice_z	9	advance_on_keypress_ZEE	14	stimuli_target_circlediamonds.svg	stimuli_distractor_diamondtriangles.svg	1	yes	57	0	393
6.6.1	mac	2022-12-21	08:05:29	08:12:59	449505	5e2b4e61a7f804000a55eee7	21575289	1	practice_z	9	practice_z	15	stimuli_distractor_diamondtriangles.svg	stimuli_distractor_trianglediamonds.svg	14	no	44	0	1015
6.6.1	mac	2022-12-21	08:05:29	08:12:59	449505	5e2b4e61a7f804000a55eee7	21575289	1	practice_z	9	advance_on_keypress_ZEE	16	stimuli_distractor_diamondtriangles.svg	stimuli_distractor_trianglediamonds.svg	14	no	57	0	370
6.6.1	mac	2022-12-21	08:05:29	08:13:02	452352	5e2b4e61a7f804000a55eee7	21575289	1	practice_z	9	practice_z	17	stimuli_distractor_trianglediamonds.svg	stimuli_target_circlediamonds.svg	10	yes	44	1	845
6.6.1	mac	2022-12-21	08:05:29	08:13:02	452352	5e2b4e61a7f804000a55eee7	21575289	1	practice_z	9	advance_on_keypress_ZEE	18	stimuli_distractor_trianglediamonds.svg	stimuli_target_circlediamonds.svg	10	yes	57	0	448
6.6.1	mac	2022-12-21	08:05:29	08:13:06	456440	5e2b4e61a7f804000a55eee7	21575289	1	practice_z	9	practice_z	19	stimuli_distractor_trianglediamonds.svg	stimuli_distractor_trianglediamonds.svg	15	no	0	1	2000
6.6.1	mac	2022-12-21	08:05:29	08:13:06	456440	5e2b4e61a7f804000a55eee7	21575289	1	practice_z	9	advance_on_keypress_ZEE	20	stimuli_distractor_trianglediamonds.svg	stimuli_distractor_trianglediamonds.svg	15	no	57	0	479
6.6.1	mac	2022-12-21	08:05:29	08:13:09	459629	5e2b4e61a7f804000a55eee7	21575289	1	practice_z	9	practice_z	21	stimuli_target_diamondsquares.svg	stimuli_distractor_trianglediamonds.svg	6	yes	44	1	1073
6.6.1	mac	2022-12-21	08:05:29	08:13:09	459629	5e2b4e61a7f804000a55eee7	21575289	1	practice_z	9	advance_on_keypress_ZEE	22	stimuli_target_diamondsquares.svg	stimuli_distractor_trianglediamonds.svg	6	yes	57	0	485
6.6.1	mac	2022-12-21	08:05:29	08:13:12	462581	5e2b4e61a7f804000a55eee7	21575289	1	practice_z	9	practice_z	23	stimuli_target_diamondsquares.svg	stimuli_distractor_diamondtriangles.svg	3	yes	44	1	842
6.6.1	mac	2022-12-21	08:05:29	08:13:12	462581	5e2b4e61a7f804000a55eee7	21575289	1	practice_z	9	advance_on_keypress_ZEE	24	stimuli_target_diamondsquares.svg	stimuli_distractor_diamondtriangles.svg	3	yes	57	0	408
6.6.1	mac	2022-12-21	08:05:29	08:13:16	466607	5e2b4e61a7f804000a55eee7	21575289	1	practice_z	9	practice_z	25	stimuli_distractor_diamondtriangles.svg	stimuli_distractor_diamondtriangles.svg	13	no	0	1	2000
6.6.1	mac	2022-12-21	08:05:29	08:13:16	466607	5e2b4e61a7f804000a55eee7	21575289	1	practice_z	9	advance_on_keypress_ZEE	26	stimuli_distractor_diamondtriangles.svg	stimuli_distractor_diamondtriangles.svg	13	no	57	0	367
6.6.1	mac	2022-12-21	08:05:29	08:13:19	469606	5e2b4e61a7f804000a55eee7	21575289	1	practice_z	9	practice_z	27	stimuli_target_squarediamonds.svg	stimuli_distractor_diamondtriangles.svg	2	yes	44	1	999
6.6.1	mac	2022-12-21	08:05:29	08:13:19	469606	5e2b4e61a7f804000a55eee7	21575289	1	practice_z	9	advance_on_keypress_ZEE	28	stimuli_target_squarediamonds.svg	stimuli_distractor_diamondtriangles.svg	2	yes	57	0	466
6.6.1	mac	2022-12-21	08:05:29	08:13:22	472628	5e2b4e61a7f804000a55eee7	21575289	1	practice_z	9	practice_z	29	stimuli_distractor_trianglediamonds.svg	stimuli_distractor_diamondtriangles.svg	16	no	44	0	922
6.6.1	mac	2022-12-21	08:05:29	08:13:22	472628	5e2b4e61a7f804000a55eee7	21575289	1	practice_z	9	advance_on_keypress_ZEE	30	stimuli_distractor_trianglediamonds.svg	stimuli_distractor_diamondtriangles.svg	16	no	57	0	613
6.6.1	mac	2022-12-21	08:05:29	08:13:25	475550	5e2b4e61a7f804000a55eee7	21575289	1	practice_z	9	practice_z	31	stimuli_target_circlediamonds.svg	stimuli_distractor_trianglediamonds.svg	4	yes	44	1	676
6.6.1	mac	2022-12-21	08:05:29	08:13:25	475550	5e2b4e61a7f804000a55eee7	21575289	1	practice_z	9	advance_on_keypress_ZEE	32	stimuli_target_circlediamonds.svg	stimuli_distractor_trianglediamonds.svg	4	yes	57	0	380
6.6.1	mac	2022-12-21	08:05:29	08:13:33	483406	5e2b4e61a7f804000a55eee7	21575289	1	main_z	11	main_z	1	stimuli_distractor_diamondtriangles.svg	stimuli_distractor_diamondtriangles.svg	40	no	0	1	2000
6.6.1	mac	2022-12-21	08:05:29	08:13:33	483406	5e2b4e61a7f804000a55eee7	21575289	1	main_z	11	advance_on_keypress_ZEE	2	stimuli_distractor_diamondtriangles.svg	stimuli_distractor_diamondtriangles.svg	40	no	57	0	413
6.6.1	mac	2022-12-21	08:05:29	08:13:35	485193	5e2b4e61a7f804000a55eee7	21575289	1	main_z	11	main_z	3	stimuli_distractor_trianglediamonds.svg	stimuli_target_circlediamonds.svg	10	yes	44	1	737
6.6.1	mac	2022-12-21	08:05:29	08:13:35	485193	5e2b4e61a7f804000a55eee7	21575289	1	main_z	11	advance_on_keypress_ZEE	4	stimuli_distractor_trianglediamonds.svg	stimuli_target_circlediamonds.svg	10	yes	57	0	699
6.6.1	mac	2022-12-21	08:05:29	08:13:37	487199	5e2b4e61a7f804000a55eee7	21575289	1	main_z	11	main_z	5	stimuli_distractor_trianglediamonds.svg	stimuli_target_trianglesquares.svg	26	yes	44	1	677
6.6.1	mac	2022-12-21	08:05:29	08:13:37	487199	5e2b4e61a7f804000a55eee7	21575289	1	main_z	11	advance_on_keypress_ZEE	6	stimuli_distractor_trianglediamonds.svg	stimuli_target_trianglesquares.svg	26	yes	57	0	380
6.6.1	mac	2022-12-21	08:05:29	08:13:39	488852	5e2b4e61a7f804000a55eee7	21575289	1	main_z	11	main_z	7	stimuli_target_circlediamonds.svg	stimuli_distractor_trianglediamonds.svg	2	yes	44	1	646
6.6.1	mac	2022-12-21	08:05:29	08:13:39	488852	5e2b4e61a7f804000a55eee7	21575289	1	main_z	11	advance_on_keypress_ZEE	8	stimuli_target_circlediamonds.svg	stimuli_distractor_trianglediamonds.svg	2	yes	57	0	284
6.6.1	mac	2022-12-21	08:05:29	08:13:40	490404	5e2b4e61a7f804000a55eee7	21575289	1	main_z	11	main_z	9	stimuli_target_squarediamonds.svg	stimuli_distractor_trianglediamonds.svg	4	yes	44	1	631
6.6.1	mac	2022-12-21	08:05:29	08:13:40	490404	5e2b4e61a7f804000a55eee7	21575289	1	main_z	11	advance_on_keypress_ZEE	10	stimuli_target_squarediamonds.svg	stimuli_distractor_trianglediamonds.svg	4	yes	57	0	300
6.6.1	mac	2022-12-21	08:05:29	08:13:42	492091	5e2b4e61a7f804000a55eee7	21575289	1	main_z	11	main_z	11	stimuli_target_diamondsquares.svg	stimuli_distractor_trianglediamonds.svg	20	yes	44	1	752
6.6.1	mac	2022-12-21	08:05:29	08:13:42	492091	5e2b4e61a7f804000a55eee7	21575289	1	main_z	11	advance_on_keypress_ZEE	12	stimuli_target_diamondsquares.svg	stimuli_distractor_trianglediamonds.svg	20	yes	57	0	245
6.6.1	mac	2022-12-21	08:05:29	08:13:44	493918	5e2b4e61a7f804000a55eee7	21575289	1	main_z	11	main_z	13	stimuli_target_trianglesquares.svg	stimuli_distractor_trianglediamonds.svg	18	yes	44	1	963
6.6.1	mac	2022-12-21	08:05:29	08:13:44	493918	5e2b4e61a7f804000a55eee7	21575289	1	main_z	11	advance_on_keypress_ZEE	14	stimuli_target_trianglesquares.svg	stimuli_distractor_trianglediamonds.svg	18	yes	57	0	296
6.6.1	mac	2022-12-21	08:05:29	08:13:45	495694	5e2b4e61a7f804000a55eee7	21575289	1	main_z	11	main_z	15	stimuli_distractor_trianglediamonds.svg	stimuli_target_squaretriangles.svg	11	yes	44	1	837
6.6.1	mac	2022-12-21	08:05:29	08:13:45	495694	5e2b4e61a7f804000a55eee7	21575289	1	main_z	11	advance_on_keypress_ZEE	16	stimuli_distractor_trianglediamonds.svg	stimuli_target_squaretriangles.svg	11	yes	57	0	253
6.6.1	mac	2022-12-21	08:05:29	08:13:47	497500	5e2b4e61a7f804000a55eee7	21575289	1	main_z	11	main_z	17	stimuli_distractor_trianglediamonds.svg	stimuli_target_diamondcircles.svg	27	yes	44	1	928
6.6.1	mac	2022-12-21	08:05:29	08:13:47	497500	5e2b4e61a7f804000a55eee7	21575289	1	main_z	11	advance_on_keypress_ZEE	18	stimuli_distractor_trianglediamonds.svg	stimuli_target_diamondcircles.svg	27	yes	57	0	228
6.6.1	mac	2022-12-21	08:05:29	08:13:49	499070	5e2b4e61a7f804000a55eee7	21575289	1	main_z	11	main_z	19	stimuli_target_squaretriangles.svg	stimuli_distractor_trianglediamonds.svg	3	yes	44	1	714
6.6.1	mac	2022-12-21	08:05:29	08:13:49	499070	5e2b4e61a7f804000a55eee7	21575289	1	main_z	11	advance_on_keypress_ZEE	20	stimuli_target_squaretriangles.svg	stimuli_distractor_trianglediamonds.svg	3	yes	57	0	266
6.6.1	mac	2022-12-21	08:05:29	08:13:50	500788	5e2b4e61a7f804000a55eee7	21575289	1	main_z	11	main_z	21	stimuli_distractor_diamondtriangles.svg	stimuli_target_trianglesquares.svg	30	yes	44	1	815
6.6.1	mac	2022-12-21	08:05:29	08:13:50	500788	5e2b4e61a7f804000a55eee7	21575289	1	main_z	11	advance_on_keypress_ZEE	22	stimuli_distractor_diamondtriangles.svg	stimuli_target_trianglesquares.svg	30	yes	57	0	249
6.6.1	mac	2022-12-21	08:05:29	08:13:52	502349	5e2b4e61a7f804000a55eee7	21575289	1	main_z	11	main_z	23	stimuli_target_squarediamonds.svg	stimuli_distractor_diamondtriangles.svg	8	yes	44	1	677
6.6.1	mac	2022-12-21	08:05:29	08:13:52	502349	5e2b4e61a7f804000a55eee7	21575289	1	main_z	11	advance_on_keypress_ZEE	24	stimuli_target_squarediamonds.svg	stimuli_distractor_diamondtriangles.svg	8	yes	57	0	361
6.6.1	mac	2022-12-21	08:05:29	08:13:55	505321	5e2b4e61a7f804000a55eee7	21575289	1	main_z	11	main_z	25	stimuli_distractor_trianglediamonds.svg	stimuli_distractor_trianglediamonds.svg	33	no	0	1	2000
6.6.1	mac	2022-12-21	08:05:29	08:13:55	505321	5e2b4e61a7f804000a55eee7	21575289	1	main_z	11	advance_on_keypress_ZEE	26	stimuli_distractor_trianglediamonds.svg	stimuli_distractor_trianglediamonds.svg	33	no	57	0	483
6.6.1	mac	2022-12-21	08:05:29	08:13:57	507318	5e2b4e61a7f804000a55eee7	21575289	1	main_z	11	main_z	27	stimuli_target_diamondsquares.svg	stimuli_distractor_diamondtriangles.svg	24	yes	44	1	879
6.6.1	mac	2022-12-21	08:05:29	08:13:57	507318	5e2b4e61a7f804000a55eee7	21575289	1	main_z	11	advance_on_keypress_ZEE	28	stimuli_target_diamondsquares.svg	stimuli_distractor_diamondtriangles.svg	24	yes	57	0	215
6.6.1	mac	2022-12-21	08:05:29	08:14:00	510172	5e2b4e61a7f804000a55eee7	21575289	1	main_z	11	main_z	29	stimuli_distractor_trianglediamonds.svg	stimuli_distractor_diamondtriangles.svg	35	no	0	1	2000
6.6.1	mac	2022-12-21	08:05:29	08:14:00	510172	5e2b4e61a7f804000a55eee7	21575289	1	main_z	11	advance_on_keypress_ZEE	30	stimuli_distractor_trianglediamonds.svg	stimuli_distractor_diamondtriangles.svg	35	no	57	0	500
6.6.1	mac	2022-12-21	08:05:29	08:14:03	513306	5e2b4e61a7f804000a55eee7	21575289	1	main_z	11	main_z	31	stimuli_distractor_trianglediamonds.svg	stimuli_distractor_diamondtriangles.svg	36	no	0	1	2000
6.6.1	mac	2022-12-21	08:05:29	08:14:03	513306	5e2b4e61a7f804000a55eee7	21575289	1	main_z	11	advance_on_keypress_ZEE	32	stimuli_distractor_trianglediamonds.svg	stimuli_distractor_diamondtriangles.svg	36	no	57	0	472
6.6.1	mac	2022-12-21	08:05:29	08:14:06	516405	5e2b4e61a7f804000a55eee7	21575289	1	main_z	11	main_z	33	stimuli_distractor_diamondtriangles.svg	stimuli_distractor_trianglediamonds.svg	37	no	0	1	2000
6.6.1	mac	2022-12-21	08:05:29	08:14:06	516405	5e2b4e61a7f804000a55eee7	21575289	1	main_z	11	advance_on_keypress_ZEE	34	stimuli_distractor_diamondtriangles.svg	stimuli_distractor_trianglediamonds.svg	37	no	57	0	457
6.6.1	mac	2022-12-21	08:05:29	08:14:08	518171	5e2b4e61a7f804000a55eee7	21575289	1	main_z	11	main_z	35	stimuli_distractor_diamondtriangles.svg	stimuli_target_circlediamonds.svg	14	yes	44	1	682
6.6.1	mac	2022-12-21	08:05:29	08:14:08	518171	5e2b4e61a7f804000a55eee7	21575289	1	main_z	11	advance_on_keypress_ZEE	36	stimuli_distractor_diamondtriangles.svg	stimuli_target_circlediamonds.svg	14	yes	57	0	224
6.6.1	mac	2022-12-21	08:05:29	08:14:09	519664	5e2b4e61a7f804000a55eee7	21575289	1	main_z	11	main_z	37	stimuli_target_circletriangles.svg	stimuli_distractor_diamondtriangles.svg	5	yes	44	1	642
6.6.1	mac	2022-12-21	08:05:29	08:14:09	519664	5e2b4e61a7f804000a55eee7	21575289	1	main_z	11	advance_on_keypress_ZEE	38	stimuli_target_circletriangles.svg	stimuli_distractor_diamondtriangles.svg	5	yes	57	0	506
6.6.1	mac	2022-12-21	08:05:29	08:14:11	521600	5e2b4e61a7f804000a55eee7	21575289	1	main_z	11	main_z	39	stimuli_distractor_diamondtriangles.svg	stimuli_target_trianglecircles.svg	29	yes	44	1	811
6.6.1	mac	2022-12-21	08:05:29	08:14:11	521600	5e2b4e61a7f804000a55eee7	21575289	1	main_z	11	advance_on_keypress_ZEE	40	stimuli_distractor_diamondtriangles.svg	stimuli_target_trianglecircles.svg	29	yes	57	0	326
6.6.1	mac	2022-12-21	08:05:29	08:14:13	523375	5e2b4e61a7f804000a55eee7	21575289	1	main_z	11	main_z	41	stimuli_target_trianglecircles.svg	stimuli_distractor_diamondtriangles.svg	21	yes	44	1	836
6.6.1	mac	2022-12-21	08:05:29	08:14:13	523375	5e2b4e61a7f804000a55eee7	21575289	1	main_z	11	advance_on_keypress_ZEE	42	stimuli_target_trianglecircles.svg	stimuli_distractor_diamondtriangles.svg	21	yes	57	0	489
6.6.1	mac	2022-12-21	08:05:29	08:14:15	525233	5e2b4e61a7f804000a55eee7	21575289	1	main_z	11	main_z	43	stimuli_target_trianglecircles.svg	stimuli_distractor_trianglediamonds.svg	17	yes	44	1	744
6.6.1	mac	2022-12-21	08:05:29	08:14:15	525233	5e2b4e61a7f804000a55eee7	21575289	1	main_z	11	advance_on_keypress_ZEE	44	stimuli_target_trianglecircles.svg	stimuli_distractor_trianglediamonds.svg	17	yes	57	0	379
6.6.1	mac	2022-12-21	08:05:29	08:14:17	527114	5e2b4e61a7f804000a55eee7	21575289	1	main_z	11	main_z	45	stimuli_target_circletriangles.svg	stimuli_distractor_trianglediamonds.svg	1	yes	44	1	873
6.6.1	mac	2022-12-21	08:05:29	08:14:17	527114	5e2b4e61a7f804000a55eee7	21575289	1	main_z	11	advance_on_keypress_ZEE	46	stimuli_target_circletriangles.svg	stimuli_distractor_trianglediamonds.svg	1	yes	57	0	407
6.6.1	mac	2022-12-21	08:05:29	08:14:20	530139	5e2b4e61a7f804000a55eee7	21575289	1	main_z	11	main_z	47	stimuli_distractor_trianglediamonds.svg	stimuli_distractor_trianglediamonds.svg	34	no	0	1	2000
6.6.1	mac	2022-12-21	08:05:29	08:14:20	530139	5e2b4e61a7f804000a55eee7	21575289	1	main_z	11	advance_on_keypress_ZEE	48	stimuli_distractor_trianglediamonds.svg	stimuli_distractor_trianglediamonds.svg	34	no	57	0	557
6.6.1	mac	2022-12-21	08:05:29	08:14:23	533323	5e2b4e61a7f804000a55eee7	21575289	1	main_z	11	main_z	49	stimuli_distractor_diamondtriangles.svg	stimuli_distractor_diamondtriangles.svg	39	no	0	1	2000
6.6.1	mac	2022-12-21	08:05:29	08:14:23	533323	5e2b4e61a7f804000a55eee7	21575289	1	main_z	11	advance_on_keypress_ZEE	50	stimuli_distractor_diamondtriangles.svg	stimuli_distractor_diamondtriangles.svg	39	no	57	0	471
6.6.1	mac	2022-12-21	08:05:29	08:14:25	535081	5e2b4e61a7f804000a55eee7	21575289	1	main_z	11	main_z	51	stimuli_target_diamondcircles.svg	stimuli_distractor_diamondtriangles.svg	23	yes	44	1	659
6.6.1	mac	2022-12-21	08:05:29	08:14:25	535081	5e2b4e61a7f804000a55eee7	21575289	1	main_z	11	advance_on_keypress_ZEE	52	stimuli_target_diamondcircles.svg	stimuli_distractor_diamondtriangles.svg	23	yes	57	0	800
6.6.1	mac	2022-12-21	08:05:29	08:14:27	537313	5e2b4e61a7f804000a55eee7	21575289	1	main_z	11	main_z	53	stimuli_distractor_diamondtriangles.svg	stimuli_target_squarediamonds.svg	16	yes	44	1	807
6.6.1	mac	2022-12-21	08:05:29	08:14:27	537313	5e2b4e61a7f804000a55eee7	21575289	1	main_z	11	advance_on_keypress_ZEE	54	stimuli_distractor_diamondtriangles.svg	stimuli_target_squarediamonds.svg	16	yes	57	0	646
6.6.1	mac	2022-12-21	08:05:29	08:14:29	539337	5e2b4e61a7f804000a55eee7	21575289	1	main_z	11	main_z	55	stimuli_distractor_trianglediamonds.svg	stimuli_target_trianglecircles.svg	25	yes	44	1	748
6.6.1	mac	2022-12-21	08:05:29	08:14:29	539337	5e2b4e61a7f804000a55eee7	21575289	1	main_z	11	advance_on_keypress_ZEE	56	stimuli_distractor_trianglediamonds.svg	stimuli_target_trianglecircles.svg	25	yes	57	0	289
6.6.1	mac	2022-12-21	08:05:29	08:14:31	540961	5e2b4e61a7f804000a55eee7	21575289	1	main_z	11	main_z	57	stimuli_distractor_diamondtriangles.svg	stimuli_target_diamondsquares.svg	32	yes	44	1	705
6.6.1	mac	2022-12-21	08:05:29	08:14:31	540961	5e2b4e61a7f804000a55eee7	21575289	1	main_z	11	advance_on_keypress_ZEE	58	stimuli_distractor_diamondtriangles.svg	stimuli_target_diamondsquares.svg	32	yes	57	0	462
6.6.1	mac	2022-12-21	08:05:29	08:14:32	542681	5e2b4e61a7f804000a55eee7	21575289	1	main_z	11	main_z	59	stimuli_target_squaretriangles.svg	stimuli_distractor_diamondtriangles.svg	7	yes	44	1	625
6.6.1	mac	2022-12-21	08:05:29	08:14:32	542681	5e2b4e61a7f804000a55eee7	21575289	1	main_z	11	advance_on_keypress_ZEE	60	stimuli_target_squaretriangles.svg	stimuli_distractor_diamondtriangles.svg	7	yes	57	0	299
6.6.1	mac	2022-12-21	08:05:29	08:14:34	544201	5e2b4e61a7f804000a55eee7	21575289	1	main_z	11	main_z	61	stimuli_target_trianglesquares.svg	stimuli_distractor_diamondtriangles.svg	22	yes	44	1	595
6.6.1	mac	2022-12-21	08:05:29	08:14:34	544201	5e2b4e61a7f804000a55eee7	21575289	1	main_z	11	advance_on_keypress_ZEE	62	stimuli_target_trianglesquares.svg	stimuli_distractor_diamondtriangles.svg	22	yes	57	0	209
6.6.1	mac	2022-12-21	08:05:29	08:14:35	545698	5e2b4e61a7f804000a55eee7	21575289	1	main_z	11	main_z	63	stimuli_target_circlediamonds.svg	stimuli_distractor_diamondtriangles.svg	6	yes	44	1	659
6.6.1	mac	2022-12-21	08:05:29	08:14:35	545698	5e2b4e61a7f804000a55eee7	21575289	1	main_z	11	advance_on_keypress_ZEE	64	stimuli_target_circlediamonds.svg	stimuli_distractor_diamondtriangles.svg	6	yes	57	0	357
6.6.1	mac	2022-12-21	08:05:29	08:14:37	547365	5e2b4e61a7f804000a55eee7	21575289	1	main_z	11	main_z	65	stimuli_distractor_trianglediamonds.svg	stimuli_target_diamondsquares.svg	28	yes	44	1	693
6.6.1	mac	2022-12-21	08:05:29	08:14:37	547365	5e2b4e61a7f804000a55eee7	21575289	1	main_z	11	advance_on_keypress_ZEE	66	stimuli_distractor_trianglediamonds.svg	stimuli_target_diamondsquares.svg	28	yes	57	0	325
6.6.1	mac	2022-12-21	08:05:29	08:14:40	550306	5e2b4e61a7f804000a55eee7	21575289	1	main_z	11	main_z	67	stimuli_distractor_trianglediamonds.svg	stimuli_target_circletriangles.svg	9	yes	0	0	2000
6.6.1	mac	2022-12-21	08:05:29	08:14:40	550306	5e2b4e61a7f804000a55eee7	21575289	1	main_z	11	advance_on_keypress_ZEE	68	stimuli_distractor_trianglediamonds.svg	stimuli_target_circletriangles.svg	9	yes	57	0	553
6.6.1	mac	2022-12-21	08:05:29	08:14:42	552123	5e2b4e61a7f804000a55eee7	21575289	1	main_z	11	main_z	69	stimuli_target_diamondcircles.svg	stimuli_distractor_trianglediamonds.svg	19	yes	44	1	634
6.6.1	mac	2022-12-21	08:05:29	08:14:42	552123	5e2b4e61a7f804000a55eee7	21575289	1	main_z	11	advance_on_keypress_ZEE	70	stimuli_target_diamondcircles.svg	stimuli_distractor_trianglediamonds.svg	19	yes	57	0	196
6.6.1	mac	2022-12-21	08:05:29	08:14:43	553648	5e2b4e61a7f804000a55eee7	21575289	1	main_z	11	main_z	71	stimuli_distractor_diamondtriangles.svg	stimuli_target_diamondcircles.svg	31	yes	44	1	692
6.6.1	mac	2022-12-21	08:05:29	08:14:43	553648	5e2b4e61a7f804000a55eee7	21575289	1	main_z	11	advance_on_keypress_ZEE	72	stimuli_distractor_diamondtriangles.svg	stimuli_target_diamondcircles.svg	31	yes	57	0	257
6.6.1	mac	2022-12-21	08:05:29	08:14:45	555179	5e2b4e61a7f804000a55eee7	21575289	1	main_z	11	main_z	73	stimuli_distractor_diamondtriangles.svg	stimuli_target_circletriangles.svg	13	yes	44	1	657
6.6.1	mac	2022-12-21	08:05:29	08:14:45	555179	5e2b4e61a7f804000a55eee7	21575289	1	main_z	11	advance_on_keypress_ZEE	74	stimuli_distractor_diamondtriangles.svg	stimuli_target_circletriangles.svg	13	yes	57	0	217
6.6.1	mac	2022-12-21	08:05:29	08:14:48	558022	5e2b4e61a7f804000a55eee7	21575289	1	main_z	11	main_z	75	stimuli_distractor_diamondtriangles.svg	stimuli_distractor_trianglediamonds.svg	38	no	0	1	2000
6.6.1	mac	2022-12-21	08:05:29	08:14:48	558022	5e2b4e61a7f804000a55eee7	21575289	1	main_z	11	advance_on_keypress_ZEE	76	stimuli_distractor_diamondtriangles.svg	stimuli_distractor_trianglediamonds.svg	38	no	57	0	354
6.6.1	mac	2022-12-21	08:05:29	08:14:49	559725	5e2b4e61a7f804000a55eee7	21575289	1	main_z	11	main_z	77	stimuli_distractor_diamondtriangles.svg	stimuli_target_squaretriangles.svg	15	yes	44	1	718
6.6.1	mac	2022-12-21	08:05:29	08:14:49	559725	5e2b4e61a7f804000a55eee7	21575289	1	main_z	11	advance_on_keypress_ZEE	78	stimuli_distractor_diamondtriangles.svg	stimuli_target_squaretriangles.svg	15	yes	57	0	211
6.6.1	mac	2022-12-21	08:05:29	08:14:51	561134	5e2b4e61a7f804000a55eee7	21575289	1	main_z	11	main_z	79	stimuli_distractor_trianglediamonds.svg	stimuli_target_squarediamonds.svg	12	yes	44	1	562
6.6.1	mac	2022-12-21	08:05:29	08:14:51	561134	5e2b4e61a7f804000a55eee7	21575289	1	main_z	11	advance_on_keypress_ZEE	80	stimuli_distractor_trianglediamonds.svg	stimuli_target_squarediamonds.svg	12	yes	57	0	549
6.6.1	mac	2022-12-21	08:05:29	08:14:53	563085	5e2b4e61a7f804000a55eee7	21575289	1	main_z	11	main_z	81	stimuli_distractor_trianglediamonds.svg	stimuli_target_trianglesquares.svg	26	yes	44	1	763
6.6.1	mac	2022-12-21	08:05:29	08:14:53	563085	5e2b4e61a7f804000a55eee7	21575289	1	main_z	11	advance_on_keypress_ZEE	82	stimuli_distractor_trianglediamonds.svg	stimuli_target_trianglesquares.svg	26	yes	57	0	298
6.6.1	mac	2022-12-21	08:05:29	08:14:54	564619	5e2b4e61a7f804000a55eee7	21575289	1	main_z	11	main_z	83	stimuli_distractor_trianglediamonds.svg	stimuli_target_trianglecircles.svg	25	yes	44	1	596
6.6.1	mac	2022-12-21	08:05:29	08:14:54	564619	5e2b4e61a7f804000a55eee7	21575289	1	main_z	11	advance_on_keypress_ZEE	84	stimuli_distractor_trianglediamonds.svg	stimuli_target_trianglecircles.svg	25	yes	57	0	145
6.6.1	mac	2022-12-21	08:05:29	08:14:56	566019	5e2b4e61a7f804000a55eee7	21575289	1	main_z	11	main_z	85	stimuli_distractor_trianglediamonds.svg	stimuli_target_circletriangles.svg	9	yes	44	1	630
6.6.1	mac	2022-12-21	08:05:29	08:14:56	566019	5e2b4e61a7f804000a55eee7	21575289	1	main_z	11	advance_on_keypress_ZEE	86	stimuli_distractor_trianglediamonds.svg	stimuli_target_circletriangles.svg	9	yes	57	0	225
6.6.1	mac	2022-12-21	08:05:29	08:14:57	567469	5e2b4e61a7f804000a55eee7	21575289	1	main_z	11	main_z	87	stimuli_distractor_trianglediamonds.svg	stimuli_target_squaretriangles.svg	11	yes	44	1	597
6.6.1	mac	2022-12-21	08:05:29	08:14:57	567469	5e2b4e61a7f804000a55eee7	21575289	1	main_z	11	advance_on_keypress_ZEE	88	stimuli_distractor_trianglediamonds.svg	stimuli_target_squaretriangles.svg	11	yes	57	0	162
6.6.1	mac	2022-12-21	08:05:29	08:14:59	568911	5e2b4e61a7f804000a55eee7	21575289	1	main_z	11	main_z	89	stimuli_target_diamondsquares.svg	stimuli_distractor_trianglediamonds.svg	20	yes	44	1	655
6.6.1	mac	2022-12-21	08:05:29	08:14:59	568911	5e2b4e61a7f804000a55eee7	21575289	1	main_z	11	advance_on_keypress_ZEE	90	stimuli_target_diamondsquares.svg	stimuli_distractor_trianglediamonds.svg	20	yes	57	0	204
6.6.1	mac	2022-12-21	08:05:29	08:15:00	570426	5e2b4e61a7f804000a55eee7	21575289	1	main_z	11	main_z	91	stimuli_distractor_trianglediamonds.svg	stimuli_target_squarediamonds.svg	12	yes	44	1	687
6.6.1	mac	2022-12-21	08:05:29	08:15:00	570426	5e2b4e61a7f804000a55eee7	21575289	1	main_z	11	advance_on_keypress_ZEE	92	stimuli_distractor_trianglediamonds.svg	stimuli_target_squarediamonds.svg	12	yes	57	0	211
6.6.1	mac	2022-12-21	08:05:29	08:15:03	573256	5e2b4e61a7f804000a55eee7	21575289	1	main_z	11	main_z	93	stimuli_distractor_trianglediamonds.svg	stimuli_distractor_trianglediamonds.svg	34	no	0	1	2000
6.6.1	mac	2022-12-21	08:05:29	08:15:03	573256	5e2b4e61a7f804000a55eee7	21575289	1	main_z	11	advance_on_keypress_ZEE	94	stimuli_distractor_trianglediamonds.svg	stimuli_distractor_trianglediamonds.svg	34	no	57	0	425
6.6.1	mac	2022-12-21	08:05:29	08:15:05	574933	5e2b4e61a7f804000a55eee7	21575289	1	main_z	11	main_z	95	stimuli_distractor_diamondtriangles.svg	stimuli_target_trianglecircles.svg	29	yes	44	1	627
6.6.1	mac	2022-12-21	08:05:29	08:15:05	574933	5e2b4e61a7f804000a55eee7	21575289	1	main_z	11	advance_on_keypress_ZEE	96	stimuli_distractor_diamondtriangles.svg	stimuli_target_trianglecircles.svg	29	yes	57	0	138
6.6.1	mac	2022-12-21	08:05:29	08:15:06	576293	5e2b4e61a7f804000a55eee7	21575289	1	main_z	11	main_z	97	stimuli_target_diamondcircles.svg	stimuli_distractor_diamondtriangles.svg	23	yes	44	1	587
6.6.1	mac	2022-12-21	08:05:29	08:15:06	576293	5e2b4e61a7f804000a55eee7	21575289	1	main_z	11	advance_on_keypress_ZEE	98	stimuli_target_diamondcircles.svg	stimuli_distractor_diamondtriangles.svg	23	yes	57	0	276
6.6.1	mac	2022-12-21	08:05:29	08:15:09	579189	5e2b4e61a7f804000a55eee7	21575289	1	main_z	11	main_z	99	stimuli_distractor_diamondtriangles.svg	stimuli_distractor_diamondtriangles.svg	40	no	0	1	2000
6.6.1	mac	2022-12-21	08:05:29	08:15:09	579189	5e2b4e61a7f804000a55eee7	21575289	1	main_z	11	advance_on_keypress_ZEE	100	stimuli_distractor_diamondtriangles.svg	stimuli_distractor_diamondtriangles.svg	40	no	57	0	280
6.6.1	mac	2022-12-21	08:05:29	08:15:10	580670	5e2b4e61a7f804000a55eee7	21575289	1	main_z	11	main_z	101	stimuli_target_trianglesquares.svg	stimuli_distractor_diamondtriangles.svg	22	yes	44	1	564
6.6.1	mac	2022-12-21	08:05:29	08:15:10	580670	5e2b4e61a7f804000a55eee7	21575289	1	main_z	11	advance_on_keypress_ZEE	102	stimuli_target_trianglesquares.svg	stimuli_distractor_diamondtriangles.svg	22	yes	57	0	235
6.6.1	mac	2022-12-21	08:05:29	08:15:13	583539	5e2b4e61a7f804000a55eee7	21575289	1	main_z	11	main_z	103	stimuli_distractor_diamondtriangles.svg	stimuli_target_circlediamonds.svg	14	yes	0	0	2000
6.6.1	mac	2022-12-21	08:05:29	08:15:13	583539	5e2b4e61a7f804000a55eee7	21575289	1	main_z	11	advance_on_keypress_ZEE	104	stimuli_distractor_diamondtriangles.svg	stimuli_target_circlediamonds.svg	14	yes	57	0	381
6.6.1	mac	2022-12-21	08:05:29	08:15:16	586556	5e2b4e61a7f804000a55eee7	21575289	1	main_z	11	main_z	105	stimuli_distractor_diamondtriangles.svg	stimuli_distractor_trianglediamonds.svg	37	no	0	1	2000
6.6.1	mac	2022-12-21	08:05:29	08:15:16	586556	5e2b4e61a7f804000a55eee7	21575289	1	main_z	11	advance_on_keypress_ZEE	106	stimuli_distractor_diamondtriangles.svg	stimuli_distractor_trianglediamonds.svg	37	no	57	0	349
6.6.1	mac	2022-12-21	08:05:29	08:15:18	588109	5e2b4e61a7f804000a55eee7	21575289	1	main_z	11	main_z	107	stimuli_target_circlediamonds.svg	stimuli_distractor_trianglediamonds.svg	2	yes	44	1	570
6.6.1	mac	2022-12-21	08:05:29	08:15:18	588109	5e2b4e61a7f804000a55eee7	21575289	1	main_z	11	advance_on_keypress_ZEE	108	stimuli_target_circlediamonds.svg	stimuli_distractor_trianglediamonds.svg	2	yes	57	0	195
6.6.1	mac	2022-12-21	08:05:29	08:15:21	590940	5e2b4e61a7f804000a55eee7	21575289	1	main_z	11	main_z	109	stimuli_distractor_trianglediamonds.svg	stimuli_distractor_diamondtriangles.svg	35	no	0	1	2000
6.6.1	mac	2022-12-21	08:05:29	08:15:21	590940	5e2b4e61a7f804000a55eee7	21575289	1	main_z	11	advance_on_keypress_ZEE	110	stimuli_distractor_trianglediamonds.svg	stimuli_distractor_diamondtriangles.svg	35	no	57	0	288
6.6.1	mac	2022-12-21	08:05:29	08:15:22	592414	5e2b4e61a7f804000a55eee7	21575289	1	main_z	11	main_z	111	stimuli_target_squarediamonds.svg	stimuli_distractor_trianglediamonds.svg	4	yes	44	1	558
6.6.1	mac	2022-12-21	08:05:29	08:15:22	592414	5e2b4e61a7f804000a55eee7	21575289	1	main_z	11	advance_on_keypress_ZEE	112	stimuli_target_squarediamonds.svg	stimuli_distractor_trianglediamonds.svg	4	yes	57	0	310
6.6.1	mac	2022-12-21	08:05:29	08:15:24	593975	5e2b4e61a7f804000a55eee7	21575289	1	main_z	11	main_z	113	stimuli_distractor_trianglediamonds.svg	stimuli_target_diamondcircles.svg	27	yes	44	1	636
6.6.1	mac	2022-12-21	08:05:29	08:15:24	593975	5e2b4e61a7f804000a55eee7	21575289	1	main_z	11	advance_on_keypress_ZEE	114	stimuli_distractor_trianglediamonds.svg	stimuli_target_diamondcircles.svg	27	yes	57	0	199
6.6.1	mac	2022-12-21	08:05:29	08:15:25	595412	5e2b4e61a7f804000a55eee7	21575289	1	main_z	11	main_z	115	stimuli_target_diamondsquares.svg	stimuli_distractor_diamondtriangles.svg	24	yes	44	1	606
6.6.1	mac	2022-12-21	08:05:29	08:15:25	595412	5e2b4e61a7f804000a55eee7	21575289	1	main_z	11	advance_on_keypress_ZEE	116	stimuli_target_diamondsquares.svg	stimuli_distractor_diamondtriangles.svg	24	yes	57	0	156
6.6.1	mac	2022-12-21	08:05:29	08:15:27	596927	5e2b4e61a7f804000a55eee7	21575289	1	main_z	11	main_z	117	stimuli_distractor_diamondtriangles.svg	stimuli_target_circletriangles.svg	13	yes	44	1	738
6.6.1	mac	2022-12-21	08:05:29	08:15:27	596927	5e2b4e61a7f804000a55eee7	21575289	1	main_z	11	advance_on_keypress_ZEE	118	stimuli_distractor_diamondtriangles.svg	stimuli_target_circletriangles.svg	13	yes	57	0	197
6.6.1	mac	2022-12-21	08:05:29	08:15:28	598359	5e2b4e61a7f804000a55eee7	21575289	1	main_z	11	main_z	119	stimuli_distractor_diamondtriangles.svg	stimuli_target_diamondcircles.svg	31	yes	44	1	598
6.6.1	mac	2022-12-21	08:05:29	08:15:28	598359	5e2b4e61a7f804000a55eee7	21575289	1	main_z	11	advance_on_keypress_ZEE	120	stimuli_distractor_diamondtriangles.svg	stimuli_target_diamondcircles.svg	31	yes	57	0	202
6.6.1	mac	2022-12-21	08:05:29	08:15:29	599805	5e2b4e61a7f804000a55eee7	21575289	1	main_z	11	main_z	121	stimuli_distractor_diamondtriangles.svg	stimuli_target_squaretriangles.svg	15	yes	44	1	616
6.6.1	mac	2022-12-21	08:05:29	08:15:29	599805	5e2b4e61a7f804000a55eee7	21575289	1	main_z	11	advance_on_keypress_ZEE	122	stimuli_distractor_diamondtriangles.svg	stimuli_target_squaretriangles.svg	15	yes	57	0	148
6.6.1	mac	2022-12-21	08:05:29	08:15:31	601191	5e2b4e61a7f804000a55eee7	21575289	1	main_z	11	main_z	123	stimuli_target_circletriangles.svg	stimuli_distractor_trianglediamonds.svg	1	yes	44	1	603
6.6.1	mac	2022-12-21	08:05:29	08:15:31	601191	5e2b4e61a7f804000a55eee7	21575289	1	main_z	11	advance_on_keypress_ZEE	124	stimuli_target_circletriangles.svg	stimuli_distractor_trianglediamonds.svg	1	yes	57	0	122
6.6.1	mac	2022-12-21	08:05:29	08:15:32	602488	5e2b4e61a7f804000a55eee7	21575289	1	main_z	11	main_z	125	stimuli_distractor_trianglediamonds.svg	stimuli_target_circlediamonds.svg	10	yes	44	1	549
6.6.1	mac	2022-12-21	08:05:29	08:15:32	602488	5e2b4e61a7f804000a55eee7	21575289	1	main_z	11	advance_on_keypress_ZEE	126	stimuli_distractor_trianglediamonds.svg	stimuli_target_circlediamonds.svg	10	yes	57	0	132
6.6.1	mac	2022-12-21	08:05:29	08:15:34	604142	5e2b4e61a7f804000a55eee7	21575289	1	main_z	11	main_z	127	stimuli_distractor_diamondtriangles.svg	stimuli_target_diamondsquares.svg	32	yes	44	1	886
6.6.1	mac	2022-12-21	08:05:29	08:15:34	604142	5e2b4e61a7f804000a55eee7	21575289	1	main_z	11	advance_on_keypress_ZEE	128	stimuli_distractor_diamondtriangles.svg	stimuli_target_diamondsquares.svg	32	yes	57	0	355
6.6.1	mac	2022-12-21	08:05:29	08:15:35	605754	5e2b4e61a7f804000a55eee7	21575289	1	main_z	11	main_z	129	stimuli_target_squaretriangles.svg	stimuli_distractor_diamondtriangles.svg	7	yes	44	1	632
6.6.1	mac	2022-12-21	08:05:29	08:15:35	605754	5e2b4e61a7f804000a55eee7	21575289	1	main_z	11	advance_on_keypress_ZEE	130	stimuli_target_squaretriangles.svg	stimuli_distractor_diamondtriangles.svg	7	yes	57	0	159
6.6.1	mac	2022-12-21	08:05:29	08:15:38	608540	5e2b4e61a7f804000a55eee7	21575289	1	main_z	11	main_z	131	stimuli_distractor_diamondtriangles.svg	stimuli_distractor_diamondtriangles.svg	39	no	0	1	2000
6.6.1	mac	2022-12-21	08:05:29	08:15:38	608540	5e2b4e61a7f804000a55eee7	21575289	1	main_z	11	advance_on_keypress_ZEE	132	stimuli_distractor_diamondtriangles.svg	stimuli_distractor_diamondtriangles.svg	39	no	57	0	439
6.6.1	mac	2022-12-21	08:05:29	08:15:40	610322	5e2b4e61a7f804000a55eee7	21575289	1	main_z	11	main_z	133	stimuli_distractor_trianglediamonds.svg	stimuli_distractor_diamondtriangles.svg	36	no	44	0	716
6.6.1	mac	2022-12-21	08:05:29	08:15:40	610322	5e2b4e61a7f804000a55eee7	21575289	1	main_z	11	advance_on_keypress_ZEE	134	stimuli_distractor_trianglediamonds.svg	stimuli_distractor_diamondtriangles.svg	36	no	57	0	550
6.6.1	mac	2022-12-21	08:05:29	08:15:43	613506	5e2b4e61a7f804000a55eee7	21575289	1	main_z	11	main_z	135	stimuli_distractor_trianglediamonds.svg	stimuli_distractor_trianglediamonds.svg	33	no	0	1	2000
6.6.1	mac	2022-12-21	08:05:29	08:15:43	613506	5e2b4e61a7f804000a55eee7	21575289	1	main_z	11	advance_on_keypress_ZEE	136	stimuli_distractor_trianglediamonds.svg	stimuli_distractor_trianglediamonds.svg	33	no	57	0	350
6.6.1	mac	2022-12-21	08:05:29	08:15:45	615131	5e2b4e61a7f804000a55eee7	21575289	1	main_z	11	main_z	137	stimuli_target_trianglecircles.svg	stimuli_distractor_trianglediamonds.svg	17	yes	44	1	642
6.6.1	mac	2022-12-21	08:05:29	08:15:45	615131	5e2b4e61a7f804000a55eee7	21575289	1	main_z	11	advance_on_keypress_ZEE	138	stimuli_target_trianglecircles.svg	stimuli_distractor_trianglediamonds.svg	17	yes	57	0	141
6.6.1	mac	2022-12-21	08:05:29	08:15:46	616753	5e2b4e61a7f804000a55eee7	21575289	1	main_z	11	main_z	139	stimuli_target_diamondcircles.svg	stimuli_distractor_trianglediamonds.svg	19	yes	44	1	864
6.6.1	mac	2022-12-21	08:05:29	08:15:46	616753	5e2b4e61a7f804000a55eee7	21575289	1	main_z	11	advance_on_keypress_ZEE	140	stimuli_target_diamondcircles.svg	stimuli_distractor_trianglediamonds.svg	19	yes	57	0	285
6.6.1	mac	2022-12-21	08:05:29	08:15:48	618383	5e2b4e61a7f804000a55eee7	21575289	1	main_z	11	main_z	141	stimuli_distractor_diamondtriangles.svg	stimuli_target_trianglesquares.svg	30	yes	44	1	710
6.6.1	mac	2022-12-21	08:05:29	08:15:48	618383	5e2b4e61a7f804000a55eee7	21575289	1	main_z	11	advance_on_keypress_ZEE	142	stimuli_distractor_diamondtriangles.svg	stimuli_target_trianglesquares.svg	30	yes	57	0	129
6.6.1	mac	2022-12-21	08:05:29	08:15:51	621139	5e2b4e61a7f804000a55eee7	21575289	1	main_z	11	main_z	143	stimuli_target_trianglecircles.svg	stimuli_distractor_diamondtriangles.svg	21	yes	0	0	2000
6.6.1	mac	2022-12-21	08:05:29	08:15:51	621139	5e2b4e61a7f804000a55eee7	21575289	1	main_z	11	advance_on_keypress_ZEE	144	stimuli_target_trianglecircles.svg	stimuli_distractor_diamondtriangles.svg	21	yes	57	0	289
6.6.1	mac	2022-12-21	08:05:29	08:15:54	624056	5e2b4e61a7f804000a55eee7	21575289	1	main_z	11	main_z	145	stimuli_distractor_diamondtriangles.svg	stimuli_distractor_trianglediamonds.svg	38	no	0	1	2000
6.6.1	mac	2022-12-21	08:05:29	08:15:54	624056	5e2b4e61a7f804000a55eee7	21575289	1	main_z	11	advance_on_keypress_ZEE	146	stimuli_distractor_diamondtriangles.svg	stimuli_distractor_trianglediamonds.svg	38	no	57	0	406
6.6.1	mac	2022-12-21	08:05:29	08:15:56	625843	5e2b4e61a7f804000a55eee7	21575289	1	main_z	11	main_z	147	stimuli_target_squaretriangles.svg	stimuli_distractor_trianglediamonds.svg	3	yes	44	1	754
6.6.1	mac	2022-12-21	08:05:29	08:15:56	625843	5e2b4e61a7f804000a55eee7	21575289	1	main_z	11	advance_on_keypress_ZEE	148	stimuli_target_squaretriangles.svg	stimuli_distractor_trianglediamonds.svg	3	yes	57	0	321
6.6.1	mac	2022-12-21	08:05:29	08:15:57	627333	5e2b4e61a7f804000a55eee7	21575289	1	main_z	11	main_z	149	stimuli_distractor_diamondtriangles.svg	stimuli_target_squarediamonds.svg	16	yes	44	1	544
6.6.1	mac	2022-12-21	08:05:29	08:15:57	627333	5e2b4e61a7f804000a55eee7	21575289	1	main_z	11	advance_on_keypress_ZEE	150	stimuli_distractor_diamondtriangles.svg	stimuli_target_squarediamonds.svg	16	yes	57	0	113
6.6.1	mac	2022-12-21	08:05:29	08:15:58	628621	5e2b4e61a7f804000a55eee7	21575289	1	main_z	11	main_z	151	stimuli_target_circlediamonds.svg	stimuli_distractor_diamondtriangles.svg	6	yes	44	1	548
6.6.1	mac	2022-12-21	08:05:29	08:15:58	628621	5e2b4e61a7f804000a55eee7	21575289	1	main_z	11	advance_on_keypress_ZEE	152	stimuli_target_circlediamonds.svg	stimuli_distractor_diamondtriangles.svg	6	yes	57	0	101
6.6.1	mac	2022-12-21	08:05:29	08:16:00	630001	5e2b4e61a7f804000a55eee7	21575289	1	main_z	11	main_z	153	stimuli_target_trianglesquares.svg	stimuli_distractor_trianglediamonds.svg	18	yes	44	1	645
6.6.1	mac	2022-12-21	08:05:29	08:16:00	630001	5e2b4e61a7f804000a55eee7	21575289	1	main_z	11	advance_on_keypress_ZEE	154	stimuli_target_trianglesquares.svg	stimuli_distractor_trianglediamonds.svg	18	yes	57	0	185
6.6.1	mac	2022-12-21	08:05:29	08:16:03	632822	5e2b4e61a7f804000a55eee7	21575289	1	main_z	11	main_z	155	stimuli_target_squarediamonds.svg	stimuli_distractor_diamondtriangles.svg	8	yes	0	0	2000
6.6.1	mac	2022-12-21	08:05:29	08:16:03	632822	5e2b4e61a7f804000a55eee7	21575289	1	main_z	11	advance_on_keypress_ZEE	156	stimuli_target_squarediamonds.svg	stimuli_distractor_diamondtriangles.svg	8	yes	57	0	463
6.6.1	mac	2022-12-21	08:05:29	08:16:04	634494	5e2b4e61a7f804000a55eee7	21575289	1	main_z	11	main_z	157	stimuli_target_circletriangles.svg	stimuli_distractor_diamondtriangles.svg	5	yes	44	1	572
6.6.1	mac	2022-12-21	08:05:29	08:16:04	634494	5e2b4e61a7f804000a55eee7	21575289	1	main_z	11	advance_on_keypress_ZEE	158	stimuli_target_circletriangles.svg	stimuli_distractor_diamondtriangles.svg	5	yes	57	0	107
6.6.1	mac	2022-12-21	08:05:29	08:16:06	635857	5e2b4e61a7f804000a55eee7	21575289	1	main_z	11	main_z	159	stimuli_distractor_trianglediamonds.svg	stimuli_target_diamondsquares.svg	28	yes	44	1	635
6.6.1	mac	2022-12-21	08:05:29	08:16:06	635857	5e2b4e61a7f804000a55eee7	21575289	1	main_z	11	advance_on_keypress_ZEE	160	stimuli_distractor_trianglediamonds.svg	stimuli_target_diamondsquares.svg	28	yes	57	0	108