build	computer.platform	date	time	timestamp	time_elapsed_ms	subject	group	session	blockcode	blocknum	trialcode	trialnum	stimulus_left	stimulus_right	stim_index	target_present	response	correct	latency
6.6.1	win	2022-12-14	19:22:25	19:24:12	105344	602a8f9033061909d48b1d04	720568600	1	practice_z	5	practice_z	1	stimuli_distractor_diamondtriangles.svg	stimuli_distractor_trianglediamonds.svg	14	no	0	1	2000
6.6.1	win	2022-12-14	19:22:25	19:24:12	105344	602a8f9033061909d48b1d04	720568600	1	practice_z	5	advance_on_keypress_ZEE	2	stimuli_distractor_diamondtriangles.svg	stimuli_distractor_trianglediamonds.svg	14	no	57	0	1513
6.6.1	win	2022-12-14	19:22:25	19:24:17	109931	602a8f9033061909d48b1d04	720568600	1	practice_z	5	practice_z	3	stimuli_distractor_diamondtriangles.svg	stimuli_target_trianglecircles.svg	9	yes	44	1	1406
6.6.1	win	2022-12-14	19:22:25	19:24:17	109931	602a8f9033061909d48b1d04	720568600	1	practice_z	5	advance_on_keypress_ZEE	4	stimuli_distractor_diamondtriangles.svg	stimuli_target_trianglecircles.svg	9	yes	57	0	651
6.6.1	win	2022-12-14	19:22:25	19:24:21	113885	602a8f9033061909d48b1d04	720568600	1	practice_z	5	practice_z	5	stimuli_distractor_trianglediamonds.svg	stimuli_target_squarediamonds.svg	11	yes	44	1	1651
6.6.1	win	2022-12-14	19:22:25	19:24:21	113885	602a8f9033061909d48b1d04	720568600	1	practice_z	5	advance_on_keypress_ZEE	6	stimuli_distractor_trianglediamonds.svg	stimuli_target_squarediamonds.svg	11	yes	57	0	580
6.6.1	win	2022-12-14	19:22:25	19:24:25	118123	602a8f9033061909d48b1d04	720568600	1	practice_z	5	practice_z	7	stimuli_distractor_diamondtriangles.svg	stimuli_distractor_diamondtriangles.svg	13	no	0	1	2000
6.6.1	win	2022-12-14	19:22:25	19:24:25	118123	602a8f9033061909d48b1d04	720568600	1	practice_z	5	advance_on_keypress_ZEE	8	stimuli_distractor_diamondtriangles.svg	stimuli_distractor_diamondtriangles.svg	13	no	57	0	490
6.6.1	win	2022-12-14	19:22:25	19:24:28	121106	602a8f9033061909d48b1d04	720568600	1	practice_z	5	practice_z	9	stimuli_distractor_trianglediamonds.svg	stimuli_target_circlediamonds.svg	10	yes	44	1	824
6.6.1	win	2022-12-14	19:22:25	19:24:28	121106	602a8f9033061909d48b1d04	720568600	1	practice_z	5	advance_on_keypress_ZEE	10	stimuli_distractor_trianglediamonds.svg	stimuli_target_circlediamonds.svg	10	yes	57	0	793
6.6.1	win	2022-12-14	19:22:25	19:24:31	124378	602a8f9033061909d48b1d04	720568600	1	practice_z	5	practice_z	11	stimuli_distractor_diamondtriangles.svg	stimuli_target_circletriangles.svg	7	yes	44	1	814
6.6.1	win	2022-12-14	19:22:25	19:24:31	124378	602a8f9033061909d48b1d04	720568600	1	practice_z	5	advance_on_keypress_ZEE	12	stimuli_distractor_diamondtriangles.svg	stimuli_target_circletriangles.svg	7	yes	57	0	613
6.6.1	win	2022-12-14	19:22:25	19:24:35	128646	602a8f9033061909d48b1d04	720568600	1	practice_z	5	practice_z	13	stimuli_distractor_trianglediamonds.svg	stimuli_distractor_trianglediamonds.svg	15	no	0	1	2000
6.6.1	win	2022-12-14	19:22:25	19:24:35	128646	602a8f9033061909d48b1d04	720568600	1	practice_z	5	advance_on_keypress_ZEE	14	stimuli_distractor_trianglediamonds.svg	stimuli_distractor_trianglediamonds.svg	15	no	57	0	531
6.6.1	win	2022-12-14	19:22:25	19:24:39	131707	602a8f9033061909d48b1d04	720568600	1	practice_z	5	practice_z	15	stimuli_target_circlediamonds.svg	stimuli_distractor_trianglediamonds.svg	4	yes	44	1	878
6.6.1	win	2022-12-14	19:22:25	19:24:39	131707	602a8f9033061909d48b1d04	720568600	1	practice_z	5	advance_on_keypress_ZEE	16	stimuli_target_circlediamonds.svg	stimuli_distractor_trianglediamonds.svg	4	yes	57	0	578
6.6.1	win	2022-12-14	19:22:25	19:24:42	135251	602a8f9033061909d48b1d04	720568600	1	practice_z	5	practice_z	17	stimuli_target_diamondsquares.svg	stimuli_distractor_diamondtriangles.svg	3	yes	44	1	1323
6.6.1	win	2022-12-14	19:22:25	19:24:42	135251	602a8f9033061909d48b1d04	720568600	1	practice_z	5	advance_on_keypress_ZEE	18	stimuli_target_diamondsquares.svg	stimuli_distractor_diamondtriangles.svg	3	yes	57	0	713
6.6.1	win	2022-12-14	19:22:25	19:24:45	138483	602a8f9033061909d48b1d04	720568600	1	practice_z	5	practice_z	19	stimuli_target_squarediamonds.svg	stimuli_distractor_trianglediamonds.svg	5	yes	44	1	847
6.6.1	win	2022-12-14	19:22:25	19:24:45	138483	602a8f9033061909d48b1d04	720568600	1	practice_z	5	advance_on_keypress_ZEE	20	stimuli_target_squarediamonds.svg	stimuli_distractor_trianglediamonds.svg	5	yes	57	0	381
6.6.1	win	2022-12-14	19:22:25	19:24:48	141353	602a8f9033061909d48b1d04	720568600	1	practice_z	5	practice_z	21	stimuli_target_circlediamonds.svg	stimuli_distractor_diamondtriangles.svg	1	yes	44	1	844
6.6.1	win	2022-12-14	19:22:25	19:24:48	141353	602a8f9033061909d48b1d04	720568600	1	practice_z	5	advance_on_keypress_ZEE	22	stimuli_target_circlediamonds.svg	stimuli_distractor_diamondtriangles.svg	1	yes	57	0	421
6.6.1	win	2022-12-14	19:22:25	19:24:51	144611	602a8f9033061909d48b1d04	720568600	1	practice_z	5	practice_z	23	stimuli_distractor_diamondtriangles.svg	stimuli_target_diamondcircles.svg	8	yes	44	1	1176
6.6.1	win	2022-12-14	19:22:25	19:24:51	144611	602a8f9033061909d48b1d04	720568600	1	practice_z	5	advance_on_keypress_ZEE	24	stimuli_distractor_diamondtriangles.svg	stimuli_target_diamondcircles.svg	8	yes	57	0	531
6.6.1	win	2022-12-14	19:22:25	19:24:56	148782	602a8f9033061909d48b1d04	720568600	1	practice_z	5	practice_z	25	stimuli_distractor_trianglediamonds.svg	stimuli_distractor_diamondtriangles.svg	16	no	0	1	2000
6.6.1	win	2022-12-14	19:22:25	19:24:56	148782	602a8f9033061909d48b1d04	720568600	1	practice_z	5	advance_on_keypress_ZEE	26	stimuli_distractor_trianglediamonds.svg	stimuli_distractor_diamondtriangles.svg	16	no	57	0	636
6.6.1	win	2022-12-14	19:22:25	19:24:59	151869	602a8f9033061909d48b1d04	720568600	1	practice_z	5	practice_z	27	stimuli_target_squarediamonds.svg	stimuli_distractor_diamondtriangles.svg	2	yes	44	1	804
6.6.1	win	2022-12-14	19:22:25	19:24:59	151869	602a8f9033061909d48b1d04	720568600	1	practice_z	5	advance_on_keypress_ZEE	28	stimuli_target_squarediamonds.svg	stimuli_distractor_diamondtriangles.svg	2	yes	57	0	453
6.6.1	win	2022-12-14	19:22:25	19:25:03	155973	602a8f9033061909d48b1d04	720568600	1	practice_z	5	practice_z	29	stimuli_target_diamondsquares.svg	stimuli_distractor_trianglediamonds.svg	6	yes	0	0	2000
6.6.1	win	2022-12-14	19:22:25	19:25:03	155973	602a8f9033061909d48b1d04	720568600	1	practice_z	5	advance_on_keypress_ZEE	30	stimuli_target_diamondsquares.svg	stimuli_distractor_trianglediamonds.svg	6	yes	57	0	434
6.6.1	win	2022-12-14	19:22:25	19:25:06	158841	602a8f9033061909d48b1d04	720568600	1	practice_z	5	practice_z	31	stimuli_distractor_trianglediamonds.svg	stimuli_target_diamondcircles.svg	12	yes	44	1	786
6.6.1	win	2022-12-14	19:22:25	19:25:06	158841	602a8f9033061909d48b1d04	720568600	1	practice_z	5	advance_on_keypress_ZEE	32	stimuli_distractor_trianglediamonds.svg	stimuli_target_diamondcircles.svg	12	yes	57	0	473
6.6.1	win	2022-12-14	19:22:25	19:25:16	169378	602a8f9033061909d48b1d04	720568600	1	main_z	7	main_z	1	stimuli_distractor_diamondtriangles.svg	stimuli_target_circlediamonds.svg	14	yes	44	1	944
6.6.1	win	2022-12-14	19:22:25	19:25:16	169378	602a8f9033061909d48b1d04	720568600	1	main_z	7	advance_on_keypress_ZEE	2	stimuli_distractor_diamondtriangles.svg	stimuli_target_circlediamonds.svg	14	yes	57	0	827
6.6.1	win	2022-12-14	19:22:25	19:25:18	171592	602a8f9033061909d48b1d04	720568600	1	main_z	7	main_z	3	stimuli_distractor_diamondtriangles.svg	stimuli_target_squarediamonds.svg	16	yes	44	1	734
6.6.1	win	2022-12-14	19:22:25	19:25:18	171592	602a8f9033061909d48b1d04	720568600	1	main_z	7	advance_on_keypress_ZEE	4	stimuli_distractor_diamondtriangles.svg	stimuli_target_squarediamonds.svg	16	yes	57	0	523
6.6.1	win	2022-12-14	19:22:25	19:25:22	174752	602a8f9033061909d48b1d04	720568600	1	main_z	7	main_z	5	stimuli_distractor_trianglediamonds.svg	stimuli_distractor_diamondtriangles.svg	36	no	0	1	2000
6.6.1	win	2022-12-14	19:22:25	19:25:22	174752	602a8f9033061909d48b1d04	720568600	1	main_z	7	advance_on_keypress_ZEE	6	stimuli_distractor_trianglediamonds.svg	stimuli_distractor_diamondtriangles.svg	36	no	57	0	462
6.6.1	win	2022-12-14	19:22:25	19:25:23	176425	602a8f9033061909d48b1d04	720568600	1	main_z	7	main_z	7	stimuli_distractor_trianglediamonds.svg	stimuli_target_squaretriangles.svg	11	yes	44	1	568
6.6.1	win	2022-12-14	19:22:25	19:25:23	176425	602a8f9033061909d48b1d04	720568600	1	main_z	7	advance_on_keypress_ZEE	8	stimuli_distractor_trianglediamonds.svg	stimuli_target_squaretriangles.svg	11	yes	57	0	943
6.6.1	win	2022-12-14	19:22:25	19:25:27	180023	602a8f9033061909d48b1d04	720568600	1	main_z	7	main_z	9	stimuli_distractor_diamondtriangles.svg	stimuli_distractor_diamondtriangles.svg	40	no	0	1	2000
6.6.1	win	2022-12-14	19:22:25	19:25:27	180023	602a8f9033061909d48b1d04	720568600	1	main_z	7	advance_on_keypress_ZEE	10	stimuli_distractor_diamondtriangles.svg	stimuli_distractor_diamondtriangles.svg	40	no	57	0	413
6.6.1	win	2022-12-14	19:22:25	19:25:29	181705	602a8f9033061909d48b1d04	720568600	1	main_z	7	main_z	11	stimuli_distractor_diamondtriangles.svg	stimuli_target_squaretriangles.svg	15	yes	44	1	616
6.6.1	win	2022-12-14	19:22:25	19:25:29	181705	602a8f9033061909d48b1d04	720568600	1	main_z	7	advance_on_keypress_ZEE	12	stimuli_distractor_diamondtriangles.svg	stimuli_target_squaretriangles.svg	15	yes	57	0	1183
6.6.1	win	2022-12-14	19:22:25	19:25:31	184181	602a8f9033061909d48b1d04	720568600	1	main_z	7	main_z	13	stimuli_target_squaretriangles.svg	stimuli_distractor_trianglediamonds.svg	3	yes	44	1	659
6.6.1	win	2022-12-14	19:22:25	19:25:31	184181	602a8f9033061909d48b1d04	720568600	1	main_z	7	advance_on_keypress_ZEE	14	stimuli_target_squaretriangles.svg	stimuli_distractor_trianglediamonds.svg	3	yes	57	0	287
6.6.1	win	2022-12-14	19:22:25	19:25:33	186667	602a8f9033061909d48b1d04	720568600	1	main_z	7	main_z	15	stimuli_target_trianglesquares.svg	stimuli_distractor_diamondtriangles.svg	22	yes	44	1	1546
6.6.1	win	2022-12-14	19:22:25	19:25:33	186667	602a8f9033061909d48b1d04	720568600	1	main_z	7	advance_on_keypress_ZEE	16	stimuli_target_trianglesquares.svg	stimuli_distractor_diamondtriangles.svg	22	yes	57	0	350
6.6.1	win	2022-12-14	19:22:25	19:25:35	188346	602a8f9033061909d48b1d04	720568600	1	main_z	7	main_z	17	stimuli_target_circletriangles.svg	stimuli_distractor_diamondtriangles.svg	5	yes	44	1	675
6.6.1	win	2022-12-14	19:22:25	19:25:35	188346	602a8f9033061909d48b1d04	720568600	1	main_z	7	advance_on_keypress_ZEE	18	stimuli_target_circletriangles.svg	stimuli_distractor_diamondtriangles.svg	5	yes	57	0	258
6.6.1	win	2022-12-14	19:22:25	19:25:37	190116	602a8f9033061909d48b1d04	720568600	1	main_z	7	main_z	19	stimuli_target_squaretriangles.svg	stimuli_distractor_diamondtriangles.svg	7	yes	44	1	862
6.6.1	win	2022-12-14	19:22:25	19:25:37	190116	602a8f9033061909d48b1d04	720568600	1	main_z	7	advance_on_keypress_ZEE	20	stimuli_target_squaretriangles.svg	stimuli_distractor_diamondtriangles.svg	7	yes	57	0	229
6.6.1	win	2022-12-14	19:22:25	19:25:40	192995	602a8f9033061909d48b1d04	720568600	1	main_z	7	main_z	21	stimuli_target_diamondsquares.svg	stimuli_distractor_diamondtriangles.svg	24	yes	0	0	2000
6.6.1	win	2022-12-14	19:22:25	19:25:40	192995	602a8f9033061909d48b1d04	720568600	1	main_z	7	advance_on_keypress_ZEE	22	stimuli_target_diamondsquares.svg	stimuli_distractor_diamondtriangles.svg	24	yes	57	0	440
6.6.1	win	2022-12-14	19:22:25	19:25:42	194776	602a8f9033061909d48b1d04	720568600	1	main_z	7	main_z	23	stimuli_target_squarediamonds.svg	stimuli_distractor_diamondtriangles.svg	8	yes	44	1	673
6.6.1	win	2022-12-14	19:22:25	19:25:42	194776	602a8f9033061909d48b1d04	720568600	1	main_z	7	advance_on_keypress_ZEE	24	stimuli_target_squarediamonds.svg	stimuli_distractor_diamondtriangles.svg	8	yes	57	0	213
6.6.1	win	2022-12-14	19:22:25	19:25:43	196264	602a8f9033061909d48b1d04	720568600	1	main_z	7	main_z	25	stimuli_target_circlediamonds.svg	stimuli_distractor_diamondtriangles.svg	6	yes	44	1	612
6.6.1	win	2022-12-14	19:22:25	19:25:43	196264	602a8f9033061909d48b1d04	720568600	1	main_z	7	advance_on_keypress_ZEE	26	stimuli_target_circlediamonds.svg	stimuli_distractor_diamondtriangles.svg	6	yes	57	0	232
6.6.1	win	2022-12-14	19:22:25	19:25:44	197677	602a8f9033061909d48b1d04	720568600	1	main_z	7	main_z	27	stimuli_distractor_diamondtriangles.svg	stimuli_target_circletriangles.svg	13	yes	44	1	542
6.6.1	win	2022-12-14	19:22:25	19:25:44	197677	602a8f9033061909d48b1d04	720568600	1	main_z	7	advance_on_keypress_ZEE	28	stimuli_distractor_diamondtriangles.svg	stimuli_target_circletriangles.svg	13	yes	57	0	217
6.6.1	win	2022-12-14	19:22:25	19:25:47	200535	602a8f9033061909d48b1d04	720568600	1	main_z	7	main_z	29	stimuli_distractor_trianglediamonds.svg	stimuli_distractor_trianglediamonds.svg	34	no	0	1	2000
6.6.1	win	2022-12-14	19:22:25	19:25:47	200535	602a8f9033061909d48b1d04	720568600	1	main_z	7	advance_on_keypress_ZEE	30	stimuli_distractor_trianglediamonds.svg	stimuli_distractor_trianglediamonds.svg	34	no	57	0	548
6.6.1	win	2022-12-14	19:22:25	19:25:51	203743	602a8f9033061909d48b1d04	720568600	1	main_z	7	main_z	31	stimuli_distractor_diamondtriangles.svg	stimuli_distractor_trianglediamonds.svg	37	no	0	1	2000
6.6.1	win	2022-12-14	19:22:25	19:25:51	203743	602a8f9033061909d48b1d04	720568600	1	main_z	7	advance_on_keypress_ZEE	32	stimuli_distractor_diamondtriangles.svg	stimuli_distractor_trianglediamonds.svg	37	no	57	0	251
6.6.1	win	2022-12-14	19:22:25	19:25:53	206658	602a8f9033061909d48b1d04	720568600	1	main_z	7	main_z	33	stimuli_distractor_trianglediamonds.svg	stimuli_distractor_diamondtriangles.svg	35	no	0	1	2000
6.6.1	win	2022-12-14	19:22:25	19:25:53	206658	602a8f9033061909d48b1d04	720568600	1	main_z	7	advance_on_keypress_ZEE	34	stimuli_distractor_trianglediamonds.svg	stimuli_distractor_diamondtriangles.svg	35	no	57	0	406
6.6.1	win	2022-12-14	19:22:25	19:25:57	209716	602a8f9033061909d48b1d04	720568600	1	main_z	7	main_z	35	stimuli_distractor_diamondtriangles.svg	stimuli_distractor_trianglediamonds.svg	38	no	0	1	2000
6.6.1	win	2022-12-14	19:22:25	19:25:57	209716	602a8f9033061909d48b1d04	720568600	1	main_z	7	advance_on_keypress_ZEE	36	stimuli_distractor_diamondtriangles.svg	stimuli_distractor_trianglediamonds.svg	38	no	57	0	438
6.6.1	win	2022-12-14	19:22:25	19:25:58	211336	602a8f9033061909d48b1d04	720568600	1	main_z	7	main_z	37	stimuli_distractor_trianglediamonds.svg	stimuli_target_circlediamonds.svg	10	yes	44	1	537
6.6.1	win	2022-12-14	19:22:25	19:25:58	211336	602a8f9033061909d48b1d04	720568600	1	main_z	7	advance_on_keypress_ZEE	38	stimuli_distractor_trianglediamonds.svg	stimuli_target_circlediamonds.svg	10	yes	57	0	374
6.6.1	win	2022-12-14	19:22:25	19:26:00	213453	602a8f9033061909d48b1d04	720568600	1	main_z	7	main_z	39	stimuli_distractor_trianglediamonds.svg	stimuli_target_diamondcircles.svg	27	yes	44	1	1088
6.6.1	win	2022-12-14	19:22:25	19:26:00	213453	602a8f9033061909d48b1d04	720568600	1	main_z	7	advance_on_keypress_ZEE	40	stimuli_distractor_trianglediamonds.svg	stimuli_target_diamondcircles.svg	27	yes	57	0	213
6.6.1	win	2022-12-14	19:22:25	19:26:02	215270	602a8f9033061909d48b1d04	720568600	1	main_z	7	main_z	41	stimuli_target_trianglecircles.svg	stimuli_distractor_trianglediamonds.svg	17	yes	44	1	947
6.6.1	win	2022-12-14	19:22:25	19:26:02	215270	602a8f9033061909d48b1d04	720568600	1	main_z	7	advance_on_keypress_ZEE	42	stimuli_target_trianglecircles.svg	stimuli_distractor_trianglediamonds.svg	17	yes	57	0	222
6.6.1	win	2022-12-14	19:22:25	19:26:04	216939	602a8f9033061909d48b1d04	720568600	1	main_z	7	main_z	43	stimuli_distractor_trianglediamonds.svg	stimuli_target_circletriangles.svg	9	yes	44	1	783
6.6.1	win	2022-12-14	19:22:25	19:26:04	216939	602a8f9033061909d48b1d04	720568600	1	main_z	7	advance_on_keypress_ZEE	44	stimuli_distractor_trianglediamonds.svg	stimuli_target_circletriangles.svg	9	yes	57	0	263
6.6.1	win	2022-12-14	19:22:25	19:26:07	219847	602a8f9033061909d48b1d04	720568600	1	main_z	7	main_z	45	stimuli_target_trianglesquares.svg	stimuli_distractor_trianglediamonds.svg	18	yes	0	0	2000
6.6.1	win	2022-12-14	19:22:25	19:26:07	219847	602a8f9033061909d48b1d04	720568600	1	main_z	7	advance_on_keypress_ZEE	46	stimuli_target_trianglesquares.svg	stimuli_distractor_trianglediamonds.svg	18	yes	57	0	457
6.6.1	win	2022-12-14	19:22:25	19:26:10	222947	602a8f9033061909d48b1d04	720568600	1	main_z	7	main_z	47	stimuli_distractor_diamondtriangles.svg	stimuli_distractor_diamondtriangles.svg	39	no	0	1	2000
6.6.1	win	2022-12-14	19:22:25	19:26:10	222947	602a8f9033061909d48b1d04	720568600	1	main_z	7	advance_on_keypress_ZEE	48	stimuli_distractor_diamondtriangles.svg	stimuli_distractor_diamondtriangles.svg	39	no	57	0	454
6.6.1	win	2022-12-14	19:22:25	19:26:12	225509	602a8f9033061909d48b1d04	720568600	1	main_z	7	main_z	49	stimuli_distractor_trianglediamonds.svg	stimuli_target_squarediamonds.svg	12	yes	44	1	1454
6.6.1	win	2022-12-14	19:22:25	19:26:12	225509	602a8f9033061909d48b1d04	720568600	1	main_z	7	advance_on_keypress_ZEE	50	stimuli_distractor_trianglediamonds.svg	stimuli_target_squarediamonds.svg	12	yes	57	0	262
6.6.1	win	2022-12-14	19:22:25	19:26:15	228003	602a8f9033061909d48b1d04	720568600	1	main_z	7	main_z	51	stimuli_target_trianglecircles.svg	stimuli_distractor_diamondtriangles.svg	21	yes	44	1	1584
6.6.1	win	2022-12-14	19:22:25	19:26:15	228003	602a8f9033061909d48b1d04	720568600	1	main_z	7	advance_on_keypress_ZEE	52	stimuli_target_trianglecircles.svg	stimuli_distractor_diamondtriangles.svg	21	yes	57	0	283
6.6.1	win	2022-12-14	19:22:25	19:26:17	229734	602a8f9033061909d48b1d04	720568600	1	main_z	7	main_z	53	stimuli_target_diamondcircles.svg	stimuli_distractor_trianglediamonds.svg	19	yes	44	1	806
6.6.1	win	2022-12-14	19:22:25	19:26:17	229734	602a8f9033061909d48b1d04	720568600	1	main_z	7	advance_on_keypress_ZEE	54	stimuli_target_diamondcircles.svg	stimuli_distractor_trianglediamonds.svg	19	yes	57	0	205
6.6.1	win	2022-12-14	19:22:25	19:26:18	231583	602a8f9033061909d48b1d04	720568600	1	main_z	7	main_z	55	stimuli_distractor_trianglediamonds.svg	stimuli_target_trianglecircles.svg	25	yes	44	1	1005
6.6.1	win	2022-12-14	19:22:25	19:26:18	231583	602a8f9033061909d48b1d04	720568600	1	main_z	7	advance_on_keypress_ZEE	56	stimuli_distractor_trianglediamonds.svg	stimuli_target_trianglecircles.svg	25	yes	57	0	200
6.6.1	win	2022-12-14	19:22:25	19:26:20	233337	602a8f9033061909d48b1d04	720568600	1	main_z	7	main_z	57	stimuli_target_circlediamonds.svg	stimuli_distractor_trianglediamonds.svg	2	yes	44	1	910
6.6.1	win	2022-12-14	19:22:25	19:26:20	233337	602a8f9033061909d48b1d04	720568600	1	main_z	7	advance_on_keypress_ZEE	58	stimuli_target_circlediamonds.svg	stimuli_distractor_trianglediamonds.svg	2	yes	57	0	248
6.6.1	win	2022-12-14	19:22:25	19:26:22	235039	602a8f9033061909d48b1d04	720568600	1	main_z	7	main_z	59	stimuli_distractor_diamondtriangles.svg	stimuli_target_diamondcircles.svg	31	yes	44	1	804
6.6.1	win	2022-12-14	19:22:25	19:26:22	235039	602a8f9033061909d48b1d04	720568600	1	main_z	7	advance_on_keypress_ZEE	60	stimuli_distractor_diamondtriangles.svg	stimuli_target_diamondcircles.svg	31	yes	57	0	220
6.6.1	win	2022-12-14	19:22:25	19:26:24	236723	602a8f9033061909d48b1d04	720568600	1	main_z	7	main_z	61	stimuli_distractor_diamondtriangles.svg	stimuli_target_trianglesquares.svg	30	yes	44	1	805
6.6.1	win	2022-12-14	19:22:25	19:26:24	236723	602a8f9033061909d48b1d04	720568600	1	main_z	7	advance_on_keypress_ZEE	62	stimuli_distractor_diamondtriangles.svg	stimuli_target_trianglesquares.svg	30	yes	57	0	186
6.6.1	win	2022-12-14	19:22:25	19:26:25	238285	602a8f9033061909d48b1d04	720568600	1	main_z	7	main_z	63	stimuli_distractor_diamondtriangles.svg	stimuli_target_diamondsquares.svg	32	yes	44	1	725
6.6.1	win	2022-12-14	19:22:25	19:26:25	238285	602a8f9033061909d48b1d04	720568600	1	main_z	7	advance_on_keypress_ZEE	64	stimuli_distractor_diamondtriangles.svg	stimuli_target_diamondsquares.svg	32	yes	57	0	211
6.6.1	win	2022-12-14	19:22:25	19:26:27	239832	602a8f9033061909d48b1d04	720568600	1	main_z	7	main_z	65	stimuli_target_circletriangles.svg	stimuli_distractor_trianglediamonds.svg	1	yes	44	1	681
6.6.1	win	2022-12-14	19:22:25	19:26:27	239832	602a8f9033061909d48b1d04	720568600	1	main_z	7	advance_on_keypress_ZEE	66	stimuli_target_circletriangles.svg	stimuli_distractor_trianglediamonds.svg	1	yes	57	0	236
6.6.1	win	2022-12-14	19:22:25	19:26:28	241476	602a8f9033061909d48b1d04	720568600	1	main_z	7	main_z	67	stimuli_target_diamondsquares.svg	stimuli_distractor_trianglediamonds.svg	20	yes	44	1	759
6.6.1	win	2022-12-14	19:22:25	19:26:28	241476	602a8f9033061909d48b1d04	720568600	1	main_z	7	advance_on_keypress_ZEE	68	stimuli_target_diamondsquares.svg	stimuli_distractor_trianglediamonds.svg	20	yes	57	0	209
6.6.1	win	2022-12-14	19:22:25	19:26:30	242954	602a8f9033061909d48b1d04	720568600	1	main_z	7	main_z	69	stimuli_distractor_diamondtriangles.svg	stimuli_target_trianglecircles.svg	29	yes	44	1	637
6.6.1	win	2022-12-14	19:22:25	19:26:30	242954	602a8f9033061909d48b1d04	720568600	1	main_z	7	advance_on_keypress_ZEE	70	stimuli_distractor_diamondtriangles.svg	stimuli_target_trianglecircles.svg	29	yes	57	0	200
6.6.1	win	2022-12-14	19:22:25	19:26:31	244444	602a8f9033061909d48b1d04	720568600	1	main_z	7	main_z	71	stimuli_distractor_trianglediamonds.svg	stimuli_target_trianglesquares.svg	26	yes	44	1	636
6.6.1	win	2022-12-14	19:22:25	19:26:31	244444	602a8f9033061909d48b1d04	720568600	1	main_z	7	advance_on_keypress_ZEE	72	stimuli_distractor_trianglediamonds.svg	stimuli_target_trianglesquares.svg	26	yes	57	0	244
6.6.1	win	2022-12-14	19:22:25	19:26:34	247332	602a8f9033061909d48b1d04	720568600	1	main_z	7	main_z	73	stimuli_distractor_trianglediamonds.svg	stimuli_distractor_trianglediamonds.svg	33	no	0	1	2000
6.6.1	win	2022-12-14	19:22:25	19:26:34	247332	602a8f9033061909d48b1d04	720568600	1	main_z	7	advance_on_keypress_ZEE	74	stimuli_distractor_trianglediamonds.svg	stimuli_distractor_trianglediamonds.svg	33	no	57	0	442
6.6.1	win	2022-12-14	19:22:25	19:26:36	248920	602a8f9033061909d48b1d04	720568600	1	main_z	7	main_z	75	stimuli_target_diamondcircles.svg	stimuli_distractor_diamondtriangles.svg	23	yes	44	1	489
6.6.1	win	2022-12-14	19:22:25	19:26:36	248920	602a8f9033061909d48b1d04	720568600	1	main_z	7	advance_on_keypress_ZEE	76	stimuli_target_diamondcircles.svg	stimuli_distractor_diamondtriangles.svg	23	yes	57	0	126
6.6.1	win	2022-12-14	19:22:25	19:26:37	250285	602a8f9033061909d48b1d04	720568600	1	main_z	7	main_z	77	stimuli_distractor_trianglediamonds.svg	stimuli_target_diamondsquares.svg	28	yes	44	1	579
6.6.1	win	2022-12-14	19:22:25	19:26:37	250285	602a8f9033061909d48b1d04	720568600	1	main_z	7	advance_on_keypress_ZEE	78	stimuli_distractor_trianglediamonds.svg	stimuli_target_diamondsquares.svg	28	yes	57	0	150
6.6.1	win	2022-12-14	19:22:25	19:26:39	252045	602a8f9033061909d48b1d04	720568600	1	main_z	7	main_z	79	stimuli_target_squarediamonds.svg	stimuli_distractor_trianglediamonds.svg	4	yes	44	1	964
6.6.1	win	2022-12-14	19:22:25	19:26:39	252045	602a8f9033061909d48b1d04	720568600	1	main_z	7	advance_on_keypress_ZEE	80	stimuli_target_squarediamonds.svg	stimuli_distractor_trianglediamonds.svg	4	yes	57	0	155
6.6.1	win	2022-12-14	19:22:25	19:26:40	253429	602a8f9033061909d48b1d04	720568600	1	main_z	7	main_z	81	stimuli_distractor_trianglediamonds.svg	stimuli_target_circlediamonds.svg	10	yes	44	1	582
6.6.1	win	2022-12-14	19:22:25	19:26:40	253429	602a8f9033061909d48b1d04	720568600	1	main_z	7	advance_on_keypress_ZEE	82	stimuli_distractor_trianglediamonds.svg	stimuli_target_circlediamonds.svg	10	yes	57	0	128
6.6.1	win	2022-12-14	19:22:25	19:26:42	254735	602a8f9033061909d48b1d04	720568600	1	main_z	7	main_z	83	stimuli_distractor_diamondtriangles.svg	stimuli_target_circlediamonds.svg	14	yes	44	1	528
6.6.1	win	2022-12-14	19:22:25	19:26:42	254735	602a8f9033061909d48b1d04	720568600	1	main_z	7	advance_on_keypress_ZEE	84	stimuli_distractor_diamondtriangles.svg	stimuli_target_circlediamonds.svg	14	yes	57	0	160
6.6.1	win	2022-12-14	19:22:25	19:26:44	256984	602a8f9033061909d48b1d04	720568600	1	main_z	7	main_z	85	stimuli_distractor_trianglediamonds.svg	stimuli_target_circletriangles.svg	9	yes	44	1	1445
6.6.1	win	2022-12-14	19:22:25	19:26:44	256984	602a8f9033061909d48b1d04	720568600	1	main_z	7	advance_on_keypress_ZEE	86	stimuli_distractor_trianglediamonds.svg	stimuli_target_circletriangles.svg	9	yes	57	0	152
6.6.1	win	2022-12-14	19:22:25	19:26:45	258534	602a8f9033061909d48b1d04	720568600	1	main_z	7	main_z	87	stimuli_distractor_trianglediamonds.svg	stimuli_target_trianglesquares.svg	26	yes	44	1	746
6.6.1	win	2022-12-14	19:22:25	19:26:45	258534	602a8f9033061909d48b1d04	720568600	1	main_z	7	advance_on_keypress_ZEE	88	stimuli_distractor_trianglediamonds.svg	stimuli_target_trianglesquares.svg	26	yes	57	0	116
6.6.1	win	2022-12-14	19:22:25	19:26:47	259876	602a8f9033061909d48b1d04	720568600	1	main_z	7	main_z	89	stimuli_distractor_diamondtriangles.svg	stimuli_target_diamondsquares.svg	32	yes	44	1	563
6.6.1	win	2022-12-14	19:22:25	19:26:47	259876	602a8f9033061909d48b1d04	720568600	1	main_z	7	advance_on_keypress_ZEE	90	stimuli_distractor_diamondtriangles.svg	stimuli_target_diamondsquares.svg	32	yes	57	0	135
6.6.1	win	2022-12-14	19:22:25	19:26:49	262645	602a8f9033061909d48b1d04	720568600	1	main_z	7	main_z	91	stimuli_distractor_diamondtriangles.svg	stimuli_distractor_trianglediamonds.svg	38	no	0	1	2000
6.6.1	win	2022-12-14	19:22:25	19:26:49	262645	602a8f9033061909d48b1d04	720568600	1	main_z	7	advance_on_keypress_ZEE	92	stimuli_distractor_diamondtriangles.svg	stimuli_distractor_trianglediamonds.svg	38	no	57	0	437
6.6.1	win	2022-12-14	19:22:25	19:26:51	264393	602a8f9033061909d48b1d04	720568600	1	main_z	7	main_z	93	stimuli_target_squarediamonds.svg	stimuli_distractor_trianglediamonds.svg	4	yes	44	1	657
6.6.1	win	2022-12-14	19:22:25	19:26:51	264393	602a8f9033061909d48b1d04	720568600	1	main_z	7	advance_on_keypress_ZEE	94	stimuli_target_squarediamonds.svg	stimuli_distractor_trianglediamonds.svg	4	yes	57	0	145
6.6.1	win	2022-12-14	19:22:25	19:26:53	265793	602a8f9033061909d48b1d04	720568600	1	main_z	7	main_z	95	stimuli_target_trianglesquares.svg	stimuli_distractor_diamondtriangles.svg	22	yes	44	1	590
6.6.1	win	2022-12-14	19:22:25	19:26:53	265793	602a8f9033061909d48b1d04	720568600	1	main_z	7	advance_on_keypress_ZEE	96	stimuli_target_trianglesquares.svg	stimuli_distractor_diamondtriangles.svg	22	yes	57	0	167
6.6.1	win	2022-12-14	19:22:25	19:26:54	267645	602a8f9033061909d48b1d04	720568600	1	main_z	7	main_z	97	stimuli_distractor_trianglediamonds.svg	stimuli_target_squaretriangles.svg	11	yes	44	1	1034
6.6.1	win	2022-12-14	19:22:25	19:26:54	267645	602a8f9033061909d48b1d04	720568600	1	main_z	7	advance_on_keypress_ZEE	98	stimuli_distractor_trianglediamonds.svg	stimuli_target_squaretriangles.svg	11	yes	57	0	224
6.6.1	win	2022-12-14	19:22:25	19:26:56	269029	602a8f9033061909d48b1d04	720568600	1	main_z	7	main_z	99	stimuli_target_trianglecircles.svg	stimuli_distractor_trianglediamonds.svg	17	yes	44	1	518
6.6.1	win	2022-12-14	19:22:25	19:26:56	269029	602a8f9033061909d48b1d04	720568600	1	main_z	7	advance_on_keypress_ZEE	100	stimuli_target_trianglecircles.svg	stimuli_distractor_trianglediamonds.svg	17	yes	57	0	258
6.6.1	win	2022-12-14	19:22:25	19:26:59	271927	602a8f9033061909d48b1d04	720568600	1	main_z	7	main_z	101	stimuli_distractor_trianglediamonds.svg	stimuli_distractor_trianglediamonds.svg	33	no	0	1	2000
6.6.1	win	2022-12-14	19:22:25	19:26:59	271927	602a8f9033061909d48b1d04	720568600	1	main_z	7	advance_on_keypress_ZEE	102	stimuli_distractor_trianglediamonds.svg	stimuli_distractor_trianglediamonds.svg	33	no	57	0	465
6.6.1	win	2022-12-14	19:22:25	19:27:01	273718	602a8f9033061909d48b1d04	720568600	1	main_z	7	main_z	103	stimuli_distractor_diamondtriangles.svg	stimuli_target_trianglesquares.svg	30	yes	44	1	659
6.6.1	win	2022-12-14	19:22:25	19:27:01	273718	602a8f9033061909d48b1d04	720568600	1	main_z	7	advance_on_keypress_ZEE	104	stimuli_distractor_diamondtriangles.svg	stimuli_target_trianglesquares.svg	30	yes	57	0	189
6.6.1	win	2022-12-14	19:22:25	19:27:02	275120	602a8f9033061909d48b1d04	720568600	1	main_z	7	main_z	105	stimuli_target_diamondsquares.svg	stimuli_distractor_trianglediamonds.svg	20	yes	44	1	553
6.6.1	win	2022-12-14	19:22:25	19:27:02	275120	602a8f9033061909d48b1d04	720568600	1	main_z	7	advance_on_keypress_ZEE	106	stimuli_target_diamondsquares.svg	stimuli_distractor_trianglediamonds.svg	20	yes	57	0	157
6.6.1	win	2022-12-14	19:22:25	19:27:04	277206	602a8f9033061909d48b1d04	720568600	1	main_z	7	main_z	107	stimuli_target_squarediamonds.svg	stimuli_distractor_diamondtriangles.svg	8	yes	44	1	1289
6.6.1	win	2022-12-14	19:22:25	19:27:04	277206	602a8f9033061909d48b1d04	720568600	1	main_z	7	advance_on_keypress_ZEE	108	stimuli_target_squarediamonds.svg	stimuli_distractor_diamondtriangles.svg	8	yes	57	0	145
6.6.1	win	2022-12-14	19:22:25	19:27:06	279174	602a8f9033061909d48b1d04	720568600	1	main_z	7	main_z	109	stimuli_target_diamondsquares.svg	stimuli_distractor_diamondtriangles.svg	24	yes	44	1	1158
6.6.1	win	2022-12-14	19:22:25	19:27:06	279174	602a8f9033061909d48b1d04	720568600	1	main_z	7	advance_on_keypress_ZEE	110	stimuli_target_diamondsquares.svg	stimuli_distractor_diamondtriangles.svg	24	yes	57	0	152
6.6.1	win	2022-12-14	19:22:25	19:27:09	281966	602a8f9033061909d48b1d04	720568600	1	main_z	7	main_z	111	stimuli_distractor_diamondtriangles.svg	stimuli_distractor_diamondtriangles.svg	40	no	0	1	2000
6.6.1	win	2022-12-14	19:22:25	19:27:09	281966	602a8f9033061909d48b1d04	720568600	1	main_z	7	advance_on_keypress_ZEE	112	stimuli_distractor_diamondtriangles.svg	stimuli_distractor_diamondtriangles.svg	40	no	57	0	779
6.6.1	win	2022-12-14	19:22:25	19:27:11	283943	602a8f9033061909d48b1d04	720568600	1	main_z	7	main_z	113	stimuli_target_circlediamonds.svg	stimuli_distractor_diamondtriangles.svg	6	yes	44	1	552
6.6.1	win	2022-12-14	19:22:25	19:27:11	283943	602a8f9033061909d48b1d04	720568600	1	main_z	7	advance_on_keypress_ZEE	114	stimuli_target_circlediamonds.svg	stimuli_distractor_diamondtriangles.svg	6	yes	57	0	113
6.6.1	win	2022-12-14	19:22:25	19:27:12	285481	602a8f9033061909d48b1d04	720568600	1	main_z	7	main_z	115	stimuli_target_squaretriangles.svg	stimuli_distractor_diamondtriangles.svg	7	yes	44	1	768
6.6.1	win	2022-12-14	19:22:25	19:27:12	285481	602a8f9033061909d48b1d04	720568600	1	main_z	7	advance_on_keypress_ZEE	116	stimuli_target_squaretriangles.svg	stimuli_distractor_diamondtriangles.svg	7	yes	57	0	140
6.6.1	win	2022-12-14	19:22:25	19:27:14	286707	602a8f9033061909d48b1d04	720568600	1	main_z	7	main_z	117	stimuli_target_circletriangles.svg	stimuli_distractor_diamondtriangles.svg	5	yes	44	1	443
6.6.1	win	2022-12-14	19:22:25	19:27:14	286707	602a8f9033061909d48b1d04	720568600	1	main_z	7	advance_on_keypress_ZEE	118	stimuli_target_circletriangles.svg	stimuli_distractor_diamondtriangles.svg	5	yes	57	0	149
6.6.1	win	2022-12-14	19:22:25	19:27:15	288393	602a8f9033061909d48b1d04	720568600	1	main_z	7	main_z	119	stimuli_target_diamondcircles.svg	stimuli_distractor_trianglediamonds.svg	19	yes	44	1	887
6.6.1	win	2022-12-14	19:22:25	19:27:15	288393	602a8f9033061909d48b1d04	720568600	1	main_z	7	advance_on_keypress_ZEE	120	stimuli_target_diamondcircles.svg	stimuli_distractor_trianglediamonds.svg	19	yes	57	0	153
6.6.1	win	2022-12-14	19:22:25	19:27:18	291189	602a8f9033061909d48b1d04	720568600	1	main_z	7	main_z	121	stimuli_distractor_trianglediamonds.svg	stimuli_distractor_trianglediamonds.svg	34	no	0	1	2000
6.6.1	win	2022-12-14	19:22:25	19:27:18	291189	602a8f9033061909d48b1d04	720568600	1	main_z	7	advance_on_keypress_ZEE	122	stimuli_distractor_trianglediamonds.svg	stimuli_distractor_trianglediamonds.svg	34	no	57	0	392
6.6.1	win	2022-12-14	19:22:25	19:27:20	292737	602a8f9033061909d48b1d04	720568600	1	main_z	7	main_z	123	stimuli_distractor_trianglediamonds.svg	stimuli_target_trianglecircles.svg	25	yes	44	1	491
6.6.1	win	2022-12-14	19:22:25	19:27:20	292737	602a8f9033061909d48b1d04	720568600	1	main_z	7	advance_on_keypress_ZEE	124	stimuli_distractor_trianglediamonds.svg	stimuli_target_trianglecircles.svg	25	yes	57	0	114
6.6.1	win	2022-12-14	19:22:25	19:27:21	294385	602a8f9033061909d48b1d04	720568600	1	main_z	7	main_z	125	stimuli_distractor_trianglediamonds.svg	stimuli_target_diamondsquares.svg	28	yes	44	1	863
6.6.1	win	2022-12-14	19:22:25	19:27:21	294385	602a8f9033061909d48b1d04	720568600	1	main_z	7	advance_on_keypress_ZEE	126	stimuli_distractor_trianglediamonds.svg	stimuli_target_diamondsquares.svg	28	yes	57	0	120
6.6.1	win	2022-12-14	19:22:25	19:27:23	296187	602a8f9033061909d48b1d04	720568600	1	main_z	7	main_z	127	stimuli_distractor_diamondtriangles.svg	stimuli_target_squaretriangles.svg	15	yes	44	1	1016
6.6.1	win	2022-12-14	19:22:25	19:27:23	296187	602a8f9033061909d48b1d04	720568600	1	main_z	7	advance_on_keypress_ZEE	128	stimuli_distractor_diamondtriangles.svg	stimuli_target_squaretriangles.svg	15	yes	57	0	163
6.6.1	win	2022-12-14	19:22:25	19:27:24	297522	602a8f9033061909d48b1d04	720568600	1	main_z	7	main_z	129	stimuli_distractor_diamondtriangles.svg	stimuli_target_trianglecircles.svg	29	yes	44	1	523
6.6.1	win	2022-12-14	19:22:25	19:27:24	297522	602a8f9033061909d48b1d04	720568600	1	main_z	7	advance_on_keypress_ZEE	130	stimuli_distractor_diamondtriangles.svg	stimuli_target_trianglecircles.svg	29	yes	57	0	133
6.6.1	win	2022-12-14	19:22:25	19:27:26	298793	602a8f9033061909d48b1d04	720568600	1	main_z	7	main_z	131	stimuli_target_trianglecircles.svg	stimuli_distractor_diamondtriangles.svg	21	yes	44	1	499
6.6.1	win	2022-12-14	19:22:25	19:27:26	298793	602a8f9033061909d48b1d04	720568600	1	main_z	7	advance_on_keypress_ZEE	132	stimuli_target_trianglecircles.svg	stimuli_distractor_diamondtriangles.svg	21	yes	57	0	127
6.6.1	win	2022-12-14	19:22:25	19:27:28	301570	602a8f9033061909d48b1d04	720568600	1	main_z	7	main_z	133	stimuli_distractor_trianglediamonds.svg	stimuli_distractor_diamondtriangles.svg	35	no	0	1	2000
6.6.1	win	2022-12-14	19:22:25	19:27:28	301570	602a8f9033061909d48b1d04	720568600	1	main_z	7	advance_on_keypress_ZEE	134	stimuli_distractor_trianglediamonds.svg	stimuli_distractor_diamondtriangles.svg	35	no	57	0	429
6.6.1	win	2022-12-14	19:22:25	19:27:30	303172	602a8f9033061909d48b1d04	720568600	1	main_z	7	main_z	135	stimuli_target_circlediamonds.svg	stimuli_distractor_trianglediamonds.svg	2	yes	44	1	529
6.6.1	win	2022-12-14	19:22:25	19:27:30	303172	602a8f9033061909d48b1d04	720568600	1	main_z	7	advance_on_keypress_ZEE	136	stimuli_target_circlediamonds.svg	stimuli_distractor_trianglediamonds.svg	2	yes	57	0	128
6.6.1	win	2022-12-14	19:22:25	19:27:33	305944	602a8f9033061909d48b1d04	720568600	1	main_z	7	main_z	137	stimuli_distractor_diamondtriangles.svg	stimuli_distractor_diamondtriangles.svg	39	no	0	1	2000
6.6.1	win	2022-12-14	19:22:25	19:27:33	305944	602a8f9033061909d48b1d04	720568600	1	main_z	7	advance_on_keypress_ZEE	138	stimuli_distractor_diamondtriangles.svg	stimuli_distractor_diamondtriangles.svg	39	no	57	0	375
6.6.1	win	2022-12-14	19:22:25	19:27:34	307495	602a8f9033061909d48b1d04	720568600	1	main_z	7	main_z	139	stimuli_distractor_trianglediamonds.svg	stimuli_target_diamondcircles.svg	27	yes	44	1	516
6.6.1	win	2022-12-14	19:22:25	19:27:34	307495	602a8f9033061909d48b1d04	720568600	1	main_z	7	advance_on_keypress_ZEE	140	stimuli_distractor_trianglediamonds.svg	stimuli_target_diamondcircles.svg	27	yes	57	0	164
6.6.1	win	2022-12-14	19:22:25	19:27:36	308862	602a8f9033061909d48b1d04	720568600	1	main_z	7	main_z	141	stimuli_target_trianglesquares.svg	stimuli_distractor_trianglediamonds.svg	18	yes	44	1	544
6.6.1	win	2022-12-14	19:22:25	19:27:36	308862	602a8f9033061909d48b1d04	720568600	1	main_z	7	advance_on_keypress_ZEE	142	stimuli_target_trianglesquares.svg	stimuli_distractor_trianglediamonds.svg	18	yes	57	0	132
6.6.1	win	2022-12-14	19:22:25	19:27:38	311634	602a8f9033061909d48b1d04	720568600	1	main_z	7	main_z	143	stimuli_distractor_diamondtriangles.svg	stimuli_distractor_trianglediamonds.svg	37	no	0	1	2000
6.6.1	win	2022-12-14	19:22:25	19:27:38	311634	602a8f9033061909d48b1d04	720568600	1	main_z	7	advance_on_keypress_ZEE	144	stimuli_distractor_diamondtriangles.svg	stimuli_distractor_trianglediamonds.svg	37	no	57	0	391
6.6.1	win	2022-12-14	19:22:25	19:27:40	313237	602a8f9033061909d48b1d04	720568600	1	main_z	7	main_z	145	stimuli_distractor_diamondtriangles.svg	stimuli_target_diamondcircles.svg	31	yes	44	1	546
6.6.1	win	2022-12-14	19:22:25	19:27:40	313237	602a8f9033061909d48b1d04	720568600	1	main_z	7	advance_on_keypress_ZEE	146	stimuli_distractor_diamondtriangles.svg	stimuli_target_diamondcircles.svg	31	yes	57	0	90
6.6.1	win	2022-12-14	19:22:25	19:27:43	315686	602a8f9033061909d48b1d04	720568600	1	main_z	7	main_z	147	stimuli_distractor_diamondtriangles.svg	stimuli_target_circletriangles.svg	13	yes	44	1	1711
6.6.1	win	2022-12-14	19:22:25	19:27:43	315686	602a8f9033061909d48b1d04	720568600	1	main_z	7	advance_on_keypress_ZEE	148	stimuli_distractor_diamondtriangles.svg	stimuli_target_circletriangles.svg	13	yes	57	0	165
6.6.1	win	2022-12-14	19:22:25	19:27:44	317168	602a8f9033061909d48b1d04	720568600	1	main_z	7	main_z	149	stimuli_distractor_trianglediamonds.svg	stimuli_target_squarediamonds.svg	12	yes	44	1	677
6.6.1	win	2022-12-14	19:22:25	19:27:44	317168	602a8f9033061909d48b1d04	720568600	1	main_z	7	advance_on_keypress_ZEE	150	stimuli_distractor_trianglediamonds.svg	stimuli_target_squarediamonds.svg	12	yes	57	0	177
6.6.1	win	2022-12-14	19:22:25	19:27:45	318466	602a8f9033061909d48b1d04	720568600	1	main_z	7	main_z	151	stimuli_target_circletriangles.svg	stimuli_distractor_trianglediamonds.svg	1	yes	44	1	475
6.6.1	win	2022-12-14	19:22:25	19:27:45	318466	602a8f9033061909d48b1d04	720568600	1	main_z	7	advance_on_keypress_ZEE	152	stimuli_target_circletriangles.svg	stimuli_distractor_trianglediamonds.svg	1	yes	57	0	131
6.6.1	win	2022-12-14	19:22:25	19:27:47	320631	602a8f9033061909d48b1d04	720568600	1	main_z	7	main_z	153	stimuli_distractor_trianglediamonds.svg	stimuli_distractor_diamondtriangles.svg	36	no	44	0	1390
6.6.1	win	2022-12-14	19:22:25	19:27:47	320631	602a8f9033061909d48b1d04	720568600	1	main_z	7	advance_on_keypress_ZEE	154	stimuli_distractor_trianglediamonds.svg	stimuli_distractor_diamondtriangles.svg	36	no	57	0	125
6.6.1	win	2022-12-14	19:22:25	19:27:49	322004	602a8f9033061909d48b1d04	720568600	1	main_z	7	main_z	155	stimuli_target_diamondcircles.svg	stimuli_distractor_diamondtriangles.svg	23	yes	44	1	598
6.6.1	win	2022-12-14	19:22:25	19:27:49	322004	602a8f9033061909d48b1d04	720568600	1	main_z	7	advance_on_keypress_ZEE	156	stimuli_target_diamondcircles.svg	stimuli_distractor_diamondtriangles.svg	23	yes	57	0	147
6.6.1	win	2022-12-14	19:22:25	19:27:50	323417	602a8f9033061909d48b1d04	720568600	1	main_z	7	main_z	157	stimuli_distractor_diamondtriangles.svg	stimuli_target_squarediamonds.svg	16	yes	44	1	610
6.6.1	win	2022-12-14	19:22:25	19:27:50	323417	602a8f9033061909d48b1d04	720568600	1	main_z	7	advance_on_keypress_ZEE	158	stimuli_distractor_diamondtriangles.svg	stimuli_target_squarediamonds.svg	16	yes	57	0	154
6.6.1	win	2022-12-14	19:22:25	19:27:52	324766	602a8f9033061909d48b1d04	720568600	1	main_z	7	main_z	159	stimuli_target_squaretriangles.svg	stimuli_distractor_trianglediamonds.svg	3	yes	44	1	542
6.6.1	win	2022-12-14	19:22:25	19:27:52	324766	602a8f9033061909d48b1d04	720568600	1	main_z	7	advance_on_keypress_ZEE	160	stimuli_target_squaretriangles.svg	stimuli_distractor_trianglediamonds.svg	3	yes	57	0	157
6.6.1	win	2022-12-14	19:22:25	19:28:13	345879	602a8f9033061909d48b1d04	720568600	1	practice_slash	9	practice_slash	1	stimuli_distractor_trianglediamonds.svg	stimuli_distractor_trianglediamonds.svg	15	no	0	1	2000
6.6.1	win	2022-12-14	19:22:25	19:28:13	345879	602a8f9033061909d48b1d04	720568600	1	practice_slash	9	advance_on_keypress_SLASH	2	stimuli_distractor_trianglediamonds.svg	stimuli_distractor_trianglediamonds.svg	15	no	57	0	1277
6.6.1	win	2022-12-14	19:22:25	19:28:18	350810	602a8f9033061909d48b1d04	720568600	1	practice_slash	9	practice_slash	3	stimuli_distractor_diamondtriangles.svg	stimuli_distractor_diamondtriangles.svg	13	no	0	1	2000
6.6.1	win	2022-12-14	19:22:25	19:28:18	350810	602a8f9033061909d48b1d04	720568600	1	practice_slash	9	advance_on_keypress_SLASH	4	stimuli_distractor_diamondtriangles.svg	stimuli_distractor_diamondtriangles.svg	13	no	57	0	499
6.6.1	win	2022-12-14	19:22:25	19:28:20	353580	602a8f9033061909d48b1d04	720568600	1	practice_slash	9	practice_slash	5	stimuli_distractor_trianglediamonds.svg	stimuli_target_squarediamonds.svg	11	yes	53	1	612
6.6.1	win	2022-12-14	19:22:25	19:28:20	353580	602a8f9033061909d48b1d04	720568600	1	practice_slash	9	advance_on_keypress_SLASH	6	stimuli_distractor_trianglediamonds.svg	stimuli_target_squarediamonds.svg	11	yes	57	0	728
6.6.1	win	2022-12-14	19:22:25	19:28:23	356636	602a8f9033061909d48b1d04	720568600	1	practice_slash	9	practice_slash	7	stimuli_target_diamondsquares.svg	stimuli_distractor_diamondtriangles.svg	3	yes	53	1	668
6.6.1	win	2022-12-14	19:22:25	19:28:23	356636	602a8f9033061909d48b1d04	720568600	1	practice_slash	9	advance_on_keypress_SLASH	8	stimuli_target_diamondsquares.svg	stimuli_distractor_diamondtriangles.svg	3	yes	57	0	344
6.6.1	win	2022-12-14	19:22:25	19:28:26	359244	602a8f9033061909d48b1d04	720568600	1	practice_slash	9	practice_slash	9	stimuli_distractor_trianglediamonds.svg	stimuli_target_circlediamonds.svg	10	yes	53	1	603
6.6.1	win	2022-12-14	19:22:25	19:28:26	359244	602a8f9033061909d48b1d04	720568600	1	practice_slash	9	advance_on_keypress_SLASH	10	stimuli_distractor_trianglediamonds.svg	stimuli_target_circlediamonds.svg	10	yes	57	0	247
6.6.1	win	2022-12-14	19:22:25	19:28:29	361938	602a8f9033061909d48b1d04	720568600	1	practice_slash	9	practice_slash	11	stimuli_distractor_diamondtriangles.svg	stimuli_target_diamondcircles.svg	8	yes	53	1	781
6.6.1	win	2022-12-14	19:22:25	19:28:29	361938	602a8f9033061909d48b1d04	720568600	1	practice_slash	9	advance_on_keypress_SLASH	12	stimuli_distractor_diamondtriangles.svg	stimuli_target_diamondcircles.svg	8	yes	57	0	637
6.6.1	win	2022-12-14	19:22:25	19:28:32	364835	602a8f9033061909d48b1d04	720568600	1	practice_slash	9	practice_slash	13	stimuli_distractor_diamondtriangles.svg	stimuli_target_trianglecircles.svg	9	yes	53	1	603
6.6.1	win	2022-12-14	19:22:25	19:28:32	364835	602a8f9033061909d48b1d04	720568600	1	practice_slash	9	advance_on_keypress_SLASH	14	stimuli_distractor_diamondtriangles.svg	stimuli_target_trianglecircles.svg	9	yes	57	0	370
6.6.1	win	2022-12-14	19:22:25	19:28:36	368865	602a8f9033061909d48b1d04	720568600	1	practice_slash	9	practice_slash	15	stimuli_distractor_trianglediamonds.svg	stimuli_distractor_diamondtriangles.svg	16	no	0	1	2000
6.6.1	win	2022-12-14	19:22:25	19:28:36	368865	602a8f9033061909d48b1d04	720568600	1	practice_slash	9	advance_on_keypress_SLASH	16	stimuli_distractor_trianglediamonds.svg	stimuli_distractor_diamondtriangles.svg	16	no	57	0	523
6.6.1	win	2022-12-14	19:22:25	19:28:38	371667	602a8f9033061909d48b1d04	720568600	1	practice_slash	9	practice_slash	17	stimuli_target_squarediamonds.svg	stimuli_distractor_diamondtriangles.svg	2	yes	53	1	629
6.6.1	win	2022-12-14	19:22:25	19:28:38	371667	602a8f9033061909d48b1d04	720568600	1	practice_slash	9	advance_on_keypress_SLASH	18	stimuli_target_squarediamonds.svg	stimuli_distractor_diamondtriangles.svg	2	yes	57	0	140
6.6.1	win	2022-12-14	19:22:25	19:28:41	374387	602a8f9033061909d48b1d04	720568600	1	practice_slash	9	practice_slash	19	stimuli_distractor_diamondtriangles.svg	stimuli_distractor_trianglediamonds.svg	14	no	53	0	907
6.6.1	win	2022-12-14	19:22:25	19:28:41	374387	602a8f9033061909d48b1d04	720568600	1	practice_slash	9	advance_on_keypress_SLASH	20	stimuli_distractor_diamondtriangles.svg	stimuli_distractor_trianglediamonds.svg	14	no	57	0	470
6.6.1	win	2022-12-14	19:22:25	19:28:44	377374	602a8f9033061909d48b1d04	720568600	1	practice_slash	9	practice_slash	21	stimuli_distractor_diamondtriangles.svg	stimuli_target_circletriangles.svg	7	yes	53	1	855
6.6.1	win	2022-12-14	19:22:25	19:28:44	377374	602a8f9033061909d48b1d04	720568600	1	practice_slash	9	advance_on_keypress_SLASH	22	stimuli_distractor_diamondtriangles.svg	stimuli_target_circletriangles.svg	7	yes	57	0	523
6.6.1	win	2022-12-14	19:22:25	19:28:47	380283	602a8f9033061909d48b1d04	720568600	1	practice_slash	9	practice_slash	23	stimuli_target_squarediamonds.svg	stimuli_distractor_trianglediamonds.svg	5	yes	53	1	730
6.6.1	win	2022-12-14	19:22:25	19:28:47	380283	602a8f9033061909d48b1d04	720568600	1	practice_slash	9	advance_on_keypress_SLASH	24	stimuli_target_squarediamonds.svg	stimuli_distractor_trianglediamonds.svg	5	yes	57	0	467
6.6.1	win	2022-12-14	19:22:25	19:28:50	383490	602a8f9033061909d48b1d04	720568600	1	practice_slash	9	practice_slash	25	stimuli_distractor_trianglediamonds.svg	stimuli_target_diamondcircles.svg	12	yes	53	1	1071
6.6.1	win	2022-12-14	19:22:25	19:28:50	383490	602a8f9033061909d48b1d04	720568600	1	practice_slash	9	advance_on_keypress_SLASH	26	stimuli_distractor_trianglediamonds.svg	stimuli_target_diamondcircles.svg	12	yes	57	0	349
6.6.1	win	2022-12-14	19:22:25	19:28:53	386157	602a8f9033061909d48b1d04	720568600	1	practice_slash	9	practice_slash	27	stimuli_target_circlediamonds.svg	stimuli_distractor_trianglediamonds.svg	4	yes	53	1	663
6.6.1	win	2022-12-14	19:22:25	19:28:53	386157	602a8f9033061909d48b1d04	720568600	1	practice_slash	9	advance_on_keypress_SLASH	28	stimuli_target_circlediamonds.svg	stimuli_distractor_trianglediamonds.svg	4	yes	57	0	450
6.6.1	win	2022-12-14	19:22:25	19:28:56	389306	602a8f9033061909d48b1d04	720568600	1	practice_slash	9	practice_slash	29	stimuli_target_diamondsquares.svg	stimuli_distractor_trianglediamonds.svg	6	yes	53	1	1039
6.6.1	win	2022-12-14	19:22:25	19:28:56	389306	602a8f9033061909d48b1d04	720568600	1	practice_slash	9	advance_on_keypress_SLASH	30	stimuli_target_diamondsquares.svg	stimuli_distractor_trianglediamonds.svg	6	yes	57	0	451
6.6.1	win	2022-12-14	19:22:25	19:28:59	392002	602a8f9033061909d48b1d04	720568600	1	practice_slash	9	practice_slash	31	stimuli_target_circlediamonds.svg	stimuli_distractor_diamondtriangles.svg	1	yes	53	1	594
6.6.1	win	2022-12-14	19:22:25	19:28:59	392002	602a8f9033061909d48b1d04	720568600	1	practice_slash	9	advance_on_keypress_SLASH	32	stimuli_target_circlediamonds.svg	stimuli_distractor_diamondtriangles.svg	1	yes	57	0	391
6.6.1	win	2022-12-14	19:22:25	19:29:07	400130	602a8f9033061909d48b1d04	720568600	1	main_slash	11	main_slash	1	stimuli_distractor_trianglediamonds.svg	stimuli_distractor_diamondtriangles.svg	35	no	0	1	2000
6.6.1	win	2022-12-14	19:22:25	19:29:07	400130	602a8f9033061909d48b1d04	720568600	1	main_slash	11	advance_on_keypress_SLASH	2	stimuli_distractor_trianglediamonds.svg	stimuli_distractor_diamondtriangles.svg	35	no	57	0	274
6.6.1	win	2022-12-14	19:22:25	19:29:08	401582	602a8f9033061909d48b1d04	720568600	1	main_slash	11	main_slash	3	stimuli_target_circletriangles.svg	stimuli_distractor_diamondtriangles.svg	5	yes	53	1	544
6.6.1	win	2022-12-14	19:22:25	19:29:08	401582	602a8f9033061909d48b1d04	720568600	1	main_slash	11	advance_on_keypress_SLASH	4	stimuli_target_circletriangles.svg	stimuli_distractor_diamondtriangles.svg	5	yes	57	0	1196
6.6.1	win	2022-12-14	19:22:25	19:29:11	403998	602a8f9033061909d48b1d04	720568600	1	main_slash	11	main_slash	5	stimuli_distractor_trianglediamonds.svg	stimuli_target_trianglecircles.svg	25	yes	53	1	586
6.6.1	win	2022-12-14	19:22:25	19:29:11	403998	602a8f9033061909d48b1d04	720568600	1	main_slash	11	advance_on_keypress_SLASH	6	stimuli_distractor_trianglediamonds.svg	stimuli_target_trianglecircles.svg	25	yes	57	0	216
6.6.1	win	2022-12-14	19:22:25	19:29:14	406853	602a8f9033061909d48b1d04	720568600	1	main_slash	11	main_slash	7	stimuli_distractor_trianglediamonds.svg	stimuli_distractor_diamondtriangles.svg	36	no	0	1	2000
6.6.1	win	2022-12-14	19:22:25	19:29:14	406853	602a8f9033061909d48b1d04	720568600	1	main_slash	11	advance_on_keypress_SLASH	8	stimuli_distractor_trianglediamonds.svg	stimuli_distractor_diamondtriangles.svg	36	no	57	0	715
6.6.1	win	2022-12-14	19:22:25	19:29:16	409139	602a8f9033061909d48b1d04	720568600	1	main_slash	11	main_slash	9	stimuli_distractor_trianglediamonds.svg	stimuli_target_trianglesquares.svg	26	yes	53	1	903
6.6.1	win	2022-12-14	19:22:25	19:29:16	409139	602a8f9033061909d48b1d04	720568600	1	main_slash	11	advance_on_keypress_SLASH	10	stimuli_distractor_trianglediamonds.svg	stimuli_target_trianglesquares.svg	26	yes	57	0	211
6.6.1	win	2022-12-14	19:22:25	19:29:18	410708	602a8f9033061909d48b1d04	720568600	1	main_slash	11	main_slash	11	stimuli_distractor_diamondtriangles.svg	stimuli_target_circletriangles.svg	13	yes	53	1	706
6.6.1	win	2022-12-14	19:22:25	19:29:18	410708	602a8f9033061909d48b1d04	720568600	1	main_slash	11	advance_on_keypress_SLASH	12	stimuli_distractor_diamondtriangles.svg	stimuli_target_circletriangles.svg	13	yes	57	0	146
6.6.1	win	2022-12-14	19:22:25	19:29:19	412133	602a8f9033061909d48b1d04	720568600	1	main_slash	11	main_slash	13	stimuli_target_diamondsquares.svg	stimuli_distractor_diamondtriangles.svg	24	yes	53	1	615
6.6.1	win	2022-12-14	19:22:25	19:29:19	412133	602a8f9033061909d48b1d04	720568600	1	main_slash	11	advance_on_keypress_SLASH	14	stimuli_target_diamondsquares.svg	stimuli_distractor_diamondtriangles.svg	24	yes	57	0	179
6.6.1	win	2022-12-14	19:22:25	19:29:20	413528	602a8f9033061909d48b1d04	720568600	1	main_slash	11	main_slash	15	stimuli_target_diamondcircles.svg	stimuli_distractor_trianglediamonds.svg	19	yes	53	1	560
6.6.1	win	2022-12-14	19:22:25	19:29:20	413528	602a8f9033061909d48b1d04	720568600	1	main_slash	11	advance_on_keypress_SLASH	16	stimuli_target_diamondcircles.svg	stimuli_distractor_trianglediamonds.svg	19	yes	57	0	146
6.6.1	win	2022-12-14	19:22:25	19:29:22	414898	602a8f9033061909d48b1d04	720568600	1	main_slash	11	main_slash	17	stimuli_distractor_diamondtriangles.svg	stimuli_target_trianglesquares.svg	30	yes	53	1	572
6.6.1	win	2022-12-14	19:22:25	19:29:22	414898	602a8f9033061909d48b1d04	720568600	1	main_slash	11	advance_on_keypress_SLASH	18	stimuli_distractor_diamondtriangles.svg	stimuli_target_trianglesquares.svg	30	yes	57	0	182
6.6.1	win	2022-12-14	19:22:25	19:29:24	416805	602a8f9033061909d48b1d04	720568600	1	main_slash	11	main_slash	19	stimuli_distractor_diamondtriangles.svg	stimuli_target_squarediamonds.svg	16	yes	53	1	1088
6.6.1	win	2022-12-14	19:22:25	19:29:24	416805	602a8f9033061909d48b1d04	720568600	1	main_slash	11	advance_on_keypress_SLASH	20	stimuli_distractor_diamondtriangles.svg	stimuli_target_squarediamonds.svg	16	yes	57	0	136
6.6.1	win	2022-12-14	19:22:25	19:29:25	418575	602a8f9033061909d48b1d04	720568600	1	main_slash	11	main_slash	21	stimuli_distractor_trianglediamonds.svg	stimuli_target_diamondsquares.svg	28	yes	53	1	983
6.6.1	win	2022-12-14	19:22:25	19:29:25	418575	602a8f9033061909d48b1d04	720568600	1	main_slash	11	advance_on_keypress_SLASH	22	stimuli_distractor_trianglediamonds.svg	stimuli_target_diamondsquares.svg	28	yes	57	0	165
6.6.1	win	2022-12-14	19:22:25	19:29:27	420062	602a8f9033061909d48b1d04	720568600	1	main_slash	11	main_slash	23	stimuli_target_trianglecircles.svg	stimuli_distractor_trianglediamonds.svg	17	yes	53	1	663
6.6.1	win	2022-12-14	19:22:25	19:29:27	420062	602a8f9033061909d48b1d04	720568600	1	main_slash	11	advance_on_keypress_SLASH	24	stimuli_target_trianglecircles.svg	stimuli_distractor_trianglediamonds.svg	17	yes	57	0	185
6.6.1	win	2022-12-14	19:22:25	19:29:28	421482	602a8f9033061909d48b1d04	720568600	1	main_slash	11	main_slash	25	stimuli_target_circlediamonds.svg	stimuli_distractor_trianglediamonds.svg	2	yes	53	1	583
6.6.1	win	2022-12-14	19:22:25	19:29:28	421482	602a8f9033061909d48b1d04	720568600	1	main_slash	11	advance_on_keypress_SLASH	26	stimuli_target_circlediamonds.svg	stimuli_distractor_trianglediamonds.svg	2	yes	57	0	163
6.6.1	win	2022-12-14	19:22:25	19:29:30	423089	602a8f9033061909d48b1d04	720568600	1	main_slash	11	main_slash	27	stimuli_target_diamondsquares.svg	stimuli_distractor_trianglediamonds.svg	20	yes	53	1	796
6.6.1	win	2022-12-14	19:22:25	19:29:30	423089	602a8f9033061909d48b1d04	720568600	1	main_slash	11	advance_on_keypress_SLASH	28	stimuli_target_diamondsquares.svg	stimuli_distractor_trianglediamonds.svg	20	yes	57	0	182
6.6.1	win	2022-12-14	19:22:25	19:29:32	424740	602a8f9033061909d48b1d04	720568600	1	main_slash	11	main_slash	29	stimuli_target_circletriangles.svg	stimuli_distractor_trianglediamonds.svg	1	yes	53	1	825
6.6.1	win	2022-12-14	19:22:25	19:29:32	424740	602a8f9033061909d48b1d04	720568600	1	main_slash	11	advance_on_keypress_SLASH	30	stimuli_target_circletriangles.svg	stimuli_distractor_trianglediamonds.svg	1	yes	57	0	136
6.6.1	win	2022-12-14	19:22:25	19:29:33	426089	602a8f9033061909d48b1d04	720568600	1	main_slash	11	main_slash	31	stimuli_distractor_diamondtriangles.svg	stimuli_target_trianglecircles.svg	29	yes	53	1	566
6.6.1	win	2022-12-14	19:22:25	19:29:33	426089	602a8f9033061909d48b1d04	720568600	1	main_slash	11	advance_on_keypress_SLASH	32	stimuli_distractor_diamondtriangles.svg	stimuli_target_trianglecircles.svg	29	yes	57	0	164
6.6.1	win	2022-12-14	19:22:25	19:29:35	427730	602a8f9033061909d48b1d04	720568600	1	main_slash	11	main_slash	33	stimuli_target_trianglesquares.svg	stimuli_distractor_diamondtriangles.svg	22	yes	53	1	815
6.6.1	win	2022-12-14	19:22:25	19:29:35	427730	602a8f9033061909d48b1d04	720568600	1	main_slash	11	advance_on_keypress_SLASH	34	stimuli_target_trianglesquares.svg	stimuli_distractor_diamondtriangles.svg	22	yes	57	0	113
6.6.1	win	2022-12-14	19:22:25	19:29:36	429138	602a8f9033061909d48b1d04	720568600	1	main_slash	11	main_slash	35	stimuli_target_squaretriangles.svg	stimuli_distractor_trianglediamonds.svg	3	yes	53	1	632
6.6.1	win	2022-12-14	19:22:25	19:29:36	429138	602a8f9033061909d48b1d04	720568600	1	main_slash	11	advance_on_keypress_SLASH	36	stimuli_target_squaretriangles.svg	stimuli_distractor_trianglediamonds.svg	3	yes	57	0	117
6.6.1	win	2022-12-14	19:22:25	19:29:37	430530	602a8f9033061909d48b1d04	720568600	1	main_slash	11	main_slash	37	stimuli_target_trianglesquares.svg	stimuli_distractor_trianglediamonds.svg	18	yes	53	1	624
6.6.1	win	2022-12-14	19:22:25	19:29:37	430530	602a8f9033061909d48b1d04	720568600	1	main_slash	11	advance_on_keypress_SLASH	38	stimuli_target_trianglesquares.svg	stimuli_distractor_trianglediamonds.svg	18	yes	57	0	184
6.6.1	win	2022-12-14	19:22:25	19:29:40	433356	602a8f9033061909d48b1d04	720568600	1	main_slash	11	main_slash	39	stimuli_distractor_trianglediamonds.svg	stimuli_distractor_trianglediamonds.svg	33	no	0	1	2000
6.6.1	win	2022-12-14	19:22:25	19:29:40	433356	602a8f9033061909d48b1d04	720568600	1	main_slash	11	advance_on_keypress_SLASH	40	stimuli_distractor_trianglediamonds.svg	stimuli_distractor_trianglediamonds.svg	33	no	57	0	481
6.6.1	win	2022-12-14	19:22:25	19:29:42	435029	602a8f9033061909d48b1d04	720568600	1	main_slash	11	main_slash	41	stimuli_distractor_trianglediamonds.svg	stimuli_target_squaretriangles.svg	11	yes	53	1	541
6.6.1	win	2022-12-14	19:22:25	19:29:42	435029	602a8f9033061909d48b1d04	720568600	1	main_slash	11	advance_on_keypress_SLASH	42	stimuli_distractor_trianglediamonds.svg	stimuli_target_squaretriangles.svg	11	yes	57	0	128
6.6.1	win	2022-12-14	19:22:25	19:29:43	436346	602a8f9033061909d48b1d04	720568600	1	main_slash	11	main_slash	43	stimuli_distractor_trianglediamonds.svg	stimuli_target_circletriangles.svg	9	yes	53	1	550
6.6.1	win	2022-12-14	19:22:25	19:29:43	436346	602a8f9033061909d48b1d04	720568600	1	main_slash	11	advance_on_keypress_SLASH	44	stimuli_distractor_trianglediamonds.svg	stimuli_target_circletriangles.svg	9	yes	57	0	133
6.6.1	win	2022-12-14	19:22:25	19:29:45	437772	602a8f9033061909d48b1d04	720568600	1	main_slash	11	main_slash	45	stimuli_distractor_diamondtriangles.svg	stimuli_target_diamondsquares.svg	32	yes	53	1	643
6.6.1	win	2022-12-14	19:22:25	19:29:45	437772	602a8f9033061909d48b1d04	720568600	1	main_slash	11	advance_on_keypress_SLASH	46	stimuli_distractor_diamondtriangles.svg	stimuli_target_diamondsquares.svg	32	yes	57	0	143
6.6.1	win	2022-12-14	19:22:25	19:29:46	439048	602a8f9033061909d48b1d04	720568600	1	main_slash	11	main_slash	47	stimuli_distractor_diamondtriangles.svg	stimuli_target_diamondcircles.svg	31	yes	53	1	495
6.6.1	win	2022-12-14	19:22:25	19:29:46	439048	602a8f9033061909d48b1d04	720568600	1	main_slash	11	advance_on_keypress_SLASH	48	stimuli_distractor_diamondtriangles.svg	stimuli_target_diamondcircles.svg	31	yes	57	0	126
6.6.1	win	2022-12-14	19:22:25	19:29:47	440330	602a8f9033061909d48b1d04	720568600	1	main_slash	11	main_slash	49	stimuli_target_squarediamonds.svg	stimuli_distractor_trianglediamonds.svg	4	yes	53	1	528
6.6.1	win	2022-12-14	19:22:25	19:29:47	440330	602a8f9033061909d48b1d04	720568600	1	main_slash	11	advance_on_keypress_SLASH	50	stimuli_target_squarediamonds.svg	stimuli_distractor_trianglediamonds.svg	4	yes	57	0	130
6.6.1	win	2022-12-14	19:22:25	19:29:50	443095	602a8f9033061909d48b1d04	720568600	1	main_slash	11	main_slash	51	stimuli_distractor_diamondtriangles.svg	stimuli_distractor_diamondtriangles.svg	40	no	0	1	2000
6.6.1	win	2022-12-14	19:22:25	19:29:50	443095	602a8f9033061909d48b1d04	720568600	1	main_slash	11	advance_on_keypress_SLASH	52	stimuli_distractor_diamondtriangles.svg	stimuli_distractor_diamondtriangles.svg	40	no	57	0	467
6.6.1	win	2022-12-14	19:22:25	19:29:52	445101	602a8f9033061909d48b1d04	720568600	1	main_slash	11	main_slash	53	stimuli_distractor_diamondtriangles.svg	stimuli_distractor_trianglediamonds.svg	37	no	53	0	890
6.6.1	win	2022-12-14	19:22:25	19:29:52	445101	602a8f9033061909d48b1d04	720568600	1	main_slash	11	advance_on_keypress_SLASH	54	stimuli_distractor_diamondtriangles.svg	stimuli_distractor_trianglediamonds.svg	37	no	57	0	682
6.6.1	win	2022-12-14	19:22:25	19:29:54	446971	602a8f9033061909d48b1d04	720568600	1	main_slash	11	main_slash	55	stimuli_distractor_trianglediamonds.svg	stimuli_target_squarediamonds.svg	12	yes	53	1	536
6.6.1	win	2022-12-14	19:22:25	19:29:54	446971	602a8f9033061909d48b1d04	720568600	1	main_slash	11	advance_on_keypress_SLASH	56	stimuli_distractor_trianglediamonds.svg	stimuli_target_squarediamonds.svg	12	yes	57	0	112
6.6.1	win	2022-12-14	19:22:25	19:29:55	448399	602a8f9033061909d48b1d04	720568600	1	main_slash	11	main_slash	57	stimuli_target_squarediamonds.svg	stimuli_distractor_diamondtriangles.svg	8	yes	53	1	664
6.6.1	win	2022-12-14	19:22:25	19:29:55	448399	602a8f9033061909d48b1d04	720568600	1	main_slash	11	advance_on_keypress_SLASH	58	stimuli_target_squarediamonds.svg	stimuli_distractor_diamondtriangles.svg	8	yes	57	0	111
6.6.1	win	2022-12-14	19:22:25	19:29:56	449683	602a8f9033061909d48b1d04	720568600	1	main_slash	11	main_slash	59	stimuli_target_diamondcircles.svg	stimuli_distractor_diamondtriangles.svg	23	yes	53	1	540
6.6.1	win	2022-12-14	19:22:25	19:29:56	449683	602a8f9033061909d48b1d04	720568600	1	main_slash	11	advance_on_keypress_SLASH	60	stimuli_target_diamondcircles.svg	stimuli_distractor_diamondtriangles.svg	23	yes	57	0	113
6.6.1	win	2022-12-14	19:22:25	19:29:59	452451	602a8f9033061909d48b1d04	720568600	1	main_slash	11	main_slash	61	stimuli_distractor_trianglediamonds.svg	stimuli_distractor_trianglediamonds.svg	34	no	0	1	2000
6.6.1	win	2022-12-14	19:22:25	19:29:59	452451	602a8f9033061909d48b1d04	720568600	1	main_slash	11	advance_on_keypress_SLASH	62	stimuli_distractor_trianglediamonds.svg	stimuli_distractor_trianglediamonds.svg	34	no	57	0	257
6.6.1	win	2022-12-14	19:22:25	19:30:01	453782	602a8f9033061909d48b1d04	720568600	1	main_slash	11	main_slash	63	stimuli_target_circlediamonds.svg	stimuli_distractor_diamondtriangles.svg	6	yes	53	1	415
6.6.1	win	2022-12-14	19:22:25	19:30:01	453782	602a8f9033061909d48b1d04	720568600	1	main_slash	11	advance_on_keypress_SLASH	64	stimuli_target_circlediamonds.svg	stimuli_distractor_diamondtriangles.svg	6	yes	57	0	133
6.6.1	win	2022-12-14	19:22:25	19:30:02	454971	602a8f9033061909d48b1d04	720568600	1	main_slash	11	main_slash	65	stimuli_target_trianglecircles.svg	stimuli_distractor_diamondtriangles.svg	21	yes	53	1	413
6.6.1	win	2022-12-14	19:22:25	19:30:02	454971	602a8f9033061909d48b1d04	720568600	1	main_slash	11	advance_on_keypress_SLASH	66	stimuli_target_trianglecircles.svg	stimuli_distractor_diamondtriangles.svg	21	yes	57	0	110
6.6.1	win	2022-12-14	19:22:25	19:30:03	456166	602a8f9033061909d48b1d04	720568600	1	main_slash	11	main_slash	67	stimuli_distractor_diamondtriangles.svg	stimuli_target_squaretriangles.svg	15	yes	53	1	449
6.6.1	win	2022-12-14	19:22:25	19:30:03	456166	602a8f9033061909d48b1d04	720568600	1	main_slash	11	advance_on_keypress_SLASH	68	stimuli_distractor_diamondtriangles.svg	stimuli_target_squaretriangles.svg	15	yes	57	0	122
6.6.1	win	2022-12-14	19:22:25	19:30:04	457351	602a8f9033061909d48b1d04	720568600	1	main_slash	11	main_slash	69	stimuli_distractor_diamondtriangles.svg	stimuli_target_circlediamonds.svg	14	yes	53	1	427
6.6.1	win	2022-12-14	19:22:25	19:30:04	457351	602a8f9033061909d48b1d04	720568600	1	main_slash	11	advance_on_keypress_SLASH	70	stimuli_distractor_diamondtriangles.svg	stimuli_target_circlediamonds.svg	14	yes	57	0	106
6.6.1	win	2022-12-14	19:22:25	19:30:07	460099	602a8f9033061909d48b1d04	720568600	1	main_slash	11	main_slash	71	stimuli_distractor_diamondtriangles.svg	stimuli_distractor_trianglediamonds.svg	38	no	0	1	2000
6.6.1	win	2022-12-14	19:22:25	19:30:07	460099	602a8f9033061909d48b1d04	720568600	1	main_slash	11	advance_on_keypress_SLASH	72	stimuli_distractor_diamondtriangles.svg	stimuli_distractor_trianglediamonds.svg	38	no	57	0	221
6.6.1	win	2022-12-14	19:22:25	19:30:08	461421	602a8f9033061909d48b1d04	720568600	1	main_slash	11	main_slash	73	stimuli_distractor_trianglediamonds.svg	stimuli_target_diamondcircles.svg	27	yes	53	1	464
6.6.1	win	2022-12-14	19:22:25	19:30:08	461421	602a8f9033061909d48b1d04	720568600	1	main_slash	11	advance_on_keypress_SLASH	74	stimuli_distractor_trianglediamonds.svg	stimuli_target_diamondcircles.svg	27	yes	57	0	89
6.6.1	win	2022-12-14	19:22:25	19:30:10	462756	602a8f9033061909d48b1d04	720568600	1	main_slash	11	main_slash	75	stimuli_target_squaretriangles.svg	stimuli_distractor_diamondtriangles.svg	7	yes	53	1	600
6.6.1	win	2022-12-14	19:22:25	19:30:10	462756	602a8f9033061909d48b1d04	720568600	1	main_slash	11	advance_on_keypress_SLASH	76	stimuli_target_squaretriangles.svg	stimuli_distractor_diamondtriangles.svg	7	yes	57	0	83
6.6.1	win	2022-12-14	19:22:25	19:30:12	465489	602a8f9033061909d48b1d04	720568600	1	main_slash	11	main_slash	77	stimuli_distractor_diamondtriangles.svg	stimuli_distractor_diamondtriangles.svg	39	no	0	1	2000
6.6.1	win	2022-12-14	19:22:25	19:30:12	465489	602a8f9033061909d48b1d04	720568600	1	main_slash	11	advance_on_keypress_SLASH	78	stimuli_distractor_diamondtriangles.svg	stimuli_distractor_diamondtriangles.svg	39	no	57	0	619
6.6.1	win	2022-12-14	19:22:25	19:30:14	467107	602a8f9033061909d48b1d04	720568600	1	main_slash	11	main_slash	79	stimuli_distractor_trianglediamonds.svg	stimuli_target_circlediamonds.svg	10	yes	53	1	335
6.6.1	win	2022-12-14	19:22:25	19:30:14	467107	602a8f9033061909d48b1d04	720568600	1	main_slash	11	advance_on_keypress_SLASH	80	stimuli_distractor_trianglediamonds.svg	stimuli_target_circlediamonds.svg	10	yes	57	0	145
6.6.1	win	2022-12-14	19:22:25	19:30:15	468252	602a8f9033061909d48b1d04	720568600	1	main_slash	11	main_slash	81	stimuli_distractor_trianglediamonds.svg	stimuli_distractor_trianglediamonds.svg	33	no	53	0	347
6.6.1	win	2022-12-14	19:22:25	19:30:15	468252	602a8f9033061909d48b1d04	720568600	1	main_slash	11	advance_on_keypress_SLASH	82	stimuli_distractor_trianglediamonds.svg	stimuli_distractor_trianglediamonds.svg	33	no	57	0	794
6.6.1	win	2022-12-14	19:22:25	19:30:17	470477	602a8f9033061909d48b1d04	720568600	1	main_slash	11	main_slash	83	stimuli_distractor_diamondtriangles.svg	stimuli_target_diamondsquares.svg	32	yes	53	1	781
6.6.1	win	2022-12-14	19:22:25	19:30:17	470477	602a8f9033061909d48b1d04	720568600	1	main_slash	11	advance_on_keypress_SLASH	84	stimuli_distractor_diamondtriangles.svg	stimuli_target_diamondsquares.svg	32	yes	57	0	92
6.6.1	win	2022-12-14	19:22:25	19:30:19	471795	602a8f9033061909d48b1d04	720568600	1	main_slash	11	main_slash	85	stimuli_distractor_diamondtriangles.svg	stimuli_target_circlediamonds.svg	14	yes	53	1	581
6.6.1	win	2022-12-14	19:22:25	19:30:19	471795	602a8f9033061909d48b1d04	720568600	1	main_slash	11	advance_on_keypress_SLASH	86	stimuli_distractor_diamondtriangles.svg	stimuli_target_circlediamonds.svg	14	yes	57	0	112
6.6.1	win	2022-12-14	19:22:25	19:30:20	473220	602a8f9033061909d48b1d04	720568600	1	main_slash	11	main_slash	87	stimuli_target_diamondsquares.svg	stimuli_distractor_diamondtriangles.svg	24	yes	53	1	649
6.6.1	win	2022-12-14	19:22:25	19:30:20	473220	602a8f9033061909d48b1d04	720568600	1	main_slash	11	advance_on_keypress_SLASH	88	stimuli_target_diamondsquares.svg	stimuli_distractor_diamondtriangles.svg	24	yes	57	0	89
6.6.1	win	2022-12-14	19:22:25	19:30:21	474440	602a8f9033061909d48b1d04	720568600	1	main_slash	11	main_slash	89	stimuli_distractor_trianglediamonds.svg	stimuli_target_circlediamonds.svg	10	yes	53	1	479
6.6.1	win	2022-12-14	19:22:25	19:30:21	474440	602a8f9033061909d48b1d04	720568600	1	main_slash	11	advance_on_keypress_SLASH	90	stimuli_distractor_trianglediamonds.svg	stimuli_target_circlediamonds.svg	10	yes	57	0	90
6.6.1	win	2022-12-14	19:22:25	19:30:22	475670	602a8f9033061909d48b1d04	720568600	1	main_slash	11	main_slash	91	stimuli_distractor_trianglediamonds.svg	stimuli_target_circletriangles.svg	9	yes	53	1	491
6.6.1	win	2022-12-14	19:22:25	19:30:22	475670	602a8f9033061909d48b1d04	720568600	1	main_slash	11	advance_on_keypress_SLASH	92	stimuli_distractor_trianglediamonds.svg	stimuli_target_circletriangles.svg	9	yes	57	0	77
6.6.1	win	2022-12-14	19:22:25	19:30:24	477045	602a8f9033061909d48b1d04	720568600	1	main_slash	11	main_slash	93	stimuli_distractor_trianglediamonds.svg	stimuli_target_diamondsquares.svg	28	yes	53	1	667
6.6.1	win	2022-12-14	19:22:25	19:30:24	477045	602a8f9033061909d48b1d04	720568600	1	main_slash	11	advance_on_keypress_SLASH	94	stimuli_distractor_trianglediamonds.svg	stimuli_target_diamondsquares.svg	28	yes	57	0	122
6.6.1	win	2022-12-14	19:22:25	19:30:25	478326	602a8f9033061909d48b1d04	720568600	1	main_slash	11	main_slash	95	stimuli_target_squarediamonds.svg	stimuli_distractor_diamondtriangles.svg	8	yes	53	1	504
6.6.1	win	2022-12-14	19:22:25	19:30:25	478326	602a8f9033061909d48b1d04	720568600	1	main_slash	11	advance_on_keypress_SLASH	96	stimuli_target_squarediamonds.svg	stimuli_distractor_diamondtriangles.svg	8	yes	57	0	85
6.6.1	win	2022-12-14	19:22:25	19:30:26	479601	602a8f9033061909d48b1d04	720568600	1	main_slash	11	main_slash	97	stimuli_target_trianglecircles.svg	stimuli_distractor_trianglediamonds.svg	17	yes	53	1	540
6.6.1	win	2022-12-14	19:22:25	19:30:26	479601	602a8f9033061909d48b1d04	720568600	1	main_slash	11	advance_on_keypress_SLASH	98	stimuli_target_trianglecircles.svg	stimuli_distractor_trianglediamonds.svg	17	yes	57	0	104
6.6.1	win	2022-12-14	19:22:25	19:30:28	480767	602a8f9033061909d48b1d04	720568600	1	main_slash	11	main_slash	99	stimuli_distractor_diamondtriangles.svg	stimuli_target_trianglecircles.svg	29	yes	53	1	422
6.6.1	win	2022-12-14	19:22:25	19:30:28	480767	602a8f9033061909d48b1d04	720568600	1	main_slash	11	advance_on_keypress_SLASH	100	stimuli_distractor_diamondtriangles.svg	stimuli_target_trianglecircles.svg	29	yes	57	0	97
6.6.1	win	2022-12-14	19:22:25	19:30:29	481939	602a8f9033061909d48b1d04	720568600	1	main_slash	11	main_slash	101	stimuli_target_diamondcircles.svg	stimuli_distractor_diamondtriangles.svg	23	yes	53	1	419
6.6.1	win	2022-12-14	19:22:25	19:30:29	481939	602a8f9033061909d48b1d04	720568600	1	main_slash	11	advance_on_keypress_SLASH	102	stimuli_target_diamondcircles.svg	stimuli_distractor_diamondtriangles.svg	23	yes	57	0	99
6.6.1	win	2022-12-14	19:22:25	19:30:30	483084	602a8f9033061909d48b1d04	720568600	1	main_slash	11	main_slash	103	stimuli_distractor_diamondtriangles.svg	stimuli_target_squarediamonds.svg	16	yes	53	1	376
6.6.1	win	2022-12-14	19:22:25	19:30:30	483084	602a8f9033061909d48b1d04	720568600	1	main_slash	11	advance_on_keypress_SLASH	104	stimuli_distractor_diamondtriangles.svg	stimuli_target_squarediamonds.svg	16	yes	57	0	99
6.6.1	win	2022-12-14	19:22:25	19:30:32	485139	602a8f9033061909d48b1d04	720568600	1	main_slash	11	main_slash	105	stimuli_target_trianglecircles.svg	stimuli_distractor_diamondtriangles.svg	21	yes	53	1	1303
6.6.1	win	2022-12-14	19:22:25	19:30:32	485139	602a8f9033061909d48b1d04	720568600	1	main_slash	11	advance_on_keypress_SLASH	106	stimuli_target_trianglecircles.svg	stimuli_distractor_diamondtriangles.svg	21	yes	57	0	278
6.6.1	win	2022-12-14	19:22:25	19:30:33	486520	602a8f9033061909d48b1d04	720568600	1	main_slash	11	main_slash	107	stimuli_distractor_diamondtriangles.svg	stimuli_target_trianglesquares.svg	30	yes	53	1	460
6.6.1	win	2022-12-14	19:22:25	19:30:33	486520	602a8f9033061909d48b1d04	720568600	1	main_slash	11	advance_on_keypress_SLASH	108	stimuli_distractor_diamondtriangles.svg	stimuli_target_trianglesquares.svg	30	yes	57	0	111
6.6.1	win	2022-12-14	19:22:25	19:30:35	487815	602a8f9033061909d48b1d04	720568600	1	main_slash	11	main_slash	109	stimuli_target_trianglesquares.svg	stimuli_distractor_trianglediamonds.svg	18	yes	53	1	556
6.6.1	win	2022-12-14	19:22:25	19:30:35	487815	602a8f9033061909d48b1d04	720568600	1	main_slash	11	advance_on_keypress_SLASH	110	stimuli_target_trianglesquares.svg	stimuli_distractor_trianglediamonds.svg	18	yes	57	0	86
6.6.1	win	2022-12-14	19:22:25	19:30:36	489009	602a8f9033061909d48b1d04	720568600	1	main_slash	11	main_slash	111	stimuli_distractor_diamondtriangles.svg	stimuli_target_squaretriangles.svg	15	yes	53	1	457
6.6.1	win	2022-12-14	19:22:25	19:30:36	489009	602a8f9033061909d48b1d04	720568600	1	main_slash	11	advance_on_keypress_SLASH	112	stimuli_distractor_diamondtriangles.svg	stimuli_target_squaretriangles.svg	15	yes	57	0	84
6.6.1	win	2022-12-14	19:22:25	19:30:39	491744	602a8f9033061909d48b1d04	720568600	1	main_slash	11	main_slash	113	stimuli_distractor_diamondtriangles.svg	stimuli_distractor_trianglediamonds.svg	38	no	0	1	2000
6.6.1	win	2022-12-14	19:22:25	19:30:39	491744	602a8f9033061909d48b1d04	720568600	1	main_slash	11	advance_on_keypress_SLASH	114	stimuli_distractor_diamondtriangles.svg	stimuli_distractor_trianglediamonds.svg	38	no	57	0	453
6.6.1	win	2022-12-14	19:22:25	19:30:40	493364	602a8f9033061909d48b1d04	720568600	1	main_slash	11	main_slash	115	stimuli_target_circlediamonds.svg	stimuli_distractor_trianglediamonds.svg	2	yes	53	1	504
6.6.1	win	2022-12-14	19:22:25	19:30:40	493364	602a8f9033061909d48b1d04	720568600	1	main_slash	11	advance_on_keypress_SLASH	116	stimuli_target_circlediamonds.svg	stimuli_distractor_trianglediamonds.svg	2	yes	57	0	73
6.6.1	win	2022-12-14	19:22:25	19:30:41	494567	602a8f9033061909d48b1d04	720568600	1	main_slash	11	main_slash	117	stimuli_target_squaretriangles.svg	stimuli_distractor_diamondtriangles.svg	7	yes	53	1	484
6.6.1	win	2022-12-14	19:22:25	19:30:41	494567	602a8f9033061909d48b1d04	720568600	1	main_slash	11	advance_on_keypress_SLASH	118	stimuli_target_squaretriangles.svg	stimuli_distractor_diamondtriangles.svg	7	yes	57	0	103
6.6.1	win	2022-12-14	19:22:25	19:30:43	495822	602a8f9033061909d48b1d04	720568600	1	main_slash	11	main_slash	119	stimuli_target_circletriangles.svg	stimuli_distractor_trianglediamonds.svg	1	yes	53	1	516
6.6.1	win	2022-12-14	19:22:25	19:30:43	495822	602a8f9033061909d48b1d04	720568600	1	main_slash	11	advance_on_keypress_SLASH	120	stimuli_target_circletriangles.svg	stimuli_distractor_trianglediamonds.svg	1	yes	57	0	111
6.6.1	win	2022-12-14	19:22:25	19:30:45	498582	602a8f9033061909d48b1d04	720568600	1	main_slash	11	main_slash	121	stimuli_distractor_diamondtriangles.svg	stimuli_distractor_diamondtriangles.svg	40	no	0	1	2000
6.6.1	win	2022-12-14	19:22:25	19:30:45	498582	602a8f9033061909d48b1d04	720568600	1	main_slash	11	advance_on_keypress_SLASH	122	stimuli_distractor_diamondtriangles.svg	stimuli_distractor_diamondtriangles.svg	40	no	57	0	462
6.6.1	win	2022-12-14	19:22:25	19:30:47	500199	602a8f9033061909d48b1d04	720568600	1	main_slash	11	main_slash	123	stimuli_target_squarediamonds.svg	stimuli_distractor_trianglediamonds.svg	4	yes	53	1	493
6.6.1	win	2022-12-14	19:22:25	19:30:47	500199	602a8f9033061909d48b1d04	720568600	1	main_slash	11	advance_on_keypress_SLASH	124	stimuli_target_squarediamonds.svg	stimuli_distractor_trianglediamonds.svg	4	yes	57	0	81
6.6.1	win	2022-12-14	19:22:25	19:30:48	501566	602a8f9033061909d48b1d04	720568600	1	main_slash	11	main_slash	125	stimuli_distractor_trianglediamonds.svg	stimuli_target_diamondcircles.svg	27	yes	53	1	626
6.6.1	win	2022-12-14	19:22:25	19:30:48	501566	602a8f9033061909d48b1d04	720568600	1	main_slash	11	advance_on_keypress_SLASH	126	stimuli_distractor_trianglediamonds.svg	stimuli_target_diamondcircles.svg	27	yes	57	0	93
6.6.1	win	2022-12-14	19:22:25	19:30:51	504306	602a8f9033061909d48b1d04	720568600	1	main_slash	11	main_slash	127	stimuli_distractor_trianglediamonds.svg	stimuli_distractor_diamondtriangles.svg	36	no	0	1	2000
6.6.1	win	2022-12-14	19:22:25	19:30:51	504306	602a8f9033061909d48b1d04	720568600	1	main_slash	11	advance_on_keypress_SLASH	128	stimuli_distractor_trianglediamonds.svg	stimuli_distractor_diamondtriangles.svg	36	no	57	0	375
6.6.1	win	2022-12-14	19:22:25	19:30:53	505982	602a8f9033061909d48b1d04	720568600	1	main_slash	11	main_slash	129	stimuli_distractor_diamondtriangles.svg	stimuli_target_diamondcircles.svg	31	yes	53	1	636
6.6.1	win	2022-12-14	19:22:25	19:30:53	505982	602a8f9033061909d48b1d04	720568600	1	main_slash	11	advance_on_keypress_SLASH	130	stimuli_distractor_diamondtriangles.svg	stimuli_target_diamondcircles.svg	31	yes	57	0	94
6.6.1	win	2022-12-14	19:22:25	19:30:54	507153	602a8f9033061909d48b1d04	720568600	1	main_slash	11	main_slash	131	stimuli_distractor_trianglediamonds.svg	stimuli_target_trianglecircles.svg	25	yes	53	1	440
6.6.1	win	2022-12-14	19:22:25	19:30:54	507153	602a8f9033061909d48b1d04	720568600	1	main_slash	11	advance_on_keypress_SLASH	132	stimuli_distractor_trianglediamonds.svg	stimuli_target_trianglecircles.svg	25	yes	57	0	68
6.6.1	win	2022-12-14	19:22:25	19:30:57	509871	602a8f9033061909d48b1d04	720568600	1	main_slash	11	main_slash	133	stimuli_distractor_trianglediamonds.svg	stimuli_distractor_trianglediamonds.svg	34	no	0	1	2000
6.6.1	win	2022-12-14	19:22:25	19:30:57	509871	602a8f9033061909d48b1d04	720568600	1	main_slash	11	advance_on_keypress_SLASH	134	stimuli_distractor_trianglediamonds.svg	stimuli_distractor_trianglediamonds.svg	34	no	57	0	281
6.6.1	win	2022-12-14	19:22:25	19:30:58	511230	602a8f9033061909d48b1d04	720568600	1	main_slash	11	main_slash	135	stimuli_distractor_trianglediamonds.svg	stimuli_target_squaretriangles.svg	11	yes	53	1	426
6.6.1	win	2022-12-14	19:22:25	19:30:58	511230	602a8f9033061909d48b1d04	720568600	1	main_slash	11	advance_on_keypress_SLASH	136	stimuli_distractor_trianglediamonds.svg	stimuli_target_squaretriangles.svg	11	yes	57	0	78
6.6.1	win	2022-12-14	19:22:25	19:30:59	512376	602a8f9033061909d48b1d04	720568600	1	main_slash	11	main_slash	137	stimuli_target_squaretriangles.svg	stimuli_distractor_trianglediamonds.svg	3	yes	53	1	423
6.6.1	win	2022-12-14	19:22:25	19:30:59	512376	602a8f9033061909d48b1d04	720568600	1	main_slash	11	advance_on_keypress_SLASH	138	stimuli_target_squaretriangles.svg	stimuli_distractor_trianglediamonds.svg	3	yes	57	0	67
6.6.1	win	2022-12-14	19:22:25	19:31:01	513751	602a8f9033061909d48b1d04	720568600	1	main_slash	11	main_slash	139	stimuli_target_diamondsquares.svg	stimuli_distractor_trianglediamonds.svg	20	yes	53	1	656
6.6.1	win	2022-12-14	19:22:25	19:31:01	513751	602a8f9033061909d48b1d04	720568600	1	main_slash	11	advance_on_keypress_SLASH	140	stimuli_target_diamondsquares.svg	stimuli_distractor_trianglediamonds.svg	20	yes	57	0	104
6.6.1	win	2022-12-14	19:22:25	19:31:03	516520	602a8f9033061909d48b1d04	720568600	1	main_slash	11	main_slash	141	stimuli_distractor_trianglediamonds.svg	stimuli_distractor_diamondtriangles.svg	35	no	0	1	2000
6.6.1	win	2022-12-14	19:22:25	19:31:03	516520	602a8f9033061909d48b1d04	720568600	1	main_slash	11	advance_on_keypress_SLASH	142	stimuli_distractor_trianglediamonds.svg	stimuli_distractor_diamondtriangles.svg	35	no	57	0	435
6.6.1	win	2022-12-14	19:22:25	19:31:06	519610	602a8f9033061909d48b1d04	720568600	1	main_slash	11	main_slash	143	stimuli_distractor_diamondtriangles.svg	stimuli_distractor_trianglediamonds.svg	37	no	0	1	2000
6.6.1	win	2022-12-14	19:22:25	19:31:06	519610	602a8f9033061909d48b1d04	720568600	1	main_slash	11	advance_on_keypress_SLASH	144	stimuli_distractor_diamondtriangles.svg	stimuli_distractor_trianglediamonds.svg	37	no	57	0	387
6.6.1	win	2022-12-14	19:22:25	19:31:08	521098	602a8f9033061909d48b1d04	720568600	1	main_slash	11	main_slash	145	stimuli_distractor_diamondtriangles.svg	stimuli_target_circletriangles.svg	13	yes	53	1	465
6.6.1	win	2022-12-14	19:22:25	19:31:08	521098	602a8f9033061909d48b1d04	720568600	1	main_slash	11	advance_on_keypress_SLASH	146	stimuli_distractor_diamondtriangles.svg	stimuli_target_circletriangles.svg	13	yes	57	0	89
6.6.1	win	2022-12-14	19:22:25	19:31:09	522460	602a8f9033061909d48b1d04	720568600	1	main_slash	11	main_slash	147	stimuli_target_diamondcircles.svg	stimuli_distractor_trianglediamonds.svg	19	yes	53	1	634
6.6.1	win	2022-12-14	19:22:25	19:31:09	522460	602a8f9033061909d48b1d04	720568600	1	main_slash	11	advance_on_keypress_SLASH	148	stimuli_target_diamondcircles.svg	stimuli_distractor_trianglediamonds.svg	19	yes	57	0	47
6.6.1	win	2022-12-14	19:22:25	19:31:10	523619	602a8f9033061909d48b1d04	720568600	1	main_slash	11	main_slash	149	stimuli_distractor_trianglediamonds.svg	stimuli_target_trianglesquares.svg	26	yes	53	1	451
6.6.1	win	2022-12-14	19:22:25	19:31:10	523619	602a8f9033061909d48b1d04	720568600	1	main_slash	11	advance_on_keypress_SLASH	150	stimuli_distractor_trianglediamonds.svg	stimuli_target_trianglesquares.svg	26	yes	57	0	90
6.6.1	win	2022-12-14	19:22:25	19:31:12	524823	602a8f9033061909d48b1d04	720568600	1	main_slash	11	main_slash	151	stimuli_target_circlediamonds.svg	stimuli_distractor_diamondtriangles.svg	6	yes	53	1	481
6.6.1	win	2022-12-14	19:22:25	19:31:12	524823	602a8f9033061909d48b1d04	720568600	1	main_slash	11	advance_on_keypress_SLASH	152	stimuli_target_circlediamonds.svg	stimuli_distractor_diamondtriangles.svg	6	yes	57	0	74
6.6.1	win	2022-12-14	19:22:25	19:31:13	526640	602a8f9033061909d48b1d04	720568600	1	main_slash	11	main_slash	153	stimuli_target_trianglesquares.svg	stimuli_distractor_diamondtriangles.svg	22	yes	53	1	1090
6.6.1	win	2022-12-14	19:22:25	19:31:13	526640	602a8f9033061909d48b1d04	720568600	1	main_slash	11	advance_on_keypress_SLASH	154	stimuli_target_trianglesquares.svg	stimuli_distractor_diamondtriangles.svg	22	yes	57	0	76
6.6.1	win	2022-12-14	19:22:25	19:31:16	529349	602a8f9033061909d48b1d04	720568600	1	main_slash	11	main_slash	155	stimuli_distractor_diamondtriangles.svg	stimuli_distractor_diamondtriangles.svg	39	no	0	1	2000
6.6.1	win	2022-12-14	19:22:25	19:31:16	529349	602a8f9033061909d48b1d04	720568600	1	main_slash	11	advance_on_keypress_SLASH	156	stimuli_distractor_diamondtriangles.svg	stimuli_distractor_diamondtriangles.svg	39	no	57	0	418
6.6.1	win	2022-12-14	19:22:25	19:31:18	530893	602a8f9033061909d48b1d04	720568600	1	main_slash	11	main_slash	157	stimuli_target_circletriangles.svg	stimuli_distractor_diamondtriangles.svg	5	yes	53	1	469
6.6.1	win	2022-12-14	19:22:25	19:31:18	530893	602a8f9033061909d48b1d04	720568600	1	main_slash	11	advance_on_keypress_SLASH	158	stimuli_target_circletriangles.svg	stimuli_distractor_diamondtriangles.svg	5	yes	57	0	56
6.6.1	win	2022-12-14	19:22:25	19:31:19	532012	602a8f9033061909d48b1d04	720568600	1	main_slash	11	main_slash	159	stimuli_distractor_trianglediamonds.svg	stimuli_target_squarediamonds.svg	12	yes	53	1	421
6.6.1	win	2022-12-14	19:22:25	19:31:19	532012	602a8f9033061909d48b1d04	720568600	1	main_slash	11	advance_on_keypress_SLASH	160	stimuli_distractor_trianglediamonds.svg	stimuli_target_squarediamonds.svg	12	yes	57	0	65