build	computer.platform	date	time	timestamp	time_elapsed_ms	subject	group	session	blockcode	blocknum	trialcode	trialnum	stimulus_left	stimulus_right	stim_index	target_present	response	correct	latency
6.6.1	win	2022-12-16	09:10:15	09:16:44	388427	631797089a0a1ee579573eb9	358894553	1	practice_slash	5	practice_slash	1	stimuli_target_squarediamonds.svg	stimuli_distractor_diamondtriangles.svg	2	yes	53	1	1353
6.6.1	win	2022-12-16	09:10:15	09:16:44	388427	631797089a0a1ee579573eb9	358894553	1	practice_slash	5	advance_on_keypress_SLASH	2	stimuli_target_squarediamonds.svg	stimuli_distractor_diamondtriangles.svg	2	yes	57	0	2986
6.6.1	win	2022-12-16	09:10:15	09:16:50	394798	631797089a0a1ee579573eb9	358894553	1	practice_slash	5	practice_slash	3	stimuli_distractor_diamondtriangles.svg	stimuli_distractor_diamondtriangles.svg	13	no	53	0	1741
6.6.1	win	2022-12-16	09:10:15	09:16:50	394798	631797089a0a1ee579573eb9	358894553	1	practice_slash	5	advance_on_keypress_SLASH	4	stimuli_distractor_diamondtriangles.svg	stimuli_distractor_diamondtriangles.svg	13	no	57	0	2298
6.6.1	win	2022-12-16	09:10:15	09:16:56	400740	631797089a0a1ee579573eb9	358894553	1	practice_slash	5	practice_slash	5	stimuli_distractor_diamondtriangles.svg	stimuli_distractor_trianglediamonds.svg	14	no	0	1	2000
6.6.1	win	2022-12-16	09:10:15	09:16:56	400740	631797089a0a1ee579573eb9	358894553	1	practice_slash	5	advance_on_keypress_SLASH	6	stimuli_distractor_diamondtriangles.svg	stimuli_distractor_trianglediamonds.svg	14	no	57	0	630
6.6.1	win	2022-12-16	09:10:15	09:17:01	405007	631797089a0a1ee579573eb9	358894553	1	practice_slash	5	practice_slash	7	stimuli_distractor_trianglediamonds.svg	stimuli_distractor_trianglediamonds.svg	15	no	0	1	2000
6.6.1	win	2022-12-16	09:10:15	09:17:01	405007	631797089a0a1ee579573eb9	358894553	1	practice_slash	5	advance_on_keypress_SLASH	8	stimuli_distractor_trianglediamonds.svg	stimuli_distractor_trianglediamonds.svg	15	no	57	0	1943
6.6.1	win	2022-12-16	09:10:15	09:17:06	410591	631797089a0a1ee579573eb9	358894553	1	practice_slash	5	practice_slash	9	stimuli_distractor_trianglediamonds.svg	stimuli_distractor_diamondtriangles.svg	16	no	0	1	2000
6.6.1	win	2022-12-16	09:10:15	09:17:06	410591	631797089a0a1ee579573eb9	358894553	1	practice_slash	5	advance_on_keypress_SLASH	10	stimuli_distractor_trianglediamonds.svg	stimuli_distractor_diamondtriangles.svg	16	no	57	0	482
6.6.1	win	2022-12-16	09:10:15	09:17:09	413784	631797089a0a1ee579573eb9	358894553	1	practice_slash	5	practice_slash	11	stimuli_distractor_trianglediamonds.svg	stimuli_target_diamondcircles.svg	12	yes	53	1	1060
6.6.1	win	2022-12-16	09:10:15	09:17:09	413784	631797089a0a1ee579573eb9	358894553	1	practice_slash	5	advance_on_keypress_SLASH	12	stimuli_distractor_trianglediamonds.svg	stimuli_target_diamondcircles.svg	12	yes	57	0	480
6.6.1	win	2022-12-16	09:10:15	09:17:13	417908	631797089a0a1ee579573eb9	358894553	1	practice_slash	5	practice_slash	13	stimuli_target_diamondsquares.svg	stimuli_distractor_diamondtriangles.svg	3	yes	0	0	2000
6.6.1	win	2022-12-16	09:10:15	09:17:13	417908	631797089a0a1ee579573eb9	358894553	1	practice_slash	5	advance_on_keypress_SLASH	14	stimuli_target_diamondsquares.svg	stimuli_distractor_diamondtriangles.svg	3	yes	57	0	587
6.6.1	win	2022-12-16	09:10:15	09:17:17	421174	631797089a0a1ee579573eb9	358894553	1	practice_slash	5	practice_slash	15	stimuli_distractor_diamondtriangles.svg	stimuli_target_trianglecircles.svg	9	yes	53	1	1033
6.6.1	win	2022-12-16	09:10:15	09:17:17	421174	631797089a0a1ee579573eb9	358894553	1	practice_slash	5	advance_on_keypress_SLASH	16	stimuli_distractor_diamondtriangles.svg	stimuli_target_trianglecircles.svg	9	yes	57	0	479
6.6.1	win	2022-12-16	09:10:15	09:17:20	424036	631797089a0a1ee579573eb9	358894553	1	practice_slash	5	practice_slash	17	stimuli_distractor_trianglediamonds.svg	stimuli_target_circlediamonds.svg	10	yes	53	1	728
6.6.1	win	2022-12-16	09:10:15	09:17:20	424036	631797089a0a1ee579573eb9	358894553	1	practice_slash	5	advance_on_keypress_SLASH	18	stimuli_distractor_trianglediamonds.svg	stimuli_target_circlediamonds.svg	10	yes	57	0	370
6.6.1	win	2022-12-16	09:10:15	09:17:22	426762	631797089a0a1ee579573eb9	358894553	1	practice_slash	5	practice_slash	19	stimuli_target_diamondsquares.svg	stimuli_distractor_trianglediamonds.svg	6	yes	53	1	721
6.6.1	win	2022-12-16	09:10:15	09:17:22	426762	631797089a0a1ee579573eb9	358894553	1	practice_slash	5	advance_on_keypress_SLASH	20	stimuli_target_diamondsquares.svg	stimuli_distractor_trianglediamonds.svg	6	yes	57	0	236
6.6.1	win	2022-12-16	09:10:15	09:17:25	429289	631797089a0a1ee579573eb9	358894553	1	practice_slash	5	practice_slash	21	stimuli_target_circlediamonds.svg	stimuli_distractor_trianglediamonds.svg	4	yes	53	1	648
6.6.1	win	2022-12-16	09:10:15	09:17:25	429289	631797089a0a1ee579573eb9	358894553	1	practice_slash	5	advance_on_keypress_SLASH	22	stimuli_target_circlediamonds.svg	stimuli_distractor_trianglediamonds.svg	4	yes	57	0	368
6.6.1	win	2022-12-16	09:10:15	09:17:27	431928	631797089a0a1ee579573eb9	358894553	1	practice_slash	5	practice_slash	23	stimuli_distractor_diamondtriangles.svg	stimuli_target_diamondcircles.svg	8	yes	53	1	637
6.6.1	win	2022-12-16	09:10:15	09:17:27	431928	631797089a0a1ee579573eb9	358894553	1	practice_slash	5	advance_on_keypress_SLASH	24	stimuli_distractor_diamondtriangles.svg	stimuli_target_diamondcircles.svg	8	yes	57	0	277
6.6.1	win	2022-12-16	09:10:15	09:17:30	434420	631797089a0a1ee579573eb9	358894553	1	practice_slash	5	practice_slash	25	stimuli_distractor_diamondtriangles.svg	stimuli_target_circletriangles.svg	7	yes	53	1	579
6.6.1	win	2022-12-16	09:10:15	09:17:30	434420	631797089a0a1ee579573eb9	358894553	1	practice_slash	5	advance_on_keypress_SLASH	26	stimuli_distractor_diamondtriangles.svg	stimuli_target_circletriangles.svg	7	yes	57	0	282
6.6.1	win	2022-12-16	09:10:15	09:17:32	436880	631797089a0a1ee579573eb9	358894553	1	practice_slash	5	practice_slash	27	stimuli_distractor_trianglediamonds.svg	stimuli_target_squarediamonds.svg	11	yes	53	1	539
6.6.1	win	2022-12-16	09:10:15	09:17:32	436880	631797089a0a1ee579573eb9	358894553	1	practice_slash	5	advance_on_keypress_SLASH	28	stimuli_distractor_trianglediamonds.svg	stimuli_target_squarediamonds.svg	11	yes	57	0	296
6.6.1	win	2022-12-16	09:10:15	09:17:35	439479	631797089a0a1ee579573eb9	358894553	1	practice_slash	5	practice_slash	29	stimuli_target_circlediamonds.svg	stimuli_distractor_diamondtriangles.svg	1	yes	53	1	671
6.6.1	win	2022-12-16	09:10:15	09:17:35	439479	631797089a0a1ee579573eb9	358894553	1	practice_slash	5	advance_on_keypress_SLASH	30	stimuli_target_circlediamonds.svg	stimuli_distractor_diamondtriangles.svg	1	yes	57	0	248
6.6.1	win	2022-12-16	09:10:15	09:17:38	442072	631797089a0a1ee579573eb9	358894553	1	practice_slash	5	practice_slash	31	stimuli_target_squarediamonds.svg	stimuli_distractor_trianglediamonds.svg	5	yes	53	1	714
6.6.1	win	2022-12-16	09:10:15	09:17:38	442072	631797089a0a1ee579573eb9	358894553	1	practice_slash	5	advance_on_keypress_SLASH	32	stimuli_target_squarediamonds.svg	stimuli_distractor_trianglediamonds.svg	5	yes	57	0	268
6.6.1	win	2022-12-16	09:10:15	09:17:44	448016	631797089a0a1ee579573eb9	358894553	1	main_slash	7	main_slash	1	stimuli_distractor_trianglediamonds.svg	stimuli_target_trianglesquares.svg	26	yes	53	1	691
6.6.1	win	2022-12-16	09:10:15	09:17:44	448016	631797089a0a1ee579573eb9	358894553	1	main_slash	7	advance_on_keypress_SLASH	2	stimuli_distractor_trianglediamonds.svg	stimuli_target_trianglesquares.svg	26	yes	57	0	1621
6.6.1	win	2022-12-16	09:10:15	09:17:47	451246	631797089a0a1ee579573eb9	358894553	1	main_slash	7	main_slash	3	stimuli_distractor_diamondtriangles.svg	stimuli_target_trianglesquares.svg	30	yes	53	1	971
6.6.1	win	2022-12-16	09:10:15	09:17:47	451246	631797089a0a1ee579573eb9	358894553	1	main_slash	7	advance_on_keypress_SLASH	4	stimuli_distractor_diamondtriangles.svg	stimuli_target_trianglesquares.svg	30	yes	57	0	786
6.6.1	win	2022-12-16	09:10:15	09:17:50	454675	631797089a0a1ee579573eb9	358894553	1	main_slash	7	main_slash	5	stimuli_target_diamondsquares.svg	stimuli_distractor_diamondtriangles.svg	24	yes	0	0	2000
6.6.1	win	2022-12-16	09:10:15	09:17:50	454675	631797089a0a1ee579573eb9	358894553	1	main_slash	7	advance_on_keypress_SLASH	6	stimuli_target_diamondsquares.svg	stimuli_distractor_diamondtriangles.svg	24	yes	57	0	631
6.6.1	win	2022-12-16	09:10:15	09:17:52	456740	631797089a0a1ee579573eb9	358894553	1	main_slash	7	main_slash	7	stimuli_distractor_trianglediamonds.svg	stimuli_target_diamondcircles.svg	27	yes	53	1	798
6.6.1	win	2022-12-16	09:10:15	09:17:52	456740	631797089a0a1ee579573eb9	358894553	1	main_slash	7	advance_on_keypress_SLASH	8	stimuli_distractor_trianglediamonds.svg	stimuli_target_diamondcircles.svg	27	yes	57	0	601
6.6.1	win	2022-12-16	09:10:15	09:17:54	458572	631797089a0a1ee579573eb9	358894553	1	main_slash	7	main_slash	9	stimuli_target_circlediamonds.svg	stimuli_distractor_diamondtriangles.svg	6	yes	53	1	597
6.6.1	win	2022-12-16	09:10:15	09:17:54	458572	631797089a0a1ee579573eb9	358894553	1	main_slash	7	advance_on_keypress_SLASH	10	stimuli_target_circlediamonds.svg	stimuli_distractor_diamondtriangles.svg	6	yes	57	0	434
6.6.1	win	2022-12-16	09:10:15	09:17:56	460408	631797089a0a1ee579573eb9	358894553	1	main_slash	7	main_slash	11	stimuli_distractor_diamondtriangles.svg	stimuli_distractor_diamondtriangles.svg	40	no	53	0	766
6.6.1	win	2022-12-16	09:10:15	09:17:56	460408	631797089a0a1ee579573eb9	358894553	1	main_slash	7	advance_on_keypress_SLASH	12	stimuli_distractor_diamondtriangles.svg	stimuli_distractor_diamondtriangles.svg	40	no	57	0	295
6.6.1	win	2022-12-16	09:10:15	09:17:57	461932	631797089a0a1ee579573eb9	358894553	1	main_slash	7	main_slash	13	stimuli_target_circletriangles.svg	stimuli_distractor_trianglediamonds.svg	1	yes	53	1	590
6.6.1	win	2022-12-16	09:10:15	09:17:57	461932	631797089a0a1ee579573eb9	358894553	1	main_slash	7	advance_on_keypress_SLASH	14	stimuli_target_circletriangles.svg	stimuli_distractor_trianglediamonds.svg	1	yes	57	0	337
6.6.1	win	2022-12-16	09:10:15	09:17:59	463601	631797089a0a1ee579573eb9	358894553	1	main_slash	7	main_slash	15	stimuli_distractor_diamondtriangles.svg	stimuli_target_circlediamonds.svg	14	yes	53	1	692
6.6.1	win	2022-12-16	09:10:15	09:17:59	463601	631797089a0a1ee579573eb9	358894553	1	main_slash	7	advance_on_keypress_SLASH	16	stimuli_distractor_diamondtriangles.svg	stimuli_target_circlediamonds.svg	14	yes	57	0	303
6.6.1	win	2022-12-16	09:10:15	09:18:02	465997	631797089a0a1ee579573eb9	358894553	1	main_slash	7	main_slash	17	stimuli_distractor_trianglediamonds.svg	stimuli_target_diamondsquares.svg	28	yes	53	1	1455
6.6.1	win	2022-12-16	09:10:15	09:18:02	465997	631797089a0a1ee579573eb9	358894553	1	main_slash	7	advance_on_keypress_SLASH	18	stimuli_distractor_trianglediamonds.svg	stimuli_target_diamondsquares.svg	28	yes	57	0	252
6.6.1	win	2022-12-16	09:10:15	09:18:04	467994	631797089a0a1ee579573eb9	358894553	1	main_slash	7	main_slash	19	stimuli_target_trianglesquares.svg	stimuli_distractor_trianglediamonds.svg	18	yes	53	1	1102
6.6.1	win	2022-12-16	09:10:15	09:18:04	467994	631797089a0a1ee579573eb9	358894553	1	main_slash	7	advance_on_keypress_SLASH	20	stimuli_target_trianglesquares.svg	stimuli_distractor_trianglediamonds.svg	18	yes	57	0	236
6.6.1	win	2022-12-16	09:10:15	09:18:05	469630	631797089a0a1ee579573eb9	358894553	1	main_slash	7	main_slash	21	stimuli_target_squaretriangles.svg	stimuli_distractor_trianglediamonds.svg	3	yes	53	1	755
6.6.1	win	2022-12-16	09:10:15	09:18:05	469630	631797089a0a1ee579573eb9	358894553	1	main_slash	7	advance_on_keypress_SLASH	22	stimuli_target_squaretriangles.svg	stimuli_distractor_trianglediamonds.svg	3	yes	57	0	226
6.6.1	win	2022-12-16	09:10:15	09:18:07	471165	631797089a0a1ee579573eb9	358894553	1	main_slash	7	main_slash	23	stimuli_target_circlediamonds.svg	stimuli_distractor_trianglediamonds.svg	2	yes	53	1	673
6.6.1	win	2022-12-16	09:10:15	09:18:07	471165	631797089a0a1ee579573eb9	358894553	1	main_slash	7	advance_on_keypress_SLASH	24	stimuli_target_circlediamonds.svg	stimuli_distractor_trianglediamonds.svg	2	yes	57	0	270
6.6.1	win	2022-12-16	09:10:15	09:18:08	472880	631797089a0a1ee579573eb9	358894553	1	main_slash	7	main_slash	25	stimuli_distractor_trianglediamonds.svg	stimuli_target_trianglecircles.svg	25	yes	53	1	804
6.6.1	win	2022-12-16	09:10:15	09:18:08	472880	631797089a0a1ee579573eb9	358894553	1	main_slash	7	advance_on_keypress_SLASH	26	stimuli_distractor_trianglediamonds.svg	stimuli_target_trianglecircles.svg	25	yes	57	0	257
6.6.1	win	2022-12-16	09:10:15	09:18:11	475776	631797089a0a1ee579573eb9	358894553	1	main_slash	7	main_slash	27	stimuli_distractor_trianglediamonds.svg	stimuli_distractor_diamondtriangles.svg	36	no	0	1	2000
6.6.1	win	2022-12-16	09:10:15	09:18:11	475776	631797089a0a1ee579573eb9	358894553	1	main_slash	7	advance_on_keypress_SLASH	28	stimuli_distractor_trianglediamonds.svg	stimuli_distractor_diamondtriangles.svg	36	no	57	0	500
6.6.1	win	2022-12-16	09:10:15	09:18:14	478926	631797089a0a1ee579573eb9	358894553	1	main_slash	7	main_slash	29	stimuli_distractor_diamondtriangles.svg	stimuli_target_diamondcircles.svg	31	yes	0	0	2000
6.6.1	win	2022-12-16	09:10:15	09:18:14	478926	631797089a0a1ee579573eb9	358894553	1	main_slash	7	advance_on_keypress_SLASH	30	stimuli_distractor_diamondtriangles.svg	stimuli_target_diamondcircles.svg	31	yes	57	0	339
6.6.1	win	2022-12-16	09:10:15	09:18:17	481909	631797089a0a1ee579573eb9	358894553	1	main_slash	7	main_slash	31	stimuli_target_diamondsquares.svg	stimuli_distractor_trianglediamonds.svg	20	yes	0	0	2000
6.6.1	win	2022-12-16	09:10:15	09:18:17	481909	631797089a0a1ee579573eb9	358894553	1	main_slash	7	advance_on_keypress_SLASH	32	stimuli_target_diamondsquares.svg	stimuli_distractor_trianglediamonds.svg	20	yes	57	0	363
6.6.1	win	2022-12-16	09:10:15	09:18:20	484909	631797089a0a1ee579573eb9	358894553	1	main_slash	7	main_slash	33	stimuli_distractor_trianglediamonds.svg	stimuli_distractor_trianglediamonds.svg	34	no	0	1	2000
6.6.1	win	2022-12-16	09:10:15	09:18:20	484909	631797089a0a1ee579573eb9	358894553	1	main_slash	7	advance_on_keypress_SLASH	34	stimuli_distractor_trianglediamonds.svg	stimuli_distractor_trianglediamonds.svg	34	no	57	0	506
6.6.1	win	2022-12-16	09:10:15	09:18:23	487157	631797089a0a1ee579573eb9	358894553	1	main_slash	7	main_slash	35	stimuli_target_diamondcircles.svg	stimuli_distractor_diamondtriangles.svg	23	yes	53	1	1098
6.6.1	win	2022-12-16	09:10:15	09:18:23	487157	631797089a0a1ee579573eb9	358894553	1	main_slash	7	advance_on_keypress_SLASH	36	stimuli_target_diamondcircles.svg	stimuli_distractor_diamondtriangles.svg	23	yes	57	0	573
6.6.1	win	2022-12-16	09:10:15	09:18:25	489230	631797089a0a1ee579573eb9	358894553	1	main_slash	7	main_slash	37	stimuli_distractor_diamondtriangles.svg	stimuli_target_squaretriangles.svg	15	yes	53	1	871
6.6.1	win	2022-12-16	09:10:15	09:18:25	489230	631797089a0a1ee579573eb9	358894553	1	main_slash	7	advance_on_keypress_SLASH	38	stimuli_distractor_diamondtriangles.svg	stimuli_target_squaretriangles.svg	15	yes	57	0	320
6.6.1	win	2022-12-16	09:10:15	09:18:26	490878	631797089a0a1ee579573eb9	358894553	1	main_slash	7	main_slash	39	stimuli_distractor_trianglediamonds.svg	stimuli_target_circletriangles.svg	9	yes	53	1	685
6.6.1	win	2022-12-16	09:10:15	09:18:26	490878	631797089a0a1ee579573eb9	358894553	1	main_slash	7	advance_on_keypress_SLASH	40	stimuli_distractor_trianglediamonds.svg	stimuli_target_circletriangles.svg	9	yes	57	0	293
6.6.1	win	2022-12-16	09:10:15	09:18:28	492472	631797089a0a1ee579573eb9	358894553	1	main_slash	7	main_slash	41	stimuli_target_squaretriangles.svg	stimuli_distractor_diamondtriangles.svg	7	yes	53	1	663
6.6.1	win	2022-12-16	09:10:15	09:18:28	492472	631797089a0a1ee579573eb9	358894553	1	main_slash	7	advance_on_keypress_SLASH	42	stimuli_target_squaretriangles.svg	stimuli_distractor_diamondtriangles.svg	7	yes	57	0	257
6.6.1	win	2022-12-16	09:10:15	09:18:30	494016	631797089a0a1ee579573eb9	358894553	1	main_slash	7	main_slash	43	stimuli_target_squarediamonds.svg	stimuli_distractor_trianglediamonds.svg	4	yes	53	1	657
6.6.1	win	2022-12-16	09:10:15	09:18:30	494016	631797089a0a1ee579573eb9	358894553	1	main_slash	7	advance_on_keypress_SLASH	44	stimuli_target_squarediamonds.svg	stimuli_distractor_trianglediamonds.svg	4	yes	57	0	264
6.6.1	win	2022-12-16	09:10:15	09:18:31	495882	631797089a0a1ee579573eb9	358894553	1	main_slash	7	main_slash	45	stimuli_distractor_diamondtriangles.svg	stimuli_target_diamondsquares.svg	32	yes	53	1	973
6.6.1	win	2022-12-16	09:10:15	09:18:31	495882	631797089a0a1ee579573eb9	358894553	1	main_slash	7	advance_on_keypress_SLASH	46	stimuli_distractor_diamondtriangles.svg	stimuli_target_diamondsquares.svg	32	yes	57	0	256
6.6.1	win	2022-12-16	09:10:15	09:18:33	497466	631797089a0a1ee579573eb9	358894553	1	main_slash	7	main_slash	47	stimuli_distractor_diamondtriangles.svg	stimuli_target_squarediamonds.svg	16	yes	53	1	690
6.6.1	win	2022-12-16	09:10:15	09:18:33	497466	631797089a0a1ee579573eb9	358894553	1	main_slash	7	advance_on_keypress_SLASH	48	stimuli_distractor_diamondtriangles.svg	stimuli_target_squarediamonds.svg	16	yes	57	0	266
6.6.1	win	2022-12-16	09:10:15	09:18:36	500376	631797089a0a1ee579573eb9	358894553	1	main_slash	7	main_slash	49	stimuli_target_trianglesquares.svg	stimuli_distractor_diamondtriangles.svg	22	yes	0	0	2000
6.6.1	win	2022-12-16	09:10:15	09:18:36	500376	631797089a0a1ee579573eb9	358894553	1	main_slash	7	advance_on_keypress_SLASH	50	stimuli_target_trianglesquares.svg	stimuli_distractor_diamondtriangles.svg	22	yes	57	0	514
6.6.1	win	2022-12-16	09:10:15	09:18:38	502155	631797089a0a1ee579573eb9	358894553	1	main_slash	7	main_slash	51	stimuli_distractor_diamondtriangles.svg	stimuli_target_circletriangles.svg	13	yes	53	1	629
6.6.1	win	2022-12-16	09:10:15	09:18:38	502155	631797089a0a1ee579573eb9	358894553	1	main_slash	7	advance_on_keypress_SLASH	52	stimuli_distractor_diamondtriangles.svg	stimuli_target_circletriangles.svg	13	yes	57	0	322
6.6.1	win	2022-12-16	09:10:15	09:18:39	503828	631797089a0a1ee579573eb9	358894553	1	main_slash	7	main_slash	53	stimuli_distractor_trianglediamonds.svg	stimuli_target_squaretriangles.svg	11	yes	53	1	718
6.6.1	win	2022-12-16	09:10:15	09:18:39	503828	631797089a0a1ee579573eb9	358894553	1	main_slash	7	advance_on_keypress_SLASH	54	stimuli_distractor_trianglediamonds.svg	stimuli_target_squaretriangles.svg	11	yes	57	0	285
6.6.1	win	2022-12-16	09:10:15	09:18:41	505410	631797089a0a1ee579573eb9	358894553	1	main_slash	7	main_slash	55	stimuli_distractor_trianglediamonds.svg	stimuli_target_squarediamonds.svg	12	yes	53	1	650
6.6.1	win	2022-12-16	09:10:15	09:18:41	505410	631797089a0a1ee579573eb9	358894553	1	main_slash	7	advance_on_keypress_SLASH	56	stimuli_distractor_trianglediamonds.svg	stimuli_target_squarediamonds.svg	12	yes	57	0	295
6.6.1	win	2022-12-16	09:10:15	09:18:43	507042	631797089a0a1ee579573eb9	358894553	1	main_slash	7	main_slash	57	stimuli_target_circletriangles.svg	stimuli_distractor_diamondtriangles.svg	5	yes	53	1	699
6.6.1	win	2022-12-16	09:10:15	09:18:43	507042	631797089a0a1ee579573eb9	358894553	1	main_slash	7	advance_on_keypress_SLASH	58	stimuli_target_circletriangles.svg	stimuli_distractor_diamondtriangles.svg	5	yes	57	0	274
6.6.1	win	2022-12-16	09:10:15	09:18:46	509960	631797089a0a1ee579573eb9	358894553	1	main_slash	7	main_slash	59	stimuli_distractor_diamondtriangles.svg	stimuli_distractor_diamondtriangles.svg	39	no	0	1	2000
6.6.1	win	2022-12-16	09:10:15	09:18:46	509960	631797089a0a1ee579573eb9	358894553	1	main_slash	7	advance_on_keypress_SLASH	60	stimuli_distractor_diamondtriangles.svg	stimuli_distractor_diamondtriangles.svg	39	no	57	0	655
6.6.1	win	2022-12-16	09:10:15	09:18:47	511837	631797089a0a1ee579573eb9	358894553	1	main_slash	7	main_slash	61	stimuli_target_squarediamonds.svg	stimuli_distractor_diamondtriangles.svg	8	yes	53	1	577
6.6.1	win	2022-12-16	09:10:15	09:18:47	511837	631797089a0a1ee579573eb9	358894553	1	main_slash	7	advance_on_keypress_SLASH	62	stimuli_target_squarediamonds.svg	stimuli_distractor_diamondtriangles.svg	8	yes	57	0	254
6.6.1	win	2022-12-16	09:10:15	09:18:49	513597	631797089a0a1ee579573eb9	358894553	1	main_slash	7	main_slash	63	stimuli_distractor_diamondtriangles.svg	stimuli_distractor_trianglediamonds.svg	37	no	53	0	870
6.6.1	win	2022-12-16	09:10:15	09:18:49	513597	631797089a0a1ee579573eb9	358894553	1	main_slash	7	advance_on_keypress_SLASH	64	stimuli_distractor_diamondtriangles.svg	stimuli_distractor_trianglediamonds.svg	37	no	57	0	268
6.6.1	win	2022-12-16	09:10:15	09:18:51	515368	631797089a0a1ee579573eb9	358894553	1	main_slash	7	main_slash	65	stimuli_distractor_trianglediamonds.svg	stimuli_target_circlediamonds.svg	10	yes	53	1	858
6.6.1	win	2022-12-16	09:10:15	09:18:51	515368	631797089a0a1ee579573eb9	358894553	1	main_slash	7	advance_on_keypress_SLASH	66	stimuli_distractor_trianglediamonds.svg	stimuli_target_circlediamonds.svg	10	yes	57	0	253
6.6.1	win	2022-12-16	09:10:15	09:18:54	518260	631797089a0a1ee579573eb9	358894553	1	main_slash	7	main_slash	67	stimuli_target_diamondcircles.svg	stimuli_distractor_trianglediamonds.svg	19	yes	0	0	2000
6.6.1	win	2022-12-16	09:10:15	09:18:54	518260	631797089a0a1ee579573eb9	358894553	1	main_slash	7	advance_on_keypress_SLASH	68	stimuli_target_diamondcircles.svg	stimuli_distractor_trianglediamonds.svg	19	yes	57	0	528
6.6.1	win	2022-12-16	09:10:15	09:18:57	521427	631797089a0a1ee579573eb9	358894553	1	main_slash	7	main_slash	69	stimuli_distractor_trianglediamonds.svg	stimuli_distractor_trianglediamonds.svg	33	no	0	1	2000
6.6.1	win	2022-12-16	09:10:15	09:18:57	521427	631797089a0a1ee579573eb9	358894553	1	main_slash	7	advance_on_keypress_SLASH	70	stimuli_distractor_trianglediamonds.svg	stimuli_distractor_trianglediamonds.svg	33	no	57	0	403
6.6.1	win	2022-12-16	09:10:15	09:19:00	524477	631797089a0a1ee579573eb9	358894553	1	main_slash	7	main_slash	71	stimuli_target_trianglecircles.svg	stimuli_distractor_diamondtriangles.svg	21	yes	0	0	2000
6.6.1	win	2022-12-16	09:10:15	09:19:00	524477	631797089a0a1ee579573eb9	358894553	1	main_slash	7	advance_on_keypress_SLASH	72	stimuli_target_trianglecircles.svg	stimuli_distractor_diamondtriangles.svg	21	yes	57	0	288
6.6.1	win	2022-12-16	09:10:15	09:19:02	526163	631797089a0a1ee579573eb9	358894553	1	main_slash	7	main_slash	73	stimuli_target_trianglecircles.svg	stimuli_distractor_trianglediamonds.svg	17	yes	53	1	753
6.6.1	win	2022-12-16	09:10:15	09:19:02	526163	631797089a0a1ee579573eb9	358894553	1	main_slash	7	advance_on_keypress_SLASH	74	stimuli_target_trianglecircles.svg	stimuli_distractor_trianglediamonds.svg	17	yes	57	0	284
6.6.1	win	2022-12-16	09:10:15	09:19:05	529094	631797089a0a1ee579573eb9	358894553	1	main_slash	7	main_slash	75	stimuli_distractor_diamondtriangles.svg	stimuli_distractor_trianglediamonds.svg	38	no	0	1	2000
6.6.1	win	2022-12-16	09:10:15	09:19:05	529094	631797089a0a1ee579573eb9	358894553	1	main_slash	7	advance_on_keypress_SLASH	76	stimuli_distractor_diamondtriangles.svg	stimuli_distractor_trianglediamonds.svg	38	no	57	0	527
6.6.1	win	2022-12-16	09:10:15	09:19:08	532260	631797089a0a1ee579573eb9	358894553	1	main_slash	7	main_slash	77	stimuli_distractor_diamondtriangles.svg	stimuli_target_trianglecircles.svg	29	yes	0	0	2000
6.6.1	win	2022-12-16	09:10:15	09:19:08	532260	631797089a0a1ee579573eb9	358894553	1	main_slash	7	advance_on_keypress_SLASH	78	stimuli_distractor_diamondtriangles.svg	stimuli_target_trianglecircles.svg	29	yes	57	0	317
6.6.1	win	2022-12-16	09:10:15	09:19:11	535227	631797089a0a1ee579573eb9	358894553	1	main_slash	7	main_slash	79	stimuli_distractor_trianglediamonds.svg	stimuli_distractor_diamondtriangles.svg	35	no	0	1	2000
6.6.1	win	2022-12-16	09:10:15	09:19:11	535227	631797089a0a1ee579573eb9	358894553	1	main_slash	7	advance_on_keypress_SLASH	80	stimuli_distractor_trianglediamonds.svg	stimuli_distractor_diamondtriangles.svg	35	no	57	0	251
6.6.1	win	2022-12-16	09:10:15	09:19:12	536837	631797089a0a1ee579573eb9	358894553	1	main_slash	7	main_slash	81	stimuli_target_squaretriangles.svg	stimuli_distractor_diamondtriangles.svg	7	yes	53	1	710
6.6.1	win	2022-12-16	09:10:15	09:19:12	536837	631797089a0a1ee579573eb9	358894553	1	main_slash	7	advance_on_keypress_SLASH	82	stimuli_target_squaretriangles.svg	stimuli_distractor_diamondtriangles.svg	7	yes	57	0	271
6.6.1	win	2022-12-16	09:10:15	09:19:14	538465	631797089a0a1ee579573eb9	358894553	1	main_slash	7	main_slash	83	stimuli_target_squarediamonds.svg	stimuli_distractor_diamondtriangles.svg	8	yes	53	1	721
6.6.1	win	2022-12-16	09:10:15	09:19:14	538465	631797089a0a1ee579573eb9	358894553	1	main_slash	7	advance_on_keypress_SLASH	84	stimuli_target_squarediamonds.svg	stimuli_distractor_diamondtriangles.svg	8	yes	57	0	320
6.6.1	win	2022-12-16	09:10:15	09:19:17	541427	631797089a0a1ee579573eb9	358894553	1	main_slash	7	main_slash	85	stimuli_distractor_diamondtriangles.svg	stimuli_distractor_diamondtriangles.svg	40	no	0	1	2000
6.6.1	win	2022-12-16	09:10:15	09:19:17	541427	631797089a0a1ee579573eb9	358894553	1	main_slash	7	advance_on_keypress_SLASH	86	stimuli_distractor_diamondtriangles.svg	stimuli_distractor_diamondtriangles.svg	40	no	57	0	440
6.6.1	win	2022-12-16	09:10:15	09:19:20	544511	631797089a0a1ee579573eb9	358894553	1	main_slash	7	main_slash	87	stimuli_distractor_trianglediamonds.svg	stimuli_distractor_diamondtriangles.svg	36	no	0	1	2000
6.6.1	win	2022-12-16	09:10:15	09:19:20	544511	631797089a0a1ee579573eb9	358894553	1	main_slash	7	advance_on_keypress_SLASH	88	stimuli_distractor_trianglediamonds.svg	stimuli_distractor_diamondtriangles.svg	36	no	57	0	381
6.6.1	win	2022-12-16	09:10:15	09:19:23	547528	631797089a0a1ee579573eb9	358894553	1	main_slash	7	main_slash	89	stimuli_distractor_trianglediamonds.svg	stimuli_distractor_trianglediamonds.svg	33	no	0	1	2000
6.6.1	win	2022-12-16	09:10:15	09:19:23	547528	631797089a0a1ee579573eb9	358894553	1	main_slash	7	advance_on_keypress_SLASH	90	stimuli_distractor_trianglediamonds.svg	stimuli_distractor_trianglediamonds.svg	33	no	57	0	351
6.6.1	win	2022-12-16	09:10:15	09:19:26	550528	631797089a0a1ee579573eb9	358894553	1	main_slash	7	main_slash	91	stimuli_distractor_diamondtriangles.svg	stimuli_target_diamondsquares.svg	32	yes	0	0	2000
6.6.1	win	2022-12-16	09:10:15	09:19:26	550528	631797089a0a1ee579573eb9	358894553	1	main_slash	7	advance_on_keypress_SLASH	92	stimuli_distractor_diamondtriangles.svg	stimuli_target_diamondsquares.svg	32	yes	57	0	410
6.6.1	win	2022-12-16	09:10:15	09:19:28	552562	631797089a0a1ee579573eb9	358894553	1	main_slash	7	main_slash	93	stimuli_target_trianglesquares.svg	stimuli_distractor_trianglediamonds.svg	18	yes	53	1	984
6.6.1	win	2022-12-16	09:10:15	09:19:28	552562	631797089a0a1ee579573eb9	358894553	1	main_slash	7	advance_on_keypress_SLASH	94	stimuli_target_trianglesquares.svg	stimuli_distractor_trianglediamonds.svg	18	yes	57	0	373
6.6.1	win	2022-12-16	09:10:15	09:19:30	554245	631797089a0a1ee579573eb9	358894553	1	main_slash	7	main_slash	95	stimuli_target_squaretriangles.svg	stimuli_distractor_trianglediamonds.svg	3	yes	53	1	667
6.6.1	win	2022-12-16	09:10:15	09:19:30	554245	631797089a0a1ee579573eb9	358894553	1	main_slash	7	advance_on_keypress_SLASH	96	stimuli_target_squaretriangles.svg	stimuli_distractor_trianglediamonds.svg	3	yes	57	0	277
6.6.1	win	2022-12-16	09:10:15	09:19:33	557161	631797089a0a1ee579573eb9	358894553	1	main_slash	7	main_slash	97	stimuli_distractor_trianglediamonds.svg	stimuli_distractor_diamondtriangles.svg	35	no	0	1	2000
6.6.1	win	2022-12-16	09:10:15	09:19:33	557161	631797089a0a1ee579573eb9	358894553	1	main_slash	7	advance_on_keypress_SLASH	98	stimuli_distractor_trianglediamonds.svg	stimuli_distractor_diamondtriangles.svg	35	no	57	0	433
6.6.1	win	2022-12-16	09:10:15	09:19:36	560245	631797089a0a1ee579573eb9	358894553	1	main_slash	7	main_slash	99	stimuli_distractor_diamondtriangles.svg	stimuli_target_trianglecircles.svg	29	yes	0	0	2000
6.6.1	win	2022-12-16	09:10:15	09:19:36	560245	631797089a0a1ee579573eb9	358894553	1	main_slash	7	advance_on_keypress_SLASH	100	stimuli_distractor_diamondtriangles.svg	stimuli_target_trianglecircles.svg	29	yes	57	0	349
6.6.1	win	2022-12-16	09:10:15	09:19:38	562120	631797089a0a1ee579573eb9	358894553	1	main_slash	7	main_slash	101	stimuli_distractor_trianglediamonds.svg	stimuli_distractor_trianglediamonds.svg	34	no	53	0	875
6.6.1	win	2022-12-16	09:10:15	09:19:38	562120	631797089a0a1ee579573eb9	358894553	1	main_slash	7	advance_on_keypress_SLASH	102	stimuli_distractor_trianglediamonds.svg	stimuli_distractor_trianglediamonds.svg	34	no	57	0	238
6.6.1	win	2022-12-16	09:10:15	09:19:39	563591	631797089a0a1ee579573eb9	358894553	1	main_slash	7	main_slash	103	stimuli_target_circlediamonds.svg	stimuli_distractor_diamondtriangles.svg	6	yes	53	1	596
6.6.1	win	2022-12-16	09:10:15	09:19:39	563591	631797089a0a1ee579573eb9	358894553	1	main_slash	7	advance_on_keypress_SLASH	104	stimuli_target_circlediamonds.svg	stimuli_distractor_diamondtriangles.svg	6	yes	57	0	266
6.6.1	win	2022-12-16	09:10:15	09:19:42	566495	631797089a0a1ee579573eb9	358894553	1	main_slash	7	main_slash	105	stimuli_distractor_trianglediamonds.svg	stimuli_target_circletriangles.svg	9	yes	0	0	2000
6.6.1	win	2022-12-16	09:10:15	09:19:42	566495	631797089a0a1ee579573eb9	358894553	1	main_slash	7	advance_on_keypress_SLASH	106	stimuli_distractor_trianglediamonds.svg	stimuli_target_circletriangles.svg	9	yes	57	0	370
6.6.1	win	2022-12-16	09:10:15	09:19:44	568441	631797089a0a1ee579573eb9	358894553	1	main_slash	7	main_slash	107	stimuli_distractor_diamondtriangles.svg	stimuli_target_trianglesquares.svg	30	yes	53	1	930
6.6.1	win	2022-12-16	09:10:15	09:19:44	568441	631797089a0a1ee579573eb9	358894553	1	main_slash	7	advance_on_keypress_SLASH	108	stimuli_distractor_diamondtriangles.svg	stimuli_target_trianglesquares.svg	30	yes	57	0	234
6.6.1	win	2022-12-16	09:10:15	09:19:46	570072	631797089a0a1ee579573eb9	358894553	1	main_slash	7	main_slash	109	stimuli_distractor_trianglediamonds.svg	stimuli_target_trianglecircles.svg	25	yes	53	1	760
6.6.1	win	2022-12-16	09:10:15	09:19:46	570072	631797089a0a1ee579573eb9	358894553	1	main_slash	7	advance_on_keypress_SLASH	110	stimuli_distractor_trianglediamonds.svg	stimuli_target_trianglecircles.svg	25	yes	57	0	221
6.6.1	win	2022-12-16	09:10:15	09:19:47	571607	631797089a0a1ee579573eb9	358894553	1	main_slash	7	main_slash	111	stimuli_target_trianglecircles.svg	stimuli_distractor_trianglediamonds.svg	17	yes	53	1	679
6.6.1	win	2022-12-16	09:10:15	09:19:47	571607	631797089a0a1ee579573eb9	358894553	1	main_slash	7	advance_on_keypress_SLASH	112	stimuli_target_trianglecircles.svg	stimuli_distractor_trianglediamonds.svg	17	yes	57	0	236
6.6.1	win	2022-12-16	09:10:15	09:19:49	573206	631797089a0a1ee579573eb9	358894553	1	main_slash	7	main_slash	113	stimuli_target_circletriangles.svg	stimuli_distractor_diamondtriangles.svg	5	yes	53	1	728
6.6.1	win	2022-12-16	09:10:15	09:19:49	573206	631797089a0a1ee579573eb9	358894553	1	main_slash	7	advance_on_keypress_SLASH	114	stimuli_target_circletriangles.svg	stimuli_distractor_diamondtriangles.svg	5	yes	57	0	258
6.6.1	win	2022-12-16	09:10:15	09:19:51	574953	631797089a0a1ee579573eb9	358894553	1	main_slash	7	main_slash	115	stimuli_distractor_trianglediamonds.svg	stimuli_target_diamondsquares.svg	28	yes	53	1	858
6.6.1	win	2022-12-16	09:10:15	09:19:51	574953	631797089a0a1ee579573eb9	358894553	1	main_slash	7	advance_on_keypress_SLASH	116	stimuli_distractor_trianglediamonds.svg	stimuli_target_diamondsquares.svg	28	yes	57	0	211
6.6.1	win	2022-12-16	09:10:15	09:19:53	577795	631797089a0a1ee579573eb9	358894553	1	main_slash	7	main_slash	117	stimuli_target_diamondcircles.svg	stimuli_distractor_trianglediamonds.svg	19	yes	0	0	2000
6.6.1	win	2022-12-16	09:10:15	09:19:53	577795	631797089a0a1ee579573eb9	358894553	1	main_slash	7	advance_on_keypress_SLASH	118	stimuli_target_diamondcircles.svg	stimuli_distractor_trianglediamonds.svg	19	yes	57	0	483
6.6.1	win	2022-12-16	09:10:15	09:19:55	579589	631797089a0a1ee579573eb9	358894553	1	main_slash	7	main_slash	119	stimuli_target_circletriangles.svg	stimuli_distractor_trianglediamonds.svg	1	yes	53	1	661
6.6.1	win	2022-12-16	09:10:15	09:19:55	579589	631797089a0a1ee579573eb9	358894553	1	main_slash	7	advance_on_keypress_SLASH	120	stimuli_target_circletriangles.svg	stimuli_distractor_trianglediamonds.svg	1	yes	57	0	242
6.6.1	win	2022-12-16	09:10:15	09:19:57	581393	631797089a0a1ee579573eb9	358894553	1	main_slash	7	main_slash	121	stimuli_distractor_trianglediamonds.svg	stimuli_target_diamondcircles.svg	27	yes	53	1	931
6.6.1	win	2022-12-16	09:10:15	09:19:57	581393	631797089a0a1ee579573eb9	358894553	1	main_slash	7	advance_on_keypress_SLASH	122	stimuli_distractor_trianglediamonds.svg	stimuli_target_diamondcircles.svg	27	yes	57	0	209
6.6.1	win	2022-12-16	09:10:15	09:19:59	583191	631797089a0a1ee579573eb9	358894553	1	main_slash	7	main_slash	123	stimuli_distractor_diamondtriangles.svg	stimuli_target_squaretriangles.svg	15	yes	53	1	962
6.6.1	win	2022-12-16	09:10:15	09:19:59	583191	631797089a0a1ee579573eb9	358894553	1	main_slash	7	advance_on_keypress_SLASH	124	stimuli_distractor_diamondtriangles.svg	stimuli_target_squaretriangles.svg	15	yes	57	0	181
6.6.1	win	2022-12-16	09:10:15	09:20:00	584856	631797089a0a1ee579573eb9	358894553	1	main_slash	7	main_slash	125	stimuli_target_trianglesquares.svg	stimuli_distractor_diamondtriangles.svg	22	yes	53	1	861
6.6.1	win	2022-12-16	09:10:15	09:20:00	584856	631797089a0a1ee579573eb9	358894553	1	main_slash	7	advance_on_keypress_SLASH	126	stimuli_target_trianglesquares.svg	stimuli_distractor_diamondtriangles.svg	22	yes	57	0	214
6.6.1	win	2022-12-16	09:10:15	09:20:02	586526	631797089a0a1ee579573eb9	358894553	1	main_slash	7	main_slash	127	stimuli_distractor_diamondtriangles.svg	stimuli_target_circlediamonds.svg	14	yes	53	1	831
6.6.1	win	2022-12-16	09:10:15	09:20:02	586526	631797089a0a1ee579573eb9	358894553	1	main_slash	7	advance_on_keypress_SLASH	128	stimuli_distractor_diamondtriangles.svg	stimuli_target_circlediamonds.svg	14	yes	57	0	222
6.6.1	win	2022-12-16	09:10:15	09:20:04	588256	631797089a0a1ee579573eb9	358894553	1	main_slash	7	main_slash	129	stimuli_target_trianglecircles.svg	stimuli_distractor_diamondtriangles.svg	21	yes	53	1	877
6.6.1	win	2022-12-16	09:10:15	09:20:04	588256	631797089a0a1ee579573eb9	358894553	1	main_slash	7	advance_on_keypress_SLASH	130	stimuli_target_trianglecircles.svg	stimuli_distractor_diamondtriangles.svg	21	yes	57	0	155
6.6.1	win	2022-12-16	09:10:15	09:20:05	589867	631797089a0a1ee579573eb9	358894553	1	main_slash	7	main_slash	131	stimuli_distractor_trianglediamonds.svg	stimuli_target_trianglesquares.svg	26	yes	53	1	822
6.6.1	win	2022-12-16	09:10:15	09:20:05	589867	631797089a0a1ee579573eb9	358894553	1	main_slash	7	advance_on_keypress_SLASH	132	stimuli_distractor_trianglediamonds.svg	stimuli_target_trianglesquares.svg	26	yes	57	0	138
6.6.1	win	2022-12-16	09:10:15	09:20:07	591456	631797089a0a1ee579573eb9	358894553	1	main_slash	7	main_slash	133	stimuli_distractor_trianglediamonds.svg	stimuli_target_squarediamonds.svg	12	yes	53	1	811
6.6.1	win	2022-12-16	09:10:15	09:20:07	591456	631797089a0a1ee579573eb9	358894553	1	main_slash	7	advance_on_keypress_SLASH	134	stimuli_distractor_trianglediamonds.svg	stimuli_target_squarediamonds.svg	12	yes	57	0	187
6.6.1	win	2022-12-16	09:10:15	09:20:08	592867	631797089a0a1ee579573eb9	358894553	1	main_slash	7	main_slash	135	stimuli_distractor_diamondtriangles.svg	stimuli_target_circletriangles.svg	13	yes	53	1	588
6.6.1	win	2022-12-16	09:10:15	09:20:08	592867	631797089a0a1ee579573eb9	358894553	1	main_slash	7	advance_on_keypress_SLASH	136	stimuli_distractor_diamondtriangles.svg	stimuli_target_circletriangles.svg	13	yes	57	0	195
6.6.1	win	2022-12-16	09:10:15	09:20:10	594451	631797089a0a1ee579573eb9	358894553	1	main_slash	7	main_slash	137	stimuli_distractor_diamondtriangles.svg	stimuli_distractor_trianglediamonds.svg	38	no	53	0	756
6.6.1	win	2022-12-16	09:10:15	09:20:10	594451	631797089a0a1ee579573eb9	358894553	1	main_slash	7	advance_on_keypress_SLASH	138	stimuli_distractor_diamondtriangles.svg	stimuli_distractor_trianglediamonds.svg	38	no	57	0	205
6.6.1	win	2022-12-16	09:10:15	09:20:13	597296	631797089a0a1ee579573eb9	358894553	1	main_slash	7	main_slash	139	stimuli_distractor_diamondtriangles.svg	stimuli_distractor_diamondtriangles.svg	39	no	0	1	2000
6.6.1	win	2022-12-16	09:10:15	09:20:13	597296	631797089a0a1ee579573eb9	358894553	1	main_slash	7	advance_on_keypress_SLASH	140	stimuli_distractor_diamondtriangles.svg	stimuli_distractor_diamondtriangles.svg	39	no	57	0	340
6.6.1	win	2022-12-16	09:10:15	09:20:15	599001	631797089a0a1ee579573eb9	358894553	1	main_slash	7	main_slash	141	stimuli_distractor_trianglediamonds.svg	stimuli_target_squaretriangles.svg	11	yes	53	1	722
6.6.1	win	2022-12-16	09:10:15	09:20:15	599001	631797089a0a1ee579573eb9	358894553	1	main_slash	7	advance_on_keypress_SLASH	142	stimuli_distractor_trianglediamonds.svg	stimuli_target_squaretriangles.svg	11	yes	57	0	193
6.6.1	win	2022-12-16	09:10:15	09:20:16	600460	631797089a0a1ee579573eb9	358894553	1	main_slash	7	main_slash	143	stimuli_target_circlediamonds.svg	stimuli_distractor_trianglediamonds.svg	2	yes	53	1	631
6.6.1	win	2022-12-16	09:10:15	09:20:16	600460	631797089a0a1ee579573eb9	358894553	1	main_slash	7	advance_on_keypress_SLASH	144	stimuli_target_circlediamonds.svg	stimuli_distractor_trianglediamonds.svg	2	yes	57	0	215
6.6.1	win	2022-12-16	09:10:15	09:20:18	601982	631797089a0a1ee579573eb9	358894553	1	main_slash	7	main_slash	145	stimuli_distractor_diamondtriangles.svg	stimuli_target_squarediamonds.svg	16	yes	53	1	686
6.6.1	win	2022-12-16	09:10:15	09:20:18	601982	631797089a0a1ee579573eb9	358894553	1	main_slash	7	advance_on_keypress_SLASH	146	stimuli_distractor_diamondtriangles.svg	stimuli_target_squarediamonds.svg	16	yes	57	0	200
6.6.1	win	2022-12-16	09:10:15	09:20:19	603452	631797089a0a1ee579573eb9	358894553	1	main_slash	7	main_slash	147	stimuli_distractor_trianglediamonds.svg	stimuli_target_circlediamonds.svg	10	yes	53	1	623
6.6.1	win	2022-12-16	09:10:15	09:20:19	603452	631797089a0a1ee579573eb9	358894553	1	main_slash	7	advance_on_keypress_SLASH	148	stimuli_distractor_trianglediamonds.svg	stimuli_target_circlediamonds.svg	10	yes	57	0	222
6.6.1	win	2022-12-16	09:10:15	09:20:22	606312	631797089a0a1ee579573eb9	358894553	1	main_slash	7	main_slash	149	stimuli_target_diamondsquares.svg	stimuli_distractor_trianglediamonds.svg	20	yes	0	0	2000
6.6.1	win	2022-12-16	09:10:15	09:20:22	606312	631797089a0a1ee579573eb9	358894553	1	main_slash	7	advance_on_keypress_SLASH	150	stimuli_target_diamondsquares.svg	stimuli_distractor_trianglediamonds.svg	20	yes	57	0	352
6.6.1	win	2022-12-16	09:10:15	09:20:25	609313	631797089a0a1ee579573eb9	358894553	1	main_slash	7	main_slash	151	stimuli_target_diamondsquares.svg	stimuli_distractor_diamondtriangles.svg	24	yes	0	0	2000
6.6.1	win	2022-12-16	09:10:15	09:20:25	609313	631797089a0a1ee579573eb9	358894553	1	main_slash	7	advance_on_keypress_SLASH	152	stimuli_target_diamondsquares.svg	stimuli_distractor_diamondtriangles.svg	24	yes	57	0	485
6.6.1	win	2022-12-16	09:10:15	09:20:28	612446	631797089a0a1ee579573eb9	358894553	1	main_slash	7	main_slash	153	stimuli_target_diamondcircles.svg	stimuli_distractor_diamondtriangles.svg	23	yes	0	0	2000
6.6.1	win	2022-12-16	09:10:15	09:20:28	612446	631797089a0a1ee579573eb9	358894553	1	main_slash	7	advance_on_keypress_SLASH	154	stimuli_target_diamondcircles.svg	stimuli_distractor_diamondtriangles.svg	23	yes	57	0	279
6.6.1	win	2022-12-16	09:10:15	09:20:31	615363	631797089a0a1ee579573eb9	358894553	1	main_slash	7	main_slash	155	stimuli_distractor_diamondtriangles.svg	stimuli_target_diamondcircles.svg	31	yes	0	0	2000
6.6.1	win	2022-12-16	09:10:15	09:20:31	615363	631797089a0a1ee579573eb9	358894553	1	main_slash	7	advance_on_keypress_SLASH	156	stimuli_distractor_diamondtriangles.svg	stimuli_target_diamondcircles.svg	31	yes	57	0	237
6.6.1	win	2022-12-16	09:10:15	09:20:34	618246	631797089a0a1ee579573eb9	358894553	1	main_slash	7	main_slash	157	stimuli_distractor_diamondtriangles.svg	stimuli_distractor_trianglediamonds.svg	37	no	0	1	2000
6.6.1	win	2022-12-16	09:10:15	09:20:34	618246	631797089a0a1ee579573eb9	358894553	1	main_slash	7	advance_on_keypress_SLASH	158	stimuli_distractor_diamondtriangles.svg	stimuli_distractor_trianglediamonds.svg	37	no	57	0	318
6.6.1	win	2022-12-16	09:10:15	09:20:36	619971	631797089a0a1ee579573eb9	358894553	1	main_slash	7	main_slash	159	stimuli_target_squarediamonds.svg	stimuli_distractor_trianglediamonds.svg	4	yes	53	1	758
6.6.1	win	2022-12-16	09:10:15	09:20:36	619971	631797089a0a1ee579573eb9	358894553	1	main_slash	7	advance_on_keypress_SLASH	160	stimuli_target_squarediamonds.svg	stimuli_distractor_trianglediamonds.svg	4	yes	57	0	257
6.6.1	win	2022-12-16	09:10:15	09:20:58	642843	631797089a0a1ee579573eb9	358894553	1	practice_z	9	practice_z	1	stimuli_distractor_diamondtriangles.svg	stimuli_target_diamondcircles.svg	8	yes	44	1	929
6.6.1	win	2022-12-16	09:10:15	09:20:58	642843	631797089a0a1ee579573eb9	358894553	1	practice_z	9	advance_on_keypress_ZEE	2	stimuli_distractor_diamondtriangles.svg	stimuli_target_diamondcircles.svg	8	yes	57	0	660
6.6.1	win	2022-12-16	09:10:15	09:21:03	647130	631797089a0a1ee579573eb9	358894553	1	practice_z	9	practice_z	3	stimuli_distractor_diamondtriangles.svg	stimuli_distractor_diamondtriangles.svg	13	no	0	1	2000
6.6.1	win	2022-12-16	09:10:15	09:21:03	647130	631797089a0a1ee579573eb9	358894553	1	practice_z	9	advance_on_keypress_ZEE	4	stimuli_distractor_diamondtriangles.svg	stimuli_distractor_diamondtriangles.svg	13	no	57	0	509
6.6.1	win	2022-12-16	09:10:15	09:21:05	649339	631797089a0a1ee579573eb9	358894553	1	practice_z	9	practice_z	5	stimuli_distractor_trianglediamonds.svg	stimuli_target_squarediamonds.svg	11	yes	44	1	59
6.6.1	win	2022-12-16	09:10:15	09:21:05	649339	631797089a0a1ee579573eb9	358894553	1	practice_z	9	advance_on_keypress_ZEE	6	stimuli_distractor_trianglediamonds.svg	stimuli_target_squarediamonds.svg	11	yes	57	0	447
6.6.1	win	2022-12-16	09:10:15	09:21:07	651868	631797089a0a1ee579573eb9	358894553	1	practice_z	9	practice_z	7	stimuli_target_diamondsquares.svg	stimuli_distractor_diamondtriangles.svg	3	yes	44	1	454
6.6.1	win	2022-12-16	09:10:15	09:21:07	651868	631797089a0a1ee579573eb9	358894553	1	practice_z	9	advance_on_keypress_ZEE	8	stimuli_target_diamondsquares.svg	stimuli_distractor_diamondtriangles.svg	3	yes	57	0	308
6.6.1	win	2022-12-16	09:10:15	09:21:11	655814	631797089a0a1ee579573eb9	358894553	1	practice_z	9	practice_z	9	stimuli_distractor_diamondtriangles.svg	stimuli_distractor_trianglediamonds.svg	14	no	0	1	2000
6.6.1	win	2022-12-16	09:10:15	09:21:11	655814	631797089a0a1ee579573eb9	358894553	1	practice_z	9	advance_on_keypress_ZEE	10	stimuli_distractor_diamondtriangles.svg	stimuli_distractor_trianglediamonds.svg	14	no	57	0	294
6.6.1	win	2022-12-16	09:10:15	09:21:14	657971	631797089a0a1ee579573eb9	358894553	1	practice_z	9	practice_z	11	stimuli_distractor_trianglediamonds.svg	stimuli_distractor_trianglediamonds.svg	15	no	44	0	225
6.6.1	win	2022-12-16	09:10:15	09:21:14	657971	631797089a0a1ee579573eb9	358894553	1	practice_z	9	advance_on_keypress_ZEE	12	stimuli_distractor_trianglediamonds.svg	stimuli_distractor_trianglediamonds.svg	15	no	57	0	334
6.6.1	win	2022-12-16	09:10:15	09:21:18	661948	631797089a0a1ee579573eb9	358894553	1	practice_z	9	practice_z	13	stimuli_distractor_trianglediamonds.svg	stimuli_target_diamondcircles.svg	12	yes	0	0	2000
6.6.1	win	2022-12-16	09:10:15	09:21:18	661948	631797089a0a1ee579573eb9	358894553	1	practice_z	9	advance_on_keypress_ZEE	14	stimuli_distractor_trianglediamonds.svg	stimuli_target_diamondcircles.svg	12	yes	57	0	230
6.6.1	win	2022-12-16	09:10:15	09:21:20	664443	631797089a0a1ee579573eb9	358894553	1	practice_z	9	practice_z	15	stimuli_distractor_diamondtriangles.svg	stimuli_target_circletriangles.svg	7	yes	44	1	629
6.6.1	win	2022-12-16	09:10:15	09:21:20	664443	631797089a0a1ee579573eb9	358894553	1	practice_z	9	advance_on_keypress_ZEE	16	stimuli_distractor_diamondtriangles.svg	stimuli_target_circletriangles.svg	7	yes	57	0	272
6.6.1	win	2022-12-16	09:10:15	09:21:22	666870	631797089a0a1ee579573eb9	358894553	1	practice_z	9	practice_z	17	stimuli_target_diamondsquares.svg	stimuli_distractor_trianglediamonds.svg	6	yes	44	1	523
6.6.1	win	2022-12-16	09:10:15	09:21:22	666870	631797089a0a1ee579573eb9	358894553	1	practice_z	9	advance_on_keypress_ZEE	18	stimuli_target_diamondsquares.svg	stimuli_distractor_trianglediamonds.svg	6	yes	57	0	371
6.6.1	win	2022-12-16	09:10:15	09:21:25	669373	631797089a0a1ee579573eb9	358894553	1	practice_z	9	practice_z	19	stimuli_target_squarediamonds.svg	stimuli_distractor_diamondtriangles.svg	2	yes	44	1	492
6.6.1	win	2022-12-16	09:10:15	09:21:25	669373	631797089a0a1ee579573eb9	358894553	1	practice_z	9	advance_on_keypress_ZEE	20	stimuli_target_squarediamonds.svg	stimuli_distractor_diamondtriangles.svg	2	yes	57	0	440
6.6.1	win	2022-12-16	09:10:15	09:21:27	671924	631797089a0a1ee579573eb9	358894553	1	practice_z	9	practice_z	21	stimuli_target_circlediamonds.svg	stimuli_distractor_trianglediamonds.svg	4	yes	44	1	476
6.6.1	win	2022-12-16	09:10:15	09:21:27	671924	631797089a0a1ee579573eb9	358894553	1	practice_z	9	advance_on_keypress_ZEE	22	stimuli_target_circlediamonds.svg	stimuli_distractor_trianglediamonds.svg	4	yes	57	0	476
6.6.1	win	2022-12-16	09:10:15	09:21:30	674665	631797089a0a1ee579573eb9	358894553	1	practice_z	9	practice_z	23	stimuli_target_circlediamonds.svg	stimuli_distractor_diamondtriangles.svg	1	yes	44	1	634
6.6.1	win	2022-12-16	09:10:15	09:21:30	674665	631797089a0a1ee579573eb9	358894553	1	practice_z	9	advance_on_keypress_ZEE	24	stimuli_target_circlediamonds.svg	stimuli_distractor_diamondtriangles.svg	1	yes	57	0	498
6.6.1	win	2022-12-16	09:10:15	09:21:33	677209	631797089a0a1ee579573eb9	358894553	1	practice_z	9	practice_z	25	stimuli_distractor_trianglediamonds.svg	stimuli_target_circlediamonds.svg	10	yes	44	1	411
6.6.1	win	2022-12-16	09:10:15	09:21:33	677209	631797089a0a1ee579573eb9	358894553	1	practice_z	9	advance_on_keypress_ZEE	26	stimuli_distractor_trianglediamonds.svg	stimuli_target_circlediamonds.svg	10	yes	57	0	491
6.6.1	win	2022-12-16	09:10:15	09:21:36	680005	631797089a0a1ee579573eb9	358894553	1	practice_z	9	practice_z	27	stimuli_distractor_diamondtriangles.svg	stimuli_target_trianglecircles.svg	9	yes	44	1	674
6.6.1	win	2022-12-16	09:10:15	09:21:36	680005	631797089a0a1ee579573eb9	358894553	1	practice_z	9	advance_on_keypress_ZEE	28	stimuli_distractor_diamondtriangles.svg	stimuli_target_trianglecircles.svg	9	yes	57	0	437
6.6.1	win	2022-12-16	09:10:15	09:21:38	682512	631797089a0a1ee579573eb9	358894553	1	practice_z	9	practice_z	29	stimuli_target_squarediamonds.svg	stimuli_distractor_trianglediamonds.svg	5	yes	44	1	431
6.6.1	win	2022-12-16	09:10:15	09:21:38	682512	631797089a0a1ee579573eb9	358894553	1	practice_z	9	advance_on_keypress_ZEE	30	stimuli_target_squarediamonds.svg	stimuli_distractor_trianglediamonds.svg	5	yes	57	0	432
6.6.1	win	2022-12-16	09:10:15	09:21:42	686582	631797089a0a1ee579573eb9	358894553	1	practice_z	9	practice_z	31	stimuli_distractor_trianglediamonds.svg	stimuli_distractor_diamondtriangles.svg	16	no	0	1	2000
6.6.1	win	2022-12-16	09:10:15	09:21:42	686582	631797089a0a1ee579573eb9	358894553	1	practice_z	9	advance_on_keypress_ZEE	32	stimuli_distractor_trianglediamonds.svg	stimuli_distractor_diamondtriangles.svg	16	no	57	0	319
6.6.1	win	2022-12-16	09:10:15	09:21:45	689526	631797089a0a1ee579573eb9	358894553	1	main_z	11	main_z	1	stimuli_target_circletriangles.svg	stimuli_distractor_trianglediamonds.svg	1	yes	44	1	478
6.6.1	win	2022-12-16	09:10:15	09:21:45	689526	631797089a0a1ee579573eb9	358894553	1	main_z	11	advance_on_keypress_ZEE	2	stimuli_target_circletriangles.svg	stimuli_distractor_trianglediamonds.svg	1	yes	57	0	92
6.6.1	win	2022-12-16	09:10:15	09:21:47	691615	631797089a0a1ee579573eb9	358894553	1	main_z	11	main_z	3	stimuli_target_diamondcircles.svg	stimuli_distractor_trianglediamonds.svg	19	yes	44	1	1367
6.6.1	win	2022-12-16	09:10:15	09:21:47	691615	631797089a0a1ee579573eb9	358894553	1	main_z	11	advance_on_keypress_ZEE	4	stimuli_target_diamondcircles.svg	stimuli_distractor_trianglediamonds.svg	19	yes	57	0	68
6.6.1	win	2022-12-16	09:10:15	09:21:50	694332	631797089a0a1ee579573eb9	358894553	1	main_z	11	main_z	5	stimuli_distractor_trianglediamonds.svg	stimuli_target_trianglecircles.svg	25	yes	0	0	2000
6.6.1	win	2022-12-16	09:10:15	09:21:50	694332	631797089a0a1ee579573eb9	358894553	1	main_z	11	advance_on_keypress_ZEE	6	stimuli_distractor_trianglediamonds.svg	stimuli_target_trianglecircles.svg	25	yes	57	0	102
6.6.1	win	2022-12-16	09:10:15	09:21:51	695510	631797089a0a1ee579573eb9	358894553	1	main_z	11	main_z	7	stimuli_distractor_trianglediamonds.svg	stimuli_target_circletriangles.svg	9	yes	44	1	428
6.6.1	win	2022-12-16	09:10:15	09:21:51	695510	631797089a0a1ee579573eb9	358894553	1	main_z	11	advance_on_keypress_ZEE	8	stimuli_distractor_trianglediamonds.svg	stimuli_target_circletriangles.svg	9	yes	57	0	93
6.6.1	win	2022-12-16	09:10:15	09:21:54	698232	631797089a0a1ee579573eb9	358894553	1	main_z	11	main_z	9	stimuli_distractor_diamondtriangles.svg	stimuli_target_trianglecircles.svg	29	yes	0	0	2000
6.6.1	win	2022-12-16	09:10:15	09:21:54	698232	631797089a0a1ee579573eb9	358894553	1	main_z	11	advance_on_keypress_ZEE	10	stimuli_distractor_diamondtriangles.svg	stimuli_target_trianglecircles.svg	29	yes	57	0	347
6.6.1	win	2022-12-16	09:10:15	09:21:55	699698	631797089a0a1ee579573eb9	358894553	1	main_z	11	main_z	11	stimuli_distractor_diamondtriangles.svg	stimuli_target_circletriangles.svg	13	yes	44	1	483
6.6.1	win	2022-12-16	09:10:15	09:21:55	699698	631797089a0a1ee579573eb9	358894553	1	main_z	11	advance_on_keypress_ZEE	12	stimuli_distractor_diamondtriangles.svg	stimuli_target_circletriangles.svg	13	yes	57	0	57
6.6.1	win	2022-12-16	09:10:15	09:21:58	702398	631797089a0a1ee579573eb9	358894553	1	main_z	11	main_z	13	stimuli_target_trianglecircles.svg	stimuli_distractor_diamondtriangles.svg	21	yes	0	0	2000
6.6.1	win	2022-12-16	09:10:15	09:21:58	702398	631797089a0a1ee579573eb9	358894553	1	main_z	11	advance_on_keypress_ZEE	14	stimuli_target_trianglecircles.svg	stimuli_distractor_diamondtriangles.svg	21	yes	57	0	272
6.6.1	win	2022-12-16	09:10:15	09:21:59	703728	631797089a0a1ee579573eb9	358894553	1	main_z	11	main_z	15	stimuli_target_circlediamonds.svg	stimuli_distractor_diamondtriangles.svg	6	yes	44	1	413
6.6.1	win	2022-12-16	09:10:15	09:21:59	703728	631797089a0a1ee579573eb9	358894553	1	main_z	11	advance_on_keypress_ZEE	16	stimuli_target_circlediamonds.svg	stimuli_distractor_diamondtriangles.svg	6	yes	57	0	76
6.6.1	win	2022-12-16	09:10:15	09:22:01	705013	631797089a0a1ee579573eb9	358894553	1	main_z	11	main_z	17	stimuli_target_squarediamonds.svg	stimuli_distractor_diamondtriangles.svg	8	yes	44	1	581
6.6.1	win	2022-12-16	09:10:15	09:22:01	705013	631797089a0a1ee579573eb9	358894553	1	main_z	11	advance_on_keypress_ZEE	18	stimuli_target_squarediamonds.svg	stimuli_distractor_diamondtriangles.svg	8	yes	57	0	132
6.6.1	win	2022-12-16	09:10:15	09:22:03	707782	631797089a0a1ee579573eb9	358894553	1	main_z	11	main_z	19	stimuli_distractor_diamondtriangles.svg	stimuli_target_trianglesquares.svg	30	yes	0	0	2000
6.6.1	win	2022-12-16	09:10:15	09:22:03	707782	631797089a0a1ee579573eb9	358894553	1	main_z	11	advance_on_keypress_ZEE	20	stimuli_distractor_diamondtriangles.svg	stimuli_target_trianglesquares.svg	30	yes	57	0	305
6.6.1	win	2022-12-16	09:10:15	09:22:06	710732	631797089a0a1ee579573eb9	358894553	1	main_z	11	main_z	21	stimuli_distractor_trianglediamonds.svg	stimuli_target_diamondcircles.svg	27	yes	0	0	2000
6.6.1	win	2022-12-16	09:10:15	09:22:06	710732	631797089a0a1ee579573eb9	358894553	1	main_z	11	advance_on_keypress_ZEE	22	stimuli_distractor_trianglediamonds.svg	stimuli_target_diamondcircles.svg	27	yes	57	0	289
6.6.1	win	2022-12-16	09:10:15	09:22:09	713665	631797089a0a1ee579573eb9	358894553	1	main_z	11	main_z	23	stimuli_distractor_trianglediamonds.svg	stimuli_target_trianglesquares.svg	26	yes	0	0	2000
6.6.1	win	2022-12-16	09:10:15	09:22:09	713665	631797089a0a1ee579573eb9	358894553	1	main_z	11	advance_on_keypress_ZEE	24	stimuli_distractor_trianglediamonds.svg	stimuli_target_trianglesquares.svg	26	yes	57	0	309
6.6.1	win	2022-12-16	09:10:15	09:22:11	715177	631797089a0a1ee579573eb9	358894553	1	main_z	11	main_z	25	stimuli_target_squaretriangles.svg	stimuli_distractor_trianglediamonds.svg	3	yes	44	1	562
6.6.1	win	2022-12-16	09:10:15	09:22:11	715177	631797089a0a1ee579573eb9	358894553	1	main_z	11	advance_on_keypress_ZEE	26	stimuli_target_squaretriangles.svg	stimuli_distractor_trianglediamonds.svg	3	yes	57	0	42
6.6.1	win	2022-12-16	09:10:15	09:22:13	717849	631797089a0a1ee579573eb9	358894553	1	main_z	11	main_z	27	stimuli_distractor_trianglediamonds.svg	stimuli_distractor_diamondtriangles.svg	35	no	0	1	2000
6.6.1	win	2022-12-16	09:10:15	09:22:13	717849	631797089a0a1ee579573eb9	358894553	1	main_z	11	advance_on_keypress_ZEE	28	stimuli_distractor_trianglediamonds.svg	stimuli_distractor_diamondtriangles.svg	35	no	57	0	1125
6.6.1	win	2022-12-16	09:10:15	09:22:17	721616	631797089a0a1ee579573eb9	358894553	1	main_z	11	main_z	29	stimuli_target_trianglesquares.svg	stimuli_distractor_trianglediamonds.svg	18	yes	0	0	2000
6.6.1	win	2022-12-16	09:10:15	09:22:17	721616	631797089a0a1ee579573eb9	358894553	1	main_z	11	advance_on_keypress_ZEE	30	stimuli_target_trianglesquares.svg	stimuli_distractor_trianglediamonds.svg	18	yes	57	0	288
6.6.1	win	2022-12-16	09:10:15	09:22:19	723020	631797089a0a1ee579573eb9	358894553	1	main_z	11	main_z	31	stimuli_distractor_trianglediamonds.svg	stimuli_target_squaretriangles.svg	11	yes	44	1	471
6.6.1	win	2022-12-16	09:10:15	09:22:19	723020	631797089a0a1ee579573eb9	358894553	1	main_z	11	advance_on_keypress_ZEE	32	stimuli_distractor_trianglediamonds.svg	stimuli_target_squaretriangles.svg	11	yes	57	0	73
6.6.1	win	2022-12-16	09:10:15	09:22:20	724344	631797089a0a1ee579573eb9	358894553	1	main_z	11	main_z	33	stimuli_distractor_diamondtriangles.svg	stimuli_target_squaretriangles.svg	15	yes	44	1	612
6.6.1	win	2022-12-16	09:10:15	09:22:20	724344	631797089a0a1ee579573eb9	358894553	1	main_z	11	advance_on_keypress_ZEE	34	stimuli_distractor_diamondtriangles.svg	stimuli_target_squaretriangles.svg	15	yes	57	0	78
6.6.1	win	2022-12-16	09:10:15	09:22:23	727049	631797089a0a1ee579573eb9	358894553	1	main_z	11	main_z	35	stimuli_distractor_trianglediamonds.svg	stimuli_target_diamondsquares.svg	28	yes	0	0	2000
6.6.1	win	2022-12-16	09:10:15	09:22:23	727049	631797089a0a1ee579573eb9	358894553	1	main_z	11	advance_on_keypress_ZEE	36	stimuli_distractor_trianglediamonds.svg	stimuli_target_diamondsquares.svg	28	yes	57	0	324
6.6.1	win	2022-12-16	09:10:15	09:22:26	730016	631797089a0a1ee579573eb9	358894553	1	main_z	11	main_z	37	stimuli_distractor_trianglediamonds.svg	stimuli_distractor_trianglediamonds.svg	33	no	0	1	2000
6.6.1	win	2022-12-16	09:10:15	09:22:26	730016	631797089a0a1ee579573eb9	358894553	1	main_z	11	advance_on_keypress_ZEE	38	stimuli_distractor_trianglediamonds.svg	stimuli_distractor_trianglediamonds.svg	33	no	57	0	471
6.6.1	win	2022-12-16	09:10:15	09:22:27	731686	631797089a0a1ee579573eb9	358894553	1	main_z	11	main_z	39	stimuli_target_squaretriangles.svg	stimuli_distractor_diamondtriangles.svg	7	yes	44	1	553
6.6.1	win	2022-12-16	09:10:15	09:22:27	731686	631797089a0a1ee579573eb9	358894553	1	main_z	11	advance_on_keypress_ZEE	40	stimuli_target_squaretriangles.svg	stimuli_distractor_diamondtriangles.svg	7	yes	57	0	79
6.6.1	win	2022-12-16	09:10:15	09:22:30	734399	631797089a0a1ee579573eb9	358894553	1	main_z	11	main_z	41	stimuli_distractor_diamondtriangles.svg	stimuli_target_diamondcircles.svg	31	yes	0	0	2000
6.6.1	win	2022-12-16	09:10:15	09:22:30	734399	631797089a0a1ee579573eb9	358894553	1	main_z	11	advance_on_keypress_ZEE	42	stimuli_distractor_diamondtriangles.svg	stimuli_target_diamondcircles.svg	31	yes	57	0	391
6.6.1	win	2022-12-16	09:10:15	09:22:33	737433	631797089a0a1ee579573eb9	358894553	1	main_z	11	main_z	43	stimuli_target_diamondsquares.svg	stimuli_distractor_diamondtriangles.svg	24	yes	0	0	2000
6.6.1	win	2022-12-16	09:10:15	09:22:33	737433	631797089a0a1ee579573eb9	358894553	1	main_z	11	advance_on_keypress_ZEE	44	stimuli_target_diamondsquares.svg	stimuli_distractor_diamondtriangles.svg	24	yes	57	0	471
6.6.1	win	2022-12-16	09:10:15	09:22:36	740549	631797089a0a1ee579573eb9	358894553	1	main_z	11	main_z	45	stimuli_distractor_trianglediamonds.svg	stimuli_distractor_diamondtriangles.svg	36	no	0	1	2000
6.6.1	win	2022-12-16	09:10:15	09:22:36	740549	631797089a0a1ee579573eb9	358894553	1	main_z	11	advance_on_keypress_ZEE	46	stimuli_distractor_trianglediamonds.svg	stimuli_distractor_diamondtriangles.svg	36	no	57	0	268
6.6.1	win	2022-12-16	09:10:15	09:22:39	743466	631797089a0a1ee579573eb9	358894553	1	main_z	11	main_z	47	stimuli_distractor_diamondtriangles.svg	stimuli_distractor_diamondtriangles.svg	40	no	0	1	2000
6.6.1	win	2022-12-16	09:10:15	09:22:39	743466	631797089a0a1ee579573eb9	358894553	1	main_z	11	advance_on_keypress_ZEE	48	stimuli_distractor_diamondtriangles.svg	stimuli_distractor_diamondtriangles.svg	40	no	57	0	421
6.6.1	win	2022-12-16	09:10:15	09:22:41	745033	631797089a0a1ee579573eb9	358894553	1	main_z	11	main_z	49	stimuli_target_circlediamonds.svg	stimuli_distractor_trianglediamonds.svg	2	yes	44	1	500
6.6.1	win	2022-12-16	09:10:15	09:22:41	745033	631797089a0a1ee579573eb9	358894553	1	main_z	11	advance_on_keypress_ZEE	50	stimuli_target_circlediamonds.svg	stimuli_distractor_trianglediamonds.svg	2	yes	57	0	64
6.6.1	win	2022-12-16	09:10:15	09:22:43	747733	631797089a0a1ee579573eb9	358894553	1	main_z	11	main_z	51	stimuli_distractor_diamondtriangles.svg	stimuli_distractor_trianglediamonds.svg	37	no	0	1	2000
6.6.1	win	2022-12-16	09:10:15	09:22:43	747733	631797089a0a1ee579573eb9	358894553	1	main_z	11	advance_on_keypress_ZEE	52	stimuli_distractor_diamondtriangles.svg	stimuli_distractor_trianglediamonds.svg	37	no	57	0	304
6.6.1	win	2022-12-16	09:10:15	09:22:45	749210	631797089a0a1ee579573eb9	358894553	1	main_z	11	main_z	53	stimuli_distractor_trianglediamonds.svg	stimuli_target_squarediamonds.svg	12	yes	44	1	527
6.6.1	win	2022-12-16	09:10:15	09:22:45	749210	631797089a0a1ee579573eb9	358894553	1	main_z	11	advance_on_keypress_ZEE	54	stimuli_distractor_trianglediamonds.svg	stimuli_target_squarediamonds.svg	12	yes	57	0	78
6.6.1	win	2022-12-16	09:10:15	09:22:46	750517	631797089a0a1ee579573eb9	358894553	1	main_z	11	main_z	55	stimuli_target_squarediamonds.svg	stimuli_distractor_trianglediamonds.svg	4	yes	44	1	601
6.6.1	win	2022-12-16	09:10:15	09:22:46	750517	631797089a0a1ee579573eb9	358894553	1	main_z	11	advance_on_keypress_ZEE	56	stimuli_target_squarediamonds.svg	stimuli_distractor_trianglediamonds.svg	4	yes	57	0	59
6.6.1	win	2022-12-16	09:10:15	09:22:49	753216	631797089a0a1ee579573eb9	358894553	1	main_z	11	main_z	57	stimuli_distractor_diamondtriangles.svg	stimuli_distractor_diamondtriangles.svg	39	no	0	1	2000
6.6.1	win	2022-12-16	09:10:15	09:22:49	753216	631797089a0a1ee579573eb9	358894553	1	main_z	11	advance_on_keypress_ZEE	58	stimuli_distractor_diamondtriangles.svg	stimuli_distractor_diamondtriangles.svg	39	no	57	0	444
6.6.1	win	2022-12-16	09:10:15	09:22:52	756300	631797089a0a1ee579573eb9	358894553	1	main_z	11	main_z	59	stimuli_distractor_diamondtriangles.svg	stimuli_target_diamondsquares.svg	32	yes	0	0	2000
6.6.1	win	2022-12-16	09:10:15	09:22:52	756300	631797089a0a1ee579573eb9	358894553	1	main_z	11	advance_on_keypress_ZEE	60	stimuli_distractor_diamondtriangles.svg	stimuli_target_diamondsquares.svg	32	yes	57	0	363
6.6.1	win	2022-12-16	09:10:15	09:22:55	759300	631797089a0a1ee579573eb9	358894553	1	main_z	11	main_z	61	stimuli_target_diamondcircles.svg	stimuli_distractor_diamondtriangles.svg	23	yes	0	0	2000
6.6.1	win	2022-12-16	09:10:15	09:22:55	759300	631797089a0a1ee579573eb9	358894553	1	main_z	11	advance_on_keypress_ZEE	62	stimuli_target_diamondcircles.svg	stimuli_distractor_diamondtriangles.svg	23	yes	57	0	389
6.6.1	win	2022-12-16	09:10:15	09:22:57	760976	631797089a0a1ee579573eb9	358894553	1	main_z	11	main_z	63	stimuli_distractor_diamondtriangles.svg	stimuli_target_circlediamonds.svg	14	yes	44	1	643
6.6.1	win	2022-12-16	09:10:15	09:22:57	760976	631797089a0a1ee579573eb9	358894553	1	main_z	11	advance_on_keypress_ZEE	64	stimuli_distractor_diamondtriangles.svg	stimuli_target_circlediamonds.svg	14	yes	57	0	55
6.6.1	win	2022-12-16	09:10:15	09:22:58	762270	631797089a0a1ee579573eb9	358894553	1	main_z	11	main_z	65	stimuli_distractor_diamondtriangles.svg	stimuli_target_squarediamonds.svg	16	yes	44	1	603
6.6.1	win	2022-12-16	09:10:15	09:22:58	762270	631797089a0a1ee579573eb9	358894553	1	main_z	11	advance_on_keypress_ZEE	66	stimuli_distractor_diamondtriangles.svg	stimuli_target_squarediamonds.svg	16	yes	57	0	58
6.6.1	win	2022-12-16	09:10:15	09:23:01	764967	631797089a0a1ee579573eb9	358894553	1	main_z	11	main_z	67	stimuli_target_trianglesquares.svg	stimuli_distractor_diamondtriangles.svg	22	yes	0	0	2000
6.6.1	win	2022-12-16	09:10:15	09:23:01	764967	631797089a0a1ee579573eb9	358894553	1	main_z	11	advance_on_keypress_ZEE	68	stimuli_target_trianglesquares.svg	stimuli_distractor_diamondtriangles.svg	22	yes	57	0	333
6.6.1	win	2022-12-16	09:10:15	09:23:02	766563	631797089a0a1ee579573eb9	358894553	1	main_z	11	main_z	69	stimuli_target_trianglecircles.svg	stimuli_distractor_trianglediamonds.svg	17	yes	44	1	613
6.6.1	win	2022-12-16	09:10:15	09:23:02	766563	631797089a0a1ee579573eb9	358894553	1	main_z	11	advance_on_keypress_ZEE	70	stimuli_target_trianglecircles.svg	stimuli_distractor_trianglediamonds.svg	17	yes	57	0	91
6.6.1	win	2022-12-16	09:10:15	09:23:04	768097	631797089a0a1ee579573eb9	358894553	1	main_z	11	main_z	71	stimuli_target_diamondsquares.svg	stimuli_distractor_trianglediamonds.svg	20	yes	44	1	813
6.6.1	win	2022-12-16	09:10:15	09:23:04	768097	631797089a0a1ee579573eb9	358894553	1	main_z	11	advance_on_keypress_ZEE	72	stimuli_target_diamondsquares.svg	stimuli_distractor_trianglediamonds.svg	20	yes	57	0	32
6.6.1	win	2022-12-16	09:10:15	09:23:05	769334	631797089a0a1ee579573eb9	358894553	1	main_z	11	main_z	73	stimuli_distractor_trianglediamonds.svg	stimuli_target_circlediamonds.svg	10	yes	44	1	584
6.6.1	win	2022-12-16	09:10:15	09:23:05	769334	631797089a0a1ee579573eb9	358894553	1	main_z	11	advance_on_keypress_ZEE	74	stimuli_distractor_trianglediamonds.svg	stimuli_target_circlediamonds.svg	10	yes	57	0	86
6.6.1	win	2022-12-16	09:10:15	09:23:08	772067	631797089a0a1ee579573eb9	358894553	1	main_z	11	main_z	75	stimuli_distractor_trianglediamonds.svg	stimuli_distractor_trianglediamonds.svg	34	no	0	1	2000
6.6.1	win	2022-12-16	09:10:15	09:23:08	772067	631797089a0a1ee579573eb9	358894553	1	main_z	11	advance_on_keypress_ZEE	76	stimuli_distractor_trianglediamonds.svg	stimuli_distractor_trianglediamonds.svg	34	no	57	0	414
6.6.1	win	2022-12-16	09:10:15	09:23:11	775117	631797089a0a1ee579573eb9	358894553	1	main_z	11	main_z	77	stimuli_distractor_diamondtriangles.svg	stimuli_distractor_trianglediamonds.svg	38	no	0	1	2000
6.6.1	win	2022-12-16	09:10:15	09:23:11	775117	631797089a0a1ee579573eb9	358894553	1	main_z	11	advance_on_keypress_ZEE	78	stimuli_distractor_diamondtriangles.svg	stimuli_distractor_trianglediamonds.svg	38	no	57	0	297
6.6.1	win	2022-12-16	09:10:15	09:23:12	776615	631797089a0a1ee579573eb9	358894553	1	main_z	11	main_z	79	stimuli_target_circletriangles.svg	stimuli_distractor_diamondtriangles.svg	5	yes	44	1	565
6.6.1	win	2022-12-16	09:10:15	09:23:12	776615	631797089a0a1ee579573eb9	358894553	1	main_z	11	advance_on_keypress_ZEE	80	stimuli_target_circletriangles.svg	stimuli_distractor_diamondtriangles.svg	5	yes	57	0	85
6.6.1	win	2022-12-16	09:10:15	09:23:13	777865	631797089a0a1ee579573eb9	358894553	1	main_z	11	main_z	81	stimuli_distractor_trianglediamonds.svg	stimuli_target_squarediamonds.svg	12	yes	44	1	531
6.6.1	win	2022-12-16	09:10:15	09:23:13	777865	631797089a0a1ee579573eb9	358894553	1	main_z	11	advance_on_keypress_ZEE	82	stimuli_distractor_trianglediamonds.svg	stimuli_target_squarediamonds.svg	12	yes	57	0	81
6.6.1	win	2022-12-16	09:10:15	09:23:15	779170	631797089a0a1ee579573eb9	358894553	1	main_z	11	main_z	83	stimuli_distractor_trianglediamonds.svg	stimuli_target_trianglecircles.svg	25	yes	44	1	603
6.6.1	win	2022-12-16	09:10:15	09:23:15	779170	631797089a0a1ee579573eb9	358894553	1	main_z	11	advance_on_keypress_ZEE	84	stimuli_distractor_trianglediamonds.svg	stimuli_target_trianglecircles.svg	25	yes	57	0	86
6.6.1	win	2022-12-16	09:10:15	09:23:16	780478	631797089a0a1ee579573eb9	358894553	1	main_z	11	main_z	85	stimuli_target_diamondsquares.svg	stimuli_distractor_trianglediamonds.svg	20	yes	44	1	577
6.6.1	win	2022-12-16	09:10:15	09:23:16	780478	631797089a0a1ee579573eb9	358894553	1	main_z	11	advance_on_keypress_ZEE	86	stimuli_target_diamondsquares.svg	stimuli_distractor_trianglediamonds.svg	20	yes	57	0	60
6.6.1	win	2022-12-16	09:10:15	09:23:19	783167	631797089a0a1ee579573eb9	358894553	1	main_z	11	main_z	87	stimuli_distractor_trianglediamonds.svg	stimuli_distractor_diamondtriangles.svg	36	no	0	1	2000
6.6.1	win	2022-12-16	09:10:15	09:23:19	783167	631797089a0a1ee579573eb9	358894553	1	main_z	11	advance_on_keypress_ZEE	88	stimuli_distractor_trianglediamonds.svg	stimuli_distractor_diamondtriangles.svg	36	no	57	0	536
6.6.1	win	2022-12-16	09:10:15	09:23:20	784922	631797089a0a1ee579573eb9	358894553	1	main_z	11	main_z	89	stimuli_distractor_diamondtriangles.svg	stimuli_target_trianglecircles.svg	29	yes	44	1	571
6.6.1	win	2022-12-16	09:10:15	09:23:20	784922	631797089a0a1ee579573eb9	358894553	1	main_z	11	advance_on_keypress_ZEE	90	stimuli_distractor_diamondtriangles.svg	stimuli_target_trianglecircles.svg	29	yes	57	0	74
6.6.1	win	2022-12-16	09:10:15	09:23:22	786175	631797089a0a1ee579573eb9	358894553	1	main_z	11	main_z	91	stimuli_target_squarediamonds.svg	stimuli_distractor_diamondtriangles.svg	8	yes	44	1	541
6.6.1	win	2022-12-16	09:10:15	09:23:22	786175	631797089a0a1ee579573eb9	358894553	1	main_z	11	advance_on_keypress_ZEE	92	stimuli_target_squarediamonds.svg	stimuli_distractor_diamondtriangles.svg	8	yes	57	0	49
6.6.1	win	2022-12-16	09:10:15	09:23:24	788868	631797089a0a1ee579573eb9	358894553	1	main_z	11	main_z	93	stimuli_distractor_diamondtriangles.svg	stimuli_distractor_diamondtriangles.svg	39	no	0	1	2000
6.6.1	win	2022-12-16	09:10:15	09:23:24	788868	631797089a0a1ee579573eb9	358894553	1	main_z	11	advance_on_keypress_ZEE	94	stimuli_distractor_diamondtriangles.svg	stimuli_distractor_diamondtriangles.svg	39	no	57	0	428
6.6.1	win	2022-12-16	09:10:15	09:23:27	791934	631797089a0a1ee579573eb9	358894553	1	main_z	11	main_z	95	stimuli_distractor_diamondtriangles.svg	stimuli_distractor_trianglediamonds.svg	37	no	0	1	2000
6.6.1	win	2022-12-16	09:10:15	09:23:27	791934	631797089a0a1ee579573eb9	358894553	1	main_z	11	advance_on_keypress_ZEE	96	stimuli_distractor_diamondtriangles.svg	stimuli_distractor_trianglediamonds.svg	37	no	57	0	259
6.6.1	win	2022-12-16	09:10:15	09:23:29	793443	631797089a0a1ee579573eb9	358894553	1	main_z	11	main_z	97	stimuli_distractor_trianglediamonds.svg	stimuli_distractor_trianglediamonds.svg	34	no	44	0	609
6.6.1	win	2022-12-16	09:10:15	09:23:29	793443	631797089a0a1ee579573eb9	358894553	1	main_z	11	advance_on_keypress_ZEE	98	stimuli_distractor_trianglediamonds.svg	stimuli_distractor_trianglediamonds.svg	34	no	57	0	62
6.6.1	win	2022-12-16	09:10:15	09:23:30	794669	631797089a0a1ee579573eb9	358894553	1	main_z	11	main_z	99	stimuli_target_squaretriangles.svg	stimuli_distractor_diamondtriangles.svg	7	yes	44	1	535
6.6.1	win	2022-12-16	09:10:15	09:23:30	794669	631797089a0a1ee579573eb9	358894553	1	main_z	11	advance_on_keypress_ZEE	100	stimuli_target_squaretriangles.svg	stimuli_distractor_diamondtriangles.svg	7	yes	57	0	76
6.6.1	win	2022-12-16	09:10:15	09:23:32	796116	631797089a0a1ee579573eb9	358894553	1	main_z	11	main_z	101	stimuli_distractor_diamondtriangles.svg	stimuli_target_diamondcircles.svg	31	yes	44	1	732
6.6.1	win	2022-12-16	09:10:15	09:23:32	796116	631797089a0a1ee579573eb9	358894553	1	main_z	11	advance_on_keypress_ZEE	102	stimuli_distractor_diamondtriangles.svg	stimuli_target_diamondcircles.svg	31	yes	57	0	64
6.6.1	win	2022-12-16	09:10:15	09:23:33	797379	631797089a0a1ee579573eb9	358894553	1	main_z	11	main_z	103	stimuli_target_diamondcircles.svg	stimuli_distractor_diamondtriangles.svg	23	yes	44	1	578
6.6.1	win	2022-12-16	09:10:15	09:23:33	797379	631797089a0a1ee579573eb9	358894553	1	main_z	11	advance_on_keypress_ZEE	104	stimuli_target_diamondcircles.svg	stimuli_distractor_diamondtriangles.svg	23	yes	57	0	63
6.6.1	win	2022-12-16	09:10:15	09:23:36	800068	631797089a0a1ee579573eb9	358894553	1	main_z	11	main_z	105	stimuli_distractor_diamondtriangles.svg	stimuli_target_squarediamonds.svg	16	yes	0	0	2000
6.6.1	win	2022-12-16	09:10:15	09:23:36	800068	631797089a0a1ee579573eb9	358894553	1	main_z	11	advance_on_keypress_ZEE	106	stimuli_distractor_diamondtriangles.svg	stimuli_target_squarediamonds.svg	16	yes	57	0	320
6.6.1	win	2022-12-16	09:10:15	09:23:39	803034	631797089a0a1ee579573eb9	358894553	1	main_z	11	main_z	107	stimuli_target_circletriangles.svg	stimuli_distractor_trianglediamonds.svg	1	yes	0	0	2000
6.6.1	win	2022-12-16	09:10:15	09:23:39	803034	631797089a0a1ee579573eb9	358894553	1	main_z	11	advance_on_keypress_ZEE	108	stimuli_target_circletriangles.svg	stimuli_distractor_trianglediamonds.svg	1	yes	57	0	328
6.6.1	win	2022-12-16	09:10:15	09:23:40	804719	631797089a0a1ee579573eb9	358894553	1	main_z	11	main_z	109	stimuli_distractor_diamondtriangles.svg	stimuli_target_circletriangles.svg	13	yes	44	1	718
6.6.1	win	2022-12-16	09:10:15	09:23:40	804719	631797089a0a1ee579573eb9	358894553	1	main_z	11	advance_on_keypress_ZEE	110	stimuli_distractor_diamondtriangles.svg	stimuli_target_circletriangles.svg	13	yes	57	0	1435
6.6.1	win	2022-12-16	09:10:15	09:23:43	807751	631797089a0a1ee579573eb9	358894553	1	main_z	11	main_z	111	stimuli_target_circlediamonds.svg	stimuli_distractor_diamondtriangles.svg	6	yes	44	1	950
6.6.1	win	2022-12-16	09:10:15	09:23:43	807751	631797089a0a1ee579573eb9	358894553	1	main_z	11	advance_on_keypress_ZEE	112	stimuli_target_circlediamonds.svg	stimuli_distractor_diamondtriangles.svg	6	yes	57	0	87
6.6.1	win	2022-12-16	09:10:15	09:23:46	810485	631797089a0a1ee579573eb9	358894553	1	main_z	11	main_z	113	stimuli_target_diamondsquares.svg	stimuli_distractor_diamondtriangles.svg	24	yes	0	0	2000
6.6.1	win	2022-12-16	09:10:15	09:23:46	810485	631797089a0a1ee579573eb9	358894553	1	main_z	11	advance_on_keypress_ZEE	114	stimuli_target_diamondsquares.svg	stimuli_distractor_diamondtriangles.svg	24	yes	57	0	402
6.6.1	win	2022-12-16	09:10:15	09:23:48	812320	631797089a0a1ee579573eb9	358894553	1	main_z	11	main_z	115	stimuli_target_trianglesquares.svg	stimuli_distractor_diamondtriangles.svg	22	yes	44	1	785
6.6.1	win	2022-12-16	09:10:15	09:23:48	812320	631797089a0a1ee579573eb9	358894553	1	main_z	11	advance_on_keypress_ZEE	116	stimuli_target_trianglesquares.svg	stimuli_distractor_diamondtriangles.svg	22	yes	57	0	18
6.6.1	win	2022-12-16	09:10:15	09:23:49	813705	631797089a0a1ee579573eb9	358894553	1	main_z	11	main_z	117	stimuli_distractor_trianglediamonds.svg	stimuli_target_circletriangles.svg	9	yes	44	1	720
6.6.1	win	2022-12-16	09:10:15	09:23:49	813705	631797089a0a1ee579573eb9	358894553	1	main_z	11	advance_on_keypress_ZEE	118	stimuli_distractor_trianglediamonds.svg	stimuli_target_circletriangles.svg	9	yes	57	0	48
6.6.1	win	2022-12-16	09:10:15	09:23:51	815072	631797089a0a1ee579573eb9	358894553	1	main_z	11	main_z	119	stimuli_target_trianglesquares.svg	stimuli_distractor_trianglediamonds.svg	18	yes	44	1	687
6.6.1	win	2022-12-16	09:10:15	09:23:51	815072	631797089a0a1ee579573eb9	358894553	1	main_z	11	advance_on_keypress_ZEE	120	stimuli_target_trianglesquares.svg	stimuli_distractor_trianglediamonds.svg	18	yes	57	0	70
6.6.1	win	2022-12-16	09:10:15	09:23:52	816467	631797089a0a1ee579573eb9	358894553	1	main_z	11	main_z	121	stimuli_target_trianglecircles.svg	stimuli_distractor_trianglediamonds.svg	17	yes	44	1	682
6.6.1	win	2022-12-16	09:10:15	09:23:52	816467	631797089a0a1ee579573eb9	358894553	1	main_z	11	advance_on_keypress_ZEE	122	stimuli_target_trianglecircles.svg	stimuli_distractor_trianglediamonds.svg	17	yes	57	0	59
6.6.1	win	2022-12-16	09:10:15	09:23:55	819168	631797089a0a1ee579573eb9	358894553	1	main_z	11	main_z	123	stimuli_distractor_trianglediamonds.svg	stimuli_target_trianglesquares.svg	26	yes	0	0	2000
6.6.1	win	2022-12-16	09:10:15	09:23:55	819168	631797089a0a1ee579573eb9	358894553	1	main_z	11	advance_on_keypress_ZEE	124	stimuli_distractor_trianglediamonds.svg	stimuli_target_trianglesquares.svg	26	yes	57	0	560
6.6.1	win	2022-12-16	09:10:15	09:23:58	822368	631797089a0a1ee579573eb9	358894553	1	main_z	11	main_z	125	stimuli_distractor_diamondtriangles.svg	stimuli_distractor_trianglediamonds.svg	38	no	0	1	2000
6.6.1	win	2022-12-16	09:10:15	09:23:58	822368	631797089a0a1ee579573eb9	358894553	1	main_z	11	advance_on_keypress_ZEE	126	stimuli_distractor_diamondtriangles.svg	stimuli_distractor_trianglediamonds.svg	38	no	57	0	452
6.6.1	win	2022-12-16	09:10:15	09:24:01	825468	631797089a0a1ee579573eb9	358894553	1	main_z	11	main_z	127	stimuli_distractor_trianglediamonds.svg	stimuli_distractor_trianglediamonds.svg	33	no	0	1	2000
6.6.1	win	2022-12-16	09:10:15	09:24:01	825468	631797089a0a1ee579573eb9	358894553	1	main_z	11	advance_on_keypress_ZEE	128	stimuli_distractor_trianglediamonds.svg	stimuli_distractor_trianglediamonds.svg	33	no	57	0	328
6.6.1	win	2022-12-16	09:10:15	09:24:03	827005	631797089a0a1ee579573eb9	358894553	1	main_z	11	main_z	129	stimuli_target_circlediamonds.svg	stimuli_distractor_trianglediamonds.svg	2	yes	44	1	570
6.6.1	win	2022-12-16	09:10:15	09:24:03	827005	631797089a0a1ee579573eb9	358894553	1	main_z	11	advance_on_keypress_ZEE	130	stimuli_target_circlediamonds.svg	stimuli_distractor_trianglediamonds.svg	2	yes	57	0	106
6.6.1	win	2022-12-16	09:10:15	09:24:05	829752	631797089a0a1ee579573eb9	358894553	1	main_z	11	main_z	131	stimuli_distractor_trianglediamonds.svg	stimuli_target_diamondcircles.svg	27	yes	0	0	2000
6.6.1	win	2022-12-16	09:10:15	09:24:05	829752	631797089a0a1ee579573eb9	358894553	1	main_z	11	advance_on_keypress_ZEE	132	stimuli_distractor_trianglediamonds.svg	stimuli_target_diamondcircles.svg	27	yes	57	0	375
6.6.1	win	2022-12-16	09:10:15	09:24:08	832769	631797089a0a1ee579573eb9	358894553	1	main_z	11	main_z	133	stimuli_target_diamondcircles.svg	stimuli_distractor_trianglediamonds.svg	19	yes	0	0	2000
6.6.1	win	2022-12-16	09:10:15	09:24:08	832769	631797089a0a1ee579573eb9	358894553	1	main_z	11	advance_on_keypress_ZEE	134	stimuli_target_diamondcircles.svg	stimuli_distractor_trianglediamonds.svg	19	yes	57	0	869
6.6.1	win	2022-12-16	09:10:15	09:24:12	836285	631797089a0a1ee579573eb9	358894553	1	main_z	11	main_z	135	stimuli_distractor_diamondtriangles.svg	stimuli_distractor_diamondtriangles.svg	40	no	0	1	2000
6.6.1	win	2022-12-16	09:10:15	09:24:12	836285	631797089a0a1ee579573eb9	358894553	1	main_z	11	advance_on_keypress_ZEE	136	stimuli_distractor_diamondtriangles.svg	stimuli_distractor_diamondtriangles.svg	40	no	57	0	332
6.6.1	win	2022-12-16	09:10:15	09:24:13	837830	631797089a0a1ee579573eb9	358894553	1	main_z	11	main_z	137	stimuli_target_squaretriangles.svg	stimuli_distractor_trianglediamonds.svg	3	yes	44	1	578
6.6.1	win	2022-12-16	09:10:15	09:24:13	837830	631797089a0a1ee579573eb9	358894553	1	main_z	11	advance_on_keypress_ZEE	138	stimuli_target_squaretriangles.svg	stimuli_distractor_trianglediamonds.svg	3	yes	57	0	77
6.6.1	win	2022-12-16	09:10:15	09:24:15	838992	631797089a0a1ee579573eb9	358894553	1	main_z	11	main_z	139	stimuli_target_squarediamonds.svg	stimuli_distractor_trianglediamonds.svg	4	yes	44	1	457
6.6.1	win	2022-12-16	09:10:15	09:24:15	838992	631797089a0a1ee579573eb9	358894553	1	main_z	11	advance_on_keypress_ZEE	140	stimuli_target_squarediamonds.svg	stimuli_distractor_trianglediamonds.svg	4	yes	57	0	91
6.6.1	win	2022-12-16	09:10:15	09:24:17	841719	631797089a0a1ee579573eb9	358894553	1	main_z	11	main_z	141	stimuli_distractor_diamondtriangles.svg	stimuli_target_trianglesquares.svg	30	yes	0	0	2000
6.6.1	win	2022-12-16	09:10:15	09:24:17	841719	631797089a0a1ee579573eb9	358894553	1	main_z	11	advance_on_keypress_ZEE	142	stimuli_distractor_diamondtriangles.svg	stimuli_target_trianglesquares.svg	30	yes	57	0	532
6.6.1	win	2022-12-16	09:10:15	09:24:20	844902	631797089a0a1ee579573eb9	358894553	1	main_z	11	main_z	143	stimuli_distractor_diamondtriangles.svg	stimuli_target_diamondsquares.svg	32	yes	0	0	2000
6.6.1	win	2022-12-16	09:10:15	09:24:20	844902	631797089a0a1ee579573eb9	358894553	1	main_z	11	advance_on_keypress_ZEE	144	stimuli_distractor_diamondtriangles.svg	stimuli_target_diamondsquares.svg	32	yes	57	0	304
6.6.1	win	2022-12-16	09:10:15	09:24:22	846450	631797089a0a1ee579573eb9	358894553	1	main_z	11	main_z	145	stimuli_distractor_diamondtriangles.svg	stimuli_target_circlediamonds.svg	14	yes	44	1	598
6.6.1	win	2022-12-16	09:10:15	09:24:22	846450	631797089a0a1ee579573eb9	358894553	1	main_z	11	advance_on_keypress_ZEE	146	stimuli_distractor_diamondtriangles.svg	stimuli_target_circlediamonds.svg	14	yes	57	0	93
6.6.1	win	2022-12-16	09:10:15	09:24:23	847825	631797089a0a1ee579573eb9	358894553	1	main_z	11	main_z	147	stimuli_distractor_trianglediamonds.svg	stimuli_target_squaretriangles.svg	11	yes	44	1	656
6.6.1	win	2022-12-16	09:10:15	09:24:23	847825	631797089a0a1ee579573eb9	358894553	1	main_z	11	advance_on_keypress_ZEE	148	stimuli_distractor_trianglediamonds.svg	stimuli_target_squaretriangles.svg	11	yes	57	0	59
6.6.1	win	2022-12-16	09:10:15	09:24:25	849012	631797089a0a1ee579573eb9	358894553	1	main_z	11	main_z	149	stimuli_distractor_diamondtriangles.svg	stimuli_target_squaretriangles.svg	15	yes	44	1	493
6.6.1	win	2022-12-16	09:10:15	09:24:25	849012	631797089a0a1ee579573eb9	358894553	1	main_z	11	advance_on_keypress_ZEE	150	stimuli_distractor_diamondtriangles.svg	stimuli_target_squaretriangles.svg	15	yes	57	0	98
6.6.1	win	2022-12-16	09:10:15	09:24:27	851736	631797089a0a1ee579573eb9	358894553	1	main_z	11	main_z	151	stimuli_distractor_trianglediamonds.svg	stimuli_target_diamondsquares.svg	28	yes	0	0	2000
6.6.1	win	2022-12-16	09:10:15	09:24:27	851736	631797089a0a1ee579573eb9	358894553	1	main_z	11	advance_on_keypress_ZEE	152	stimuli_distractor_trianglediamonds.svg	stimuli_target_diamondsquares.svg	28	yes	57	0	294
6.6.1	win	2022-12-16	09:10:15	09:24:29	853160	631797089a0a1ee579573eb9	358894553	1	main_z	11	main_z	153	stimuli_distractor_trianglediamonds.svg	stimuli_target_circlediamonds.svg	10	yes	44	1	491
6.6.1	win	2022-12-16	09:10:15	09:24:29	853160	631797089a0a1ee579573eb9	358894553	1	main_z	11	advance_on_keypress_ZEE	154	stimuli_distractor_trianglediamonds.svg	stimuli_target_circlediamonds.svg	10	yes	57	0	63
6.6.1	win	2022-12-16	09:10:15	09:24:30	854562	631797089a0a1ee579573eb9	358894553	1	main_z	11	main_z	155	stimuli_target_circletriangles.svg	stimuli_distractor_diamondtriangles.svg	5	yes	44	1	709
6.6.1	win	2022-12-16	09:10:15	09:24:30	854562	631797089a0a1ee579573eb9	358894553	1	main_z	11	advance_on_keypress_ZEE	156	stimuli_target_circletriangles.svg	stimuli_distractor_diamondtriangles.svg	5	yes	57	0	93
6.6.1	win	2022-12-16	09:10:15	09:24:33	857286	631797089a0a1ee579573eb9	358894553	1	main_z	11	main_z	157	stimuli_distractor_trianglediamonds.svg	stimuli_distractor_diamondtriangles.svg	35	no	0	1	2000
6.6.1	win	2022-12-16	09:10:15	09:24:33	857286	631797089a0a1ee579573eb9	358894553	1	main_z	11	advance_on_keypress_ZEE	158	stimuli_distractor_trianglediamonds.svg	stimuli_distractor_diamondtriangles.svg	35	no	57	0	462
6.6.1	win	2022-12-16	09:10:15	09:24:36	860386	631797089a0a1ee579573eb9	358894553	1	main_z	11	main_z	159	stimuli_target_trianglecircles.svg	stimuli_distractor_diamondtriangles.svg	21	yes	0	0	2000
6.6.1	win	2022-12-16	09:10:15	09:24:36	860386	631797089a0a1ee579573eb9	358894553	1	main_z	11	advance_on_keypress_ZEE	160	stimuli_target_trianglecircles.svg	stimuli_distractor_diamondtriangles.svg	21	yes	57	0	333