build	computer.platform	date	time	timestamp	time_elapsed_ms	subject	group	session	blockcode	blocknum	trialcode	trialnum	stimulus_left	stimulus_right	stim_index	target_present	response	correct	latency
6.6.1	and	2022-12-14	13:01:04	13:03:42	146223	5af238825847970001e34baf	37878368	1	practice_z	5	practice_z	1	stimuli_distractor_diamondtriangles.svg	stimuli_distractor_trianglediamonds.svg	14	no	44	0	1635
6.6.1	and	2022-12-14	13:01:04	13:03:42	146223	5af238825847970001e34baf	37878368	1	practice_z	5	advance_on_keypress_ZEE	2	stimuli_distractor_diamondtriangles.svg	stimuli_distractor_trianglediamonds.svg	14	no	57	0	1387
6.6.1	and	2022-12-14	13:01:04	13:03:46	150925	5af238825847970001e34baf	37878368	1	practice_z	5	practice_z	3	stimuli_target_squarediamonds.svg	stimuli_distractor_trianglediamonds.svg	5	yes	44	1	1664
6.6.1	and	2022-12-14	13:01:04	13:03:46	150925	5af238825847970001e34baf	37878368	1	practice_z	5	advance_on_keypress_ZEE	4	stimuli_target_squarediamonds.svg	stimuli_distractor_trianglediamonds.svg	5	yes	57	0	1139
6.6.1	and	2022-12-14	13:01:04	13:03:51	155193	5af238825847970001e34baf	37878368	1	practice_z	5	practice_z	5	stimuli_distractor_diamondtriangles.svg	stimuli_target_trianglecircles.svg	9	yes	44	1	1479
6.6.1	and	2022-12-14	13:01:04	13:03:51	155193	5af238825847970001e34baf	37878368	1	practice_z	5	advance_on_keypress_ZEE	6	stimuli_distractor_diamondtriangles.svg	stimuli_target_trianglecircles.svg	9	yes	57	0	730
6.6.1	and	2022-12-14	13:01:04	13:03:55	159563	5af238825847970001e34baf	37878368	1	practice_z	5	practice_z	7	stimuli_distractor_diamondtriangles.svg	stimuli_distractor_diamondtriangles.svg	13	no	0	1	2000
6.6.1	and	2022-12-14	13:01:04	13:03:55	159563	5af238825847970001e34baf	37878368	1	practice_z	5	advance_on_keypress_ZEE	8	stimuli_distractor_diamondtriangles.svg	stimuli_distractor_diamondtriangles.svg	13	no	57	0	902
6.6.1	and	2022-12-14	13:01:04	13:03:59	163380	5af238825847970001e34baf	37878368	1	practice_z	5	practice_z	9	stimuli_distractor_diamondtriangles.svg	stimuli_target_circletriangles.svg	7	yes	44	1	1283
6.6.1	and	2022-12-14	13:01:04	13:03:59	163380	5af238825847970001e34baf	37878368	1	practice_z	5	advance_on_keypress_ZEE	10	stimuli_distractor_diamondtriangles.svg	stimuli_target_circletriangles.svg	7	yes	57	0	953
6.6.1	and	2022-12-14	13:01:04	13:04:03	167791	5af238825847970001e34baf	37878368	1	practice_z	5	practice_z	11	stimuli_target_squarediamonds.svg	stimuli_distractor_diamondtriangles.svg	2	yes	44	1	1829
6.6.1	and	2022-12-14	13:01:04	13:04:03	167791	5af238825847970001e34baf	37878368	1	practice_z	5	advance_on_keypress_ZEE	12	stimuli_target_squarediamonds.svg	stimuli_distractor_diamondtriangles.svg	2	yes	57	0	767
6.6.1	and	2022-12-14	13:01:04	13:04:08	172197	5af238825847970001e34baf	37878368	1	practice_z	5	practice_z	13	stimuli_target_diamondsquares.svg	stimuli_distractor_trianglediamonds.svg	6	yes	0	0	2000
6.6.1	and	2022-12-14	13:01:04	13:04:08	172197	5af238825847970001e34baf	37878368	1	practice_z	5	advance_on_keypress_ZEE	14	stimuli_target_diamondsquares.svg	stimuli_distractor_trianglediamonds.svg	6	yes	57	0	643
6.6.1	and	2022-12-14	13:01:04	13:04:11	175714	5af238825847970001e34baf	37878368	1	practice_z	5	practice_z	15	stimuli_distractor_trianglediamonds.svg	stimuli_target_diamondcircles.svg	12	yes	44	1	1237
6.6.1	and	2022-12-14	13:01:04	13:04:11	175714	5af238825847970001e34baf	37878368	1	practice_z	5	advance_on_keypress_ZEE	16	stimuli_distractor_trianglediamonds.svg	stimuli_target_diamondcircles.svg	12	yes	57	0	460
6.6.1	and	2022-12-14	13:01:04	13:04:15	179238	5af238825847970001e34baf	37878368	1	practice_z	5	practice_z	17	stimuli_target_diamondsquares.svg	stimuli_distractor_diamondtriangles.svg	3	yes	44	1	1428
6.6.1	and	2022-12-14	13:01:04	13:04:15	179238	5af238825847970001e34baf	37878368	1	practice_z	5	advance_on_keypress_ZEE	18	stimuli_target_diamondsquares.svg	stimuli_distractor_diamondtriangles.svg	3	yes	57	0	1516
6.6.1	and	2022-12-14	13:01:04	13:04:20	184393	5af238825847970001e34baf	37878368	1	practice_z	5	practice_z	19	stimuli_distractor_trianglediamonds.svg	stimuli_distractor_trianglediamonds.svg	15	no	0	1	2000
6.6.1	and	2022-12-14	13:01:04	13:04:20	184393	5af238825847970001e34baf	37878368	1	practice_z	5	advance_on_keypress_ZEE	20	stimuli_distractor_trianglediamonds.svg	stimuli_distractor_trianglediamonds.svg	15	no	57	0	669
6.6.1	and	2022-12-14	13:01:04	13:04:23	187897	5af238825847970001e34baf	37878368	1	practice_z	5	practice_z	21	stimuli_target_circlediamonds.svg	stimuli_distractor_diamondtriangles.svg	1	yes	44	1	1186
6.6.1	and	2022-12-14	13:01:04	13:04:23	187897	5af238825847970001e34baf	37878368	1	practice_z	5	advance_on_keypress_ZEE	22	stimuli_target_circlediamonds.svg	stimuli_distractor_diamondtriangles.svg	1	yes	57	0	1305
6.6.1	and	2022-12-14	13:01:04	13:04:28	192827	5af238825847970001e34baf	37878368	1	practice_z	5	practice_z	23	stimuli_distractor_trianglediamonds.svg	stimuli_distractor_diamondtriangles.svg	16	no	0	1	2000
6.6.1	and	2022-12-14	13:01:04	13:04:28	192827	5af238825847970001e34baf	37878368	1	practice_z	5	advance_on_keypress_ZEE	24	stimuli_distractor_trianglediamonds.svg	stimuli_distractor_diamondtriangles.svg	16	no	57	0	648
6.6.1	and	2022-12-14	13:01:04	13:04:32	196499	5af238825847970001e34baf	37878368	1	practice_z	5	practice_z	25	stimuli_target_circlediamonds.svg	stimuli_distractor_trianglediamonds.svg	4	yes	44	1	1389
6.6.1	and	2022-12-14	13:01:04	13:04:32	196499	5af238825847970001e34baf	37878368	1	practice_z	5	advance_on_keypress_ZEE	26	stimuli_target_circlediamonds.svg	stimuli_distractor_trianglediamonds.svg	4	yes	57	0	830
6.6.1	and	2022-12-14	13:01:04	13:04:36	200332	5af238825847970001e34baf	37878368	1	practice_z	5	practice_z	27	stimuli_distractor_diamondtriangles.svg	stimuli_target_diamondcircles.svg	8	yes	44	1	1373
6.6.1	and	2022-12-14	13:01:04	13:04:36	200332	5af238825847970001e34baf	37878368	1	practice_z	5	advance_on_keypress_ZEE	28	stimuli_distractor_diamondtriangles.svg	stimuli_target_diamondcircles.svg	8	yes	57	0	425
6.6.1	and	2022-12-14	13:01:04	13:04:39	203512	5af238825847970001e34baf	37878368	1	practice_z	5	practice_z	29	stimuli_distractor_trianglediamonds.svg	stimuli_target_circlediamonds.svg	10	yes	44	1	1137
6.6.1	and	2022-12-14	13:01:04	13:04:39	203512	5af238825847970001e34baf	37878368	1	practice_z	5	advance_on_keypress_ZEE	30	stimuli_distractor_trianglediamonds.svg	stimuli_target_circlediamonds.svg	10	yes	57	0	652
6.6.1	and	2022-12-14	13:01:04	13:04:42	206852	5af238825847970001e34baf	37878368	1	practice_z	5	practice_z	31	stimuli_distractor_trianglediamonds.svg	stimuli_target_squarediamonds.svg	11	yes	44	1	1058
6.6.1	and	2022-12-14	13:01:04	13:04:42	206852	5af238825847970001e34baf	37878368	1	practice_z	5	advance_on_keypress_ZEE	32	stimuli_distractor_trianglediamonds.svg	stimuli_target_squarediamonds.svg	11	yes	57	0	431
6.6.1	and	2022-12-14	13:01:04	13:04:52	216230	5af238825847970001e34baf	37878368	1	main_z	7	main_z	1	stimuli_target_trianglesquares.svg	stimuli_distractor_diamondtriangles.svg	22	yes	44	1	586
6.6.1	and	2022-12-14	13:01:04	13:04:52	216230	5af238825847970001e34baf	37878368	1	main_z	7	advance_on_keypress_ZEE	2	stimuli_target_trianglesquares.svg	stimuli_distractor_diamondtriangles.svg	22	yes	57	0	1010
6.6.1	and	2022-12-14	13:01:04	13:04:54	218540	5af238825847970001e34baf	37878368	1	main_z	7	main_z	3	stimuli_distractor_trianglediamonds.svg	stimuli_target_trianglecircles.svg	25	yes	44	1	682
6.6.1	and	2022-12-14	13:01:04	13:04:54	218540	5af238825847970001e34baf	37878368	1	main_z	7	advance_on_keypress_ZEE	4	stimuli_distractor_trianglediamonds.svg	stimuli_target_trianglecircles.svg	25	yes	57	0	690
6.6.1	and	2022-12-14	13:01:04	13:04:57	221857	5af238825847970001e34baf	37878368	1	main_z	7	main_z	5	stimuli_distractor_diamondtriangles.svg	stimuli_distractor_trianglediamonds.svg	37	no	0	1	2000
6.6.1	and	2022-12-14	13:01:04	13:04:57	221857	5af238825847970001e34baf	37878368	1	main_z	7	advance_on_keypress_ZEE	6	stimuli_distractor_diamondtriangles.svg	stimuli_distractor_trianglediamonds.svg	37	no	57	0	500
6.6.1	and	2022-12-14	13:01:04	13:04:59	223989	5af238825847970001e34baf	37878368	1	main_z	7	main_z	7	stimuli_distractor_trianglediamonds.svg	stimuli_target_squaretriangles.svg	11	yes	44	1	983
6.6.1	and	2022-12-14	13:01:04	13:04:59	223989	5af238825847970001e34baf	37878368	1	main_z	7	advance_on_keypress_ZEE	8	stimuli_distractor_trianglediamonds.svg	stimuli_target_squaretriangles.svg	11	yes	57	0	821
6.6.1	and	2022-12-14	13:01:04	13:05:02	226516	5af238825847970001e34baf	37878368	1	main_z	7	main_z	9	stimuli_distractor_diamondtriangles.svg	stimuli_target_diamondsquares.svg	32	yes	44	1	1076
6.6.1	and	2022-12-14	13:01:04	13:05:02	226516	5af238825847970001e34baf	37878368	1	main_z	7	advance_on_keypress_ZEE	10	stimuli_distractor_diamondtriangles.svg	stimuli_target_diamondsquares.svg	32	yes	57	0	741
6.6.1	and	2022-12-14	13:01:04	13:05:04	228746	5af238825847970001e34baf	37878368	1	main_z	7	main_z	11	stimuli_distractor_diamondtriangles.svg	stimuli_target_circlediamonds.svg	14	yes	44	1	857
6.6.1	and	2022-12-14	13:01:04	13:05:04	228746	5af238825847970001e34baf	37878368	1	main_z	7	advance_on_keypress_ZEE	12	stimuli_distractor_diamondtriangles.svg	stimuli_target_circlediamonds.svg	14	yes	57	0	600
6.6.1	and	2022-12-14	13:01:04	13:05:06	230934	5af238825847970001e34baf	37878368	1	main_z	7	main_z	13	stimuli_target_trianglesquares.svg	stimuli_distractor_trianglediamonds.svg	18	yes	44	1	961
6.6.1	and	2022-12-14	13:01:04	13:05:06	230934	5af238825847970001e34baf	37878368	1	main_z	7	advance_on_keypress_ZEE	14	stimuli_target_trianglesquares.svg	stimuli_distractor_trianglediamonds.svg	18	yes	57	0	642
6.6.1	and	2022-12-14	13:01:04	13:05:10	234208	5af238825847970001e34baf	37878368	1	main_z	7	main_z	15	stimuli_distractor_trianglediamonds.svg	stimuli_distractor_trianglediamonds.svg	33	no	0	1	2000
6.6.1	and	2022-12-14	13:01:04	13:05:10	234208	5af238825847970001e34baf	37878368	1	main_z	7	advance_on_keypress_ZEE	16	stimuli_distractor_trianglediamonds.svg	stimuli_distractor_trianglediamonds.svg	33	no	57	0	484
6.6.1	and	2022-12-14	13:01:04	13:05:12	236239	5af238825847970001e34baf	37878368	1	main_z	7	main_z	17	stimuli_distractor_diamondtriangles.svg	stimuli_target_trianglesquares.svg	30	yes	44	1	915
6.6.1	and	2022-12-14	13:01:04	13:05:12	236239	5af238825847970001e34baf	37878368	1	main_z	7	advance_on_keypress_ZEE	18	stimuli_distractor_diamondtriangles.svg	stimuli_target_trianglesquares.svg	30	yes	57	0	662
6.6.1	and	2022-12-14	13:01:04	13:05:14	238460	5af238825847970001e34baf	37878368	1	main_z	7	main_z	19	stimuli_target_circletriangles.svg	stimuli_distractor_diamondtriangles.svg	5	yes	44	1	922
6.6.1	and	2022-12-14	13:01:04	13:05:14	238460	5af238825847970001e34baf	37878368	1	main_z	7	advance_on_keypress_ZEE	20	stimuli_target_circletriangles.svg	stimuli_distractor_diamondtriangles.svg	5	yes	57	0	752
6.6.1	and	2022-12-14	13:01:04	13:05:17	241839	5af238825847970001e34baf	37878368	1	main_z	7	main_z	21	stimuli_distractor_trianglediamonds.svg	stimuli_distractor_diamondtriangles.svg	36	no	0	1	2000
6.6.1	and	2022-12-14	13:01:04	13:05:17	241839	5af238825847970001e34baf	37878368	1	main_z	7	advance_on_keypress_ZEE	22	stimuli_distractor_trianglediamonds.svg	stimuli_distractor_diamondtriangles.svg	36	no	57	0	434
6.6.1	and	2022-12-14	13:01:04	13:05:20	244907	5af238825847970001e34baf	37878368	1	main_z	7	main_z	23	stimuli_distractor_diamondtriangles.svg	stimuli_distractor_diamondtriangles.svg	39	no	0	1	2000
6.6.1	and	2022-12-14	13:01:04	13:05:20	244907	5af238825847970001e34baf	37878368	1	main_z	7	advance_on_keypress_ZEE	24	stimuli_distractor_diamondtriangles.svg	stimuli_distractor_diamondtriangles.svg	39	no	57	0	331
6.6.1	and	2022-12-14	13:01:04	13:05:22	246851	5af238825847970001e34baf	37878368	1	main_z	7	main_z	25	stimuli_distractor_trianglediamonds.svg	stimuli_target_diamondcircles.svg	27	yes	44	1	980
6.6.1	and	2022-12-14	13:01:04	13:05:22	246851	5af238825847970001e34baf	37878368	1	main_z	7	advance_on_keypress_ZEE	26	stimuli_distractor_trianglediamonds.svg	stimuli_target_diamondcircles.svg	27	yes	57	0	618
6.6.1	and	2022-12-14	13:01:04	13:05:25	249275	5af238825847970001e34baf	37878368	1	main_z	7	main_z	27	stimuli_distractor_diamondtriangles.svg	stimuli_target_trianglecircles.svg	29	yes	44	1	1169
6.6.1	and	2022-12-14	13:01:04	13:05:25	249275	5af238825847970001e34baf	37878368	1	main_z	7	advance_on_keypress_ZEE	28	stimuli_distractor_diamondtriangles.svg	stimuli_target_trianglecircles.svg	29	yes	57	0	829
6.6.1	and	2022-12-14	13:01:04	13:05:28	252737	5af238825847970001e34baf	37878368	1	main_z	7	main_z	29	stimuli_distractor_trianglediamonds.svg	stimuli_distractor_trianglediamonds.svg	34	no	0	1	2000
6.6.1	and	2022-12-14	13:01:04	13:05:28	252737	5af238825847970001e34baf	37878368	1	main_z	7	advance_on_keypress_ZEE	30	stimuli_distractor_trianglediamonds.svg	stimuli_distractor_trianglediamonds.svg	34	no	57	0	361
6.6.1	and	2022-12-14	13:01:04	13:05:30	254637	5af238825847970001e34baf	37878368	1	main_z	7	main_z	31	stimuli_target_circlediamonds.svg	stimuli_distractor_diamondtriangles.svg	6	yes	44	1	899
6.6.1	and	2022-12-14	13:01:04	13:05:30	254637	5af238825847970001e34baf	37878368	1	main_z	7	advance_on_keypress_ZEE	32	stimuli_target_circlediamonds.svg	stimuli_distractor_diamondtriangles.svg	6	yes	57	0	972
6.6.1	and	2022-12-14	13:01:04	13:05:33	257341	5af238825847970001e34baf	37878368	1	main_z	7	main_z	33	stimuli_target_trianglecircles.svg	stimuli_distractor_diamondtriangles.svg	21	yes	44	1	1102
6.6.1	and	2022-12-14	13:01:04	13:05:33	257341	5af238825847970001e34baf	37878368	1	main_z	7	advance_on_keypress_ZEE	34	stimuli_target_trianglecircles.svg	stimuli_distractor_diamondtriangles.svg	21	yes	57	0	764
6.6.1	and	2022-12-14	13:01:04	13:05:35	259936	5af238825847970001e34baf	37878368	1	main_z	7	main_z	35	stimuli_target_squarediamonds.svg	stimuli_distractor_trianglediamonds.svg	4	yes	44	1	1199
6.6.1	and	2022-12-14	13:01:04	13:05:35	259936	5af238825847970001e34baf	37878368	1	main_z	7	advance_on_keypress_ZEE	36	stimuli_target_squarediamonds.svg	stimuli_distractor_trianglediamonds.svg	4	yes	57	0	693
6.6.1	and	2022-12-14	13:01:04	13:05:38	262316	5af238825847970001e34baf	37878368	1	main_z	7	main_z	37	stimuli_distractor_trianglediamonds.svg	stimuli_target_circlediamonds.svg	10	yes	44	1	1062
6.6.1	and	2022-12-14	13:01:04	13:05:38	262316	5af238825847970001e34baf	37878368	1	main_z	7	advance_on_keypress_ZEE	38	stimuli_distractor_trianglediamonds.svg	stimuli_target_circlediamonds.svg	10	yes	57	0	744
6.6.1	and	2022-12-14	13:01:04	13:05:40	264498	5af238825847970001e34baf	37878368	1	main_z	7	main_z	39	stimuli_distractor_diamondtriangles.svg	stimuli_target_squaretriangles.svg	15	yes	44	1	792
6.6.1	and	2022-12-14	13:01:04	13:05:40	264498	5af238825847970001e34baf	37878368	1	main_z	7	advance_on_keypress_ZEE	40	stimuli_distractor_diamondtriangles.svg	stimuli_target_squaretriangles.svg	15	yes	57	0	662
6.6.1	and	2022-12-14	13:01:04	13:05:43	267804	5af238825847970001e34baf	37878368	1	main_z	7	main_z	41	stimuli_target_diamondsquares.svg	stimuli_distractor_trianglediamonds.svg	20	yes	0	0	2000
6.6.1	and	2022-12-14	13:01:04	13:05:43	267804	5af238825847970001e34baf	37878368	1	main_z	7	advance_on_keypress_ZEE	42	stimuli_target_diamondsquares.svg	stimuli_distractor_trianglediamonds.svg	20	yes	57	0	314
6.6.1	and	2022-12-14	13:01:04	13:05:46	270754	5af238825847970001e34baf	37878368	1	main_z	7	main_z	43	stimuli_distractor_diamondtriangles.svg	stimuli_distractor_trianglediamonds.svg	38	no	0	1	2000
6.6.1	and	2022-12-14	13:01:04	13:05:46	270754	5af238825847970001e34baf	37878368	1	main_z	7	advance_on_keypress_ZEE	44	stimuli_distractor_diamondtriangles.svg	stimuli_distractor_trianglediamonds.svg	38	no	57	0	561
6.6.1	and	2022-12-14	13:01:04	13:05:48	273029	5af238825847970001e34baf	37878368	1	main_z	7	main_z	45	stimuli_distractor_trianglediamonds.svg	stimuli_target_diamondsquares.svg	28	yes	44	1	1075
6.6.1	and	2022-12-14	13:01:04	13:05:48	273029	5af238825847970001e34baf	37878368	1	main_z	7	advance_on_keypress_ZEE	46	stimuli_distractor_trianglediamonds.svg	stimuli_target_diamondsquares.svg	28	yes	57	0	721
6.6.1	and	2022-12-14	13:01:04	13:05:51	275652	5af238825847970001e34baf	37878368	1	main_z	7	main_z	47	stimuli_target_diamondsquares.svg	stimuli_distractor_diamondtriangles.svg	24	yes	44	1	1282
6.6.1	and	2022-12-14	13:01:04	13:05:51	275652	5af238825847970001e34baf	37878368	1	main_z	7	advance_on_keypress_ZEE	48	stimuli_target_diamondsquares.svg	stimuli_distractor_diamondtriangles.svg	24	yes	57	0	908
6.6.1	and	2022-12-14	13:01:04	13:05:55	279188	5af238825847970001e34baf	37878368	1	main_z	7	main_z	49	stimuli_distractor_diamondtriangles.svg	stimuli_distractor_diamondtriangles.svg	40	no	0	1	2000
6.6.1	and	2022-12-14	13:01:04	13:05:55	279188	5af238825847970001e34baf	37878368	1	main_z	7	advance_on_keypress_ZEE	50	stimuli_distractor_diamondtriangles.svg	stimuli_distractor_diamondtriangles.svg	40	no	57	0	662
6.6.1	and	2022-12-14	13:01:04	13:05:57	281548	5af238825847970001e34baf	37878368	1	main_z	7	main_z	51	stimuli_target_diamondcircles.svg	stimuli_distractor_trianglediamonds.svg	19	yes	44	1	1061
6.6.1	and	2022-12-14	13:01:04	13:05:57	281548	5af238825847970001e34baf	37878368	1	main_z	7	advance_on_keypress_ZEE	52	stimuli_target_diamondcircles.svg	stimuli_distractor_trianglediamonds.svg	19	yes	57	0	707
6.6.1	and	2022-12-14	13:01:04	13:05:59	283794	5af238825847970001e34baf	37878368	1	main_z	7	main_z	53	stimuli_distractor_diamondtriangles.svg	stimuli_target_circletriangles.svg	13	yes	44	1	908
6.6.1	and	2022-12-14	13:01:04	13:05:59	283794	5af238825847970001e34baf	37878368	1	main_z	7	advance_on_keypress_ZEE	54	stimuli_distractor_diamondtriangles.svg	stimuli_target_circletriangles.svg	13	yes	57	0	641
6.6.1	and	2022-12-14	13:01:04	13:06:02	287054	5af238825847970001e34baf	37878368	1	main_z	7	main_z	55	stimuli_distractor_trianglediamonds.svg	stimuli_distractor_diamondtriangles.svg	35	no	0	1	2000
6.6.1	and	2022-12-14	13:01:04	13:06:02	287054	5af238825847970001e34baf	37878368	1	main_z	7	advance_on_keypress_ZEE	56	stimuli_distractor_trianglediamonds.svg	stimuli_distractor_diamondtriangles.svg	35	no	57	0	588
6.6.1	and	2022-12-14	13:01:04	13:06:05	289258	5af238825847970001e34baf	37878368	1	main_z	7	main_z	57	stimuli_target_squarediamonds.svg	stimuli_distractor_diamondtriangles.svg	8	yes	44	1	988
6.6.1	and	2022-12-14	13:01:04	13:06:05	289258	5af238825847970001e34baf	37878368	1	main_z	7	advance_on_keypress_ZEE	58	stimuli_target_squarediamonds.svg	stimuli_distractor_diamondtriangles.svg	8	yes	57	0	1001
6.6.1	and	2022-12-14	13:01:04	13:06:07	292007	5af238825847970001e34baf	37878368	1	main_z	7	main_z	59	stimuli_distractor_diamondtriangles.svg	stimuli_target_squarediamonds.svg	16	yes	44	1	1121
6.6.1	and	2022-12-14	13:01:04	13:06:07	292007	5af238825847970001e34baf	37878368	1	main_z	7	advance_on_keypress_ZEE	60	stimuli_distractor_diamondtriangles.svg	stimuli_target_squarediamonds.svg	16	yes	57	0	1022
6.6.1	and	2022-12-14	13:01:04	13:06:10	294667	5af238825847970001e34baf	37878368	1	main_z	7	main_z	61	stimuli_target_squaretriangles.svg	stimuli_distractor_trianglediamonds.svg	3	yes	44	1	1015
6.6.1	and	2022-12-14	13:01:04	13:06:10	294667	5af238825847970001e34baf	37878368	1	main_z	7	advance_on_keypress_ZEE	62	stimuli_target_squaretriangles.svg	stimuli_distractor_trianglediamonds.svg	3	yes	57	0	925
6.6.1	and	2022-12-14	13:01:04	13:06:13	297235	5af238825847970001e34baf	37878368	1	main_z	7	main_z	63	stimuli_distractor_trianglediamonds.svg	stimuli_target_circletriangles.svg	9	yes	44	1	1016
6.6.1	and	2022-12-14	13:01:04	13:06:13	297235	5af238825847970001e34baf	37878368	1	main_z	7	advance_on_keypress_ZEE	64	stimuli_distractor_trianglediamonds.svg	stimuli_target_circletriangles.svg	9	yes	57	0	760
6.6.1	and	2022-12-14	13:01:04	13:06:15	299595	5af238825847970001e34baf	37878368	1	main_z	7	main_z	65	stimuli_target_circlediamonds.svg	stimuli_distractor_trianglediamonds.svg	2	yes	44	1	976
6.6.1	and	2022-12-14	13:01:04	13:06:15	299595	5af238825847970001e34baf	37878368	1	main_z	7	advance_on_keypress_ZEE	66	stimuli_target_circlediamonds.svg	stimuli_distractor_trianglediamonds.svg	2	yes	57	0	760
6.6.1	and	2022-12-14	13:01:04	13:06:17	301920	5af238825847970001e34baf	37878368	1	main_z	7	main_z	67	stimuli_target_trianglecircles.svg	stimuli_distractor_trianglediamonds.svg	17	yes	44	1	933
6.6.1	and	2022-12-14	13:01:04	13:06:17	301920	5af238825847970001e34baf	37878368	1	main_z	7	advance_on_keypress_ZEE	68	stimuli_target_trianglecircles.svg	stimuli_distractor_trianglediamonds.svg	17	yes	57	0	630
6.6.1	and	2022-12-14	13:01:04	13:06:20	304343	5af238825847970001e34baf	37878368	1	main_z	7	main_z	69	stimuli_distractor_trianglediamonds.svg	stimuli_target_trianglesquares.svg	26	yes	44	1	1156
6.6.1	and	2022-12-14	13:01:04	13:06:20	304343	5af238825847970001e34baf	37878368	1	main_z	7	advance_on_keypress_ZEE	70	stimuli_distractor_trianglediamonds.svg	stimuli_target_trianglesquares.svg	26	yes	57	0	590
6.6.1	and	2022-12-14	13:01:04	13:06:22	306768	5af238825847970001e34baf	37878368	1	main_z	7	main_z	71	stimuli_target_squaretriangles.svg	stimuli_distractor_diamondtriangles.svg	7	yes	44	1	1215
6.6.1	and	2022-12-14	13:01:04	13:06:22	306768	5af238825847970001e34baf	37878368	1	main_z	7	advance_on_keypress_ZEE	72	stimuli_target_squaretriangles.svg	stimuli_distractor_diamondtriangles.svg	7	yes	57	0	501
6.6.1	and	2022-12-14	13:01:04	13:06:24	308981	5af238825847970001e34baf	37878368	1	main_z	7	main_z	73	stimuli_distractor_trianglediamonds.svg	stimuli_target_squarediamonds.svg	12	yes	44	1	1080
6.6.1	and	2022-12-14	13:01:04	13:06:24	308981	5af238825847970001e34baf	37878368	1	main_z	7	advance_on_keypress_ZEE	74	stimuli_distractor_trianglediamonds.svg	stimuli_target_squarediamonds.svg	12	yes	57	0	474
6.6.1	and	2022-12-14	13:01:04	13:06:26	311023	5af238825847970001e34baf	37878368	1	main_z	7	main_z	75	stimuli_target_diamondcircles.svg	stimuli_distractor_diamondtriangles.svg	23	yes	44	1	938
6.6.1	and	2022-12-14	13:01:04	13:06:26	311023	5af238825847970001e34baf	37878368	1	main_z	7	advance_on_keypress_ZEE	76	stimuli_target_diamondcircles.svg	stimuli_distractor_diamondtriangles.svg	23	yes	57	0	668
6.6.1	and	2022-12-14	13:01:04	13:06:29	313325	5af238825847970001e34baf	37878368	1	main_z	7	main_z	77	stimuli_target_circletriangles.svg	stimuli_distractor_trianglediamonds.svg	1	yes	44	1	1004
6.6.1	and	2022-12-14	13:01:04	13:06:29	313325	5af238825847970001e34baf	37878368	1	main_z	7	advance_on_keypress_ZEE	78	stimuli_target_circletriangles.svg	stimuli_distractor_trianglediamonds.svg	1	yes	57	0	497
6.6.1	and	2022-12-14	13:01:04	13:06:31	315313	5af238825847970001e34baf	37878368	1	main_z	7	main_z	79	stimuli_distractor_diamondtriangles.svg	stimuli_target_diamondcircles.svg	31	yes	44	1	861
6.6.1	and	2022-12-14	13:01:04	13:06:31	315313	5af238825847970001e34baf	37878368	1	main_z	7	advance_on_keypress_ZEE	80	stimuli_distractor_diamondtriangles.svg	stimuli_target_diamondcircles.svg	31	yes	57	0	493
6.6.1	and	2022-12-14	13:01:04	13:06:33	317397	5af238825847970001e34baf	37878368	1	main_z	7	main_z	81	stimuli_target_circlediamonds.svg	stimuli_distractor_trianglediamonds.svg	2	yes	44	1	961
6.6.1	and	2022-12-14	13:01:04	13:06:33	317397	5af238825847970001e34baf	37878368	1	main_z	7	advance_on_keypress_ZEE	82	stimuli_target_circlediamonds.svg	stimuli_distractor_trianglediamonds.svg	2	yes	57	0	494
6.6.1	and	2022-12-14	13:01:04	13:06:35	319213	5af238825847970001e34baf	37878368	1	main_z	7	main_z	83	stimuli_target_diamondcircles.svg	stimuli_distractor_diamondtriangles.svg	23	yes	44	1	677
6.6.1	and	2022-12-14	13:01:04	13:06:35	319213	5af238825847970001e34baf	37878368	1	main_z	7	advance_on_keypress_ZEE	84	stimuli_target_diamondcircles.svg	stimuli_distractor_diamondtriangles.svg	23	yes	57	0	549
6.6.1	and	2022-12-14	13:01:04	13:06:38	322403	5af238825847970001e34baf	37878368	1	main_z	7	main_z	85	stimuli_distractor_diamondtriangles.svg	stimuli_distractor_trianglediamonds.svg	37	no	0	1	2000
6.6.1	and	2022-12-14	13:01:04	13:06:38	322403	5af238825847970001e34baf	37878368	1	main_z	7	advance_on_keypress_ZEE	86	stimuli_distractor_diamondtriangles.svg	stimuli_distractor_trianglediamonds.svg	37	no	57	0	339
6.6.1	and	2022-12-14	13:01:04	13:06:40	324237	5af238825847970001e34baf	37878368	1	main_z	7	main_z	87	stimuli_distractor_trianglediamonds.svg	stimuli_target_trianglesquares.svg	26	yes	44	1	869
6.6.1	and	2022-12-14	13:01:04	13:06:40	324237	5af238825847970001e34baf	37878368	1	main_z	7	advance_on_keypress_ZEE	88	stimuli_distractor_trianglediamonds.svg	stimuli_target_trianglesquares.svg	26	yes	57	0	528
6.6.1	and	2022-12-14	13:01:04	13:06:42	326095	5af238825847970001e34baf	37878368	1	main_z	7	main_z	89	stimuli_target_circlediamonds.svg	stimuli_distractor_diamondtriangles.svg	6	yes	44	1	692
6.6.1	and	2022-12-14	13:01:04	13:06:42	326095	5af238825847970001e34baf	37878368	1	main_z	7	advance_on_keypress_ZEE	90	stimuli_target_circlediamonds.svg	stimuli_distractor_diamondtriangles.svg	6	yes	57	0	490
6.6.1	and	2022-12-14	13:01:04	13:06:43	327857	5af238825847970001e34baf	37878368	1	main_z	7	main_z	91	stimuli_distractor_diamondtriangles.svg	stimuli_target_circlediamonds.svg	14	yes	44	1	640
6.6.1	and	2022-12-14	13:01:04	13:06:43	327857	5af238825847970001e34baf	37878368	1	main_z	7	advance_on_keypress_ZEE	92	stimuli_distractor_diamondtriangles.svg	stimuli_target_circlediamonds.svg	14	yes	57	0	617
6.6.1	and	2022-12-14	13:01:04	13:06:45	329552	5af238825847970001e34baf	37878368	1	main_z	7	main_z	93	stimuli_distractor_trianglediamonds.svg	stimuli_target_circlediamonds.svg	10	yes	44	1	450
6.6.1	and	2022-12-14	13:01:04	13:06:45	329552	5af238825847970001e34baf	37878368	1	main_z	7	advance_on_keypress_ZEE	94	stimuli_distractor_trianglediamonds.svg	stimuli_target_circlediamonds.svg	10	yes	57	0	560
6.6.1	and	2022-12-14	13:01:04	13:06:47	331200	5af238825847970001e34baf	37878368	1	main_z	7	main_z	95	stimuli_target_circletriangles.svg	stimuli_distractor_trianglediamonds.svg	1	yes	44	1	464
6.6.1	and	2022-12-14	13:01:04	13:06:47	331200	5af238825847970001e34baf	37878368	1	main_z	7	advance_on_keypress_ZEE	96	stimuli_target_circletriangles.svg	stimuli_distractor_trianglediamonds.svg	1	yes	57	0	515
6.6.1	and	2022-12-14	13:01:04	13:06:48	332875	5af238825847970001e34baf	37878368	1	main_z	7	main_z	97	stimuli_target_squaretriangles.svg	stimuli_distractor_diamondtriangles.svg	7	yes	44	1	526
6.6.1	and	2022-12-14	13:01:04	13:06:48	332875	5af238825847970001e34baf	37878368	1	main_z	7	advance_on_keypress_ZEE	98	stimuli_target_squaretriangles.svg	stimuli_distractor_diamondtriangles.svg	7	yes	57	0	538
6.6.1	and	2022-12-14	13:01:04	13:06:51	336052	5af238825847970001e34baf	37878368	1	main_z	7	main_z	99	stimuli_distractor_diamondtriangles.svg	stimuli_distractor_diamondtriangles.svg	39	no	0	1	2000
6.6.1	and	2022-12-14	13:01:04	13:06:51	336052	5af238825847970001e34baf	37878368	1	main_z	7	advance_on_keypress_ZEE	100	stimuli_distractor_diamondtriangles.svg	stimuli_distractor_diamondtriangles.svg	39	no	57	0	454
6.6.1	and	2022-12-14	13:01:04	13:06:55	339135	5af238825847970001e34baf	37878368	1	main_z	7	main_z	101	stimuli_distractor_trianglediamonds.svg	stimuli_distractor_trianglediamonds.svg	33	no	0	1	2000
6.6.1	and	2022-12-14	13:01:04	13:06:55	339135	5af238825847970001e34baf	37878368	1	main_z	7	advance_on_keypress_ZEE	102	stimuli_distractor_trianglediamonds.svg	stimuli_distractor_trianglediamonds.svg	33	no	57	0	308
6.6.1	and	2022-12-14	13:01:04	13:06:56	340671	5af238825847970001e34baf	37878368	1	main_z	7	main_z	103	stimuli_target_trianglecircles.svg	stimuli_distractor_diamondtriangles.svg	21	yes	44	1	603
6.6.1	and	2022-12-14	13:01:04	13:06:56	340671	5af238825847970001e34baf	37878368	1	main_z	7	advance_on_keypress_ZEE	104	stimuli_target_trianglecircles.svg	stimuli_distractor_diamondtriangles.svg	21	yes	57	0	429
6.6.1	and	2022-12-14	13:01:04	13:06:58	342237	5af238825847970001e34baf	37878368	1	main_z	7	main_z	105	stimuli_distractor_trianglediamonds.svg	stimuli_target_diamondcircles.svg	27	yes	44	1	503
6.6.1	and	2022-12-14	13:01:04	13:06:58	342237	5af238825847970001e34baf	37878368	1	main_z	7	advance_on_keypress_ZEE	106	stimuli_distractor_trianglediamonds.svg	stimuli_target_diamondcircles.svg	27	yes	57	0	482
6.6.1	and	2022-12-14	13:01:04	13:06:59	343882	5af238825847970001e34baf	37878368	1	main_z	7	main_z	107	stimuli_distractor_diamondtriangles.svg	stimuli_target_squarediamonds.svg	16	yes	44	1	516
6.6.1	and	2022-12-14	13:01:04	13:06:59	343882	5af238825847970001e34baf	37878368	1	main_z	7	advance_on_keypress_ZEE	108	stimuli_distractor_diamondtriangles.svg	stimuli_target_squarediamonds.svg	16	yes	57	0	461
6.6.1	and	2022-12-14	13:01:04	13:07:01	345528	5af238825847970001e34baf	37878368	1	main_z	7	main_z	109	stimuli_target_squarediamonds.svg	stimuli_distractor_trianglediamonds.svg	4	yes	44	1	544
6.6.1	and	2022-12-14	13:01:04	13:07:01	345528	5af238825847970001e34baf	37878368	1	main_z	7	advance_on_keypress_ZEE	110	stimuli_target_squarediamonds.svg	stimuli_distractor_trianglediamonds.svg	4	yes	57	0	449
6.6.1	and	2022-12-14	13:01:04	13:07:03	347138	5af238825847970001e34baf	37878368	1	main_z	7	main_z	111	stimuli_target_diamondsquares.svg	stimuli_distractor_diamondtriangles.svg	24	yes	44	1	521
6.6.1	and	2022-12-14	13:01:04	13:07:03	347138	5af238825847970001e34baf	37878368	1	main_z	7	advance_on_keypress_ZEE	112	stimuli_target_diamondsquares.svg	stimuli_distractor_diamondtriangles.svg	24	yes	57	0	466
6.6.1	and	2022-12-14	13:01:04	13:07:04	348710	5af238825847970001e34baf	37878368	1	main_z	7	main_z	113	stimuli_distractor_diamondtriangles.svg	stimuli_target_trianglecircles.svg	29	yes	44	1	477
6.6.1	and	2022-12-14	13:01:04	13:07:04	348710	5af238825847970001e34baf	37878368	1	main_z	7	advance_on_keypress_ZEE	114	stimuli_distractor_diamondtriangles.svg	stimuli_target_trianglecircles.svg	29	yes	57	0	423
6.6.1	and	2022-12-14	13:01:04	13:07:07	351768	5af238825847970001e34baf	37878368	1	main_z	7	main_z	115	stimuli_distractor_diamondtriangles.svg	stimuli_target_circletriangles.svg	13	yes	0	0	2000
6.6.1	and	2022-12-14	13:01:04	13:07:07	351768	5af238825847970001e34baf	37878368	1	main_z	7	advance_on_keypress_ZEE	116	stimuli_distractor_diamondtriangles.svg	stimuli_target_circletriangles.svg	13	yes	57	0	654
6.6.1	and	2022-12-14	13:01:04	13:07:09	353636	5af238825847970001e34baf	37878368	1	main_z	7	main_z	117	stimuli_distractor_trianglediamonds.svg	stimuli_target_trianglecircles.svg	25	yes	44	1	586
6.6.1	and	2022-12-14	13:01:04	13:07:09	353636	5af238825847970001e34baf	37878368	1	main_z	7	advance_on_keypress_ZEE	118	stimuli_distractor_trianglediamonds.svg	stimuli_target_trianglecircles.svg	25	yes	57	0	475
6.6.1	and	2022-12-14	13:01:04	13:07:11	355440	5af238825847970001e34baf	37878368	1	main_z	7	main_z	119	stimuli_target_trianglesquares.svg	stimuli_distractor_diamondtriangles.svg	22	yes	44	1	706
6.6.1	and	2022-12-14	13:01:04	13:07:11	355440	5af238825847970001e34baf	37878368	1	main_z	7	advance_on_keypress_ZEE	120	stimuli_target_trianglesquares.svg	stimuli_distractor_diamondtriangles.svg	22	yes	57	0	384
6.6.1	and	2022-12-14	13:01:04	13:07:14	358450	5af238825847970001e34baf	37878368	1	main_z	7	main_z	121	stimuli_distractor_diamondtriangles.svg	stimuli_distractor_trianglediamonds.svg	38	no	0	1	2000
6.6.1	and	2022-12-14	13:01:04	13:07:14	358450	5af238825847970001e34baf	37878368	1	main_z	7	advance_on_keypress_ZEE	122	stimuli_distractor_diamondtriangles.svg	stimuli_distractor_trianglediamonds.svg	38	no	57	0	580
6.6.1	and	2022-12-14	13:01:04	13:07:16	360226	5af238825847970001e34baf	37878368	1	main_z	7	main_z	123	stimuli_distractor_trianglediamonds.svg	stimuli_target_squaretriangles.svg	11	yes	44	1	561
6.6.1	and	2022-12-14	13:01:04	13:07:16	360226	5af238825847970001e34baf	37878368	1	main_z	7	advance_on_keypress_ZEE	124	stimuli_distractor_trianglediamonds.svg	stimuli_target_squaretriangles.svg	11	yes	57	0	900
6.6.1	and	2022-12-14	13:01:04	13:07:18	362257	5af238825847970001e34baf	37878368	1	main_z	7	main_z	125	stimuli_target_diamondcircles.svg	stimuli_distractor_trianglediamonds.svg	19	yes	44	1	507
6.6.1	and	2022-12-14	13:01:04	13:07:18	362257	5af238825847970001e34baf	37878368	1	main_z	7	advance_on_keypress_ZEE	126	stimuli_target_diamondcircles.svg	stimuli_distractor_trianglediamonds.svg	19	yes	57	0	338
6.6.1	and	2022-12-14	13:01:04	13:07:21	365236	5af238825847970001e34baf	37878368	1	main_z	7	main_z	127	stimuli_distractor_diamondtriangles.svg	stimuli_distractor_diamondtriangles.svg	40	no	0	1	2000
6.6.1	and	2022-12-14	13:01:04	13:07:21	365236	5af238825847970001e34baf	37878368	1	main_z	7	advance_on_keypress_ZEE	128	stimuli_distractor_diamondtriangles.svg	stimuli_distractor_diamondtriangles.svg	40	no	57	0	540
6.6.1	and	2022-12-14	13:01:04	13:07:23	367063	5af238825847970001e34baf	37878368	1	main_z	7	main_z	129	stimuli_distractor_diamondtriangles.svg	stimuli_target_diamondsquares.svg	32	yes	44	1	664
6.6.1	and	2022-12-14	13:01:04	13:07:23	367063	5af238825847970001e34baf	37878368	1	main_z	7	advance_on_keypress_ZEE	130	stimuli_distractor_diamondtriangles.svg	stimuli_target_diamondsquares.svg	32	yes	57	0	467
6.6.1	and	2022-12-14	13:01:04	13:07:26	370168	5af238825847970001e34baf	37878368	1	main_z	7	main_z	131	stimuli_distractor_trianglediamonds.svg	stimuli_distractor_trianglediamonds.svg	34	no	0	1	2000
6.6.1	and	2022-12-14	13:01:04	13:07:26	370168	5af238825847970001e34baf	37878368	1	main_z	7	advance_on_keypress_ZEE	132	stimuli_distractor_trianglediamonds.svg	stimuli_distractor_trianglediamonds.svg	34	no	57	0	587
6.6.1	and	2022-12-14	13:01:04	13:07:28	372123	5af238825847970001e34baf	37878368	1	main_z	7	main_z	133	stimuli_target_squarediamonds.svg	stimuli_distractor_diamondtriangles.svg	8	yes	44	1	739
6.6.1	and	2022-12-14	13:01:04	13:07:28	372123	5af238825847970001e34baf	37878368	1	main_z	7	advance_on_keypress_ZEE	134	stimuli_target_squarediamonds.svg	stimuli_distractor_diamondtriangles.svg	8	yes	57	0	464
6.6.1	and	2022-12-14	13:01:04	13:07:31	375217	5af238825847970001e34baf	37878368	1	main_z	7	main_z	135	stimuli_distractor_trianglediamonds.svg	stimuli_distractor_diamondtriangles.svg	35	no	0	1	2000
6.6.1	and	2022-12-14	13:01:04	13:07:31	375217	5af238825847970001e34baf	37878368	1	main_z	7	advance_on_keypress_ZEE	136	stimuli_distractor_trianglediamonds.svg	stimuli_distractor_diamondtriangles.svg	35	no	57	0	362
6.6.1	and	2022-12-14	13:01:04	13:07:32	376983	5af238825847970001e34baf	37878368	1	main_z	7	main_z	137	stimuli_distractor_diamondtriangles.svg	stimuli_target_trianglesquares.svg	30	yes	44	1	750
6.6.1	and	2022-12-14	13:01:04	13:07:32	376983	5af238825847970001e34baf	37878368	1	main_z	7	advance_on_keypress_ZEE	138	stimuli_distractor_diamondtriangles.svg	stimuli_target_trianglesquares.svg	30	yes	57	0	452
6.6.1	and	2022-12-14	13:01:04	13:07:34	378785	5af238825847970001e34baf	37878368	1	main_z	7	main_z	139	stimuli_distractor_trianglediamonds.svg	stimuli_target_squarediamonds.svg	12	yes	44	1	719
6.6.1	and	2022-12-14	13:01:04	13:07:34	378785	5af238825847970001e34baf	37878368	1	main_z	7	advance_on_keypress_ZEE	140	stimuli_distractor_trianglediamonds.svg	stimuli_target_squarediamonds.svg	12	yes	57	0	823
6.6.1	and	2022-12-14	13:01:04	13:07:36	380837	5af238825847970001e34baf	37878368	1	main_z	7	main_z	141	stimuli_distractor_diamondtriangles.svg	stimuli_target_diamondcircles.svg	31	yes	44	1	605
6.6.1	and	2022-12-14	13:01:04	13:07:36	380837	5af238825847970001e34baf	37878368	1	main_z	7	advance_on_keypress_ZEE	142	stimuli_distractor_diamondtriangles.svg	stimuli_target_diamondcircles.svg	31	yes	57	0	450
6.6.1	and	2022-12-14	13:01:04	13:07:38	382504	5af238825847970001e34baf	37878368	1	main_z	7	main_z	143	stimuli_target_trianglecircles.svg	stimuli_distractor_trianglediamonds.svg	17	yes	44	1	585
6.6.1	and	2022-12-14	13:01:04	13:07:38	382504	5af238825847970001e34baf	37878368	1	main_z	7	advance_on_keypress_ZEE	144	stimuli_target_trianglecircles.svg	stimuli_distractor_trianglediamonds.svg	17	yes	57	0	424
6.6.1	and	2022-12-14	13:01:04	13:07:39	384037	5af238825847970001e34baf	37878368	1	main_z	7	main_z	145	stimuli_target_trianglesquares.svg	stimuli_distractor_trianglediamonds.svg	18	yes	44	1	486
6.6.1	and	2022-12-14	13:01:04	13:07:39	384037	5af238825847970001e34baf	37878368	1	main_z	7	advance_on_keypress_ZEE	146	stimuli_target_trianglesquares.svg	stimuli_distractor_trianglediamonds.svg	18	yes	57	0	400
6.6.1	and	2022-12-14	13:01:04	13:07:42	386152	5af238825847970001e34baf	37878368	1	main_z	7	main_z	147	stimuli_distractor_diamondtriangles.svg	stimuli_target_squaretriangles.svg	15	yes	44	1	1086
6.6.1	and	2022-12-14	13:01:04	13:07:42	386152	5af238825847970001e34baf	37878368	1	main_z	7	advance_on_keypress_ZEE	148	stimuli_distractor_diamondtriangles.svg	stimuli_target_squaretriangles.svg	15	yes	57	0	438
6.6.1	and	2022-12-14	13:01:04	13:07:43	387759	5af238825847970001e34baf	37878368	1	main_z	7	main_z	149	stimuli_target_circletriangles.svg	stimuli_distractor_diamondtriangles.svg	5	yes	44	1	544
6.6.1	and	2022-12-14	13:01:04	13:07:43	387759	5af238825847970001e34baf	37878368	1	main_z	7	advance_on_keypress_ZEE	150	stimuli_target_circletriangles.svg	stimuli_distractor_diamondtriangles.svg	5	yes	57	0	377
6.6.1	and	2022-12-14	13:01:04	13:07:46	390782	5af238825847970001e34baf	37878368	1	main_z	7	main_z	151	stimuli_distractor_trianglediamonds.svg	stimuli_distractor_diamondtriangles.svg	36	no	0	1	2000
6.6.1	and	2022-12-14	13:01:04	13:07:46	390782	5af238825847970001e34baf	37878368	1	main_z	7	advance_on_keypress_ZEE	152	stimuli_distractor_trianglediamonds.svg	stimuli_distractor_diamondtriangles.svg	36	no	57	0	333
6.6.1	and	2022-12-14	13:01:04	13:07:48	392461	5af238825847970001e34baf	37878368	1	main_z	7	main_z	153	stimuli_target_diamondsquares.svg	stimuli_distractor_trianglediamonds.svg	20	yes	44	1	713
6.6.1	and	2022-12-14	13:01:04	13:07:48	392461	5af238825847970001e34baf	37878368	1	main_z	7	advance_on_keypress_ZEE	154	stimuli_target_diamondsquares.svg	stimuli_distractor_trianglediamonds.svg	20	yes	57	0	377
6.6.1	and	2022-12-14	13:01:04	13:07:49	393948	5af238825847970001e34baf	37878368	1	main_z	7	main_z	155	stimuli_target_squaretriangles.svg	stimuli_distractor_trianglediamonds.svg	3	yes	44	1	480
6.6.1	and	2022-12-14	13:01:04	13:07:49	393948	5af238825847970001e34baf	37878368	1	main_z	7	advance_on_keypress_ZEE	156	stimuli_target_squaretriangles.svg	stimuli_distractor_trianglediamonds.svg	3	yes	57	0	345
6.6.1	and	2022-12-14	13:01:04	13:07:51	395436	5af238825847970001e34baf	37878368	1	main_z	7	main_z	157	stimuli_distractor_trianglediamonds.svg	stimuli_target_circletriangles.svg	9	yes	44	1	502
6.6.1	and	2022-12-14	13:01:04	13:07:51	395436	5af238825847970001e34baf	37878368	1	main_z	7	advance_on_keypress_ZEE	158	stimuli_distractor_trianglediamonds.svg	stimuli_target_circletriangles.svg	9	yes	57	0	319
6.6.1	and	2022-12-14	13:01:04	13:07:53	397592	5af238825847970001e34baf	37878368	1	main_z	7	main_z	159	stimuli_distractor_trianglediamonds.svg	stimuli_target_diamondsquares.svg	28	yes	44	1	1192
6.6.1	and	2022-12-14	13:01:04	13:07:53	397592	5af238825847970001e34baf	37878368	1	main_z	7	advance_on_keypress_ZEE	160	stimuli_distractor_trianglediamonds.svg	stimuli_target_diamondsquares.svg	28	yes	57	0	362
6.6.1	and	2022-12-14	13:01:04	13:08:14	418339	5af238825847970001e34baf	37878368	1	practice_slash	9	practice_slash	1	stimuli_distractor_trianglediamonds.svg	stimuli_distractor_diamondtriangles.svg	16	no	0	1	2000
6.6.1	and	2022-12-14	13:01:04	13:08:14	418339	5af238825847970001e34baf	37878368	1	practice_slash	9	advance_on_keypress_SLASH	2	stimuli_distractor_trianglediamonds.svg	stimuli_distractor_diamondtriangles.svg	16	no	57	0	559
6.6.1	and	2022-12-14	13:01:04	13:08:18	422551	5af238825847970001e34baf	37878368	1	practice_slash	9	practice_slash	3	stimuli_distractor_trianglediamonds.svg	stimuli_distractor_trianglediamonds.svg	15	no	0	1	2000
6.6.1	and	2022-12-14	13:01:04	13:08:18	422551	5af238825847970001e34baf	37878368	1	practice_slash	9	advance_on_keypress_SLASH	4	stimuli_distractor_trianglediamonds.svg	stimuli_distractor_trianglediamonds.svg	15	no	57	0	547
6.6.1	and	2022-12-14	13:01:04	13:08:21	425335	5af238825847970001e34baf	37878368	1	practice_slash	9	practice_slash	5	stimuli_target_squarediamonds.svg	stimuli_distractor_trianglediamonds.svg	5	yes	53	1	601
6.6.1	and	2022-12-14	13:01:04	13:08:21	425335	5af238825847970001e34baf	37878368	1	practice_slash	9	advance_on_keypress_SLASH	6	stimuli_target_squarediamonds.svg	stimuli_distractor_trianglediamonds.svg	5	yes	57	0	391
6.6.1	and	2022-12-14	13:01:04	13:08:25	429366	5af238825847970001e34baf	37878368	1	practice_slash	9	practice_slash	7	stimuli_distractor_diamondtriangles.svg	stimuli_distractor_trianglediamonds.svg	14	no	0	1	2000
6.6.1	and	2022-12-14	13:01:04	13:08:25	429366	5af238825847970001e34baf	37878368	1	practice_slash	9	advance_on_keypress_SLASH	8	stimuli_distractor_diamondtriangles.svg	stimuli_distractor_trianglediamonds.svg	14	no	57	0	553
6.6.1	and	2022-12-14	13:01:04	13:08:28	432119	5af238825847970001e34baf	37878368	1	practice_slash	9	practice_slash	9	stimuli_target_circlediamonds.svg	stimuli_distractor_diamondtriangles.svg	1	yes	53	1	570
6.6.1	and	2022-12-14	13:01:04	13:08:28	432119	5af238825847970001e34baf	37878368	1	practice_slash	9	advance_on_keypress_SLASH	10	stimuli_target_circlediamonds.svg	stimuli_distractor_diamondtriangles.svg	1	yes	57	0	464
6.6.1	and	2022-12-14	13:01:04	13:08:30	434759	5af238825847970001e34baf	37878368	1	practice_slash	9	practice_slash	11	stimuli_distractor_trianglediamonds.svg	stimuli_target_circlediamonds.svg	10	yes	53	1	545
6.6.1	and	2022-12-14	13:01:04	13:08:30	434759	5af238825847970001e34baf	37878368	1	practice_slash	9	advance_on_keypress_SLASH	12	stimuli_distractor_trianglediamonds.svg	stimuli_target_circlediamonds.svg	10	yes	57	0	399
6.6.1	and	2022-12-14	13:01:04	13:08:33	437373	5af238825847970001e34baf	37878368	1	practice_slash	9	practice_slash	13	stimuli_distractor_diamondtriangles.svg	stimuli_target_circletriangles.svg	7	yes	53	1	576
6.6.1	and	2022-12-14	13:01:04	13:08:33	437373	5af238825847970001e34baf	37878368	1	practice_slash	9	advance_on_keypress_SLASH	14	stimuli_distractor_diamondtriangles.svg	stimuli_target_circletriangles.svg	7	yes	57	0	401
6.6.1	and	2022-12-14	13:01:04	13:08:36	440104	5af238825847970001e34baf	37878368	1	practice_slash	9	practice_slash	15	stimuli_target_squarediamonds.svg	stimuli_distractor_diamondtriangles.svg	2	yes	53	1	690
6.6.1	and	2022-12-14	13:01:04	13:08:36	440104	5af238825847970001e34baf	37878368	1	practice_slash	9	advance_on_keypress_SLASH	16	stimuli_target_squarediamonds.svg	stimuli_distractor_diamondtriangles.svg	2	yes	57	0	444
6.6.1	and	2022-12-14	13:01:04	13:08:38	442697	5af238825847970001e34baf	37878368	1	practice_slash	9	practice_slash	17	stimuli_target_circlediamonds.svg	stimuli_distractor_trianglediamonds.svg	4	yes	53	1	518
6.6.1	and	2022-12-14	13:01:04	13:08:38	442697	5af238825847970001e34baf	37878368	1	practice_slash	9	advance_on_keypress_SLASH	18	stimuli_target_circlediamonds.svg	stimuli_distractor_trianglediamonds.svg	4	yes	57	0	601
6.6.1	and	2022-12-14	13:01:04	13:08:42	446934	5af238825847970001e34baf	37878368	1	practice_slash	9	practice_slash	19	stimuli_distractor_diamondtriangles.svg	stimuli_distractor_diamondtriangles.svg	13	no	0	1	2000
6.6.1	and	2022-12-14	13:01:04	13:08:42	446934	5af238825847970001e34baf	37878368	1	practice_slash	9	advance_on_keypress_SLASH	20	stimuli_distractor_diamondtriangles.svg	stimuli_distractor_diamondtriangles.svg	13	no	57	0	282
6.6.1	and	2022-12-14	13:01:04	13:08:45	449421	5af238825847970001e34baf	37878368	1	practice_slash	9	practice_slash	21	stimuli_distractor_trianglediamonds.svg	stimuli_target_squarediamonds.svg	11	yes	53	1	573
6.6.1	and	2022-12-14	13:01:04	13:08:45	449421	5af238825847970001e34baf	37878368	1	practice_slash	9	advance_on_keypress_SLASH	22	stimuli_distractor_trianglediamonds.svg	stimuli_target_squarediamonds.svg	11	yes	57	0	408
6.6.1	and	2022-12-14	13:01:04	13:08:48	452172	5af238825847970001e34baf	37878368	1	practice_slash	9	practice_slash	23	stimuli_distractor_trianglediamonds.svg	stimuli_target_diamondcircles.svg	12	yes	53	1	725
6.6.1	and	2022-12-14	13:01:04	13:08:48	452172	5af238825847970001e34baf	37878368	1	practice_slash	9	advance_on_keypress_SLASH	24	stimuli_distractor_trianglediamonds.svg	stimuli_target_diamondcircles.svg	12	yes	57	0	377
6.6.1	and	2022-12-14	13:01:04	13:08:51	455381	5af238825847970001e34baf	37878368	1	practice_slash	9	practice_slash	25	stimuli_target_diamondsquares.svg	stimuli_distractor_diamondtriangles.svg	3	yes	53	1	1184
6.6.1	and	2022-12-14	13:01:04	13:08:51	455381	5af238825847970001e34baf	37878368	1	practice_slash	9	advance_on_keypress_SLASH	26	stimuli_target_diamondsquares.svg	stimuli_distractor_diamondtriangles.svg	3	yes	57	0	452
6.6.1	and	2022-12-14	13:01:04	13:08:54	458429	5af238825847970001e34baf	37878368	1	practice_slash	9	practice_slash	27	stimuli_target_diamondsquares.svg	stimuli_distractor_trianglediamonds.svg	6	yes	53	1	965
6.6.1	and	2022-12-14	13:01:04	13:08:54	458429	5af238825847970001e34baf	37878368	1	practice_slash	9	advance_on_keypress_SLASH	28	stimuli_target_diamondsquares.svg	stimuli_distractor_trianglediamonds.svg	6	yes	57	0	362
6.6.1	and	2022-12-14	13:01:04	13:08:57	461114	5af238825847970001e34baf	37878368	1	practice_slash	9	practice_slash	29	stimuli_distractor_diamondtriangles.svg	stimuli_target_trianglecircles.svg	9	yes	53	1	686
6.6.1	and	2022-12-14	13:01:04	13:08:57	461114	5af238825847970001e34baf	37878368	1	practice_slash	9	advance_on_keypress_SLASH	30	stimuli_distractor_diamondtriangles.svg	stimuli_target_trianglecircles.svg	9	yes	57	0	425
6.6.1	and	2022-12-14	13:01:04	13:09:01	465180	5af238825847970001e34baf	37878368	1	practice_slash	9	practice_slash	31	stimuli_distractor_diamondtriangles.svg	stimuli_target_diamondcircles.svg	8	yes	0	0	2000
6.6.1	and	2022-12-14	13:01:04	13:09:01	465180	5af238825847970001e34baf	37878368	1	practice_slash	9	advance_on_keypress_SLASH	32	stimuli_distractor_diamondtriangles.svg	stimuli_target_diamondcircles.svg	8	yes	57	0	384
6.6.1	and	2022-12-14	13:01:04	13:09:05	469642	5af238825847970001e34baf	37878368	1	main_slash	11	main_slash	1	stimuli_distractor_trianglediamonds.svg	stimuli_target_trianglecircles.svg	25	yes	53	1	470
6.6.1	and	2022-12-14	13:01:04	13:09:05	469642	5af238825847970001e34baf	37878368	1	main_slash	11	advance_on_keypress_SLASH	2	stimuli_distractor_trianglediamonds.svg	stimuli_target_trianglecircles.svg	25	yes	57	0	510
6.6.1	and	2022-12-14	13:01:04	13:09:08	472778	5af238825847970001e34baf	37878368	1	main_slash	11	main_slash	3	stimuli_distractor_trianglediamonds.svg	stimuli_distractor_trianglediamonds.svg	34	no	0	1	2000
6.6.1	and	2022-12-14	13:01:04	13:09:08	472778	5af238825847970001e34baf	37878368	1	main_slash	11	advance_on_keypress_SLASH	4	stimuli_distractor_trianglediamonds.svg	stimuli_distractor_trianglediamonds.svg	34	no	57	0	397
6.6.1	and	2022-12-14	13:01:04	13:09:10	474444	5af238825847970001e34baf	37878368	1	main_slash	11	main_slash	5	stimuli_target_squarediamonds.svg	stimuli_distractor_diamondtriangles.svg	8	yes	53	1	632
6.6.1	and	2022-12-14	13:01:04	13:09:10	474444	5af238825847970001e34baf	37878368	1	main_slash	11	advance_on_keypress_SLASH	6	stimuli_target_squarediamonds.svg	stimuli_distractor_diamondtriangles.svg	8	yes	57	0	588
6.6.1	and	2022-12-14	13:01:04	13:09:13	477662	5af238825847970001e34baf	37878368	1	main_slash	11	main_slash	7	stimuli_distractor_diamondtriangles.svg	stimuli_distractor_diamondtriangles.svg	39	no	0	1	2000
6.6.1	and	2022-12-14	13:01:04	13:09:13	477662	5af238825847970001e34baf	37878368	1	main_slash	11	advance_on_keypress_SLASH	8	stimuli_distractor_diamondtriangles.svg	stimuli_distractor_diamondtriangles.svg	39	no	57	0	419
6.6.1	and	2022-12-14	13:01:04	13:09:15	479364	5af238825847970001e34baf	37878368	1	main_slash	11	main_slash	9	stimuli_distractor_trianglediamonds.svg	stimuli_target_diamondcircles.svg	27	yes	53	1	653
6.6.1	and	2022-12-14	13:01:04	13:09:15	479364	5af238825847970001e34baf	37878368	1	main_slash	11	advance_on_keypress_SLASH	10	stimuli_distractor_trianglediamonds.svg	stimuli_target_diamondcircles.svg	27	yes	57	0	825
6.6.1	and	2022-12-14	13:01:04	13:09:17	481404	5af238825847970001e34baf	37878368	1	main_slash	11	main_slash	11	stimuli_target_circletriangles.svg	stimuli_distractor_trianglediamonds.svg	1	yes	53	1	594
6.6.1	and	2022-12-14	13:01:04	13:09:17	481404	5af238825847970001e34baf	37878368	1	main_slash	11	advance_on_keypress_SLASH	12	stimuli_target_circletriangles.svg	stimuli_distractor_trianglediamonds.svg	1	yes	57	0	392
6.6.1	and	2022-12-14	13:01:04	13:09:19	483177	5af238825847970001e34baf	37878368	1	main_slash	11	main_slash	13	stimuli_distractor_diamondtriangles.svg	stimuli_target_trianglecircles.svg	29	yes	53	1	748
6.6.1	and	2022-12-14	13:01:04	13:09:19	483177	5af238825847970001e34baf	37878368	1	main_slash	11	advance_on_keypress_SLASH	14	stimuli_distractor_diamondtriangles.svg	stimuli_target_trianglecircles.svg	29	yes	57	0	1182
6.6.1	and	2022-12-14	13:01:04	13:09:21	485671	5af238825847970001e34baf	37878368	1	main_slash	11	main_slash	15	stimuli_distractor_trianglediamonds.svg	stimuli_target_squaretriangles.svg	11	yes	53	1	678
6.6.1	and	2022-12-14	13:01:04	13:09:21	485671	5af238825847970001e34baf	37878368	1	main_slash	11	advance_on_keypress_SLASH	16	stimuli_distractor_trianglediamonds.svg	stimuli_target_squaretriangles.svg	11	yes	57	0	454
6.6.1	and	2022-12-14	13:01:04	13:09:23	487351	5af238825847970001e34baf	37878368	1	main_slash	11	main_slash	17	stimuli_distractor_diamondtriangles.svg	stimuli_target_circlediamonds.svg	14	yes	53	1	588
6.6.1	and	2022-12-14	13:01:04	13:09:23	487351	5af238825847970001e34baf	37878368	1	main_slash	11	advance_on_keypress_SLASH	18	stimuli_distractor_diamondtriangles.svg	stimuli_target_circlediamonds.svg	14	yes	57	0	457
6.6.1	and	2022-12-14	13:01:04	13:09:25	489149	5af238825847970001e34baf	37878368	1	main_slash	11	main_slash	19	stimuli_target_diamondsquares.svg	stimuli_distractor_trianglediamonds.svg	20	yes	53	1	721
6.6.1	and	2022-12-14	13:01:04	13:09:25	489149	5af238825847970001e34baf	37878368	1	main_slash	11	advance_on_keypress_SLASH	20	stimuli_target_diamondsquares.svg	stimuli_distractor_trianglediamonds.svg	20	yes	57	0	433
6.6.1	and	2022-12-14	13:01:04	13:09:26	490789	5af238825847970001e34baf	37878368	1	main_slash	11	main_slash	21	stimuli_target_circlediamonds.svg	stimuli_distractor_trianglediamonds.svg	2	yes	53	1	578
6.6.1	and	2022-12-14	13:01:04	13:09:26	490789	5af238825847970001e34baf	37878368	1	main_slash	11	advance_on_keypress_SLASH	22	stimuli_target_circlediamonds.svg	stimuli_distractor_trianglediamonds.svg	2	yes	57	0	423
6.6.1	and	2022-12-14	13:01:04	13:09:28	492345	5af238825847970001e34baf	37878368	1	main_slash	11	main_slash	23	stimuli_target_trianglesquares.svg	stimuli_distractor_trianglediamonds.svg	18	yes	53	1	501
6.6.1	and	2022-12-14	13:01:04	13:09:28	492345	5af238825847970001e34baf	37878368	1	main_slash	11	advance_on_keypress_SLASH	24	stimuli_target_trianglesquares.svg	stimuli_distractor_trianglediamonds.svg	18	yes	57	0	843
6.6.1	and	2022-12-14	13:01:04	13:09:30	494304	5af238825847970001e34baf	37878368	1	main_slash	11	main_slash	25	stimuli_distractor_trianglediamonds.svg	stimuli_target_squarediamonds.svg	12	yes	53	1	493
6.6.1	and	2022-12-14	13:01:04	13:09:30	494304	5af238825847970001e34baf	37878368	1	main_slash	11	advance_on_keypress_SLASH	26	stimuli_distractor_trianglediamonds.svg	stimuli_target_squarediamonds.svg	12	yes	57	0	621
6.6.1	and	2022-12-14	13:01:04	13:09:33	497561	5af238825847970001e34baf	37878368	1	main_slash	11	main_slash	27	stimuli_distractor_trianglediamonds.svg	stimuli_distractor_diamondtriangles.svg	36	no	0	1	2000
6.6.1	and	2022-12-14	13:01:04	13:09:33	497561	5af238825847970001e34baf	37878368	1	main_slash	11	advance_on_keypress_SLASH	28	stimuli_distractor_trianglediamonds.svg	stimuli_distractor_diamondtriangles.svg	36	no	57	0	420
6.6.1	and	2022-12-14	13:01:04	13:09:35	499243	5af238825847970001e34baf	37878368	1	main_slash	11	main_slash	29	stimuli_target_trianglesquares.svg	stimuli_distractor_diamondtriangles.svg	22	yes	53	1	633
6.6.1	and	2022-12-14	13:01:04	13:09:35	499243	5af238825847970001e34baf	37878368	1	main_slash	11	advance_on_keypress_SLASH	30	stimuli_target_trianglesquares.svg	stimuli_distractor_diamondtriangles.svg	22	yes	57	0	453
6.6.1	and	2022-12-14	13:01:04	13:09:38	502330	5af238825847970001e34baf	37878368	1	main_slash	11	main_slash	31	stimuli_distractor_diamondtriangles.svg	stimuli_distractor_diamondtriangles.svg	40	no	0	1	2000
6.6.1	and	2022-12-14	13:01:04	13:09:38	502330	5af238825847970001e34baf	37878368	1	main_slash	11	advance_on_keypress_SLASH	32	stimuli_distractor_diamondtriangles.svg	stimuli_distractor_diamondtriangles.svg	40	no	57	0	365
6.6.1	and	2022-12-14	13:01:04	13:09:41	505329	5af238825847970001e34baf	37878368	1	main_slash	11	main_slash	33	stimuli_distractor_trianglediamonds.svg	stimuli_distractor_diamondtriangles.svg	35	no	0	1	2000
6.6.1	and	2022-12-14	13:01:04	13:09:41	505329	5af238825847970001e34baf	37878368	1	main_slash	11	advance_on_keypress_SLASH	34	stimuli_distractor_trianglediamonds.svg	stimuli_distractor_diamondtriangles.svg	35	no	57	0	327
6.6.1	and	2022-12-14	13:01:04	13:09:42	506899	5af238825847970001e34baf	37878368	1	main_slash	11	main_slash	35	stimuli_target_circlediamonds.svg	stimuli_distractor_diamondtriangles.svg	6	yes	53	1	605
6.6.1	and	2022-12-14	13:01:04	13:09:42	506899	5af238825847970001e34baf	37878368	1	main_slash	11	advance_on_keypress_SLASH	36	stimuli_target_circlediamonds.svg	stimuli_distractor_diamondtriangles.svg	6	yes	57	0	902
6.6.1	and	2022-12-14	13:01:04	13:09:45	509494	5af238825847970001e34baf	37878368	1	main_slash	11	main_slash	37	stimuli_target_trianglecircles.svg	stimuli_distractor_trianglediamonds.svg	17	yes	53	1	1068
6.6.1	and	2022-12-14	13:01:04	13:09:45	509494	5af238825847970001e34baf	37878368	1	main_slash	11	advance_on_keypress_SLASH	38	stimuli_target_trianglecircles.svg	stimuli_distractor_trianglediamonds.svg	17	yes	57	0	714
6.6.1	and	2022-12-14	13:01:04	13:09:48	512198	5af238825847970001e34baf	37878368	1	main_slash	11	main_slash	39	stimuli_target_squaretriangles.svg	stimuli_distractor_diamondtriangles.svg	7	yes	53	1	1354
6.6.1	and	2022-12-14	13:01:04	13:09:48	512198	5af238825847970001e34baf	37878368	1	main_slash	11	advance_on_keypress_SLASH	40	stimuli_target_squaretriangles.svg	stimuli_distractor_diamondtriangles.svg	7	yes	57	0	3424
6.6.1	and	2022-12-14	13:01:04	13:09:52	516703	5af238825847970001e34baf	37878368	1	main_slash	11	main_slash	41	stimuli_target_trianglecircles.svg	stimuli_distractor_diamondtriangles.svg	21	yes	53	1	461
6.6.1	and	2022-12-14	13:01:04	13:09:52	516703	5af238825847970001e34baf	37878368	1	main_slash	11	advance_on_keypress_SLASH	42	stimuli_target_trianglecircles.svg	stimuli_distractor_diamondtriangles.svg	21	yes	57	0	538
6.6.1	and	2022-12-14	13:01:04	13:09:54	518600	5af238825847970001e34baf	37878368	1	main_slash	11	main_slash	43	stimuli_distractor_diamondtriangles.svg	stimuli_target_circletriangles.svg	13	yes	53	1	722
6.6.1	and	2022-12-14	13:01:04	13:09:54	518600	5af238825847970001e34baf	37878368	1	main_slash	11	advance_on_keypress_SLASH	44	stimuli_distractor_diamondtriangles.svg	stimuli_target_circletriangles.svg	13	yes	57	0	543
6.6.1	and	2022-12-14	13:01:04	13:09:56	520359	5af238825847970001e34baf	37878368	1	main_slash	11	main_slash	45	stimuli_distractor_diamondtriangles.svg	stimuli_target_diamondcircles.svg	31	yes	53	1	583
6.6.1	and	2022-12-14	13:01:04	13:09:56	520359	5af238825847970001e34baf	37878368	1	main_slash	11	advance_on_keypress_SLASH	46	stimuli_distractor_diamondtriangles.svg	stimuli_target_diamondcircles.svg	31	yes	57	0	419
6.6.1	and	2022-12-14	13:01:04	13:09:58	522145	5af238825847970001e34baf	37878368	1	main_slash	11	main_slash	47	stimuli_distractor_diamondtriangles.svg	stimuli_target_trianglesquares.svg	30	yes	53	1	734
6.6.1	and	2022-12-14	13:01:04	13:09:58	522145	5af238825847970001e34baf	37878368	1	main_slash	11	advance_on_keypress_SLASH	48	stimuli_distractor_diamondtriangles.svg	stimuli_target_trianglesquares.svg	30	yes	57	0	441
6.6.1	and	2022-12-14	13:01:04	13:09:59	523770	5af238825847970001e34baf	37878368	1	main_slash	11	main_slash	49	stimuli_distractor_diamondtriangles.svg	stimuli_target_squarediamonds.svg	16	yes	53	1	561
6.6.1	and	2022-12-14	13:01:04	13:09:59	523770	5af238825847970001e34baf	37878368	1	main_slash	11	advance_on_keypress_SLASH	50	stimuli_distractor_diamondtriangles.svg	stimuli_target_squarediamonds.svg	16	yes	57	0	489
6.6.1	and	2022-12-14	13:01:04	13:10:01	525488	5af238825847970001e34baf	37878368	1	main_slash	11	main_slash	51	stimuli_distractor_diamondtriangles.svg	stimuli_target_diamondsquares.svg	32	yes	53	1	596
6.6.1	and	2022-12-14	13:01:04	13:10:01	525488	5af238825847970001e34baf	37878368	1	main_slash	11	advance_on_keypress_SLASH	52	stimuli_distractor_diamondtriangles.svg	stimuli_target_diamondsquares.svg	32	yes	57	0	434
6.6.1	and	2022-12-14	13:01:04	13:10:03	527174	5af238825847970001e34baf	37878368	1	main_slash	11	main_slash	53	stimuli_distractor_trianglediamonds.svg	stimuli_target_circletriangles.svg	9	yes	53	1	613
6.6.1	and	2022-12-14	13:01:04	13:10:03	527174	5af238825847970001e34baf	37878368	1	main_slash	11	advance_on_keypress_SLASH	54	stimuli_distractor_trianglediamonds.svg	stimuli_target_circletriangles.svg	9	yes	57	0	365
6.6.1	and	2022-12-14	13:01:04	13:10:06	530176	5af238825847970001e34baf	37878368	1	main_slash	11	main_slash	55	stimuli_distractor_diamondtriangles.svg	stimuli_distractor_trianglediamonds.svg	38	no	0	1	2000
6.6.1	and	2022-12-14	13:01:04	13:10:06	530176	5af238825847970001e34baf	37878368	1	main_slash	11	advance_on_keypress_SLASH	56	stimuli_distractor_diamondtriangles.svg	stimuli_distractor_trianglediamonds.svg	38	no	57	0	648
6.6.1	and	2022-12-14	13:01:04	13:10:09	533459	5af238825847970001e34baf	37878368	1	main_slash	11	main_slash	57	stimuli_target_squarediamonds.svg	stimuli_distractor_trianglediamonds.svg	4	yes	0	0	2000
6.6.1	and	2022-12-14	13:01:04	13:10:09	533459	5af238825847970001e34baf	37878368	1	main_slash	11	advance_on_keypress_SLASH	58	stimuli_target_squarediamonds.svg	stimuli_distractor_trianglediamonds.svg	4	yes	57	0	1160
6.6.1	and	2022-12-14	13:01:04	13:10:12	536370	5af238825847970001e34baf	37878368	1	main_slash	11	main_slash	59	stimuli_target_diamondsquares.svg	stimuli_distractor_diamondtriangles.svg	24	yes	53	1	1111
6.6.1	and	2022-12-14	13:01:04	13:10:12	536370	5af238825847970001e34baf	37878368	1	main_slash	11	advance_on_keypress_SLASH	60	stimuli_target_diamondsquares.svg	stimuli_distractor_diamondtriangles.svg	24	yes	57	0	488
6.6.1	and	2022-12-14	13:01:04	13:10:14	538939	5af238825847970001e34baf	37878368	1	main_slash	11	main_slash	61	stimuli_target_squaretriangles.svg	stimuli_distractor_trianglediamonds.svg	3	yes	53	1	1448
6.6.1	and	2022-12-14	13:01:04	13:10:14	538939	5af238825847970001e34baf	37878368	1	main_slash	11	advance_on_keypress_SLASH	62	stimuli_target_squaretriangles.svg	stimuli_distractor_trianglediamonds.svg	3	yes	57	0	458
6.6.1	and	2022-12-14	13:01:04	13:10:18	542025	5af238825847970001e34baf	37878368	1	main_slash	11	main_slash	63	stimuli_distractor_trianglediamonds.svg	stimuli_target_diamondsquares.svg	28	yes	0	0	2000
6.6.1	and	2022-12-14	13:01:04	13:10:18	542025	5af238825847970001e34baf	37878368	1	main_slash	11	advance_on_keypress_SLASH	64	stimuli_distractor_trianglediamonds.svg	stimuli_target_diamondsquares.svg	28	yes	57	0	438
6.6.1	and	2022-12-14	13:01:04	13:10:19	543679	5af238825847970001e34baf	37878368	1	main_slash	11	main_slash	65	stimuli_distractor_trianglediamonds.svg	stimuli_target_trianglesquares.svg	26	yes	53	1	586
6.6.1	and	2022-12-14	13:01:04	13:10:19	543679	5af238825847970001e34baf	37878368	1	main_slash	11	advance_on_keypress_SLASH	66	stimuli_distractor_trianglediamonds.svg	stimuli_target_trianglesquares.svg	26	yes	57	0	411
6.6.1	and	2022-12-14	13:01:04	13:10:21	545378	5af238825847970001e34baf	37878368	1	main_slash	11	main_slash	67	stimuli_distractor_trianglediamonds.svg	stimuli_target_circlediamonds.svg	10	yes	53	1	652
6.6.1	and	2022-12-14	13:01:04	13:10:21	545378	5af238825847970001e34baf	37878368	1	main_slash	11	advance_on_keypress_SLASH	68	stimuli_distractor_trianglediamonds.svg	stimuli_target_circlediamonds.svg	10	yes	57	0	662
6.6.1	and	2022-12-14	13:01:04	13:10:23	547458	5af238825847970001e34baf	37878368	1	main_slash	11	main_slash	69	stimuli_distractor_diamondtriangles.svg	stimuli_target_squaretriangles.svg	15	yes	53	1	779
6.6.1	and	2022-12-14	13:01:04	13:10:23	547458	5af238825847970001e34baf	37878368	1	main_slash	11	advance_on_keypress_SLASH	70	stimuli_distractor_diamondtriangles.svg	stimuli_target_squaretriangles.svg	15	yes	57	0	342
6.6.1	and	2022-12-14	13:01:04	13:10:25	549586	5af238825847970001e34baf	37878368	1	main_slash	11	main_slash	71	stimuli_target_circletriangles.svg	stimuli_distractor_diamondtriangles.svg	5	yes	53	1	1146
6.6.1	and	2022-12-14	13:01:04	13:10:25	549586	5af238825847970001e34baf	37878368	1	main_slash	11	advance_on_keypress_SLASH	72	stimuli_target_circletriangles.svg	stimuli_distractor_diamondtriangles.svg	5	yes	57	0	564
6.6.1	and	2022-12-14	13:01:04	13:10:28	552793	5af238825847970001e34baf	37878368	1	main_slash	11	main_slash	73	stimuli_distractor_diamondtriangles.svg	stimuli_distractor_trianglediamonds.svg	37	no	0	1	2000
6.6.1	and	2022-12-14	13:01:04	13:10:28	552793	5af238825847970001e34baf	37878368	1	main_slash	11	advance_on_keypress_SLASH	74	stimuli_distractor_diamondtriangles.svg	stimuli_distractor_trianglediamonds.svg	37	no	57	0	406
6.6.1	and	2022-12-14	13:01:04	13:10:30	554357	5af238825847970001e34baf	37878368	1	main_slash	11	main_slash	75	stimuli_target_diamondcircles.svg	stimuli_distractor_trianglediamonds.svg	19	yes	53	1	534
6.6.1	and	2022-12-14	13:01:04	13:10:30	554357	5af238825847970001e34baf	37878368	1	main_slash	11	advance_on_keypress_SLASH	76	stimuli_target_diamondcircles.svg	stimuli_distractor_trianglediamonds.svg	19	yes	57	0	383
6.6.1	and	2022-12-14	13:01:04	13:10:31	555909	5af238825847970001e34baf	37878368	1	main_slash	11	main_slash	77	stimuli_target_diamondcircles.svg	stimuli_distractor_diamondtriangles.svg	23	yes	53	1	532
6.6.1	and	2022-12-14	13:01:04	13:10:31	555909	5af238825847970001e34baf	37878368	1	main_slash	11	advance_on_keypress_SLASH	78	stimuli_target_diamondcircles.svg	stimuli_distractor_diamondtriangles.svg	23	yes	57	0	402
6.6.1	and	2022-12-14	13:01:04	13:10:34	558942	5af238825847970001e34baf	37878368	1	main_slash	11	main_slash	79	stimuli_distractor_trianglediamonds.svg	stimuli_distractor_trianglediamonds.svg	33	no	0	1	2000
6.6.1	and	2022-12-14	13:01:04	13:10:34	558942	5af238825847970001e34baf	37878368	1	main_slash	11	advance_on_keypress_SLASH	80	stimuli_distractor_trianglediamonds.svg	stimuli_distractor_trianglediamonds.svg	33	no	57	0	456
6.6.1	and	2022-12-14	13:01:04	13:10:36	560623	5af238825847970001e34baf	37878368	1	main_slash	11	main_slash	81	stimuli_target_squarediamonds.svg	stimuli_distractor_trianglediamonds.svg	4	yes	53	1	599
6.6.1	and	2022-12-14	13:01:04	13:10:36	560623	5af238825847970001e34baf	37878368	1	main_slash	11	advance_on_keypress_SLASH	82	stimuli_target_squarediamonds.svg	stimuli_distractor_trianglediamonds.svg	4	yes	57	0	361
6.6.1	and	2022-12-14	13:01:04	13:10:38	562458	5af238825847970001e34baf	37878368	1	main_slash	11	main_slash	83	stimuli_target_trianglecircles.svg	stimuli_distractor_trianglediamonds.svg	17	yes	53	1	834
6.6.1	and	2022-12-14	13:01:04	13:10:38	562458	5af238825847970001e34baf	37878368	1	main_slash	11	advance_on_keypress_SLASH	84	stimuli_target_trianglecircles.svg	stimuli_distractor_trianglediamonds.svg	17	yes	57	0	324
6.6.1	and	2022-12-14	13:01:04	13:10:41	565426	5af238825847970001e34baf	37878368	1	main_slash	11	main_slash	85	stimuli_distractor_diamondtriangles.svg	stimuli_distractor_diamondtriangles.svg	39	no	0	1	2000
6.6.1	and	2022-12-14	13:01:04	13:10:41	565426	5af238825847970001e34baf	37878368	1	main_slash	11	advance_on_keypress_SLASH	86	stimuli_distractor_diamondtriangles.svg	stimuli_distractor_diamondtriangles.svg	39	no	57	0	535
6.6.1	and	2022-12-14	13:01:04	13:10:43	567257	5af238825847970001e34baf	37878368	1	main_slash	11	main_slash	87	stimuli_distractor_trianglediamonds.svg	stimuli_target_trianglesquares.svg	26	yes	53	1	667
6.6.1	and	2022-12-14	13:01:04	13:10:43	567257	5af238825847970001e34baf	37878368	1	main_slash	11	advance_on_keypress_SLASH	88	stimuli_distractor_trianglediamonds.svg	stimuli_target_trianglesquares.svg	26	yes	57	0	378
6.6.1	and	2022-12-14	13:01:04	13:10:46	570274	5af238825847970001e34baf	37878368	1	main_slash	11	main_slash	89	stimuli_distractor_trianglediamonds.svg	stimuli_distractor_diamondtriangles.svg	36	no	0	1	2000
6.6.1	and	2022-12-14	13:01:04	13:10:46	570274	5af238825847970001e34baf	37878368	1	main_slash	11	advance_on_keypress_SLASH	90	stimuli_distractor_trianglediamonds.svg	stimuli_distractor_diamondtriangles.svg	36	no	57	0	597
6.6.1	and	2022-12-14	13:01:04	13:10:48	572184	5af238825847970001e34baf	37878368	1	main_slash	11	main_slash	91	stimuli_target_squaretriangles.svg	stimuli_distractor_diamondtriangles.svg	7	yes	53	1	675
6.6.1	and	2022-12-14	13:01:04	13:10:48	572184	5af238825847970001e34baf	37878368	1	main_slash	11	advance_on_keypress_SLASH	92	stimuli_target_squaretriangles.svg	stimuli_distractor_diamondtriangles.svg	7	yes	57	0	424
6.6.1	and	2022-12-14	13:01:04	13:10:49	573774	5af238825847970001e34baf	37878368	1	main_slash	11	main_slash	93	stimuli_target_circlediamonds.svg	stimuli_distractor_trianglediamonds.svg	2	yes	53	1	534
6.6.1	and	2022-12-14	13:01:04	13:10:49	573774	5af238825847970001e34baf	37878368	1	main_slash	11	advance_on_keypress_SLASH	94	stimuli_target_circlediamonds.svg	stimuli_distractor_trianglediamonds.svg	2	yes	57	0	369
6.6.1	and	2022-12-14	13:01:04	13:10:51	575363	5af238825847970001e34baf	37878368	1	main_slash	11	main_slash	95	stimuli_distractor_diamondtriangles.svg	stimuli_target_diamondsquares.svg	32	yes	53	1	589
6.6.1	and	2022-12-14	13:01:04	13:10:51	575363	5af238825847970001e34baf	37878368	1	main_slash	11	advance_on_keypress_SLASH	96	stimuli_distractor_diamondtriangles.svg	stimuli_target_diamondsquares.svg	32	yes	57	0	351
6.6.1	and	2022-12-14	13:01:04	13:10:53	576945	5af238825847970001e34baf	37878368	1	main_slash	11	main_slash	97	stimuli_target_circletriangles.svg	stimuli_distractor_diamondtriangles.svg	5	yes	53	1	606
6.6.1	and	2022-12-14	13:01:04	13:10:53	576945	5af238825847970001e34baf	37878368	1	main_slash	11	advance_on_keypress_SLASH	98	stimuli_target_circletriangles.svg	stimuli_distractor_diamondtriangles.svg	5	yes	57	0	337
6.6.1	and	2022-12-14	13:01:04	13:10:54	578521	5af238825847970001e34baf	37878368	1	main_slash	11	main_slash	99	stimuli_distractor_trianglediamonds.svg	stimuli_target_diamondcircles.svg	27	yes	53	1	615
6.6.1	and	2022-12-14	13:01:04	13:10:54	578521	5af238825847970001e34baf	37878368	1	main_slash	11	advance_on_keypress_SLASH	100	stimuli_distractor_trianglediamonds.svg	stimuli_target_diamondcircles.svg	27	yes	57	0	288
6.6.1	and	2022-12-14	13:01:04	13:10:56	580108	5af238825847970001e34baf	37878368	1	main_slash	11	main_slash	101	stimuli_target_diamondsquares.svg	stimuli_distractor_trianglediamonds.svg	20	yes	53	1	666
6.6.1	and	2022-12-14	13:01:04	13:10:56	580108	5af238825847970001e34baf	37878368	1	main_slash	11	advance_on_keypress_SLASH	102	stimuli_target_diamondsquares.svg	stimuli_distractor_trianglediamonds.svg	20	yes	57	0	236
6.6.1	and	2022-12-14	13:01:04	13:10:57	581619	5af238825847970001e34baf	37878368	1	main_slash	11	main_slash	103	stimuli_target_squarediamonds.svg	stimuli_distractor_diamondtriangles.svg	8	yes	53	1	645
6.6.1	and	2022-12-14	13:01:04	13:10:57	581619	5af238825847970001e34baf	37878368	1	main_slash	11	advance_on_keypress_SLASH	104	stimuli_target_squarediamonds.svg	stimuli_distractor_diamondtriangles.svg	8	yes	57	0	215
6.6.1	and	2022-12-14	13:01:04	13:10:59	583050	5af238825847970001e34baf	37878368	1	main_slash	11	main_slash	105	stimuli_distractor_diamondtriangles.svg	stimuli_target_trianglecircles.svg	29	yes	53	1	575
6.6.1	and	2022-12-14	13:01:04	13:10:59	583050	5af238825847970001e34baf	37878368	1	main_slash	11	advance_on_keypress_SLASH	106	stimuli_distractor_diamondtriangles.svg	stimuli_target_trianglecircles.svg	29	yes	57	0	166
6.6.1	and	2022-12-14	13:01:04	13:11:00	584285	5af238825847970001e34baf	37878368	1	main_slash	11	main_slash	107	stimuli_target_diamondcircles.svg	stimuli_distractor_trianglediamonds.svg	19	yes	53	1	429
6.6.1	and	2022-12-14	13:01:04	13:11:00	584285	5af238825847970001e34baf	37878368	1	main_slash	11	advance_on_keypress_SLASH	108	stimuli_target_diamondcircles.svg	stimuli_distractor_trianglediamonds.svg	19	yes	57	0	294
6.6.1	and	2022-12-14	13:01:04	13:11:01	585656	5af238825847970001e34baf	37878368	1	main_slash	11	main_slash	109	stimuli_distractor_trianglediamonds.svg	stimuli_target_squarediamonds.svg	12	yes	53	1	451
6.6.1	and	2022-12-14	13:01:04	13:11:01	585656	5af238825847970001e34baf	37878368	1	main_slash	11	advance_on_keypress_SLASH	110	stimuli_distractor_trianglediamonds.svg	stimuli_target_squarediamonds.svg	12	yes	57	0	283
6.6.1	and	2022-12-14	13:01:04	13:11:03	586959	5af238825847970001e34baf	37878368	1	main_slash	11	main_slash	111	stimuli_distractor_trianglediamonds.svg	stimuli_distractor_trianglediamonds.svg	34	no	53	0	388
6.6.1	and	2022-12-14	13:01:04	13:11:03	586959	5af238825847970001e34baf	37878368	1	main_slash	11	advance_on_keypress_SLASH	112	stimuli_distractor_trianglediamonds.svg	stimuli_distractor_trianglediamonds.svg	34	no	57	0	1274
6.6.1	and	2022-12-14	13:01:04	13:11:06	590856	5af238825847970001e34baf	37878368	1	main_slash	11	main_slash	113	stimuli_distractor_diamondtriangles.svg	stimuli_distractor_trianglediamonds.svg	37	no	0	1	2000
6.6.1	and	2022-12-14	13:01:04	13:11:06	590856	5af238825847970001e34baf	37878368	1	main_slash	11	advance_on_keypress_SLASH	114	stimuli_distractor_diamondtriangles.svg	stimuli_distractor_trianglediamonds.svg	37	no	57	0	345
6.6.1	and	2022-12-14	13:01:04	13:11:08	592366	5af238825847970001e34baf	37878368	1	main_slash	11	main_slash	115	stimuli_target_squaretriangles.svg	stimuli_distractor_trianglediamonds.svg	3	yes	53	1	543
6.6.1	and	2022-12-14	13:01:04	13:11:08	592366	5af238825847970001e34baf	37878368	1	main_slash	11	advance_on_keypress_SLASH	116	stimuli_target_squaretriangles.svg	stimuli_distractor_trianglediamonds.svg	3	yes	57	0	330
6.6.1	and	2022-12-14	13:01:04	13:11:10	594023	5af238825847970001e34baf	37878368	1	main_slash	11	main_slash	117	stimuli_target_diamondsquares.svg	stimuli_distractor_diamondtriangles.svg	24	yes	53	1	684
6.6.1	and	2022-12-14	13:01:04	13:11:10	594023	5af238825847970001e34baf	37878368	1	main_slash	11	advance_on_keypress_SLASH	118	stimuli_target_diamondsquares.svg	stimuli_distractor_diamondtriangles.svg	24	yes	57	0	327
6.6.1	and	2022-12-14	13:01:04	13:11:11	595775	5af238825847970001e34baf	37878368	1	main_slash	11	main_slash	119	stimuli_target_trianglesquares.svg	stimuli_distractor_diamondtriangles.svg	22	yes	53	1	786
6.6.1	and	2022-12-14	13:01:04	13:11:11	595775	5af238825847970001e34baf	37878368	1	main_slash	11	advance_on_keypress_SLASH	120	stimuli_target_trianglesquares.svg	stimuli_distractor_diamondtriangles.svg	22	yes	57	0	353
6.6.1	and	2022-12-14	13:01:04	13:11:13	597266	5af238825847970001e34baf	37878368	1	main_slash	11	main_slash	121	stimuli_target_circlediamonds.svg	stimuli_distractor_diamondtriangles.svg	6	yes	53	1	511
6.6.1	and	2022-12-14	13:01:04	13:11:13	597266	5af238825847970001e34baf	37878368	1	main_slash	11	advance_on_keypress_SLASH	122	stimuli_target_circlediamonds.svg	stimuli_distractor_diamondtriangles.svg	6	yes	57	0	329
6.6.1	and	2022-12-14	13:01:04	13:11:15	598944	5af238825847970001e34baf	37878368	1	main_slash	11	main_slash	123	stimuli_distractor_diamondtriangles.svg	stimuli_target_squaretriangles.svg	15	yes	53	1	704
6.6.1	and	2022-12-14	13:01:04	13:11:15	598944	5af238825847970001e34baf	37878368	1	main_slash	11	advance_on_keypress_SLASH	124	stimuli_distractor_diamondtriangles.svg	stimuli_target_squaretriangles.svg	15	yes	57	0	307
6.6.1	and	2022-12-14	13:01:04	13:11:16	600536	5af238825847970001e34baf	37878368	1	main_slash	11	main_slash	125	stimuli_distractor_trianglediamonds.svg	stimuli_target_diamondsquares.svg	28	yes	53	1	664
6.6.1	and	2022-12-14	13:01:04	13:11:16	600536	5af238825847970001e34baf	37878368	1	main_slash	11	advance_on_keypress_SLASH	126	stimuli_distractor_trianglediamonds.svg	stimuli_target_diamondsquares.svg	28	yes	57	0	364
6.6.1	and	2022-12-14	13:01:04	13:11:18	602245	5af238825847970001e34baf	37878368	1	main_slash	11	main_slash	127	stimuli_distractor_trianglediamonds.svg	stimuli_target_trianglecircles.svg	25	yes	53	1	707
6.6.1	and	2022-12-14	13:01:04	13:11:18	602245	5af238825847970001e34baf	37878368	1	main_slash	11	advance_on_keypress_SLASH	128	stimuli_distractor_trianglediamonds.svg	stimuli_target_trianglecircles.svg	25	yes	57	0	330
6.6.1	and	2022-12-14	13:01:04	13:11:19	603872	5af238825847970001e34baf	37878368	1	main_slash	11	main_slash	129	stimuli_distractor_diamondtriangles.svg	stimuli_target_trianglesquares.svg	30	yes	53	1	666
6.6.1	and	2022-12-14	13:01:04	13:11:19	603872	5af238825847970001e34baf	37878368	1	main_slash	11	advance_on_keypress_SLASH	130	stimuli_distractor_diamondtriangles.svg	stimuli_target_trianglesquares.svg	30	yes	57	0	296
6.6.1	and	2022-12-14	13:01:04	13:11:22	606806	5af238825847970001e34baf	37878368	1	main_slash	11	main_slash	131	stimuli_distractor_trianglediamonds.svg	stimuli_distractor_trianglediamonds.svg	33	no	0	1	2000
6.6.1	and	2022-12-14	13:01:04	13:11:22	606806	5af238825847970001e34baf	37878368	1	main_slash	11	advance_on_keypress_SLASH	132	stimuli_distractor_trianglediamonds.svg	stimuli_distractor_trianglediamonds.svg	33	no	57	0	226
6.6.1	and	2022-12-14	13:01:04	13:11:24	608229	5af238825847970001e34baf	37878368	1	main_slash	11	main_slash	133	stimuli_distractor_diamondtriangles.svg	stimuli_target_diamondcircles.svg	31	yes	53	1	574
6.6.1	and	2022-12-14	13:01:04	13:11:24	608229	5af238825847970001e34baf	37878368	1	main_slash	11	advance_on_keypress_SLASH	134	stimuli_distractor_diamondtriangles.svg	stimuli_target_diamondcircles.svg	31	yes	57	0	371
6.6.1	and	2022-12-14	13:01:04	13:11:25	609736	5af238825847970001e34baf	37878368	1	main_slash	11	main_slash	135	stimuli_distractor_diamondtriangles.svg	stimuli_target_circlediamonds.svg	14	yes	53	1	515
6.6.1	and	2022-12-14	13:01:04	13:11:25	609736	5af238825847970001e34baf	37878368	1	main_slash	11	advance_on_keypress_SLASH	136	stimuli_distractor_diamondtriangles.svg	stimuli_target_circlediamonds.svg	14	yes	57	0	387
6.6.1	and	2022-12-14	13:01:04	13:11:27	611391	5af238825847970001e34baf	37878368	1	main_slash	11	main_slash	137	stimuli_target_circletriangles.svg	stimuli_distractor_trianglediamonds.svg	1	yes	53	1	634
6.6.1	and	2022-12-14	13:01:04	13:11:27	611391	5af238825847970001e34baf	37878368	1	main_slash	11	advance_on_keypress_SLASH	138	stimuli_target_circletriangles.svg	stimuli_distractor_trianglediamonds.svg	1	yes	57	0	358
6.6.1	and	2022-12-14	13:01:04	13:11:29	612985	5af238825847970001e34baf	37878368	1	main_slash	11	main_slash	139	stimuli_target_trianglesquares.svg	stimuli_distractor_trianglediamonds.svg	18	yes	53	1	613
6.6.1	and	2022-12-14	13:01:04	13:11:29	612985	5af238825847970001e34baf	37878368	1	main_slash	11	advance_on_keypress_SLASH	140	stimuli_target_trianglesquares.svg	stimuli_distractor_trianglediamonds.svg	18	yes	57	0	321
6.6.1	and	2022-12-14	13:01:04	13:11:30	614542	5af238825847970001e34baf	37878368	1	main_slash	11	main_slash	141	stimuli_distractor_diamondtriangles.svg	stimuli_target_circletriangles.svg	13	yes	53	1	602
6.6.1	and	2022-12-14	13:01:04	13:11:30	614542	5af238825847970001e34baf	37878368	1	main_slash	11	advance_on_keypress_SLASH	142	stimuli_distractor_diamondtriangles.svg	stimuli_target_circletriangles.svg	13	yes	57	0	360
6.6.1	and	2022-12-14	13:01:04	13:11:32	616214	5af238825847970001e34baf	37878368	1	main_slash	11	main_slash	143	stimuli_target_diamondcircles.svg	stimuli_distractor_diamondtriangles.svg	23	yes	53	1	675
6.6.1	and	2022-12-14	13:01:04	13:11:32	616214	5af238825847970001e34baf	37878368	1	main_slash	11	advance_on_keypress_SLASH	144	stimuli_target_diamondcircles.svg	stimuli_distractor_diamondtriangles.svg	23	yes	57	0	388
6.6.1	and	2022-12-14	13:01:04	13:11:33	617835	5af238825847970001e34baf	37878368	1	main_slash	11	main_slash	145	stimuli_distractor_diamondtriangles.svg	stimuli_target_squarediamonds.svg	16	yes	53	1	614
6.6.1	and	2022-12-14	13:01:04	13:11:33	617835	5af238825847970001e34baf	37878368	1	main_slash	11	advance_on_keypress_SLASH	146	stimuli_distractor_diamondtriangles.svg	stimuli_target_squarediamonds.svg	16	yes	57	0	312
6.6.1	and	2022-12-14	13:01:04	13:11:36	620788	5af238825847970001e34baf	37878368	1	main_slash	11	main_slash	147	stimuli_distractor_trianglediamonds.svg	stimuli_distractor_diamondtriangles.svg	35	no	0	1	2000
6.6.1	and	2022-12-14	13:01:04	13:11:36	620788	5af238825847970001e34baf	37878368	1	main_slash	11	advance_on_keypress_SLASH	148	stimuli_distractor_trianglediamonds.svg	stimuli_distractor_diamondtriangles.svg	35	no	57	0	281
6.6.1	and	2022-12-14	13:01:04	13:11:39	623705	5af238825847970001e34baf	37878368	1	main_slash	11	main_slash	149	stimuli_distractor_diamondtriangles.svg	stimuli_distractor_diamondtriangles.svg	40	no	0	1	2000
6.6.1	and	2022-12-14	13:01:04	13:11:39	623705	5af238825847970001e34baf	37878368	1	main_slash	11	advance_on_keypress_SLASH	150	stimuli_distractor_diamondtriangles.svg	stimuli_distractor_diamondtriangles.svg	40	no	57	0	283
6.6.1	and	2022-12-14	13:01:04	13:11:42	626622	5af238825847970001e34baf	37878368	1	main_slash	11	main_slash	151	stimuli_distractor_diamondtriangles.svg	stimuli_distractor_trianglediamonds.svg	38	no	0	1	2000
6.6.1	and	2022-12-14	13:01:04	13:11:42	626622	5af238825847970001e34baf	37878368	1	main_slash	11	advance_on_keypress_SLASH	152	stimuli_distractor_diamondtriangles.svg	stimuli_distractor_trianglediamonds.svg	38	no	57	0	654
6.6.1	and	2022-12-14	13:01:04	13:11:44	628654	5af238825847970001e34baf	37878368	1	main_slash	11	main_slash	153	stimuli_distractor_trianglediamonds.svg	stimuli_target_squaretriangles.svg	11	yes	53	1	749
6.6.1	and	2022-12-14	13:01:04	13:11:44	628654	5af238825847970001e34baf	37878368	1	main_slash	11	advance_on_keypress_SLASH	154	stimuli_distractor_trianglediamonds.svg	stimuli_target_squaretriangles.svg	11	yes	57	0	340
6.6.1	and	2022-12-14	13:01:04	13:11:46	630204	5af238825847970001e34baf	37878368	1	main_slash	11	main_slash	155	stimuli_distractor_trianglediamonds.svg	stimuli_target_circletriangles.svg	9	yes	53	1	581
6.6.1	and	2022-12-14	13:01:04	13:11:46	630204	5af238825847970001e34baf	37878368	1	main_slash	11	advance_on_keypress_SLASH	156	stimuli_distractor_trianglediamonds.svg	stimuli_target_circletriangles.svg	9	yes	57	0	356
6.6.1	and	2022-12-14	13:01:04	13:11:47	631884	5af238825847970001e34baf	37878368	1	main_slash	11	main_slash	157	stimuli_distractor_trianglediamonds.svg	stimuli_target_circlediamonds.svg	10	yes	53	1	697
6.6.1	and	2022-12-14	13:01:04	13:11:47	631884	5af238825847970001e34baf	37878368	1	main_slash	11	advance_on_keypress_SLASH	158	stimuli_distractor_trianglediamonds.svg	stimuli_target_circlediamonds.svg	10	yes	57	0	268
6.6.1	and	2022-12-14	13:01:04	13:11:49	633402	5af238825847970001e34baf	37878368	1	main_slash	11	main_slash	159	stimuli_target_trianglecircles.svg	stimuli_distractor_diamondtriangles.svg	21	yes	53	1	614
6.6.1	and	2022-12-14	13:01:04	13:11:49	633402	5af238825847970001e34baf	37878368	1	main_slash	11	advance_on_keypress_SLASH	160	stimuli_target_trianglecircles.svg	stimuli_distractor_diamondtriangles.svg	21	yes	57	0	264