build	computer.platform	date	time	timestamp	time_elapsed_ms	subject	group	session	blockcode	blocknum	trialcode	trialnum	stimulus_left	stimulus_right	stim_index	target_present	response	correct	latency
6.6.1	win	2022-12-14	14:30:22	14:37:31	427478	634694a1401b066cb71e4c82	558052772	1	practice_z	5	practice_z	1	stimuli_target_diamondsquares.svg	stimuli_distractor_diamondtriangles.svg	3	yes	0	0	2000
6.6.1	win	2022-12-14	14:30:22	14:37:31	427478	634694a1401b066cb71e4c82	558052772	1	practice_z	5	advance_on_keypress_ZEE	2	stimuli_target_diamondsquares.svg	stimuli_distractor_diamondtriangles.svg	3	yes	57	0	1703
6.6.1	win	2022-12-14	14:30:22	14:37:36	431885	634694a1401b066cb71e4c82	558052772	1	practice_z	5	practice_z	3	stimuli_target_circlediamonds.svg	stimuli_distractor_diamondtriangles.svg	1	yes	44	1	1039
6.6.1	win	2022-12-14	14:30:22	14:37:36	431885	634694a1401b066cb71e4c82	558052772	1	practice_z	5	advance_on_keypress_ZEE	4	stimuli_target_circlediamonds.svg	stimuli_distractor_diamondtriangles.svg	1	yes	57	0	1638
6.6.1	win	2022-12-14	14:30:22	14:37:40	435886	634694a1401b066cb71e4c82	558052772	1	practice_z	5	practice_z	5	stimuli_target_squarediamonds.svg	stimuli_distractor_diamondtriangles.svg	2	yes	44	1	724
6.6.1	win	2022-12-14	14:30:22	14:37:40	435886	634694a1401b066cb71e4c82	558052772	1	practice_z	5	advance_on_keypress_ZEE	6	stimuli_target_squarediamonds.svg	stimuli_distractor_diamondtriangles.svg	2	yes	57	0	1000
6.6.1	win	2022-12-14	14:30:22	14:37:43	439642	634694a1401b066cb71e4c82	558052772	1	practice_z	5	practice_z	7	stimuli_target_diamondsquares.svg	stimuli_distractor_trianglediamonds.svg	6	yes	44	1	1115
6.6.1	win	2022-12-14	14:30:22	14:37:43	439642	634694a1401b066cb71e4c82	558052772	1	practice_z	5	advance_on_keypress_ZEE	8	stimuli_target_diamondsquares.svg	stimuli_distractor_trianglediamonds.svg	6	yes	57	0	757
6.6.1	win	2022-12-14	14:30:22	14:37:48	444043	634694a1401b066cb71e4c82	558052772	1	practice_z	5	practice_z	9	stimuli_distractor_diamondtriangles.svg	stimuli_distractor_diamondtriangles.svg	13	no	0	1	2000
6.6.1	win	2022-12-14	14:30:22	14:37:48	444043	634694a1401b066cb71e4c82	558052772	1	practice_z	5	advance_on_keypress_ZEE	10	stimuli_distractor_diamondtriangles.svg	stimuli_distractor_diamondtriangles.svg	13	no	57	0	1533
6.6.1	win	2022-12-14	14:30:22	14:37:52	448437	634694a1401b066cb71e4c82	558052772	1	practice_z	5	practice_z	11	stimuli_distractor_trianglediamonds.svg	stimuli_target_squarediamonds.svg	11	yes	44	1	1211
6.6.1	win	2022-12-14	14:30:22	14:37:52	448437	634694a1401b066cb71e4c82	558052772	1	practice_z	5	advance_on_keypress_ZEE	12	stimuli_distractor_trianglediamonds.svg	stimuli_target_squarediamonds.svg	11	yes	57	0	2305
6.6.1	win	2022-12-14	14:30:22	14:37:57	453222	634694a1401b066cb71e4c82	558052772	1	practice_z	5	practice_z	13	stimuli_distractor_diamondtriangles.svg	stimuli_target_trianglecircles.svg	9	yes	44	1	832
6.6.1	win	2022-12-14	14:30:22	14:37:57	453222	634694a1401b066cb71e4c82	558052772	1	practice_z	5	advance_on_keypress_ZEE	14	stimuli_distractor_diamondtriangles.svg	stimuli_target_trianglecircles.svg	9	yes	57	0	2439
6.6.1	win	2022-12-14	14:30:22	14:38:02	458019	634694a1401b066cb71e4c82	558052772	1	practice_z	5	practice_z	15	stimuli_distractor_trianglediamonds.svg	stimuli_target_diamondcircles.svg	12	yes	44	1	712
6.6.1	win	2022-12-14	14:30:22	14:38:02	458019	634694a1401b066cb71e4c82	558052772	1	practice_z	5	advance_on_keypress_ZEE	16	stimuli_distractor_trianglediamonds.svg	stimuli_target_diamondcircles.svg	12	yes	57	0	2169
6.6.1	win	2022-12-14	14:30:22	14:38:08	463841	634694a1401b066cb71e4c82	558052772	1	practice_z	5	practice_z	17	stimuli_target_circlediamonds.svg	stimuli_distractor_trianglediamonds.svg	4	yes	0	0	2000
6.6.1	win	2022-12-14	14:30:22	14:38:08	463841	634694a1401b066cb71e4c82	558052772	1	practice_z	5	advance_on_keypress_ZEE	18	stimuli_target_circlediamonds.svg	stimuli_distractor_trianglediamonds.svg	4	yes	57	0	1958
6.6.1	win	2022-12-14	14:30:22	14:38:13	469440	634694a1401b066cb71e4c82	558052772	1	practice_z	5	practice_z	19	stimuli_distractor_trianglediamonds.svg	stimuli_distractor_diamondtriangles.svg	16	no	0	1	2000
6.6.1	win	2022-12-14	14:30:22	14:38:13	469440	634694a1401b066cb71e4c82	558052772	1	practice_z	5	advance_on_keypress_ZEE	20	stimuli_distractor_trianglediamonds.svg	stimuli_distractor_diamondtriangles.svg	16	no	57	0	1204
6.6.1	win	2022-12-14	14:30:22	14:38:17	473432	634694a1401b066cb71e4c82	558052772	1	practice_z	5	practice_z	21	stimuli_distractor_trianglediamonds.svg	stimuli_distractor_trianglediamonds.svg	15	no	44	0	1143
6.6.1	win	2022-12-14	14:30:22	14:38:17	473432	634694a1401b066cb71e4c82	558052772	1	practice_z	5	advance_on_keypress_ZEE	22	stimuli_distractor_trianglediamonds.svg	stimuli_distractor_trianglediamonds.svg	15	no	57	0	685
6.6.1	win	2022-12-14	14:30:22	14:38:21	477141	634694a1401b066cb71e4c82	558052772	1	practice_z	5	practice_z	23	stimuli_target_squarediamonds.svg	stimuli_distractor_trianglediamonds.svg	5	yes	44	1	1387
6.6.1	win	2022-12-14	14:30:22	14:38:21	477141	634694a1401b066cb71e4c82	558052772	1	practice_z	5	advance_on_keypress_ZEE	24	stimuli_target_squarediamonds.svg	stimuli_distractor_trianglediamonds.svg	5	yes	57	0	33386
6.6.1	win	2022-12-14	14:30:22	14:38:57	512895	634694a1401b066cb71e4c82	558052772	1	practice_z	5	practice_z	25	stimuli_distractor_diamondtriangles.svg	stimuli_target_diamondcircles.svg	8	yes	44	1	728
6.6.1	win	2022-12-14	14:30:22	14:38:57	512895	634694a1401b066cb71e4c82	558052772	1	practice_z	5	advance_on_keypress_ZEE	26	stimuli_distractor_diamondtriangles.svg	stimuli_target_diamondcircles.svg	8	yes	57	0	801
6.6.1	win	2022-12-14	14:30:22	14:39:01	517350	634694a1401b066cb71e4c82	558052772	1	practice_z	5	practice_z	27	stimuli_distractor_diamondtriangles.svg	stimuli_target_circletriangles.svg	7	yes	0	0	2000
6.6.1	win	2022-12-14	14:30:22	14:39:01	517350	634694a1401b066cb71e4c82	558052772	1	practice_z	5	advance_on_keypress_ZEE	28	stimuli_distractor_diamondtriangles.svg	stimuli_target_circletriangles.svg	7	yes	57	0	565
6.6.1	win	2022-12-14	14:30:22	14:39:04	520430	634694a1401b066cb71e4c82	558052772	1	practice_z	5	practice_z	29	stimuli_distractor_trianglediamonds.svg	stimuli_target_circlediamonds.svg	10	yes	44	1	864
6.6.1	win	2022-12-14	14:30:22	14:39:04	520430	634694a1401b066cb71e4c82	558052772	1	practice_z	5	advance_on_keypress_ZEE	30	stimuli_distractor_trianglediamonds.svg	stimuli_target_circlediamonds.svg	10	yes	57	0	677
6.6.1	win	2022-12-14	14:30:22	14:39:09	524749	634694a1401b066cb71e4c82	558052772	1	practice_z	5	practice_z	31	stimuli_distractor_diamondtriangles.svg	stimuli_distractor_trianglediamonds.svg	14	no	0	1	2000
6.6.1	win	2022-12-14	14:30:22	14:39:09	524749	634694a1401b066cb71e4c82	558052772	1	practice_z	5	advance_on_keypress_ZEE	32	stimuli_distractor_diamondtriangles.svg	stimuli_distractor_trianglediamonds.svg	14	no	57	0	596
6.6.1	win	2022-12-14	14:30:22	14:40:17	592987	634694a1401b066cb71e4c82	558052772	1	main_z	7	main_z	1	stimuli_target_circletriangles.svg	stimuli_distractor_trianglediamonds.svg	1	yes	44	1	550
6.6.1	win	2022-12-14	14:30:22	14:40:17	592987	634694a1401b066cb71e4c82	558052772	1	main_z	7	advance_on_keypress_ZEE	2	stimuli_target_circletriangles.svg	stimuli_distractor_trianglediamonds.svg	1	yes	57	0	2415
6.6.1	win	2022-12-14	14:30:22	14:40:21	596931	634694a1401b066cb71e4c82	558052772	1	main_z	7	main_z	3	stimuli_distractor_trianglediamonds.svg	stimuli_target_circletriangles.svg	9	yes	44	1	877
6.6.1	win	2022-12-14	14:30:22	14:40:21	596931	634694a1401b066cb71e4c82	558052772	1	main_z	7	advance_on_keypress_ZEE	4	stimuli_distractor_trianglediamonds.svg	stimuli_target_circletriangles.svg	9	yes	57	0	775
6.6.1	win	2022-12-14	14:30:22	14:40:24	600337	634694a1401b066cb71e4c82	558052772	1	main_z	7	main_z	5	stimuli_distractor_diamondtriangles.svg	stimuli_distractor_trianglediamonds.svg	38	no	0	1	2000
6.6.1	win	2022-12-14	14:30:22	14:40:24	600337	634694a1401b066cb71e4c82	558052772	1	main_z	7	advance_on_keypress_ZEE	6	stimuli_distractor_diamondtriangles.svg	stimuli_distractor_trianglediamonds.svg	38	no	57	0	1036
6.6.1	win	2022-12-14	14:30:22	14:40:27	602736	634694a1401b066cb71e4c82	558052772	1	main_z	7	main_z	7	stimuli_distractor_trianglediamonds.svg	stimuli_target_trianglecircles.svg	25	yes	44	1	716
6.6.1	win	2022-12-14	14:30:22	14:40:27	602736	634694a1401b066cb71e4c82	558052772	1	main_z	7	advance_on_keypress_ZEE	8	stimuli_distractor_trianglediamonds.svg	stimuli_target_trianglecircles.svg	25	yes	57	0	1901
6.6.1	win	2022-12-14	14:30:22	14:40:30	606456	634694a1401b066cb71e4c82	558052772	1	main_z	7	main_z	9	stimuli_distractor_diamondtriangles.svg	stimuli_target_diamondsquares.svg	32	yes	44	1	1170
6.6.1	win	2022-12-14	14:30:22	14:40:30	606456	634694a1401b066cb71e4c82	558052772	1	main_z	7	advance_on_keypress_ZEE	10	stimuli_distractor_diamondtriangles.svg	stimuli_target_diamondsquares.svg	32	yes	57	0	820
6.6.1	win	2022-12-14	14:30:22	14:40:33	608937	634694a1401b066cb71e4c82	558052772	1	main_z	7	main_z	11	stimuli_target_squaretriangles.svg	stimuli_distractor_diamondtriangles.svg	7	yes	44	1	1017
6.6.1	win	2022-12-14	14:30:22	14:40:33	608937	634694a1401b066cb71e4c82	558052772	1	main_z	7	advance_on_keypress_ZEE	12	stimuli_target_squaretriangles.svg	stimuli_distractor_diamondtriangles.svg	7	yes	57	0	794
6.6.1	win	2022-12-14	14:30:22	14:40:35	611113	634694a1401b066cb71e4c82	558052772	1	main_z	7	main_z	13	stimuli_distractor_diamondtriangles.svg	stimuli_target_diamondcircles.svg	31	yes	44	1	745
6.6.1	win	2022-12-14	14:30:22	14:40:35	611113	634694a1401b066cb71e4c82	558052772	1	main_z	7	advance_on_keypress_ZEE	14	stimuli_distractor_diamondtriangles.svg	stimuli_target_diamondcircles.svg	31	yes	57	0	653
6.6.1	win	2022-12-14	14:30:22	14:40:37	613373	634694a1401b066cb71e4c82	558052772	1	main_z	7	main_z	15	stimuli_target_squaretriangles.svg	stimuli_distractor_trianglediamonds.svg	3	yes	44	1	972
6.6.1	win	2022-12-14	14:30:22	14:40:37	613373	634694a1401b066cb71e4c82	558052772	1	main_z	7	advance_on_keypress_ZEE	16	stimuli_target_squaretriangles.svg	stimuli_distractor_trianglediamonds.svg	3	yes	57	0	716
6.6.1	win	2022-12-14	14:30:22	14:40:41	616735	634694a1401b066cb71e4c82	558052772	1	main_z	7	main_z	17	stimuli_target_diamondsquares.svg	stimuli_distractor_diamondtriangles.svg	24	yes	0	0	2000
6.6.1	win	2022-12-14	14:30:22	14:40:41	616735	634694a1401b066cb71e4c82	558052772	1	main_z	7	advance_on_keypress_ZEE	18	stimuli_target_diamondsquares.svg	stimuli_distractor_diamondtriangles.svg	24	yes	57	0	547
6.6.1	win	2022-12-14	14:30:22	14:40:42	618662	634694a1401b066cb71e4c82	558052772	1	main_z	7	main_z	19	stimuli_target_trianglecircles.svg	stimuli_distractor_trianglediamonds.svg	17	yes	44	1	728
6.6.1	win	2022-12-14	14:30:22	14:40:42	618662	634694a1401b066cb71e4c82	558052772	1	main_z	7	advance_on_keypress_ZEE	20	stimuli_target_trianglecircles.svg	stimuli_distractor_trianglediamonds.svg	17	yes	57	0	931
6.6.1	win	2022-12-14	14:30:22	14:40:45	621366	634694a1401b066cb71e4c82	558052772	1	main_z	7	main_z	21	stimuli_target_diamondsquares.svg	stimuli_distractor_trianglediamonds.svg	20	yes	44	1	1132
6.6.1	win	2022-12-14	14:30:22	14:40:45	621366	634694a1401b066cb71e4c82	558052772	1	main_z	7	advance_on_keypress_ZEE	22	stimuli_target_diamondsquares.svg	stimuli_distractor_trianglediamonds.svg	20	yes	57	0	551
6.6.1	win	2022-12-14	14:30:22	14:40:48	624567	634694a1401b066cb71e4c82	558052772	1	main_z	7	main_z	23	stimuli_distractor_trianglediamonds.svg	stimuli_distractor_trianglediamonds.svg	33	no	0	1	2000
6.6.1	win	2022-12-14	14:30:22	14:40:48	624567	634694a1401b066cb71e4c82	558052772	1	main_z	7	advance_on_keypress_ZEE	24	stimuli_distractor_trianglediamonds.svg	stimuli_distractor_trianglediamonds.svg	33	no	57	0	438
6.6.1	win	2022-12-14	14:30:22	14:40:51	627650	634694a1401b066cb71e4c82	558052772	1	main_z	7	main_z	25	stimuli_distractor_diamondtriangles.svg	stimuli_target_squarediamonds.svg	16	yes	0	0	2000
6.6.1	win	2022-12-14	14:30:22	14:40:51	627650	634694a1401b066cb71e4c82	558052772	1	main_z	7	advance_on_keypress_ZEE	26	stimuli_distractor_diamondtriangles.svg	stimuli_target_squarediamonds.svg	16	yes	57	0	497
6.6.1	win	2022-12-14	14:30:22	14:40:53	629404	634694a1401b066cb71e4c82	558052772	1	main_z	7	main_z	27	stimuli_distractor_trianglediamonds.svg	stimuli_target_circlediamonds.svg	10	yes	44	1	605
6.6.1	win	2022-12-14	14:30:22	14:40:53	629404	634694a1401b066cb71e4c82	558052772	1	main_z	7	advance_on_keypress_ZEE	28	stimuli_distractor_trianglediamonds.svg	stimuli_target_circlediamonds.svg	10	yes	57	0	893
6.6.1	win	2022-12-14	14:30:22	14:40:56	632205	634694a1401b066cb71e4c82	558052772	1	main_z	7	main_z	29	stimuli_distractor_trianglediamonds.svg	stimuli_distractor_diamondtriangles.svg	35	no	44	0	1272
6.6.1	win	2022-12-14	14:30:22	14:40:56	632205	634694a1401b066cb71e4c82	558052772	1	main_z	7	advance_on_keypress_ZEE	30	stimuli_distractor_trianglediamonds.svg	stimuli_distractor_diamondtriangles.svg	35	no	57	0	475
6.6.1	win	2022-12-14	14:30:22	14:40:58	634315	634694a1401b066cb71e4c82	558052772	1	main_z	7	main_z	31	stimuli_target_trianglesquares.svg	stimuli_distractor_trianglediamonds.svg	18	yes	44	1	999
6.6.1	win	2022-12-14	14:30:22	14:40:58	634315	634694a1401b066cb71e4c82	558052772	1	main_z	7	advance_on_keypress_ZEE	32	stimuli_target_trianglesquares.svg	stimuli_distractor_trianglediamonds.svg	18	yes	57	0	600
6.6.1	win	2022-12-14	14:30:22	14:41:01	637219	634694a1401b066cb71e4c82	558052772	1	main_z	7	main_z	33	stimuli_distractor_diamondtriangles.svg	stimuli_target_trianglesquares.svg	30	yes	44	1	1655
6.6.1	win	2022-12-14	14:30:22	14:41:01	637219	634694a1401b066cb71e4c82	558052772	1	main_z	7	advance_on_keypress_ZEE	34	stimuli_distractor_diamondtriangles.svg	stimuli_target_trianglesquares.svg	30	yes	57	0	872
6.6.1	win	2022-12-14	14:30:22	14:41:04	640383	634694a1401b066cb71e4c82	558052772	1	main_z	7	main_z	35	stimuli_target_circlediamonds.svg	stimuli_distractor_diamondtriangles.svg	6	yes	44	1	1652
6.6.1	win	2022-12-14	14:30:22	14:41:04	640383	634694a1401b066cb71e4c82	558052772	1	main_z	7	advance_on_keypress_ZEE	36	stimuli_target_circlediamonds.svg	stimuli_distractor_diamondtriangles.svg	6	yes	57	0	632
6.6.1	win	2022-12-14	14:30:22	14:41:07	642742	634694a1401b066cb71e4c82	558052772	1	main_z	7	main_z	37	stimuli_target_circlediamonds.svg	stimuli_distractor_trianglediamonds.svg	2	yes	44	1	1078
6.6.1	win	2022-12-14	14:30:22	14:41:07	642742	634694a1401b066cb71e4c82	558052772	1	main_z	7	advance_on_keypress_ZEE	38	stimuli_target_circlediamonds.svg	stimuli_distractor_trianglediamonds.svg	2	yes	57	0	470
6.6.1	win	2022-12-14	14:30:22	14:41:09	644764	634694a1401b066cb71e4c82	558052772	1	main_z	7	main_z	39	stimuli_target_diamondcircles.svg	stimuli_distractor_trianglediamonds.svg	19	yes	44	1	917
6.6.1	win	2022-12-14	14:30:22	14:41:09	644764	634694a1401b066cb71e4c82	558052772	1	main_z	7	advance_on_keypress_ZEE	40	stimuli_target_diamondcircles.svg	stimuli_distractor_trianglediamonds.svg	19	yes	57	0	392
6.6.1	win	2022-12-14	14:30:22	14:41:10	646669	634694a1401b066cb71e4c82	558052772	1	main_z	7	main_z	41	stimuli_target_diamondcircles.svg	stimuli_distractor_diamondtriangles.svg	23	yes	44	1	872
6.6.1	win	2022-12-14	14:30:22	14:41:10	646669	634694a1401b066cb71e4c82	558052772	1	main_z	7	advance_on_keypress_ZEE	42	stimuli_target_diamondcircles.svg	stimuli_distractor_diamondtriangles.svg	23	yes	57	0	407
6.6.1	win	2022-12-14	14:30:22	14:41:12	648670	634694a1401b066cb71e4c82	558052772	1	main_z	7	main_z	43	stimuli_distractor_diamondtriangles.svg	stimuli_target_circlediamonds.svg	14	yes	44	1	957
6.6.1	win	2022-12-14	14:30:22	14:41:12	648670	634694a1401b066cb71e4c82	558052772	1	main_z	7	advance_on_keypress_ZEE	44	stimuli_distractor_diamondtriangles.svg	stimuli_target_circlediamonds.svg	14	yes	57	0	477
6.6.1	win	2022-12-14	14:30:22	14:41:15	651258	634694a1401b066cb71e4c82	558052772	1	main_z	7	main_z	45	stimuli_distractor_diamondtriangles.svg	stimuli_distractor_trianglediamonds.svg	37	no	44	0	1478
6.6.1	win	2022-12-14	14:30:22	14:41:15	651258	634694a1401b066cb71e4c82	558052772	1	main_z	7	advance_on_keypress_ZEE	46	stimuli_distractor_diamondtriangles.svg	stimuli_distractor_trianglediamonds.svg	37	no	57	0	540
6.6.1	win	2022-12-14	14:30:22	14:41:17	653357	634694a1401b066cb71e4c82	558052772	1	main_z	7	main_z	47	stimuli_target_squarediamonds.svg	stimuli_distractor_diamondtriangles.svg	8	yes	44	1	928
6.6.1	win	2022-12-14	14:30:22	14:41:17	653357	634694a1401b066cb71e4c82	558052772	1	main_z	7	advance_on_keypress_ZEE	48	stimuli_target_squarediamonds.svg	stimuli_distractor_diamondtriangles.svg	8	yes	57	0	430
6.6.1	win	2022-12-14	14:30:22	14:41:19	655419	634694a1401b066cb71e4c82	558052772	1	main_z	7	main_z	49	stimuli_distractor_trianglediamonds.svg	stimuli_target_squarediamonds.svg	12	yes	44	1	989
6.6.1	win	2022-12-14	14:30:22	14:41:19	655419	634694a1401b066cb71e4c82	558052772	1	main_z	7	advance_on_keypress_ZEE	50	stimuli_distractor_trianglediamonds.svg	stimuli_target_squarediamonds.svg	12	yes	57	0	428
6.6.1	win	2022-12-14	14:30:22	14:41:21	657379	634694a1401b066cb71e4c82	558052772	1	main_z	7	main_z	51	stimuli_distractor_diamondtriangles.svg	stimuli_target_squaretriangles.svg	15	yes	44	1	900
6.6.1	win	2022-12-14	14:30:22	14:41:21	657379	634694a1401b066cb71e4c82	558052772	1	main_z	7	advance_on_keypress_ZEE	52	stimuli_distractor_diamondtriangles.svg	stimuli_target_squaretriangles.svg	15	yes	57	0	417
6.6.1	win	2022-12-14	14:30:22	14:41:24	660445	634694a1401b066cb71e4c82	558052772	1	main_z	7	main_z	53	stimuli_distractor_trianglediamonds.svg	stimuli_distractor_diamondtriangles.svg	36	no	0	1	2000
6.6.1	win	2022-12-14	14:30:22	14:41:24	660445	634694a1401b066cb71e4c82	558052772	1	main_z	7	advance_on_keypress_ZEE	54	stimuli_distractor_trianglediamonds.svg	stimuli_distractor_diamondtriangles.svg	36	no	57	0	270
6.6.1	win	2022-12-14	14:30:22	14:41:26	662391	634694a1401b066cb71e4c82	558052772	1	main_z	7	main_z	55	stimuli_distractor_trianglediamonds.svg	stimuli_target_trianglesquares.svg	26	yes	44	1	1029
6.6.1	win	2022-12-14	14:30:22	14:41:26	662391	634694a1401b066cb71e4c82	558052772	1	main_z	7	advance_on_keypress_ZEE	56	stimuli_distractor_trianglediamonds.svg	stimuli_target_trianglesquares.svg	26	yes	57	0	383
6.6.1	win	2022-12-14	14:30:22	14:41:29	665428	634694a1401b066cb71e4c82	558052772	1	main_z	7	main_z	57	stimuli_target_circletriangles.svg	stimuli_distractor_diamondtriangles.svg	5	yes	0	0	2000
6.6.1	win	2022-12-14	14:30:22	14:41:29	665428	634694a1401b066cb71e4c82	558052772	1	main_z	7	advance_on_keypress_ZEE	58	stimuli_target_circletriangles.svg	stimuli_distractor_diamondtriangles.svg	5	yes	57	0	721
6.6.1	win	2022-12-14	14:30:22	14:41:31	667590	634694a1401b066cb71e4c82	558052772	1	main_z	7	main_z	59	stimuli_distractor_trianglediamonds.svg	stimuli_target_squaretriangles.svg	11	yes	44	1	796
6.6.1	win	2022-12-14	14:30:22	14:41:31	667590	634694a1401b066cb71e4c82	558052772	1	main_z	7	advance_on_keypress_ZEE	60	stimuli_distractor_trianglediamonds.svg	stimuli_target_squaretriangles.svg	11	yes	57	0	463
6.6.1	win	2022-12-14	14:30:22	14:41:34	669758	634694a1401b066cb71e4c82	558052772	1	main_z	7	main_z	61	stimuli_distractor_diamondtriangles.svg	stimuli_distractor_diamondtriangles.svg	39	no	44	0	1064
6.6.1	win	2022-12-14	14:30:22	14:41:34	669758	634694a1401b066cb71e4c82	558052772	1	main_z	7	advance_on_keypress_ZEE	62	stimuli_distractor_diamondtriangles.svg	stimuli_distractor_diamondtriangles.svg	39	no	57	0	388
6.6.1	win	2022-12-14	14:30:22	14:41:36	671768	634694a1401b066cb71e4c82	558052772	1	main_z	7	main_z	63	stimuli_target_trianglesquares.svg	stimuli_distractor_diamondtriangles.svg	22	yes	44	1	974
6.6.1	win	2022-12-14	14:30:22	14:41:36	671768	634694a1401b066cb71e4c82	558052772	1	main_z	7	advance_on_keypress_ZEE	64	stimuli_target_trianglesquares.svg	stimuli_distractor_diamondtriangles.svg	22	yes	57	0	414
6.6.1	win	2022-12-14	14:30:22	14:41:38	673761	634694a1401b066cb71e4c82	558052772	1	main_z	7	main_z	65	stimuli_distractor_diamondtriangles.svg	stimuli_target_trianglecircles.svg	29	yes	44	1	934
6.6.1	win	2022-12-14	14:30:22	14:41:38	673761	634694a1401b066cb71e4c82	558052772	1	main_z	7	advance_on_keypress_ZEE	66	stimuli_distractor_diamondtriangles.svg	stimuli_target_trianglecircles.svg	29	yes	57	0	369
6.6.1	win	2022-12-14	14:30:22	14:41:39	675640	634694a1401b066cb71e4c82	558052772	1	main_z	7	main_z	67	stimuli_target_trianglecircles.svg	stimuli_distractor_diamondtriangles.svg	21	yes	44	1	864
6.6.1	win	2022-12-14	14:30:22	14:41:39	675640	634694a1401b066cb71e4c82	558052772	1	main_z	7	advance_on_keypress_ZEE	68	stimuli_target_trianglecircles.svg	stimuli_distractor_diamondtriangles.svg	21	yes	57	0	355
6.6.1	win	2022-12-14	14:30:22	14:41:42	678643	634694a1401b066cb71e4c82	558052772	1	main_z	7	main_z	69	stimuli_distractor_trianglediamonds.svg	stimuli_target_diamondcircles.svg	27	yes	0	0	2000
6.6.1	win	2022-12-14	14:30:22	14:41:42	678643	634694a1401b066cb71e4c82	558052772	1	main_z	7	advance_on_keypress_ZEE	70	stimuli_distractor_trianglediamonds.svg	stimuli_target_diamondcircles.svg	27	yes	57	0	2346
6.6.1	win	2022-12-14	14:30:22	14:41:46	682487	634694a1401b066cb71e4c82	558052772	1	main_z	7	main_z	71	stimuli_target_squarediamonds.svg	stimuli_distractor_trianglediamonds.svg	4	yes	44	1	845
6.6.1	win	2022-12-14	14:30:22	14:41:46	682487	634694a1401b066cb71e4c82	558052772	1	main_z	7	advance_on_keypress_ZEE	72	stimuli_target_squarediamonds.svg	stimuli_distractor_trianglediamonds.svg	4	yes	57	0	395
6.6.1	win	2022-12-14	14:30:22	14:41:48	684427	634694a1401b066cb71e4c82	558052772	1	main_z	7	main_z	73	stimuli_distractor_diamondtriangles.svg	stimuli_target_circletriangles.svg	13	yes	44	1	918
6.6.1	win	2022-12-14	14:30:22	14:41:48	684427	634694a1401b066cb71e4c82	558052772	1	main_z	7	advance_on_keypress_ZEE	74	stimuli_distractor_diamondtriangles.svg	stimuli_target_circletriangles.svg	13	yes	57	0	342
6.6.1	win	2022-12-14	14:30:22	14:41:50	686638	634694a1401b066cb71e4c82	558052772	1	main_z	7	main_z	75	stimuli_distractor_trianglediamonds.svg	stimuli_target_diamondsquares.svg	28	yes	44	1	1230
6.6.1	win	2022-12-14	14:30:22	14:41:50	686638	634694a1401b066cb71e4c82	558052772	1	main_z	7	advance_on_keypress_ZEE	76	stimuli_distractor_trianglediamonds.svg	stimuli_target_diamondsquares.svg	28	yes	57	0	354
6.6.1	win	2022-12-14	14:30:22	14:41:53	689642	634694a1401b066cb71e4c82	558052772	1	main_z	7	main_z	77	stimuli_distractor_diamondtriangles.svg	stimuli_distractor_diamondtriangles.svg	40	no	0	1	2000
6.6.1	win	2022-12-14	14:30:22	14:41:53	689642	634694a1401b066cb71e4c82	558052772	1	main_z	7	advance_on_keypress_ZEE	78	stimuli_distractor_diamondtriangles.svg	stimuli_distractor_diamondtriangles.svg	40	no	57	0	1803
6.6.1	win	2022-12-14	14:30:22	14:41:57	693546	634694a1401b066cb71e4c82	558052772	1	main_z	7	main_z	79	stimuli_distractor_trianglediamonds.svg	stimuli_distractor_trianglediamonds.svg	34	no	44	0	1456
6.6.1	win	2022-12-14	14:30:22	14:41:57	693546	634694a1401b066cb71e4c82	558052772	1	main_z	7	advance_on_keypress_ZEE	80	stimuli_distractor_trianglediamonds.svg	stimuli_distractor_trianglediamonds.svg	34	no	57	0	335
6.6.1	win	2022-12-14	14:30:22	14:41:59	695452	634694a1401b066cb71e4c82	558052772	1	main_z	7	main_z	81	stimuli_target_trianglecircles.svg	stimuli_distractor_trianglediamonds.svg	17	yes	44	1	927
6.6.1	win	2022-12-14	14:30:22	14:41:59	695452	634694a1401b066cb71e4c82	558052772	1	main_z	7	advance_on_keypress_ZEE	82	stimuli_target_trianglecircles.svg	stimuli_distractor_trianglediamonds.svg	17	yes	57	0	350
6.6.1	win	2022-12-14	14:30:22	14:42:01	697298	634694a1401b066cb71e4c82	558052772	1	main_z	7	main_z	83	stimuli_target_diamondsquares.svg	stimuli_distractor_diamondtriangles.svg	24	yes	44	1	858
6.6.1	win	2022-12-14	14:30:22	14:42:01	697298	634694a1401b066cb71e4c82	558052772	1	main_z	7	advance_on_keypress_ZEE	84	stimuli_target_diamondsquares.svg	stimuli_distractor_diamondtriangles.svg	24	yes	57	0	342
6.6.1	win	2022-12-14	14:30:22	14:42:03	699136	634694a1401b066cb71e4c82	558052772	1	main_z	7	main_z	85	stimuli_distractor_diamondtriangles.svg	stimuli_target_diamondsquares.svg	32	yes	44	1	863
6.6.1	win	2022-12-14	14:30:22	14:42:03	699136	634694a1401b066cb71e4c82	558052772	1	main_z	7	advance_on_keypress_ZEE	86	stimuli_distractor_diamondtriangles.svg	stimuli_target_diamondsquares.svg	32	yes	57	0	342
6.6.1	win	2022-12-14	14:30:22	14:42:05	701321	634694a1401b066cb71e4c82	558052772	1	main_z	7	main_z	87	stimuli_distractor_diamondtriangles.svg	stimuli_target_diamondcircles.svg	31	yes	44	1	1215
6.6.1	win	2022-12-14	14:30:22	14:42:05	701321	634694a1401b066cb71e4c82	558052772	1	main_z	7	advance_on_keypress_ZEE	88	stimuli_distractor_diamondtriangles.svg	stimuli_target_diamondcircles.svg	31	yes	57	0	379
6.6.1	win	2022-12-14	14:30:22	14:42:07	703442	634694a1401b066cb71e4c82	558052772	1	main_z	7	main_z	89	stimuli_target_diamondcircles.svg	stimuli_distractor_diamondtriangles.svg	23	yes	44	1	1086
6.6.1	win	2022-12-14	14:30:22	14:42:07	703442	634694a1401b066cb71e4c82	558052772	1	main_z	7	advance_on_keypress_ZEE	90	stimuli_target_diamondcircles.svg	stimuli_distractor_diamondtriangles.svg	23	yes	57	0	353
6.6.1	win	2022-12-14	14:30:22	14:42:09	705359	634694a1401b066cb71e4c82	558052772	1	main_z	7	main_z	91	stimuli_target_diamondcircles.svg	stimuli_distractor_trianglediamonds.svg	19	yes	44	1	919
6.6.1	win	2022-12-14	14:30:22	14:42:09	705359	634694a1401b066cb71e4c82	558052772	1	main_z	7	advance_on_keypress_ZEE	92	stimuli_target_diamondcircles.svg	stimuli_distractor_trianglediamonds.svg	19	yes	57	0	312
6.6.1	win	2022-12-14	14:30:22	14:42:12	708314	634694a1401b066cb71e4c82	558052772	1	main_z	7	main_z	93	stimuli_distractor_diamondtriangles.svg	stimuli_distractor_trianglediamonds.svg	37	no	44	0	1991
6.6.1	win	2022-12-14	14:30:22	14:42:12	708314	634694a1401b066cb71e4c82	558052772	1	main_z	7	advance_on_keypress_ZEE	94	stimuli_distractor_diamondtriangles.svg	stimuli_distractor_trianglediamonds.svg	37	no	57	0	317
6.6.1	win	2022-12-14	14:30:22	14:42:14	710201	634694a1401b066cb71e4c82	558052772	1	main_z	7	main_z	95	stimuli_target_trianglecircles.svg	stimuli_distractor_diamondtriangles.svg	21	yes	44	1	929
6.6.1	win	2022-12-14	14:30:22	14:42:14	710201	634694a1401b066cb71e4c82	558052772	1	main_z	7	advance_on_keypress_ZEE	96	stimuli_target_trianglecircles.svg	stimuli_distractor_diamondtriangles.svg	21	yes	57	0	358
6.6.1	win	2022-12-14	14:30:22	14:42:16	712589	634694a1401b066cb71e4c82	558052772	1	main_z	7	main_z	97	stimuli_target_squaretriangles.svg	stimuli_distractor_trianglediamonds.svg	3	yes	44	1	1400
6.6.1	win	2022-12-14	14:30:22	14:42:16	712589	634694a1401b066cb71e4c82	558052772	1	main_z	7	advance_on_keypress_ZEE	98	stimuli_target_squaretriangles.svg	stimuli_distractor_trianglediamonds.svg	3	yes	57	0	344
6.6.1	win	2022-12-14	14:30:22	14:42:18	714494	634694a1401b066cb71e4c82	558052772	1	main_z	7	main_z	99	stimuli_distractor_diamondtriangles.svg	stimuli_target_squarediamonds.svg	16	yes	44	1	923
6.6.1	win	2022-12-14	14:30:22	14:42:18	714494	634694a1401b066cb71e4c82	558052772	1	main_z	7	advance_on_keypress_ZEE	100	stimuli_distractor_diamondtriangles.svg	stimuli_target_squarediamonds.svg	16	yes	57	0	371
6.6.1	win	2022-12-14	14:30:22	14:42:20	716430	634694a1401b066cb71e4c82	558052772	1	main_z	7	main_z	101	stimuli_distractor_trianglediamonds.svg	stimuli_target_circletriangles.svg	9	yes	44	1	925
6.6.1	win	2022-12-14	14:30:22	14:42:20	716430	634694a1401b066cb71e4c82	558052772	1	main_z	7	advance_on_keypress_ZEE	102	stimuli_distractor_trianglediamonds.svg	stimuli_target_circletriangles.svg	9	yes	57	0	369
6.6.1	win	2022-12-14	14:30:22	14:42:22	718406	634694a1401b066cb71e4c82	558052772	1	main_z	7	main_z	103	stimuli_target_squarediamonds.svg	stimuli_distractor_diamondtriangles.svg	8	yes	44	1	969
6.6.1	win	2022-12-14	14:30:22	14:42:22	718406	634694a1401b066cb71e4c82	558052772	1	main_z	7	advance_on_keypress_ZEE	104	stimuli_target_squarediamonds.svg	stimuli_distractor_diamondtriangles.svg	8	yes	57	0	355
6.6.1	win	2022-12-14	14:30:22	14:42:24	720424	634694a1401b066cb71e4c82	558052772	1	main_z	7	main_z	105	stimuli_distractor_trianglediamonds.svg	stimuli_target_trianglecircles.svg	25	yes	44	1	1020
6.6.1	win	2022-12-14	14:30:22	14:42:24	720424	634694a1401b066cb71e4c82	558052772	1	main_z	7	advance_on_keypress_ZEE	106	stimuli_distractor_trianglediamonds.svg	stimuli_target_trianglecircles.svg	25	yes	57	0	362
6.6.1	win	2022-12-14	14:30:22	14:42:26	722376	634694a1401b066cb71e4c82	558052772	1	main_z	7	main_z	107	stimuli_distractor_diamondtriangles.svg	stimuli_target_circletriangles.svg	13	yes	44	1	956
6.6.1	win	2022-12-14	14:30:22	14:42:26	722376	634694a1401b066cb71e4c82	558052772	1	main_z	7	advance_on_keypress_ZEE	108	stimuli_distractor_diamondtriangles.svg	stimuli_target_circletriangles.svg	13	yes	57	0	312
6.6.1	win	2022-12-14	14:30:22	14:42:28	724255	634694a1401b066cb71e4c82	558052772	1	main_z	7	main_z	109	stimuli_distractor_diamondtriangles.svg	stimuli_target_circlediamonds.svg	14	yes	44	1	935
6.6.1	win	2022-12-14	14:30:22	14:42:28	724255	634694a1401b066cb71e4c82	558052772	1	main_z	7	advance_on_keypress_ZEE	110	stimuli_distractor_diamondtriangles.svg	stimuli_target_circlediamonds.svg	14	yes	57	0	331
6.6.1	win	2022-12-14	14:30:22	14:42:31	727237	634694a1401b066cb71e4c82	558052772	1	main_z	7	main_z	111	stimuli_distractor_diamondtriangles.svg	stimuli_distractor_diamondtriangles.svg	40	no	0	1	2000
6.6.1	win	2022-12-14	14:30:22	14:42:31	727237	634694a1401b066cb71e4c82	558052772	1	main_z	7	advance_on_keypress_ZEE	112	stimuli_distractor_diamondtriangles.svg	stimuli_distractor_diamondtriangles.svg	40	no	57	0	487
6.6.1	win	2022-12-14	14:30:22	14:42:33	728991	634694a1401b066cb71e4c82	558052772	1	main_z	7	main_z	113	stimuli_target_circletriangles.svg	stimuli_distractor_diamondtriangles.svg	5	yes	44	1	621
6.6.1	win	2022-12-14	14:30:22	14:42:33	728991	634694a1401b066cb71e4c82	558052772	1	main_z	7	advance_on_keypress_ZEE	114	stimuli_target_circletriangles.svg	stimuli_distractor_diamondtriangles.svg	5	yes	57	0	326
6.6.1	win	2022-12-14	14:30:22	14:42:35	730799	634694a1401b066cb71e4c82	558052772	1	main_z	7	main_z	115	stimuli_target_circlediamonds.svg	stimuli_distractor_trianglediamonds.svg	2	yes	44	1	847
6.6.1	win	2022-12-14	14:30:22	14:42:35	730799	634694a1401b066cb71e4c82	558052772	1	main_z	7	advance_on_keypress_ZEE	116	stimuli_target_circlediamonds.svg	stimuli_distractor_trianglediamonds.svg	2	yes	57	0	306
6.6.1	win	2022-12-14	14:30:22	14:42:37	733241	634694a1401b066cb71e4c82	558052772	1	main_z	7	main_z	117	stimuli_distractor_diamondtriangles.svg	stimuli_target_squaretriangles.svg	15	yes	44	1	1489
6.6.1	win	2022-12-14	14:30:22	14:42:37	733241	634694a1401b066cb71e4c82	558052772	1	main_z	7	advance_on_keypress_ZEE	118	stimuli_distractor_diamondtriangles.svg	stimuli_target_squaretriangles.svg	15	yes	57	0	303
6.6.1	win	2022-12-14	14:30:22	14:42:40	735916	634694a1401b066cb71e4c82	558052772	1	main_z	7	main_z	119	stimuli_distractor_trianglediamonds.svg	stimuli_target_diamondsquares.svg	28	yes	44	1	1730
6.6.1	win	2022-12-14	14:30:22	14:42:40	735916	634694a1401b066cb71e4c82	558052772	1	main_z	7	advance_on_keypress_ZEE	120	stimuli_distractor_trianglediamonds.svg	stimuli_target_diamondsquares.svg	28	yes	57	0	292
6.6.1	win	2022-12-14	14:30:22	14:42:42	738313	634694a1401b066cb71e4c82	558052772	1	main_z	7	main_z	121	stimuli_distractor_trianglediamonds.svg	stimuli_target_squaretriangles.svg	11	yes	44	1	1461
6.6.1	win	2022-12-14	14:30:22	14:42:42	738313	634694a1401b066cb71e4c82	558052772	1	main_z	7	advance_on_keypress_ZEE	122	stimuli_distractor_trianglediamonds.svg	stimuli_target_squaretriangles.svg	11	yes	57	0	329
6.6.1	win	2022-12-14	14:30:22	14:42:44	740183	634694a1401b066cb71e4c82	558052772	1	main_z	7	main_z	123	stimuli_distractor_diamondtriangles.svg	stimuli_target_trianglecircles.svg	29	yes	44	1	915
6.6.1	win	2022-12-14	14:30:22	14:42:44	740183	634694a1401b066cb71e4c82	558052772	1	main_z	7	advance_on_keypress_ZEE	124	stimuli_distractor_diamondtriangles.svg	stimuli_target_trianglecircles.svg	29	yes	57	0	321
6.6.1	win	2022-12-14	14:30:22	14:42:47	743151	634694a1401b066cb71e4c82	558052772	1	main_z	7	main_z	125	stimuli_distractor_trianglediamonds.svg	stimuli_distractor_diamondtriangles.svg	36	no	0	1	2000
6.6.1	win	2022-12-14	14:30:22	14:42:47	743151	634694a1401b066cb71e4c82	558052772	1	main_z	7	advance_on_keypress_ZEE	126	stimuli_distractor_trianglediamonds.svg	stimuli_distractor_diamondtriangles.svg	36	no	57	0	443
6.6.1	win	2022-12-14	14:30:22	14:42:50	746234	634694a1401b066cb71e4c82	558052772	1	main_z	7	main_z	127	stimuli_distractor_trianglediamonds.svg	stimuli_distractor_diamondtriangles.svg	35	no	0	1	2000
6.6.1	win	2022-12-14	14:30:22	14:42:50	746234	634694a1401b066cb71e4c82	558052772	1	main_z	7	advance_on_keypress_ZEE	128	stimuli_distractor_trianglediamonds.svg	stimuli_distractor_diamondtriangles.svg	35	no	57	0	287
6.6.1	win	2022-12-14	14:30:22	14:42:53	749167	634694a1401b066cb71e4c82	558052772	1	main_z	7	main_z	129	stimuli_distractor_trianglediamonds.svg	stimuli_distractor_trianglediamonds.svg	33	no	0	1	2000
6.6.1	win	2022-12-14	14:30:22	14:42:53	749167	634694a1401b066cb71e4c82	558052772	1	main_z	7	advance_on_keypress_ZEE	130	stimuli_distractor_trianglediamonds.svg	stimuli_distractor_trianglediamonds.svg	33	no	57	0	1030
6.6.1	win	2022-12-14	14:30:22	14:42:57	752833	634694a1401b066cb71e4c82	558052772	1	main_z	7	main_z	131	stimuli_distractor_trianglediamonds.svg	stimuli_distractor_trianglediamonds.svg	34	no	0	1	2000
6.6.1	win	2022-12-14	14:30:22	14:42:57	752833	634694a1401b066cb71e4c82	558052772	1	main_z	7	advance_on_keypress_ZEE	132	stimuli_distractor_trianglediamonds.svg	stimuli_distractor_trianglediamonds.svg	34	no	57	0	806
6.6.1	win	2022-12-14	14:30:22	14:42:59	755180	634694a1401b066cb71e4c82	558052772	1	main_z	7	main_z	133	stimuli_target_trianglesquares.svg	stimuli_distractor_trianglediamonds.svg	18	yes	44	1	896
6.6.1	win	2022-12-14	14:30:22	14:42:59	755180	634694a1401b066cb71e4c82	558052772	1	main_z	7	advance_on_keypress_ZEE	134	stimuli_target_trianglesquares.svg	stimuli_distractor_trianglediamonds.svg	18	yes	57	0	331
6.6.1	win	2022-12-14	14:30:22	14:43:01	757192	634694a1401b066cb71e4c82	558052772	1	main_z	7	main_z	135	stimuli_distractor_trianglediamonds.svg	stimuli_target_circlediamonds.svg	10	yes	44	1	1026
6.6.1	win	2022-12-14	14:30:22	14:43:01	757192	634694a1401b066cb71e4c82	558052772	1	main_z	7	advance_on_keypress_ZEE	136	stimuli_distractor_trianglediamonds.svg	stimuli_target_circlediamonds.svg	10	yes	57	0	337
6.6.1	win	2022-12-14	14:30:22	14:43:03	759306	634694a1401b066cb71e4c82	558052772	1	main_z	7	main_z	137	stimuli_target_diamondsquares.svg	stimuli_distractor_trianglediamonds.svg	20	yes	44	1	1140
6.6.1	win	2022-12-14	14:30:22	14:43:03	759306	634694a1401b066cb71e4c82	558052772	1	main_z	7	advance_on_keypress_ZEE	138	stimuli_target_diamondsquares.svg	stimuli_distractor_trianglediamonds.svg	20	yes	57	0	305
6.6.1	win	2022-12-14	14:30:22	14:43:05	761098	634694a1401b066cb71e4c82	558052772	1	main_z	7	main_z	139	stimuli_distractor_diamondtriangles.svg	stimuli_target_trianglesquares.svg	30	yes	44	1	849
6.6.1	win	2022-12-14	14:30:22	14:43:05	761098	634694a1401b066cb71e4c82	558052772	1	main_z	7	advance_on_keypress_ZEE	140	stimuli_distractor_diamondtriangles.svg	stimuli_target_trianglesquares.svg	30	yes	57	0	323
6.6.1	win	2022-12-14	14:30:22	14:43:07	763307	634694a1401b066cb71e4c82	558052772	1	main_z	7	main_z	141	stimuli_distractor_trianglediamonds.svg	stimuli_target_trianglesquares.svg	26	yes	44	1	1242
6.6.1	win	2022-12-14	14:30:22	14:43:07	763307	634694a1401b066cb71e4c82	558052772	1	main_z	7	advance_on_keypress_ZEE	142	stimuli_distractor_trianglediamonds.svg	stimuli_target_trianglesquares.svg	26	yes	57	0	308
6.6.1	win	2022-12-14	14:30:22	14:43:10	766248	634694a1401b066cb71e4c82	558052772	1	main_z	7	main_z	143	stimuli_distractor_diamondtriangles.svg	stimuli_distractor_diamondtriangles.svg	39	no	0	1	2000
6.6.1	win	2022-12-14	14:30:22	14:43:10	766248	634694a1401b066cb71e4c82	558052772	1	main_z	7	advance_on_keypress_ZEE	144	stimuli_distractor_diamondtriangles.svg	stimuli_distractor_diamondtriangles.svg	39	no	57	0	1109
6.6.1	win	2022-12-14	14:30:22	14:43:13	769234	634694a1401b066cb71e4c82	558052772	1	main_z	7	main_z	145	stimuli_target_squaretriangles.svg	stimuli_distractor_diamondtriangles.svg	7	yes	44	1	1237
6.6.1	win	2022-12-14	14:30:22	14:43:13	769234	634694a1401b066cb71e4c82	558052772	1	main_z	7	advance_on_keypress_ZEE	146	stimuli_target_squaretriangles.svg	stimuli_distractor_diamondtriangles.svg	7	yes	57	0	346
6.6.1	win	2022-12-14	14:30:22	14:43:15	771251	634694a1401b066cb71e4c82	558052772	1	main_z	7	main_z	147	stimuli_target_circletriangles.svg	stimuli_distractor_trianglediamonds.svg	1	yes	44	1	1037
6.6.1	win	2022-12-14	14:30:22	14:43:15	771251	634694a1401b066cb71e4c82	558052772	1	main_z	7	advance_on_keypress_ZEE	148	stimuli_target_circletriangles.svg	stimuli_distractor_trianglediamonds.svg	1	yes	57	0	330
6.6.1	win	2022-12-14	14:30:22	14:43:17	773420	634694a1401b066cb71e4c82	558052772	1	main_z	7	main_z	149	stimuli_target_circlediamonds.svg	stimuli_distractor_diamondtriangles.svg	6	yes	44	1	1190
6.6.1	win	2022-12-14	14:30:22	14:43:17	773420	634694a1401b066cb71e4c82	558052772	1	main_z	7	advance_on_keypress_ZEE	150	stimuli_target_circlediamonds.svg	stimuli_distractor_diamondtriangles.svg	6	yes	57	0	336
6.6.1	win	2022-12-14	14:30:22	14:43:19	775434	634694a1401b066cb71e4c82	558052772	1	main_z	7	main_z	151	stimuli_target_squarediamonds.svg	stimuli_distractor_trianglediamonds.svg	4	yes	44	1	1037
6.6.1	win	2022-12-14	14:30:22	14:43:19	775434	634694a1401b066cb71e4c82	558052772	1	main_z	7	advance_on_keypress_ZEE	152	stimuli_target_squarediamonds.svg	stimuli_distractor_trianglediamonds.svg	4	yes	57	0	283
6.6.1	win	2022-12-14	14:30:22	14:43:21	777278	634694a1401b066cb71e4c82	558052772	1	main_z	7	main_z	153	stimuli_distractor_trianglediamonds.svg	stimuli_target_diamondcircles.svg	27	yes	44	1	915
6.6.1	win	2022-12-14	14:30:22	14:43:21	777278	634694a1401b066cb71e4c82	558052772	1	main_z	7	advance_on_keypress_ZEE	154	stimuli_distractor_trianglediamonds.svg	stimuli_target_diamondcircles.svg	27	yes	57	0	286
6.6.1	win	2022-12-14	14:30:22	14:43:24	780213	634694a1401b066cb71e4c82	558052772	1	main_z	7	main_z	155	stimuli_distractor_diamondtriangles.svg	stimuli_distractor_trianglediamonds.svg	38	no	0	1	2000
6.6.1	win	2022-12-14	14:30:22	14:43:24	780213	634694a1401b066cb71e4c82	558052772	1	main_z	7	advance_on_keypress_ZEE	156	stimuli_distractor_diamondtriangles.svg	stimuli_distractor_trianglediamonds.svg	38	no	57	0	1213
6.6.1	win	2022-12-14	14:30:22	14:43:28	783693	634694a1401b066cb71e4c82	558052772	1	main_z	7	main_z	157	stimuli_distractor_trianglediamonds.svg	stimuli_target_squarediamonds.svg	12	yes	44	1	1630
6.6.1	win	2022-12-14	14:30:22	14:43:28	783693	634694a1401b066cb71e4c82	558052772	1	main_z	7	advance_on_keypress_ZEE	158	stimuli_distractor_trianglediamonds.svg	stimuli_target_squarediamonds.svg	12	yes	57	0	295
6.6.1	win	2022-12-14	14:30:22	14:43:30	785767	634694a1401b066cb71e4c82	558052772	1	main_z	7	main_z	159	stimuli_target_trianglesquares.svg	stimuli_distractor_diamondtriangles.svg	22	yes	44	1	1122
6.6.1	win	2022-12-14	14:30:22	14:43:30	785767	634694a1401b066cb71e4c82	558052772	1	main_z	7	advance_on_keypress_ZEE	160	stimuli_target_trianglesquares.svg	stimuli_distractor_diamondtriangles.svg	22	yes	57	0	291
6.6.1	win	2022-12-14	14:30:22	14:46:21	956812	634694a1401b066cb71e4c82	558052772	1	practice_slash	9	practice_slash	1	stimuli_target_squarediamonds.svg	stimuli_distractor_trianglediamonds.svg	5	yes	53	1	787
6.6.1	win	2022-12-14	14:30:22	14:46:21	956812	634694a1401b066cb71e4c82	558052772	1	practice_slash	9	advance_on_keypress_SLASH	2	stimuli_target_squarediamonds.svg	stimuli_distractor_trianglediamonds.svg	5	yes	57	0	844
6.6.1	win	2022-12-14	14:30:22	14:46:24	960360	634694a1401b066cb71e4c82	558052772	1	practice_slash	9	practice_slash	3	stimuli_distractor_diamondtriangles.svg	stimuli_target_diamondcircles.svg	8	yes	53	1	1070
6.6.1	win	2022-12-14	14:30:22	14:46:24	960360	634694a1401b066cb71e4c82	558052772	1	practice_slash	9	advance_on_keypress_SLASH	4	stimuli_distractor_diamondtriangles.svg	stimuli_target_diamondcircles.svg	8	yes	57	0	527
6.6.1	win	2022-12-14	14:30:22	14:46:27	963210	634694a1401b066cb71e4c82	558052772	1	practice_slash	9	practice_slash	5	stimuli_distractor_diamondtriangles.svg	stimuli_target_trianglecircles.svg	9	yes	53	1	687
6.6.1	win	2022-12-14	14:30:22	14:46:27	963210	634694a1401b066cb71e4c82	558052772	1	practice_slash	9	advance_on_keypress_SLASH	6	stimuli_distractor_diamondtriangles.svg	stimuli_target_trianglecircles.svg	9	yes	57	0	1051
6.6.1	win	2022-12-14	14:30:22	14:46:30	966490	634694a1401b066cb71e4c82	558052772	1	practice_slash	9	practice_slash	7	stimuli_distractor_trianglediamonds.svg	stimuli_target_circlediamonds.svg	10	yes	53	1	583
6.6.1	win	2022-12-14	14:30:22	14:46:30	966490	634694a1401b066cb71e4c82	558052772	1	practice_slash	9	advance_on_keypress_SLASH	8	stimuli_distractor_trianglediamonds.svg	stimuli_target_circlediamonds.svg	10	yes	57	0	394
6.6.1	win	2022-12-14	14:30:22	14:46:34	969687	634694a1401b066cb71e4c82	558052772	1	practice_slash	9	practice_slash	9	stimuli_distractor_trianglediamonds.svg	stimuli_target_diamondcircles.svg	12	yes	53	1	1163
6.6.1	win	2022-12-14	14:30:22	14:46:34	969687	634694a1401b066cb71e4c82	558052772	1	practice_slash	9	advance_on_keypress_SLASH	10	stimuli_distractor_trianglediamonds.svg	stimuli_target_diamondcircles.svg	12	yes	57	0	634
6.6.1	win	2022-12-14	14:30:22	14:46:37	973079	634694a1401b066cb71e4c82	558052772	1	practice_slash	9	practice_slash	11	stimuli_target_circlediamonds.svg	stimuli_distractor_diamondtriangles.svg	1	yes	53	1	1106
6.6.1	win	2022-12-14	14:30:22	14:46:37	973079	634694a1401b066cb71e4c82	558052772	1	practice_slash	9	advance_on_keypress_SLASH	12	stimuli_target_circlediamonds.svg	stimuli_distractor_diamondtriangles.svg	1	yes	57	0	542
6.6.1	win	2022-12-14	14:30:22	14:46:40	976307	634694a1401b066cb71e4c82	558052772	1	practice_slash	9	practice_slash	13	stimuli_distractor_trianglediamonds.svg	stimuli_target_squarediamonds.svg	11	yes	53	1	1034
6.6.1	win	2022-12-14	14:30:22	14:46:40	976307	634694a1401b066cb71e4c82	558052772	1	practice_slash	9	advance_on_keypress_SLASH	14	stimuli_distractor_trianglediamonds.svg	stimuli_target_squarediamonds.svg	11	yes	57	0	1345
6.6.1	win	2022-12-14	14:30:22	14:46:44	980509	634694a1401b066cb71e4c82	558052772	1	practice_slash	9	practice_slash	15	stimuli_distractor_diamondtriangles.svg	stimuli_target_circletriangles.svg	7	yes	53	1	1220
6.6.1	win	2022-12-14	14:30:22	14:46:44	980509	634694a1401b066cb71e4c82	558052772	1	practice_slash	9	advance_on_keypress_SLASH	16	stimuli_distractor_diamondtriangles.svg	stimuli_target_circletriangles.svg	7	yes	57	0	596
6.6.1	win	2022-12-14	14:30:22	14:46:49	984755	634694a1401b066cb71e4c82	558052772	1	practice_slash	9	practice_slash	17	stimuli_distractor_diamondtriangles.svg	stimuli_distractor_trianglediamonds.svg	14	no	0	1	2000
6.6.1	win	2022-12-14	14:30:22	14:46:49	984755	634694a1401b066cb71e4c82	558052772	1	practice_slash	9	advance_on_keypress_SLASH	18	stimuli_distractor_diamondtriangles.svg	stimuli_distractor_trianglediamonds.svg	14	no	57	0	956
6.6.1	win	2022-12-14	14:30:22	14:46:52	988195	634694a1401b066cb71e4c82	558052772	1	practice_slash	9	practice_slash	19	stimuli_target_squarediamonds.svg	stimuli_distractor_diamondtriangles.svg	2	yes	53	1	842
6.6.1	win	2022-12-14	14:30:22	14:46:52	988195	634694a1401b066cb71e4c82	558052772	1	practice_slash	9	advance_on_keypress_SLASH	20	stimuli_target_squarediamonds.svg	stimuli_distractor_diamondtriangles.svg	2	yes	57	0	365
6.6.1	win	2022-12-14	14:30:22	14:46:55	991390	634694a1401b066cb71e4c82	558052772	1	practice_slash	9	practice_slash	21	stimuli_target_diamondsquares.svg	stimuli_distractor_trianglediamonds.svg	6	yes	53	1	1186
6.6.1	win	2022-12-14	14:30:22	14:46:55	991390	634694a1401b066cb71e4c82	558052772	1	practice_slash	9	advance_on_keypress_SLASH	22	stimuli_target_diamondsquares.svg	stimuli_distractor_trianglediamonds.svg	6	yes	57	0	847
6.6.1	win	2022-12-14	14:30:22	14:47:00	995887	634694a1401b066cb71e4c82	558052772	1	practice_slash	9	practice_slash	23	stimuli_distractor_trianglediamonds.svg	stimuli_distractor_trianglediamonds.svg	15	no	0	1	2000
6.6.1	win	2022-12-14	14:30:22	14:47:00	995887	634694a1401b066cb71e4c82	558052772	1	practice_slash	9	advance_on_keypress_SLASH	24	stimuli_distractor_trianglediamonds.svg	stimuli_distractor_trianglediamonds.svg	15	no	57	0	678
6.6.1	win	2022-12-14	14:30:22	14:47:03	999054	634694a1401b066cb71e4c82	558052772	1	practice_slash	9	practice_slash	25	stimuli_target_diamondsquares.svg	stimuli_distractor_diamondtriangles.svg	3	yes	53	1	835
6.6.1	win	2022-12-14	14:30:22	14:47:03	999054	634694a1401b066cb71e4c82	558052772	1	practice_slash	9	advance_on_keypress_SLASH	26	stimuli_target_diamondsquares.svg	stimuli_distractor_diamondtriangles.svg	3	yes	57	0	545
6.6.1	win	2022-12-14	14:30:22	14:47:07	1003236	634694a1401b066cb71e4c82	558052772	1	practice_slash	9	practice_slash	27	stimuli_distractor_diamondtriangles.svg	stimuli_distractor_diamondtriangles.svg	13	no	0	1	2000
6.6.1	win	2022-12-14	14:30:22	14:47:07	1003236	634694a1401b066cb71e4c82	558052772	1	practice_slash	9	advance_on_keypress_SLASH	28	stimuli_distractor_diamondtriangles.svg	stimuli_distractor_diamondtriangles.svg	13	no	57	0	546
6.6.1	win	2022-12-14	14:30:22	14:47:11	1007435	634694a1401b066cb71e4c82	558052772	1	practice_slash	9	practice_slash	29	stimuli_distractor_trianglediamonds.svg	stimuli_distractor_diamondtriangles.svg	16	no	0	1	2000
6.6.1	win	2022-12-14	14:30:22	14:47:11	1007435	634694a1401b066cb71e4c82	558052772	1	practice_slash	9	advance_on_keypress_SLASH	30	stimuli_distractor_trianglediamonds.svg	stimuli_distractor_diamondtriangles.svg	16	no	57	0	282
6.6.1	win	2022-12-14	14:30:22	14:47:14	1010201	634694a1401b066cb71e4c82	558052772	1	practice_slash	9	practice_slash	31	stimuli_target_circlediamonds.svg	stimuli_distractor_trianglediamonds.svg	4	yes	53	1	833
6.6.1	win	2022-12-14	14:30:22	14:47:14	1010201	634694a1401b066cb71e4c82	558052772	1	practice_slash	9	advance_on_keypress_SLASH	32	stimuli_target_circlediamonds.svg	stimuli_distractor_trianglediamonds.svg	4	yes	57	0	809
6.6.1	win	2022-12-14	14:30:22	14:47:55	1051198	634694a1401b066cb71e4c82	558052772	1	main_slash	11	main_slash	1	stimuli_distractor_diamondtriangles.svg	stimuli_target_trianglesquares.svg	30	yes	53	1	572
6.6.1	win	2022-12-14	14:30:22	14:47:55	1051198	634694a1401b066cb71e4c82	558052772	1	main_slash	11	advance_on_keypress_SLASH	2	stimuli_distractor_diamondtriangles.svg	stimuli_target_trianglesquares.svg	30	yes	57	0	592
6.6.1	win	2022-12-14	14:30:22	14:47:58	1054426	634694a1401b066cb71e4c82	558052772	1	main_slash	11	main_slash	3	stimuli_distractor_trianglediamonds.svg	stimuli_distractor_trianglediamonds.svg	34	no	0	1	2000
6.6.1	win	2022-12-14	14:30:22	14:47:58	1054426	634694a1401b066cb71e4c82	558052772	1	main_slash	11	advance_on_keypress_SLASH	4	stimuli_distractor_trianglediamonds.svg	stimuli_distractor_trianglediamonds.svg	34	no	57	0	423
6.6.1	win	2022-12-14	14:30:22	14:48:01	1057493	634694a1401b066cb71e4c82	558052772	1	main_slash	11	main_slash	5	stimuli_distractor_diamondtriangles.svg	stimuli_distractor_diamondtriangles.svg	39	no	0	1	2000
6.6.1	win	2022-12-14	14:30:22	14:48:01	1057493	634694a1401b066cb71e4c82	558052772	1	main_slash	11	advance_on_keypress_SLASH	6	stimuli_distractor_diamondtriangles.svg	stimuli_distractor_diamondtriangles.svg	39	no	57	0	266
6.6.1	win	2022-12-14	14:30:22	14:48:03	1059099	634694a1401b066cb71e4c82	558052772	1	main_slash	11	main_slash	7	stimuli_distractor_trianglediamonds.svg	stimuli_target_circlediamonds.svg	10	yes	53	1	690
6.6.1	win	2022-12-14	14:30:22	14:48:03	1059099	634694a1401b066cb71e4c82	558052772	1	main_slash	11	advance_on_keypress_SLASH	8	stimuli_distractor_trianglediamonds.svg	stimuli_target_circlediamonds.svg	10	yes	57	0	1480
6.6.1	win	2022-12-14	14:30:22	14:48:06	1061931	634694a1401b066cb71e4c82	558052772	1	main_slash	11	main_slash	9	stimuli_distractor_diamondtriangles.svg	stimuli_target_trianglecircles.svg	29	yes	53	1	706
6.6.1	win	2022-12-14	14:30:22	14:48:06	1061931	634694a1401b066cb71e4c82	558052772	1	main_slash	11	advance_on_keypress_SLASH	10	stimuli_distractor_diamondtriangles.svg	stimuli_target_trianglecircles.svg	29	yes	57	0	770
6.6.1	win	2022-12-14	14:30:22	14:48:09	1065342	634694a1401b066cb71e4c82	558052772	1	main_slash	11	main_slash	11	stimuli_distractor_diamondtriangles.svg	stimuli_distractor_trianglediamonds.svg	37	no	0	1	2000
6.6.1	win	2022-12-14	14:30:22	14:48:09	1065342	634694a1401b066cb71e4c82	558052772	1	main_slash	11	advance_on_keypress_SLASH	12	stimuli_distractor_diamondtriangles.svg	stimuli_distractor_trianglediamonds.svg	37	no	57	0	558
6.6.1	win	2022-12-14	14:30:22	14:48:12	1067804	634694a1401b066cb71e4c82	558052772	1	main_slash	11	main_slash	13	stimuli_target_squaretriangles.svg	stimuli_distractor_trianglediamonds.svg	3	yes	53	1	1263
6.6.1	win	2022-12-14	14:30:22	14:48:12	1067804	634694a1401b066cb71e4c82	558052772	1	main_slash	11	advance_on_keypress_SLASH	14	stimuli_target_squaretriangles.svg	stimuli_distractor_trianglediamonds.svg	3	yes	57	0	446
6.6.1	win	2022-12-14	14:30:22	14:48:14	1069767	634694a1401b066cb71e4c82	558052772	1	main_slash	11	main_slash	15	stimuli_distractor_diamondtriangles.svg	stimuli_target_diamondsquares.svg	32	yes	53	1	876
6.6.1	win	2022-12-14	14:30:22	14:48:14	1069767	634694a1401b066cb71e4c82	558052772	1	main_slash	11	advance_on_keypress_SLASH	16	stimuli_distractor_diamondtriangles.svg	stimuli_target_diamondsquares.svg	32	yes	57	0	568
6.6.1	win	2022-12-14	14:30:22	14:48:16	1072105	634694a1401b066cb71e4c82	558052772	1	main_slash	11	main_slash	17	stimuli_distractor_trianglediamonds.svg	stimuli_target_trianglecircles.svg	25	yes	53	1	1131
6.6.1	win	2022-12-14	14:30:22	14:48:16	1072105	634694a1401b066cb71e4c82	558052772	1	main_slash	11	advance_on_keypress_SLASH	18	stimuli_distractor_trianglediamonds.svg	stimuli_target_trianglecircles.svg	25	yes	57	0	434
6.6.1	win	2022-12-14	14:30:22	14:48:18	1074099	634694a1401b066cb71e4c82	558052772	1	main_slash	11	main_slash	19	stimuli_target_circletriangles.svg	stimuli_distractor_trianglediamonds.svg	1	yes	53	1	908
6.6.1	win	2022-12-14	14:30:22	14:48:18	1074099	634694a1401b066cb71e4c82	558052772	1	main_slash	11	advance_on_keypress_SLASH	20	stimuli_target_circletriangles.svg	stimuli_distractor_trianglediamonds.svg	1	yes	57	0	641
6.6.1	win	2022-12-14	14:30:22	14:48:20	1076240	634694a1401b066cb71e4c82	558052772	1	main_slash	11	main_slash	21	stimuli_target_diamondsquares.svg	stimuli_distractor_diamondtriangles.svg	24	yes	53	1	866
6.6.1	win	2022-12-14	14:30:22	14:48:20	1076240	634694a1401b066cb71e4c82	558052772	1	main_slash	11	advance_on_keypress_SLASH	22	stimuli_target_diamondsquares.svg	stimuli_distractor_diamondtriangles.svg	24	yes	57	0	342
6.6.1	win	2022-12-14	14:30:22	14:48:22	1077929	634694a1401b066cb71e4c82	558052772	1	main_slash	11	main_slash	23	stimuli_target_circlediamonds.svg	stimuli_distractor_trianglediamonds.svg	2	yes	53	1	689
6.6.1	win	2022-12-14	14:30:22	14:48:22	1077929	634694a1401b066cb71e4c82	558052772	1	main_slash	11	advance_on_keypress_SLASH	24	stimuli_target_circlediamonds.svg	stimuli_distractor_trianglediamonds.svg	2	yes	57	0	405
6.6.1	win	2022-12-14	14:30:22	14:48:25	1080973	634694a1401b066cb71e4c82	558052772	1	main_slash	11	main_slash	25	stimuli_distractor_diamondtriangles.svg	stimuli_distractor_trianglediamonds.svg	38	no	0	1	2000
6.6.1	win	2022-12-14	14:30:22	14:48:25	1080973	634694a1401b066cb71e4c82	558052772	1	main_slash	11	advance_on_keypress_SLASH	26	stimuli_distractor_diamondtriangles.svg	stimuli_distractor_trianglediamonds.svg	38	no	57	0	362
6.6.1	win	2022-12-14	14:30:22	14:48:27	1082896	634694a1401b066cb71e4c82	558052772	1	main_slash	11	main_slash	27	stimuli_distractor_diamondtriangles.svg	stimuli_target_squarediamonds.svg	16	yes	53	1	923
6.6.1	win	2022-12-14	14:30:22	14:48:27	1082896	634694a1401b066cb71e4c82	558052772	1	main_slash	11	advance_on_keypress_SLASH	28	stimuli_distractor_diamondtriangles.svg	stimuli_target_squarediamonds.svg	16	yes	57	0	408
6.6.1	win	2022-12-14	14:30:22	14:48:30	1085939	634694a1401b066cb71e4c82	558052772	1	main_slash	11	main_slash	29	stimuli_distractor_trianglediamonds.svg	stimuli_distractor_diamondtriangles.svg	35	no	0	1	2000
6.6.1	win	2022-12-14	14:30:22	14:48:30	1085939	634694a1401b066cb71e4c82	558052772	1	main_slash	11	advance_on_keypress_SLASH	30	stimuli_distractor_trianglediamonds.svg	stimuli_distractor_diamondtriangles.svg	35	no	57	0	506
6.6.1	win	2022-12-14	14:30:22	14:48:32	1087788	634694a1401b066cb71e4c82	558052772	1	main_slash	11	main_slash	31	stimuli_distractor_trianglediamonds.svg	stimuli_target_trianglesquares.svg	26	yes	53	1	699
6.6.1	win	2022-12-14	14:30:22	14:48:32	1087788	634694a1401b066cb71e4c82	558052772	1	main_slash	11	advance_on_keypress_SLASH	32	stimuli_distractor_trianglediamonds.svg	stimuli_target_trianglesquares.svg	26	yes	57	0	376
6.6.1	win	2022-12-14	14:30:22	14:48:34	1089719	634694a1401b066cb71e4c82	558052772	1	main_slash	11	main_slash	33	stimuli_target_trianglecircles.svg	stimuli_distractor_trianglediamonds.svg	17	yes	53	1	914
6.6.1	win	2022-12-14	14:30:22	14:48:34	1089719	634694a1401b066cb71e4c82	558052772	1	main_slash	11	advance_on_keypress_SLASH	34	stimuli_target_trianglecircles.svg	stimuli_distractor_trianglediamonds.svg	17	yes	57	0	393
6.6.1	win	2022-12-14	14:30:22	14:48:37	1092755	634694a1401b066cb71e4c82	558052772	1	main_slash	11	main_slash	35	stimuli_target_trianglecircles.svg	stimuli_distractor_diamondtriangles.svg	21	yes	0	0	2000
6.6.1	win	2022-12-14	14:30:22	14:48:37	1092755	634694a1401b066cb71e4c82	558052772	1	main_slash	11	advance_on_keypress_SLASH	36	stimuli_target_trianglecircles.svg	stimuli_distractor_diamondtriangles.svg	21	yes	57	0	73
6.6.1	win	2022-12-14	14:30:22	14:48:38	1094458	634694a1401b066cb71e4c82	558052772	1	main_slash	11	main_slash	37	stimuli_target_trianglesquares.svg	stimuli_distractor_diamondtriangles.svg	22	yes	53	1	987
6.6.1	win	2022-12-14	14:30:22	14:48:38	1094458	634694a1401b066cb71e4c82	558052772	1	main_slash	11	advance_on_keypress_SLASH	38	stimuli_target_trianglesquares.svg	stimuli_distractor_diamondtriangles.svg	22	yes	57	0	1994
6.6.1	win	2022-12-14	14:30:22	14:48:42	1097782	634694a1401b066cb71e4c82	558052772	1	main_slash	11	main_slash	39	stimuli_target_diamondsquares.svg	stimuli_distractor_trianglediamonds.svg	20	yes	53	1	695
6.6.1	win	2022-12-14	14:30:22	14:48:42	1097782	634694a1401b066cb71e4c82	558052772	1	main_slash	11	advance_on_keypress_SLASH	40	stimuli_target_diamondsquares.svg	stimuli_distractor_trianglediamonds.svg	20	yes	57	0	456
6.6.1	win	2022-12-14	14:30:22	14:48:43	1099635	634694a1401b066cb71e4c82	558052772	1	main_slash	11	main_slash	41	stimuli_distractor_diamondtriangles.svg	stimuli_target_circlediamonds.svg	14	yes	53	1	764
6.6.1	win	2022-12-14	14:30:22	14:48:43	1099635	634694a1401b066cb71e4c82	558052772	1	main_slash	11	advance_on_keypress_SLASH	42	stimuli_distractor_diamondtriangles.svg	stimuli_target_circlediamonds.svg	14	yes	57	0	390
6.6.1	win	2022-12-14	14:30:22	14:48:46	1102670	634694a1401b066cb71e4c82	558052772	1	main_slash	11	main_slash	43	stimuli_target_diamondcircles.svg	stimuli_distractor_diamondtriangles.svg	23	yes	0	0	2000
6.6.1	win	2022-12-14	14:30:22	14:48:46	1102670	634694a1401b066cb71e4c82	558052772	1	main_slash	11	advance_on_keypress_SLASH	44	stimuli_target_diamondcircles.svg	stimuli_distractor_diamondtriangles.svg	23	yes	57	0	1652
6.6.1	win	2022-12-14	14:30:22	14:48:51	1106970	634694a1401b066cb71e4c82	558052772	1	main_slash	11	main_slash	45	stimuli_distractor_trianglediamonds.svg	stimuli_distractor_diamondtriangles.svg	36	no	0	1	2000
6.6.1	win	2022-12-14	14:30:22	14:48:51	1106970	634694a1401b066cb71e4c82	558052772	1	main_slash	11	advance_on_keypress_SLASH	46	stimuli_distractor_trianglediamonds.svg	stimuli_distractor_diamondtriangles.svg	36	no	57	0	331
6.6.1	win	2022-12-14	14:30:22	14:48:53	1108722	634694a1401b066cb71e4c82	558052772	1	main_slash	11	main_slash	47	stimuli_distractor_diamondtriangles.svg	stimuli_target_squaretriangles.svg	15	yes	53	1	769
6.6.1	win	2022-12-14	14:30:22	14:48:53	1108722	634694a1401b066cb71e4c82	558052772	1	main_slash	11	advance_on_keypress_SLASH	48	stimuli_distractor_diamondtriangles.svg	stimuli_target_squaretriangles.svg	15	yes	57	0	430
6.6.1	win	2022-12-14	14:30:22	14:48:54	1110505	634694a1401b066cb71e4c82	558052772	1	main_slash	11	main_slash	49	stimuli_distractor_trianglediamonds.svg	stimuli_target_squaretriangles.svg	11	yes	53	1	702
6.6.1	win	2022-12-14	14:30:22	14:48:54	1110505	634694a1401b066cb71e4c82	558052772	1	main_slash	11	advance_on_keypress_SLASH	50	stimuli_distractor_trianglediamonds.svg	stimuli_target_squaretriangles.svg	11	yes	57	0	404
6.6.1	win	2022-12-14	14:30:22	14:48:56	1112374	634694a1401b066cb71e4c82	558052772	1	main_slash	11	main_slash	51	stimuli_target_trianglesquares.svg	stimuli_distractor_trianglediamonds.svg	18	yes	53	1	823
6.6.1	win	2022-12-14	14:30:22	14:48:56	1112374	634694a1401b066cb71e4c82	558052772	1	main_slash	11	advance_on_keypress_SLASH	52	stimuli_target_trianglesquares.svg	stimuli_distractor_trianglediamonds.svg	18	yes	57	0	432
6.6.1	win	2022-12-14	14:30:22	14:48:59	1115428	634694a1401b066cb71e4c82	558052772	1	main_slash	11	main_slash	53	stimuli_target_squarediamonds.svg	stimuli_distractor_trianglediamonds.svg	4	yes	53	1	1976
6.6.1	win	2022-12-14	14:30:22	14:48:59	1115428	634694a1401b066cb71e4c82	558052772	1	main_slash	11	advance_on_keypress_SLASH	54	stimuli_target_squarediamonds.svg	stimuli_distractor_trianglediamonds.svg	4	yes	57	0	642
6.6.1	win	2022-12-14	14:30:22	14:49:01	1117400	634694a1401b066cb71e4c82	558052772	1	main_slash	11	main_slash	55	stimuli_target_diamondcircles.svg	stimuli_distractor_trianglediamonds.svg	19	yes	53	1	698
6.6.1	win	2022-12-14	14:30:22	14:49:01	1117400	634694a1401b066cb71e4c82	558052772	1	main_slash	11	advance_on_keypress_SLASH	56	stimuli_target_diamondcircles.svg	stimuli_distractor_trianglediamonds.svg	19	yes	57	0	405
6.6.1	win	2022-12-14	14:30:22	14:49:03	1119189	634694a1401b066cb71e4c82	558052772	1	main_slash	11	main_slash	57	stimuli_distractor_diamondtriangles.svg	stimuli_target_circletriangles.svg	13	yes	53	1	739
6.6.1	win	2022-12-14	14:30:22	14:49:03	1119189	634694a1401b066cb71e4c82	558052772	1	main_slash	11	advance_on_keypress_SLASH	58	stimuli_distractor_diamondtriangles.svg	stimuli_target_circletriangles.svg	13	yes	57	0	375
6.6.1	win	2022-12-14	14:30:22	14:49:05	1121091	634694a1401b066cb71e4c82	558052772	1	main_slash	11	main_slash	59	stimuli_distractor_trianglediamonds.svg	stimuli_target_diamondsquares.svg	28	yes	53	1	890
6.6.1	win	2022-12-14	14:30:22	14:49:05	1121091	634694a1401b066cb71e4c82	558052772	1	main_slash	11	advance_on_keypress_SLASH	60	stimuli_distractor_trianglediamonds.svg	stimuli_target_diamondsquares.svg	28	yes	57	0	363
6.6.1	win	2022-12-14	14:30:22	14:49:07	1122927	634694a1401b066cb71e4c82	558052772	1	main_slash	11	main_slash	61	stimuli_target_circletriangles.svg	stimuli_distractor_diamondtriangles.svg	5	yes	53	1	843
6.6.1	win	2022-12-14	14:30:22	14:49:07	1122927	634694a1401b066cb71e4c82	558052772	1	main_slash	11	advance_on_keypress_SLASH	62	stimuli_target_circletriangles.svg	stimuli_distractor_diamondtriangles.svg	5	yes	57	0	353
6.6.1	win	2022-12-14	14:30:22	14:49:10	1125917	634694a1401b066cb71e4c82	558052772	1	main_slash	11	main_slash	63	stimuli_distractor_trianglediamonds.svg	stimuli_distractor_trianglediamonds.svg	33	no	0	1	2000
6.6.1	win	2022-12-14	14:30:22	14:49:10	1125917	634694a1401b066cb71e4c82	558052772	1	main_slash	11	advance_on_keypress_SLASH	64	stimuli_distractor_trianglediamonds.svg	stimuli_distractor_trianglediamonds.svg	33	no	57	0	308
6.6.1	win	2022-12-14	14:30:22	14:49:11	1127505	634694a1401b066cb71e4c82	558052772	1	main_slash	11	main_slash	65	stimuli_distractor_diamondtriangles.svg	stimuli_target_diamondcircles.svg	31	yes	53	1	638
6.6.1	win	2022-12-14	14:30:22	14:49:11	1127505	634694a1401b066cb71e4c82	558052772	1	main_slash	11	advance_on_keypress_SLASH	66	stimuli_distractor_diamondtriangles.svg	stimuli_target_diamondcircles.svg	31	yes	57	0	369
6.6.1	win	2022-12-14	14:30:22	14:49:13	1129327	634694a1401b066cb71e4c82	558052772	1	main_slash	11	main_slash	67	stimuli_target_squarediamonds.svg	stimuli_distractor_diamondtriangles.svg	8	yes	53	1	810
6.6.1	win	2022-12-14	14:30:22	14:49:13	1129327	634694a1401b066cb71e4c82	558052772	1	main_slash	11	advance_on_keypress_SLASH	68	stimuli_target_squarediamonds.svg	stimuli_distractor_diamondtriangles.svg	8	yes	57	0	427
6.6.1	win	2022-12-14	14:30:22	14:49:15	1131126	634694a1401b066cb71e4c82	558052772	1	main_slash	11	main_slash	69	stimuli_distractor_trianglediamonds.svg	stimuli_target_diamondcircles.svg	27	yes	53	1	743
6.6.1	win	2022-12-14	14:30:22	14:49:15	1131126	634694a1401b066cb71e4c82	558052772	1	main_slash	11	advance_on_keypress_SLASH	70	stimuli_distractor_trianglediamonds.svg	stimuli_target_diamondcircles.svg	27	yes	57	0	397
6.6.1	win	2022-12-14	14:30:22	14:49:17	1133285	634694a1401b066cb71e4c82	558052772	1	main_slash	11	main_slash	71	stimuli_target_squaretriangles.svg	stimuli_distractor_diamondtriangles.svg	7	yes	53	1	1120
6.6.1	win	2022-12-14	14:30:22	14:49:17	1133285	634694a1401b066cb71e4c82	558052772	1	main_slash	11	advance_on_keypress_SLASH	72	stimuli_target_squaretriangles.svg	stimuli_distractor_diamondtriangles.svg	7	yes	57	0	409
6.6.1	win	2022-12-14	14:30:22	14:49:19	1135123	634694a1401b066cb71e4c82	558052772	1	main_slash	11	main_slash	73	stimuli_distractor_trianglediamonds.svg	stimuli_target_squarediamonds.svg	12	yes	53	1	790
6.6.1	win	2022-12-14	14:30:22	14:49:19	1135123	634694a1401b066cb71e4c82	558052772	1	main_slash	11	advance_on_keypress_SLASH	74	stimuli_distractor_trianglediamonds.svg	stimuli_target_squarediamonds.svg	12	yes	57	0	361
6.6.1	win	2022-12-14	14:30:22	14:49:22	1138115	634694a1401b066cb71e4c82	558052772	1	main_slash	11	main_slash	75	stimuli_distractor_diamondtriangles.svg	stimuli_distractor_diamondtriangles.svg	40	no	0	1	2000
6.6.1	win	2022-12-14	14:30:22	14:49:22	1138115	634694a1401b066cb71e4c82	558052772	1	main_slash	11	advance_on_keypress_SLASH	76	stimuli_distractor_diamondtriangles.svg	stimuli_distractor_diamondtriangles.svg	40	no	57	0	383
6.6.1	win	2022-12-14	14:30:22	14:49:24	1139849	634694a1401b066cb71e4c82	558052772	1	main_slash	11	main_slash	77	stimuli_target_circlediamonds.svg	stimuli_distractor_diamondtriangles.svg	6	yes	53	1	701
6.6.1	win	2022-12-14	14:30:22	14:49:24	1139849	634694a1401b066cb71e4c82	558052772	1	main_slash	11	advance_on_keypress_SLASH	78	stimuli_target_circlediamonds.svg	stimuli_distractor_diamondtriangles.svg	6	yes	57	0	323
6.6.1	win	2022-12-14	14:30:22	14:49:25	1141675	634694a1401b066cb71e4c82	558052772	1	main_slash	11	main_slash	79	stimuli_distractor_trianglediamonds.svg	stimuli_target_circletriangles.svg	9	yes	53	1	860
6.6.1	win	2022-12-14	14:30:22	14:49:25	1141675	634694a1401b066cb71e4c82	558052772	1	main_slash	11	advance_on_keypress_SLASH	80	stimuli_distractor_trianglediamonds.svg	stimuli_target_circletriangles.svg	9	yes	57	0	361
6.6.1	win	2022-12-14	14:30:22	14:49:28	1143814	634694a1401b066cb71e4c82	558052772	1	main_slash	11	main_slash	81	stimuli_target_circlediamonds.svg	stimuli_distractor_trianglediamonds.svg	2	yes	53	1	1149
6.6.1	win	2022-12-14	14:30:22	14:49:28	1143814	634694a1401b066cb71e4c82	558052772	1	main_slash	11	advance_on_keypress_SLASH	82	stimuli_target_circlediamonds.svg	stimuli_distractor_trianglediamonds.svg	2	yes	57	0	379
6.6.1	win	2022-12-14	14:30:22	14:49:30	1145686	634694a1401b066cb71e4c82	558052772	1	main_slash	11	main_slash	83	stimuli_target_trianglecircles.svg	stimuli_distractor_diamondtriangles.svg	21	yes	53	1	838
6.6.1	win	2022-12-14	14:30:22	14:49:30	1145686	634694a1401b066cb71e4c82	558052772	1	main_slash	11	advance_on_keypress_SLASH	84	stimuli_target_trianglecircles.svg	stimuli_distractor_diamondtriangles.svg	21	yes	57	0	322
6.6.1	win	2022-12-14	14:30:22	14:49:32	1147723	634694a1401b066cb71e4c82	558052772	1	main_slash	11	main_slash	85	stimuli_distractor_trianglediamonds.svg	stimuli_target_squaretriangles.svg	11	yes	53	1	1075
6.6.1	win	2022-12-14	14:30:22	14:49:32	1147723	634694a1401b066cb71e4c82	558052772	1	main_slash	11	advance_on_keypress_SLASH	86	stimuli_distractor_trianglediamonds.svg	stimuli_target_squaretriangles.svg	11	yes	57	0	329
6.6.1	win	2022-12-14	14:30:22	14:49:33	1149440	634694a1401b066cb71e4c82	558052772	1	main_slash	11	main_slash	87	stimuli_target_trianglecircles.svg	stimuli_distractor_trianglediamonds.svg	17	yes	53	1	761
6.6.1	win	2022-12-14	14:30:22	14:49:33	1149440	634694a1401b066cb71e4c82	558052772	1	main_slash	11	advance_on_keypress_SLASH	88	stimuli_target_trianglecircles.svg	stimuli_distractor_trianglediamonds.svg	17	yes	57	0	359
6.6.1	win	2022-12-14	14:30:22	14:49:35	1151601	634694a1401b066cb71e4c82	558052772	1	main_slash	11	main_slash	89	stimuli_target_diamondsquares.svg	stimuli_distractor_diamondtriangles.svg	24	yes	53	1	1171
6.6.1	win	2022-12-14	14:30:22	14:49:35	1151601	634694a1401b066cb71e4c82	558052772	1	main_slash	11	advance_on_keypress_SLASH	90	stimuli_target_diamondsquares.svg	stimuli_distractor_diamondtriangles.svg	24	yes	57	0	307
6.6.1	win	2022-12-14	14:30:22	14:49:37	1153597	634694a1401b066cb71e4c82	558052772	1	main_slash	11	main_slash	91	stimuli_distractor_trianglediamonds.svg	stimuli_target_circlediamonds.svg	10	yes	53	1	1050
6.6.1	win	2022-12-14	14:30:22	14:49:37	1153597	634694a1401b066cb71e4c82	558052772	1	main_slash	11	advance_on_keypress_SLASH	92	stimuli_distractor_trianglediamonds.svg	stimuli_target_circlediamonds.svg	10	yes	57	0	377
6.6.1	win	2022-12-14	14:30:22	14:49:39	1155363	634694a1401b066cb71e4c82	558052772	1	main_slash	11	main_slash	93	stimuli_distractor_trianglediamonds.svg	stimuli_target_squarediamonds.svg	12	yes	53	1	750
6.6.1	win	2022-12-14	14:30:22	14:49:39	1155363	634694a1401b066cb71e4c82	558052772	1	main_slash	11	advance_on_keypress_SLASH	94	stimuli_distractor_trianglediamonds.svg	stimuli_target_squarediamonds.svg	12	yes	57	0	332
6.6.1	win	2022-12-14	14:30:22	14:49:41	1157042	634694a1401b066cb71e4c82	558052772	1	main_slash	11	main_slash	95	stimuli_distractor_diamondtriangles.svg	stimuli_target_circletriangles.svg	13	yes	53	1	696
6.6.1	win	2022-12-14	14:30:22	14:49:41	1157042	634694a1401b066cb71e4c82	558052772	1	main_slash	11	advance_on_keypress_SLASH	96	stimuli_distractor_diamondtriangles.svg	stimuli_target_circletriangles.svg	13	yes	57	0	335
6.6.1	win	2022-12-14	14:30:22	14:49:43	1158971	634694a1401b066cb71e4c82	558052772	1	main_slash	11	main_slash	97	stimuli_target_trianglesquares.svg	stimuli_distractor_diamondtriangles.svg	22	yes	53	1	958
6.6.1	win	2022-12-14	14:30:22	14:49:43	1158971	634694a1401b066cb71e4c82	558052772	1	main_slash	11	advance_on_keypress_SLASH	98	stimuli_target_trianglesquares.svg	stimuli_distractor_diamondtriangles.svg	22	yes	57	0	392
6.6.1	win	2022-12-14	14:30:22	14:49:46	1161996	634694a1401b066cb71e4c82	558052772	1	main_slash	11	main_slash	99	stimuli_distractor_diamondtriangles.svg	stimuli_distractor_diamondtriangles.svg	39	no	0	1	2000
6.6.1	win	2022-12-14	14:30:22	14:49:46	1161996	634694a1401b066cb71e4c82	558052772	1	main_slash	11	advance_on_keypress_SLASH	100	stimuli_distractor_diamondtriangles.svg	stimuli_distractor_diamondtriangles.svg	39	no	57	0	791
6.6.1	win	2022-12-14	14:30:22	14:49:48	1164362	634694a1401b066cb71e4c82	558052772	1	main_slash	11	main_slash	101	stimuli_distractor_diamondtriangles.svg	stimuli_target_circlediamonds.svg	14	yes	53	1	932
6.6.1	win	2022-12-14	14:30:22	14:49:48	1164362	634694a1401b066cb71e4c82	558052772	1	main_slash	11	advance_on_keypress_SLASH	102	stimuli_distractor_diamondtriangles.svg	stimuli_target_circlediamonds.svg	14	yes	57	0	383
6.6.1	win	2022-12-14	14:30:22	14:49:51	1167395	634694a1401b066cb71e4c82	558052772	1	main_slash	11	main_slash	103	stimuli_distractor_diamondtriangles.svg	stimuli_distractor_diamondtriangles.svg	40	no	0	1	2000
6.6.1	win	2022-12-14	14:30:22	14:49:51	1167395	634694a1401b066cb71e4c82	558052772	1	main_slash	11	advance_on_keypress_SLASH	104	stimuli_distractor_diamondtriangles.svg	stimuli_distractor_diamondtriangles.svg	40	no	57	0	1078
6.6.1	win	2022-12-14	14:30:22	14:49:54	1170096	634694a1401b066cb71e4c82	558052772	1	main_slash	11	main_slash	105	stimuli_target_squaretriangles.svg	stimuli_distractor_diamondtriangles.svg	7	yes	53	1	985
6.6.1	win	2022-12-14	14:30:22	14:49:54	1170096	634694a1401b066cb71e4c82	558052772	1	main_slash	11	advance_on_keypress_SLASH	106	stimuli_target_squaretriangles.svg	stimuli_distractor_diamondtriangles.svg	7	yes	57	0	1208
6.6.1	win	2022-12-14	14:30:22	14:49:56	1172629	634694a1401b066cb71e4c82	558052772	1	main_slash	11	main_slash	107	stimuli_target_squarediamonds.svg	stimuli_distractor_trianglediamonds.svg	4	yes	53	1	686
6.6.1	win	2022-12-14	14:30:22	14:49:56	1172629	634694a1401b066cb71e4c82	558052772	1	main_slash	11	advance_on_keypress_SLASH	108	stimuli_target_squarediamonds.svg	stimuli_distractor_trianglediamonds.svg	4	yes	57	0	415
6.6.1	win	2022-12-14	14:30:22	14:49:59	1175159	634694a1401b066cb71e4c82	558052772	1	main_slash	11	main_slash	109	stimuli_distractor_trianglediamonds.svg	stimuli_distractor_diamondtriangles.svg	36	no	53	0	1465
6.6.1	win	2022-12-14	14:30:22	14:49:59	1175159	634694a1401b066cb71e4c82	558052772	1	main_slash	11	advance_on_keypress_SLASH	110	stimuli_distractor_trianglediamonds.svg	stimuli_distractor_diamondtriangles.svg	36	no	57	0	380
6.6.1	win	2022-12-14	14:30:22	14:50:01	1177182	634694a1401b066cb71e4c82	558052772	1	main_slash	11	main_slash	111	stimuli_distractor_diamondtriangles.svg	stimuli_target_diamondcircles.svg	31	yes	53	1	988
6.6.1	win	2022-12-14	14:30:22	14:50:01	1177182	634694a1401b066cb71e4c82	558052772	1	main_slash	11	advance_on_keypress_SLASH	112	stimuli_distractor_diamondtriangles.svg	stimuli_target_diamondcircles.svg	31	yes	57	0	207
6.6.1	win	2022-12-14	14:30:22	14:50:03	1179418	634694a1401b066cb71e4c82	558052772	1	main_slash	11	main_slash	113	stimuli_target_trianglesquares.svg	stimuli_distractor_trianglediamonds.svg	18	yes	53	1	1391
6.6.1	win	2022-12-14	14:30:22	14:50:03	1179418	634694a1401b066cb71e4c82	558052772	1	main_slash	11	advance_on_keypress_SLASH	114	stimuli_target_trianglesquares.svg	stimuli_distractor_trianglediamonds.svg	18	yes	57	0	301
6.6.1	win	2022-12-14	14:30:22	14:50:05	1181300	634694a1401b066cb71e4c82	558052772	1	main_slash	11	main_slash	115	stimuli_target_squaretriangles.svg	stimuli_distractor_trianglediamonds.svg	3	yes	53	1	940
6.6.1	win	2022-12-14	14:30:22	14:50:05	1181300	634694a1401b066cb71e4c82	558052772	1	main_slash	11	advance_on_keypress_SLASH	116	stimuli_target_squaretriangles.svg	stimuli_distractor_trianglediamonds.svg	3	yes	57	0	339
6.6.1	win	2022-12-14	14:30:22	14:50:07	1183138	634694a1401b066cb71e4c82	558052772	1	main_slash	11	main_slash	117	stimuli_distractor_trianglediamonds.svg	stimuli_target_trianglecircles.svg	25	yes	53	1	862
6.6.1	win	2022-12-14	14:30:22	14:50:07	1183138	634694a1401b066cb71e4c82	558052772	1	main_slash	11	advance_on_keypress_SLASH	118	stimuli_distractor_trianglediamonds.svg	stimuli_target_trianglecircles.svg	25	yes	57	0	339
6.6.1	win	2022-12-14	14:30:22	14:50:09	1184806	634694a1401b066cb71e4c82	558052772	1	main_slash	11	main_slash	119	stimuli_target_circletriangles.svg	stimuli_distractor_diamondtriangles.svg	5	yes	53	1	698
6.6.1	win	2022-12-14	14:30:22	14:50:09	1184806	634694a1401b066cb71e4c82	558052772	1	main_slash	11	advance_on_keypress_SLASH	120	stimuli_target_circletriangles.svg	stimuli_distractor_diamondtriangles.svg	5	yes	57	0	357
6.6.1	win	2022-12-14	14:30:22	14:50:12	1187809	634694a1401b066cb71e4c82	558052772	1	main_slash	11	main_slash	121	stimuli_distractor_trianglediamonds.svg	stimuli_distractor_trianglediamonds.svg	33	no	0	1	2000
6.6.1	win	2022-12-14	14:30:22	14:50:12	1187809	634694a1401b066cb71e4c82	558052772	1	main_slash	11	advance_on_keypress_SLASH	122	stimuli_distractor_trianglediamonds.svg	stimuli_distractor_trianglediamonds.svg	33	no	57	0	414
6.6.1	win	2022-12-14	14:30:22	14:50:13	1189487	634694a1401b066cb71e4c82	558052772	1	main_slash	11	main_slash	123	stimuli_distractor_diamondtriangles.svg	stimuli_target_squaretriangles.svg	15	yes	53	1	612
6.6.1	win	2022-12-14	14:30:22	14:50:13	1189487	634694a1401b066cb71e4c82	558052772	1	main_slash	11	advance_on_keypress_SLASH	124	stimuli_distractor_diamondtriangles.svg	stimuli_target_squaretriangles.svg	15	yes	57	0	374
6.6.1	win	2022-12-14	14:30:22	14:50:16	1192492	634694a1401b066cb71e4c82	558052772	1	main_slash	11	main_slash	125	stimuli_distractor_trianglediamonds.svg	stimuli_distractor_trianglediamonds.svg	34	no	0	1	2000
6.6.1	win	2022-12-14	14:30:22	14:50:16	1192492	634694a1401b066cb71e4c82	558052772	1	main_slash	11	advance_on_keypress_SLASH	126	stimuli_distractor_trianglediamonds.svg	stimuli_distractor_trianglediamonds.svg	34	no	57	0	398
6.6.1	win	2022-12-14	14:30:22	14:50:18	1194195	634694a1401b066cb71e4c82	558052772	1	main_slash	11	main_slash	127	stimuli_distractor_diamondtriangles.svg	stimuli_target_diamondsquares.svg	32	yes	53	1	653
6.6.1	win	2022-12-14	14:30:22	14:50:18	1194195	634694a1401b066cb71e4c82	558052772	1	main_slash	11	advance_on_keypress_SLASH	128	stimuli_distractor_diamondtriangles.svg	stimuli_target_diamondsquares.svg	32	yes	57	0	273
6.6.1	win	2022-12-14	14:30:22	14:50:20	1195869	634694a1401b066cb71e4c82	558052772	1	main_slash	11	main_slash	129	stimuli_distractor_trianglediamonds.svg	stimuli_target_circletriangles.svg	9	yes	53	1	761
6.6.1	win	2022-12-14	14:30:22	14:50:20	1195869	634694a1401b066cb71e4c82	558052772	1	main_slash	11	advance_on_keypress_SLASH	130	stimuli_distractor_trianglediamonds.svg	stimuli_target_circletriangles.svg	9	yes	57	0	378
6.6.1	win	2022-12-14	14:30:22	14:50:23	1198874	634694a1401b066cb71e4c82	558052772	1	main_slash	11	main_slash	131	stimuli_distractor_trianglediamonds.svg	stimuli_distractor_diamondtriangles.svg	35	no	0	1	2000
6.6.1	win	2022-12-14	14:30:22	14:50:23	1198874	634694a1401b066cb71e4c82	558052772	1	main_slash	11	advance_on_keypress_SLASH	132	stimuli_distractor_trianglediamonds.svg	stimuli_distractor_diamondtriangles.svg	35	no	57	0	1104
6.6.1	win	2022-12-14	14:30:22	14:50:25	1201559	634694a1401b066cb71e4c82	558052772	1	main_slash	11	main_slash	133	stimuli_distractor_diamondtriangles.svg	stimuli_target_trianglecircles.svg	29	yes	53	1	935
6.6.1	win	2022-12-14	14:30:22	14:50:25	1201559	634694a1401b066cb71e4c82	558052772	1	main_slash	11	advance_on_keypress_SLASH	134	stimuli_distractor_diamondtriangles.svg	stimuli_target_trianglecircles.svg	29	yes	57	0	392
6.6.1	win	2022-12-14	14:30:22	14:50:28	1203883	634694a1401b066cb71e4c82	558052772	1	main_slash	11	main_slash	135	stimuli_distractor_trianglediamonds.svg	stimuli_target_diamondsquares.svg	28	yes	53	1	1293
6.6.1	win	2022-12-14	14:30:22	14:50:28	1203883	634694a1401b066cb71e4c82	558052772	1	main_slash	11	advance_on_keypress_SLASH	136	stimuli_distractor_trianglediamonds.svg	stimuli_target_diamondsquares.svg	28	yes	57	0	318
6.6.1	win	2022-12-14	14:30:22	14:50:31	1206840	634694a1401b066cb71e4c82	558052772	1	main_slash	11	main_slash	137	stimuli_distractor_trianglediamonds.svg	stimuli_target_diamondcircles.svg	27	yes	0	0	2000
6.6.1	win	2022-12-14	14:30:22	14:50:31	1206840	634694a1401b066cb71e4c82	558052772	1	main_slash	11	advance_on_keypress_SLASH	138	stimuli_distractor_trianglediamonds.svg	stimuli_target_diamondcircles.svg	27	yes	57	0	561
6.6.1	win	2022-12-14	14:30:22	14:50:33	1208748	634694a1401b066cb71e4c82	558052772	1	main_slash	11	main_slash	139	stimuli_target_circletriangles.svg	stimuli_distractor_trianglediamonds.svg	1	yes	53	1	709
6.6.1	win	2022-12-14	14:30:22	14:50:33	1208748	634694a1401b066cb71e4c82	558052772	1	main_slash	11	advance_on_keypress_SLASH	140	stimuli_target_circletriangles.svg	stimuli_distractor_trianglediamonds.svg	1	yes	57	0	283
6.6.1	win	2022-12-14	14:30:22	14:50:34	1210262	634694a1401b066cb71e4c82	558052772	1	main_slash	11	main_slash	141	stimuli_target_squarediamonds.svg	stimuli_distractor_diamondtriangles.svg	8	yes	53	1	591
6.6.1	win	2022-12-14	14:30:22	14:50:34	1210262	634694a1401b066cb71e4c82	558052772	1	main_slash	11	advance_on_keypress_SLASH	142	stimuli_target_squarediamonds.svg	stimuli_distractor_diamondtriangles.svg	8	yes	57	0	399
6.6.1	win	2022-12-14	14:30:22	14:50:36	1211900	634694a1401b066cb71e4c82	558052772	1	main_slash	11	main_slash	143	stimuli_target_circlediamonds.svg	stimuli_distractor_diamondtriangles.svg	6	yes	53	1	594
6.6.1	win	2022-12-14	14:30:22	14:50:36	1211900	634694a1401b066cb71e4c82	558052772	1	main_slash	11	advance_on_keypress_SLASH	144	stimuli_target_circlediamonds.svg	stimuli_distractor_diamondtriangles.svg	6	yes	57	0	351
6.6.1	win	2022-12-14	14:30:22	14:50:38	1214130	634694a1401b066cb71e4c82	558052772	1	main_slash	11	main_slash	145	stimuli_distractor_diamondtriangles.svg	stimuli_target_squarediamonds.svg	16	yes	53	1	1241
6.6.1	win	2022-12-14	14:30:22	14:50:38	1214130	634694a1401b066cb71e4c82	558052772	1	main_slash	11	advance_on_keypress_SLASH	146	stimuli_distractor_diamondtriangles.svg	stimuli_target_squarediamonds.svg	16	yes	57	0	294
6.6.1	win	2022-12-14	14:30:22	14:50:41	1217055	634694a1401b066cb71e4c82	558052772	1	main_slash	11	main_slash	147	stimuli_distractor_diamondtriangles.svg	stimuli_distractor_trianglediamonds.svg	38	no	0	1	2000
6.6.1	win	2022-12-14	14:30:22	14:50:41	1217055	634694a1401b066cb71e4c82	558052772	1	main_slash	11	advance_on_keypress_SLASH	148	stimuli_distractor_diamondtriangles.svg	stimuli_distractor_trianglediamonds.svg	38	no	57	0	567
6.6.1	win	2022-12-14	14:30:22	14:50:43	1219019	634694a1401b066cb71e4c82	558052772	1	main_slash	11	main_slash	149	stimuli_target_diamondsquares.svg	stimuli_distractor_trianglediamonds.svg	20	yes	53	1	748
6.6.1	win	2022-12-14	14:30:22	14:50:43	1219019	634694a1401b066cb71e4c82	558052772	1	main_slash	11	advance_on_keypress_SLASH	150	stimuli_target_diamondsquares.svg	stimuli_distractor_trianglediamonds.svg	20	yes	57	0	334
6.6.1	win	2022-12-14	14:30:22	14:50:45	1220867	634694a1401b066cb71e4c82	558052772	1	main_slash	11	main_slash	151	stimuli_target_diamondcircles.svg	stimuli_distractor_diamondtriangles.svg	23	yes	53	1	863
6.6.1	win	2022-12-14	14:30:22	14:50:45	1220867	634694a1401b066cb71e4c82	558052772	1	main_slash	11	advance_on_keypress_SLASH	152	stimuli_target_diamondcircles.svg	stimuli_distractor_diamondtriangles.svg	23	yes	57	0	384
6.6.1	win	2022-12-14	14:30:22	14:50:46	1222605	634694a1401b066cb71e4c82	558052772	1	main_slash	11	main_slash	153	stimuli_distractor_trianglediamonds.svg	stimuli_target_trianglesquares.svg	26	yes	53	1	718
6.6.1	win	2022-12-14	14:30:22	14:50:46	1222605	634694a1401b066cb71e4c82	558052772	1	main_slash	11	advance_on_keypress_SLASH	154	stimuli_distractor_trianglediamonds.svg	stimuli_target_trianglesquares.svg	26	yes	57	0	287
6.6.1	win	2022-12-14	14:30:22	14:50:49	1225538	634694a1401b066cb71e4c82	558052772	1	main_slash	11	main_slash	155	stimuli_distractor_diamondtriangles.svg	stimuli_distractor_trianglediamonds.svg	37	no	0	1	2000
6.6.1	win	2022-12-14	14:30:22	14:50:49	1225538	634694a1401b066cb71e4c82	558052772	1	main_slash	11	advance_on_keypress_SLASH	156	stimuli_distractor_diamondtriangles.svg	stimuli_distractor_trianglediamonds.svg	37	no	57	0	614
6.6.1	win	2022-12-14	14:30:22	14:50:51	1227401	634694a1401b066cb71e4c82	558052772	1	main_slash	11	main_slash	157	stimuli_distractor_diamondtriangles.svg	stimuli_target_trianglesquares.svg	30	yes	53	1	598
6.6.1	win	2022-12-14	14:30:22	14:50:51	1227401	634694a1401b066cb71e4c82	558052772	1	main_slash	11	advance_on_keypress_SLASH	158	stimuli_distractor_diamondtriangles.svg	stimuli_target_trianglesquares.svg	30	yes	57	0	358
6.6.1	win	2022-12-14	14:30:22	14:50:53	1228974	634694a1401b066cb71e4c82	558052772	1	main_slash	11	main_slash	159	stimuli_target_diamondcircles.svg	stimuli_distractor_trianglediamonds.svg	19	yes	53	1	572
6.6.1	win	2022-12-14	14:30:22	14:50:53	1228974	634694a1401b066cb71e4c82	558052772	1	main_slash	11	advance_on_keypress_SLASH	160	stimuli_target_diamondcircles.svg	stimuli_distractor_trianglediamonds.svg	19	yes	57	0	356