build	computer.platform	date	time	timestamp	time_elapsed_ms	subject	group	session	blockcode	blocknum	trialcode	trialnum	stimulus_left	stimulus_right	stim_index	target_present	response	correct	latency
6.6.1	and	2022-12-14	12:20:01	12:23:21	183273	59014ee029f42300013cc5b7	430388408	1	practice_z	5	practice_z	1	stimuli_distractor_trianglediamonds.svg	stimuli_target_diamondcircles.svg	12	yes	44	1	1091
6.6.1	and	2022-12-14	12:20:01	12:23:21	183273	59014ee029f42300013cc5b7	430388408	1	practice_z	5	advance_on_keypress_ZEE	2	stimuli_distractor_trianglediamonds.svg	stimuli_target_diamondcircles.svg	12	yes	57	0	1691
6.6.1	and	2022-12-14	12:20:01	12:23:27	188634	59014ee029f42300013cc5b7	430388408	1	practice_z	5	practice_z	3	stimuli_distractor_trianglediamonds.svg	stimuli_distractor_diamondtriangles.svg	16	no	0	1	2000
6.6.1	and	2022-12-14	12:20:01	12:23:27	188634	59014ee029f42300013cc5b7	430388408	1	practice_z	5	advance_on_keypress_ZEE	4	stimuli_distractor_trianglediamonds.svg	stimuli_distractor_diamondtriangles.svg	16	no	57	0	1241
6.6.1	and	2022-12-14	12:20:01	12:23:30	192339	59014ee029f42300013cc5b7	430388408	1	practice_z	5	practice_z	5	stimuli_distractor_diamondtriangles.svg	stimuli_target_diamondcircles.svg	8	yes	44	1	805
6.6.1	and	2022-12-14	12:20:01	12:23:30	192339	59014ee029f42300013cc5b7	430388408	1	practice_z	5	advance_on_keypress_ZEE	6	stimuli_distractor_diamondtriangles.svg	stimuli_target_diamondcircles.svg	8	yes	57	0	894
6.6.1	and	2022-12-14	12:20:01	12:23:34	195751	59014ee029f42300013cc5b7	430388408	1	practice_z	5	practice_z	7	stimuli_target_circlediamonds.svg	stimuli_distractor_diamondtriangles.svg	1	yes	44	1	870
6.6.1	and	2022-12-14	12:20:01	12:23:34	195751	59014ee029f42300013cc5b7	430388408	1	practice_z	5	advance_on_keypress_ZEE	8	stimuli_target_circlediamonds.svg	stimuli_distractor_diamondtriangles.svg	1	yes	57	0	2220
6.6.1	and	2022-12-14	12:20:01	12:23:38	200354	59014ee029f42300013cc5b7	430388408	1	practice_z	5	practice_z	9	stimuli_distractor_diamondtriangles.svg	stimuli_target_trianglecircles.svg	9	yes	44	1	720
6.6.1	and	2022-12-14	12:20:01	12:23:38	200354	59014ee029f42300013cc5b7	430388408	1	practice_z	5	advance_on_keypress_ZEE	10	stimuli_distractor_diamondtriangles.svg	stimuli_target_trianglecircles.svg	9	yes	57	0	846
6.6.1	and	2022-12-14	12:20:01	12:23:42	204007	59014ee029f42300013cc5b7	430388408	1	practice_z	5	practice_z	11	stimuli_target_squarediamonds.svg	stimuli_distractor_trianglediamonds.svg	5	yes	44	1	1160
6.6.1	and	2022-12-14	12:20:01	12:23:42	204007	59014ee029f42300013cc5b7	430388408	1	practice_z	5	advance_on_keypress_ZEE	12	stimuli_target_squarediamonds.svg	stimuli_distractor_trianglediamonds.svg	5	yes	57	0	839
6.6.1	and	2022-12-14	12:20:01	12:23:47	208517	59014ee029f42300013cc5b7	430388408	1	practice_z	5	practice_z	13	stimuli_distractor_trianglediamonds.svg	stimuli_target_circlediamonds.svg	10	yes	0	0	2000
6.6.1	and	2022-12-14	12:20:01	12:23:47	208517	59014ee029f42300013cc5b7	430388408	1	practice_z	5	advance_on_keypress_ZEE	14	stimuli_distractor_trianglediamonds.svg	stimuli_target_circlediamonds.svg	10	yes	57	0	856
6.6.1	and	2022-12-14	12:20:01	12:23:50	211838	59014ee029f42300013cc5b7	430388408	1	practice_z	5	practice_z	15	stimuli_distractor_diamondtriangles.svg	stimuli_target_circletriangles.svg	7	yes	44	1	805
6.6.1	and	2022-12-14	12:20:01	12:23:50	211838	59014ee029f42300013cc5b7	430388408	1	practice_z	5	advance_on_keypress_ZEE	16	stimuli_distractor_diamondtriangles.svg	stimuli_target_circletriangles.svg	7	yes	57	0	651
6.6.1	and	2022-12-14	12:20:01	12:23:54	216152	59014ee029f42300013cc5b7	430388408	1	practice_z	5	practice_z	17	stimuli_target_diamondsquares.svg	stimuli_distractor_diamondtriangles.svg	3	yes	0	0	2000
6.6.1	and	2022-12-14	12:20:01	12:23:54	216152	59014ee029f42300013cc5b7	430388408	1	practice_z	5	advance_on_keypress_ZEE	18	stimuli_target_diamondsquares.svg	stimuli_distractor_diamondtriangles.svg	3	yes	57	0	892
6.6.1	and	2022-12-14	12:20:01	12:23:58	219619	59014ee029f42300013cc5b7	430388408	1	practice_z	5	practice_z	19	stimuli_target_circlediamonds.svg	stimuli_distractor_trianglediamonds.svg	4	yes	44	1	920
6.6.1	and	2022-12-14	12:20:01	12:23:58	219619	59014ee029f42300013cc5b7	430388408	1	practice_z	5	advance_on_keypress_ZEE	20	stimuli_target_circlediamonds.svg	stimuli_distractor_trianglediamonds.svg	4	yes	57	0	973
6.6.1	and	2022-12-14	12:20:01	12:24:02	224249	59014ee029f42300013cc5b7	430388408	1	practice_z	5	practice_z	21	stimuli_distractor_diamondtriangles.svg	stimuli_distractor_diamondtriangles.svg	13	no	0	1	2000
6.6.1	and	2022-12-14	12:20:01	12:24:02	224249	59014ee029f42300013cc5b7	430388408	1	practice_z	5	advance_on_keypress_ZEE	22	stimuli_distractor_diamondtriangles.svg	stimuli_distractor_diamondtriangles.svg	13	no	57	0	586
6.6.1	and	2022-12-14	12:20:01	12:24:05	227386	59014ee029f42300013cc5b7	430388408	1	practice_z	5	practice_z	23	stimuli_target_squarediamonds.svg	stimuli_distractor_diamondtriangles.svg	2	yes	44	1	886
6.6.1	and	2022-12-14	12:20:01	12:24:05	227386	59014ee029f42300013cc5b7	430388408	1	practice_z	5	advance_on_keypress_ZEE	24	stimuli_target_squarediamonds.svg	stimuli_distractor_diamondtriangles.svg	2	yes	57	0	485
6.6.1	and	2022-12-14	12:20:01	12:24:10	231514	59014ee029f42300013cc5b7	430388408	1	practice_z	5	practice_z	25	stimuli_distractor_diamondtriangles.svg	stimuli_distractor_trianglediamonds.svg	14	no	0	1	2000
6.6.1	and	2022-12-14	12:20:01	12:24:10	231514	59014ee029f42300013cc5b7	430388408	1	practice_z	5	advance_on_keypress_ZEE	26	stimuli_distractor_diamondtriangles.svg	stimuli_distractor_trianglediamonds.svg	14	no	57	0	362
6.6.1	and	2022-12-14	12:20:01	12:24:13	234681	59014ee029f42300013cc5b7	430388408	1	practice_z	5	practice_z	27	stimuli_target_diamondsquares.svg	stimuli_distractor_trianglediamonds.svg	6	yes	44	1	1147
6.6.1	and	2022-12-14	12:20:01	12:24:13	234681	59014ee029f42300013cc5b7	430388408	1	practice_z	5	advance_on_keypress_ZEE	28	stimuli_target_diamondsquares.svg	stimuli_distractor_trianglediamonds.svg	6	yes	57	0	428
6.6.1	and	2022-12-14	12:20:01	12:24:17	238783	59014ee029f42300013cc5b7	430388408	1	practice_z	5	practice_z	29	stimuli_distractor_trianglediamonds.svg	stimuli_distractor_trianglediamonds.svg	15	no	0	1	2000
6.6.1	and	2022-12-14	12:20:01	12:24:17	238783	59014ee029f42300013cc5b7	430388408	1	practice_z	5	advance_on_keypress_ZEE	30	stimuli_distractor_trianglediamonds.svg	stimuli_distractor_trianglediamonds.svg	15	no	57	0	473
6.6.1	and	2022-12-14	12:20:01	12:24:20	241574	59014ee029f42300013cc5b7	430388408	1	practice_z	5	practice_z	31	stimuli_distractor_trianglediamonds.svg	stimuli_target_squarediamonds.svg	11	yes	44	1	656
6.6.1	and	2022-12-14	12:20:01	12:24:20	241574	59014ee029f42300013cc5b7	430388408	1	practice_z	5	advance_on_keypress_ZEE	32	stimuli_distractor_trianglediamonds.svg	stimuli_target_squarediamonds.svg	11	yes	57	0	709
6.6.1	and	2022-12-14	12:20:01	12:24:32	253537	59014ee029f42300013cc5b7	430388408	1	main_z	7	main_z	1	stimuli_target_squaretriangles.svg	stimuli_distractor_diamondtriangles.svg	7	yes	44	1	520
6.6.1	and	2022-12-14	12:20:01	12:24:32	253537	59014ee029f42300013cc5b7	430388408	1	main_z	7	advance_on_keypress_ZEE	2	stimuli_target_squaretriangles.svg	stimuli_distractor_diamondtriangles.svg	7	yes	57	0	1599
6.6.1	and	2022-12-14	12:20:01	12:24:35	256783	59014ee029f42300013cc5b7	430388408	1	main_z	7	main_z	3	stimuli_target_diamondcircles.svg	stimuli_distractor_diamondtriangles.svg	23	yes	44	1	977
6.6.1	and	2022-12-14	12:20:01	12:24:35	256783	59014ee029f42300013cc5b7	430388408	1	main_z	7	advance_on_keypress_ZEE	4	stimuli_target_diamondcircles.svg	stimuli_distractor_diamondtriangles.svg	23	yes	57	0	881
6.6.1	and	2022-12-14	12:20:01	12:24:37	258955	59014ee029f42300013cc5b7	430388408	1	main_z	7	main_z	5	stimuli_target_squarediamonds.svg	stimuli_distractor_diamondtriangles.svg	8	yes	44	1	644
6.6.1	and	2022-12-14	12:20:01	12:24:37	258955	59014ee029f42300013cc5b7	430388408	1	main_z	7	advance_on_keypress_ZEE	6	stimuli_target_squarediamonds.svg	stimuli_distractor_diamondtriangles.svg	8	yes	57	0	624
6.6.1	and	2022-12-14	12:20:01	12:24:39	261086	59014ee029f42300013cc5b7	430388408	1	main_z	7	main_z	7	stimuli_distractor_diamondtriangles.svg	stimuli_target_circlediamonds.svg	14	yes	44	1	857
6.6.1	and	2022-12-14	12:20:01	12:24:39	261086	59014ee029f42300013cc5b7	430388408	1	main_z	7	advance_on_keypress_ZEE	8	stimuli_distractor_diamondtriangles.svg	stimuli_target_circlediamonds.svg	14	yes	57	0	596
6.6.1	and	2022-12-14	12:20:01	12:24:42	264346	59014ee029f42300013cc5b7	430388408	1	main_z	7	main_z	9	stimuli_target_trianglesquares.svg	stimuli_distractor_diamondtriangles.svg	22	yes	0	0	2000
6.6.1	and	2022-12-14	12:20:01	12:24:42	264346	59014ee029f42300013cc5b7	430388408	1	main_z	7	advance_on_keypress_ZEE	10	stimuli_target_trianglesquares.svg	stimuli_distractor_diamondtriangles.svg	22	yes	57	0	528
6.6.1	and	2022-12-14	12:20:01	12:24:44	266410	59014ee029f42300013cc5b7	430388408	1	main_z	7	main_z	11	stimuli_target_circletriangles.svg	stimuli_distractor_diamondtriangles.svg	5	yes	44	1	883
6.6.1	and	2022-12-14	12:20:01	12:24:44	266410	59014ee029f42300013cc5b7	430388408	1	main_z	7	advance_on_keypress_ZEE	12	stimuli_target_circletriangles.svg	stimuli_distractor_diamondtriangles.svg	5	yes	57	0	758
6.6.1	and	2022-12-14	12:20:01	12:24:47	268886	59014ee029f42300013cc5b7	430388408	1	main_z	7	main_z	13	stimuli_distractor_diamondtriangles.svg	stimuli_target_trianglecircles.svg	29	yes	44	1	1061
6.6.1	and	2022-12-14	12:20:01	12:24:47	268886	59014ee029f42300013cc5b7	430388408	1	main_z	7	advance_on_keypress_ZEE	14	stimuli_distractor_diamondtriangles.svg	stimuli_target_trianglecircles.svg	29	yes	57	0	451
6.6.1	and	2022-12-14	12:20:01	12:24:50	271975	59014ee029f42300013cc5b7	430388408	1	main_z	7	main_z	15	stimuli_distractor_diamondtriangles.svg	stimuli_distractor_diamondtriangles.svg	40	no	0	1	2000
6.6.1	and	2022-12-14	12:20:01	12:24:50	271975	59014ee029f42300013cc5b7	430388408	1	main_z	7	advance_on_keypress_ZEE	16	stimuli_distractor_diamondtriangles.svg	stimuli_distractor_diamondtriangles.svg	40	no	57	0	439
6.6.1	and	2022-12-14	12:20:01	12:24:53	275076	59014ee029f42300013cc5b7	430388408	1	main_z	7	main_z	17	stimuli_distractor_diamondtriangles.svg	stimuli_distractor_trianglediamonds.svg	37	no	0	1	2000
6.6.1	and	2022-12-14	12:20:01	12:24:53	275076	59014ee029f42300013cc5b7	430388408	1	main_z	7	advance_on_keypress_ZEE	18	stimuli_distractor_diamondtriangles.svg	stimuli_distractor_trianglediamonds.svg	37	no	57	0	375
6.6.1	and	2022-12-14	12:20:01	12:24:55	277040	59014ee029f42300013cc5b7	430388408	1	main_z	7	main_z	19	stimuli_target_diamondcircles.svg	stimuli_distractor_trianglediamonds.svg	19	yes	44	1	925
6.6.1	and	2022-12-14	12:20:01	12:24:55	277040	59014ee029f42300013cc5b7	430388408	1	main_z	7	advance_on_keypress_ZEE	20	stimuli_target_diamondcircles.svg	stimuli_distractor_trianglediamonds.svg	19	yes	57	0	655
6.6.1	and	2022-12-14	12:20:01	12:24:57	279242	59014ee029f42300013cc5b7	430388408	1	main_z	7	main_z	21	stimuli_distractor_trianglediamonds.svg	stimuli_target_trianglecircles.svg	25	yes	44	1	897
6.6.1	and	2022-12-14	12:20:01	12:24:57	279242	59014ee029f42300013cc5b7	430388408	1	main_z	7	advance_on_keypress_ZEE	22	stimuli_distractor_trianglediamonds.svg	stimuli_target_trianglecircles.svg	25	yes	57	0	424
6.6.1	and	2022-12-14	12:20:01	12:25:00	282027	59014ee029f42300013cc5b7	430388408	1	main_z	7	main_z	23	stimuli_distractor_diamondtriangles.svg	stimuli_target_squaretriangles.svg	15	yes	44	1	1715
6.6.1	and	2022-12-14	12:20:01	12:25:00	282027	59014ee029f42300013cc5b7	430388408	1	main_z	7	advance_on_keypress_ZEE	24	stimuli_distractor_diamondtriangles.svg	stimuli_target_squaretriangles.svg	15	yes	57	0	694
6.6.1	and	2022-12-14	12:20:01	12:25:02	284364	59014ee029f42300013cc5b7	430388408	1	main_z	7	main_z	25	stimuli_target_circletriangles.svg	stimuli_distractor_trianglediamonds.svg	1	yes	44	1	985
6.6.1	and	2022-12-14	12:20:01	12:25:02	284364	59014ee029f42300013cc5b7	430388408	1	main_z	7	advance_on_keypress_ZEE	26	stimuli_target_circletriangles.svg	stimuli_distractor_trianglediamonds.svg	1	yes	57	0	383
6.6.1	and	2022-12-14	12:20:01	12:25:04	286260	59014ee029f42300013cc5b7	430388408	1	main_z	7	main_z	27	stimuli_distractor_diamondtriangles.svg	stimuli_target_squarediamonds.svg	16	yes	44	1	867
6.6.1	and	2022-12-14	12:20:01	12:25:04	286260	59014ee029f42300013cc5b7	430388408	1	main_z	7	advance_on_keypress_ZEE	28	stimuli_distractor_diamondtriangles.svg	stimuli_target_squarediamonds.svg	16	yes	57	0	534
6.6.1	and	2022-12-14	12:20:01	12:25:06	288251	59014ee029f42300013cc5b7	430388408	1	main_z	7	main_z	29	stimuli_distractor_diamondtriangles.svg	stimuli_target_diamondcircles.svg	31	yes	44	1	789
6.6.1	and	2022-12-14	12:20:01	12:25:06	288251	59014ee029f42300013cc5b7	430388408	1	main_z	7	advance_on_keypress_ZEE	30	stimuli_distractor_diamondtriangles.svg	stimuli_target_diamondcircles.svg	31	yes	57	0	371
6.6.1	and	2022-12-14	12:20:01	12:25:08	290165	59014ee029f42300013cc5b7	430388408	1	main_z	7	main_z	31	stimuli_target_trianglecircles.svg	stimuli_distractor_diamondtriangles.svg	21	yes	44	1	888
6.6.1	and	2022-12-14	12:20:01	12:25:08	290165	59014ee029f42300013cc5b7	430388408	1	main_z	7	advance_on_keypress_ZEE	32	stimuli_target_trianglecircles.svg	stimuli_distractor_diamondtriangles.svg	21	yes	57	0	335
6.6.1	and	2022-12-14	12:20:01	12:25:10	291799	59014ee029f42300013cc5b7	430388408	1	main_z	7	main_z	33	stimuli_distractor_trianglediamonds.svg	stimuli_target_diamondcircles.svg	27	yes	44	1	637
6.6.1	and	2022-12-14	12:20:01	12:25:10	291799	59014ee029f42300013cc5b7	430388408	1	main_z	7	advance_on_keypress_ZEE	34	stimuli_distractor_trianglediamonds.svg	stimuli_target_diamondcircles.svg	27	yes	57	0	385
6.6.1	and	2022-12-14	12:20:01	12:25:12	293938	59014ee029f42300013cc5b7	430388408	1	main_z	7	main_z	35	stimuli_distractor_trianglediamonds.svg	stimuli_target_squarediamonds.svg	12	yes	44	1	1095
6.6.1	and	2022-12-14	12:20:01	12:25:12	293938	59014ee029f42300013cc5b7	430388408	1	main_z	7	advance_on_keypress_ZEE	36	stimuli_distractor_trianglediamonds.svg	stimuli_target_squarediamonds.svg	12	yes	57	0	388
6.6.1	and	2022-12-14	12:20:01	12:25:14	295939	59014ee029f42300013cc5b7	430388408	1	main_z	7	main_z	37	stimuli_distractor_trianglediamonds.svg	stimuli_target_circletriangles.svg	9	yes	44	1	963
6.6.1	and	2022-12-14	12:20:01	12:25:14	295939	59014ee029f42300013cc5b7	430388408	1	main_z	7	advance_on_keypress_ZEE	38	stimuli_distractor_trianglediamonds.svg	stimuli_target_circletriangles.svg	9	yes	57	0	312
6.6.1	and	2022-12-14	12:20:01	12:25:16	298093	59014ee029f42300013cc5b7	430388408	1	main_z	7	main_z	39	stimuli_target_trianglesquares.svg	stimuli_distractor_trianglediamonds.svg	18	yes	44	1	1200
6.6.1	and	2022-12-14	12:20:01	12:25:16	298093	59014ee029f42300013cc5b7	430388408	1	main_z	7	advance_on_keypress_ZEE	40	stimuli_target_trianglesquares.svg	stimuli_distractor_trianglediamonds.svg	18	yes	57	0	402
6.6.1	and	2022-12-14	12:20:01	12:25:18	300242	59014ee029f42300013cc5b7	430388408	1	main_z	7	main_z	41	stimuli_target_circlediamonds.svg	stimuli_distractor_diamondtriangles.svg	6	yes	44	1	1077
6.6.1	and	2022-12-14	12:20:01	12:25:18	300242	59014ee029f42300013cc5b7	430388408	1	main_z	7	advance_on_keypress_ZEE	42	stimuli_target_circlediamonds.svg	stimuli_distractor_diamondtriangles.svg	6	yes	57	0	332
6.6.1	and	2022-12-14	12:20:01	12:25:21	303233	59014ee029f42300013cc5b7	430388408	1	main_z	7	main_z	43	stimuli_distractor_diamondtriangles.svg	stimuli_target_trianglesquares.svg	30	yes	0	0	2000
6.6.1	and	2022-12-14	12:20:01	12:25:21	303233	59014ee029f42300013cc5b7	430388408	1	main_z	7	advance_on_keypress_ZEE	44	stimuli_distractor_diamondtriangles.svg	stimuli_target_trianglesquares.svg	30	yes	57	0	490
6.6.1	and	2022-12-14	12:20:01	12:25:23	305444	59014ee029f42300013cc5b7	430388408	1	main_z	7	main_z	45	stimuli_target_squaretriangles.svg	stimuli_distractor_trianglediamonds.svg	3	yes	44	1	1066
6.6.1	and	2022-12-14	12:20:01	12:25:23	305444	59014ee029f42300013cc5b7	430388408	1	main_z	7	advance_on_keypress_ZEE	46	stimuli_target_squaretriangles.svg	stimuli_distractor_trianglediamonds.svg	3	yes	57	0	1928
6.6.1	and	2022-12-14	12:20:01	12:25:28	310027	59014ee029f42300013cc5b7	430388408	1	main_z	7	main_z	47	stimuli_distractor_trianglediamonds.svg	stimuli_target_trianglesquares.svg	26	yes	0	0	2000
6.6.1	and	2022-12-14	12:20:01	12:25:28	310027	59014ee029f42300013cc5b7	430388408	1	main_z	7	advance_on_keypress_ZEE	48	stimuli_distractor_trianglediamonds.svg	stimuli_target_trianglesquares.svg	26	yes	57	0	697
6.6.1	and	2022-12-14	12:20:01	12:25:31	313377	59014ee029f42300013cc5b7	430388408	1	main_z	7	main_z	49	stimuli_distractor_trianglediamonds.svg	stimuli_distractor_trianglediamonds.svg	34	no	0	1	2000
6.6.1	and	2022-12-14	12:20:01	12:25:31	313377	59014ee029f42300013cc5b7	430388408	1	main_z	7	advance_on_keypress_ZEE	50	stimuli_distractor_trianglediamonds.svg	stimuli_distractor_trianglediamonds.svg	34	no	57	0	380
6.6.1	and	2022-12-14	12:20:01	12:25:33	315275	59014ee029f42300013cc5b7	430388408	1	main_z	7	main_z	51	stimuli_target_squarediamonds.svg	stimuli_distractor_trianglediamonds.svg	4	yes	44	1	861
6.6.1	and	2022-12-14	12:20:01	12:25:33	315275	59014ee029f42300013cc5b7	430388408	1	main_z	7	advance_on_keypress_ZEE	52	stimuli_target_squarediamonds.svg	stimuli_distractor_trianglediamonds.svg	4	yes	57	0	545
6.6.1	and	2022-12-14	12:20:01	12:25:37	318481	59014ee029f42300013cc5b7	430388408	1	main_z	7	main_z	53	stimuli_distractor_trianglediamonds.svg	stimuli_distractor_diamondtriangles.svg	36	no	0	1	2000
6.6.1	and	2022-12-14	12:20:01	12:25:37	318481	59014ee029f42300013cc5b7	430388408	1	main_z	7	advance_on_keypress_ZEE	54	stimuli_distractor_trianglediamonds.svg	stimuli_distractor_diamondtriangles.svg	36	no	57	0	495
6.6.1	and	2022-12-14	12:20:01	12:25:39	320542	59014ee029f42300013cc5b7	430388408	1	main_z	7	main_z	55	stimuli_target_trianglecircles.svg	stimuli_distractor_trianglediamonds.svg	17	yes	44	1	914
6.6.1	and	2022-12-14	12:20:01	12:25:39	320542	59014ee029f42300013cc5b7	430388408	1	main_z	7	advance_on_keypress_ZEE	56	stimuli_target_trianglecircles.svg	stimuli_distractor_trianglediamonds.svg	17	yes	57	0	503
6.6.1	and	2022-12-14	12:20:01	12:25:42	323692	59014ee029f42300013cc5b7	430388408	1	main_z	7	main_z	57	stimuli_distractor_diamondtriangles.svg	stimuli_distractor_trianglediamonds.svg	38	no	0	1	2000
6.6.1	and	2022-12-14	12:20:01	12:25:42	323692	59014ee029f42300013cc5b7	430388408	1	main_z	7	advance_on_keypress_ZEE	58	stimuli_distractor_diamondtriangles.svg	stimuli_distractor_trianglediamonds.svg	38	no	57	0	640
6.6.1	and	2022-12-14	12:20:01	12:25:44	326418	59014ee029f42300013cc5b7	430388408	1	main_z	7	main_z	59	stimuli_target_diamondsquares.svg	stimuli_distractor_trianglediamonds.svg	20	yes	44	1	1424
6.6.1	and	2022-12-14	12:20:01	12:25:44	326418	59014ee029f42300013cc5b7	430388408	1	main_z	7	advance_on_keypress_ZEE	60	stimuli_target_diamondsquares.svg	stimuli_distractor_trianglediamonds.svg	20	yes	57	0	601
6.6.1	and	2022-12-14	12:20:01	12:25:47	328713	59014ee029f42300013cc5b7	430388408	1	main_z	7	main_z	61	stimuli_distractor_trianglediamonds.svg	stimuli_target_circlediamonds.svg	10	yes	44	1	1054
6.6.1	and	2022-12-14	12:20:01	12:25:47	328713	59014ee029f42300013cc5b7	430388408	1	main_z	7	advance_on_keypress_ZEE	62	stimuli_distractor_trianglediamonds.svg	stimuli_target_circlediamonds.svg	10	yes	57	0	397
6.6.1	and	2022-12-14	12:20:01	12:25:48	330437	59014ee029f42300013cc5b7	430388408	1	main_z	7	main_z	63	stimuli_target_circlediamonds.svg	stimuli_distractor_trianglediamonds.svg	2	yes	44	1	674
6.6.1	and	2022-12-14	12:20:01	12:25:48	330437	59014ee029f42300013cc5b7	430388408	1	main_z	7	advance_on_keypress_ZEE	64	stimuli_target_circlediamonds.svg	stimuli_distractor_trianglediamonds.svg	2	yes	57	0	362
6.6.1	and	2022-12-14	12:20:01	12:25:51	332504	59014ee029f42300013cc5b7	430388408	1	main_z	7	main_z	65	stimuli_target_diamondsquares.svg	stimuli_distractor_diamondtriangles.svg	24	yes	44	1	1059
6.6.1	and	2022-12-14	12:20:01	12:25:51	332504	59014ee029f42300013cc5b7	430388408	1	main_z	7	advance_on_keypress_ZEE	66	stimuli_target_diamondsquares.svg	stimuli_distractor_diamondtriangles.svg	24	yes	57	0	367
6.6.1	and	2022-12-14	12:20:01	12:25:54	335528	59014ee029f42300013cc5b7	430388408	1	main_z	7	main_z	67	stimuli_distractor_trianglediamonds.svg	stimuli_distractor_trianglediamonds.svg	33	no	0	1	2000
6.6.1	and	2022-12-14	12:20:01	12:25:54	335528	59014ee029f42300013cc5b7	430388408	1	main_z	7	advance_on_keypress_ZEE	68	stimuli_distractor_trianglediamonds.svg	stimuli_distractor_trianglediamonds.svg	33	no	57	0	391
6.6.1	and	2022-12-14	12:20:01	12:25:56	337492	59014ee029f42300013cc5b7	430388408	1	main_z	7	main_z	69	stimuli_distractor_diamondtriangles.svg	stimuli_target_diamondsquares.svg	32	yes	44	1	914
6.6.1	and	2022-12-14	12:20:01	12:25:56	337492	59014ee029f42300013cc5b7	430388408	1	main_z	7	advance_on_keypress_ZEE	70	stimuli_distractor_diamondtriangles.svg	stimuli_target_diamondsquares.svg	32	yes	57	0	445
6.6.1	and	2022-12-14	12:20:01	12:25:58	339509	59014ee029f42300013cc5b7	430388408	1	main_z	7	main_z	71	stimuli_distractor_trianglediamonds.svg	stimuli_target_squaretriangles.svg	11	yes	44	1	913
6.6.1	and	2022-12-14	12:20:01	12:25:58	339509	59014ee029f42300013cc5b7	430388408	1	main_z	7	advance_on_keypress_ZEE	72	stimuli_distractor_trianglediamonds.svg	stimuli_target_squaretriangles.svg	11	yes	57	0	411
6.6.1	and	2022-12-14	12:20:01	12:26:00	341987	59014ee029f42300013cc5b7	430388408	1	main_z	7	main_z	73	stimuli_distractor_diamondtriangles.svg	stimuli_distractor_diamondtriangles.svg	39	no	44	0	1409
6.6.1	and	2022-12-14	12:20:01	12:26:00	341987	59014ee029f42300013cc5b7	430388408	1	main_z	7	advance_on_keypress_ZEE	74	stimuli_distractor_diamondtriangles.svg	stimuli_distractor_diamondtriangles.svg	39	no	57	0	313
6.6.1	and	2022-12-14	12:20:01	12:26:02	343589	59014ee029f42300013cc5b7	430388408	1	main_z	7	main_z	75	stimuli_distractor_diamondtriangles.svg	stimuli_target_circletriangles.svg	13	yes	44	1	630
6.6.1	and	2022-12-14	12:20:01	12:26:02	343589	59014ee029f42300013cc5b7	430388408	1	main_z	7	advance_on_keypress_ZEE	76	stimuli_distractor_diamondtriangles.svg	stimuli_target_circletriangles.svg	13	yes	57	0	403
6.6.1	and	2022-12-14	12:20:01	12:26:04	345544	59014ee029f42300013cc5b7	430388408	1	main_z	7	main_z	77	stimuli_distractor_trianglediamonds.svg	stimuli_target_diamondsquares.svg	28	yes	44	1	898
6.6.1	and	2022-12-14	12:20:01	12:26:04	345544	59014ee029f42300013cc5b7	430388408	1	main_z	7	advance_on_keypress_ZEE	78	stimuli_distractor_trianglediamonds.svg	stimuli_target_diamondsquares.svg	28	yes	57	0	283
6.6.1	and	2022-12-14	12:20:01	12:26:07	348496	59014ee029f42300013cc5b7	430388408	1	main_z	7	main_z	79	stimuli_distractor_trianglediamonds.svg	stimuli_distractor_diamondtriangles.svg	35	no	0	1	2000
6.6.1	and	2022-12-14	12:20:01	12:26:07	348496	59014ee029f42300013cc5b7	430388408	1	main_z	7	advance_on_keypress_ZEE	80	stimuli_distractor_trianglediamonds.svg	stimuli_distractor_diamondtriangles.svg	35	no	57	0	443
6.6.1	and	2022-12-14	12:20:01	12:26:08	350380	59014ee029f42300013cc5b7	430388408	1	main_z	7	main_z	81	stimuli_distractor_diamondtriangles.svg	stimuli_target_squaretriangles.svg	15	yes	44	1	783
6.6.1	and	2022-12-14	12:20:01	12:26:08	350380	59014ee029f42300013cc5b7	430388408	1	main_z	7	advance_on_keypress_ZEE	82	stimuli_distractor_diamondtriangles.svg	stimuli_target_squaretriangles.svg	15	yes	57	0	319
6.6.1	and	2022-12-14	12:20:01	12:26:10	352330	59014ee029f42300013cc5b7	430388408	1	main_z	7	main_z	83	stimuli_target_trianglecircles.svg	stimuli_distractor_trianglediamonds.svg	17	yes	44	1	966
6.6.1	and	2022-12-14	12:20:01	12:26:10	352330	59014ee029f42300013cc5b7	430388408	1	main_z	7	advance_on_keypress_ZEE	84	stimuli_target_trianglecircles.svg	stimuli_distractor_trianglediamonds.svg	17	yes	57	0	317
6.6.1	and	2022-12-14	12:20:01	12:26:12	354048	59014ee029f42300013cc5b7	430388408	1	main_z	7	main_z	85	stimuli_target_diamondcircles.svg	stimuli_distractor_diamondtriangles.svg	23	yes	44	1	750
6.6.1	and	2022-12-14	12:20:01	12:26:12	354048	59014ee029f42300013cc5b7	430388408	1	main_z	7	advance_on_keypress_ZEE	86	stimuli_target_diamondcircles.svg	stimuli_distractor_diamondtriangles.svg	23	yes	57	0	320
6.6.1	and	2022-12-14	12:20:01	12:26:14	355746	59014ee029f42300013cc5b7	430388408	1	main_z	7	main_z	87	stimuli_distractor_trianglediamonds.svg	stimuli_target_trianglecircles.svg	25	yes	44	1	719
6.6.1	and	2022-12-14	12:20:01	12:26:14	355746	59014ee029f42300013cc5b7	430388408	1	main_z	7	advance_on_keypress_ZEE	88	stimuli_distractor_trianglediamonds.svg	stimuli_target_trianglecircles.svg	25	yes	57	0	321
6.6.1	and	2022-12-14	12:20:01	12:26:17	358726	59014ee029f42300013cc5b7	430388408	1	main_z	7	main_z	89	stimuli_distractor_trianglediamonds.svg	stimuli_distractor_trianglediamonds.svg	33	no	0	1	2000
6.6.1	and	2022-12-14	12:20:01	12:26:17	358726	59014ee029f42300013cc5b7	430388408	1	main_z	7	advance_on_keypress_ZEE	90	stimuli_distractor_trianglediamonds.svg	stimuli_distractor_trianglediamonds.svg	33	no	57	0	961
6.6.1	and	2022-12-14	12:20:01	12:26:19	361139	59014ee029f42300013cc5b7	430388408	1	main_z	7	main_z	91	stimuli_distractor_diamondtriangles.svg	stimuli_target_diamondcircles.svg	31	yes	44	1	809
6.6.1	and	2022-12-14	12:20:01	12:26:19	361139	59014ee029f42300013cc5b7	430388408	1	main_z	7	advance_on_keypress_ZEE	92	stimuli_distractor_diamondtriangles.svg	stimuli_target_diamondcircles.svg	31	yes	57	0	994
6.6.1	and	2022-12-14	12:20:01	12:26:22	363830	59014ee029f42300013cc5b7	430388408	1	main_z	7	main_z	93	stimuli_distractor_diamondtriangles.svg	stimuli_target_trianglecircles.svg	29	yes	44	1	1055
6.6.1	and	2022-12-14	12:20:01	12:26:22	363830	59014ee029f42300013cc5b7	430388408	1	main_z	7	advance_on_keypress_ZEE	94	stimuli_distractor_diamondtriangles.svg	stimuli_target_trianglecircles.svg	29	yes	57	0	746
6.6.1	and	2022-12-14	12:20:01	12:26:24	366253	59014ee029f42300013cc5b7	430388408	1	main_z	7	main_z	95	stimuli_target_circletriangles.svg	stimuli_distractor_trianglediamonds.svg	1	yes	44	1	1023
6.6.1	and	2022-12-14	12:20:01	12:26:24	366253	59014ee029f42300013cc5b7	430388408	1	main_z	7	advance_on_keypress_ZEE	96	stimuli_target_circletriangles.svg	stimuli_distractor_trianglediamonds.svg	1	yes	57	0	474
6.6.1	and	2022-12-14	12:20:01	12:26:27	369380	59014ee029f42300013cc5b7	430388408	1	main_z	7	main_z	97	stimuli_distractor_diamondtriangles.svg	stimuli_distractor_diamondtriangles.svg	40	no	0	1	2000
6.6.1	and	2022-12-14	12:20:01	12:26:27	369380	59014ee029f42300013cc5b7	430388408	1	main_z	7	advance_on_keypress_ZEE	98	stimuli_distractor_diamondtriangles.svg	stimuli_distractor_diamondtriangles.svg	40	no	57	0	541
6.6.1	and	2022-12-14	12:20:01	12:26:29	371474	59014ee029f42300013cc5b7	430388408	1	main_z	7	main_z	99	stimuli_target_trianglecircles.svg	stimuli_distractor_diamondtriangles.svg	21	yes	44	1	893
6.6.1	and	2022-12-14	12:20:01	12:26:29	371474	59014ee029f42300013cc5b7	430388408	1	main_z	7	advance_on_keypress_ZEE	100	stimuli_target_trianglecircles.svg	stimuli_distractor_diamondtriangles.svg	21	yes	57	0	384
6.6.1	and	2022-12-14	12:20:01	12:26:31	373337	59014ee029f42300013cc5b7	430388408	1	main_z	7	main_z	101	stimuli_target_squaretriangles.svg	stimuli_distractor_trianglediamonds.svg	3	yes	44	1	821
6.6.1	and	2022-12-14	12:20:01	12:26:31	373337	59014ee029f42300013cc5b7	430388408	1	main_z	7	advance_on_keypress_ZEE	102	stimuli_target_squaretriangles.svg	stimuli_distractor_trianglediamonds.svg	3	yes	57	0	453
6.6.1	and	2022-12-14	12:20:01	12:26:34	376448	59014ee029f42300013cc5b7	430388408	1	main_z	7	main_z	103	stimuli_distractor_diamondtriangles.svg	stimuli_distractor_trianglediamonds.svg	38	no	0	1	2000
6.6.1	and	2022-12-14	12:20:01	12:26:34	376448	59014ee029f42300013cc5b7	430388408	1	main_z	7	advance_on_keypress_ZEE	104	stimuli_distractor_diamondtriangles.svg	stimuli_distractor_trianglediamonds.svg	38	no	57	0	386
6.6.1	and	2022-12-14	12:20:01	12:26:37	378536	59014ee029f42300013cc5b7	430388408	1	main_z	7	main_z	105	stimuli_distractor_trianglediamonds.svg	stimuli_distractor_diamondtriangles.svg	35	no	44	0	1038
6.6.1	and	2022-12-14	12:20:01	12:26:37	378536	59014ee029f42300013cc5b7	430388408	1	main_z	7	advance_on_keypress_ZEE	106	stimuli_distractor_trianglediamonds.svg	stimuli_distractor_diamondtriangles.svg	35	no	57	0	611
6.6.1	and	2022-12-14	12:20:01	12:26:39	380772	59014ee029f42300013cc5b7	430388408	1	main_z	7	main_z	107	stimuli_distractor_diamondtriangles.svg	stimuli_target_diamondsquares.svg	32	yes	44	1	979
6.6.1	and	2022-12-14	12:20:01	12:26:39	380772	59014ee029f42300013cc5b7	430388408	1	main_z	7	advance_on_keypress_ZEE	108	stimuli_distractor_diamondtriangles.svg	stimuli_target_diamondsquares.svg	32	yes	57	0	392
6.6.1	and	2022-12-14	12:20:01	12:26:42	383811	59014ee029f42300013cc5b7	430388408	1	main_z	7	main_z	109	stimuli_distractor_trianglediamonds.svg	stimuli_distractor_trianglediamonds.svg	34	no	0	1	2000
6.6.1	and	2022-12-14	12:20:01	12:26:42	383811	59014ee029f42300013cc5b7	430388408	1	main_z	7	advance_on_keypress_ZEE	110	stimuli_distractor_trianglediamonds.svg	stimuli_distractor_trianglediamonds.svg	34	no	57	0	449
6.6.1	and	2022-12-14	12:20:01	12:26:44	385885	59014ee029f42300013cc5b7	430388408	1	main_z	7	main_z	111	stimuli_target_diamondcircles.svg	stimuli_distractor_trianglediamonds.svg	19	yes	44	1	972
6.6.1	and	2022-12-14	12:20:01	12:26:44	385885	59014ee029f42300013cc5b7	430388408	1	main_z	7	advance_on_keypress_ZEE	112	stimuli_target_diamondcircles.svg	stimuli_distractor_trianglediamonds.svg	19	yes	57	0	776
6.6.1	and	2022-12-14	12:20:01	12:26:46	388340	59014ee029f42300013cc5b7	430388408	1	main_z	7	main_z	113	stimuli_target_circletriangles.svg	stimuli_distractor_diamondtriangles.svg	5	yes	44	1	1026
6.6.1	and	2022-12-14	12:20:01	12:26:46	388340	59014ee029f42300013cc5b7	430388408	1	main_z	7	advance_on_keypress_ZEE	114	stimuli_target_circletriangles.svg	stimuli_distractor_diamondtriangles.svg	5	yes	57	0	372
6.6.1	and	2022-12-14	12:20:01	12:26:48	390276	59014ee029f42300013cc5b7	430388408	1	main_z	7	main_z	115	stimuli_target_circlediamonds.svg	stimuli_distractor_diamondtriangles.svg	6	yes	44	1	911
6.6.1	and	2022-12-14	12:20:01	12:26:48	390276	59014ee029f42300013cc5b7	430388408	1	main_z	7	advance_on_keypress_ZEE	116	stimuli_target_circlediamonds.svg	stimuli_distractor_diamondtriangles.svg	6	yes	57	0	376
6.6.1	and	2022-12-14	12:20:01	12:26:50	392211	59014ee029f42300013cc5b7	430388408	1	main_z	7	main_z	117	stimuli_distractor_trianglediamonds.svg	stimuli_target_circletriangles.svg	9	yes	44	1	916
6.6.1	and	2022-12-14	12:20:01	12:26:50	392211	59014ee029f42300013cc5b7	430388408	1	main_z	7	advance_on_keypress_ZEE	118	stimuli_distractor_trianglediamonds.svg	stimuli_target_circletriangles.svg	9	yes	57	0	567
6.6.1	and	2022-12-14	12:20:01	12:26:52	394414	59014ee029f42300013cc5b7	430388408	1	main_z	7	main_z	119	stimuli_target_squarediamonds.svg	stimuli_distractor_trianglediamonds.svg	4	yes	44	1	962
6.6.1	and	2022-12-14	12:20:01	12:26:52	394414	59014ee029f42300013cc5b7	430388408	1	main_z	7	advance_on_keypress_ZEE	120	stimuli_target_squarediamonds.svg	stimuli_distractor_trianglediamonds.svg	4	yes	57	0	332
6.6.1	and	2022-12-14	12:20:01	12:26:54	396387	59014ee029f42300013cc5b7	430388408	1	main_z	7	main_z	121	stimuli_distractor_diamondtriangles.svg	stimuli_target_trianglesquares.svg	30	yes	44	1	991
6.6.1	and	2022-12-14	12:20:01	12:26:54	396387	59014ee029f42300013cc5b7	430388408	1	main_z	7	advance_on_keypress_ZEE	122	stimuli_distractor_diamondtriangles.svg	stimuli_target_trianglesquares.svg	30	yes	57	0	291
6.6.1	and	2022-12-14	12:20:01	12:26:56	398278	59014ee029f42300013cc5b7	430388408	1	main_z	7	main_z	123	stimuli_target_diamondsquares.svg	stimuli_distractor_diamondtriangles.svg	24	yes	44	1	947
6.6.1	and	2022-12-14	12:20:01	12:26:56	398278	59014ee029f42300013cc5b7	430388408	1	main_z	7	advance_on_keypress_ZEE	124	stimuli_target_diamondsquares.svg	stimuli_distractor_diamondtriangles.svg	24	yes	57	0	367
6.6.1	and	2022-12-14	12:20:01	12:26:59	400849	59014ee029f42300013cc5b7	430388408	1	main_z	7	main_z	125	stimuli_target_trianglesquares.svg	stimuli_distractor_trianglediamonds.svg	18	yes	44	1	1555
6.6.1	and	2022-12-14	12:20:01	12:26:59	400849	59014ee029f42300013cc5b7	430388408	1	main_z	7	advance_on_keypress_ZEE	126	stimuli_target_trianglesquares.svg	stimuli_distractor_trianglediamonds.svg	18	yes	57	0	342
6.6.1	and	2022-12-14	12:20:01	12:27:01	403242	59014ee029f42300013cc5b7	430388408	1	main_z	7	main_z	127	stimuli_distractor_trianglediamonds.svg	stimuli_target_trianglesquares.svg	26	yes	44	1	1398
6.6.1	and	2022-12-14	12:20:01	12:27:01	403242	59014ee029f42300013cc5b7	430388408	1	main_z	7	advance_on_keypress_ZEE	128	stimuli_distractor_trianglediamonds.svg	stimuli_target_trianglesquares.svg	26	yes	57	0	298
6.6.1	and	2022-12-14	12:20:01	12:27:03	405309	59014ee029f42300013cc5b7	430388408	1	main_z	7	main_z	129	stimuli_distractor_diamondtriangles.svg	stimuli_target_squarediamonds.svg	16	yes	44	1	1129
6.6.1	and	2022-12-14	12:20:01	12:27:03	405309	59014ee029f42300013cc5b7	430388408	1	main_z	7	advance_on_keypress_ZEE	130	stimuli_distractor_diamondtriangles.svg	stimuli_target_squarediamonds.svg	16	yes	57	0	336
6.6.1	and	2022-12-14	12:20:01	12:27:05	407159	59014ee029f42300013cc5b7	430388408	1	main_z	7	main_z	131	stimuli_target_squaretriangles.svg	stimuli_distractor_diamondtriangles.svg	7	yes	44	1	863
6.6.1	and	2022-12-14	12:20:01	12:27:05	407159	59014ee029f42300013cc5b7	430388408	1	main_z	7	advance_on_keypress_ZEE	132	stimuli_target_squaretriangles.svg	stimuli_distractor_diamondtriangles.svg	7	yes	57	0	348
6.6.1	and	2022-12-14	12:20:01	12:27:07	408926	59014ee029f42300013cc5b7	430388408	1	main_z	7	main_z	133	stimuli_target_circlediamonds.svg	stimuli_distractor_trianglediamonds.svg	2	yes	44	1	762
6.6.1	and	2022-12-14	12:20:01	12:27:07	408926	59014ee029f42300013cc5b7	430388408	1	main_z	7	advance_on_keypress_ZEE	134	stimuli_target_circlediamonds.svg	stimuli_distractor_trianglediamonds.svg	2	yes	57	0	357
6.6.1	and	2022-12-14	12:20:01	12:27:09	410983	59014ee029f42300013cc5b7	430388408	1	main_z	7	main_z	135	stimuli_target_diamondsquares.svg	stimuli_distractor_trianglediamonds.svg	20	yes	44	1	1055
6.6.1	and	2022-12-14	12:20:01	12:27:09	410983	59014ee029f42300013cc5b7	430388408	1	main_z	7	advance_on_keypress_ZEE	136	stimuli_target_diamondsquares.svg	stimuli_distractor_trianglediamonds.svg	20	yes	57	0	903
6.6.1	and	2022-12-14	12:20:01	12:27:11	413350	59014ee029f42300013cc5b7	430388408	1	main_z	7	main_z	137	stimuli_distractor_trianglediamonds.svg	stimuli_target_circlediamonds.svg	10	yes	44	1	802
6.6.1	and	2022-12-14	12:20:01	12:27:11	413350	59014ee029f42300013cc5b7	430388408	1	main_z	7	advance_on_keypress_ZEE	138	stimuli_distractor_trianglediamonds.svg	stimuli_target_circlediamonds.svg	10	yes	57	0	301
6.6.1	and	2022-12-14	12:20:01	12:27:13	415386	59014ee029f42300013cc5b7	430388408	1	main_z	7	main_z	139	stimuli_distractor_trianglediamonds.svg	stimuli_target_diamondsquares.svg	28	yes	44	1	1076
6.6.1	and	2022-12-14	12:20:01	12:27:13	415386	59014ee029f42300013cc5b7	430388408	1	main_z	7	advance_on_keypress_ZEE	140	stimuli_distractor_trianglediamonds.svg	stimuli_target_diamondsquares.svg	28	yes	57	0	298
6.6.1	and	2022-12-14	12:20:01	12:27:16	418330	59014ee029f42300013cc5b7	430388408	1	main_z	7	main_z	141	stimuli_distractor_trianglediamonds.svg	stimuli_distractor_diamondtriangles.svg	36	no	0	1	2000
6.6.1	and	2022-12-14	12:20:01	12:27:16	418330	59014ee029f42300013cc5b7	430388408	1	main_z	7	advance_on_keypress_ZEE	142	stimuli_distractor_trianglediamonds.svg	stimuli_distractor_diamondtriangles.svg	36	no	57	0	516
6.6.1	and	2022-12-14	12:20:01	12:27:20	421513	59014ee029f42300013cc5b7	430388408	1	main_z	7	main_z	143	stimuli_distractor_diamondtriangles.svg	stimuli_distractor_trianglediamonds.svg	37	no	0	1	2000
6.6.1	and	2022-12-14	12:20:01	12:27:20	421513	59014ee029f42300013cc5b7	430388408	1	main_z	7	advance_on_keypress_ZEE	144	stimuli_distractor_diamondtriangles.svg	stimuli_distractor_trianglediamonds.svg	37	no	57	0	644
6.6.1	and	2022-12-14	12:20:01	12:27:21	423467	59014ee029f42300013cc5b7	430388408	1	main_z	7	main_z	145	stimuli_distractor_trianglediamonds.svg	stimuli_target_squarediamonds.svg	12	yes	44	1	637
6.6.1	and	2022-12-14	12:20:01	12:27:21	423467	59014ee029f42300013cc5b7	430388408	1	main_z	7	advance_on_keypress_ZEE	146	stimuli_distractor_trianglediamonds.svg	stimuli_target_squarediamonds.svg	12	yes	57	0	443
6.6.1	and	2022-12-14	12:20:01	12:27:23	425102	59014ee029f42300013cc5b7	430388408	1	main_z	7	main_z	147	stimuli_distractor_trianglediamonds.svg	stimuli_target_diamondcircles.svg	27	yes	44	1	541
6.6.1	and	2022-12-14	12:20:01	12:27:23	425102	59014ee029f42300013cc5b7	430388408	1	main_z	7	advance_on_keypress_ZEE	148	stimuli_distractor_trianglediamonds.svg	stimuli_target_diamondcircles.svg	27	yes	57	0	385
6.6.1	and	2022-12-14	12:20:01	12:27:25	426735	59014ee029f42300013cc5b7	430388408	1	main_z	7	main_z	149	stimuli_distractor_diamondtriangles.svg	stimuli_target_circlediamonds.svg	14	yes	44	1	608
6.6.1	and	2022-12-14	12:20:01	12:27:25	426735	59014ee029f42300013cc5b7	430388408	1	main_z	7	advance_on_keypress_ZEE	150	stimuli_distractor_diamondtriangles.svg	stimuli_target_circlediamonds.svg	14	yes	57	0	332
6.6.1	and	2022-12-14	12:20:01	12:27:27	428549	59014ee029f42300013cc5b7	430388408	1	main_z	7	main_z	151	stimuli_target_trianglesquares.svg	stimuli_distractor_diamondtriangles.svg	22	yes	44	1	818
6.6.1	and	2022-12-14	12:20:01	12:27:27	428549	59014ee029f42300013cc5b7	430388408	1	main_z	7	advance_on_keypress_ZEE	152	stimuli_target_trianglesquares.svg	stimuli_distractor_diamondtriangles.svg	22	yes	57	0	627
6.6.1	and	2022-12-14	12:20:01	12:27:30	431849	59014ee029f42300013cc5b7	430388408	1	main_z	7	main_z	153	stimuli_distractor_trianglediamonds.svg	stimuli_target_squaretriangles.svg	11	yes	0	0	2000
6.6.1	and	2022-12-14	12:20:01	12:27:30	431849	59014ee029f42300013cc5b7	430388408	1	main_z	7	advance_on_keypress_ZEE	154	stimuli_distractor_trianglediamonds.svg	stimuli_target_squaretriangles.svg	11	yes	57	0	473
6.6.1	and	2022-12-14	12:20:01	12:27:32	433773	59014ee029f42300013cc5b7	430388408	1	main_z	7	main_z	155	stimuli_target_squarediamonds.svg	stimuli_distractor_diamondtriangles.svg	8	yes	44	1	793
6.6.1	and	2022-12-14	12:20:01	12:27:32	433773	59014ee029f42300013cc5b7	430388408	1	main_z	7	advance_on_keypress_ZEE	156	stimuli_target_squarediamonds.svg	stimuli_distractor_diamondtriangles.svg	8	yes	57	0	308
6.6.1	and	2022-12-14	12:20:01	12:27:33	435165	59014ee029f42300013cc5b7	430388408	1	main_z	7	main_z	157	stimuli_distractor_diamondtriangles.svg	stimuli_target_circletriangles.svg	13	yes	44	1	437
6.6.1	and	2022-12-14	12:20:01	12:27:33	435165	59014ee029f42300013cc5b7	430388408	1	main_z	7	advance_on_keypress_ZEE	158	stimuli_distractor_diamondtriangles.svg	stimuli_target_circletriangles.svg	13	yes	57	0	155
6.6.1	and	2022-12-14	12:20:01	12:27:36	437642	59014ee029f42300013cc5b7	430388408	1	main_z	7	main_z	159	stimuli_distractor_diamondtriangles.svg	stimuli_distractor_diamondtriangles.svg	39	no	44	0	1666
6.6.1	and	2022-12-14	12:20:01	12:27:36	437642	59014ee029f42300013cc5b7	430388408	1	main_z	7	advance_on_keypress_ZEE	160	stimuli_distractor_diamondtriangles.svg	stimuli_distractor_diamondtriangles.svg	39	no	57	0	323
6.6.1	and	2022-12-14	12:20:01	12:28:26	487656	59014ee029f42300013cc5b7	430388408	1	practice_slash	9	practice_slash	1	stimuli_distractor_trianglediamonds.svg	stimuli_target_circlediamonds.svg	10	yes	53	1	522
6.6.1	and	2022-12-14	12:20:01	12:28:26	487656	59014ee029f42300013cc5b7	430388408	1	practice_slash	9	advance_on_keypress_SLASH	2	stimuli_distractor_trianglediamonds.svg	stimuli_target_circlediamonds.svg	10	yes	57	0	1284
6.6.1	and	2022-12-14	12:20:01	12:28:29	491124	59014ee029f42300013cc5b7	430388408	1	practice_slash	9	practice_slash	3	stimuli_target_squarediamonds.svg	stimuli_distractor_trianglediamonds.svg	5	yes	53	1	525
6.6.1	and	2022-12-14	12:20:01	12:28:29	491124	59014ee029f42300013cc5b7	430388408	1	practice_slash	9	advance_on_keypress_SLASH	4	stimuli_target_squarediamonds.svg	stimuli_distractor_trianglediamonds.svg	5	yes	57	0	468
6.6.1	and	2022-12-14	12:20:01	12:28:32	493749	59014ee029f42300013cc5b7	430388408	1	practice_slash	9	practice_slash	5	stimuli_target_squarediamonds.svg	stimuli_distractor_diamondtriangles.svg	2	yes	53	1	510
6.6.1	and	2022-12-14	12:20:01	12:28:32	493749	59014ee029f42300013cc5b7	430388408	1	practice_slash	9	advance_on_keypress_SLASH	6	stimuli_target_squarediamonds.svg	stimuli_distractor_diamondtriangles.svg	2	yes	57	0	401
6.6.1	and	2022-12-14	12:20:01	12:28:35	496650	59014ee029f42300013cc5b7	430388408	1	practice_slash	9	practice_slash	7	stimuli_target_diamondsquares.svg	stimuli_distractor_diamondtriangles.svg	3	yes	53	1	845
6.6.1	and	2022-12-14	12:20:01	12:28:35	496650	59014ee029f42300013cc5b7	430388408	1	practice_slash	9	advance_on_keypress_SLASH	8	stimuli_target_diamondsquares.svg	stimuli_distractor_diamondtriangles.svg	3	yes	57	0	379
6.6.1	and	2022-12-14	12:20:01	12:28:37	499241	59014ee029f42300013cc5b7	430388408	1	practice_slash	9	practice_slash	9	stimuli_distractor_diamondtriangles.svg	stimuli_target_diamondcircles.svg	8	yes	53	1	537
6.6.1	and	2022-12-14	12:20:01	12:28:37	499241	59014ee029f42300013cc5b7	430388408	1	practice_slash	9	advance_on_keypress_SLASH	10	stimuli_distractor_diamondtriangles.svg	stimuli_target_diamondcircles.svg	8	yes	57	0	627
6.6.1	and	2022-12-14	12:20:01	12:28:42	503537	59014ee029f42300013cc5b7	430388408	1	practice_slash	9	practice_slash	11	stimuli_distractor_diamondtriangles.svg	stimuli_distractor_diamondtriangles.svg	13	no	0	1	2000
6.6.1	and	2022-12-14	12:20:01	12:28:42	503537	59014ee029f42300013cc5b7	430388408	1	practice_slash	9	advance_on_keypress_SLASH	12	stimuli_distractor_diamondtriangles.svg	stimuli_distractor_diamondtriangles.svg	13	no	57	0	361
6.6.1	and	2022-12-14	12:20:01	12:28:46	507571	59014ee029f42300013cc5b7	430388408	1	practice_slash	9	practice_slash	13	stimuli_distractor_diamondtriangles.svg	stimuli_distractor_trianglediamonds.svg	14	no	0	1	2000
6.6.1	and	2022-12-14	12:20:01	12:28:46	507571	59014ee029f42300013cc5b7	430388408	1	practice_slash	9	advance_on_keypress_SLASH	14	stimuli_distractor_diamondtriangles.svg	stimuli_distractor_trianglediamonds.svg	14	no	57	0	567
6.6.1	and	2022-12-14	12:20:01	12:28:49	510890	59014ee029f42300013cc5b7	430388408	1	practice_slash	9	practice_slash	15	stimuli_distractor_trianglediamonds.svg	stimuli_target_diamondcircles.svg	12	yes	53	1	1085
6.6.1	and	2022-12-14	12:20:01	12:28:49	510890	59014ee029f42300013cc5b7	430388408	1	practice_slash	9	advance_on_keypress_SLASH	16	stimuli_distractor_trianglediamonds.svg	stimuli_target_diamondcircles.svg	12	yes	57	0	686
6.6.1	and	2022-12-14	12:20:01	12:28:53	515238	59014ee029f42300013cc5b7	430388408	1	practice_slash	9	practice_slash	17	stimuli_distractor_trianglediamonds.svg	stimuli_distractor_diamondtriangles.svg	16	no	0	1	2000
6.6.1	and	2022-12-14	12:20:01	12:28:53	515238	59014ee029f42300013cc5b7	430388408	1	practice_slash	9	advance_on_keypress_SLASH	18	stimuli_distractor_trianglediamonds.svg	stimuli_distractor_diamondtriangles.svg	16	no	57	0	500
6.6.1	and	2022-12-14	12:20:01	12:28:56	518182	59014ee029f42300013cc5b7	430388408	1	practice_slash	9	practice_slash	19	stimuli_target_circlediamonds.svg	stimuli_distractor_trianglediamonds.svg	4	yes	53	1	791
6.6.1	and	2022-12-14	12:20:01	12:28:56	518182	59014ee029f42300013cc5b7	430388408	1	practice_slash	9	advance_on_keypress_SLASH	20	stimuli_target_circlediamonds.svg	stimuli_distractor_trianglediamonds.svg	4	yes	57	0	628
6.6.1	and	2022-12-14	12:20:01	12:29:00	522468	59014ee029f42300013cc5b7	430388408	1	practice_slash	9	practice_slash	21	stimuli_distractor_trianglediamonds.svg	stimuli_distractor_trianglediamonds.svg	15	no	0	1	2000
6.6.1	and	2022-12-14	12:20:01	12:29:00	522468	59014ee029f42300013cc5b7	430388408	1	practice_slash	9	advance_on_keypress_SLASH	22	stimuli_distractor_trianglediamonds.svg	stimuli_distractor_trianglediamonds.svg	15	no	57	0	432
6.6.1	and	2022-12-14	12:20:01	12:29:03	525065	59014ee029f42300013cc5b7	430388408	1	practice_slash	9	practice_slash	23	stimuli_distractor_diamondtriangles.svg	stimuli_target_circletriangles.svg	7	yes	53	1	513
6.6.1	and	2022-12-14	12:20:01	12:29:03	525065	59014ee029f42300013cc5b7	430388408	1	practice_slash	9	advance_on_keypress_SLASH	24	stimuli_distractor_diamondtriangles.svg	stimuli_target_circletriangles.svg	7	yes	57	0	600
6.6.1	and	2022-12-14	12:20:01	12:29:06	527904	59014ee029f42300013cc5b7	430388408	1	practice_slash	9	practice_slash	25	stimuli_distractor_diamondtriangles.svg	stimuli_target_trianglecircles.svg	9	yes	53	1	564
6.6.1	and	2022-12-14	12:20:01	12:29:06	527904	59014ee029f42300013cc5b7	430388408	1	practice_slash	9	advance_on_keypress_SLASH	26	stimuli_distractor_diamondtriangles.svg	stimuli_target_trianglecircles.svg	9	yes	57	0	413
6.6.1	and	2022-12-14	12:20:01	12:29:08	530448	59014ee029f42300013cc5b7	430388408	1	practice_slash	9	practice_slash	27	stimuli_distractor_trianglediamonds.svg	stimuli_target_squarediamonds.svg	11	yes	53	1	476
6.6.1	and	2022-12-14	12:20:01	12:29:08	530448	59014ee029f42300013cc5b7	430388408	1	practice_slash	9	advance_on_keypress_SLASH	28	stimuli_distractor_trianglediamonds.svg	stimuli_target_squarediamonds.svg	11	yes	57	0	364
6.6.1	and	2022-12-14	12:20:01	12:29:11	533102	59014ee029f42300013cc5b7	430388408	1	practice_slash	9	practice_slash	29	stimuli_target_circlediamonds.svg	stimuli_distractor_diamondtriangles.svg	1	yes	53	1	630
6.6.1	and	2022-12-14	12:20:01	12:29:11	533102	59014ee029f42300013cc5b7	430388408	1	practice_slash	9	advance_on_keypress_SLASH	30	stimuli_target_circlediamonds.svg	stimuli_distractor_diamondtriangles.svg	1	yes	57	0	402
6.6.1	and	2022-12-14	12:20:01	12:29:14	535800	59014ee029f42300013cc5b7	430388408	1	practice_slash	9	practice_slash	31	stimuli_target_diamondsquares.svg	stimuli_distractor_trianglediamonds.svg	6	yes	53	1	624
6.6.1	and	2022-12-14	12:20:01	12:29:14	535800	59014ee029f42300013cc5b7	430388408	1	practice_slash	9	advance_on_keypress_SLASH	32	stimuli_target_diamondsquares.svg	stimuli_distractor_trianglediamonds.svg	6	yes	57	0	370
6.6.1	and	2022-12-14	12:20:01	12:29:17	539267	59014ee029f42300013cc5b7	430388408	1	main_slash	11	main_slash	1	stimuli_distractor_trianglediamonds.svg	stimuli_target_trianglesquares.svg	26	yes	53	1	734
6.6.1	and	2022-12-14	12:20:01	12:29:17	539267	59014ee029f42300013cc5b7	430388408	1	main_slash	11	advance_on_keypress_SLASH	2	stimuli_distractor_trianglediamonds.svg	stimuli_target_trianglesquares.svg	26	yes	57	0	581
6.6.1	and	2022-12-14	12:20:01	12:29:19	541118	59014ee029f42300013cc5b7	430388408	1	main_slash	11	main_slash	3	stimuli_distractor_diamondtriangles.svg	stimuli_target_squaretriangles.svg	15	yes	53	1	599
6.6.1	and	2022-12-14	12:20:01	12:29:19	541118	59014ee029f42300013cc5b7	430388408	1	main_slash	11	advance_on_keypress_SLASH	4	stimuli_distractor_diamondtriangles.svg	stimuli_target_squaretriangles.svg	15	yes	57	0	451
6.6.1	and	2022-12-14	12:20:01	12:29:21	542685	59014ee029f42300013cc5b7	430388408	1	main_slash	11	main_slash	5	stimuli_distractor_diamondtriangles.svg	stimuli_target_trianglesquares.svg	30	yes	53	1	447
6.6.1	and	2022-12-14	12:20:01	12:29:21	542685	59014ee029f42300013cc5b7	430388408	1	main_slash	11	advance_on_keypress_SLASH	6	stimuli_distractor_diamondtriangles.svg	stimuli_target_trianglesquares.svg	30	yes	57	0	377
6.6.1	and	2022-12-14	12:20:01	12:29:22	544285	59014ee029f42300013cc5b7	430388408	1	main_slash	11	main_slash	7	stimuli_target_circlediamonds.svg	stimuli_distractor_diamondtriangles.svg	6	yes	53	1	569
6.6.1	and	2022-12-14	12:20:01	12:29:22	544285	59014ee029f42300013cc5b7	430388408	1	main_slash	11	advance_on_keypress_SLASH	8	stimuli_target_circlediamonds.svg	stimuli_distractor_diamondtriangles.svg	6	yes	57	0	675
6.6.1	and	2022-12-14	12:20:01	12:29:24	546094	59014ee029f42300013cc5b7	430388408	1	main_slash	11	main_slash	9	stimuli_distractor_trianglediamonds.svg	stimuli_target_squaretriangles.svg	11	yes	53	1	480
6.6.1	and	2022-12-14	12:20:01	12:29:24	546094	59014ee029f42300013cc5b7	430388408	1	main_slash	11	advance_on_keypress_SLASH	10	stimuli_distractor_trianglediamonds.svg	stimuli_target_squaretriangles.svg	11	yes	57	0	368
6.6.1	and	2022-12-14	12:20:01	12:29:26	547887	59014ee029f42300013cc5b7	430388408	1	main_slash	11	main_slash	11	stimuli_target_trianglesquares.svg	stimuli_distractor_trianglediamonds.svg	18	yes	53	1	773
6.6.1	and	2022-12-14	12:20:01	12:29:26	547887	59014ee029f42300013cc5b7	430388408	1	main_slash	11	advance_on_keypress_SLASH	12	stimuli_target_trianglesquares.svg	stimuli_distractor_trianglediamonds.svg	18	yes	57	0	450
6.6.1	and	2022-12-14	12:20:01	12:29:29	550996	59014ee029f42300013cc5b7	430388408	1	main_slash	11	main_slash	13	stimuli_distractor_diamondtriangles.svg	stimuli_distractor_trianglediamonds.svg	38	no	0	1	2000
6.6.1	and	2022-12-14	12:20:01	12:29:29	550996	59014ee029f42300013cc5b7	430388408	1	main_slash	11	advance_on_keypress_SLASH	14	stimuli_distractor_diamondtriangles.svg	stimuli_distractor_trianglediamonds.svg	38	no	57	0	607
6.6.1	and	2022-12-14	12:20:01	12:29:32	554249	59014ee029f42300013cc5b7	430388408	1	main_slash	11	main_slash	15	stimuli_distractor_diamondtriangles.svg	stimuli_distractor_diamondtriangles.svg	39	no	0	1	2000
6.6.1	and	2022-12-14	12:20:01	12:29:32	554249	59014ee029f42300013cc5b7	430388408	1	main_slash	11	advance_on_keypress_SLASH	16	stimuli_distractor_diamondtriangles.svg	stimuli_distractor_diamondtriangles.svg	39	no	57	0	838
6.6.1	and	2022-12-14	12:20:01	12:29:35	556507	59014ee029f42300013cc5b7	430388408	1	main_slash	11	main_slash	17	stimuli_target_trianglecircles.svg	stimuli_distractor_diamondtriangles.svg	21	yes	53	1	757
6.6.1	and	2022-12-14	12:20:01	12:29:35	556507	59014ee029f42300013cc5b7	430388408	1	main_slash	11	advance_on_keypress_SLASH	18	stimuli_target_trianglecircles.svg	stimuli_distractor_diamondtriangles.svg	21	yes	57	0	618
6.6.1	and	2022-12-14	12:20:01	12:29:37	558753	59014ee029f42300013cc5b7	430388408	1	main_slash	11	main_slash	19	stimuli_distractor_trianglediamonds.svg	stimuli_distractor_trianglediamonds.svg	33	no	53	0	974
6.6.1	and	2022-12-14	12:20:01	12:29:37	558753	59014ee029f42300013cc5b7	430388408	1	main_slash	11	advance_on_keypress_SLASH	20	stimuli_distractor_trianglediamonds.svg	stimuli_distractor_trianglediamonds.svg	33	no	57	0	507
6.6.1	and	2022-12-14	12:20:01	12:29:38	560349	59014ee029f42300013cc5b7	430388408	1	main_slash	11	main_slash	21	stimuli_distractor_trianglediamonds.svg	stimuli_target_squarediamonds.svg	12	yes	53	1	433
6.6.1	and	2022-12-14	12:20:01	12:29:38	560349	59014ee029f42300013cc5b7	430388408	1	main_slash	11	advance_on_keypress_SLASH	22	stimuli_distractor_trianglediamonds.svg	stimuli_target_squarediamonds.svg	12	yes	57	0	455
6.6.1	and	2022-12-14	12:20:01	12:29:40	562030	59014ee029f42300013cc5b7	430388408	1	main_slash	11	main_slash	23	stimuli_target_diamondcircles.svg	stimuli_distractor_trianglediamonds.svg	19	yes	53	1	566
6.6.1	and	2022-12-14	12:20:01	12:29:40	562030	59014ee029f42300013cc5b7	430388408	1	main_slash	11	advance_on_keypress_SLASH	24	stimuli_target_diamondcircles.svg	stimuli_distractor_trianglediamonds.svg	19	yes	57	0	331
6.6.1	and	2022-12-14	12:20:01	12:29:42	563683	59014ee029f42300013cc5b7	430388408	1	main_slash	11	main_slash	25	stimuli_distractor_trianglediamonds.svg	stimuli_target_circletriangles.svg	9	yes	53	1	668
6.6.1	and	2022-12-14	12:20:01	12:29:42	563683	59014ee029f42300013cc5b7	430388408	1	main_slash	11	advance_on_keypress_SLASH	26	stimuli_distractor_trianglediamonds.svg	stimuli_target_circletriangles.svg	9	yes	57	0	326
6.6.1	and	2022-12-14	12:20:01	12:29:44	566262	59014ee029f42300013cc5b7	430388408	1	main_slash	11	main_slash	27	stimuli_distractor_trianglediamonds.svg	stimuli_distractor_diamondtriangles.svg	36	no	53	0	1580
6.6.1	and	2022-12-14	12:20:01	12:29:44	566262	59014ee029f42300013cc5b7	430388408	1	main_slash	11	advance_on_keypress_SLASH	28	stimuli_distractor_trianglediamonds.svg	stimuli_distractor_diamondtriangles.svg	36	no	57	0	994
6.6.1	and	2022-12-14	12:20:01	12:29:46	568420	59014ee029f42300013cc5b7	430388408	1	main_slash	11	main_slash	29	stimuli_target_circletriangles.svg	stimuli_distractor_trianglediamonds.svg	1	yes	53	1	528
6.6.1	and	2022-12-14	12:20:01	12:29:46	568420	59014ee029f42300013cc5b7	430388408	1	main_slash	11	advance_on_keypress_SLASH	30	stimuli_target_circletriangles.svg	stimuli_distractor_trianglediamonds.svg	1	yes	57	0	406
6.6.1	and	2022-12-14	12:20:01	12:29:48	570232	59014ee029f42300013cc5b7	430388408	1	main_slash	11	main_slash	31	stimuli_distractor_diamondtriangles.svg	stimuli_target_diamondsquares.svg	32	yes	53	1	746
6.6.1	and	2022-12-14	12:20:01	12:29:48	570232	59014ee029f42300013cc5b7	430388408	1	main_slash	11	advance_on_keypress_SLASH	32	stimuli_distractor_diamondtriangles.svg	stimuli_target_diamondsquares.svg	32	yes	57	0	320
6.6.1	and	2022-12-14	12:20:01	12:29:51	573216	59014ee029f42300013cc5b7	430388408	1	main_slash	11	main_slash	33	stimuli_distractor_trianglediamonds.svg	stimuli_distractor_diamondtriangles.svg	35	no	0	1	2000
6.6.1	and	2022-12-14	12:20:01	12:29:51	573216	59014ee029f42300013cc5b7	430388408	1	main_slash	11	advance_on_keypress_SLASH	34	stimuli_distractor_trianglediamonds.svg	stimuli_distractor_diamondtriangles.svg	35	no	57	0	453
6.6.1	and	2022-12-14	12:20:01	12:29:53	574923	59014ee029f42300013cc5b7	430388408	1	main_slash	11	main_slash	35	stimuli_target_squarediamonds.svg	stimuli_distractor_diamondtriangles.svg	8	yes	53	1	586
6.6.1	and	2022-12-14	12:20:01	12:29:53	574923	59014ee029f42300013cc5b7	430388408	1	main_slash	11	advance_on_keypress_SLASH	36	stimuli_target_squarediamonds.svg	stimuli_distractor_diamondtriangles.svg	8	yes	57	0	540
6.6.1	and	2022-12-14	12:20:01	12:29:55	576620	59014ee029f42300013cc5b7	430388408	1	main_slash	11	main_slash	37	stimuli_target_circlediamonds.svg	stimuli_distractor_trianglediamonds.svg	2	yes	53	1	502
6.6.1	and	2022-12-14	12:20:01	12:29:55	576620	59014ee029f42300013cc5b7	430388408	1	main_slash	11	advance_on_keypress_SLASH	38	stimuli_target_circlediamonds.svg	stimuli_distractor_trianglediamonds.svg	2	yes	57	0	367
6.6.1	and	2022-12-14	12:20:01	12:29:56	578143	59014ee029f42300013cc5b7	430388408	1	main_slash	11	main_slash	39	stimuli_distractor_trianglediamonds.svg	stimuli_target_trianglecircles.svg	25	yes	53	1	476
6.6.1	and	2022-12-14	12:20:01	12:29:56	578143	59014ee029f42300013cc5b7	430388408	1	main_slash	11	advance_on_keypress_SLASH	40	stimuli_distractor_trianglediamonds.svg	stimuli_target_trianglecircles.svg	25	yes	57	0	389
6.6.1	and	2022-12-14	12:20:01	12:29:58	579735	59014ee029f42300013cc5b7	430388408	1	main_slash	11	main_slash	41	stimuli_target_squaretriangles.svg	stimuli_distractor_diamondtriangles.svg	7	yes	53	1	552
6.6.1	and	2022-12-14	12:20:01	12:29:58	579735	59014ee029f42300013cc5b7	430388408	1	main_slash	11	advance_on_keypress_SLASH	42	stimuli_target_squaretriangles.svg	stimuli_distractor_diamondtriangles.svg	7	yes	57	0	335
6.6.1	and	2022-12-14	12:20:01	12:29:59	581136	59014ee029f42300013cc5b7	430388408	1	main_slash	11	main_slash	43	stimuli_target_circletriangles.svg	stimuli_distractor_diamondtriangles.svg	5	yes	53	1	413
6.6.1	and	2022-12-14	12:20:01	12:29:59	581136	59014ee029f42300013cc5b7	430388408	1	main_slash	11	advance_on_keypress_SLASH	44	stimuli_target_circletriangles.svg	stimuli_distractor_diamondtriangles.svg	5	yes	57	0	329
6.6.1	and	2022-12-14	12:20:01	12:30:01	582726	59014ee029f42300013cc5b7	430388408	1	main_slash	11	main_slash	45	stimuli_target_diamondsquares.svg	stimuli_distractor_diamondtriangles.svg	24	yes	53	1	593
6.6.1	and	2022-12-14	12:20:01	12:30:01	582726	59014ee029f42300013cc5b7	430388408	1	main_slash	11	advance_on_keypress_SLASH	46	stimuli_target_diamondsquares.svg	stimuli_distractor_diamondtriangles.svg	24	yes	57	0	604
6.6.1	and	2022-12-14	12:20:01	12:30:03	584570	59014ee029f42300013cc5b7	430388408	1	main_slash	11	main_slash	47	stimuli_target_squarediamonds.svg	stimuli_distractor_trianglediamonds.svg	4	yes	53	1	586
6.6.1	and	2022-12-14	12:20:01	12:30:03	584570	59014ee029f42300013cc5b7	430388408	1	main_slash	11	advance_on_keypress_SLASH	48	stimuli_target_squarediamonds.svg	stimuli_distractor_trianglediamonds.svg	4	yes	57	0	342
6.6.1	and	2022-12-14	12:20:01	12:30:06	587564	59014ee029f42300013cc5b7	430388408	1	main_slash	11	main_slash	49	stimuli_distractor_diamondtriangles.svg	stimuli_distractor_diamondtriangles.svg	40	no	0	1	2000
6.6.1	and	2022-12-14	12:20:01	12:30:06	587564	59014ee029f42300013cc5b7	430388408	1	main_slash	11	advance_on_keypress_SLASH	50	stimuli_distractor_diamondtriangles.svg	stimuli_distractor_diamondtriangles.svg	40	no	57	0	495
6.6.1	and	2022-12-14	12:20:01	12:30:07	589200	59014ee029f42300013cc5b7	430388408	1	main_slash	11	main_slash	51	stimuli_target_squaretriangles.svg	stimuli_distractor_trianglediamonds.svg	3	yes	53	1	501
6.6.1	and	2022-12-14	12:20:01	12:30:07	589200	59014ee029f42300013cc5b7	430388408	1	main_slash	11	advance_on_keypress_SLASH	52	stimuli_target_squaretriangles.svg	stimuli_distractor_trianglediamonds.svg	3	yes	57	0	538
6.6.1	and	2022-12-14	12:20:01	12:30:09	590851	59014ee029f42300013cc5b7	430388408	1	main_slash	11	main_slash	53	stimuli_distractor_diamondtriangles.svg	stimuli_target_squarediamonds.svg	16	yes	53	1	450
6.6.1	and	2022-12-14	12:20:01	12:30:09	590851	59014ee029f42300013cc5b7	430388408	1	main_slash	11	advance_on_keypress_SLASH	54	stimuli_distractor_diamondtriangles.svg	stimuli_target_squarediamonds.svg	16	yes	57	0	348
6.6.1	and	2022-12-14	12:20:01	12:30:10	592351	59014ee029f42300013cc5b7	430388408	1	main_slash	11	main_slash	55	stimuli_target_trianglecircles.svg	stimuli_distractor_trianglediamonds.svg	17	yes	53	1	485
6.6.1	and	2022-12-14	12:20:01	12:30:10	592351	59014ee029f42300013cc5b7	430388408	1	main_slash	11	advance_on_keypress_SLASH	56	stimuli_target_trianglecircles.svg	stimuli_distractor_trianglediamonds.svg	17	yes	57	0	358
6.6.1	and	2022-12-14	12:20:01	12:30:12	593766	59014ee029f42300013cc5b7	430388408	1	main_slash	11	main_slash	57	stimuli_distractor_trianglediamonds.svg	stimuli_target_circlediamonds.svg	10	yes	53	1	400
6.6.1	and	2022-12-14	12:20:01	12:30:12	593766	59014ee029f42300013cc5b7	430388408	1	main_slash	11	advance_on_keypress_SLASH	58	stimuli_distractor_trianglediamonds.svg	stimuli_target_circlediamonds.svg	10	yes	57	0	332
6.6.1	and	2022-12-14	12:20:01	12:30:13	595095	59014ee029f42300013cc5b7	430388408	1	main_slash	11	main_slash	59	stimuli_target_diamondcircles.svg	stimuli_distractor_diamondtriangles.svg	23	yes	53	1	343
6.6.1	and	2022-12-14	12:20:01	12:30:13	595095	59014ee029f42300013cc5b7	430388408	1	main_slash	11	advance_on_keypress_SLASH	60	stimuli_target_diamondcircles.svg	stimuli_distractor_diamondtriangles.svg	23	yes	57	0	353
6.6.1	and	2022-12-14	12:20:01	12:30:15	596621	59014ee029f42300013cc5b7	430388408	1	main_slash	11	main_slash	61	stimuli_distractor_diamondtriangles.svg	stimuli_distractor_trianglediamonds.svg	37	no	53	0	527
6.6.1	and	2022-12-14	12:20:01	12:30:15	596621	59014ee029f42300013cc5b7	430388408	1	main_slash	11	advance_on_keypress_SLASH	62	stimuli_distractor_diamondtriangles.svg	stimuli_distractor_trianglediamonds.svg	37	no	57	0	1471
6.6.1	and	2022-12-14	12:20:01	12:30:17	599253	59014ee029f42300013cc5b7	430388408	1	main_slash	11	main_slash	63	stimuli_distractor_diamondtriangles.svg	stimuli_target_trianglecircles.svg	29	yes	53	1	504
6.6.1	and	2022-12-14	12:20:01	12:30:17	599253	59014ee029f42300013cc5b7	430388408	1	main_slash	11	advance_on_keypress_SLASH	64	stimuli_distractor_diamondtriangles.svg	stimuli_target_trianglecircles.svg	29	yes	57	0	344
6.6.1	and	2022-12-14	12:20:01	12:30:19	600659	59014ee029f42300013cc5b7	430388408	1	main_slash	11	main_slash	65	stimuli_distractor_trianglediamonds.svg	stimuli_target_diamondcircles.svg	27	yes	53	1	384
6.6.1	and	2022-12-14	12:20:01	12:30:19	600659	59014ee029f42300013cc5b7	430388408	1	main_slash	11	advance_on_keypress_SLASH	66	stimuli_distractor_trianglediamonds.svg	stimuli_target_diamondcircles.svg	27	yes	57	0	292
6.6.1	and	2022-12-14	12:20:01	12:30:20	602124	59014ee029f42300013cc5b7	430388408	1	main_slash	11	main_slash	67	stimuli_distractor_trianglediamonds.svg	stimuli_target_diamondsquares.svg	28	yes	53	1	489
6.6.1	and	2022-12-14	12:20:01	12:30:20	602124	59014ee029f42300013cc5b7	430388408	1	main_slash	11	advance_on_keypress_SLASH	68	stimuli_distractor_trianglediamonds.svg	stimuli_target_diamondsquares.svg	28	yes	57	0	1259
6.6.1	and	2022-12-14	12:20:01	12:30:23	605014	59014ee029f42300013cc5b7	430388408	1	main_slash	11	main_slash	69	stimuli_target_trianglesquares.svg	stimuli_distractor_diamondtriangles.svg	22	yes	53	1	978
6.6.1	and	2022-12-14	12:20:01	12:30:23	605014	59014ee029f42300013cc5b7	430388408	1	main_slash	11	advance_on_keypress_SLASH	70	stimuli_target_trianglesquares.svg	stimuli_distractor_diamondtriangles.svg	22	yes	57	0	1391
6.6.1	and	2022-12-14	12:20:01	12:30:26	607649	59014ee029f42300013cc5b7	430388408	1	main_slash	11	main_slash	71	stimuli_distractor_diamondtriangles.svg	stimuli_target_diamondcircles.svg	31	yes	53	1	597
6.6.1	and	2022-12-14	12:20:01	12:30:26	607649	59014ee029f42300013cc5b7	430388408	1	main_slash	11	advance_on_keypress_SLASH	72	stimuli_distractor_diamondtriangles.svg	stimuli_target_diamondcircles.svg	31	yes	57	0	314
6.6.1	and	2022-12-14	12:20:01	12:30:29	610635	59014ee029f42300013cc5b7	430388408	1	main_slash	11	main_slash	73	stimuli_distractor_trianglediamonds.svg	stimuli_distractor_trianglediamonds.svg	34	no	0	1	2000
6.6.1	and	2022-12-14	12:20:01	12:30:29	610635	59014ee029f42300013cc5b7	430388408	1	main_slash	11	advance_on_keypress_SLASH	74	stimuli_distractor_trianglediamonds.svg	stimuli_distractor_trianglediamonds.svg	34	no	57	0	574
6.6.1	and	2022-12-14	12:20:01	12:30:31	612483	59014ee029f42300013cc5b7	430388408	1	main_slash	11	main_slash	75	stimuli_distractor_diamondtriangles.svg	stimuli_target_circletriangles.svg	13	yes	53	1	614
6.6.1	and	2022-12-14	12:20:01	12:30:31	612483	59014ee029f42300013cc5b7	430388408	1	main_slash	11	advance_on_keypress_SLASH	76	stimuli_distractor_diamondtriangles.svg	stimuli_target_circletriangles.svg	13	yes	57	0	458
6.6.1	and	2022-12-14	12:20:01	12:30:32	614268	59014ee029f42300013cc5b7	430388408	1	main_slash	11	main_slash	77	stimuli_target_diamondsquares.svg	stimuli_distractor_trianglediamonds.svg	20	yes	53	1	666
6.6.1	and	2022-12-14	12:20:01	12:30:32	614268	59014ee029f42300013cc5b7	430388408	1	main_slash	11	advance_on_keypress_SLASH	78	stimuli_target_diamondsquares.svg	stimuli_distractor_trianglediamonds.svg	20	yes	57	0	401
6.6.1	and	2022-12-14	12:20:01	12:30:34	615821	59014ee029f42300013cc5b7	430388408	1	main_slash	11	main_slash	79	stimuli_distractor_diamondtriangles.svg	stimuli_target_circlediamonds.svg	14	yes	53	1	487
6.6.1	and	2022-12-14	12:20:01	12:30:34	615821	59014ee029f42300013cc5b7	430388408	1	main_slash	11	advance_on_keypress_SLASH	80	stimuli_distractor_diamondtriangles.svg	stimuli_target_circlediamonds.svg	14	yes	57	0	360
6.6.1	and	2022-12-14	12:20:01	12:30:37	618847	59014ee029f42300013cc5b7	430388408	1	main_slash	11	main_slash	81	stimuli_distractor_trianglediamonds.svg	stimuli_distractor_trianglediamonds.svg	33	no	0	1	2000
6.6.1	and	2022-12-14	12:20:01	12:30:37	618847	59014ee029f42300013cc5b7	430388408	1	main_slash	11	advance_on_keypress_SLASH	82	stimuli_distractor_trianglediamonds.svg	stimuli_distractor_trianglediamonds.svg	33	no	57	0	640
6.6.1	and	2022-12-14	12:20:01	12:30:39	620576	59014ee029f42300013cc5b7	430388408	1	main_slash	11	main_slash	83	stimuli_distractor_trianglediamonds.svg	stimuli_target_trianglecircles.svg	25	yes	53	1	440
6.6.1	and	2022-12-14	12:20:01	12:30:39	620576	59014ee029f42300013cc5b7	430388408	1	main_slash	11	advance_on_keypress_SLASH	84	stimuli_distractor_trianglediamonds.svg	stimuli_target_trianglecircles.svg	25	yes	57	0	484
6.6.1	and	2022-12-14	12:20:01	12:30:41	622525	59014ee029f42300013cc5b7	430388408	1	main_slash	11	main_slash	85	stimuli_target_squaretriangles.svg	stimuli_distractor_trianglediamonds.svg	3	yes	53	1	806
6.6.1	and	2022-12-14	12:20:01	12:30:41	622525	59014ee029f42300013cc5b7	430388408	1	main_slash	11	advance_on_keypress_SLASH	86	stimuli_target_squaretriangles.svg	stimuli_distractor_trianglediamonds.svg	3	yes	57	0	370
6.6.1	and	2022-12-14	12:20:01	12:30:42	623985	59014ee029f42300013cc5b7	430388408	1	main_slash	11	main_slash	87	stimuli_target_diamondcircles.svg	stimuli_distractor_trianglediamonds.svg	19	yes	53	1	429
6.6.1	and	2022-12-14	12:20:01	12:30:42	623985	59014ee029f42300013cc5b7	430388408	1	main_slash	11	advance_on_keypress_SLASH	88	stimuli_target_diamondcircles.svg	stimuli_distractor_trianglediamonds.svg	19	yes	57	0	267
6.6.1	and	2022-12-14	12:20:01	12:30:43	625352	59014ee029f42300013cc5b7	430388408	1	main_slash	11	main_slash	89	stimuli_distractor_diamondtriangles.svg	stimuli_target_circletriangles.svg	13	yes	53	1	433
6.6.1	and	2022-12-14	12:20:01	12:30:43	625352	59014ee029f42300013cc5b7	430388408	1	main_slash	11	advance_on_keypress_SLASH	90	stimuli_distractor_diamondtriangles.svg	stimuli_target_circletriangles.svg	13	yes	57	0	294
6.6.1	and	2022-12-14	12:20:01	12:30:45	626929	59014ee029f42300013cc5b7	430388408	1	main_slash	11	main_slash	91	stimuli_target_trianglesquares.svg	stimuli_distractor_trianglediamonds.svg	18	yes	53	1	627
6.6.1	and	2022-12-14	12:20:01	12:30:45	626929	59014ee029f42300013cc5b7	430388408	1	main_slash	11	advance_on_keypress_SLASH	92	stimuli_target_trianglesquares.svg	stimuli_distractor_trianglediamonds.svg	18	yes	57	0	265
6.6.1	and	2022-12-14	12:20:01	12:30:46	628274	59014ee029f42300013cc5b7	430388408	1	main_slash	11	main_slash	93	stimuli_target_diamondsquares.svg	stimuli_distractor_diamondtriangles.svg	24	yes	53	1	422
6.6.1	and	2022-12-14	12:20:01	12:30:46	628274	59014ee029f42300013cc5b7	430388408	1	main_slash	11	advance_on_keypress_SLASH	94	stimuli_target_diamondsquares.svg	stimuli_distractor_diamondtriangles.svg	24	yes	57	0	261
6.6.1	and	2022-12-14	12:20:01	12:30:48	629601	59014ee029f42300013cc5b7	430388408	1	main_slash	11	main_slash	95	stimuli_target_diamondsquares.svg	stimuli_distractor_trianglediamonds.svg	20	yes	53	1	407
6.6.1	and	2022-12-14	12:20:01	12:30:48	629601	59014ee029f42300013cc5b7	430388408	1	main_slash	11	advance_on_keypress_SLASH	96	stimuli_target_diamondsquares.svg	stimuli_distractor_trianglediamonds.svg	20	yes	57	0	243
6.6.1	and	2022-12-14	12:20:01	12:30:49	630959	59014ee029f42300013cc5b7	430388408	1	main_slash	11	main_slash	97	stimuli_target_circletriangles.svg	stimuli_distractor_diamondtriangles.svg	5	yes	53	1	455
6.6.1	and	2022-12-14	12:20:01	12:30:49	630959	59014ee029f42300013cc5b7	430388408	1	main_slash	11	advance_on_keypress_SLASH	98	stimuli_target_circletriangles.svg	stimuli_distractor_diamondtriangles.svg	5	yes	57	0	196
6.6.1	and	2022-12-14	12:20:01	12:30:50	632260	59014ee029f42300013cc5b7	430388408	1	main_slash	11	main_slash	99	stimuli_distractor_diamondtriangles.svg	stimuli_target_diamondsquares.svg	32	yes	53	1	440
6.6.1	and	2022-12-14	12:20:01	12:30:50	632260	59014ee029f42300013cc5b7	430388408	1	main_slash	11	advance_on_keypress_SLASH	100	stimuli_distractor_diamondtriangles.svg	stimuli_target_diamondsquares.svg	32	yes	57	0	210
6.6.1	and	2022-12-14	12:20:01	12:30:52	633525	59014ee029f42300013cc5b7	430388408	1	main_slash	11	main_slash	101	stimuli_target_squarediamonds.svg	stimuli_distractor_diamondtriangles.svg	8	yes	53	1	410
6.6.1	and	2022-12-14	12:20:01	12:30:52	633525	59014ee029f42300013cc5b7	430388408	1	main_slash	11	advance_on_keypress_SLASH	102	stimuli_target_squarediamonds.svg	stimuli_distractor_diamondtriangles.svg	8	yes	57	0	206
6.6.1	and	2022-12-14	12:20:01	12:30:53	635062	59014ee029f42300013cc5b7	430388408	1	main_slash	11	main_slash	103	stimuli_distractor_diamondtriangles.svg	stimuli_target_squarediamonds.svg	16	yes	53	1	678
6.6.1	and	2022-12-14	12:20:01	12:30:53	635062	59014ee029f42300013cc5b7	430388408	1	main_slash	11	advance_on_keypress_SLASH	104	stimuli_distractor_diamondtriangles.svg	stimuli_target_squarediamonds.svg	16	yes	57	0	162
6.6.1	and	2022-12-14	12:20:01	12:30:54	636277	59014ee029f42300013cc5b7	430388408	1	main_slash	11	main_slash	105	stimuli_distractor_diamondtriangles.svg	stimuli_target_trianglecircles.svg	29	yes	53	1	399
6.6.1	and	2022-12-14	12:20:01	12:30:54	636277	59014ee029f42300013cc5b7	430388408	1	main_slash	11	advance_on_keypress_SLASH	106	stimuli_distractor_diamondtriangles.svg	stimuli_target_trianglecircles.svg	29	yes	57	0	153
6.6.1	and	2022-12-14	12:20:01	12:30:55	637474	59014ee029f42300013cc5b7	430388408	1	main_slash	11	main_slash	107	stimuli_distractor_diamondtriangles.svg	stimuli_target_diamondcircles.svg	31	yes	53	1	375
6.6.1	and	2022-12-14	12:20:01	12:30:55	637474	59014ee029f42300013cc5b7	430388408	1	main_slash	11	advance_on_keypress_SLASH	108	stimuli_distractor_diamondtriangles.svg	stimuli_target_diamondcircles.svg	31	yes	57	0	200
6.6.1	and	2022-12-14	12:20:01	12:30:57	638766	59014ee029f42300013cc5b7	430388408	1	main_slash	11	main_slash	109	stimuli_distractor_diamondtriangles.svg	stimuli_target_squaretriangles.svg	15	yes	53	1	417
6.6.1	and	2022-12-14	12:20:01	12:30:57	638766	59014ee029f42300013cc5b7	430388408	1	main_slash	11	advance_on_keypress_SLASH	110	stimuli_distractor_diamondtriangles.svg	stimuli_target_squaretriangles.svg	15	yes	57	0	173
6.6.1	and	2022-12-14	12:20:01	12:30:58	639958	59014ee029f42300013cc5b7	430388408	1	main_slash	11	main_slash	111	stimuli_distractor_trianglediamonds.svg	stimuli_target_trianglesquares.svg	26	yes	53	1	351
6.6.1	and	2022-12-14	12:20:01	12:30:58	639958	59014ee029f42300013cc5b7	430388408	1	main_slash	11	advance_on_keypress_SLASH	112	stimuli_distractor_trianglediamonds.svg	stimuli_target_trianglesquares.svg	26	yes	57	0	211
6.6.1	and	2022-12-14	12:20:01	12:31:01	642832	59014ee029f42300013cc5b7	430388408	1	main_slash	11	main_slash	113	stimuli_distractor_diamondtriangles.svg	stimuli_distractor_diamondtriangles.svg	39	no	0	1	2000
6.6.1	and	2022-12-14	12:20:01	12:31:01	642832	59014ee029f42300013cc5b7	430388408	1	main_slash	11	advance_on_keypress_SLASH	114	stimuli_distractor_diamondtriangles.svg	stimuli_distractor_diamondtriangles.svg	39	no	57	0	913
6.6.1	and	2022-12-14	12:20:01	12:31:03	644872	59014ee029f42300013cc5b7	430388408	1	main_slash	11	main_slash	115	stimuli_target_circletriangles.svg	stimuli_distractor_trianglediamonds.svg	1	yes	53	1	486
6.6.1	and	2022-12-14	12:20:01	12:31:03	644872	59014ee029f42300013cc5b7	430388408	1	main_slash	11	advance_on_keypress_SLASH	116	stimuli_target_circletriangles.svg	stimuli_distractor_trianglediamonds.svg	1	yes	57	0	320
6.6.1	and	2022-12-14	12:20:01	12:31:06	647849	59014ee029f42300013cc5b7	430388408	1	main_slash	11	main_slash	117	stimuli_distractor_diamondtriangles.svg	stimuli_distractor_diamondtriangles.svg	40	no	0	1	2000
6.6.1	and	2022-12-14	12:20:01	12:31:06	647849	59014ee029f42300013cc5b7	430388408	1	main_slash	11	advance_on_keypress_SLASH	118	stimuli_distractor_diamondtriangles.svg	stimuli_distractor_diamondtriangles.svg	40	no	57	0	575
6.6.1	and	2022-12-14	12:20:01	12:31:08	649526	59014ee029f42300013cc5b7	430388408	1	main_slash	11	main_slash	119	stimuli_target_circlediamonds.svg	stimuli_distractor_diamondtriangles.svg	6	yes	53	1	444
6.6.1	and	2022-12-14	12:20:01	12:31:08	649526	59014ee029f42300013cc5b7	430388408	1	main_slash	11	advance_on_keypress_SLASH	120	stimuli_target_circlediamonds.svg	stimuli_distractor_diamondtriangles.svg	6	yes	57	0	310
6.6.1	and	2022-12-14	12:20:01	12:31:11	652485	59014ee029f42300013cc5b7	430388408	1	main_slash	11	main_slash	121	stimuli_distractor_trianglediamonds.svg	stimuli_distractor_diamondtriangles.svg	35	no	0	1	2000
6.6.1	and	2022-12-14	12:20:01	12:31:11	652485	59014ee029f42300013cc5b7	430388408	1	main_slash	11	advance_on_keypress_SLASH	122	stimuli_distractor_trianglediamonds.svg	stimuli_distractor_diamondtriangles.svg	35	no	57	0	470
6.6.1	and	2022-12-14	12:20:01	12:31:12	654108	59014ee029f42300013cc5b7	430388408	1	main_slash	11	main_slash	123	stimuli_distractor_trianglediamonds.svg	stimuli_target_diamondcircles.svg	27	yes	53	1	487
6.6.1	and	2022-12-14	12:20:01	12:31:12	654108	59014ee029f42300013cc5b7	430388408	1	main_slash	11	advance_on_keypress_SLASH	124	stimuli_distractor_trianglediamonds.svg	stimuli_target_diamondcircles.svg	27	yes	57	0	304
6.6.1	and	2022-12-14	12:20:01	12:31:14	655632	59014ee029f42300013cc5b7	430388408	1	main_slash	11	main_slash	125	stimuli_target_squaretriangles.svg	stimuli_distractor_diamondtriangles.svg	7	yes	53	1	563
6.6.1	and	2022-12-14	12:20:01	12:31:14	655632	59014ee029f42300013cc5b7	430388408	1	main_slash	11	advance_on_keypress_SLASH	126	stimuli_target_squaretriangles.svg	stimuli_distractor_diamondtriangles.svg	7	yes	57	0	351
6.6.1	and	2022-12-14	12:20:01	12:31:15	657056	59014ee029f42300013cc5b7	430388408	1	main_slash	11	main_slash	127	stimuli_target_trianglecircles.svg	stimuli_distractor_diamondtriangles.svg	21	yes	53	1	421
6.6.1	and	2022-12-14	12:20:01	12:31:15	657056	59014ee029f42300013cc5b7	430388408	1	main_slash	11	advance_on_keypress_SLASH	128	stimuli_target_trianglecircles.svg	stimuli_distractor_diamondtriangles.svg	21	yes	57	0	221
6.6.1	and	2022-12-14	12:20:01	12:31:18	659935	59014ee029f42300013cc5b7	430388408	1	main_slash	11	main_slash	129	stimuli_distractor_trianglediamonds.svg	stimuli_distractor_diamondtriangles.svg	36	no	0	1	2000
6.6.1	and	2022-12-14	12:20:01	12:31:18	659935	59014ee029f42300013cc5b7	430388408	1	main_slash	11	advance_on_keypress_SLASH	130	stimuli_distractor_trianglediamonds.svg	stimuli_distractor_diamondtriangles.svg	36	no	57	0	431
6.6.1	and	2022-12-14	12:20:01	12:31:19	661421	59014ee029f42300013cc5b7	430388408	1	main_slash	11	main_slash	131	stimuli_target_diamondcircles.svg	stimuli_distractor_diamondtriangles.svg	23	yes	53	1	413
6.6.1	and	2022-12-14	12:20:01	12:31:19	661421	59014ee029f42300013cc5b7	430388408	1	main_slash	11	advance_on_keypress_SLASH	132	stimuli_target_diamondcircles.svg	stimuli_distractor_diamondtriangles.svg	23	yes	57	0	241
6.6.1	and	2022-12-14	12:20:01	12:31:21	662693	59014ee029f42300013cc5b7	430388408	1	main_slash	11	main_slash	133	stimuli_distractor_trianglediamonds.svg	stimuli_target_squaretriangles.svg	11	yes	53	1	383
6.6.1	and	2022-12-14	12:20:01	12:31:21	662693	59014ee029f42300013cc5b7	430388408	1	main_slash	11	advance_on_keypress_SLASH	134	stimuli_distractor_trianglediamonds.svg	stimuli_target_squaretriangles.svg	11	yes	57	0	178
6.6.1	and	2022-12-14	12:20:01	12:31:22	663934	59014ee029f42300013cc5b7	430388408	1	main_slash	11	main_slash	135	stimuli_distractor_trianglediamonds.svg	stimuli_target_circletriangles.svg	9	yes	53	1	405
6.6.1	and	2022-12-14	12:20:01	12:31:22	663934	59014ee029f42300013cc5b7	430388408	1	main_slash	11	advance_on_keypress_SLASH	136	stimuli_distractor_trianglediamonds.svg	stimuli_target_circletriangles.svg	9	yes	57	0	141
6.6.1	and	2022-12-14	12:20:01	12:31:23	665127	59014ee029f42300013cc5b7	430388408	1	main_slash	11	main_slash	137	stimuli_distractor_diamondtriangles.svg	stimuli_target_circlediamonds.svg	14	yes	53	1	382
6.6.1	and	2022-12-14	12:20:01	12:31:23	665127	59014ee029f42300013cc5b7	430388408	1	main_slash	11	advance_on_keypress_SLASH	138	stimuli_distractor_diamondtriangles.svg	stimuli_target_circlediamonds.svg	14	yes	57	0	96
6.6.1	and	2022-12-14	12:20:01	12:31:25	666482	59014ee029f42300013cc5b7	430388408	1	main_slash	11	main_slash	139	stimuli_distractor_diamondtriangles.svg	stimuli_target_trianglesquares.svg	30	yes	53	1	596
6.6.1	and	2022-12-14	12:20:01	12:31:25	666482	59014ee029f42300013cc5b7	430388408	1	main_slash	11	advance_on_keypress_SLASH	140	stimuli_distractor_diamondtriangles.svg	stimuli_target_trianglesquares.svg	30	yes	57	0	223
6.6.1	and	2022-12-14	12:20:01	12:31:27	669350	59014ee029f42300013cc5b7	430388408	1	main_slash	11	main_slash	141	stimuli_distractor_trianglediamonds.svg	stimuli_distractor_trianglediamonds.svg	34	no	0	1	2000
6.6.1	and	2022-12-14	12:20:01	12:31:27	669350	59014ee029f42300013cc5b7	430388408	1	main_slash	11	advance_on_keypress_SLASH	142	stimuli_distractor_trianglediamonds.svg	stimuli_distractor_trianglediamonds.svg	34	no	57	0	407
6.6.1	and	2022-12-14	12:20:01	12:31:29	670908	59014ee029f42300013cc5b7	430388408	1	main_slash	11	main_slash	143	stimuli_target_squarediamonds.svg	stimuli_distractor_trianglediamonds.svg	4	yes	53	1	488
6.6.1	and	2022-12-14	12:20:01	12:31:29	670908	59014ee029f42300013cc5b7	430388408	1	main_slash	11	advance_on_keypress_SLASH	144	stimuli_target_squarediamonds.svg	stimuli_distractor_trianglediamonds.svg	4	yes	57	0	183
6.6.1	and	2022-12-14	12:20:01	12:31:30	672195	59014ee029f42300013cc5b7	430388408	1	main_slash	11	main_slash	145	stimuli_target_trianglesquares.svg	stimuli_distractor_diamondtriangles.svg	22	yes	53	1	442
6.6.1	and	2022-12-14	12:20:01	12:31:30	672195	59014ee029f42300013cc5b7	430388408	1	main_slash	11	advance_on_keypress_SLASH	146	stimuli_target_trianglesquares.svg	stimuli_distractor_diamondtriangles.svg	22	yes	57	0	167
6.6.1	and	2022-12-14	12:20:01	12:31:32	673621	59014ee029f42300013cc5b7	430388408	1	main_slash	11	main_slash	147	stimuli_distractor_trianglediamonds.svg	stimuli_target_diamondsquares.svg	28	yes	53	1	602
6.6.1	and	2022-12-14	12:20:01	12:31:32	673621	59014ee029f42300013cc5b7	430388408	1	main_slash	11	advance_on_keypress_SLASH	148	stimuli_distractor_trianglediamonds.svg	stimuli_target_diamondsquares.svg	28	yes	57	0	273
6.6.1	and	2022-12-14	12:20:01	12:31:35	676552	59014ee029f42300013cc5b7	430388408	1	main_slash	11	main_slash	149	stimuli_distractor_diamondtriangles.svg	stimuli_distractor_trianglediamonds.svg	38	no	0	1	2000
6.6.1	and	2022-12-14	12:20:01	12:31:35	676552	59014ee029f42300013cc5b7	430388408	1	main_slash	11	advance_on_keypress_SLASH	150	stimuli_distractor_diamondtriangles.svg	stimuli_distractor_trianglediamonds.svg	38	no	57	0	449
6.6.1	and	2022-12-14	12:20:01	12:31:36	678130	59014ee029f42300013cc5b7	430388408	1	main_slash	11	main_slash	151	stimuli_target_trianglecircles.svg	stimuli_distractor_trianglediamonds.svg	17	yes	53	1	459
6.6.1	and	2022-12-14	12:20:01	12:31:36	678130	59014ee029f42300013cc5b7	430388408	1	main_slash	11	advance_on_keypress_SLASH	152	stimuli_target_trianglecircles.svg	stimuli_distractor_trianglediamonds.svg	17	yes	57	0	214
6.6.1	and	2022-12-14	12:20:01	12:31:37	679471	59014ee029f42300013cc5b7	430388408	1	main_slash	11	main_slash	153	stimuli_target_circlediamonds.svg	stimuli_distractor_trianglediamonds.svg	2	yes	53	1	472
6.6.1	and	2022-12-14	12:20:01	12:31:37	679471	59014ee029f42300013cc5b7	430388408	1	main_slash	11	advance_on_keypress_SLASH	154	stimuli_target_circlediamonds.svg	stimuli_distractor_trianglediamonds.svg	2	yes	57	0	121
6.6.1	and	2022-12-14	12:20:01	12:31:39	680628	59014ee029f42300013cc5b7	430388408	1	main_slash	11	main_slash	155	stimuli_distractor_trianglediamonds.svg	stimuli_target_squarediamonds.svg	12	yes	53	1	375
6.6.1	and	2022-12-14	12:20:01	12:31:39	680628	59014ee029f42300013cc5b7	430388408	1	main_slash	11	advance_on_keypress_SLASH	156	stimuli_distractor_trianglediamonds.svg	stimuli_target_squarediamonds.svg	12	yes	57	0	105
6.6.1	and	2022-12-14	12:20:01	12:31:41	683401	59014ee029f42300013cc5b7	430388408	1	main_slash	11	main_slash	157	stimuli_distractor_diamondtriangles.svg	stimuli_distractor_trianglediamonds.svg	37	no	0	1	2000
6.6.1	and	2022-12-14	12:20:01	12:31:41	683401	59014ee029f42300013cc5b7	430388408	1	main_slash	11	advance_on_keypress_SLASH	158	stimuli_distractor_diamondtriangles.svg	stimuli_distractor_trianglediamonds.svg	37	no	57	0	292
6.6.1	and	2022-12-14	12:20:01	12:31:43	684750	59014ee029f42300013cc5b7	430388408	1	main_slash	11	main_slash	159	stimuli_distractor_trianglediamonds.svg	stimuli_target_circlediamonds.svg	10	yes	53	1	398
6.6.1	and	2022-12-14	12:20:01	12:31:43	684750	59014ee029f42300013cc5b7	430388408	1	main_slash	11	advance_on_keypress_SLASH	160	stimuli_distractor_trianglediamonds.svg	stimuli_target_circlediamonds.svg	10	yes	57	0	156