build	computer.platform	date	time	timestamp	time_elapsed_ms	subject	group	session	blockcode	blocknum	trialcode	trialnum	stimulus_left	stimulus_right	stim_index	target_present	response	correct	latency
6.6.1	win	2022-12-14	17:29:20	17:34:03	281282	60c80c19de11452191e78dd5	926334653	1	practice_slash	5	practice_slash	1	stimuli_target_squarediamonds.svg	stimuli_distractor_diamondtriangles.svg	2	yes	53	1	1125
6.6.1	win	2022-12-14	17:29:20	17:34:03	281282	60c80c19de11452191e78dd5	926334653	1	practice_slash	5	advance_on_keypress_SLASH	2	stimuli_target_squarediamonds.svg	stimuli_distractor_diamondtriangles.svg	2	yes	57	0	1825
6.6.1	win	2022-12-14	17:29:20	17:34:09	286772	60c80c19de11452191e78dd5	926334653	1	practice_slash	5	practice_slash	3	stimuli_target_diamondsquares.svg	stimuli_distractor_trianglediamonds.svg	6	yes	0	0	2000
6.6.1	win	2022-12-14	17:29:20	17:34:09	286772	60c80c19de11452191e78dd5	926334653	1	practice_slash	5	advance_on_keypress_SLASH	4	stimuli_target_diamondsquares.svg	stimuli_distractor_trianglediamonds.svg	6	yes	57	0	1943
6.6.1	win	2022-12-14	17:29:20	17:34:13	291193	60c80c19de11452191e78dd5	926334653	1	practice_slash	5	practice_slash	5	stimuli_target_circlediamonds.svg	stimuli_distractor_diamondtriangles.svg	1	yes	53	1	824
6.6.1	win	2022-12-14	17:29:20	17:34:13	291193	60c80c19de11452191e78dd5	926334653	1	practice_slash	5	advance_on_keypress_SLASH	6	stimuli_target_circlediamonds.svg	stimuli_distractor_diamondtriangles.svg	1	yes	57	0	1641
6.6.1	win	2022-12-14	17:29:20	17:34:18	296484	60c80c19de11452191e78dd5	926334653	1	practice_slash	5	practice_slash	7	stimuli_distractor_diamondtriangles.svg	stimuli_distractor_trianglediamonds.svg	14	no	0	1	2000
6.6.1	win	2022-12-14	17:29:20	17:34:18	296484	60c80c19de11452191e78dd5	926334653	1	practice_slash	5	advance_on_keypress_SLASH	8	stimuli_distractor_diamondtriangles.svg	stimuli_distractor_trianglediamonds.svg	14	no	57	0	1310
6.6.1	win	2022-12-14	17:29:20	17:34:23	301448	60c80c19de11452191e78dd5	926334653	1	practice_slash	5	practice_slash	9	stimuli_distractor_diamondtriangles.svg	stimuli_target_diamondcircles.svg	8	yes	0	0	2000
6.6.1	win	2022-12-14	17:29:20	17:34:23	301448	60c80c19de11452191e78dd5	926334653	1	practice_slash	5	advance_on_keypress_SLASH	10	stimuli_distractor_diamondtriangles.svg	stimuli_target_diamondcircles.svg	8	yes	57	0	598
6.6.1	win	2022-12-14	17:29:20	17:34:26	304514	60c80c19de11452191e78dd5	926334653	1	practice_slash	5	practice_slash	11	stimuli_distractor_trianglediamonds.svg	stimuli_target_squarediamonds.svg	11	yes	53	1	818
6.6.1	win	2022-12-14	17:29:20	17:34:26	304514	60c80c19de11452191e78dd5	926334653	1	practice_slash	5	advance_on_keypress_SLASH	12	stimuli_distractor_trianglediamonds.svg	stimuli_target_squarediamonds.svg	11	yes	57	0	1283
6.6.1	win	2022-12-14	17:29:20	17:34:31	309444	60c80c19de11452191e78dd5	926334653	1	practice_slash	5	practice_slash	13	stimuli_distractor_diamondtriangles.svg	stimuli_distractor_diamondtriangles.svg	13	no	0	1	2000
6.6.1	win	2022-12-14	17:29:20	17:34:31	309444	60c80c19de11452191e78dd5	926334653	1	practice_slash	5	advance_on_keypress_SLASH	14	stimuli_distractor_diamondtriangles.svg	stimuli_distractor_diamondtriangles.svg	13	no	57	0	1243
6.6.1	win	2022-12-14	17:29:20	17:34:36	314342	60c80c19de11452191e78dd5	926334653	1	practice_slash	5	practice_slash	15	stimuli_distractor_trianglediamonds.svg	stimuli_distractor_diamondtriangles.svg	16	no	0	1	2000
6.6.1	win	2022-12-14	17:29:20	17:34:36	314342	60c80c19de11452191e78dd5	926334653	1	practice_slash	5	advance_on_keypress_SLASH	16	stimuli_distractor_trianglediamonds.svg	stimuli_distractor_diamondtriangles.svg	16	no	57	0	1054
6.6.1	win	2022-12-14	17:29:20	17:34:41	319040	60c80c19de11452191e78dd5	926334653	1	practice_slash	5	practice_slash	17	stimuli_distractor_trianglediamonds.svg	stimuli_distractor_trianglediamonds.svg	15	no	0	1	2000
6.6.1	win	2022-12-14	17:29:20	17:34:41	319040	60c80c19de11452191e78dd5	926334653	1	practice_slash	5	advance_on_keypress_SLASH	18	stimuli_distractor_trianglediamonds.svg	stimuli_distractor_trianglediamonds.svg	15	no	57	0	875
6.6.1	win	2022-12-14	17:29:20	17:34:44	322282	60c80c19de11452191e78dd5	926334653	1	practice_slash	5	practice_slash	19	stimuli_target_circlediamonds.svg	stimuli_distractor_trianglediamonds.svg	4	yes	53	1	709
6.6.1	win	2022-12-14	17:29:20	17:34:44	322282	60c80c19de11452191e78dd5	926334653	1	practice_slash	5	advance_on_keypress_SLASH	20	stimuli_target_circlediamonds.svg	stimuli_distractor_trianglediamonds.svg	4	yes	57	0	943
6.6.1	win	2022-12-14	17:29:20	17:34:47	325395	60c80c19de11452191e78dd5	926334653	1	practice_slash	5	practice_slash	21	stimuli_distractor_trianglediamonds.svg	stimuli_target_circlediamonds.svg	10	yes	53	1	505
6.6.1	win	2022-12-14	17:29:20	17:34:47	325395	60c80c19de11452191e78dd5	926334653	1	practice_slash	5	advance_on_keypress_SLASH	22	stimuli_distractor_trianglediamonds.svg	stimuli_target_circlediamonds.svg	10	yes	57	0	505
6.6.1	win	2022-12-14	17:29:20	17:34:51	329553	60c80c19de11452191e78dd5	926334653	1	practice_slash	5	practice_slash	23	stimuli_distractor_trianglediamonds.svg	stimuli_target_diamondcircles.svg	12	yes	0	0	2000
6.6.1	win	2022-12-14	17:29:20	17:34:51	329553	60c80c19de11452191e78dd5	926334653	1	practice_slash	5	advance_on_keypress_SLASH	24	stimuli_distractor_trianglediamonds.svg	stimuli_target_diamondcircles.svg	12	yes	57	0	543
6.6.1	win	2022-12-14	17:29:20	17:34:55	333598	60c80c19de11452191e78dd5	926334653	1	practice_slash	5	practice_slash	25	stimuli_target_diamondsquares.svg	stimuli_distractor_diamondtriangles.svg	3	yes	53	1	1848
6.6.1	win	2022-12-14	17:29:20	17:34:55	333598	60c80c19de11452191e78dd5	926334653	1	practice_slash	5	advance_on_keypress_SLASH	26	stimuli_target_diamondsquares.svg	stimuli_distractor_diamondtriangles.svg	3	yes	57	0	2293
6.6.1	win	2022-12-14	17:29:20	17:35:00	338148	60c80c19de11452191e78dd5	926334653	1	practice_slash	5	practice_slash	27	stimuli_distractor_diamondtriangles.svg	stimuli_target_circletriangles.svg	7	yes	53	1	599
6.6.1	win	2022-12-14	17:29:20	17:35:00	338148	60c80c19de11452191e78dd5	926334653	1	practice_slash	5	advance_on_keypress_SLASH	28	stimuli_distractor_diamondtriangles.svg	stimuli_target_circletriangles.svg	7	yes	57	0	879
6.6.1	win	2022-12-14	17:29:20	17:35:03	341444	60c80c19de11452191e78dd5	926334653	1	practice_slash	5	practice_slash	29	stimuli_distractor_diamondtriangles.svg	stimuli_target_trianglecircles.svg	9	yes	53	1	764
6.6.1	win	2022-12-14	17:29:20	17:35:03	341444	60c80c19de11452191e78dd5	926334653	1	practice_slash	5	advance_on_keypress_SLASH	30	stimuli_distractor_diamondtriangles.svg	stimuli_target_trianglecircles.svg	9	yes	57	0	1005
6.6.1	win	2022-12-14	17:29:20	17:35:07	344715	60c80c19de11452191e78dd5	926334653	1	practice_slash	5	practice_slash	31	stimuli_target_squarediamonds.svg	stimuli_distractor_trianglediamonds.svg	5	yes	53	1	621
6.6.1	win	2022-12-14	17:29:20	17:35:07	344715	60c80c19de11452191e78dd5	926334653	1	practice_slash	5	advance_on_keypress_SLASH	32	stimuli_target_squarediamonds.svg	stimuli_distractor_trianglediamonds.svg	5	yes	57	0	1019
6.6.1	win	2022-12-14	17:29:20	17:35:23	360921	60c80c19de11452191e78dd5	926334653	1	main_slash	7	main_slash	1	stimuli_distractor_trianglediamonds.svg	stimuli_distractor_trianglediamonds.svg	33	no	53	0	820
6.6.1	win	2022-12-14	17:29:20	17:35:23	360921	60c80c19de11452191e78dd5	926334653	1	main_slash	7	advance_on_keypress_SLASH	2	stimuli_distractor_trianglediamonds.svg	stimuli_distractor_trianglediamonds.svg	33	no	57	0	1148
6.6.1	win	2022-12-14	17:29:20	17:35:25	363330	60c80c19de11452191e78dd5	926334653	1	main_slash	7	main_slash	3	stimuli_target_circletriangles.svg	stimuli_distractor_diamondtriangles.svg	5	yes	53	1	613
6.6.1	win	2022-12-14	17:29:20	17:35:25	363330	60c80c19de11452191e78dd5	926334653	1	main_slash	7	advance_on_keypress_SLASH	4	stimuli_target_circletriangles.svg	stimuli_distractor_diamondtriangles.svg	5	yes	57	0	521
6.6.1	win	2022-12-14	17:29:20	17:35:27	365481	60c80c19de11452191e78dd5	926334653	1	main_slash	7	main_slash	5	stimuli_distractor_diamondtriangles.svg	stimuli_target_diamondcircles.svg	31	yes	53	1	982
6.6.1	win	2022-12-14	17:29:20	17:35:27	365481	60c80c19de11452191e78dd5	926334653	1	main_slash	7	advance_on_keypress_SLASH	6	stimuli_distractor_diamondtriangles.svg	stimuli_target_diamondcircles.svg	31	yes	57	0	817
6.6.1	win	2022-12-14	17:29:20	17:35:30	367866	60c80c19de11452191e78dd5	926334653	1	main_slash	7	main_slash	7	stimuli_target_circlediamonds.svg	stimuli_distractor_trianglediamonds.svg	2	yes	53	1	918
6.6.1	win	2022-12-14	17:29:20	17:35:30	367866	60c80c19de11452191e78dd5	926334653	1	main_slash	7	advance_on_keypress_SLASH	8	stimuli_target_circlediamonds.svg	stimuli_distractor_trianglediamonds.svg	2	yes	57	0	359
6.6.1	win	2022-12-14	17:29:20	17:35:31	369697	60c80c19de11452191e78dd5	926334653	1	main_slash	7	main_slash	9	stimuli_target_squarediamonds.svg	stimuli_distractor_trianglediamonds.svg	4	yes	53	1	834
6.6.1	win	2022-12-14	17:29:20	17:35:31	369697	60c80c19de11452191e78dd5	926334653	1	main_slash	7	advance_on_keypress_SLASH	10	stimuli_target_squarediamonds.svg	stimuli_distractor_trianglediamonds.svg	4	yes	57	0	349
6.6.1	win	2022-12-14	17:29:20	17:35:33	371456	60c80c19de11452191e78dd5	926334653	1	main_slash	7	main_slash	11	stimuli_distractor_trianglediamonds.svg	stimuli_target_diamondsquares.svg	28	yes	53	1	760
6.6.1	win	2022-12-14	17:29:20	17:35:33	371456	60c80c19de11452191e78dd5	926334653	1	main_slash	7	advance_on_keypress_SLASH	12	stimuli_distractor_trianglediamonds.svg	stimuli_target_diamondsquares.svg	28	yes	57	0	340
6.6.1	win	2022-12-14	17:29:20	17:35:35	373142	60c80c19de11452191e78dd5	926334653	1	main_slash	7	main_slash	13	stimuli_distractor_trianglediamonds.svg	stimuli_target_diamondcircles.svg	27	yes	53	1	697
6.6.1	win	2022-12-14	17:29:20	17:35:35	373142	60c80c19de11452191e78dd5	926334653	1	main_slash	7	advance_on_keypress_SLASH	14	stimuli_distractor_trianglediamonds.svg	stimuli_target_diamondcircles.svg	27	yes	57	0	343
6.6.1	win	2022-12-14	17:29:20	17:35:37	375052	60c80c19de11452191e78dd5	926334653	1	main_slash	7	main_slash	15	stimuli_distractor_diamondtriangles.svg	stimuli_target_diamondsquares.svg	32	yes	53	1	909
6.6.1	win	2022-12-14	17:29:20	17:35:37	375052	60c80c19de11452191e78dd5	926334653	1	main_slash	7	advance_on_keypress_SLASH	16	stimuli_distractor_diamondtriangles.svg	stimuli_target_diamondsquares.svg	32	yes	57	0	348
6.6.1	win	2022-12-14	17:29:20	17:35:39	376718	60c80c19de11452191e78dd5	926334653	1	main_slash	7	main_slash	17	stimuli_distractor_diamondtriangles.svg	stimuli_target_trianglecircles.svg	29	yes	53	1	675
6.6.1	win	2022-12-14	17:29:20	17:35:39	376718	60c80c19de11452191e78dd5	926334653	1	main_slash	7	advance_on_keypress_SLASH	18	stimuli_distractor_diamondtriangles.svg	stimuli_target_trianglecircles.svg	29	yes	57	0	384
6.6.1	win	2022-12-14	17:29:20	17:35:40	378486	60c80c19de11452191e78dd5	926334653	1	main_slash	7	main_slash	19	stimuli_target_circletriangles.svg	stimuli_distractor_trianglediamonds.svg	1	yes	53	1	743
6.6.1	win	2022-12-14	17:29:20	17:35:40	378486	60c80c19de11452191e78dd5	926334653	1	main_slash	7	advance_on_keypress_SLASH	20	stimuli_target_circletriangles.svg	stimuli_distractor_trianglediamonds.svg	1	yes	57	0	303
6.6.1	win	2022-12-14	17:29:20	17:35:42	380400	60c80c19de11452191e78dd5	926334653	1	main_slash	7	main_slash	21	stimuli_distractor_trianglediamonds.svg	stimuli_target_squaretriangles.svg	11	yes	53	1	958
6.6.1	win	2022-12-14	17:29:20	17:35:42	380400	60c80c19de11452191e78dd5	926334653	1	main_slash	7	advance_on_keypress_SLASH	22	stimuli_distractor_trianglediamonds.svg	stimuli_target_squaretriangles.svg	11	yes	57	0	396
6.6.1	win	2022-12-14	17:29:20	17:35:45	383458	60c80c19de11452191e78dd5	926334653	1	main_slash	7	main_slash	23	stimuli_distractor_diamondtriangles.svg	stimuli_distractor_trianglediamonds.svg	38	no	0	1	2000
6.6.1	win	2022-12-14	17:29:20	17:35:45	383458	60c80c19de11452191e78dd5	926334653	1	main_slash	7	advance_on_keypress_SLASH	24	stimuli_distractor_diamondtriangles.svg	stimuli_distractor_trianglediamonds.svg	38	no	57	0	607
6.6.1	win	2022-12-14	17:29:20	17:35:47	385598	60c80c19de11452191e78dd5	926334653	1	main_slash	7	main_slash	25	stimuli_target_squaretriangles.svg	stimuli_distractor_trianglediamonds.svg	3	yes	53	1	892
6.6.1	win	2022-12-14	17:29:20	17:35:47	385598	60c80c19de11452191e78dd5	926334653	1	main_slash	7	advance_on_keypress_SLASH	26	stimuli_target_squaretriangles.svg	stimuli_distractor_trianglediamonds.svg	3	yes	57	0	629
6.6.1	win	2022-12-14	17:29:20	17:35:50	387722	60c80c19de11452191e78dd5	926334653	1	main_slash	7	main_slash	27	stimuli_target_diamondcircles.svg	stimuli_distractor_diamondtriangles.svg	23	yes	53	1	834
6.6.1	win	2022-12-14	17:29:20	17:35:50	387722	60c80c19de11452191e78dd5	926334653	1	main_slash	7	advance_on_keypress_SLASH	28	stimuli_target_diamondcircles.svg	stimuli_distractor_diamondtriangles.svg	23	yes	57	0	463
6.6.1	win	2022-12-14	17:29:20	17:35:51	389645	60c80c19de11452191e78dd5	926334653	1	main_slash	7	main_slash	29	stimuli_target_diamondsquares.svg	stimuli_distractor_diamondtriangles.svg	24	yes	53	1	806
6.6.1	win	2022-12-14	17:29:20	17:35:51	389645	60c80c19de11452191e78dd5	926334653	1	main_slash	7	advance_on_keypress_SLASH	30	stimuli_target_diamondsquares.svg	stimuli_distractor_diamondtriangles.svg	24	yes	57	0	330
6.6.1	win	2022-12-14	17:29:20	17:35:53	391426	60c80c19de11452191e78dd5	926334653	1	main_slash	7	main_slash	31	stimuli_target_trianglesquares.svg	stimuli_distractor_trianglediamonds.svg	18	yes	53	1	806
6.6.1	win	2022-12-14	17:29:20	17:35:53	391426	60c80c19de11452191e78dd5	926334653	1	main_slash	7	advance_on_keypress_SLASH	32	stimuli_target_trianglesquares.svg	stimuli_distractor_trianglediamonds.svg	18	yes	57	0	446
6.6.1	win	2022-12-14	17:29:20	17:35:56	394519	60c80c19de11452191e78dd5	926334653	1	main_slash	7	main_slash	33	stimuli_target_circlediamonds.svg	stimuli_distractor_diamondtriangles.svg	6	yes	0	0	2000
6.6.1	win	2022-12-14	17:29:20	17:35:56	394519	60c80c19de11452191e78dd5	926334653	1	main_slash	7	advance_on_keypress_SLASH	34	stimuli_target_circlediamonds.svg	stimuli_distractor_diamondtriangles.svg	6	yes	57	0	441
6.6.1	win	2022-12-14	17:29:20	17:35:59	397601	60c80c19de11452191e78dd5	926334653	1	main_slash	7	main_slash	35	stimuli_distractor_diamondtriangles.svg	stimuli_target_squarediamonds.svg	16	yes	0	0	2000
6.6.1	win	2022-12-14	17:29:20	17:35:59	397601	60c80c19de11452191e78dd5	926334653	1	main_slash	7	advance_on_keypress_SLASH	36	stimuli_distractor_diamondtriangles.svg	stimuli_target_squarediamonds.svg	16	yes	57	0	344
6.6.1	win	2022-12-14	17:29:20	17:36:01	399373	60c80c19de11452191e78dd5	926334653	1	main_slash	7	main_slash	37	stimuli_target_trianglecircles.svg	stimuli_distractor_trianglediamonds.svg	17	yes	53	1	773
6.6.1	win	2022-12-14	17:29:20	17:36:01	399373	60c80c19de11452191e78dd5	926334653	1	main_slash	7	advance_on_keypress_SLASH	38	stimuli_target_trianglecircles.svg	stimuli_distractor_trianglediamonds.svg	17	yes	57	0	695
6.6.1	win	2022-12-14	17:29:20	17:36:03	401573	60c80c19de11452191e78dd5	926334653	1	main_slash	7	main_slash	39	stimuli_distractor_diamondtriangles.svg	stimuli_target_trianglesquares.svg	30	yes	53	1	858
6.6.1	win	2022-12-14	17:29:20	17:36:03	401573	60c80c19de11452191e78dd5	926334653	1	main_slash	7	advance_on_keypress_SLASH	40	stimuli_distractor_diamondtriangles.svg	stimuli_target_trianglesquares.svg	30	yes	57	0	511
6.6.1	win	2022-12-14	17:29:20	17:36:05	403637	60c80c19de11452191e78dd5	926334653	1	main_slash	7	main_slash	41	stimuli_distractor_trianglediamonds.svg	stimuli_target_trianglesquares.svg	26	yes	53	1	906
6.6.1	win	2022-12-14	17:29:20	17:36:05	403637	60c80c19de11452191e78dd5	926334653	1	main_slash	7	advance_on_keypress_SLASH	42	stimuli_distractor_trianglediamonds.svg	stimuli_target_trianglesquares.svg	26	yes	57	0	365
6.6.1	win	2022-12-14	17:29:20	17:36:08	406647	60c80c19de11452191e78dd5	926334653	1	main_slash	7	main_slash	43	stimuli_distractor_diamondtriangles.svg	stimuli_target_squaretriangles.svg	15	yes	0	0	2000
6.6.1	win	2022-12-14	17:29:20	17:36:08	406647	60c80c19de11452191e78dd5	926334653	1	main_slash	7	advance_on_keypress_SLASH	44	stimuli_distractor_diamondtriangles.svg	stimuli_target_squaretriangles.svg	15	yes	57	0	513
6.6.1	win	2022-12-14	17:29:20	17:36:10	408470	60c80c19de11452191e78dd5	926334653	1	main_slash	7	main_slash	45	stimuli_target_trianglesquares.svg	stimuli_distractor_diamondtriangles.svg	22	yes	53	1	658
6.6.1	win	2022-12-14	17:29:20	17:36:10	408470	60c80c19de11452191e78dd5	926334653	1	main_slash	7	advance_on_keypress_SLASH	46	stimuli_target_trianglesquares.svg	stimuli_distractor_diamondtriangles.svg	22	yes	57	0	612
6.6.1	win	2022-12-14	17:29:20	17:36:14	411728	60c80c19de11452191e78dd5	926334653	1	main_slash	7	main_slash	47	stimuli_distractor_trianglediamonds.svg	stimuli_distractor_diamondtriangles.svg	36	no	0	1	2000
6.6.1	win	2022-12-14	17:29:20	17:36:14	411728	60c80c19de11452191e78dd5	926334653	1	main_slash	7	advance_on_keypress_SLASH	48	stimuli_distractor_trianglediamonds.svg	stimuli_distractor_diamondtriangles.svg	36	no	57	0	366
6.6.1	win	2022-12-14	17:29:20	17:36:17	414743	60c80c19de11452191e78dd5	926334653	1	main_slash	7	main_slash	49	stimuli_distractor_diamondtriangles.svg	stimuli_distractor_diamondtriangles.svg	39	no	0	1	2000
6.6.1	win	2022-12-14	17:29:20	17:36:17	414743	60c80c19de11452191e78dd5	926334653	1	main_slash	7	advance_on_keypress_SLASH	50	stimuli_distractor_diamondtriangles.svg	stimuli_distractor_diamondtriangles.svg	39	no	57	0	318
6.6.1	win	2022-12-14	17:29:20	17:36:19	417708	60c80c19de11452191e78dd5	926334653	1	main_slash	7	main_slash	51	stimuli_distractor_trianglediamonds.svg	stimuli_distractor_diamondtriangles.svg	35	no	0	1	2000
6.6.1	win	2022-12-14	17:29:20	17:36:19	417708	60c80c19de11452191e78dd5	926334653	1	main_slash	7	advance_on_keypress_SLASH	52	stimuli_distractor_trianglediamonds.svg	stimuli_distractor_diamondtriangles.svg	35	no	57	0	266
6.6.1	win	2022-12-14	17:29:20	17:36:22	420624	60c80c19de11452191e78dd5	926334653	1	main_slash	7	main_slash	53	stimuli_target_squaretriangles.svg	stimuli_distractor_diamondtriangles.svg	7	yes	0	0	2000
6.6.1	win	2022-12-14	17:29:20	17:36:22	420624	60c80c19de11452191e78dd5	926334653	1	main_slash	7	advance_on_keypress_SLASH	54	stimuli_target_squaretriangles.svg	stimuli_distractor_diamondtriangles.svg	7	yes	57	0	494
6.6.1	win	2022-12-14	17:29:20	17:36:24	422597	60c80c19de11452191e78dd5	926334653	1	main_slash	7	main_slash	55	stimuli_target_trianglecircles.svg	stimuli_distractor_diamondtriangles.svg	21	yes	53	1	825
6.6.1	win	2022-12-14	17:29:20	17:36:24	422597	60c80c19de11452191e78dd5	926334653	1	main_slash	7	advance_on_keypress_SLASH	56	stimuli_target_trianglecircles.svg	stimuli_distractor_diamondtriangles.svg	21	yes	57	0	317
6.6.1	win	2022-12-14	17:29:20	17:36:27	425555	60c80c19de11452191e78dd5	926334653	1	main_slash	7	main_slash	57	stimuli_distractor_trianglediamonds.svg	stimuli_target_squarediamonds.svg	12	yes	0	0	2000
6.6.1	win	2022-12-14	17:29:20	17:36:27	425555	60c80c19de11452191e78dd5	926334653	1	main_slash	7	advance_on_keypress_SLASH	58	stimuli_distractor_trianglediamonds.svg	stimuli_target_squarediamonds.svg	12	yes	57	0	682
6.6.1	win	2022-12-14	17:29:20	17:36:31	428887	60c80c19de11452191e78dd5	926334653	1	main_slash	7	main_slash	59	stimuli_distractor_trianglediamonds.svg	stimuli_distractor_trianglediamonds.svg	34	no	0	1	2000
6.6.1	win	2022-12-14	17:29:20	17:36:31	428887	60c80c19de11452191e78dd5	926334653	1	main_slash	7	advance_on_keypress_SLASH	60	stimuli_distractor_trianglediamonds.svg	stimuli_distractor_trianglediamonds.svg	34	no	57	0	289
6.6.1	win	2022-12-14	17:29:20	17:36:34	431819	60c80c19de11452191e78dd5	926334653	1	main_slash	7	main_slash	61	stimuli_distractor_trianglediamonds.svg	stimuli_target_circlediamonds.svg	10	yes	0	0	2000
6.6.1	win	2022-12-14	17:29:20	17:36:34	431819	60c80c19de11452191e78dd5	926334653	1	main_slash	7	advance_on_keypress_SLASH	62	stimuli_distractor_trianglediamonds.svg	stimuli_target_circlediamonds.svg	10	yes	57	0	317
6.6.1	win	2022-12-14	17:29:20	17:36:35	433488	60c80c19de11452191e78dd5	926334653	1	main_slash	7	main_slash	63	stimuli_target_diamondcircles.svg	stimuli_distractor_trianglediamonds.svg	19	yes	53	1	704
6.6.1	win	2022-12-14	17:29:20	17:36:35	433488	60c80c19de11452191e78dd5	926334653	1	main_slash	7	advance_on_keypress_SLASH	64	stimuli_target_diamondcircles.svg	stimuli_distractor_trianglediamonds.svg	19	yes	57	0	478
6.6.1	win	2022-12-14	17:29:20	17:36:37	435620	60c80c19de11452191e78dd5	926334653	1	main_slash	7	main_slash	65	stimuli_distractor_diamondtriangles.svg	stimuli_target_circlediamonds.svg	14	yes	53	1	1002
6.6.1	win	2022-12-14	17:29:20	17:36:37	435620	60c80c19de11452191e78dd5	926334653	1	main_slash	7	advance_on_keypress_SLASH	66	stimuli_distractor_diamondtriangles.svg	stimuli_target_circlediamonds.svg	14	yes	57	0	550
6.6.1	win	2022-12-14	17:29:20	17:36:41	438815	60c80c19de11452191e78dd5	926334653	1	main_slash	7	main_slash	67	stimuli_distractor_trianglediamonds.svg	stimuli_target_circletriangles.svg	9	yes	0	0	2000
6.6.1	win	2022-12-14	17:29:20	17:36:41	438815	60c80c19de11452191e78dd5	926334653	1	main_slash	7	advance_on_keypress_SLASH	68	stimuli_distractor_trianglediamonds.svg	stimuli_target_circletriangles.svg	9	yes	57	0	809
6.6.1	win	2022-12-14	17:29:20	17:36:43	440892	60c80c19de11452191e78dd5	926334653	1	main_slash	7	main_slash	69	stimuli_distractor_trianglediamonds.svg	stimuli_target_trianglecircles.svg	25	yes	53	1	628
6.6.1	win	2022-12-14	17:29:20	17:36:43	440892	60c80c19de11452191e78dd5	926334653	1	main_slash	7	advance_on_keypress_SLASH	70	stimuli_distractor_trianglediamonds.svg	stimuli_target_trianglecircles.svg	25	yes	57	0	258
6.6.1	win	2022-12-14	17:29:20	17:36:46	443797	60c80c19de11452191e78dd5	926334653	1	main_slash	7	main_slash	71	stimuli_distractor_diamondtriangles.svg	stimuli_target_circletriangles.svg	13	yes	0	0	2000
6.6.1	win	2022-12-14	17:29:20	17:36:46	443797	60c80c19de11452191e78dd5	926334653	1	main_slash	7	advance_on_keypress_SLASH	72	stimuli_distractor_diamondtriangles.svg	stimuli_target_circletriangles.svg	13	yes	57	0	262
6.6.1	win	2022-12-14	17:29:20	17:36:48	446712	60c80c19de11452191e78dd5	926334653	1	main_slash	7	main_slash	73	stimuli_distractor_diamondtriangles.svg	stimuli_distractor_trianglediamonds.svg	37	no	0	1	2000
6.6.1	win	2022-12-14	17:29:20	17:36:48	446712	60c80c19de11452191e78dd5	926334653	1	main_slash	7	advance_on_keypress_SLASH	74	stimuli_distractor_diamondtriangles.svg	stimuli_distractor_trianglediamonds.svg	37	no	57	0	261
6.6.1	win	2022-12-14	17:29:20	17:36:51	449627	60c80c19de11452191e78dd5	926334653	1	main_slash	7	main_slash	75	stimuli_distractor_diamondtriangles.svg	stimuli_distractor_diamondtriangles.svg	40	no	0	1	2000
6.6.1	win	2022-12-14	17:29:20	17:36:51	449627	60c80c19de11452191e78dd5	926334653	1	main_slash	7	advance_on_keypress_SLASH	76	stimuli_distractor_diamondtriangles.svg	stimuli_distractor_diamondtriangles.svg	40	no	57	0	400
6.6.1	win	2022-12-14	17:29:20	17:36:54	452676	60c80c19de11452191e78dd5	926334653	1	main_slash	7	main_slash	77	stimuli_target_squarediamonds.svg	stimuli_distractor_diamondtriangles.svg	8	yes	0	0	2000
6.6.1	win	2022-12-14	17:29:20	17:36:54	452676	60c80c19de11452191e78dd5	926334653	1	main_slash	7	advance_on_keypress_SLASH	78	stimuli_target_squarediamonds.svg	stimuli_distractor_diamondtriangles.svg	8	yes	57	0	449
6.6.1	win	2022-12-14	17:29:20	17:36:56	454533	60c80c19de11452191e78dd5	926334653	1	main_slash	7	main_slash	79	stimuli_target_diamondsquares.svg	stimuli_distractor_trianglediamonds.svg	20	yes	53	1	758
6.6.1	win	2022-12-14	17:29:20	17:36:56	454533	60c80c19de11452191e78dd5	926334653	1	main_slash	7	advance_on_keypress_SLASH	80	stimuli_target_diamondsquares.svg	stimuli_distractor_trianglediamonds.svg	20	yes	57	0	475
6.6.1	win	2022-12-14	17:29:20	17:36:59	457657	60c80c19de11452191e78dd5	926334653	1	main_slash	7	main_slash	81	stimuli_target_squaretriangles.svg	stimuli_distractor_diamondtriangles.svg	7	yes	0	0	2000
6.6.1	win	2022-12-14	17:29:20	17:36:59	457657	60c80c19de11452191e78dd5	926334653	1	main_slash	7	advance_on_keypress_SLASH	82	stimuli_target_squaretriangles.svg	stimuli_distractor_diamondtriangles.svg	7	yes	57	0	719
6.6.1	win	2022-12-14	17:29:20	17:37:03	461022	60c80c19de11452191e78dd5	926334653	1	main_slash	7	main_slash	83	stimuli_distractor_diamondtriangles.svg	stimuli_distractor_trianglediamonds.svg	38	no	0	1	2000
6.6.1	win	2022-12-14	17:29:20	17:37:03	461022	60c80c19de11452191e78dd5	926334653	1	main_slash	7	advance_on_keypress_SLASH	84	stimuli_distractor_diamondtriangles.svg	stimuli_distractor_trianglediamonds.svg	38	no	57	0	276
6.6.1	win	2022-12-14	17:29:20	17:37:04	462579	60c80c19de11452191e78dd5	926334653	1	main_slash	7	main_slash	85	stimuli_distractor_trianglediamonds.svg	stimuli_target_trianglesquares.svg	26	yes	53	1	625
6.6.1	win	2022-12-14	17:29:20	17:37:04	462579	60c80c19de11452191e78dd5	926334653	1	main_slash	7	advance_on_keypress_SLASH	86	stimuli_distractor_trianglediamonds.svg	stimuli_target_trianglesquares.svg	26	yes	57	0	389
6.6.1	win	2022-12-14	17:29:20	17:37:06	464465	60c80c19de11452191e78dd5	926334653	1	main_slash	7	main_slash	87	stimuli_target_diamondsquares.svg	stimuli_distractor_diamondtriangles.svg	24	yes	53	1	846
6.6.1	win	2022-12-14	17:29:20	17:37:06	464465	60c80c19de11452191e78dd5	926334653	1	main_slash	7	advance_on_keypress_SLASH	88	stimuli_target_diamondsquares.svg	stimuli_distractor_diamondtriangles.svg	24	yes	57	0	299
6.6.1	win	2022-12-14	17:29:20	17:37:08	466149	60c80c19de11452191e78dd5	926334653	1	main_slash	7	main_slash	89	stimuli_target_diamondcircles.svg	stimuli_distractor_diamondtriangles.svg	23	yes	53	1	729
6.6.1	win	2022-12-14	17:29:20	17:37:08	466149	60c80c19de11452191e78dd5	926334653	1	main_slash	7	advance_on_keypress_SLASH	90	stimuli_target_diamondcircles.svg	stimuli_distractor_diamondtriangles.svg	23	yes	57	0	341
6.6.1	win	2022-12-14	17:29:20	17:37:10	467924	60c80c19de11452191e78dd5	926334653	1	main_slash	7	main_slash	91	stimuli_distractor_diamondtriangles.svg	stimuli_target_diamondcircles.svg	31	yes	53	1	772
6.6.1	win	2022-12-14	17:29:20	17:37:10	467924	60c80c19de11452191e78dd5	926334653	1	main_slash	7	advance_on_keypress_SLASH	92	stimuli_distractor_diamondtriangles.svg	stimuli_target_diamondcircles.svg	31	yes	57	0	415
6.6.1	win	2022-12-14	17:29:20	17:37:13	470984	60c80c19de11452191e78dd5	926334653	1	main_slash	7	main_slash	93	stimuli_distractor_diamondtriangles.svg	stimuli_target_squaretriangles.svg	15	yes	0	0	2000
6.6.1	win	2022-12-14	17:29:20	17:37:13	470984	60c80c19de11452191e78dd5	926334653	1	main_slash	7	advance_on_keypress_SLASH	94	stimuli_distractor_diamondtriangles.svg	stimuli_target_squaretriangles.svg	15	yes	57	0	275
6.6.1	win	2022-12-14	17:29:20	17:37:16	473899	60c80c19de11452191e78dd5	926334653	1	main_slash	7	main_slash	95	stimuli_distractor_diamondtriangles.svg	stimuli_distractor_diamondtriangles.svg	39	no	0	1	2000
6.6.1	win	2022-12-14	17:29:20	17:37:16	473899	60c80c19de11452191e78dd5	926334653	1	main_slash	7	advance_on_keypress_SLASH	96	stimuli_distractor_diamondtriangles.svg	stimuli_distractor_diamondtriangles.svg	39	no	57	0	301
6.6.1	win	2022-12-14	17:29:20	17:37:19	476848	60c80c19de11452191e78dd5	926334653	1	main_slash	7	main_slash	97	stimuli_target_circletriangles.svg	stimuli_distractor_diamondtriangles.svg	5	yes	0	0	2000
6.6.1	win	2022-12-14	17:29:20	17:37:19	476848	60c80c19de11452191e78dd5	926334653	1	main_slash	7	advance_on_keypress_SLASH	98	stimuli_target_circletriangles.svg	stimuli_distractor_diamondtriangles.svg	5	yes	57	0	265
6.6.1	win	2022-12-14	17:29:20	17:37:22	479764	60c80c19de11452191e78dd5	926334653	1	main_slash	7	main_slash	99	stimuli_target_circletriangles.svg	stimuli_distractor_trianglediamonds.svg	1	yes	0	0	2000
6.6.1	win	2022-12-14	17:29:20	17:37:22	479764	60c80c19de11452191e78dd5	926334653	1	main_slash	7	advance_on_keypress_SLASH	100	stimuli_target_circletriangles.svg	stimuli_distractor_trianglediamonds.svg	1	yes	57	0	374
6.6.1	win	2022-12-14	17:29:20	17:37:25	482780	60c80c19de11452191e78dd5	926334653	1	main_slash	7	main_slash	101	stimuli_target_squarediamonds.svg	stimuli_distractor_diamondtriangles.svg	8	yes	0	0	2000
6.6.1	win	2022-12-14	17:29:20	17:37:25	482780	60c80c19de11452191e78dd5	926334653	1	main_slash	7	advance_on_keypress_SLASH	102	stimuli_target_squarediamonds.svg	stimuli_distractor_diamondtriangles.svg	8	yes	57	0	257
6.6.1	win	2022-12-14	17:29:20	17:37:27	485677	60c80c19de11452191e78dd5	926334653	1	main_slash	7	main_slash	103	stimuli_target_squaretriangles.svg	stimuli_distractor_trianglediamonds.svg	3	yes	0	0	2000
6.6.1	win	2022-12-14	17:29:20	17:37:27	485677	60c80c19de11452191e78dd5	926334653	1	main_slash	7	advance_on_keypress_SLASH	104	stimuli_target_squaretriangles.svg	stimuli_distractor_trianglediamonds.svg	3	yes	57	0	278
6.6.1	win	2022-12-14	17:29:20	17:37:30	488610	60c80c19de11452191e78dd5	926334653	1	main_slash	7	main_slash	105	stimuli_distractor_trianglediamonds.svg	stimuli_distractor_diamondtriangles.svg	36	no	0	1	2000
6.6.1	win	2022-12-14	17:29:20	17:37:30	488610	60c80c19de11452191e78dd5	926334653	1	main_slash	7	advance_on_keypress_SLASH	106	stimuli_distractor_trianglediamonds.svg	stimuli_distractor_diamondtriangles.svg	36	no	57	0	318
6.6.1	win	2022-12-14	17:29:20	17:37:32	490182	60c80c19de11452191e78dd5	926334653	1	main_slash	7	main_slash	107	stimuli_distractor_trianglediamonds.svg	stimuli_target_trianglecircles.svg	25	yes	53	1	607
6.6.1	win	2022-12-14	17:29:20	17:37:32	490182	60c80c19de11452191e78dd5	926334653	1	main_slash	7	advance_on_keypress_SLASH	108	stimuli_distractor_trianglediamonds.svg	stimuli_target_trianglecircles.svg	25	yes	57	0	462
6.6.1	win	2022-12-14	17:29:20	17:37:35	493291	60c80c19de11452191e78dd5	926334653	1	main_slash	7	main_slash	109	stimuli_distractor_diamondtriangles.svg	stimuli_distractor_diamondtriangles.svg	40	no	0	1	2000
6.6.1	win	2022-12-14	17:29:20	17:37:35	493291	60c80c19de11452191e78dd5	926334653	1	main_slash	7	advance_on_keypress_SLASH	110	stimuli_distractor_diamondtriangles.svg	stimuli_distractor_diamondtriangles.svg	40	no	57	0	240
6.6.1	win	2022-12-14	17:29:20	17:37:37	495071	60c80c19de11452191e78dd5	926334653	1	main_slash	7	main_slash	111	stimuli_distractor_diamondtriangles.svg	stimuli_target_diamondsquares.svg	32	yes	53	1	898
6.6.1	win	2022-12-14	17:29:20	17:37:37	495071	60c80c19de11452191e78dd5	926334653	1	main_slash	7	advance_on_keypress_SLASH	112	stimuli_distractor_diamondtriangles.svg	stimuli_target_diamondsquares.svg	32	yes	57	0	504
6.6.1	win	2022-12-14	17:29:20	17:37:40	498222	60c80c19de11452191e78dd5	926334653	1	main_slash	7	main_slash	113	stimuli_target_circlediamonds.svg	stimuli_distractor_trianglediamonds.svg	2	yes	0	0	2000
6.6.1	win	2022-12-14	17:29:20	17:37:40	498222	60c80c19de11452191e78dd5	926334653	1	main_slash	7	advance_on_keypress_SLASH	114	stimuli_target_circlediamonds.svg	stimuli_distractor_trianglediamonds.svg	2	yes	57	0	506
6.6.1	win	2022-12-14	17:29:20	17:37:43	501370	60c80c19de11452191e78dd5	926334653	1	main_slash	7	main_slash	115	stimuli_distractor_diamondtriangles.svg	stimuli_distractor_trianglediamonds.svg	37	no	0	1	2000
6.6.1	win	2022-12-14	17:29:20	17:37:43	501370	60c80c19de11452191e78dd5	926334653	1	main_slash	7	advance_on_keypress_SLASH	116	stimuli_distractor_diamondtriangles.svg	stimuli_distractor_trianglediamonds.svg	37	no	57	0	308
6.6.1	win	2022-12-14	17:29:20	17:37:45	502959	60c80c19de11452191e78dd5	926334653	1	main_slash	7	main_slash	117	stimuli_distractor_trianglediamonds.svg	stimuli_target_diamondcircles.svg	27	yes	53	1	640
6.6.1	win	2022-12-14	17:29:20	17:37:45	502959	60c80c19de11452191e78dd5	926334653	1	main_slash	7	advance_on_keypress_SLASH	118	stimuli_distractor_trianglediamonds.svg	stimuli_target_diamondcircles.svg	27	yes	57	0	540
6.6.1	win	2022-12-14	17:29:20	17:37:47	504926	60c80c19de11452191e78dd5	926334653	1	main_slash	7	main_slash	119	stimuli_target_trianglecircles.svg	stimuli_distractor_trianglediamonds.svg	17	yes	53	1	758
6.6.1	win	2022-12-14	17:29:20	17:37:47	504926	60c80c19de11452191e78dd5	926334653	1	main_slash	7	advance_on_keypress_SLASH	120	stimuli_target_trianglecircles.svg	stimuli_distractor_trianglediamonds.svg	17	yes	57	0	2134
6.6.1	win	2022-12-14	17:29:20	17:37:51	509717	60c80c19de11452191e78dd5	926334653	1	main_slash	7	main_slash	121	stimuli_distractor_trianglediamonds.svg	stimuli_target_squaretriangles.svg	11	yes	0	0	2000
6.6.1	win	2022-12-14	17:29:20	17:37:51	509717	60c80c19de11452191e78dd5	926334653	1	main_slash	7	advance_on_keypress_SLASH	122	stimuli_distractor_trianglediamonds.svg	stimuli_target_squaretriangles.svg	11	yes	57	0	512
6.6.1	win	2022-12-14	17:29:20	17:37:55	512882	60c80c19de11452191e78dd5	926334653	1	main_slash	7	main_slash	123	stimuli_distractor_trianglediamonds.svg	stimuli_target_squarediamonds.svg	12	yes	0	0	2000
6.6.1	win	2022-12-14	17:29:20	17:37:55	512882	60c80c19de11452191e78dd5	926334653	1	main_slash	7	advance_on_keypress_SLASH	124	stimuli_distractor_trianglediamonds.svg	stimuli_target_squarediamonds.svg	12	yes	57	0	567
6.6.1	win	2022-12-14	17:29:20	17:37:57	515253	60c80c19de11452191e78dd5	926334653	1	main_slash	7	main_slash	125	stimuli_distractor_trianglediamonds.svg	stimuli_target_circletriangles.svg	9	yes	53	1	1156
6.6.1	win	2022-12-14	17:29:20	17:37:57	515253	60c80c19de11452191e78dd5	926334653	1	main_slash	7	advance_on_keypress_SLASH	126	stimuli_distractor_trianglediamonds.svg	stimuli_target_circletriangles.svg	9	yes	57	0	1003
6.6.1	win	2022-12-14	17:29:20	17:38:01	518896	60c80c19de11452191e78dd5	926334653	1	main_slash	7	main_slash	127	stimuli_distractor_trianglediamonds.svg	stimuli_distractor_trianglediamonds.svg	33	no	0	1	2000
6.6.1	win	2022-12-14	17:29:20	17:38:01	518896	60c80c19de11452191e78dd5	926334653	1	main_slash	7	advance_on_keypress_SLASH	128	stimuli_distractor_trianglediamonds.svg	stimuli_distractor_trianglediamonds.svg	33	no	57	0	627
6.6.1	win	2022-12-14	17:29:20	17:38:04	522178	60c80c19de11452191e78dd5	926334653	1	main_slash	7	main_slash	129	stimuli_distractor_trianglediamonds.svg	stimuli_distractor_diamondtriangles.svg	35	no	0	1	2000
6.6.1	win	2022-12-14	17:29:20	17:38:04	522178	60c80c19de11452191e78dd5	926334653	1	main_slash	7	advance_on_keypress_SLASH	130	stimuli_distractor_trianglediamonds.svg	stimuli_distractor_diamondtriangles.svg	35	no	57	0	771
6.6.1	win	2022-12-14	17:29:20	17:38:06	524034	60c80c19de11452191e78dd5	926334653	1	main_slash	7	main_slash	131	stimuli_distractor_diamondtriangles.svg	stimuli_target_trianglecircles.svg	29	yes	53	1	441
6.6.1	win	2022-12-14	17:29:20	17:38:06	524034	60c80c19de11452191e78dd5	926334653	1	main_slash	7	advance_on_keypress_SLASH	132	stimuli_distractor_diamondtriangles.svg	stimuli_target_trianglecircles.svg	29	yes	57	0	649
6.6.1	win	2022-12-14	17:29:20	17:38:09	527325	60c80c19de11452191e78dd5	926334653	1	main_slash	7	main_slash	133	stimuli_target_squarediamonds.svg	stimuli_distractor_trianglediamonds.svg	4	yes	0	0	2000
6.6.1	win	2022-12-14	17:29:20	17:38:09	527325	60c80c19de11452191e78dd5	926334653	1	main_slash	7	advance_on_keypress_SLASH	134	stimuli_target_squarediamonds.svg	stimuli_distractor_trianglediamonds.svg	4	yes	57	0	625
6.6.1	win	2022-12-14	17:29:20	17:38:12	530054	60c80c19de11452191e78dd5	926334653	1	main_slash	7	main_slash	135	stimuli_target_trianglesquares.svg	stimuli_distractor_diamondtriangles.svg	22	yes	53	1	1464
6.6.1	win	2022-12-14	17:29:20	17:38:12	530054	60c80c19de11452191e78dd5	926334653	1	main_slash	7	advance_on_keypress_SLASH	136	stimuli_target_trianglesquares.svg	stimuli_distractor_diamondtriangles.svg	22	yes	57	0	802
6.6.1	win	2022-12-14	17:29:20	17:38:15	533506	60c80c19de11452191e78dd5	926334653	1	main_slash	7	main_slash	137	stimuli_distractor_diamondtriangles.svg	stimuli_target_squarediamonds.svg	16	yes	0	0	2000
6.6.1	win	2022-12-14	17:29:20	17:38:15	533506	60c80c19de11452191e78dd5	926334653	1	main_slash	7	advance_on_keypress_SLASH	138	stimuli_distractor_diamondtriangles.svg	stimuli_target_squarediamonds.svg	16	yes	57	0	466
6.6.1	win	2022-12-14	17:29:20	17:38:17	535489	60c80c19de11452191e78dd5	926334653	1	main_slash	7	main_slash	139	stimuli_distractor_trianglediamonds.svg	stimuli_target_circlediamonds.svg	10	yes	53	1	868
6.6.1	win	2022-12-14	17:29:20	17:38:17	535489	60c80c19de11452191e78dd5	926334653	1	main_slash	7	advance_on_keypress_SLASH	140	stimuli_distractor_trianglediamonds.svg	stimuli_target_circlediamonds.svg	10	yes	57	0	501
6.6.1	win	2022-12-14	17:29:20	17:38:19	537319	60c80c19de11452191e78dd5	926334653	1	main_slash	7	main_slash	141	stimuli_target_diamondcircles.svg	stimuli_distractor_trianglediamonds.svg	19	yes	53	1	682
6.6.1	win	2022-12-14	17:29:20	17:38:19	537319	60c80c19de11452191e78dd5	926334653	1	main_slash	7	advance_on_keypress_SLASH	142	stimuli_target_diamondcircles.svg	stimuli_distractor_trianglediamonds.svg	19	yes	57	0	415
6.6.1	win	2022-12-14	17:29:20	17:38:22	540386	60c80c19de11452191e78dd5	926334653	1	main_slash	7	main_slash	143	stimuli_distractor_diamondtriangles.svg	stimuli_target_circlediamonds.svg	14	yes	0	0	2000
6.6.1	win	2022-12-14	17:29:20	17:38:22	540386	60c80c19de11452191e78dd5	926334653	1	main_slash	7	advance_on_keypress_SLASH	144	stimuli_distractor_diamondtriangles.svg	stimuli_target_circlediamonds.svg	14	yes	57	0	2440
6.6.1	win	2022-12-14	17:29:20	17:38:27	545467	60c80c19de11452191e78dd5	926334653	1	main_slash	7	main_slash	145	stimuli_distractor_diamondtriangles.svg	stimuli_target_circletriangles.svg	13	yes	0	0	2000
6.6.1	win	2022-12-14	17:29:20	17:38:27	545467	60c80c19de11452191e78dd5	926334653	1	main_slash	7	advance_on_keypress_SLASH	146	stimuli_distractor_diamondtriangles.svg	stimuli_target_circletriangles.svg	13	yes	57	0	721
6.6.1	win	2022-12-14	17:29:20	17:38:29	547449	60c80c19de11452191e78dd5	926334653	1	main_slash	7	main_slash	147	stimuli_distractor_diamondtriangles.svg	stimuli_target_trianglesquares.svg	30	yes	53	1	617
6.6.1	win	2022-12-14	17:29:20	17:38:29	547449	60c80c19de11452191e78dd5	926334653	1	main_slash	7	advance_on_keypress_SLASH	148	stimuli_distractor_diamondtriangles.svg	stimuli_target_trianglesquares.svg	30	yes	57	0	474
6.6.1	win	2022-12-14	17:29:20	17:38:32	549862	60c80c19de11452191e78dd5	926334653	1	main_slash	7	main_slash	149	stimuli_distractor_trianglediamonds.svg	stimuli_target_diamondsquares.svg	28	yes	53	1	1297
6.6.1	win	2022-12-14	17:29:20	17:38:32	549862	60c80c19de11452191e78dd5	926334653	1	main_slash	7	advance_on_keypress_SLASH	150	stimuli_distractor_trianglediamonds.svg	stimuli_target_diamondsquares.svg	28	yes	57	0	517
6.6.1	win	2022-12-14	17:29:20	17:38:35	553030	60c80c19de11452191e78dd5	926334653	1	main_slash	7	main_slash	151	stimuli_distractor_trianglediamonds.svg	stimuli_distractor_trianglediamonds.svg	34	no	0	1	2000
6.6.1	win	2022-12-14	17:29:20	17:38:35	553030	60c80c19de11452191e78dd5	926334653	1	main_slash	7	advance_on_keypress_SLASH	152	stimuli_distractor_trianglediamonds.svg	stimuli_distractor_trianglediamonds.svg	34	no	57	0	488
6.6.1	win	2022-12-14	17:29:20	17:38:37	554996	60c80c19de11452191e78dd5	926334653	1	main_slash	7	main_slash	153	stimuli_target_circlediamonds.svg	stimuli_distractor_diamondtriangles.svg	6	yes	53	1	834
6.6.1	win	2022-12-14	17:29:20	17:38:37	554996	60c80c19de11452191e78dd5	926334653	1	main_slash	7	advance_on_keypress_SLASH	154	stimuli_target_circlediamonds.svg	stimuli_distractor_diamondtriangles.svg	6	yes	57	0	473
6.6.1	win	2022-12-14	17:29:20	17:38:39	556826	60c80c19de11452191e78dd5	926334653	1	main_slash	7	main_slash	155	stimuli_target_trianglecircles.svg	stimuli_distractor_diamondtriangles.svg	21	yes	53	1	715
6.6.1	win	2022-12-14	17:29:20	17:38:39	556826	60c80c19de11452191e78dd5	926334653	1	main_slash	7	advance_on_keypress_SLASH	156	stimuli_target_trianglecircles.svg	stimuli_distractor_diamondtriangles.svg	21	yes	57	0	362
6.6.1	win	2022-12-14	17:29:20	17:38:42	559843	60c80c19de11452191e78dd5	926334653	1	main_slash	7	main_slash	157	stimuli_target_diamondsquares.svg	stimuli_distractor_trianglediamonds.svg	20	yes	0	0	2000
6.6.1	win	2022-12-14	17:29:20	17:38:42	559843	60c80c19de11452191e78dd5	926334653	1	main_slash	7	advance_on_keypress_SLASH	158	stimuli_target_diamondsquares.svg	stimuli_distractor_trianglediamonds.svg	20	yes	57	0	312
6.6.1	win	2022-12-14	17:29:20	17:38:43	561274	60c80c19de11452191e78dd5	926334653	1	main_slash	7	main_slash	159	stimuli_target_trianglesquares.svg	stimuli_distractor_trianglediamonds.svg	18	yes	53	1	465
6.6.1	win	2022-12-14	17:29:20	17:38:43	561274	60c80c19de11452191e78dd5	926334653	1	main_slash	7	advance_on_keypress_SLASH	160	stimuli_target_trianglesquares.svg	stimuli_distractor_trianglediamonds.svg	18	yes	57	0	486
6.6.1	win	2022-12-14	17:29:20	17:39:23	601204	60c80c19de11452191e78dd5	926334653	1	practice_z	9	practice_z	1	stimuli_target_circlediamonds.svg	stimuli_distractor_trianglediamonds.svg	4	yes	44	1	443
6.6.1	win	2022-12-14	17:29:20	17:39:23	601204	60c80c19de11452191e78dd5	926334653	1	practice_z	9	advance_on_keypress_ZEE	2	stimuli_target_circlediamonds.svg	stimuli_distractor_trianglediamonds.svg	4	yes	57	0	618
6.6.1	win	2022-12-14	17:29:20	17:39:26	604109	60c80c19de11452191e78dd5	926334653	1	practice_z	9	practice_z	3	stimuli_target_circlediamonds.svg	stimuli_distractor_diamondtriangles.svg	1	yes	44	1	633
6.6.1	win	2022-12-14	17:29:20	17:39:26	604109	60c80c19de11452191e78dd5	926334653	1	practice_z	9	advance_on_keypress_ZEE	4	stimuli_target_circlediamonds.svg	stimuli_distractor_diamondtriangles.svg	1	yes	57	0	440
6.6.1	win	2022-12-14	17:29:20	17:39:29	606793	60c80c19de11452191e78dd5	926334653	1	practice_z	9	practice_z	5	stimuli_distractor_trianglediamonds.svg	stimuli_target_circlediamonds.svg	10	yes	44	1	585
6.6.1	win	2022-12-14	17:29:20	17:39:29	606793	60c80c19de11452191e78dd5	926334653	1	practice_z	9	advance_on_keypress_ZEE	6	stimuli_distractor_trianglediamonds.svg	stimuli_target_circlediamonds.svg	10	yes	57	0	820
6.6.1	win	2022-12-14	17:29:20	17:39:32	609796	60c80c19de11452191e78dd5	926334653	1	practice_z	9	practice_z	7	stimuli_distractor_trianglediamonds.svg	stimuli_target_squarediamonds.svg	11	yes	44	1	539
6.6.1	win	2022-12-14	17:29:20	17:39:32	609796	60c80c19de11452191e78dd5	926334653	1	practice_z	9	advance_on_keypress_ZEE	8	stimuli_distractor_trianglediamonds.svg	stimuli_target_squarediamonds.svg	11	yes	57	0	367
6.6.1	win	2022-12-14	17:29:20	17:39:35	613147	60c80c19de11452191e78dd5	926334653	1	practice_z	9	practice_z	9	stimuli_target_squarediamonds.svg	stimuli_distractor_diamondtriangles.svg	2	yes	44	1	1324
6.6.1	win	2022-12-14	17:29:20	17:39:35	613147	60c80c19de11452191e78dd5	926334653	1	practice_z	9	advance_on_keypress_ZEE	10	stimuli_target_squarediamonds.svg	stimuli_distractor_diamondtriangles.svg	2	yes	57	0	475
6.6.1	win	2022-12-14	17:29:20	17:39:38	616118	60c80c19de11452191e78dd5	926334653	1	practice_z	9	practice_z	11	stimuli_target_diamondsquares.svg	stimuli_distractor_diamondtriangles.svg	3	yes	44	1	829
6.6.1	win	2022-12-14	17:29:20	17:39:38	616118	60c80c19de11452191e78dd5	926334653	1	practice_z	9	advance_on_keypress_ZEE	12	stimuli_target_diamondsquares.svg	stimuli_distractor_diamondtriangles.svg	3	yes	57	0	495
6.6.1	win	2022-12-14	17:29:20	17:39:41	618829	60c80c19de11452191e78dd5	926334653	1	practice_z	9	practice_z	13	stimuli_target_squarediamonds.svg	stimuli_distractor_trianglediamonds.svg	5	yes	44	1	559
6.6.1	win	2022-12-14	17:29:20	17:39:41	618829	60c80c19de11452191e78dd5	926334653	1	practice_z	9	advance_on_keypress_ZEE	14	stimuli_target_squarediamonds.svg	stimuli_distractor_trianglediamonds.svg	5	yes	57	0	193
6.6.1	win	2022-12-14	17:29:20	17:39:44	622685	60c80c19de11452191e78dd5	926334653	1	practice_z	9	practice_z	15	stimuli_distractor_diamondtriangles.svg	stimuli_distractor_trianglediamonds.svg	14	no	0	1	2000
6.6.1	win	2022-12-14	17:29:20	17:39:44	622685	60c80c19de11452191e78dd5	926334653	1	practice_z	9	advance_on_keypress_ZEE	16	stimuli_distractor_diamondtriangles.svg	stimuli_distractor_trianglediamonds.svg	14	no	57	0	597
6.6.1	win	2022-12-14	17:29:20	17:39:48	625768	60c80c19de11452191e78dd5	926334653	1	practice_z	9	practice_z	17	stimuli_distractor_diamondtriangles.svg	stimuli_target_diamondcircles.svg	8	yes	44	1	835
6.6.1	win	2022-12-14	17:29:20	17:39:48	625768	60c80c19de11452191e78dd5	926334653	1	practice_z	9	advance_on_keypress_ZEE	18	stimuli_distractor_diamondtriangles.svg	stimuli_target_diamondcircles.svg	8	yes	57	0	424
6.6.1	win	2022-12-14	17:29:20	17:39:52	629848	60c80c19de11452191e78dd5	926334653	1	practice_z	9	practice_z	19	stimuli_distractor_diamondtriangles.svg	stimuli_distractor_diamondtriangles.svg	13	no	0	1	2000
6.6.1	win	2022-12-14	17:29:20	17:39:52	629848	60c80c19de11452191e78dd5	926334653	1	practice_z	9	advance_on_keypress_ZEE	20	stimuli_distractor_diamondtriangles.svg	stimuli_distractor_diamondtriangles.svg	13	no	57	0	538
6.6.1	win	2022-12-14	17:29:20	17:39:56	634030	60c80c19de11452191e78dd5	926334653	1	practice_z	9	practice_z	21	stimuli_distractor_trianglediamonds.svg	stimuli_distractor_trianglediamonds.svg	15	no	0	1	2000
6.6.1	win	2022-12-14	17:29:20	17:39:56	634030	60c80c19de11452191e78dd5	926334653	1	practice_z	9	advance_on_keypress_ZEE	22	stimuli_distractor_trianglediamonds.svg	stimuli_distractor_trianglediamonds.svg	15	no	57	0	277
6.6.1	win	2022-12-14	17:29:20	17:39:58	636527	60c80c19de11452191e78dd5	926334653	1	practice_z	9	practice_z	23	stimuli_distractor_trianglediamonds.svg	stimuli_target_diamondcircles.svg	12	yes	44	1	567
6.6.1	win	2022-12-14	17:29:20	17:39:58	636527	60c80c19de11452191e78dd5	926334653	1	practice_z	9	advance_on_keypress_ZEE	24	stimuli_distractor_trianglediamonds.svg	stimuli_target_diamondcircles.svg	12	yes	57	0	421
6.6.1	win	2022-12-14	17:29:20	17:40:01	639257	60c80c19de11452191e78dd5	926334653	1	practice_z	9	practice_z	25	stimuli_distractor_diamondtriangles.svg	stimuli_target_circletriangles.svg	7	yes	44	1	647
6.6.1	win	2022-12-14	17:29:20	17:40:01	639257	60c80c19de11452191e78dd5	926334653	1	practice_z	9	advance_on_keypress_ZEE	26	stimuli_distractor_diamondtriangles.svg	stimuli_target_circletriangles.svg	7	yes	57	0	512
6.6.1	win	2022-12-14	17:29:20	17:40:05	643426	60c80c19de11452191e78dd5	926334653	1	practice_z	9	practice_z	27	stimuli_distractor_trianglediamonds.svg	stimuli_distractor_diamondtriangles.svg	16	no	0	1	2000
6.6.1	win	2022-12-14	17:29:20	17:40:05	643426	60c80c19de11452191e78dd5	926334653	1	practice_z	9	advance_on_keypress_ZEE	28	stimuli_distractor_trianglediamonds.svg	stimuli_distractor_diamondtriangles.svg	16	no	57	0	527
6.6.1	win	2022-12-14	17:29:20	17:40:08	646516	60c80c19de11452191e78dd5	926334653	1	practice_z	9	practice_z	29	stimuli_target_diamondsquares.svg	stimuli_distractor_trianglediamonds.svg	6	yes	44	1	909
6.6.1	win	2022-12-14	17:29:20	17:40:08	646516	60c80c19de11452191e78dd5	926334653	1	practice_z	9	advance_on_keypress_ZEE	30	stimuli_target_diamondsquares.svg	stimuli_distractor_trianglediamonds.svg	6	yes	57	0	567
6.6.1	win	2022-12-14	17:29:20	17:40:11	649299	60c80c19de11452191e78dd5	926334653	1	practice_z	9	practice_z	31	stimuli_distractor_diamondtriangles.svg	stimuli_target_trianglecircles.svg	9	yes	44	1	560
6.6.1	win	2022-12-14	17:29:20	17:40:11	649299	60c80c19de11452191e78dd5	926334653	1	practice_z	9	advance_on_keypress_ZEE	32	stimuli_distractor_diamondtriangles.svg	stimuli_target_trianglecircles.svg	9	yes	57	0	265
6.6.1	win	2022-12-14	17:29:20	17:40:17	655397	60c80c19de11452191e78dd5	926334653	1	main_z	11	main_z	1	stimuli_target_squaretriangles.svg	stimuli_distractor_diamondtriangles.svg	7	yes	44	1	564
6.6.1	win	2022-12-14	17:29:20	17:40:17	655397	60c80c19de11452191e78dd5	926334653	1	main_z	11	advance_on_keypress_ZEE	2	stimuli_target_squaretriangles.svg	stimuli_distractor_diamondtriangles.svg	7	yes	57	0	655
6.6.1	win	2022-12-14	17:29:20	17:40:19	657284	60c80c19de11452191e78dd5	926334653	1	main_z	11	main_z	3	stimuli_distractor_trianglediamonds.svg	stimuli_target_trianglecircles.svg	25	yes	44	1	584
6.6.1	win	2022-12-14	17:29:20	17:40:19	657284	60c80c19de11452191e78dd5	926334653	1	main_z	11	advance_on_keypress_ZEE	4	stimuli_distractor_trianglediamonds.svg	stimuli_target_trianglecircles.svg	25	yes	57	0	341
6.6.1	win	2022-12-14	17:29:20	17:40:21	658882	60c80c19de11452191e78dd5	926334653	1	main_z	11	main_z	5	stimuli_distractor_trianglediamonds.svg	stimuli_target_trianglesquares.svg	26	yes	44	1	618
6.6.1	win	2022-12-14	17:29:20	17:40:21	658882	60c80c19de11452191e78dd5	926334653	1	main_z	11	advance_on_keypress_ZEE	6	stimuli_distractor_trianglediamonds.svg	stimuli_target_trianglesquares.svg	26	yes	57	0	565
6.6.1	win	2022-12-14	17:29:20	17:40:23	661082	60c80c19de11452191e78dd5	926334653	1	main_z	11	main_z	7	stimuli_distractor_diamondtriangles.svg	stimuli_target_trianglecircles.svg	29	yes	44	1	985
6.6.1	win	2022-12-14	17:29:20	17:40:23	661082	60c80c19de11452191e78dd5	926334653	1	main_z	11	advance_on_keypress_ZEE	8	stimuli_distractor_diamondtriangles.svg	stimuli_target_trianglecircles.svg	29	yes	57	0	516
6.6.1	win	2022-12-14	17:29:20	17:40:25	662883	60c80c19de11452191e78dd5	926334653	1	main_z	11	main_z	9	stimuli_distractor_diamondtriangles.svg	stimuli_target_circletriangles.svg	13	yes	44	1	637
6.6.1	win	2022-12-14	17:29:20	17:40:25	662883	60c80c19de11452191e78dd5	926334653	1	main_z	11	advance_on_keypress_ZEE	10	stimuli_distractor_diamondtriangles.svg	stimuli_target_circletriangles.svg	13	yes	57	0	477
6.6.1	win	2022-12-14	17:29:20	17:40:27	665589	60c80c19de11452191e78dd5	926334653	1	main_z	11	main_z	11	stimuli_distractor_trianglediamonds.svg	stimuli_target_squarediamonds.svg	12	yes	44	1	1577
6.6.1	win	2022-12-14	17:29:20	17:40:27	665589	60c80c19de11452191e78dd5	926334653	1	main_z	11	advance_on_keypress_ZEE	12	stimuli_distractor_trianglediamonds.svg	stimuli_target_squarediamonds.svg	12	yes	57	0	477
6.6.1	win	2022-12-14	17:29:20	17:40:29	667366	60c80c19de11452191e78dd5	926334653	1	main_z	11	main_z	13	stimuli_distractor_trianglediamonds.svg	stimuli_target_circletriangles.svg	9	yes	44	1	640
6.6.1	win	2022-12-14	17:29:20	17:40:29	667366	60c80c19de11452191e78dd5	926334653	1	main_z	11	advance_on_keypress_ZEE	14	stimuli_distractor_trianglediamonds.svg	stimuli_target_circletriangles.svg	9	yes	57	0	362
6.6.1	win	2022-12-14	17:29:20	17:40:31	669029	60c80c19de11452191e78dd5	926334653	1	main_z	11	main_z	15	stimuli_distractor_diamondtriangles.svg	stimuli_target_diamondcircles.svg	31	yes	44	1	653
6.6.1	win	2022-12-14	17:29:20	17:40:31	669029	60c80c19de11452191e78dd5	926334653	1	main_z	11	advance_on_keypress_ZEE	16	stimuli_distractor_diamondtriangles.svg	stimuli_target_diamondcircles.svg	31	yes	57	0	355
6.6.1	win	2022-12-14	17:29:20	17:40:32	670653	60c80c19de11452191e78dd5	926334653	1	main_z	11	main_z	17	stimuli_target_trianglecircles.svg	stimuli_distractor_diamondtriangles.svg	21	yes	44	1	627
6.6.1	win	2022-12-14	17:29:20	17:40:32	670653	60c80c19de11452191e78dd5	926334653	1	main_z	11	advance_on_keypress_ZEE	18	stimuli_target_trianglecircles.svg	stimuli_distractor_diamondtriangles.svg	21	yes	57	0	409
6.6.1	win	2022-12-14	17:29:20	17:40:34	672282	60c80c19de11452191e78dd5	926334653	1	main_z	11	main_z	19	stimuli_distractor_trianglediamonds.svg	stimuli_target_diamondcircles.svg	27	yes	44	1	557
6.6.1	win	2022-12-14	17:29:20	17:40:34	672282	60c80c19de11452191e78dd5	926334653	1	main_z	11	advance_on_keypress_ZEE	20	stimuli_distractor_trianglediamonds.svg	stimuli_target_diamondcircles.svg	27	yes	57	0	417
6.6.1	win	2022-12-14	17:29:20	17:40:36	674216	60c80c19de11452191e78dd5	926334653	1	main_z	11	main_z	21	stimuli_target_trianglesquares.svg	stimuli_distractor_trianglediamonds.svg	18	yes	44	1	875
6.6.1	win	2022-12-14	17:29:20	17:40:36	674216	60c80c19de11452191e78dd5	926334653	1	main_z	11	advance_on_keypress_ZEE	22	stimuli_target_trianglesquares.svg	stimuli_distractor_trianglediamonds.svg	18	yes	57	0	479
6.6.1	win	2022-12-14	17:29:20	17:40:38	676306	60c80c19de11452191e78dd5	926334653	1	main_z	11	main_z	23	stimuli_distractor_trianglediamonds.svg	stimuli_target_squaretriangles.svg	11	yes	44	1	966
6.6.1	win	2022-12-14	17:29:20	17:40:38	676306	60c80c19de11452191e78dd5	926334653	1	main_z	11	advance_on_keypress_ZEE	24	stimuli_distractor_trianglediamonds.svg	stimuli_target_squaretriangles.svg	11	yes	57	0	385
6.6.1	win	2022-12-14	17:29:20	17:40:41	679339	60c80c19de11452191e78dd5	926334653	1	main_z	11	main_z	25	stimuli_distractor_diamondtriangles.svg	stimuli_distractor_diamondtriangles.svg	40	no	0	1	2000
6.6.1	win	2022-12-14	17:29:20	17:40:41	679339	60c80c19de11452191e78dd5	926334653	1	main_z	11	advance_on_keypress_ZEE	26	stimuli_distractor_diamondtriangles.svg	stimuli_distractor_diamondtriangles.svg	40	no	57	0	293
6.6.1	win	2022-12-14	17:29:20	17:40:43	680799	60c80c19de11452191e78dd5	926334653	1	main_z	11	main_z	27	stimuli_target_diamondsquares.svg	stimuli_distractor_diamondtriangles.svg	24	yes	44	1	511
6.6.1	win	2022-12-14	17:29:20	17:40:43	680799	60c80c19de11452191e78dd5	926334653	1	main_z	11	advance_on_keypress_ZEE	28	stimuli_target_diamondsquares.svg	stimuli_distractor_diamondtriangles.svg	24	yes	57	0	376
6.6.1	win	2022-12-14	17:29:20	17:40:46	683820	60c80c19de11452191e78dd5	926334653	1	main_z	11	main_z	29	stimuli_distractor_trianglediamonds.svg	stimuli_distractor_diamondtriangles.svg	35	no	0	1	2000
6.6.1	win	2022-12-14	17:29:20	17:40:46	683820	60c80c19de11452191e78dd5	926334653	1	main_z	11	advance_on_keypress_ZEE	30	stimuli_distractor_trianglediamonds.svg	stimuli_distractor_diamondtriangles.svg	35	no	57	0	515
6.6.1	win	2022-12-14	17:29:20	17:40:47	685547	60c80c19de11452191e78dd5	926334653	1	main_z	11	main_z	31	stimuli_target_circlediamonds.svg	stimuli_distractor_diamondtriangles.svg	6	yes	44	1	561
6.6.1	win	2022-12-14	17:29:20	17:40:47	685547	60c80c19de11452191e78dd5	926334653	1	main_z	11	advance_on_keypress_ZEE	32	stimuli_target_circlediamonds.svg	stimuli_distractor_diamondtriangles.svg	6	yes	57	0	444
6.6.1	win	2022-12-14	17:29:20	17:40:49	687360	60c80c19de11452191e78dd5	926334653	1	main_z	11	main_z	33	stimuli_target_circletriangles.svg	stimuli_distractor_trianglediamonds.svg	1	yes	44	1	708
6.6.1	win	2022-12-14	17:29:20	17:40:49	687360	60c80c19de11452191e78dd5	926334653	1	main_z	11	advance_on_keypress_ZEE	34	stimuli_target_circletriangles.svg	stimuli_distractor_trianglediamonds.svg	1	yes	57	0	448
6.6.1	win	2022-12-14	17:29:20	17:40:51	689251	60c80c19de11452191e78dd5	926334653	1	main_z	11	main_z	35	stimuli_target_squarediamonds.svg	stimuli_distractor_diamondtriangles.svg	8	yes	44	1	800
6.6.1	win	2022-12-14	17:29:20	17:40:51	689251	60c80c19de11452191e78dd5	926334653	1	main_z	11	advance_on_keypress_ZEE	36	stimuli_target_squarediamonds.svg	stimuli_distractor_diamondtriangles.svg	8	yes	57	0	589
6.6.1	win	2022-12-14	17:29:20	17:40:53	691660	60c80c19de11452191e78dd5	926334653	1	main_z	11	main_z	37	stimuli_target_trianglesquares.svg	stimuli_distractor_diamondtriangles.svg	22	yes	44	1	1154
6.6.1	win	2022-12-14	17:29:20	17:40:53	691660	60c80c19de11452191e78dd5	926334653	1	main_z	11	advance_on_keypress_ZEE	38	stimuli_target_trianglesquares.svg	stimuli_distractor_diamondtriangles.svg	22	yes	57	0	451
6.6.1	win	2022-12-14	17:29:20	17:40:55	693550	60c80c19de11452191e78dd5	926334653	1	main_z	11	main_z	39	stimuli_distractor_trianglediamonds.svg	stimuli_target_circlediamonds.svg	10	yes	44	1	784
6.6.1	win	2022-12-14	17:29:20	17:40:55	693550	60c80c19de11452191e78dd5	926334653	1	main_z	11	advance_on_keypress_ZEE	40	stimuli_distractor_trianglediamonds.svg	stimuli_target_circlediamonds.svg	10	yes	57	0	430
6.6.1	win	2022-12-14	17:29:20	17:40:58	695980	60c80c19de11452191e78dd5	926334653	1	main_z	11	main_z	41	stimuli_distractor_diamondtriangles.svg	stimuli_target_trianglesquares.svg	30	yes	44	1	1349
6.6.1	win	2022-12-14	17:29:20	17:40:58	695980	60c80c19de11452191e78dd5	926334653	1	main_z	11	advance_on_keypress_ZEE	42	stimuli_distractor_diamondtriangles.svg	stimuli_target_trianglesquares.svg	30	yes	57	0	409
6.6.1	win	2022-12-14	17:29:20	17:40:59	697668	60c80c19de11452191e78dd5	926334653	1	main_z	11	main_z	43	stimuli_target_squarediamonds.svg	stimuli_distractor_trianglediamonds.svg	4	yes	44	1	622
6.6.1	win	2022-12-14	17:29:20	17:40:59	697668	60c80c19de11452191e78dd5	926334653	1	main_z	11	advance_on_keypress_ZEE	44	stimuli_target_squarediamonds.svg	stimuli_distractor_trianglediamonds.svg	4	yes	57	0	386
6.6.1	win	2022-12-14	17:29:20	17:41:02	699814	60c80c19de11452191e78dd5	926334653	1	main_z	11	main_z	45	stimuli_distractor_diamondtriangles.svg	stimuli_target_diamondsquares.svg	32	yes	44	1	1118
6.6.1	win	2022-12-14	17:29:20	17:41:02	699814	60c80c19de11452191e78dd5	926334653	1	main_z	11	advance_on_keypress_ZEE	46	stimuli_distractor_diamondtriangles.svg	stimuli_target_diamondsquares.svg	32	yes	57	0	296
6.6.1	win	2022-12-14	17:29:20	17:41:05	702762	60c80c19de11452191e78dd5	926334653	1	main_z	11	main_z	47	stimuli_distractor_trianglediamonds.svg	stimuli_distractor_trianglediamonds.svg	33	no	0	1	2000
6.6.1	win	2022-12-14	17:29:20	17:41:05	702762	60c80c19de11452191e78dd5	926334653	1	main_z	11	advance_on_keypress_ZEE	48	stimuli_distractor_trianglediamonds.svg	stimuli_distractor_trianglediamonds.svg	33	no	57	0	288
6.6.1	win	2022-12-14	17:29:20	17:41:06	704479	60c80c19de11452191e78dd5	926334653	1	main_z	11	main_z	49	stimuli_distractor_diamondtriangles.svg	stimuli_target_squaretriangles.svg	15	yes	44	1	785
6.6.1	win	2022-12-14	17:29:20	17:41:06	704479	60c80c19de11452191e78dd5	926334653	1	main_z	11	advance_on_keypress_ZEE	50	stimuli_distractor_diamondtriangles.svg	stimuli_target_squaretriangles.svg	15	yes	57	0	326
6.6.1	win	2022-12-14	17:29:20	17:41:08	706039	60c80c19de11452191e78dd5	926334653	1	main_z	11	main_z	51	stimuli_target_squaretriangles.svg	stimuli_distractor_trianglediamonds.svg	3	yes	44	1	596
6.6.1	win	2022-12-14	17:29:20	17:41:08	706039	60c80c19de11452191e78dd5	926334653	1	main_z	11	advance_on_keypress_ZEE	52	stimuli_target_squaretriangles.svg	stimuli_distractor_trianglediamonds.svg	3	yes	57	0	401
6.6.1	win	2022-12-14	17:29:20	17:41:11	709092	60c80c19de11452191e78dd5	926334653	1	main_z	11	main_z	53	stimuli_distractor_trianglediamonds.svg	stimuli_distractor_trianglediamonds.svg	34	no	0	1	2000
6.6.1	win	2022-12-14	17:29:20	17:41:11	709092	60c80c19de11452191e78dd5	926334653	1	main_z	11	advance_on_keypress_ZEE	54	stimuli_distractor_trianglediamonds.svg	stimuli_distractor_trianglediamonds.svg	34	no	57	0	265
6.6.1	win	2022-12-14	17:29:20	17:41:14	712007	60c80c19de11452191e78dd5	926334653	1	main_z	11	main_z	55	stimuli_distractor_trianglediamonds.svg	stimuli_distractor_diamondtriangles.svg	36	no	0	1	2000
6.6.1	win	2022-12-14	17:29:20	17:41:14	712007	60c80c19de11452191e78dd5	926334653	1	main_z	11	advance_on_keypress_ZEE	56	stimuli_distractor_trianglediamonds.svg	stimuli_distractor_diamondtriangles.svg	36	no	57	0	272
6.6.1	win	2022-12-14	17:29:20	17:41:17	714923	60c80c19de11452191e78dd5	926334653	1	main_z	11	main_z	57	stimuli_distractor_trianglediamonds.svg	stimuli_target_diamondsquares.svg	28	yes	0	0	2000
6.6.1	win	2022-12-14	17:29:20	17:41:17	714923	60c80c19de11452191e78dd5	926334653	1	main_z	11	advance_on_keypress_ZEE	58	stimuli_distractor_trianglediamonds.svg	stimuli_target_diamondsquares.svg	28	yes	57	0	402
6.6.1	win	2022-12-14	17:29:20	17:41:20	717971	60c80c19de11452191e78dd5	926334653	1	main_z	11	main_z	59	stimuli_distractor_diamondtriangles.svg	stimuli_distractor_diamondtriangles.svg	39	no	0	1	2000
6.6.1	win	2022-12-14	17:29:20	17:41:20	717971	60c80c19de11452191e78dd5	926334653	1	main_z	11	advance_on_keypress_ZEE	60	stimuli_distractor_diamondtriangles.svg	stimuli_distractor_diamondtriangles.svg	39	no	57	0	80
6.6.1	win	2022-12-14	17:29:20	17:41:21	719252	60c80c19de11452191e78dd5	926334653	1	main_z	11	main_z	61	stimuli_target_circlediamonds.svg	stimuli_distractor_trianglediamonds.svg	2	yes	44	1	548
6.6.1	win	2022-12-14	17:29:20	17:41:21	719252	60c80c19de11452191e78dd5	926334653	1	main_z	11	advance_on_keypress_ZEE	62	stimuli_target_circlediamonds.svg	stimuli_distractor_trianglediamonds.svg	2	yes	57	0	381
6.6.1	win	2022-12-14	17:29:20	17:41:24	722286	60c80c19de11452191e78dd5	926334653	1	main_z	11	main_z	63	stimuli_distractor_diamondtriangles.svg	stimuli_distractor_trianglediamonds.svg	38	no	0	1	2000
6.6.1	win	2022-12-14	17:29:20	17:41:24	722286	60c80c19de11452191e78dd5	926334653	1	main_z	11	advance_on_keypress_ZEE	64	stimuli_distractor_diamondtriangles.svg	stimuli_distractor_trianglediamonds.svg	38	no	57	0	365
6.6.1	win	2022-12-14	17:29:20	17:41:26	723737	60c80c19de11452191e78dd5	926334653	1	main_z	11	main_z	65	stimuli_target_diamondcircles.svg	stimuli_distractor_diamondtriangles.svg	23	yes	44	1	435
6.6.1	win	2022-12-14	17:29:20	17:41:26	723737	60c80c19de11452191e78dd5	926334653	1	main_z	11	advance_on_keypress_ZEE	66	stimuli_target_diamondcircles.svg	stimuli_distractor_diamondtriangles.svg	23	yes	57	0	368
6.6.1	win	2022-12-14	17:29:20	17:41:27	725450	60c80c19de11452191e78dd5	926334653	1	main_z	11	main_z	67	stimuli_target_diamondsquares.svg	stimuli_distractor_trianglediamonds.svg	20	yes	44	1	699
6.6.1	win	2022-12-14	17:29:20	17:41:27	725450	60c80c19de11452191e78dd5	926334653	1	main_z	11	advance_on_keypress_ZEE	68	stimuli_target_diamondsquares.svg	stimuli_distractor_trianglediamonds.svg	20	yes	57	0	350
6.6.1	win	2022-12-14	17:29:20	17:41:29	727130	60c80c19de11452191e78dd5	926334653	1	main_z	11	main_z	69	stimuli_target_circletriangles.svg	stimuli_distractor_diamondtriangles.svg	5	yes	44	1	680
6.6.1	win	2022-12-14	17:29:20	17:41:29	727130	60c80c19de11452191e78dd5	926334653	1	main_z	11	advance_on_keypress_ZEE	70	stimuli_target_circletriangles.svg	stimuli_distractor_diamondtriangles.svg	5	yes	57	0	370
6.6.1	win	2022-12-14	17:29:20	17:41:30	728690	60c80c19de11452191e78dd5	926334653	1	main_z	11	main_z	71	stimuli_distractor_diamondtriangles.svg	stimuli_target_circlediamonds.svg	14	yes	44	1	541
6.6.1	win	2022-12-14	17:29:20	17:41:30	728690	60c80c19de11452191e78dd5	926334653	1	main_z	11	advance_on_keypress_ZEE	72	stimuli_distractor_diamondtriangles.svg	stimuli_target_circlediamonds.svg	14	yes	57	0	458
6.6.1	win	2022-12-14	17:29:20	17:41:32	730475	60c80c19de11452191e78dd5	926334653	1	main_z	11	main_z	73	stimuli_target_diamondcircles.svg	stimuli_distractor_trianglediamonds.svg	19	yes	44	1	676
6.6.1	win	2022-12-14	17:29:20	17:41:32	730475	60c80c19de11452191e78dd5	926334653	1	main_z	11	advance_on_keypress_ZEE	74	stimuli_target_diamondcircles.svg	stimuli_distractor_trianglediamonds.svg	19	yes	57	0	357
6.6.1	win	2022-12-14	17:29:20	17:41:34	732351	60c80c19de11452191e78dd5	926334653	1	main_z	11	main_z	75	stimuli_distractor_diamondtriangles.svg	stimuli_distractor_trianglediamonds.svg	37	no	44	0	870
6.6.1	win	2022-12-14	17:29:20	17:41:34	732351	60c80c19de11452191e78dd5	926334653	1	main_z	11	advance_on_keypress_ZEE	76	stimuli_distractor_diamondtriangles.svg	stimuli_distractor_trianglediamonds.svg	37	no	57	0	286
6.6.1	win	2022-12-14	17:29:20	17:41:36	733911	60c80c19de11452191e78dd5	926334653	1	main_z	11	main_z	77	stimuli_distractor_diamondtriangles.svg	stimuli_target_squarediamonds.svg	16	yes	44	1	631
6.6.1	win	2022-12-14	17:29:20	17:41:36	733911	60c80c19de11452191e78dd5	926334653	1	main_z	11	advance_on_keypress_ZEE	78	stimuli_distractor_diamondtriangles.svg	stimuli_target_squarediamonds.svg	16	yes	57	0	292
6.6.1	win	2022-12-14	17:29:20	17:41:37	735721	60c80c19de11452191e78dd5	926334653	1	main_z	11	main_z	79	stimuli_target_trianglecircles.svg	stimuli_distractor_trianglediamonds.svg	17	yes	44	1	875
6.6.1	win	2022-12-14	17:29:20	17:41:37	735721	60c80c19de11452191e78dd5	926334653	1	main_z	11	advance_on_keypress_ZEE	80	stimuli_target_trianglecircles.svg	stimuli_distractor_trianglediamonds.svg	17	yes	57	0	349
6.6.1	win	2022-12-14	17:29:20	17:41:39	737434	60c80c19de11452191e78dd5	926334653	1	main_z	11	main_z	81	stimuli_target_squarediamonds.svg	stimuli_distractor_trianglediamonds.svg	4	yes	44	1	722
6.6.1	win	2022-12-14	17:29:20	17:41:39	737434	60c80c19de11452191e78dd5	926334653	1	main_z	11	advance_on_keypress_ZEE	82	stimuli_target_squarediamonds.svg	stimuli_distractor_trianglediamonds.svg	4	yes	57	0	327
6.6.1	win	2022-12-14	17:29:20	17:41:41	739506	60c80c19de11452191e78dd5	926334653	1	main_z	11	main_z	83	stimuli_target_trianglecircles.svg	stimuli_distractor_diamondtriangles.svg	21	yes	44	1	1094
6.6.1	win	2022-12-14	17:29:20	17:41:41	739506	60c80c19de11452191e78dd5	926334653	1	main_z	11	advance_on_keypress_ZEE	84	stimuli_target_trianglecircles.svg	stimuli_distractor_diamondtriangles.svg	21	yes	57	0	462
6.6.1	win	2022-12-14	17:29:20	17:41:43	741280	60c80c19de11452191e78dd5	926334653	1	main_z	11	main_z	85	stimuli_target_circletriangles.svg	stimuli_distractor_diamondtriangles.svg	5	yes	44	1	653
6.6.1	win	2022-12-14	17:29:20	17:41:43	741280	60c80c19de11452191e78dd5	926334653	1	main_z	11	advance_on_keypress_ZEE	86	stimuli_target_circletriangles.svg	stimuli_distractor_diamondtriangles.svg	5	yes	57	0	574
6.6.1	win	2022-12-14	17:29:20	17:41:45	743489	60c80c19de11452191e78dd5	926334653	1	main_z	11	main_z	87	stimuli_target_trianglesquares.svg	stimuli_distractor_trianglediamonds.svg	18	yes	44	1	995
6.6.1	win	2022-12-14	17:29:20	17:41:45	743489	60c80c19de11452191e78dd5	926334653	1	main_z	11	advance_on_keypress_ZEE	88	stimuli_target_trianglesquares.svg	stimuli_distractor_trianglediamonds.svg	18	yes	57	0	503
6.6.1	win	2022-12-14	17:29:20	17:41:48	746642	60c80c19de11452191e78dd5	926334653	1	main_z	11	main_z	89	stimuli_distractor_diamondtriangles.svg	stimuli_distractor_trianglediamonds.svg	38	no	0	1	2000
6.6.1	win	2022-12-14	17:29:20	17:41:48	746642	60c80c19de11452191e78dd5	926334653	1	main_z	11	advance_on_keypress_ZEE	90	stimuli_distractor_diamondtriangles.svg	stimuli_distractor_trianglediamonds.svg	38	no	57	0	458
6.6.1	win	2022-12-14	17:29:20	17:41:50	748305	60c80c19de11452191e78dd5	926334653	1	main_z	11	main_z	91	stimuli_distractor_trianglediamonds.svg	stimuli_target_trianglecircles.svg	25	yes	44	1	564
6.6.1	win	2022-12-14	17:29:20	17:41:50	748305	60c80c19de11452191e78dd5	926334653	1	main_z	11	advance_on_keypress_ZEE	92	stimuli_distractor_trianglediamonds.svg	stimuli_target_trianglecircles.svg	25	yes	57	0	366
6.6.1	win	2022-12-14	17:29:20	17:41:53	751323	60c80c19de11452191e78dd5	926334653	1	main_z	11	main_z	93	stimuli_distractor_trianglediamonds.svg	stimuli_distractor_trianglediamonds.svg	34	no	0	1	2000
6.6.1	win	2022-12-14	17:29:20	17:41:53	751323	60c80c19de11452191e78dd5	926334653	1	main_z	11	advance_on_keypress_ZEE	94	stimuli_distractor_trianglediamonds.svg	stimuli_distractor_trianglediamonds.svg	34	no	57	0	328
6.6.1	win	2022-12-14	17:29:20	17:41:55	752837	60c80c19de11452191e78dd5	926334653	1	main_z	11	main_z	95	stimuli_target_squaretriangles.svg	stimuli_distractor_trianglediamonds.svg	3	yes	44	1	532
6.6.1	win	2022-12-14	17:29:20	17:41:55	752837	60c80c19de11452191e78dd5	926334653	1	main_z	11	advance_on_keypress_ZEE	96	stimuli_target_squaretriangles.svg	stimuli_distractor_trianglediamonds.svg	3	yes	57	0	392
6.6.1	win	2022-12-14	17:29:20	17:41:57	754795	60c80c19de11452191e78dd5	926334653	1	main_z	11	main_z	97	stimuli_target_diamondsquares.svg	stimuli_distractor_diamondtriangles.svg	24	yes	44	1	924
6.6.1	win	2022-12-14	17:29:20	17:41:57	754795	60c80c19de11452191e78dd5	926334653	1	main_z	11	advance_on_keypress_ZEE	98	stimuli_target_diamondsquares.svg	stimuli_distractor_diamondtriangles.svg	24	yes	57	0	308
6.6.1	win	2022-12-14	17:29:20	17:41:58	756367	60c80c19de11452191e78dd5	926334653	1	main_z	11	main_z	99	stimuli_distractor_diamondtriangles.svg	stimuli_target_squarediamonds.svg	16	yes	44	1	630
6.6.1	win	2022-12-14	17:29:20	17:41:58	756367	60c80c19de11452191e78dd5	926334653	1	main_z	11	advance_on_keypress_ZEE	100	stimuli_distractor_diamondtriangles.svg	stimuli_target_squarediamonds.svg	16	yes	57	0	333
6.6.1	win	2022-12-14	17:29:20	17:42:00	757982	60c80c19de11452191e78dd5	926334653	1	main_z	11	main_z	101	stimuli_target_circletriangles.svg	stimuli_distractor_trianglediamonds.svg	1	yes	44	1	629
6.6.1	win	2022-12-14	17:29:20	17:42:00	757982	60c80c19de11452191e78dd5	926334653	1	main_z	11	advance_on_keypress_ZEE	102	stimuli_target_circletriangles.svg	stimuli_distractor_trianglediamonds.svg	1	yes	57	0	335
6.6.1	win	2022-12-14	17:29:20	17:42:01	759666	60c80c19de11452191e78dd5	926334653	1	main_z	11	main_z	103	stimuli_distractor_diamondtriangles.svg	stimuli_target_diamondcircles.svg	31	yes	44	1	697
6.6.1	win	2022-12-14	17:29:20	17:42:01	759666	60c80c19de11452191e78dd5	926334653	1	main_z	11	advance_on_keypress_ZEE	104	stimuli_distractor_diamondtriangles.svg	stimuli_target_diamondcircles.svg	31	yes	57	0	345
6.6.1	win	2022-12-14	17:29:20	17:42:03	761578	60c80c19de11452191e78dd5	926334653	1	main_z	11	main_z	105	stimuli_distractor_trianglediamonds.svg	stimuli_target_trianglesquares.svg	26	yes	44	1	910
6.6.1	win	2022-12-14	17:29:20	17:42:03	761578	60c80c19de11452191e78dd5	926334653	1	main_z	11	advance_on_keypress_ZEE	106	stimuli_distractor_trianglediamonds.svg	stimuli_target_trianglesquares.svg	26	yes	57	0	294
6.6.1	win	2022-12-14	17:29:20	17:42:05	763383	60c80c19de11452191e78dd5	926334653	1	main_z	11	main_z	107	stimuli_distractor_diamondtriangles.svg	stimuli_target_trianglesquares.svg	30	yes	44	1	848
6.6.1	win	2022-12-14	17:29:20	17:42:05	763383	60c80c19de11452191e78dd5	926334653	1	main_z	11	advance_on_keypress_ZEE	108	stimuli_distractor_diamondtriangles.svg	stimuli_target_trianglesquares.svg	30	yes	57	0	314
6.6.1	win	2022-12-14	17:29:20	17:42:07	764857	60c80c19de11452191e78dd5	926334653	1	main_z	11	main_z	109	stimuli_distractor_trianglediamonds.svg	stimuli_target_circlediamonds.svg	10	yes	44	1	507
6.6.1	win	2022-12-14	17:29:20	17:42:07	764857	60c80c19de11452191e78dd5	926334653	1	main_z	11	advance_on_keypress_ZEE	110	stimuli_distractor_trianglediamonds.svg	stimuli_target_circlediamonds.svg	10	yes	57	0	353
6.6.1	win	2022-12-14	17:29:20	17:42:08	766555	60c80c19de11452191e78dd5	926334653	1	main_z	11	main_z	111	stimuli_target_diamondcircles.svg	stimuli_distractor_diamondtriangles.svg	23	yes	44	1	706
6.6.1	win	2022-12-14	17:29:20	17:42:08	766555	60c80c19de11452191e78dd5	926334653	1	main_z	11	advance_on_keypress_ZEE	112	stimuli_target_diamondcircles.svg	stimuli_distractor_diamondtriangles.svg	23	yes	57	0	287
6.6.1	win	2022-12-14	17:29:20	17:42:10	768178	60c80c19de11452191e78dd5	926334653	1	main_z	11	main_z	113	stimuli_target_circlediamonds.svg	stimuli_distractor_diamondtriangles.svg	6	yes	44	1	697
6.6.1	win	2022-12-14	17:29:20	17:42:10	768178	60c80c19de11452191e78dd5	926334653	1	main_z	11	advance_on_keypress_ZEE	114	stimuli_target_circlediamonds.svg	stimuli_distractor_diamondtriangles.svg	6	yes	57	0	405
6.6.1	win	2022-12-14	17:29:20	17:42:12	769741	60c80c19de11452191e78dd5	926334653	1	main_z	11	main_z	115	stimuli_target_squarediamonds.svg	stimuli_distractor_diamondtriangles.svg	8	yes	44	1	509
6.6.1	win	2022-12-14	17:29:20	17:42:12	769741	60c80c19de11452191e78dd5	926334653	1	main_z	11	advance_on_keypress_ZEE	116	stimuli_target_squarediamonds.svg	stimuli_distractor_diamondtriangles.svg	8	yes	57	0	358
6.6.1	win	2022-12-14	17:29:20	17:42:13	771298	60c80c19de11452191e78dd5	926334653	1	main_z	11	main_z	117	stimuli_distractor_diamondtriangles.svg	stimuli_target_circlediamonds.svg	14	yes	44	1	535
6.6.1	win	2022-12-14	17:29:20	17:42:13	771298	60c80c19de11452191e78dd5	926334653	1	main_z	11	advance_on_keypress_ZEE	118	stimuli_distractor_diamondtriangles.svg	stimuli_target_circlediamonds.svg	14	yes	57	0	380
6.6.1	win	2022-12-14	17:29:20	17:42:15	773105	60c80c19de11452191e78dd5	926334653	1	main_z	11	main_z	119	stimuli_distractor_diamondtriangles.svg	stimuli_target_diamondsquares.svg	32	yes	44	1	777
6.6.1	win	2022-12-14	17:29:20	17:42:15	773105	60c80c19de11452191e78dd5	926334653	1	main_z	11	advance_on_keypress_ZEE	120	stimuli_distractor_diamondtriangles.svg	stimuli_target_diamondsquares.svg	32	yes	57	0	321
6.6.1	win	2022-12-14	17:29:20	17:42:18	776078	60c80c19de11452191e78dd5	926334653	1	main_z	11	main_z	121	stimuli_distractor_trianglediamonds.svg	stimuli_distractor_diamondtriangles.svg	36	no	0	1	2000
6.6.1	win	2022-12-14	17:29:20	17:42:18	776078	60c80c19de11452191e78dd5	926334653	1	main_z	11	advance_on_keypress_ZEE	122	stimuli_distractor_trianglediamonds.svg	stimuli_distractor_diamondtriangles.svg	36	no	57	0	393
6.6.1	win	2022-12-14	17:29:20	17:42:20	777725	60c80c19de11452191e78dd5	926334653	1	main_z	11	main_z	123	stimuli_target_diamondcircles.svg	stimuli_distractor_trianglediamonds.svg	19	yes	44	1	598
6.6.1	win	2022-12-14	17:29:20	17:42:20	777725	60c80c19de11452191e78dd5	926334653	1	main_z	11	advance_on_keypress_ZEE	124	stimuli_target_diamondcircles.svg	stimuli_distractor_trianglediamonds.svg	19	yes	57	0	306
6.6.1	win	2022-12-14	17:29:20	17:42:22	780676	60c80c19de11452191e78dd5	926334653	1	main_z	11	main_z	125	stimuli_distractor_diamondtriangles.svg	stimuli_distractor_trianglediamonds.svg	37	no	0	1	2000
6.6.1	win	2022-12-14	17:29:20	17:42:22	780676	60c80c19de11452191e78dd5	926334653	1	main_z	11	advance_on_keypress_ZEE	126	stimuli_distractor_diamondtriangles.svg	stimuli_distractor_trianglediamonds.svg	37	no	57	0	370
6.6.1	win	2022-12-14	17:29:20	17:42:24	782290	60c80c19de11452191e78dd5	926334653	1	main_z	11	main_z	127	stimuli_target_trianglecircles.svg	stimuli_distractor_trianglediamonds.svg	17	yes	44	1	598
6.6.1	win	2022-12-14	17:29:20	17:42:24	782290	60c80c19de11452191e78dd5	926334653	1	main_z	11	advance_on_keypress_ZEE	128	stimuli_target_trianglecircles.svg	stimuli_distractor_trianglediamonds.svg	17	yes	57	0	299
6.6.1	win	2022-12-14	17:29:20	17:42:26	783929	60c80c19de11452191e78dd5	926334653	1	main_z	11	main_z	129	stimuli_distractor_trianglediamonds.svg	stimuli_target_circletriangles.svg	9	yes	44	1	688
6.6.1	win	2022-12-14	17:29:20	17:42:26	783929	60c80c19de11452191e78dd5	926334653	1	main_z	11	advance_on_keypress_ZEE	130	stimuli_distractor_trianglediamonds.svg	stimuli_target_circletriangles.svg	9	yes	57	0	308
6.6.1	win	2022-12-14	17:29:20	17:42:29	786873	60c80c19de11452191e78dd5	926334653	1	main_z	11	main_z	131	stimuli_distractor_diamondtriangles.svg	stimuli_distractor_diamondtriangles.svg	39	no	0	1	2000
6.6.1	win	2022-12-14	17:29:20	17:42:29	786873	60c80c19de11452191e78dd5	926334653	1	main_z	11	advance_on_keypress_ZEE	132	stimuli_distractor_diamondtriangles.svg	stimuli_distractor_diamondtriangles.svg	39	no	57	0	419
6.6.1	win	2022-12-14	17:29:20	17:42:30	788321	60c80c19de11452191e78dd5	926334653	1	main_z	11	main_z	133	stimuli_distractor_diamondtriangles.svg	stimuli_target_trianglecircles.svg	29	yes	44	1	382
6.6.1	win	2022-12-14	17:29:20	17:42:30	788321	60c80c19de11452191e78dd5	926334653	1	main_z	11	advance_on_keypress_ZEE	134	stimuli_distractor_diamondtriangles.svg	stimuli_target_trianglecircles.svg	29	yes	57	0	619
6.6.1	win	2022-12-14	17:29:20	17:42:33	791588	60c80c19de11452191e78dd5	926334653	1	main_z	11	main_z	135	stimuli_target_squaretriangles.svg	stimuli_distractor_diamondtriangles.svg	7	yes	0	0	2000
6.6.1	win	2022-12-14	17:29:20	17:42:33	791588	60c80c19de11452191e78dd5	926334653	1	main_z	11	advance_on_keypress_ZEE	136	stimuli_target_squaretriangles.svg	stimuli_distractor_diamondtriangles.svg	7	yes	57	0	330
6.6.1	win	2022-12-14	17:29:20	17:42:36	794570	60c80c19de11452191e78dd5	926334653	1	main_z	11	main_z	137	stimuli_distractor_diamondtriangles.svg	stimuli_distractor_diamondtriangles.svg	40	no	0	1	2000
6.6.1	win	2022-12-14	17:29:20	17:42:36	794570	60c80c19de11452191e78dd5	926334653	1	main_z	11	advance_on_keypress_ZEE	138	stimuli_distractor_diamondtriangles.svg	stimuli_distractor_diamondtriangles.svg	40	no	57	0	436
6.6.1	win	2022-12-14	17:29:20	17:42:38	796444	60c80c19de11452191e78dd5	926334653	1	main_z	11	main_z	139	stimuli_distractor_trianglediamonds.svg	stimuli_target_squaretriangles.svg	11	yes	44	1	792
6.6.1	win	2022-12-14	17:29:20	17:42:38	796444	60c80c19de11452191e78dd5	926334653	1	main_z	11	advance_on_keypress_ZEE	140	stimuli_distractor_trianglediamonds.svg	stimuli_target_squaretriangles.svg	11	yes	57	0	589
6.6.1	win	2022-12-14	17:29:20	17:42:41	799684	60c80c19de11452191e78dd5	926334653	1	main_z	11	main_z	141	stimuli_distractor_trianglediamonds.svg	stimuli_distractor_trianglediamonds.svg	33	no	0	1	2000
6.6.1	win	2022-12-14	17:29:20	17:42:41	799684	60c80c19de11452191e78dd5	926334653	1	main_z	11	advance_on_keypress_ZEE	142	stimuli_distractor_trianglediamonds.svg	stimuli_distractor_trianglediamonds.svg	33	no	57	0	607
6.6.1	win	2022-12-14	17:29:20	17:42:43	801432	60c80c19de11452191e78dd5	926334653	1	main_z	11	main_z	143	stimuli_target_circlediamonds.svg	stimuli_distractor_trianglediamonds.svg	2	yes	44	1	500
6.6.1	win	2022-12-14	17:29:20	17:42:43	801432	60c80c19de11452191e78dd5	926334653	1	main_z	11	advance_on_keypress_ZEE	144	stimuli_target_circlediamonds.svg	stimuli_distractor_trianglediamonds.svg	2	yes	57	0	385
6.6.1	win	2022-12-14	17:29:20	17:42:45	803117	60c80c19de11452191e78dd5	926334653	1	main_z	11	main_z	145	stimuli_distractor_trianglediamonds.svg	stimuli_target_diamondcircles.svg	27	yes	44	1	652
6.6.1	win	2022-12-14	17:29:20	17:42:45	803117	60c80c19de11452191e78dd5	926334653	1	main_z	11	advance_on_keypress_ZEE	146	stimuli_distractor_trianglediamonds.svg	stimuli_target_diamondcircles.svg	27	yes	57	0	756
6.6.1	win	2022-12-14	17:29:20	17:42:47	805564	60c80c19de11452191e78dd5	926334653	1	main_z	11	main_z	147	stimuli_distractor_trianglediamonds.svg	stimuli_target_diamondsquares.svg	28	yes	44	1	1049
6.6.1	win	2022-12-14	17:29:20	17:42:47	805564	60c80c19de11452191e78dd5	926334653	1	main_z	11	advance_on_keypress_ZEE	148	stimuli_distractor_trianglediamonds.svg	stimuli_target_diamondsquares.svg	28	yes	57	0	333
6.6.1	win	2022-12-14	17:29:20	17:42:49	807192	60c80c19de11452191e78dd5	926334653	1	main_z	11	main_z	149	stimuli_distractor_diamondtriangles.svg	stimuli_target_squaretriangles.svg	15	yes	44	1	645
6.6.1	win	2022-12-14	17:29:20	17:42:49	807192	60c80c19de11452191e78dd5	926334653	1	main_z	11	advance_on_keypress_ZEE	150	stimuli_distractor_diamondtriangles.svg	stimuli_target_squaretriangles.svg	15	yes	57	0	378
6.6.1	win	2022-12-14	17:29:20	17:42:51	809043	60c80c19de11452191e78dd5	926334653	1	main_z	11	main_z	151	stimuli_target_trianglesquares.svg	stimuli_distractor_diamondtriangles.svg	22	yes	44	1	813
6.6.1	win	2022-12-14	17:29:20	17:42:51	809043	60c80c19de11452191e78dd5	926334653	1	main_z	11	advance_on_keypress_ZEE	152	stimuli_target_trianglesquares.svg	stimuli_distractor_diamondtriangles.svg	22	yes	57	0	400
6.6.1	win	2022-12-14	17:29:20	17:42:53	810805	60c80c19de11452191e78dd5	926334653	1	main_z	11	main_z	153	stimuli_distractor_trianglediamonds.svg	stimuli_distractor_diamondtriangles.svg	35	no	44	0	710
6.6.1	win	2022-12-14	17:29:20	17:42:53	810805	60c80c19de11452191e78dd5	926334653	1	main_z	11	advance_on_keypress_ZEE	154	stimuli_distractor_trianglediamonds.svg	stimuli_distractor_diamondtriangles.svg	35	no	57	0	335
6.6.1	win	2022-12-14	17:29:20	17:42:54	812541	60c80c19de11452191e78dd5	926334653	1	main_z	11	main_z	155	stimuli_target_diamondsquares.svg	stimuli_distractor_trianglediamonds.svg	20	yes	44	1	746
6.6.1	win	2022-12-14	17:29:20	17:42:54	812541	60c80c19de11452191e78dd5	926334653	1	main_z	11	advance_on_keypress_ZEE	156	stimuli_target_diamondsquares.svg	stimuli_distractor_trianglediamonds.svg	20	yes	57	0	291
6.6.1	win	2022-12-14	17:29:20	17:42:56	814115	60c80c19de11452191e78dd5	926334653	1	main_z	11	main_z	157	stimuli_distractor_trianglediamonds.svg	stimuli_target_squarediamonds.svg	12	yes	44	1	638
6.6.1	win	2022-12-14	17:29:20	17:42:56	814115	60c80c19de11452191e78dd5	926334653	1	main_z	11	advance_on_keypress_ZEE	158	stimuli_distractor_trianglediamonds.svg	stimuli_target_squarediamonds.svg	12	yes	57	0	352
6.6.1	win	2022-12-14	17:29:20	17:42:57	815704	60c80c19de11452191e78dd5	926334653	1	main_z	11	main_z	159	stimuli_distractor_diamondtriangles.svg	stimuli_target_circletriangles.svg	13	yes	44	1	594
6.6.1	win	2022-12-14	17:29:20	17:42:57	815704	60c80c19de11452191e78dd5	926334653	1	main_z	11	advance_on_keypress_ZEE	160	stimuli_distractor_diamondtriangles.svg	stimuli_target_circletriangles.svg	13	yes	57	0	295