build	computer.platform	date	time	timestamp	time_elapsed_ms	subject	group	session	blockcode	blocknum	trialcode	trialnum	stimulus_left	stimulus_right	stim_index	target_present	response	correct	latency
6.6.1	win	2022-12-14	16:37:52	16:41:09	196378	63657781c04fe648496b9bab	944562167	1	practice_slash	5	practice_slash	1	stimuli_distractor_trianglediamonds.svg	stimuli_distractor_trianglediamonds.svg	15	no	0	1	2000
6.6.1	win	2022-12-14	16:37:52	16:41:09	196378	63657781c04fe648496b9bab	944562167	1	practice_slash	5	advance_on_keypress_SLASH	2	stimuli_distractor_trianglediamonds.svg	stimuli_distractor_trianglediamonds.svg	15	no	57	0	1430
6.6.1	win	2022-12-14	16:37:52	16:41:14	201433	63657781c04fe648496b9bab	944562167	1	practice_slash	5	practice_slash	3	stimuli_distractor_trianglediamonds.svg	stimuli_distractor_diamondtriangles.svg	16	no	0	1	2000
6.6.1	win	2022-12-14	16:37:52	16:41:14	201433	63657781c04fe648496b9bab	944562167	1	practice_slash	5	advance_on_keypress_SLASH	4	stimuli_distractor_trianglediamonds.svg	stimuli_distractor_diamondtriangles.svg	16	no	57	0	999
6.6.1	win	2022-12-14	16:37:52	16:41:17	204661	63657781c04fe648496b9bab	944562167	1	practice_slash	5	practice_slash	5	stimuli_target_circlediamonds.svg	stimuli_distractor_diamondtriangles.svg	1	yes	53	1	610
6.6.1	win	2022-12-14	16:37:52	16:41:17	204661	63657781c04fe648496b9bab	944562167	1	practice_slash	5	advance_on_keypress_SLASH	6	stimuli_target_circlediamonds.svg	stimuli_distractor_diamondtriangles.svg	1	yes	57	0	1688
6.6.1	win	2022-12-14	16:37:52	16:41:21	208494	63657781c04fe648496b9bab	944562167	1	practice_slash	5	practice_slash	7	stimuli_distractor_trianglediamonds.svg	stimuli_target_diamondcircles.svg	12	yes	53	1	521
6.6.1	win	2022-12-14	16:37:52	16:41:21	208494	63657781c04fe648496b9bab	944562167	1	practice_slash	5	advance_on_keypress_SLASH	8	stimuli_distractor_trianglediamonds.svg	stimuli_target_diamondcircles.svg	12	yes	57	0	1722
6.6.1	win	2022-12-14	16:37:52	16:41:25	212412	63657781c04fe648496b9bab	944562167	1	practice_slash	5	practice_slash	9	stimuli_distractor_trianglediamonds.svg	stimuli_target_circlediamonds.svg	10	yes	53	1	581
6.6.1	win	2022-12-14	16:37:52	16:41:25	212412	63657781c04fe648496b9bab	944562167	1	practice_slash	5	advance_on_keypress_SLASH	10	stimuli_distractor_trianglediamonds.svg	stimuli_target_circlediamonds.svg	10	yes	57	0	1737
6.6.1	win	2022-12-14	16:37:52	16:41:30	217772	63657781c04fe648496b9bab	944562167	1	practice_slash	5	practice_slash	11	stimuli_distractor_diamondtriangles.svg	stimuli_distractor_diamondtriangles.svg	13	no	0	1	2000
6.6.1	win	2022-12-14	16:37:52	16:41:30	217772	63657781c04fe648496b9bab	944562167	1	practice_slash	5	advance_on_keypress_SLASH	12	stimuli_distractor_diamondtriangles.svg	stimuli_distractor_diamondtriangles.svg	13	no	57	0	507
6.6.1	win	2022-12-14	16:37:52	16:41:34	220925	63657781c04fe648496b9bab	944562167	1	practice_slash	5	practice_slash	13	stimuli_target_diamondsquares.svg	stimuli_distractor_trianglediamonds.svg	6	yes	53	1	1026
6.6.1	win	2022-12-14	16:37:52	16:41:34	220925	63657781c04fe648496b9bab	944562167	1	practice_slash	5	advance_on_keypress_SLASH	14	stimuli_target_diamondsquares.svg	stimuli_distractor_trianglediamonds.svg	6	yes	57	0	660
6.6.1	win	2022-12-14	16:37:52	16:41:37	224004	63657781c04fe648496b9bab	944562167	1	practice_slash	5	practice_slash	15	stimuli_distractor_diamondtriangles.svg	stimuli_target_circletriangles.svg	7	yes	53	1	803
6.6.1	win	2022-12-14	16:37:52	16:41:37	224004	63657781c04fe648496b9bab	944562167	1	practice_slash	5	advance_on_keypress_SLASH	16	stimuli_distractor_diamondtriangles.svg	stimuli_target_circletriangles.svg	7	yes	57	0	637
6.6.1	win	2022-12-14	16:37:52	16:41:40	226893	63657781c04fe648496b9bab	944562167	1	practice_slash	5	practice_slash	17	stimuli_distractor_trianglediamonds.svg	stimuli_target_squarediamonds.svg	11	yes	53	1	630
6.6.1	win	2022-12-14	16:37:52	16:41:40	226893	63657781c04fe648496b9bab	944562167	1	practice_slash	5	advance_on_keypress_SLASH	18	stimuli_distractor_trianglediamonds.svg	stimuli_target_squarediamonds.svg	11	yes	57	0	633
6.6.1	win	2022-12-14	16:37:52	16:41:42	229773	63657781c04fe648496b9bab	944562167	1	practice_slash	5	practice_slash	19	stimuli_target_squarediamonds.svg	stimuli_distractor_trianglediamonds.svg	5	yes	53	1	625
6.6.1	win	2022-12-14	16:37:52	16:41:42	229773	63657781c04fe648496b9bab	944562167	1	practice_slash	5	advance_on_keypress_SLASH	20	stimuli_target_squarediamonds.svg	stimuli_distractor_trianglediamonds.svg	5	yes	57	0	499
6.6.1	win	2022-12-14	16:37:52	16:41:45	232396	63657781c04fe648496b9bab	944562167	1	practice_slash	5	practice_slash	21	stimuli_target_squarediamonds.svg	stimuli_distractor_diamondtriangles.svg	2	yes	53	1	509
6.6.1	win	2022-12-14	16:37:52	16:41:45	232396	63657781c04fe648496b9bab	944562167	1	practice_slash	5	advance_on_keypress_SLASH	22	stimuli_target_squarediamonds.svg	stimuli_distractor_diamondtriangles.svg	2	yes	57	0	418
6.6.1	win	2022-12-14	16:37:52	16:41:48	235300	63657781c04fe648496b9bab	944562167	1	practice_slash	5	practice_slash	23	stimuli_target_diamondsquares.svg	stimuli_distractor_diamondtriangles.svg	3	yes	53	1	868
6.6.1	win	2022-12-14	16:37:52	16:41:48	235300	63657781c04fe648496b9bab	944562167	1	practice_slash	5	advance_on_keypress_SLASH	24	stimuli_target_diamondsquares.svg	stimuli_distractor_diamondtriangles.svg	3	yes	57	0	427
6.6.1	win	2022-12-14	16:37:52	16:41:52	239348	63657781c04fe648496b9bab	944562167	1	practice_slash	5	practice_slash	25	stimuli_distractor_diamondtriangles.svg	stimuli_distractor_trianglediamonds.svg	14	no	0	1	2000
6.6.1	win	2022-12-14	16:37:52	16:41:52	239348	63657781c04fe648496b9bab	944562167	1	practice_slash	5	advance_on_keypress_SLASH	26	stimuli_distractor_diamondtriangles.svg	stimuli_distractor_trianglediamonds.svg	14	no	57	0	355
6.6.1	win	2022-12-14	16:37:52	16:41:55	242132	63657781c04fe648496b9bab	944562167	1	practice_slash	5	practice_slash	27	stimuli_target_circlediamonds.svg	stimuli_distractor_trianglediamonds.svg	4	yes	53	1	809
6.6.1	win	2022-12-14	16:37:52	16:41:55	242132	63657781c04fe648496b9bab	944562167	1	practice_slash	5	advance_on_keypress_SLASH	28	stimuli_target_circlediamonds.svg	stimuli_distractor_trianglediamonds.svg	4	yes	57	0	581
6.6.1	win	2022-12-14	16:37:52	16:41:58	245003	63657781c04fe648496b9bab	944562167	1	practice_slash	5	practice_slash	29	stimuli_distractor_diamondtriangles.svg	stimuli_target_diamondcircles.svg	8	yes	53	1	675
6.6.1	win	2022-12-14	16:37:52	16:41:58	245003	63657781c04fe648496b9bab	944562167	1	practice_slash	5	advance_on_keypress_SLASH	30	stimuli_distractor_diamondtriangles.svg	stimuli_target_diamondcircles.svg	8	yes	57	0	516
6.6.1	win	2022-12-14	16:37:52	16:42:00	247771	63657781c04fe648496b9bab	944562167	1	practice_slash	5	practice_slash	31	stimuli_distractor_diamondtriangles.svg	stimuli_target_trianglecircles.svg	9	yes	53	1	631
6.6.1	win	2022-12-14	16:37:52	16:42:00	247771	63657781c04fe648496b9bab	944562167	1	practice_slash	5	advance_on_keypress_SLASH	32	stimuli_distractor_diamondtriangles.svg	stimuli_target_trianglecircles.svg	9	yes	57	0	483
6.6.1	win	2022-12-14	16:37:52	16:42:06	253722	63657781c04fe648496b9bab	944562167	1	main_slash	7	main_slash	1	stimuli_distractor_trianglediamonds.svg	stimuli_distractor_trianglediamonds.svg	34	no	0	1	2000
6.6.1	win	2022-12-14	16:37:52	16:42:06	253722	63657781c04fe648496b9bab	944562167	1	main_slash	7	advance_on_keypress_SLASH	2	stimuli_distractor_trianglediamonds.svg	stimuli_distractor_trianglediamonds.svg	34	no	57	0	570
6.6.1	win	2022-12-14	16:37:52	16:42:08	255763	63657781c04fe648496b9bab	944562167	1	main_slash	7	main_slash	3	stimuli_distractor_trianglediamonds.svg	stimuli_target_trianglesquares.svg	26	yes	53	1	853
6.6.1	win	2022-12-14	16:37:52	16:42:08	255763	63657781c04fe648496b9bab	944562167	1	main_slash	7	advance_on_keypress_SLASH	4	stimuli_distractor_trianglediamonds.svg	stimuli_target_trianglesquares.svg	26	yes	57	0	1622
6.6.1	win	2022-12-14	16:37:52	16:42:12	258843	63657781c04fe648496b9bab	944562167	1	main_slash	7	main_slash	5	stimuli_distractor_trianglediamonds.svg	stimuli_target_squaretriangles.svg	11	yes	53	1	842
6.6.1	win	2022-12-14	16:37:52	16:42:12	258843	63657781c04fe648496b9bab	944562167	1	main_slash	7	advance_on_keypress_SLASH	6	stimuli_distractor_trianglediamonds.svg	stimuli_target_squaretriangles.svg	11	yes	57	0	1009
6.6.1	win	2022-12-14	16:37:52	16:42:14	261242	63657781c04fe648496b9bab	944562167	1	main_slash	7	main_slash	7	stimuli_target_circletriangles.svg	stimuli_distractor_trianglediamonds.svg	1	yes	53	1	775
6.6.1	win	2022-12-14	16:37:52	16:42:14	261242	63657781c04fe648496b9bab	944562167	1	main_slash	7	advance_on_keypress_SLASH	8	stimuli_target_circletriangles.svg	stimuli_distractor_trianglediamonds.svg	1	yes	57	0	1001
6.6.1	win	2022-12-14	16:37:52	16:42:16	263410	63657781c04fe648496b9bab	944562167	1	main_slash	7	main_slash	9	stimuli_distractor_trianglediamonds.svg	stimuli_target_circlediamonds.svg	10	yes	53	1	549
6.6.1	win	2022-12-14	16:37:52	16:42:16	263410	63657781c04fe648496b9bab	944562167	1	main_slash	7	advance_on_keypress_SLASH	10	stimuli_distractor_trianglediamonds.svg	stimuli_target_circlediamonds.svg	10	yes	57	0	1190
6.6.1	win	2022-12-14	16:37:52	16:42:19	265858	63657781c04fe648496b9bab	944562167	1	main_slash	7	main_slash	11	stimuli_distractor_diamondtriangles.svg	stimuli_distractor_trianglediamonds.svg	38	no	53	0	646
6.6.1	win	2022-12-14	16:37:52	16:42:19	265858	63657781c04fe648496b9bab	944562167	1	main_slash	7	advance_on_keypress_SLASH	12	stimuli_distractor_diamondtriangles.svg	stimuli_distractor_trianglediamonds.svg	38	no	57	0	1253
6.6.1	win	2022-12-14	16:37:52	16:42:21	268418	63657781c04fe648496b9bab	944562167	1	main_slash	7	main_slash	13	stimuli_distractor_diamondtriangles.svg	stimuli_target_squarediamonds.svg	16	yes	53	1	690
6.6.1	win	2022-12-14	16:37:52	16:42:21	268418	63657781c04fe648496b9bab	944562167	1	main_slash	7	advance_on_keypress_SLASH	14	stimuli_distractor_diamondtriangles.svg	stimuli_target_squarediamonds.svg	16	yes	57	0	1274
6.6.1	win	2022-12-14	16:37:52	16:42:24	271298	63657781c04fe648496b9bab	944562167	1	main_slash	7	main_slash	15	stimuli_distractor_trianglediamonds.svg	stimuli_target_diamondsquares.svg	28	yes	53	1	989
6.6.1	win	2022-12-14	16:37:52	16:42:24	271298	63657781c04fe648496b9bab	944562167	1	main_slash	7	advance_on_keypress_SLASH	16	stimuli_distractor_trianglediamonds.svg	stimuli_target_diamondsquares.svg	28	yes	57	0	795
6.6.1	win	2022-12-14	16:37:52	16:42:27	274710	63657781c04fe648496b9bab	944562167	1	main_slash	7	main_slash	17	stimuli_distractor_diamondtriangles.svg	stimuli_distractor_diamondtriangles.svg	40	no	0	1	2000
6.6.1	win	2022-12-14	16:37:52	16:42:27	274710	63657781c04fe648496b9bab	944562167	1	main_slash	7	advance_on_keypress_SLASH	18	stimuli_distractor_diamondtriangles.svg	stimuli_distractor_diamondtriangles.svg	40	no	57	0	495
6.6.1	win	2022-12-14	16:37:52	16:42:29	276610	63657781c04fe648496b9bab	944562167	1	main_slash	7	main_slash	19	stimuli_target_trianglesquares.svg	stimuli_distractor_trianglediamonds.svg	18	yes	53	1	791
6.6.1	win	2022-12-14	16:37:52	16:42:29	276610	63657781c04fe648496b9bab	944562167	1	main_slash	7	advance_on_keypress_SLASH	20	stimuli_target_trianglesquares.svg	stimuli_distractor_trianglediamonds.svg	18	yes	57	0	1045
6.6.1	win	2022-12-14	16:37:52	16:42:32	279194	63657781c04fe648496b9bab	944562167	1	main_slash	7	main_slash	21	stimuli_target_trianglesquares.svg	stimuli_distractor_diamondtriangles.svg	22	yes	53	1	926
6.6.1	win	2022-12-14	16:37:52	16:42:32	279194	63657781c04fe648496b9bab	944562167	1	main_slash	7	advance_on_keypress_SLASH	22	stimuli_target_trianglesquares.svg	stimuli_distractor_diamondtriangles.svg	22	yes	57	0	1705
6.6.1	win	2022-12-14	16:37:52	16:42:36	283516	63657781c04fe648496b9bab	944562167	1	main_slash	7	main_slash	23	stimuli_distractor_diamondtriangles.svg	stimuli_distractor_diamondtriangles.svg	39	no	0	1	2000
6.6.1	win	2022-12-14	16:37:52	16:42:36	283516	63657781c04fe648496b9bab	944562167	1	main_slash	7	advance_on_keypress_SLASH	24	stimuli_distractor_diamondtriangles.svg	stimuli_distractor_diamondtriangles.svg	39	no	57	0	496
6.6.1	win	2022-12-14	16:37:52	16:42:38	285321	63657781c04fe648496b9bab	944562167	1	main_slash	7	main_slash	25	stimuli_target_squarediamonds.svg	stimuli_distractor_diamondtriangles.svg	8	yes	53	1	691
6.6.1	win	2022-12-14	16:37:52	16:42:38	285321	63657781c04fe648496b9bab	944562167	1	main_slash	7	advance_on_keypress_SLASH	26	stimuli_target_squarediamonds.svg	stimuli_distractor_diamondtriangles.svg	8	yes	57	0	1514
6.6.1	win	2022-12-14	16:37:52	16:42:41	288185	63657781c04fe648496b9bab	944562167	1	main_slash	7	main_slash	27	stimuli_target_trianglecircles.svg	stimuli_distractor_trianglediamonds.svg	17	yes	53	1	731
6.6.1	win	2022-12-14	16:37:52	16:42:41	288185	63657781c04fe648496b9bab	944562167	1	main_slash	7	advance_on_keypress_SLASH	28	stimuli_target_trianglecircles.svg	stimuli_distractor_trianglediamonds.svg	17	yes	57	0	1165
6.6.1	win	2022-12-14	16:37:52	16:42:43	290681	63657781c04fe648496b9bab	944562167	1	main_slash	7	main_slash	29	stimuli_distractor_trianglediamonds.svg	stimuli_distractor_diamondtriangles.svg	36	no	53	0	717
6.6.1	win	2022-12-14	16:37:52	16:42:43	290681	63657781c04fe648496b9bab	944562167	1	main_slash	7	advance_on_keypress_SLASH	30	stimuli_distractor_trianglediamonds.svg	stimuli_distractor_diamondtriangles.svg	36	no	57	0	1732
6.6.1	win	2022-12-14	16:37:52	16:42:48	295031	63657781c04fe648496b9bab	944562167	1	main_slash	7	main_slash	31	stimuli_distractor_trianglediamonds.svg	stimuli_distractor_trianglediamonds.svg	33	no	0	1	2000
6.6.1	win	2022-12-14	16:37:52	16:42:48	295031	63657781c04fe648496b9bab	944562167	1	main_slash	7	advance_on_keypress_SLASH	32	stimuli_distractor_trianglediamonds.svg	stimuli_distractor_trianglediamonds.svg	33	no	57	0	549
6.6.1	win	2022-12-14	16:37:52	16:42:50	297097	63657781c04fe648496b9bab	944562167	1	main_slash	7	main_slash	33	stimuli_target_squarediamonds.svg	stimuli_distractor_trianglediamonds.svg	4	yes	53	1	903
6.6.1	win	2022-12-14	16:37:52	16:42:50	297097	63657781c04fe648496b9bab	944562167	1	main_slash	7	advance_on_keypress_SLASH	34	stimuli_target_squarediamonds.svg	stimuli_distractor_trianglediamonds.svg	4	yes	57	0	1162
6.6.1	win	2022-12-14	16:37:52	16:42:53	299881	63657781c04fe648496b9bab	944562167	1	main_slash	7	main_slash	35	stimuli_distractor_diamondtriangles.svg	stimuli_target_diamondcircles.svg	31	yes	53	1	1009
6.6.1	win	2022-12-14	16:37:52	16:42:53	299881	63657781c04fe648496b9bab	944562167	1	main_slash	7	advance_on_keypress_SLASH	36	stimuli_distractor_diamondtriangles.svg	stimuli_target_diamondcircles.svg	31	yes	57	0	827
6.6.1	win	2022-12-14	16:37:52	16:42:55	302377	63657781c04fe648496b9bab	944562167	1	main_slash	7	main_slash	37	stimuli_target_trianglecircles.svg	stimuli_distractor_diamondtriangles.svg	21	yes	53	1	1055
6.6.1	win	2022-12-14	16:37:52	16:42:55	302377	63657781c04fe648496b9bab	944562167	1	main_slash	7	advance_on_keypress_SLASH	38	stimuli_target_trianglecircles.svg	stimuli_distractor_diamondtriangles.svg	21	yes	57	0	931
6.6.1	win	2022-12-14	16:37:52	16:42:58	304897	63657781c04fe648496b9bab	944562167	1	main_slash	7	main_slash	39	stimuli_target_circletriangles.svg	stimuli_distractor_diamondtriangles.svg	5	yes	53	1	975
6.6.1	win	2022-12-14	16:37:52	16:42:58	304897	63657781c04fe648496b9bab	944562167	1	main_slash	7	advance_on_keypress_SLASH	40	stimuli_target_circletriangles.svg	stimuli_distractor_diamondtriangles.svg	5	yes	57	0	657
6.6.1	win	2022-12-14	16:37:52	16:43:00	307065	63657781c04fe648496b9bab	944562167	1	main_slash	7	main_slash	41	stimuli_distractor_trianglediamonds.svg	stimuli_target_diamondcircles.svg	27	yes	53	1	895
6.6.1	win	2022-12-14	16:37:52	16:43:00	307065	63657781c04fe648496b9bab	944562167	1	main_slash	7	advance_on_keypress_SLASH	42	stimuli_distractor_trianglediamonds.svg	stimuli_target_diamondcircles.svg	27	yes	57	0	558
6.6.1	win	2022-12-14	16:37:52	16:43:02	309112	63657781c04fe648496b9bab	944562167	1	main_slash	7	main_slash	43	stimuli_distractor_diamondtriangles.svg	stimuli_target_diamondsquares.svg	32	yes	53	1	876
6.6.1	win	2022-12-14	16:37:52	16:43:02	309112	63657781c04fe648496b9bab	944562167	1	main_slash	7	advance_on_keypress_SLASH	44	stimuli_distractor_diamondtriangles.svg	stimuli_target_diamondsquares.svg	32	yes	57	0	661
6.6.1	win	2022-12-14	16:37:52	16:43:04	311088	63657781c04fe648496b9bab	944562167	1	main_slash	7	main_slash	45	stimuli_distractor_diamondtriangles.svg	stimuli_target_circlediamonds.svg	14	yes	53	1	701
6.6.1	win	2022-12-14	16:37:52	16:43:04	311088	63657781c04fe648496b9bab	944562167	1	main_slash	7	advance_on_keypress_SLASH	46	stimuli_distractor_diamondtriangles.svg	stimuli_target_circlediamonds.svg	14	yes	57	0	646
6.6.1	win	2022-12-14	16:37:52	16:43:06	313081	63657781c04fe648496b9bab	944562167	1	main_slash	7	main_slash	47	stimuli_target_diamondsquares.svg	stimuli_distractor_trianglediamonds.svg	20	yes	53	1	735
6.6.1	win	2022-12-14	16:37:52	16:43:06	313081	63657781c04fe648496b9bab	944562167	1	main_slash	7	advance_on_keypress_SLASH	48	stimuli_target_diamondsquares.svg	stimuli_distractor_trianglediamonds.svg	20	yes	57	0	628
6.6.1	win	2022-12-14	16:37:52	16:43:08	315040	63657781c04fe648496b9bab	944562167	1	main_slash	7	main_slash	49	stimuli_target_diamondcircles.svg	stimuli_distractor_diamondtriangles.svg	23	yes	53	1	719
6.6.1	win	2022-12-14	16:37:52	16:43:08	315040	63657781c04fe648496b9bab	944562167	1	main_slash	7	advance_on_keypress_SLASH	50	stimuli_target_diamondcircles.svg	stimuli_distractor_diamondtriangles.svg	23	yes	57	0	894
6.6.1	win	2022-12-14	16:37:52	16:43:10	317208	63657781c04fe648496b9bab	944562167	1	main_slash	7	main_slash	51	stimuli_distractor_diamondtriangles.svg	stimuli_target_trianglecircles.svg	29	yes	53	1	663
6.6.1	win	2022-12-14	16:37:52	16:43:10	317208	63657781c04fe648496b9bab	944562167	1	main_slash	7	advance_on_keypress_SLASH	52	stimuli_distractor_diamondtriangles.svg	stimuli_target_trianglecircles.svg	29	yes	57	0	596
6.6.1	win	2022-12-14	16:37:52	16:43:12	319136	63657781c04fe648496b9bab	944562167	1	main_slash	7	main_slash	53	stimuli_target_circlediamonds.svg	stimuli_distractor_diamondtriangles.svg	6	yes	53	1	718
6.6.1	win	2022-12-14	16:37:52	16:43:12	319136	63657781c04fe648496b9bab	944562167	1	main_slash	7	advance_on_keypress_SLASH	54	stimuli_target_circlediamonds.svg	stimuli_distractor_diamondtriangles.svg	6	yes	57	0	557
6.6.1	win	2022-12-14	16:37:52	16:43:14	321160	63657781c04fe648496b9bab	944562167	1	main_slash	7	main_slash	55	stimuli_distractor_diamondtriangles.svg	stimuli_target_squaretriangles.svg	15	yes	53	1	851
6.6.1	win	2022-12-14	16:37:52	16:43:14	321160	63657781c04fe648496b9bab	944562167	1	main_slash	7	advance_on_keypress_SLASH	56	stimuli_distractor_diamondtriangles.svg	stimuli_target_squaretriangles.svg	15	yes	57	0	1149
6.6.1	win	2022-12-14	16:37:52	16:43:16	323432	63657781c04fe648496b9bab	944562167	1	main_slash	7	main_slash	57	stimuli_target_diamondcircles.svg	stimuli_distractor_trianglediamonds.svg	19	yes	53	1	511
6.6.1	win	2022-12-14	16:37:52	16:43:16	323432	63657781c04fe648496b9bab	944562167	1	main_slash	7	advance_on_keypress_SLASH	58	stimuli_target_diamondcircles.svg	stimuli_distractor_trianglediamonds.svg	19	yes	57	0	692
6.6.1	win	2022-12-14	16:37:52	16:43:18	325280	63657781c04fe648496b9bab	944562167	1	main_slash	7	main_slash	59	stimuli_distractor_diamondtriangles.svg	stimuli_target_trianglesquares.svg	30	yes	53	1	541
6.6.1	win	2022-12-14	16:37:52	16:43:18	325280	63657781c04fe648496b9bab	944562167	1	main_slash	7	advance_on_keypress_SLASH	60	stimuli_distractor_diamondtriangles.svg	stimuli_target_trianglesquares.svg	30	yes	57	0	708
6.6.1	win	2022-12-14	16:37:52	16:43:20	327192	63657781c04fe648496b9bab	944562167	1	main_slash	7	main_slash	61	stimuli_target_squaretriangles.svg	stimuli_distractor_trianglediamonds.svg	3	yes	53	1	592
6.6.1	win	2022-12-14	16:37:52	16:43:20	327192	63657781c04fe648496b9bab	944562167	1	main_slash	7	advance_on_keypress_SLASH	62	stimuli_target_squaretriangles.svg	stimuli_distractor_trianglediamonds.svg	3	yes	57	0	510
6.6.1	win	2022-12-14	16:37:52	16:43:21	328776	63657781c04fe648496b9bab	944562167	1	main_slash	7	main_slash	63	stimuli_distractor_trianglediamonds.svg	stimuli_target_trianglecircles.svg	25	yes	53	1	461
6.6.1	win	2022-12-14	16:37:52	16:43:21	328776	63657781c04fe648496b9bab	944562167	1	main_slash	7	advance_on_keypress_SLASH	64	stimuli_distractor_trianglediamonds.svg	stimuli_target_trianglecircles.svg	25	yes	57	0	738
6.6.1	win	2022-12-14	16:37:52	16:43:23	330600	63657781c04fe648496b9bab	944562167	1	main_slash	7	main_slash	65	stimuli_distractor_trianglediamonds.svg	stimuli_target_circletriangles.svg	9	yes	53	1	466
6.6.1	win	2022-12-14	16:37:52	16:43:23	330600	63657781c04fe648496b9bab	944562167	1	main_slash	7	advance_on_keypress_SLASH	66	stimuli_distractor_trianglediamonds.svg	stimuli_target_circletriangles.svg	9	yes	57	0	602
6.6.1	win	2022-12-14	16:37:52	16:43:25	332176	63657781c04fe648496b9bab	944562167	1	main_slash	7	main_slash	67	stimuli_target_diamondsquares.svg	stimuli_distractor_diamondtriangles.svg	24	yes	53	1	358
6.6.1	win	2022-12-14	16:37:52	16:43:25	332176	63657781c04fe648496b9bab	944562167	1	main_slash	7	advance_on_keypress_SLASH	68	stimuli_target_diamondsquares.svg	stimuli_distractor_diamondtriangles.svg	24	yes	57	0	1098
6.6.1	win	2022-12-14	16:37:52	16:43:27	334384	63657781c04fe648496b9bab	944562167	1	main_slash	7	main_slash	69	stimuli_target_circlediamonds.svg	stimuli_distractor_trianglediamonds.svg	2	yes	53	1	493
6.6.1	win	2022-12-14	16:37:52	16:43:27	334384	63657781c04fe648496b9bab	944562167	1	main_slash	7	advance_on_keypress_SLASH	70	stimuli_target_circlediamonds.svg	stimuli_distractor_trianglediamonds.svg	2	yes	57	0	804
6.6.1	win	2022-12-14	16:37:52	16:43:29	336207	63657781c04fe648496b9bab	944562167	1	main_slash	7	main_slash	71	stimuli_target_squaretriangles.svg	stimuli_distractor_diamondtriangles.svg	7	yes	53	1	408
6.6.1	win	2022-12-14	16:37:52	16:43:29	336207	63657781c04fe648496b9bab	944562167	1	main_slash	7	advance_on_keypress_SLASH	72	stimuli_target_squaretriangles.svg	stimuli_distractor_diamondtriangles.svg	7	yes	57	0	804
6.6.1	win	2022-12-14	16:37:52	16:43:32	339624	63657781c04fe648496b9bab	944562167	1	main_slash	7	main_slash	73	stimuli_distractor_diamondtriangles.svg	stimuli_distractor_trianglediamonds.svg	37	no	0	1	2000
6.6.1	win	2022-12-14	16:37:52	16:43:32	339624	63657781c04fe648496b9bab	944562167	1	main_slash	7	advance_on_keypress_SLASH	74	stimuli_distractor_diamondtriangles.svg	stimuli_distractor_trianglediamonds.svg	37	no	57	0	506
6.6.1	win	2022-12-14	16:37:52	16:43:35	342745	63657781c04fe648496b9bab	944562167	1	main_slash	7	main_slash	75	stimuli_distractor_trianglediamonds.svg	stimuli_distractor_diamondtriangles.svg	35	no	0	1	2000
6.6.1	win	2022-12-14	16:37:52	16:43:35	342745	63657781c04fe648496b9bab	944562167	1	main_slash	7	advance_on_keypress_SLASH	76	stimuli_distractor_trianglediamonds.svg	stimuli_distractor_diamondtriangles.svg	35	no	57	0	560
6.6.1	win	2022-12-14	16:37:52	16:43:37	344639	63657781c04fe648496b9bab	944562167	1	main_slash	7	main_slash	77	stimuli_distractor_trianglediamonds.svg	stimuli_target_squarediamonds.svg	12	yes	53	1	719
6.6.1	win	2022-12-14	16:37:52	16:43:37	344639	63657781c04fe648496b9bab	944562167	1	main_slash	7	advance_on_keypress_SLASH	78	stimuli_distractor_trianglediamonds.svg	stimuli_target_squarediamonds.svg	12	yes	57	0	1110
6.6.1	win	2022-12-14	16:37:52	16:43:40	347055	63657781c04fe648496b9bab	944562167	1	main_slash	7	main_slash	79	stimuli_distractor_diamondtriangles.svg	stimuli_target_circletriangles.svg	13	yes	53	1	692
6.6.1	win	2022-12-14	16:37:52	16:43:40	347055	63657781c04fe648496b9bab	944562167	1	main_slash	7	advance_on_keypress_SLASH	80	stimuli_distractor_diamondtriangles.svg	stimuli_target_circletriangles.svg	13	yes	57	0	707
6.6.1	win	2022-12-14	16:37:52	16:43:42	348935	63657781c04fe648496b9bab	944562167	1	main_slash	7	main_slash	81	stimuli_target_trianglecircles.svg	stimuli_distractor_trianglediamonds.svg	17	yes	53	1	560
6.6.1	win	2022-12-14	16:37:52	16:43:42	348935	63657781c04fe648496b9bab	944562167	1	main_slash	7	advance_on_keypress_SLASH	82	stimuli_target_trianglecircles.svg	stimuli_distractor_trianglediamonds.svg	17	yes	57	0	725
6.6.1	win	2022-12-14	16:37:52	16:43:43	350775	63657781c04fe648496b9bab	944562167	1	main_slash	7	main_slash	83	stimuli_distractor_trianglediamonds.svg	stimuli_target_diamondcircles.svg	27	yes	53	1	502
6.6.1	win	2022-12-14	16:37:52	16:43:43	350775	63657781c04fe648496b9bab	944562167	1	main_slash	7	advance_on_keypress_SLASH	84	stimuli_distractor_trianglediamonds.svg	stimuli_target_diamondcircles.svg	27	yes	57	0	674
6.6.1	win	2022-12-14	16:37:52	16:43:46	353039	63657781c04fe648496b9bab	944562167	1	main_slash	7	main_slash	85	stimuli_distractor_diamondtriangles.svg	stimuli_target_circlediamonds.svg	14	yes	53	1	972
6.6.1	win	2022-12-14	16:37:52	16:43:46	353039	63657781c04fe648496b9bab	944562167	1	main_slash	7	advance_on_keypress_SLASH	86	stimuli_distractor_diamondtriangles.svg	stimuli_target_circlediamonds.svg	14	yes	57	0	573
6.6.1	win	2022-12-14	16:37:52	16:43:48	354831	63657781c04fe648496b9bab	944562167	1	main_slash	7	main_slash	87	stimuli_target_diamondsquares.svg	stimuli_distractor_trianglediamonds.svg	20	yes	53	1	607
6.6.1	win	2022-12-14	16:37:52	16:43:48	354831	63657781c04fe648496b9bab	944562167	1	main_slash	7	advance_on_keypress_SLASH	88	stimuli_target_diamondsquares.svg	stimuli_distractor_trianglediamonds.svg	20	yes	57	0	643
6.6.1	win	2022-12-14	16:37:52	16:43:49	356622	63657781c04fe648496b9bab	944562167	1	main_slash	7	main_slash	89	stimuli_distractor_trianglediamonds.svg	stimuli_target_squaretriangles.svg	11	yes	53	1	532
6.6.1	win	2022-12-14	16:37:52	16:43:49	356622	63657781c04fe648496b9bab	944562167	1	main_slash	7	advance_on_keypress_SLASH	90	stimuli_distractor_trianglediamonds.svg	stimuli_target_squaretriangles.svg	11	yes	57	0	537
6.6.1	win	2022-12-14	16:37:52	16:43:51	358454	63657781c04fe648496b9bab	944562167	1	main_slash	7	main_slash	91	stimuli_distractor_trianglediamonds.svg	stimuli_target_trianglecircles.svg	25	yes	53	1	679
6.6.1	win	2022-12-14	16:37:52	16:43:51	358454	63657781c04fe648496b9bab	944562167	1	main_slash	7	advance_on_keypress_SLASH	92	stimuli_distractor_trianglediamonds.svg	stimuli_target_trianglecircles.svg	25	yes	57	0	595
6.6.1	win	2022-12-14	16:37:52	16:43:53	360070	63657781c04fe648496b9bab	944562167	1	main_slash	7	main_slash	93	stimuli_distractor_diamondtriangles.svg	stimuli_target_trianglecircles.svg	29	yes	53	1	404
6.6.1	win	2022-12-14	16:37:52	16:43:53	360070	63657781c04fe648496b9bab	944562167	1	main_slash	7	advance_on_keypress_SLASH	94	stimuli_distractor_diamondtriangles.svg	stimuli_target_trianglecircles.svg	29	yes	57	0	686
6.6.1	win	2022-12-14	16:37:52	16:43:56	363369	63657781c04fe648496b9bab	944562167	1	main_slash	7	main_slash	95	stimuli_distractor_trianglediamonds.svg	stimuli_distractor_diamondtriangles.svg	36	no	0	1	2000
6.6.1	win	2022-12-14	16:37:52	16:43:56	363369	63657781c04fe648496b9bab	944562167	1	main_slash	7	advance_on_keypress_SLASH	96	stimuli_distractor_trianglediamonds.svg	stimuli_distractor_diamondtriangles.svg	36	no	57	0	583
6.6.1	win	2022-12-14	16:37:52	16:43:58	365094	63657781c04fe648496b9bab	944562167	1	main_slash	7	main_slash	97	stimuli_target_circletriangles.svg	stimuli_distractor_trianglediamonds.svg	1	yes	53	1	526
6.6.1	win	2022-12-14	16:37:52	16:43:58	365094	63657781c04fe648496b9bab	944562167	1	main_slash	7	advance_on_keypress_SLASH	98	stimuli_target_circletriangles.svg	stimuli_distractor_trianglediamonds.svg	1	yes	57	0	886
6.6.1	win	2022-12-14	16:37:52	16:44:00	367006	63657781c04fe648496b9bab	944562167	1	main_slash	7	main_slash	99	stimuli_distractor_trianglediamonds.svg	stimuli_target_circlediamonds.svg	10	yes	53	1	413
6.6.1	win	2022-12-14	16:37:52	16:44:00	367006	63657781c04fe648496b9bab	944562167	1	main_slash	7	advance_on_keypress_SLASH	100	stimuli_distractor_trianglediamonds.svg	stimuli_target_circlediamonds.svg	10	yes	57	0	659
6.6.1	win	2022-12-14	16:37:52	16:44:01	368670	63657781c04fe648496b9bab	944562167	1	main_slash	7	main_slash	101	stimuli_target_circlediamonds.svg	stimuli_distractor_trianglediamonds.svg	2	yes	53	1	392
6.6.1	win	2022-12-14	16:37:52	16:44:01	368670	63657781c04fe648496b9bab	944562167	1	main_slash	7	advance_on_keypress_SLASH	102	stimuli_target_circlediamonds.svg	stimuli_distractor_trianglediamonds.svg	2	yes	57	0	855
6.6.1	win	2022-12-14	16:37:52	16:44:03	370574	63657781c04fe648496b9bab	944562167	1	main_slash	7	main_slash	103	stimuli_distractor_diamondtriangles.svg	stimuli_target_squarediamonds.svg	16	yes	53	1	436
6.6.1	win	2022-12-14	16:37:52	16:44:03	370574	63657781c04fe648496b9bab	944562167	1	main_slash	7	advance_on_keypress_SLASH	104	stimuli_distractor_diamondtriangles.svg	stimuli_target_squarediamonds.svg	16	yes	57	0	634
6.6.1	win	2022-12-14	16:37:52	16:44:05	372518	63657781c04fe648496b9bab	944562167	1	main_slash	7	main_slash	105	stimuli_target_diamondcircles.svg	stimuli_distractor_diamondtriangles.svg	23	yes	53	1	695
6.6.1	win	2022-12-14	16:37:52	16:44:05	372518	63657781c04fe648496b9bab	944562167	1	main_slash	7	advance_on_keypress_SLASH	106	stimuli_target_diamondcircles.svg	stimuli_distractor_diamondtriangles.svg	23	yes	57	0	478
6.6.1	win	2022-12-14	16:37:52	16:44:07	374174	63657781c04fe648496b9bab	944562167	1	main_slash	7	main_slash	107	stimuli_distractor_diamondtriangles.svg	stimuli_target_squaretriangles.svg	15	yes	53	1	563
6.6.1	win	2022-12-14	16:37:52	16:44:07	374174	63657781c04fe648496b9bab	944562167	1	main_slash	7	advance_on_keypress_SLASH	108	stimuli_distractor_diamondtriangles.svg	stimuli_target_squaretriangles.svg	15	yes	57	0	458
6.6.1	win	2022-12-14	16:37:52	16:44:10	377247	63657781c04fe648496b9bab	944562167	1	main_slash	7	main_slash	109	stimuli_distractor_diamondtriangles.svg	stimuli_distractor_trianglediamonds.svg	37	no	0	1	2000
6.6.1	win	2022-12-14	16:37:52	16:44:10	377247	63657781c04fe648496b9bab	944562167	1	main_slash	7	advance_on_keypress_SLASH	110	stimuli_distractor_diamondtriangles.svg	stimuli_distractor_trianglediamonds.svg	37	no	57	0	424
6.6.1	win	2022-12-14	16:37:52	16:44:12	378846	63657781c04fe648496b9bab	944562167	1	main_slash	7	main_slash	111	stimuli_target_trianglesquares.svg	stimuli_distractor_trianglediamonds.svg	18	yes	53	1	555
6.6.1	win	2022-12-14	16:37:52	16:44:12	378846	63657781c04fe648496b9bab	944562167	1	main_slash	7	advance_on_keypress_SLASH	112	stimuli_target_trianglesquares.svg	stimuli_distractor_trianglediamonds.svg	18	yes	57	0	718
6.6.1	win	2022-12-14	16:37:52	16:44:13	380606	63657781c04fe648496b9bab	944562167	1	main_slash	7	main_slash	113	stimuli_distractor_trianglediamonds.svg	stimuli_target_diamondsquares.svg	28	yes	53	1	431
6.6.1	win	2022-12-14	16:37:52	16:44:13	380606	63657781c04fe648496b9bab	944562167	1	main_slash	7	advance_on_keypress_SLASH	114	stimuli_distractor_trianglediamonds.svg	stimuli_target_diamondsquares.svg	28	yes	57	0	538
6.6.1	win	2022-12-14	16:37:52	16:44:15	382165	63657781c04fe648496b9bab	944562167	1	main_slash	7	main_slash	115	stimuli_target_squaretriangles.svg	stimuli_distractor_diamondtriangles.svg	7	yes	53	1	403
6.6.1	win	2022-12-14	16:37:52	16:44:15	382165	63657781c04fe648496b9bab	944562167	1	main_slash	7	advance_on_keypress_SLASH	116	stimuli_target_squaretriangles.svg	stimuli_distractor_diamondtriangles.svg	7	yes	57	0	645
6.6.1	win	2022-12-14	16:37:52	16:44:17	383797	63657781c04fe648496b9bab	944562167	1	main_slash	7	main_slash	117	stimuli_distractor_diamondtriangles.svg	stimuli_target_circletriangles.svg	13	yes	53	1	374
6.6.1	win	2022-12-14	16:37:52	16:44:17	383797	63657781c04fe648496b9bab	944562167	1	main_slash	7	advance_on_keypress_SLASH	118	stimuli_distractor_diamondtriangles.svg	stimuli_target_circletriangles.svg	13	yes	57	0	864
6.6.1	win	2022-12-14	16:37:52	16:44:18	385654	63657781c04fe648496b9bab	944562167	1	main_slash	7	main_slash	119	stimuli_target_trianglecircles.svg	stimuli_distractor_diamondtriangles.svg	21	yes	53	1	376
6.6.1	win	2022-12-14	16:37:52	16:44:18	385654	63657781c04fe648496b9bab	944562167	1	main_slash	7	advance_on_keypress_SLASH	120	stimuli_target_trianglecircles.svg	stimuli_distractor_diamondtriangles.svg	21	yes	57	0	834
6.6.1	win	2022-12-14	16:37:52	16:44:20	387477	63657781c04fe648496b9bab	944562167	1	main_slash	7	main_slash	121	stimuli_target_circlediamonds.svg	stimuli_distractor_diamondtriangles.svg	6	yes	53	1	376
6.6.1	win	2022-12-14	16:37:52	16:44:20	387477	63657781c04fe648496b9bab	944562167	1	main_slash	7	advance_on_keypress_SLASH	122	stimuli_target_circlediamonds.svg	stimuli_distractor_diamondtriangles.svg	6	yes	57	0	762
6.6.1	win	2022-12-14	16:37:52	16:44:22	389269	63657781c04fe648496b9bab	944562167	1	main_slash	7	main_slash	123	stimuli_target_diamondsquares.svg	stimuli_distractor_diamondtriangles.svg	24	yes	53	1	410
6.6.1	win	2022-12-14	16:37:52	16:44:22	389269	63657781c04fe648496b9bab	944562167	1	main_slash	7	advance_on_keypress_SLASH	124	stimuli_target_diamondsquares.svg	stimuli_distractor_diamondtriangles.svg	24	yes	57	0	790
6.6.1	win	2022-12-14	16:37:52	16:44:25	392672	63657781c04fe648496b9bab	944562167	1	main_slash	7	main_slash	125	stimuli_distractor_trianglediamonds.svg	stimuli_distractor_trianglediamonds.svg	33	no	0	1	2000
6.6.1	win	2022-12-14	16:37:52	16:44:25	392672	63657781c04fe648496b9bab	944562167	1	main_slash	7	advance_on_keypress_SLASH	126	stimuli_distractor_trianglediamonds.svg	stimuli_distractor_trianglediamonds.svg	33	no	57	0	440
6.6.1	win	2022-12-14	16:37:52	16:44:28	395726	63657781c04fe648496b9bab	944562167	1	main_slash	7	main_slash	127	stimuli_distractor_diamondtriangles.svg	stimuli_distractor_diamondtriangles.svg	40	no	0	1	2000
6.6.1	win	2022-12-14	16:37:52	16:44:28	395726	63657781c04fe648496b9bab	944562167	1	main_slash	7	advance_on_keypress_SLASH	128	stimuli_distractor_diamondtriangles.svg	stimuli_distractor_diamondtriangles.svg	40	no	57	0	417
6.6.1	win	2022-12-14	16:37:52	16:44:30	397213	63657781c04fe648496b9bab	944562167	1	main_slash	7	main_slash	129	stimuli_distractor_diamondtriangles.svg	stimuli_target_diamondcircles.svg	31	yes	53	1	451
6.6.1	win	2022-12-14	16:37:52	16:44:30	397213	63657781c04fe648496b9bab	944562167	1	main_slash	7	advance_on_keypress_SLASH	130	stimuli_distractor_diamondtriangles.svg	stimuli_target_diamondcircles.svg	31	yes	57	0	493
6.6.1	win	2022-12-14	16:37:52	16:44:32	398965	63657781c04fe648496b9bab	944562167	1	main_slash	7	main_slash	131	stimuli_target_squarediamonds.svg	stimuli_distractor_diamondtriangles.svg	8	yes	53	1	645
6.6.1	win	2022-12-14	16:37:52	16:44:32	398965	63657781c04fe648496b9bab	944562167	1	main_slash	7	advance_on_keypress_SLASH	132	stimuli_target_squarediamonds.svg	stimuli_distractor_diamondtriangles.svg	8	yes	57	0	453
6.6.1	win	2022-12-14	16:37:52	16:44:33	400461	63657781c04fe648496b9bab	944562167	1	main_slash	7	main_slash	133	stimuli_distractor_trianglediamonds.svg	stimuli_target_circletriangles.svg	9	yes	53	1	431
6.6.1	win	2022-12-14	16:37:52	16:44:33	400461	63657781c04fe648496b9bab	944562167	1	main_slash	7	advance_on_keypress_SLASH	134	stimuli_distractor_trianglediamonds.svg	stimuli_target_circletriangles.svg	9	yes	57	0	395
6.6.1	win	2022-12-14	16:37:52	16:44:35	401997	63657781c04fe648496b9bab	944562167	1	main_slash	7	main_slash	135	stimuli_distractor_trianglediamonds.svg	stimuli_target_trianglesquares.svg	26	yes	53	1	525
6.6.1	win	2022-12-14	16:37:52	16:44:35	401997	63657781c04fe648496b9bab	944562167	1	main_slash	7	advance_on_keypress_SLASH	136	stimuli_distractor_trianglediamonds.svg	stimuli_target_trianglesquares.svg	26	yes	57	0	398
6.6.1	win	2022-12-14	16:37:52	16:44:37	403989	63657781c04fe648496b9bab	944562167	1	main_slash	7	main_slash	137	stimuli_distractor_trianglediamonds.svg	stimuli_distractor_diamondtriangles.svg	35	no	53	0	984
6.6.1	win	2022-12-14	16:37:52	16:44:37	403989	63657781c04fe648496b9bab	944562167	1	main_slash	7	advance_on_keypress_SLASH	138	stimuli_distractor_trianglediamonds.svg	stimuli_distractor_diamondtriangles.svg	35	no	57	0	1244
6.6.1	win	2022-12-14	16:37:52	16:44:39	406341	63657781c04fe648496b9bab	944562167	1	main_slash	7	main_slash	139	stimuli_target_diamondcircles.svg	stimuli_distractor_trianglediamonds.svg	19	yes	53	1	493
6.6.1	win	2022-12-14	16:37:52	16:44:39	406341	63657781c04fe648496b9bab	944562167	1	main_slash	7	advance_on_keypress_SLASH	140	stimuli_target_diamondcircles.svg	stimuli_distractor_trianglediamonds.svg	19	yes	57	0	372
6.6.1	win	2022-12-14	16:37:52	16:44:41	407829	63657781c04fe648496b9bab	944562167	1	main_slash	7	main_slash	141	stimuli_distractor_trianglediamonds.svg	stimuli_target_squarediamonds.svg	12	yes	53	1	503
6.6.1	win	2022-12-14	16:37:52	16:44:41	407829	63657781c04fe648496b9bab	944562167	1	main_slash	7	advance_on_keypress_SLASH	142	stimuli_distractor_trianglediamonds.svg	stimuli_target_squarediamonds.svg	12	yes	57	0	402
6.6.1	win	2022-12-14	16:37:52	16:44:42	409316	63657781c04fe648496b9bab	944562167	1	main_slash	7	main_slash	143	stimuli_target_squarediamonds.svg	stimuli_distractor_trianglediamonds.svg	4	yes	53	1	469
6.6.1	win	2022-12-14	16:37:52	16:44:42	409316	63657781c04fe648496b9bab	944562167	1	main_slash	7	advance_on_keypress_SLASH	144	stimuli_target_squarediamonds.svg	stimuli_distractor_trianglediamonds.svg	4	yes	57	0	453
6.6.1	win	2022-12-14	16:37:52	16:44:44	411100	63657781c04fe648496b9bab	944562167	1	main_slash	7	main_slash	145	stimuli_distractor_diamondtriangles.svg	stimuli_target_trianglesquares.svg	30	yes	53	1	720
6.6.1	win	2022-12-14	16:37:52	16:44:44	411100	63657781c04fe648496b9bab	944562167	1	main_slash	7	advance_on_keypress_SLASH	146	stimuli_distractor_diamondtriangles.svg	stimuli_target_trianglesquares.svg	30	yes	57	0	369
6.6.1	win	2022-12-14	16:37:52	16:44:47	414090	63657781c04fe648496b9bab	944562167	1	main_slash	7	main_slash	147	stimuli_distractor_diamondtriangles.svg	stimuli_distractor_trianglediamonds.svg	38	no	0	1	2000
6.6.1	win	2022-12-14	16:37:52	16:44:47	414090	63657781c04fe648496b9bab	944562167	1	main_slash	7	advance_on_keypress_SLASH	148	stimuli_distractor_diamondtriangles.svg	stimuli_distractor_trianglediamonds.svg	38	no	57	0	493
6.6.1	win	2022-12-14	16:37:52	16:44:48	415772	63657781c04fe648496b9bab	944562167	1	main_slash	7	main_slash	149	stimuli_distractor_trianglediamonds.svg	stimuli_distractor_trianglediamonds.svg	34	no	53	0	574
6.6.1	win	2022-12-14	16:37:52	16:44:48	415772	63657781c04fe648496b9bab	944562167	1	main_slash	7	advance_on_keypress_SLASH	150	stimuli_distractor_trianglediamonds.svg	stimuli_distractor_trianglediamonds.svg	34	no	57	0	1030
6.6.1	win	2022-12-14	16:37:52	16:44:51	417860	63657781c04fe648496b9bab	944562167	1	main_slash	7	main_slash	151	stimuli_distractor_diamondtriangles.svg	stimuli_target_diamondsquares.svg	32	yes	53	1	444
6.6.1	win	2022-12-14	16:37:52	16:44:51	417860	63657781c04fe648496b9bab	944562167	1	main_slash	7	advance_on_keypress_SLASH	152	stimuli_distractor_diamondtriangles.svg	stimuli_target_diamondsquares.svg	32	yes	57	0	395
6.6.1	win	2022-12-14	16:37:52	16:44:52	419436	63657781c04fe648496b9bab	944562167	1	main_slash	7	main_slash	153	stimuli_target_squaretriangles.svg	stimuli_distractor_trianglediamonds.svg	3	yes	53	1	565
6.6.1	win	2022-12-14	16:37:52	16:44:52	419436	63657781c04fe648496b9bab	944562167	1	main_slash	7	advance_on_keypress_SLASH	154	stimuli_target_squaretriangles.svg	stimuli_distractor_trianglediamonds.svg	3	yes	57	0	404
6.6.1	win	2022-12-14	16:37:52	16:44:54	421060	63657781c04fe648496b9bab	944562167	1	main_slash	7	main_slash	155	stimuli_target_circletriangles.svg	stimuli_distractor_diamondtriangles.svg	5	yes	53	1	607
6.6.1	win	2022-12-14	16:37:52	16:44:54	421060	63657781c04fe648496b9bab	944562167	1	main_slash	7	advance_on_keypress_SLASH	156	stimuli_target_circletriangles.svg	stimuli_distractor_diamondtriangles.svg	5	yes	57	0	443
6.6.1	win	2022-12-14	16:37:52	16:44:57	424120	63657781c04fe648496b9bab	944562167	1	main_slash	7	main_slash	157	stimuli_distractor_diamondtriangles.svg	stimuli_distractor_diamondtriangles.svg	39	no	0	1	2000
6.6.1	win	2022-12-14	16:37:52	16:44:57	424120	63657781c04fe648496b9bab	944562167	1	main_slash	7	advance_on_keypress_SLASH	158	stimuli_distractor_diamondtriangles.svg	stimuli_distractor_diamondtriangles.svg	39	no	57	0	287
6.6.1	win	2022-12-14	16:37:52	16:44:58	425500	63657781c04fe648496b9bab	944562167	1	main_slash	7	main_slash	159	stimuli_target_trianglesquares.svg	stimuli_distractor_diamondtriangles.svg	22	yes	53	1	477
6.6.1	win	2022-12-14	16:37:52	16:44:58	425500	63657781c04fe648496b9bab	944562167	1	main_slash	7	advance_on_keypress_SLASH	160	stimuli_target_trianglesquares.svg	stimuli_distractor_diamondtriangles.svg	22	yes	57	0	880
6.6.1	win	2022-12-14	16:37:52	16:45:19	446291	63657781c04fe648496b9bab	944562167	1	practice_z	9	practice_z	1	stimuli_distractor_trianglediamonds.svg	stimuli_target_circlediamonds.svg	10	yes	44	1	542
6.6.1	win	2022-12-14	16:37:52	16:45:19	446291	63657781c04fe648496b9bab	944562167	1	practice_z	9	advance_on_keypress_ZEE	2	stimuli_distractor_trianglediamonds.svg	stimuli_target_circlediamonds.svg	10	yes	57	0	476
6.6.1	win	2022-12-14	16:37:52	16:45:22	448892	63657781c04fe648496b9bab	944562167	1	practice_z	9	practice_z	3	stimuli_target_squarediamonds.svg	stimuli_distractor_diamondtriangles.svg	2	yes	44	1	506
6.6.1	win	2022-12-14	16:37:52	16:45:22	448892	63657781c04fe648496b9bab	944562167	1	practice_z	9	advance_on_keypress_ZEE	4	stimuli_target_squarediamonds.svg	stimuli_distractor_diamondtriangles.svg	2	yes	57	0	349
6.6.1	win	2022-12-14	16:37:52	16:45:26	452860	63657781c04fe648496b9bab	944562167	1	practice_z	9	practice_z	5	stimuli_distractor_trianglediamonds.svg	stimuli_distractor_diamondtriangles.svg	16	no	0	1	2000
6.6.1	win	2022-12-14	16:37:52	16:45:26	452860	63657781c04fe648496b9bab	944562167	1	practice_z	9	advance_on_keypress_ZEE	6	stimuli_distractor_trianglediamonds.svg	stimuli_distractor_diamondtriangles.svg	16	no	57	0	450
6.6.1	win	2022-12-14	16:37:52	16:45:28	455419	63657781c04fe648496b9bab	944562167	1	practice_z	9	practice_z	7	stimuli_distractor_trianglediamonds.svg	stimuli_target_squarediamonds.svg	11	yes	44	1	493
6.6.1	win	2022-12-14	16:37:52	16:45:28	455419	63657781c04fe648496b9bab	944562167	1	practice_z	9	advance_on_keypress_ZEE	8	stimuli_distractor_trianglediamonds.svg	stimuli_target_squarediamonds.svg	11	yes	57	0	500
6.6.1	win	2022-12-14	16:37:52	16:45:32	459538	63657781c04fe648496b9bab	944562167	1	practice_z	9	practice_z	9	stimuli_distractor_trianglediamonds.svg	stimuli_distractor_trianglediamonds.svg	15	no	0	1	2000
6.6.1	win	2022-12-14	16:37:52	16:45:32	459538	63657781c04fe648496b9bab	944562167	1	practice_z	9	advance_on_keypress_ZEE	10	stimuli_distractor_trianglediamonds.svg	stimuli_distractor_trianglediamonds.svg	15	no	57	0	395
6.6.1	win	2022-12-14	16:37:52	16:45:36	463550	63657781c04fe648496b9bab	944562167	1	practice_z	9	practice_z	11	stimuli_distractor_diamondtriangles.svg	stimuli_distractor_trianglediamonds.svg	14	no	0	1	2000
6.6.1	win	2022-12-14	16:37:52	16:45:36	463550	63657781c04fe648496b9bab	944562167	1	practice_z	9	advance_on_keypress_ZEE	12	stimuli_distractor_diamondtriangles.svg	stimuli_distractor_trianglediamonds.svg	14	no	57	0	415
6.6.1	win	2022-12-14	16:37:52	16:45:39	466146	63657781c04fe648496b9bab	944562167	1	practice_z	9	practice_z	13	stimuli_distractor_diamondtriangles.svg	stimuli_target_trianglecircles.svg	9	yes	44	1	561
6.6.1	win	2022-12-14	16:37:52	16:45:39	466146	63657781c04fe648496b9bab	944562167	1	practice_z	9	advance_on_keypress_ZEE	14	stimuli_distractor_diamondtriangles.svg	stimuli_target_trianglecircles.svg	9	yes	57	0	437
6.6.1	win	2022-12-14	16:37:52	16:45:41	468739	63657781c04fe648496b9bab	944562167	1	practice_z	9	practice_z	15	stimuli_target_circlediamonds.svg	stimuli_distractor_diamondtriangles.svg	1	yes	44	1	541
6.6.1	win	2022-12-14	16:37:52	16:45:41	468739	63657781c04fe648496b9bab	944562167	1	practice_z	9	advance_on_keypress_ZEE	16	stimuli_target_circlediamonds.svg	stimuli_distractor_diamondtriangles.svg	1	yes	57	0	363
6.6.1	win	2022-12-14	16:37:52	16:45:44	471299	63657781c04fe648496b9bab	944562167	1	practice_z	9	practice_z	17	stimuli_target_diamondsquares.svg	stimuli_distractor_diamondtriangles.svg	3	yes	44	1	580
6.6.1	win	2022-12-14	16:37:52	16:45:44	471299	63657781c04fe648496b9bab	944562167	1	practice_z	9	advance_on_keypress_ZEE	18	stimuli_target_diamondsquares.svg	stimuli_distractor_diamondtriangles.svg	3	yes	57	0	470
6.6.1	win	2022-12-14	16:37:52	16:45:47	473938	63657781c04fe648496b9bab	944562167	1	practice_z	9	practice_z	19	stimuli_target_circlediamonds.svg	stimuli_distractor_trianglediamonds.svg	4	yes	44	1	553
6.6.1	win	2022-12-14	16:37:52	16:45:47	473938	63657781c04fe648496b9bab	944562167	1	practice_z	9	advance_on_keypress_ZEE	20	stimuli_target_circlediamonds.svg	stimuli_distractor_trianglediamonds.svg	4	yes	57	0	443
6.6.1	win	2022-12-14	16:37:52	16:45:49	476466	63657781c04fe648496b9bab	944562167	1	practice_z	9	practice_z	21	stimuli_target_diamondsquares.svg	stimuli_distractor_trianglediamonds.svg	6	yes	44	1	468
6.6.1	win	2022-12-14	16:37:52	16:45:49	476466	63657781c04fe648496b9bab	944562167	1	practice_z	9	advance_on_keypress_ZEE	22	stimuli_target_diamondsquares.svg	stimuli_distractor_trianglediamonds.svg	6	yes	57	0	395
6.6.1	win	2022-12-14	16:37:52	16:45:53	480477	63657781c04fe648496b9bab	944562167	1	practice_z	9	practice_z	23	stimuli_distractor_diamondtriangles.svg	stimuli_distractor_diamondtriangles.svg	13	no	0	1	2000
6.6.1	win	2022-12-14	16:37:52	16:45:53	480477	63657781c04fe648496b9bab	944562167	1	practice_z	9	advance_on_keypress_ZEE	24	stimuli_distractor_diamondtriangles.svg	stimuli_distractor_diamondtriangles.svg	13	no	57	0	439
6.6.1	win	2022-12-14	16:37:52	16:45:56	483090	63657781c04fe648496b9bab	944562167	1	practice_z	9	practice_z	25	stimuli_distractor_diamondtriangles.svg	stimuli_target_diamondcircles.svg	8	yes	44	1	553
6.6.1	win	2022-12-14	16:37:52	16:45:56	483090	63657781c04fe648496b9bab	944562167	1	practice_z	9	advance_on_keypress_ZEE	26	stimuli_distractor_diamondtriangles.svg	stimuli_target_diamondcircles.svg	8	yes	57	0	515
6.6.1	win	2022-12-14	16:37:52	16:45:58	485753	63657781c04fe648496b9bab	944562167	1	practice_z	9	practice_z	27	stimuli_distractor_trianglediamonds.svg	stimuli_target_diamondcircles.svg	12	yes	44	1	532
6.6.1	win	2022-12-14	16:37:52	16:45:58	485753	63657781c04fe648496b9bab	944562167	1	practice_z	9	advance_on_keypress_ZEE	28	stimuli_distractor_trianglediamonds.svg	stimuli_target_diamondcircles.svg	12	yes	57	0	448
6.6.1	win	2022-12-14	16:37:52	16:46:01	488266	63657781c04fe648496b9bab	944562167	1	practice_z	9	practice_z	29	stimuli_distractor_diamondtriangles.svg	stimuli_target_circletriangles.svg	7	yes	44	1	444
6.6.1	win	2022-12-14	16:37:52	16:46:01	488266	63657781c04fe648496b9bab	944562167	1	practice_z	9	advance_on_keypress_ZEE	30	stimuli_distractor_diamondtriangles.svg	stimuli_target_circletriangles.svg	7	yes	57	0	435
6.6.1	win	2022-12-14	16:37:52	16:46:03	490769	63657781c04fe648496b9bab	944562167	1	practice_z	9	practice_z	31	stimuli_target_squarediamonds.svg	stimuli_distractor_trianglediamonds.svg	5	yes	44	1	451
6.6.1	win	2022-12-14	16:37:52	16:46:03	490769	63657781c04fe648496b9bab	944562167	1	practice_z	9	advance_on_keypress_ZEE	32	stimuli_target_squarediamonds.svg	stimuli_distractor_trianglediamonds.svg	5	yes	57	0	404
6.6.1	win	2022-12-14	16:37:52	16:46:07	494105	63657781c04fe648496b9bab	944562167	1	main_z	11	main_z	1	stimuli_target_diamondcircles.svg	stimuli_distractor_diamondtriangles.svg	23	yes	44	1	454
6.6.1	win	2022-12-14	16:37:52	16:46:07	494105	63657781c04fe648496b9bab	944562167	1	main_z	11	advance_on_keypress_ZEE	2	stimuli_target_diamondcircles.svg	stimuli_distractor_diamondtriangles.svg	23	yes	57	0	785
6.6.1	win	2022-12-14	16:37:52	16:46:09	496273	63657781c04fe648496b9bab	944562167	1	main_z	11	main_z	3	stimuli_target_trianglesquares.svg	stimuli_distractor_diamondtriangles.svg	22	yes	44	1	767
6.6.1	win	2022-12-14	16:37:52	16:46:09	496273	63657781c04fe648496b9bab	944562167	1	main_z	11	advance_on_keypress_ZEE	4	stimuli_target_trianglesquares.svg	stimuli_distractor_diamondtriangles.svg	22	yes	57	0	557
6.6.1	win	2022-12-14	16:37:52	16:46:11	497905	63657781c04fe648496b9bab	944562167	1	main_z	11	main_z	5	stimuli_target_diamondsquares.svg	stimuli_distractor_trianglediamonds.svg	20	yes	44	1	460
6.6.1	win	2022-12-14	16:37:52	16:46:11	497905	63657781c04fe648496b9bab	944562167	1	main_z	11	advance_on_keypress_ZEE	6	stimuli_target_diamondsquares.svg	stimuli_distractor_trianglediamonds.svg	20	yes	57	0	841
6.6.1	win	2022-12-14	16:37:52	16:46:13	499889	63657781c04fe648496b9bab	944562167	1	main_z	11	main_z	7	stimuli_target_circlediamonds.svg	stimuli_distractor_diamondtriangles.svg	6	yes	44	1	529
6.6.1	win	2022-12-14	16:37:52	16:46:13	499889	63657781c04fe648496b9bab	944562167	1	main_z	11	advance_on_keypress_ZEE	8	stimuli_target_circlediamonds.svg	stimuli_distractor_diamondtriangles.svg	6	yes	57	0	443
6.6.1	win	2022-12-14	16:37:52	16:46:14	501393	63657781c04fe648496b9bab	944562167	1	main_z	11	main_z	9	stimuli_distractor_trianglediamonds.svg	stimuli_target_trianglecircles.svg	25	yes	44	1	444
6.6.1	win	2022-12-14	16:37:52	16:46:14	501393	63657781c04fe648496b9bab	944562167	1	main_z	11	advance_on_keypress_ZEE	10	stimuli_distractor_trianglediamonds.svg	stimuli_target_trianglecircles.svg	25	yes	57	0	619
6.6.1	win	2022-12-14	16:37:52	16:46:16	503065	63657781c04fe648496b9bab	944562167	1	main_z	11	main_z	11	stimuli_target_circletriangles.svg	stimuli_distractor_trianglediamonds.svg	1	yes	44	1	438
6.6.1	win	2022-12-14	16:37:52	16:46:16	503065	63657781c04fe648496b9bab	944562167	1	main_z	11	advance_on_keypress_ZEE	12	stimuli_target_circletriangles.svg	stimuli_distractor_trianglediamonds.svg	1	yes	57	0	435
6.6.1	win	2022-12-14	16:37:52	16:46:17	504521	63657781c04fe648496b9bab	944562167	1	main_z	11	main_z	13	stimuli_target_circletriangles.svg	stimuli_distractor_diamondtriangles.svg	5	yes	44	1	402
6.6.1	win	2022-12-14	16:37:52	16:46:17	504521	63657781c04fe648496b9bab	944562167	1	main_z	11	advance_on_keypress_ZEE	14	stimuli_target_circletriangles.svg	stimuli_distractor_diamondtriangles.svg	5	yes	57	0	412
6.6.1	win	2022-12-14	16:37:52	16:46:19	505976	63657781c04fe648496b9bab	944562167	1	main_z	11	main_z	15	stimuli_distractor_trianglediamonds.svg	stimuli_target_diamondsquares.svg	28	yes	44	1	428
6.6.1	win	2022-12-14	16:37:52	16:46:19	505976	63657781c04fe648496b9bab	944562167	1	main_z	11	advance_on_keypress_ZEE	16	stimuli_distractor_trianglediamonds.svg	stimuli_target_diamondsquares.svg	28	yes	57	0	405
6.6.1	win	2022-12-14	16:37:52	16:46:20	507465	63657781c04fe648496b9bab	944562167	1	main_z	11	main_z	17	stimuli_distractor_diamondtriangles.svg	stimuli_target_diamondsquares.svg	32	yes	44	1	467
6.6.1	win	2022-12-14	16:37:52	16:46:20	507465	63657781c04fe648496b9bab	944562167	1	main_z	11	advance_on_keypress_ZEE	18	stimuli_distractor_diamondtriangles.svg	stimuli_target_diamondsquares.svg	32	yes	57	0	435
6.6.1	win	2022-12-14	16:37:52	16:46:23	510519	63657781c04fe648496b9bab	944562167	1	main_z	11	main_z	19	stimuli_distractor_diamondtriangles.svg	stimuli_distractor_trianglediamonds.svg	37	no	0	1	2000
6.6.1	win	2022-12-14	16:37:52	16:46:23	510519	63657781c04fe648496b9bab	944562167	1	main_z	11	advance_on_keypress_ZEE	20	stimuli_distractor_diamondtriangles.svg	stimuli_distractor_trianglediamonds.svg	37	no	57	0	300
6.6.1	win	2022-12-14	16:37:52	16:46:25	511848	63657781c04fe648496b9bab	944562167	1	main_z	11	main_z	21	stimuli_distractor_diamondtriangles.svg	stimuli_target_trianglecircles.svg	29	yes	44	1	415
6.6.1	win	2022-12-14	16:37:52	16:46:25	511848	63657781c04fe648496b9bab	944562167	1	main_z	11	advance_on_keypress_ZEE	22	stimuli_distractor_diamondtriangles.svg	stimuli_target_trianglecircles.svg	29	yes	57	0	461
6.6.1	win	2022-12-14	16:37:52	16:46:26	513445	63657781c04fe648496b9bab	944562167	1	main_z	11	main_z	23	stimuli_distractor_trianglediamonds.svg	stimuli_target_circletriangles.svg	9	yes	44	1	516
6.6.1	win	2022-12-14	16:37:52	16:46:26	513445	63657781c04fe648496b9bab	944562167	1	main_z	11	advance_on_keypress_ZEE	24	stimuli_distractor_trianglediamonds.svg	stimuli_target_circletriangles.svg	9	yes	57	0	357
6.6.1	win	2022-12-14	16:37:52	16:46:28	514984	63657781c04fe648496b9bab	944562167	1	main_z	11	main_z	25	stimuli_target_squaretriangles.svg	stimuli_distractor_diamondtriangles.svg	7	yes	44	1	563
6.6.1	win	2022-12-14	16:37:52	16:46:28	514984	63657781c04fe648496b9bab	944562167	1	main_z	11	advance_on_keypress_ZEE	26	stimuli_target_squaretriangles.svg	stimuli_distractor_diamondtriangles.svg	7	yes	57	0	458
6.6.1	win	2022-12-14	16:37:52	16:46:29	516464	63657781c04fe648496b9bab	944562167	1	main_z	11	main_z	27	stimuli_distractor_trianglediamonds.svg	stimuli_target_circlediamonds.svg	10	yes	44	1	407
6.6.1	win	2022-12-14	16:37:52	16:46:29	516464	63657781c04fe648496b9bab	944562167	1	main_z	11	advance_on_keypress_ZEE	28	stimuli_distractor_trianglediamonds.svg	stimuli_target_circlediamonds.svg	10	yes	57	0	859
6.6.1	win	2022-12-14	16:37:52	16:46:33	519936	63657781c04fe648496b9bab	944562167	1	main_z	11	main_z	29	stimuli_distractor_diamondtriangles.svg	stimuli_distractor_diamondtriangles.svg	40	no	0	1	2000
6.6.1	win	2022-12-14	16:37:52	16:46:33	519936	63657781c04fe648496b9bab	944562167	1	main_z	11	advance_on_keypress_ZEE	30	stimuli_distractor_diamondtriangles.svg	stimuli_distractor_diamondtriangles.svg	40	no	57	0	426
6.6.1	win	2022-12-14	16:37:52	16:46:34	521408	63657781c04fe648496b9bab	944562167	1	main_z	11	main_z	31	stimuli_distractor_diamondtriangles.svg	stimuli_target_circletriangles.svg	13	yes	44	1	430
6.6.1	win	2022-12-14	16:37:52	16:46:34	521408	63657781c04fe648496b9bab	944562167	1	main_z	11	advance_on_keypress_ZEE	32	stimuli_distractor_diamondtriangles.svg	stimuli_target_circletriangles.svg	13	yes	57	0	505
6.6.1	win	2022-12-14	16:37:52	16:46:37	524530	63657781c04fe648496b9bab	944562167	1	main_z	11	main_z	33	stimuli_distractor_trianglediamonds.svg	stimuli_distractor_trianglediamonds.svg	33	no	0	1	2000
6.6.1	win	2022-12-14	16:37:52	16:46:37	524530	63657781c04fe648496b9bab	944562167	1	main_z	11	advance_on_keypress_ZEE	34	stimuli_distractor_trianglediamonds.svg	stimuli_distractor_trianglediamonds.svg	33	no	57	0	328
6.6.1	win	2022-12-14	16:37:52	16:46:39	525880	63657781c04fe648496b9bab	944562167	1	main_z	11	main_z	35	stimuli_distractor_diamondtriangles.svg	stimuli_target_circlediamonds.svg	14	yes	44	1	405
6.6.1	win	2022-12-14	16:37:52	16:46:39	525880	63657781c04fe648496b9bab	944562167	1	main_z	11	advance_on_keypress_ZEE	36	stimuli_distractor_diamondtriangles.svg	stimuli_target_circlediamonds.svg	14	yes	57	0	535
6.6.1	win	2022-12-14	16:37:52	16:46:40	527440	63657781c04fe648496b9bab	944562167	1	main_z	11	main_z	37	stimuli_target_circlediamonds.svg	stimuli_distractor_trianglediamonds.svg	2	yes	44	1	412
6.6.1	win	2022-12-14	16:37:52	16:46:40	527440	63657781c04fe648496b9bab	944562167	1	main_z	11	advance_on_keypress_ZEE	38	stimuli_target_circlediamonds.svg	stimuli_distractor_trianglediamonds.svg	2	yes	57	0	619
6.6.1	win	2022-12-14	16:37:52	16:46:42	529032	63657781c04fe648496b9bab	944562167	1	main_z	11	main_z	39	stimuli_distractor_diamondtriangles.svg	stimuli_target_squaretriangles.svg	15	yes	44	1	356
6.6.1	win	2022-12-14	16:37:52	16:46:42	529032	63657781c04fe648496b9bab	944562167	1	main_z	11	advance_on_keypress_ZEE	40	stimuli_distractor_diamondtriangles.svg	stimuli_target_squaretriangles.svg	15	yes	57	0	456
6.6.1	win	2022-12-14	16:37:52	16:46:45	532106	63657781c04fe648496b9bab	944562167	1	main_z	11	main_z	41	stimuli_distractor_trianglediamonds.svg	stimuli_distractor_trianglediamonds.svg	34	no	0	1	2000
6.6.1	win	2022-12-14	16:37:52	16:46:45	532106	63657781c04fe648496b9bab	944562167	1	main_z	11	advance_on_keypress_ZEE	42	stimuli_distractor_trianglediamonds.svg	stimuli_distractor_trianglediamonds.svg	34	no	57	0	432
6.6.1	win	2022-12-14	16:37:52	16:46:46	533711	63657781c04fe648496b9bab	944562167	1	main_z	11	main_z	43	stimuli_target_trianglesquares.svg	stimuli_distractor_trianglediamonds.svg	18	yes	44	1	557
6.6.1	win	2022-12-14	16:37:52	16:46:46	533711	63657781c04fe648496b9bab	944562167	1	main_z	11	advance_on_keypress_ZEE	44	stimuli_target_trianglesquares.svg	stimuli_distractor_trianglediamonds.svg	18	yes	57	0	433
6.6.1	win	2022-12-14	16:37:52	16:46:48	535231	63657781c04fe648496b9bab	944562167	1	main_z	11	main_z	45	stimuli_distractor_diamondtriangles.svg	stimuli_target_diamondcircles.svg	31	yes	44	1	471
6.6.1	win	2022-12-14	16:37:52	16:46:48	535231	63657781c04fe648496b9bab	944562167	1	main_z	11	advance_on_keypress_ZEE	46	stimuli_distractor_diamondtriangles.svg	stimuli_target_diamondcircles.svg	31	yes	57	0	384
6.6.1	win	2022-12-14	16:37:52	16:46:49	536711	63657781c04fe648496b9bab	944562167	1	main_z	11	main_z	47	stimuli_target_squarediamonds.svg	stimuli_distractor_trianglediamonds.svg	4	yes	44	1	478
6.6.1	win	2022-12-14	16:37:52	16:46:49	536711	63657781c04fe648496b9bab	944562167	1	main_z	11	advance_on_keypress_ZEE	48	stimuli_target_squarediamonds.svg	stimuli_distractor_trianglediamonds.svg	4	yes	57	0	394
6.6.1	win	2022-12-14	16:37:52	16:46:52	539724	63657781c04fe648496b9bab	944562167	1	main_z	11	main_z	49	stimuli_distractor_diamondtriangles.svg	stimuli_distractor_diamondtriangles.svg	39	no	0	1	2000
6.6.1	win	2022-12-14	16:37:52	16:46:52	539724	63657781c04fe648496b9bab	944562167	1	main_z	11	advance_on_keypress_ZEE	50	stimuli_distractor_diamondtriangles.svg	stimuli_distractor_diamondtriangles.svg	39	no	57	0	333
6.6.1	win	2022-12-14	16:37:52	16:46:54	540959	63657781c04fe648496b9bab	944562167	1	main_z	11	main_z	51	stimuli_distractor_trianglediamonds.svg	stimuli_target_squarediamonds.svg	12	yes	44	1	284
6.6.1	win	2022-12-14	16:37:52	16:46:54	540959	63657781c04fe648496b9bab	944562167	1	main_z	11	advance_on_keypress_ZEE	52	stimuli_distractor_trianglediamonds.svg	stimuli_target_squarediamonds.svg	12	yes	57	0	441
6.6.1	win	2022-12-14	16:37:52	16:46:55	542319	63657781c04fe648496b9bab	944562167	1	main_z	11	main_z	53	stimuli_target_diamondcircles.svg	stimuli_distractor_trianglediamonds.svg	19	yes	44	1	299
6.6.1	win	2022-12-14	16:37:52	16:46:55	542319	63657781c04fe648496b9bab	944562167	1	main_z	11	advance_on_keypress_ZEE	54	stimuli_target_diamondcircles.svg	stimuli_distractor_trianglediamonds.svg	19	yes	57	0	396
6.6.1	win	2022-12-14	16:37:52	16:46:56	543759	63657781c04fe648496b9bab	944562167	1	main_z	11	main_z	55	stimuli_distractor_trianglediamonds.svg	stimuli_target_trianglesquares.svg	26	yes	44	1	429
6.6.1	win	2022-12-14	16:37:52	16:46:56	543759	63657781c04fe648496b9bab	944562167	1	main_z	11	advance_on_keypress_ZEE	56	stimuli_distractor_trianglediamonds.svg	stimuli_target_trianglesquares.svg	26	yes	57	0	409
6.6.1	win	2022-12-14	16:37:52	16:46:58	545172	63657781c04fe648496b9bab	944562167	1	main_z	11	main_z	57	stimuli_distractor_trianglediamonds.svg	stimuli_distractor_diamondtriangles.svg	36	no	44	0	383
6.6.1	win	2022-12-14	16:37:52	16:46:58	545172	63657781c04fe648496b9bab	944562167	1	main_z	11	advance_on_keypress_ZEE	58	stimuli_distractor_trianglediamonds.svg	stimuli_distractor_diamondtriangles.svg	36	no	57	0	1133
6.6.1	win	2022-12-14	16:37:52	16:47:00	547351	63657781c04fe648496b9bab	944562167	1	main_z	11	main_z	59	stimuli_distractor_diamondtriangles.svg	stimuli_target_squarediamonds.svg	16	yes	44	1	428
6.6.1	win	2022-12-14	16:37:52	16:47:00	547351	63657781c04fe648496b9bab	944562167	1	main_z	11	advance_on_keypress_ZEE	60	stimuli_distractor_diamondtriangles.svg	stimuli_target_squarediamonds.svg	16	yes	57	0	477
6.6.1	win	2022-12-14	16:37:52	16:47:02	548895	63657781c04fe648496b9bab	944562167	1	main_z	11	main_z	61	stimuli_target_squaretriangles.svg	stimuli_distractor_trianglediamonds.svg	3	yes	44	1	456
6.6.1	win	2022-12-14	16:37:52	16:47:02	548895	63657781c04fe648496b9bab	944562167	1	main_z	11	advance_on_keypress_ZEE	62	stimuli_target_squaretriangles.svg	stimuli_distractor_trianglediamonds.svg	3	yes	57	0	404
6.6.1	win	2022-12-14	16:37:52	16:47:03	550343	63657781c04fe648496b9bab	944562167	1	main_z	11	main_z	63	stimuli_distractor_trianglediamonds.svg	stimuli_target_squaretriangles.svg	11	yes	44	1	432
6.6.1	win	2022-12-14	16:37:52	16:47:03	550343	63657781c04fe648496b9bab	944562167	1	main_z	11	advance_on_keypress_ZEE	64	stimuli_distractor_trianglediamonds.svg	stimuli_target_squaretriangles.svg	11	yes	57	0	338
6.6.1	win	2022-12-14	16:37:52	16:47:04	551735	63657781c04fe648496b9bab	944562167	1	main_z	11	main_z	65	stimuli_target_squarediamonds.svg	stimuli_distractor_diamondtriangles.svg	8	yes	44	1	435
6.6.1	win	2022-12-14	16:37:52	16:47:04	551735	63657781c04fe648496b9bab	944562167	1	main_z	11	advance_on_keypress_ZEE	66	stimuli_target_squarediamonds.svg	stimuli_distractor_diamondtriangles.svg	8	yes	57	0	305
6.6.1	win	2022-12-14	16:37:52	16:47:06	553079	63657781c04fe648496b9bab	944562167	1	main_z	11	main_z	67	stimuli_distractor_diamondtriangles.svg	stimuli_target_trianglesquares.svg	30	yes	44	1	421
6.6.1	win	2022-12-14	16:37:52	16:47:06	553079	63657781c04fe648496b9bab	944562167	1	main_z	11	advance_on_keypress_ZEE	68	stimuli_distractor_diamondtriangles.svg	stimuli_target_trianglesquares.svg	30	yes	57	0	349
6.6.1	win	2022-12-14	16:37:52	16:47:09	556039	63657781c04fe648496b9bab	944562167	1	main_z	11	main_z	69	stimuli_distractor_diamondtriangles.svg	stimuli_distractor_trianglediamonds.svg	38	no	0	1	2000
6.6.1	win	2022-12-14	16:37:52	16:47:09	556039	63657781c04fe648496b9bab	944562167	1	main_z	11	advance_on_keypress_ZEE	70	stimuli_distractor_diamondtriangles.svg	stimuli_distractor_trianglediamonds.svg	38	no	57	0	306
6.6.1	win	2022-12-14	16:37:52	16:47:10	557358	63657781c04fe648496b9bab	944562167	1	main_z	11	main_z	71	stimuli_target_trianglecircles.svg	stimuli_distractor_trianglediamonds.svg	17	yes	44	1	398
6.6.1	win	2022-12-14	16:37:52	16:47:10	557358	63657781c04fe648496b9bab	944562167	1	main_z	11	advance_on_keypress_ZEE	72	stimuli_target_trianglecircles.svg	stimuli_distractor_trianglediamonds.svg	17	yes	57	0	344
6.6.1	win	2022-12-14	16:37:52	16:47:13	560324	63657781c04fe648496b9bab	944562167	1	main_z	11	main_z	73	stimuli_distractor_trianglediamonds.svg	stimuli_distractor_diamondtriangles.svg	35	no	0	1	2000
6.6.1	win	2022-12-14	16:37:52	16:47:13	560324	63657781c04fe648496b9bab	944562167	1	main_z	11	advance_on_keypress_ZEE	74	stimuli_distractor_trianglediamonds.svg	stimuli_distractor_diamondtriangles.svg	35	no	57	0	309
6.6.1	win	2022-12-14	16:37:52	16:47:14	561623	63657781c04fe648496b9bab	944562167	1	main_z	11	main_z	75	stimuli_target_trianglecircles.svg	stimuli_distractor_diamondtriangles.svg	21	yes	44	1	372
6.6.1	win	2022-12-14	16:37:52	16:47:14	561623	63657781c04fe648496b9bab	944562167	1	main_z	11	advance_on_keypress_ZEE	76	stimuli_target_trianglecircles.svg	stimuli_distractor_diamondtriangles.svg	21	yes	57	0	388
6.6.1	win	2022-12-14	16:37:52	16:47:16	562958	63657781c04fe648496b9bab	944562167	1	main_z	11	main_z	77	stimuli_distractor_trianglediamonds.svg	stimuli_target_diamondcircles.svg	27	yes	44	1	332
6.6.1	win	2022-12-14	16:37:52	16:47:16	562958	63657781c04fe648496b9bab	944562167	1	main_z	11	advance_on_keypress_ZEE	78	stimuli_distractor_trianglediamonds.svg	stimuli_target_diamondcircles.svg	27	yes	57	0	480
6.6.1	win	2022-12-14	16:37:52	16:47:17	564414	63657781c04fe648496b9bab	944562167	1	main_z	11	main_z	79	stimuli_target_diamondsquares.svg	stimuli_distractor_diamondtriangles.svg	24	yes	44	1	358
6.6.1	win	2022-12-14	16:37:52	16:47:17	564414	63657781c04fe648496b9bab	944562167	1	main_z	11	advance_on_keypress_ZEE	80	stimuli_target_diamondsquares.svg	stimuli_distractor_diamondtriangles.svg	24	yes	57	0	402
6.6.1	win	2022-12-14	16:37:52	16:47:19	566342	63657781c04fe648496b9bab	944562167	1	main_z	11	main_z	81	stimuli_distractor_diamondtriangles.svg	stimuli_distractor_trianglediamonds.svg	38	no	44	0	910
6.6.1	win	2022-12-14	16:37:52	16:47:19	566342	63657781c04fe648496b9bab	944562167	1	main_z	11	advance_on_keypress_ZEE	82	stimuli_distractor_diamondtriangles.svg	stimuli_distractor_trianglediamonds.svg	38	no	57	0	1475
6.6.1	win	2022-12-14	16:37:52	16:47:22	568862	63657781c04fe648496b9bab	944562167	1	main_z	11	main_z	83	stimuli_target_diamondcircles.svg	stimuli_distractor_diamondtriangles.svg	23	yes	44	1	430
6.6.1	win	2022-12-14	16:37:52	16:47:22	568862	63657781c04fe648496b9bab	944562167	1	main_z	11	advance_on_keypress_ZEE	84	stimuli_target_diamondcircles.svg	stimuli_distractor_diamondtriangles.svg	23	yes	57	0	425
6.6.1	win	2022-12-14	16:37:52	16:47:23	570478	63657781c04fe648496b9bab	944562167	1	main_z	11	main_z	85	stimuli_target_diamondsquares.svg	stimuli_distractor_trianglediamonds.svg	20	yes	44	1	573
6.6.1	win	2022-12-14	16:37:52	16:47:23	570478	63657781c04fe648496b9bab	944562167	1	main_z	11	advance_on_keypress_ZEE	86	stimuli_target_diamondsquares.svg	stimuli_distractor_trianglediamonds.svg	20	yes	57	0	421
6.6.1	win	2022-12-14	16:37:52	16:47:25	572350	63657781c04fe648496b9bab	944562167	1	main_z	11	main_z	87	stimuli_distractor_diamondtriangles.svg	stimuli_target_circletriangles.svg	13	yes	44	1	839
6.6.1	win	2022-12-14	16:37:52	16:47:25	572350	63657781c04fe648496b9bab	944562167	1	main_z	11	advance_on_keypress_ZEE	88	stimuli_distractor_diamondtriangles.svg	stimuli_target_circletriangles.svg	13	yes	57	0	445
6.6.1	win	2022-12-14	16:37:52	16:47:27	573822	63657781c04fe648496b9bab	944562167	1	main_z	11	main_z	89	stimuli_distractor_diamondtriangles.svg	stimuli_target_trianglecircles.svg	29	yes	44	1	414
6.6.1	win	2022-12-14	16:37:52	16:47:27	573822	63657781c04fe648496b9bab	944562167	1	main_z	11	advance_on_keypress_ZEE	90	stimuli_distractor_diamondtriangles.svg	stimuli_target_trianglecircles.svg	29	yes	57	0	1443
6.6.1	win	2022-12-14	16:37:52	16:47:29	576262	63657781c04fe648496b9bab	944562167	1	main_z	11	main_z	91	stimuli_distractor_diamondtriangles.svg	stimuli_target_trianglesquares.svg	30	yes	44	1	380
6.6.1	win	2022-12-14	16:37:52	16:47:29	576262	63657781c04fe648496b9bab	944562167	1	main_z	11	advance_on_keypress_ZEE	92	stimuli_distractor_diamondtriangles.svg	stimuli_target_trianglesquares.svg	30	yes	57	0	329
6.6.1	win	2022-12-14	16:37:52	16:47:30	577590	63657781c04fe648496b9bab	944562167	1	main_z	11	main_z	93	stimuli_distractor_trianglediamonds.svg	stimuli_target_circletriangles.svg	9	yes	44	1	381
6.6.1	win	2022-12-14	16:37:52	16:47:30	577590	63657781c04fe648496b9bab	944562167	1	main_z	11	advance_on_keypress_ZEE	94	stimuli_distractor_trianglediamonds.svg	stimuli_target_circletriangles.svg	9	yes	57	0	449
6.6.1	win	2022-12-14	16:37:52	16:47:32	578958	63657781c04fe648496b9bab	944562167	1	main_z	11	main_z	95	stimuli_distractor_diamondtriangles.svg	stimuli_target_squarediamonds.svg	16	yes	44	1	301
6.6.1	win	2022-12-14	16:37:52	16:47:32	578958	63657781c04fe648496b9bab	944562167	1	main_z	11	advance_on_keypress_ZEE	96	stimuli_distractor_diamondtriangles.svg	stimuli_target_squarediamonds.svg	16	yes	57	0	334
6.6.1	win	2022-12-14	16:37:52	16:47:33	580286	63657781c04fe648496b9bab	944562167	1	main_z	11	main_z	97	stimuli_distractor_trianglediamonds.svg	stimuli_target_trianglecircles.svg	25	yes	44	1	380
6.6.1	win	2022-12-14	16:37:52	16:47:33	580286	63657781c04fe648496b9bab	944562167	1	main_z	11	advance_on_keypress_ZEE	98	stimuli_distractor_trianglediamonds.svg	stimuli_target_trianglecircles.svg	25	yes	57	0	264
6.6.1	win	2022-12-14	16:37:52	16:47:34	581553	63657781c04fe648496b9bab	944562167	1	main_z	11	main_z	99	stimuli_target_circlediamonds.svg	stimuli_distractor_diamondtriangles.svg	6	yes	44	1	384
6.6.1	win	2022-12-14	16:37:52	16:47:34	581553	63657781c04fe648496b9bab	944562167	1	main_z	11	advance_on_keypress_ZEE	100	stimuli_target_circlediamonds.svg	stimuli_distractor_diamondtriangles.svg	6	yes	57	0	454
6.6.1	win	2022-12-14	16:37:52	16:47:36	583022	63657781c04fe648496b9bab	944562167	1	main_z	11	main_z	101	stimuli_distractor_diamondtriangles.svg	stimuli_target_squaretriangles.svg	15	yes	44	1	395
6.6.1	win	2022-12-14	16:37:52	16:47:36	583022	63657781c04fe648496b9bab	944562167	1	main_z	11	advance_on_keypress_ZEE	102	stimuli_distractor_diamondtriangles.svg	stimuli_target_squaretriangles.svg	15	yes	57	0	323
6.6.1	win	2022-12-14	16:37:52	16:47:37	584357	63657781c04fe648496b9bab	944562167	1	main_z	11	main_z	103	stimuli_distractor_diamondtriangles.svg	stimuli_target_circlediamonds.svg	14	yes	44	1	398
6.6.1	win	2022-12-14	16:37:52	16:47:37	584357	63657781c04fe648496b9bab	944562167	1	main_z	11	advance_on_keypress_ZEE	104	stimuli_distractor_diamondtriangles.svg	stimuli_target_circlediamonds.svg	14	yes	57	0	270
6.6.1	win	2022-12-14	16:37:52	16:47:39	585813	63657781c04fe648496b9bab	944562167	1	main_z	11	main_z	105	stimuli_distractor_trianglediamonds.svg	stimuli_target_squarediamonds.svg	12	yes	44	1	575
6.6.1	win	2022-12-14	16:37:52	16:47:39	585813	63657781c04fe648496b9bab	944562167	1	main_z	11	advance_on_keypress_ZEE	106	stimuli_distractor_trianglediamonds.svg	stimuli_target_squarediamonds.svg	12	yes	57	0	321
6.6.1	win	2022-12-14	16:37:52	16:47:41	588754	63657781c04fe648496b9bab	944562167	1	main_z	11	main_z	107	stimuli_distractor_diamondtriangles.svg	stimuli_distractor_diamondtriangles.svg	39	no	0	1	2000
6.6.1	win	2022-12-14	16:37:52	16:47:41	588754	63657781c04fe648496b9bab	944562167	1	main_z	11	advance_on_keypress_ZEE	108	stimuli_distractor_diamondtriangles.svg	stimuli_distractor_diamondtriangles.svg	39	no	57	0	270
6.6.1	win	2022-12-14	16:37:52	16:47:43	590053	63657781c04fe648496b9bab	944562167	1	main_z	11	main_z	109	stimuli_target_trianglesquares.svg	stimuli_distractor_diamondtriangles.svg	22	yes	44	1	415
6.6.1	win	2022-12-14	16:37:52	16:47:43	590053	63657781c04fe648496b9bab	944562167	1	main_z	11	advance_on_keypress_ZEE	110	stimuli_target_trianglesquares.svg	stimuli_distractor_diamondtriangles.svg	22	yes	57	0	877
6.6.1	win	2022-12-14	16:37:52	16:47:46	593541	63657781c04fe648496b9bab	944562167	1	main_z	11	main_z	111	stimuli_distractor_diamondtriangles.svg	stimuli_distractor_trianglediamonds.svg	37	no	0	1	2000
6.6.1	win	2022-12-14	16:37:52	16:47:46	593541	63657781c04fe648496b9bab	944562167	1	main_z	11	advance_on_keypress_ZEE	112	stimuli_distractor_diamondtriangles.svg	stimuli_distractor_trianglediamonds.svg	37	no	57	0	354
6.6.1	win	2022-12-14	16:37:52	16:47:48	594989	63657781c04fe648496b9bab	944562167	1	main_z	11	main_z	113	stimuli_distractor_diamondtriangles.svg	stimuli_target_diamondsquares.svg	32	yes	44	1	478
6.6.1	win	2022-12-14	16:37:52	16:47:48	594989	63657781c04fe648496b9bab	944562167	1	main_z	11	advance_on_keypress_ZEE	114	stimuli_distractor_diamondtriangles.svg	stimuli_target_diamondsquares.svg	32	yes	57	0	322
6.6.1	win	2022-12-14	16:37:52	16:47:49	596333	63657781c04fe648496b9bab	944562167	1	main_z	11	main_z	115	stimuli_target_trianglecircles.svg	stimuli_distractor_trianglediamonds.svg	17	yes	44	1	404
6.6.1	win	2022-12-14	16:37:52	16:47:49	596333	63657781c04fe648496b9bab	944562167	1	main_z	11	advance_on_keypress_ZEE	116	stimuli_target_trianglecircles.svg	stimuli_distractor_trianglediamonds.svg	17	yes	57	0	318
6.6.1	win	2022-12-14	16:37:52	16:47:50	597765	63657781c04fe648496b9bab	944562167	1	main_z	11	main_z	117	stimuli_target_squaretriangles.svg	stimuli_distractor_diamondtriangles.svg	7	yes	44	1	503
6.6.1	win	2022-12-14	16:37:52	16:47:50	597765	63657781c04fe648496b9bab	944562167	1	main_z	11	advance_on_keypress_ZEE	118	stimuli_target_squaretriangles.svg	stimuli_distractor_diamondtriangles.svg	7	yes	57	0	274
6.6.1	win	2022-12-14	16:37:52	16:47:52	599189	63657781c04fe648496b9bab	944562167	1	main_z	11	main_z	119	stimuli_target_squaretriangles.svg	stimuli_distractor_trianglediamonds.svg	3	yes	44	1	533
6.6.1	win	2022-12-14	16:37:52	16:47:52	599189	63657781c04fe648496b9bab	944562167	1	main_z	11	advance_on_keypress_ZEE	120	stimuli_target_squaretriangles.svg	stimuli_distractor_trianglediamonds.svg	3	yes	57	0	322
6.6.1	win	2022-12-14	16:37:52	16:47:53	600517	63657781c04fe648496b9bab	944562167	1	main_z	11	main_z	121	stimuli_target_circletriangles.svg	stimuli_distractor_diamondtriangles.svg	5	yes	44	1	388
6.6.1	win	2022-12-14	16:37:52	16:47:53	600517	63657781c04fe648496b9bab	944562167	1	main_z	11	advance_on_keypress_ZEE	122	stimuli_target_circletriangles.svg	stimuli_distractor_diamondtriangles.svg	5	yes	57	0	330
6.6.1	win	2022-12-14	16:37:52	16:47:55	602645	63657781c04fe648496b9bab	944562167	1	main_z	11	main_z	123	stimuli_distractor_diamondtriangles.svg	stimuli_target_diamondcircles.svg	31	yes	44	1	1183
6.6.1	win	2022-12-14	16:37:52	16:47:55	602645	63657781c04fe648496b9bab	944562167	1	main_z	11	advance_on_keypress_ZEE	124	stimuli_distractor_diamondtriangles.svg	stimuli_target_diamondcircles.svg	31	yes	57	0	562
6.6.1	win	2022-12-14	16:37:52	16:47:57	604285	63657781c04fe648496b9bab	944562167	1	main_z	11	main_z	125	stimuli_distractor_trianglediamonds.svg	stimuli_target_trianglesquares.svg	26	yes	44	1	458
6.6.1	win	2022-12-14	16:37:52	16:47:57	604285	63657781c04fe648496b9bab	944562167	1	main_z	11	advance_on_keypress_ZEE	126	stimuli_distractor_trianglediamonds.svg	stimuli_target_trianglesquares.svg	26	yes	57	0	374
6.6.1	win	2022-12-14	16:37:52	16:47:59	605797	63657781c04fe648496b9bab	944562167	1	main_z	11	main_z	127	stimuli_target_squarediamonds.svg	stimuli_distractor_trianglediamonds.svg	4	yes	44	1	522
6.6.1	win	2022-12-14	16:37:52	16:47:59	605797	63657781c04fe648496b9bab	944562167	1	main_z	11	advance_on_keypress_ZEE	128	stimuli_target_squarediamonds.svg	stimuli_distractor_trianglediamonds.svg	4	yes	57	0	267
6.6.1	win	2022-12-14	16:37:52	16:48:01	608681	63657781c04fe648496b9bab	944562167	1	main_z	11	main_z	129	stimuli_distractor_trianglediamonds.svg	stimuli_distractor_trianglediamonds.svg	33	no	0	1	2000
6.6.1	win	2022-12-14	16:37:52	16:48:01	608681	63657781c04fe648496b9bab	944562167	1	main_z	11	advance_on_keypress_ZEE	130	stimuli_distractor_trianglediamonds.svg	stimuli_distractor_trianglediamonds.svg	33	no	57	0	318
6.6.1	win	2022-12-14	16:37:52	16:48:03	610052	63657781c04fe648496b9bab	944562167	1	main_z	11	main_z	131	stimuli_distractor_trianglediamonds.svg	stimuli_target_circlediamonds.svg	10	yes	44	1	439
6.6.1	win	2022-12-14	16:37:52	16:48:03	610052	63657781c04fe648496b9bab	944562167	1	main_z	11	advance_on_keypress_ZEE	132	stimuli_distractor_trianglediamonds.svg	stimuli_target_circlediamonds.svg	10	yes	57	0	388
6.6.1	win	2022-12-14	16:37:52	16:48:04	611436	63657781c04fe648496b9bab	944562167	1	main_z	11	main_z	133	stimuli_target_squarediamonds.svg	stimuli_distractor_diamondtriangles.svg	8	yes	44	1	380
6.6.1	win	2022-12-14	16:37:52	16:48:04	611436	63657781c04fe648496b9bab	944562167	1	main_z	11	advance_on_keypress_ZEE	134	stimuli_target_squarediamonds.svg	stimuli_distractor_diamondtriangles.svg	8	yes	57	0	320
6.6.1	win	2022-12-14	16:37:52	16:48:05	612749	63657781c04fe648496b9bab	944562167	1	main_z	11	main_z	135	stimuli_distractor_trianglediamonds.svg	stimuli_target_squaretriangles.svg	11	yes	44	1	371
6.6.1	win	2022-12-14	16:37:52	16:48:05	612749	63657781c04fe648496b9bab	944562167	1	main_z	11	advance_on_keypress_ZEE	136	stimuli_distractor_trianglediamonds.svg	stimuli_target_squaretriangles.svg	11	yes	57	0	307
6.6.1	win	2022-12-14	16:37:52	16:48:07	614060	63657781c04fe648496b9bab	944562167	1	main_z	11	main_z	137	stimuli_target_diamondsquares.svg	stimuli_distractor_diamondtriangles.svg	24	yes	44	1	392
6.6.1	win	2022-12-14	16:37:52	16:48:07	614060	63657781c04fe648496b9bab	944562167	1	main_z	11	advance_on_keypress_ZEE	138	stimuli_target_diamondsquares.svg	stimuli_distractor_diamondtriangles.svg	24	yes	57	0	326
6.6.1	win	2022-12-14	16:37:52	16:48:10	617002	63657781c04fe648496b9bab	944562167	1	main_z	11	main_z	139	stimuli_distractor_trianglediamonds.svg	stimuli_distractor_trianglediamonds.svg	34	no	0	1	2000
6.6.1	win	2022-12-14	16:37:52	16:48:10	617002	63657781c04fe648496b9bab	944562167	1	main_z	11	advance_on_keypress_ZEE	140	stimuli_distractor_trianglediamonds.svg	stimuli_distractor_trianglediamonds.svg	34	no	57	0	373
6.6.1	win	2022-12-14	16:37:52	16:48:11	618340	63657781c04fe648496b9bab	944562167	1	main_z	11	main_z	141	stimuli_distractor_trianglediamonds.svg	stimuli_target_diamondcircles.svg	27	yes	44	1	351
6.6.1	win	2022-12-14	16:37:52	16:48:11	618340	63657781c04fe648496b9bab	944562167	1	main_z	11	advance_on_keypress_ZEE	142	stimuli_distractor_trianglediamonds.svg	stimuli_target_diamondcircles.svg	27	yes	57	0	385
6.6.1	win	2022-12-14	16:37:52	16:48:13	619852	63657781c04fe648496b9bab	944562167	1	main_z	11	main_z	143	stimuli_distractor_diamondtriangles.svg	stimuli_distractor_diamondtriangles.svg	40	no	44	0	511
6.6.1	win	2022-12-14	16:37:52	16:48:13	619852	63657781c04fe648496b9bab	944562167	1	main_z	11	advance_on_keypress_ZEE	144	stimuli_distractor_diamondtriangles.svg	stimuli_distractor_diamondtriangles.svg	40	no	57	0	1068
6.6.1	win	2022-12-14	16:37:52	16:48:15	621956	63657781c04fe648496b9bab	944562167	1	main_z	11	main_z	145	stimuli_target_diamondcircles.svg	stimuli_distractor_trianglediamonds.svg	19	yes	44	1	422
6.6.1	win	2022-12-14	16:37:52	16:48:15	621956	63657781c04fe648496b9bab	944562167	1	main_z	11	advance_on_keypress_ZEE	146	stimuli_target_diamondcircles.svg	stimuli_distractor_trianglediamonds.svg	19	yes	57	0	349
6.6.1	win	2022-12-14	16:37:52	16:48:16	623588	63657781c04fe648496b9bab	944562167	1	main_z	11	main_z	147	stimuli_target_trianglesquares.svg	stimuli_distractor_trianglediamonds.svg	18	yes	44	1	672
6.6.1	win	2022-12-14	16:37:52	16:48:16	623588	63657781c04fe648496b9bab	944562167	1	main_z	11	advance_on_keypress_ZEE	148	stimuli_target_trianglesquares.svg	stimuli_distractor_trianglediamonds.svg	18	yes	57	0	337
6.6.1	win	2022-12-14	16:37:52	16:48:18	624996	63657781c04fe648496b9bab	944562167	1	main_z	11	main_z	149	stimuli_target_circlediamonds.svg	stimuli_distractor_trianglediamonds.svg	2	yes	44	1	456
6.6.1	win	2022-12-14	16:37:52	16:48:18	624996	63657781c04fe648496b9bab	944562167	1	main_z	11	advance_on_keypress_ZEE	150	stimuli_target_circlediamonds.svg	stimuli_distractor_trianglediamonds.svg	2	yes	57	0	298
6.6.1	win	2022-12-14	16:37:52	16:48:19	626492	63657781c04fe648496b9bab	944562167	1	main_z	11	main_z	151	stimuli_target_circletriangles.svg	stimuli_distractor_trianglediamonds.svg	1	yes	44	1	581
6.6.1	win	2022-12-14	16:37:52	16:48:19	626492	63657781c04fe648496b9bab	944562167	1	main_z	11	advance_on_keypress_ZEE	152	stimuli_target_circletriangles.svg	stimuli_distractor_trianglediamonds.svg	1	yes	57	0	465
6.6.1	win	2022-12-14	16:37:52	16:48:22	629577	63657781c04fe648496b9bab	944562167	1	main_z	11	main_z	153	stimuli_distractor_trianglediamonds.svg	stimuli_distractor_diamondtriangles.svg	35	no	0	1	2000
6.6.1	win	2022-12-14	16:37:52	16:48:22	629577	63657781c04fe648496b9bab	944562167	1	main_z	11	advance_on_keypress_ZEE	154	stimuli_distractor_trianglediamonds.svg	stimuli_distractor_diamondtriangles.svg	35	no	57	0	460
6.6.1	win	2022-12-14	16:37:52	16:48:24	631083	63657781c04fe648496b9bab	944562167	1	main_z	11	main_z	155	stimuli_target_trianglecircles.svg	stimuli_distractor_diamondtriangles.svg	21	yes	44	1	427
6.6.1	win	2022-12-14	16:37:52	16:48:24	631083	63657781c04fe648496b9bab	944562167	1	main_z	11	advance_on_keypress_ZEE	156	stimuli_target_trianglecircles.svg	stimuli_distractor_diamondtriangles.svg	21	yes	57	0	333
6.6.1	win	2022-12-14	16:37:52	16:48:25	632476	63657781c04fe648496b9bab	944562167	1	main_z	11	main_z	157	stimuli_distractor_trianglediamonds.svg	stimuli_target_diamondsquares.svg	28	yes	44	1	444
6.6.1	win	2022-12-14	16:37:52	16:48:25	632476	63657781c04fe648496b9bab	944562167	1	main_z	11	advance_on_keypress_ZEE	158	stimuli_distractor_trianglediamonds.svg	stimuli_target_diamondsquares.svg	28	yes	57	0	323
6.6.1	win	2022-12-14	16:37:52	16:48:28	635413	63657781c04fe648496b9bab	944562167	1	main_z	11	main_z	159	stimuli_distractor_trianglediamonds.svg	stimuli_distractor_diamondtriangles.svg	36	no	0	1	2000
6.6.1	win	2022-12-14	16:37:52	16:48:28	635413	63657781c04fe648496b9bab	944562167	1	main_z	11	advance_on_keypress_ZEE	160	stimuli_distractor_trianglediamonds.svg	stimuli_distractor_diamondtriangles.svg	36	no	57	0	376