build	computer.platform	date	time	timestamp	time_elapsed_ms	subject	group	session	blockcode	blocknum	trialcode	trialnum	stimulus_left	stimulus_right	stim_index	target_present	response	correct	latency
6.6.1	and	2022-12-15	11:41:08	11:44:22	180498	5c28e9dfda51990001e3204b	519047	1	practice_slash	5	practice_slash	1	stimuli_distractor_trianglediamonds.svg	stimuli_target_diamondcircles.svg	12	yes	53	1	1776
6.6.1	and	2022-12-15	11:41:08	11:44:22	180498	5c28e9dfda51990001e3204b	519047	1	practice_slash	5	advance_on_keypress_SLASH	2	stimuli_distractor_trianglediamonds.svg	stimuli_target_diamondcircles.svg	12	yes	57	0	1362
6.6.1	and	2022-12-15	11:41:08	11:44:26	184469	5c28e9dfda51990001e3204b	519047	1	practice_slash	5	practice_slash	3	stimuli_target_squarediamonds.svg	stimuli_distractor_trianglediamonds.svg	5	yes	53	1	947
6.6.1	and	2022-12-15	11:41:08	11:44:26	184469	5c28e9dfda51990001e3204b	519047	1	practice_slash	5	advance_on_keypress_SLASH	4	stimuli_target_squarediamonds.svg	stimuli_distractor_trianglediamonds.svg	5	yes	57	0	614
6.6.1	and	2022-12-15	11:41:08	11:44:29	188129	5c28e9dfda51990001e3204b	519047	1	practice_slash	5	practice_slash	5	stimuli_distractor_diamondtriangles.svg	stimuli_target_diamondcircles.svg	8	yes	53	1	1405
6.6.1	and	2022-12-15	11:41:08	11:44:29	188129	5c28e9dfda51990001e3204b	519047	1	practice_slash	5	advance_on_keypress_SLASH	6	stimuli_distractor_diamondtriangles.svg	stimuli_target_diamondcircles.svg	8	yes	57	0	614
6.6.1	and	2022-12-15	11:41:08	11:44:33	192393	5c28e9dfda51990001e3204b	519047	1	practice_slash	5	practice_slash	7	stimuli_distractor_diamondtriangles.svg	stimuli_distractor_diamondtriangles.svg	13	no	0	1	2000
6.6.1	and	2022-12-15	11:41:08	11:44:33	192393	5c28e9dfda51990001e3204b	519047	1	practice_slash	5	advance_on_keypress_SLASH	8	stimuli_distractor_diamondtriangles.svg	stimuli_distractor_diamondtriangles.svg	13	no	57	0	583
6.6.1	and	2022-12-15	11:41:08	11:44:37	195572	5c28e9dfda51990001e3204b	519047	1	practice_slash	5	practice_slash	9	stimuli_target_squarediamonds.svg	stimuli_distractor_diamondtriangles.svg	2	yes	53	1	963
6.6.1	and	2022-12-15	11:41:08	11:44:37	195572	5c28e9dfda51990001e3204b	519047	1	practice_slash	5	advance_on_keypress_SLASH	10	stimuli_target_squarediamonds.svg	stimuli_distractor_diamondtriangles.svg	2	yes	57	0	700
6.6.1	and	2022-12-15	11:41:08	11:44:40	199368	5c28e9dfda51990001e3204b	519047	1	practice_slash	5	practice_slash	11	stimuli_distractor_trianglediamonds.svg	stimuli_target_circlediamonds.svg	10	yes	53	1	1441
6.6.1	and	2022-12-15	11:41:08	11:44:40	199368	5c28e9dfda51990001e3204b	519047	1	practice_slash	5	advance_on_keypress_SLASH	12	stimuli_distractor_trianglediamonds.svg	stimuli_target_circlediamonds.svg	10	yes	57	0	572
6.6.1	and	2022-12-15	11:41:08	11:44:44	203205	5c28e9dfda51990001e3204b	519047	1	practice_slash	5	practice_slash	13	stimuli_distractor_trianglediamonds.svg	stimuli_target_squarediamonds.svg	11	yes	53	1	1615
6.6.1	and	2022-12-15	11:41:08	11:44:44	203205	5c28e9dfda51990001e3204b	519047	1	practice_slash	5	advance_on_keypress_SLASH	14	stimuli_distractor_trianglediamonds.svg	stimuli_target_squarediamonds.svg	11	yes	57	0	688
6.6.1	and	2022-12-15	11:41:08	11:44:47	206411	5c28e9dfda51990001e3204b	519047	1	practice_slash	5	practice_slash	15	stimuli_target_circlediamonds.svg	stimuli_distractor_trianglediamonds.svg	4	yes	53	1	868
6.6.1	and	2022-12-15	11:41:08	11:44:47	206411	5c28e9dfda51990001e3204b	519047	1	practice_slash	5	advance_on_keypress_SLASH	16	stimuli_target_circlediamonds.svg	stimuli_distractor_trianglediamonds.svg	4	yes	57	0	633
6.6.1	and	2022-12-15	11:41:08	11:44:52	210546	5c28e9dfda51990001e3204b	519047	1	practice_slash	5	practice_slash	17	stimuli_distractor_diamondtriangles.svg	stimuli_target_trianglecircles.svg	9	yes	53	1	1853
6.6.1	and	2022-12-15	11:41:08	11:44:52	210546	5c28e9dfda51990001e3204b	519047	1	practice_slash	5	advance_on_keypress_SLASH	18	stimuli_distractor_diamondtriangles.svg	stimuli_target_trianglecircles.svg	9	yes	57	0	662
6.6.1	and	2022-12-15	11:41:08	11:44:56	214860	5c28e9dfda51990001e3204b	519047	1	practice_slash	5	practice_slash	19	stimuli_target_diamondsquares.svg	stimuli_distractor_trianglediamonds.svg	6	yes	0	0	2000
6.6.1	and	2022-12-15	11:41:08	11:44:56	214860	5c28e9dfda51990001e3204b	519047	1	practice_slash	5	advance_on_keypress_SLASH	20	stimuli_target_diamondsquares.svg	stimuli_distractor_trianglediamonds.svg	6	yes	57	0	815
6.6.1	and	2022-12-15	11:41:08	11:45:00	219309	5c28e9dfda51990001e3204b	519047	1	practice_slash	5	practice_slash	21	stimuli_distractor_diamondtriangles.svg	stimuli_distractor_trianglediamonds.svg	14	no	0	1	2000
6.6.1	and	2022-12-15	11:41:08	11:45:00	219309	5c28e9dfda51990001e3204b	519047	1	practice_slash	5	advance_on_keypress_SLASH	22	stimuli_distractor_diamondtriangles.svg	stimuli_distractor_trianglediamonds.svg	14	no	57	0	489
6.6.1	and	2022-12-15	11:41:08	11:45:04	222711	5c28e9dfda51990001e3204b	519047	1	practice_slash	5	practice_slash	23	stimuli_distractor_trianglediamonds.svg	stimuli_distractor_diamondtriangles.svg	16	no	53	0	1262
6.6.1	and	2022-12-15	11:41:08	11:45:04	222711	5c28e9dfda51990001e3204b	519047	1	practice_slash	5	advance_on_keypress_SLASH	24	stimuli_distractor_trianglediamonds.svg	stimuli_distractor_diamondtriangles.svg	16	no	57	0	445
6.6.1	and	2022-12-15	11:41:08	11:45:08	226799	5c28e9dfda51990001e3204b	519047	1	practice_slash	5	practice_slash	25	stimuli_distractor_trianglediamonds.svg	stimuli_distractor_trianglediamonds.svg	15	no	0	1	2000
6.6.1	and	2022-12-15	11:41:08	11:45:08	226799	5c28e9dfda51990001e3204b	519047	1	practice_slash	5	advance_on_keypress_SLASH	26	stimuli_distractor_trianglediamonds.svg	stimuli_distractor_trianglediamonds.svg	15	no	57	0	401
6.6.1	and	2022-12-15	11:41:08	11:45:11	229647	5c28e9dfda51990001e3204b	519047	1	practice_slash	5	practice_slash	27	stimuli_target_circlediamonds.svg	stimuli_distractor_diamondtriangles.svg	1	yes	53	1	816
6.6.1	and	2022-12-15	11:41:08	11:45:11	229647	5c28e9dfda51990001e3204b	519047	1	practice_slash	5	advance_on_keypress_SLASH	28	stimuli_target_circlediamonds.svg	stimuli_distractor_diamondtriangles.svg	1	yes	57	0	644
6.6.1	and	2022-12-15	11:41:08	11:45:14	232792	5c28e9dfda51990001e3204b	519047	1	practice_slash	5	practice_slash	29	stimuli_distractor_diamondtriangles.svg	stimuli_target_circletriangles.svg	7	yes	53	1	861
6.6.1	and	2022-12-15	11:41:08	11:45:14	232792	5c28e9dfda51990001e3204b	519047	1	practice_slash	5	advance_on_keypress_SLASH	30	stimuli_distractor_diamondtriangles.svg	stimuli_target_circletriangles.svg	7	yes	57	0	470
6.6.1	and	2022-12-15	11:41:08	11:45:17	236185	5c28e9dfda51990001e3204b	519047	1	practice_slash	5	practice_slash	31	stimuli_target_diamondsquares.svg	stimuli_distractor_diamondtriangles.svg	3	yes	53	1	1289
6.6.1	and	2022-12-15	11:41:08	11:45:17	236185	5c28e9dfda51990001e3204b	519047	1	practice_slash	5	advance_on_keypress_SLASH	32	stimuli_target_diamondsquares.svg	stimuli_distractor_diamondtriangles.svg	3	yes	57	0	780
6.6.1	and	2022-12-15	11:41:08	11:45:23	241601	5c28e9dfda51990001e3204b	519047	1	main_slash	7	main_slash	1	stimuli_target_squaretriangles.svg	stimuli_distractor_diamondtriangles.svg	7	yes	53	1	1221
6.6.1	and	2022-12-15	11:41:08	11:45:23	241601	5c28e9dfda51990001e3204b	519047	1	main_slash	7	advance_on_keypress_SLASH	2	stimuli_target_squaretriangles.svg	stimuli_distractor_diamondtriangles.svg	7	yes	57	0	831
6.6.1	and	2022-12-15	11:41:08	11:45:25	243830	5c28e9dfda51990001e3204b	519047	1	main_slash	7	main_slash	3	stimuli_distractor_trianglediamonds.svg	stimuli_target_circletriangles.svg	9	yes	53	1	766
6.6.1	and	2022-12-15	11:41:08	11:45:25	243830	5c28e9dfda51990001e3204b	519047	1	main_slash	7	advance_on_keypress_SLASH	4	stimuli_distractor_trianglediamonds.svg	stimuli_target_circletriangles.svg	9	yes	57	0	793
6.6.1	and	2022-12-15	11:41:08	11:45:27	246216	5c28e9dfda51990001e3204b	519047	1	main_slash	7	main_slash	5	stimuli_distractor_trianglediamonds.svg	stimuli_target_squarediamonds.svg	12	yes	53	1	969
6.6.1	and	2022-12-15	11:41:08	11:45:27	246216	5c28e9dfda51990001e3204b	519047	1	main_slash	7	advance_on_keypress_SLASH	6	stimuli_distractor_trianglediamonds.svg	stimuli_target_squarediamonds.svg	12	yes	57	0	603
6.6.1	and	2022-12-15	11:41:08	11:45:29	248302	5c28e9dfda51990001e3204b	519047	1	main_slash	7	main_slash	7	stimuli_target_circletriangles.svg	stimuli_distractor_trianglediamonds.svg	1	yes	53	1	855
6.6.1	and	2022-12-15	11:41:08	11:45:29	248302	5c28e9dfda51990001e3204b	519047	1	main_slash	7	advance_on_keypress_SLASH	8	stimuli_target_circletriangles.svg	stimuli_distractor_trianglediamonds.svg	1	yes	57	0	522
6.6.1	and	2022-12-15	11:41:08	11:45:31	250339	5c28e9dfda51990001e3204b	519047	1	main_slash	7	main_slash	9	stimuli_target_trianglecircles.svg	stimuli_distractor_trianglediamonds.svg	17	yes	53	1	891
6.6.1	and	2022-12-15	11:41:08	11:45:31	250339	5c28e9dfda51990001e3204b	519047	1	main_slash	7	advance_on_keypress_SLASH	10	stimuli_target_trianglecircles.svg	stimuli_distractor_trianglediamonds.svg	17	yes	57	0	674
6.6.1	and	2022-12-15	11:41:08	11:45:35	253651	5c28e9dfda51990001e3204b	519047	1	main_slash	7	main_slash	11	stimuli_target_circlediamonds.svg	stimuli_distractor_diamondtriangles.svg	6	yes	0	0	2000
6.6.1	and	2022-12-15	11:41:08	11:45:35	253651	5c28e9dfda51990001e3204b	519047	1	main_slash	7	advance_on_keypress_SLASH	12	stimuli_target_circlediamonds.svg	stimuli_distractor_diamondtriangles.svg	6	yes	57	0	565
6.6.1	and	2022-12-15	11:41:08	11:45:37	255847	5c28e9dfda51990001e3204b	519047	1	main_slash	7	main_slash	13	stimuli_distractor_diamondtriangles.svg	stimuli_target_trianglesquares.svg	30	yes	53	1	993
6.6.1	and	2022-12-15	11:41:08	11:45:37	255847	5c28e9dfda51990001e3204b	519047	1	main_slash	7	advance_on_keypress_SLASH	14	stimuli_distractor_diamondtriangles.svg	stimuli_target_trianglesquares.svg	30	yes	57	0	851
6.6.1	and	2022-12-15	11:41:08	11:45:39	258396	5c28e9dfda51990001e3204b	519047	1	main_slash	7	main_slash	15	stimuli_target_trianglecircles.svg	stimuli_distractor_diamondtriangles.svg	21	yes	53	1	1063
6.6.1	and	2022-12-15	11:41:08	11:45:39	258396	5c28e9dfda51990001e3204b	519047	1	main_slash	7	advance_on_keypress_SLASH	16	stimuli_target_trianglecircles.svg	stimuli_distractor_diamondtriangles.svg	21	yes	57	0	833
6.6.1	and	2022-12-15	11:41:08	11:45:43	261867	5c28e9dfda51990001e3204b	519047	1	main_slash	7	main_slash	17	stimuli_target_diamondsquares.svg	stimuli_distractor_diamondtriangles.svg	24	yes	0	0	2000
6.6.1	and	2022-12-15	11:41:08	11:45:43	261867	5c28e9dfda51990001e3204b	519047	1	main_slash	7	advance_on_keypress_SLASH	18	stimuli_target_diamondsquares.svg	stimuli_distractor_diamondtriangles.svg	24	yes	57	0	441
6.6.1	and	2022-12-15	11:41:08	11:45:46	264455	5c28e9dfda51990001e3204b	519047	1	main_slash	7	main_slash	19	stimuli_target_diamondcircles.svg	stimuli_distractor_trianglediamonds.svg	19	yes	53	1	1505
6.6.1	and	2022-12-15	11:41:08	11:45:46	264455	5c28e9dfda51990001e3204b	519047	1	main_slash	7	advance_on_keypress_SLASH	20	stimuli_target_diamondcircles.svg	stimuli_distractor_trianglediamonds.svg	19	yes	57	0	649
6.6.1	and	2022-12-15	11:41:08	11:45:48	266743	5c28e9dfda51990001e3204b	519047	1	main_slash	7	main_slash	21	stimuli_distractor_diamondtriangles.svg	stimuli_target_squaretriangles.svg	15	yes	53	1	1008
6.6.1	and	2022-12-15	11:41:08	11:45:48	266743	5c28e9dfda51990001e3204b	519047	1	main_slash	7	advance_on_keypress_SLASH	22	stimuli_distractor_diamondtriangles.svg	stimuli_target_squaretriangles.svg	15	yes	57	0	643
6.6.1	and	2022-12-15	11:41:08	11:45:50	269413	5c28e9dfda51990001e3204b	519047	1	main_slash	7	main_slash	23	stimuli_distractor_diamondtriangles.svg	stimuli_target_trianglecircles.svg	29	yes	53	1	1377
6.6.1	and	2022-12-15	11:41:08	11:45:50	269413	5c28e9dfda51990001e3204b	519047	1	main_slash	7	advance_on_keypress_SLASH	24	stimuli_distractor_diamondtriangles.svg	stimuli_target_trianglecircles.svg	29	yes	57	0	560
6.6.1	and	2022-12-15	11:41:08	11:45:53	271673	5c28e9dfda51990001e3204b	519047	1	main_slash	7	main_slash	25	stimuli_distractor_trianglediamonds.svg	stimuli_target_trianglecircles.svg	25	yes	53	1	1047
6.6.1	and	2022-12-15	11:41:08	11:45:53	271673	5c28e9dfda51990001e3204b	519047	1	main_slash	7	advance_on_keypress_SLASH	26	stimuli_distractor_trianglediamonds.svg	stimuli_target_trianglecircles.svg	25	yes	57	0	666
6.6.1	and	2022-12-15	11:41:08	11:45:56	274970	5c28e9dfda51990001e3204b	519047	1	main_slash	7	main_slash	27	stimuli_distractor_diamondtriangles.svg	stimuli_distractor_diamondtriangles.svg	39	no	0	1	2000
6.6.1	and	2022-12-15	11:41:08	11:45:56	274970	5c28e9dfda51990001e3204b	519047	1	main_slash	7	advance_on_keypress_SLASH	28	stimuli_distractor_diamondtriangles.svg	stimuli_distractor_diamondtriangles.svg	39	no	57	0	739
6.6.1	and	2022-12-15	11:41:08	11:45:59	278339	5c28e9dfda51990001e3204b	519047	1	main_slash	7	main_slash	29	stimuli_distractor_diamondtriangles.svg	stimuli_distractor_diamondtriangles.svg	40	no	0	1	2000
6.6.1	and	2022-12-15	11:41:08	11:45:59	278339	5c28e9dfda51990001e3204b	519047	1	main_slash	7	advance_on_keypress_SLASH	30	stimuli_distractor_diamondtriangles.svg	stimuli_distractor_diamondtriangles.svg	40	no	57	0	407
6.6.1	and	2022-12-15	11:41:08	11:46:01	280282	5c28e9dfda51990001e3204b	519047	1	main_slash	7	main_slash	31	stimuli_target_squarediamonds.svg	stimuli_distractor_diamondtriangles.svg	8	yes	53	1	894
6.6.1	and	2022-12-15	11:41:08	11:46:01	280282	5c28e9dfda51990001e3204b	519047	1	main_slash	7	advance_on_keypress_SLASH	32	stimuli_target_squarediamonds.svg	stimuli_distractor_diamondtriangles.svg	8	yes	57	0	1152
6.6.1	and	2022-12-15	11:41:08	11:46:04	282809	5c28e9dfda51990001e3204b	519047	1	main_slash	7	main_slash	33	stimuli_distractor_trianglediamonds.svg	stimuli_target_squaretriangles.svg	11	yes	53	1	738
6.6.1	and	2022-12-15	11:41:08	11:46:04	282809	5c28e9dfda51990001e3204b	519047	1	main_slash	7	advance_on_keypress_SLASH	34	stimuli_distractor_trianglediamonds.svg	stimuli_target_squaretriangles.svg	11	yes	57	0	733
6.6.1	and	2022-12-15	11:41:08	11:46:06	285154	5c28e9dfda51990001e3204b	519047	1	main_slash	7	main_slash	35	stimuli_distractor_trianglediamonds.svg	stimuli_target_diamondcircles.svg	27	yes	53	1	983
6.6.1	and	2022-12-15	11:41:08	11:46:06	285154	5c28e9dfda51990001e3204b	519047	1	main_slash	7	advance_on_keypress_SLASH	36	stimuli_distractor_trianglediamonds.svg	stimuli_target_diamondcircles.svg	27	yes	57	0	514
6.6.1	and	2022-12-15	11:41:08	11:46:09	288304	5c28e9dfda51990001e3204b	519047	1	main_slash	7	main_slash	37	stimuli_distractor_diamondtriangles.svg	stimuli_target_squarediamonds.svg	16	yes	0	0	2000
6.6.1	and	2022-12-15	11:41:08	11:46:09	288304	5c28e9dfda51990001e3204b	519047	1	main_slash	7	advance_on_keypress_SLASH	38	stimuli_distractor_diamondtriangles.svg	stimuli_target_squarediamonds.svg	16	yes	57	0	849
6.6.1	and	2022-12-15	11:41:08	11:46:12	290627	5c28e9dfda51990001e3204b	519047	1	main_slash	7	main_slash	39	stimuli_target_squarediamonds.svg	stimuli_distractor_trianglediamonds.svg	4	yes	53	1	839
6.6.1	and	2022-12-15	11:41:08	11:46:12	290627	5c28e9dfda51990001e3204b	519047	1	main_slash	7	advance_on_keypress_SLASH	40	stimuli_target_squarediamonds.svg	stimuli_distractor_trianglediamonds.svg	4	yes	57	0	611
6.6.1	and	2022-12-15	11:41:08	11:46:15	293878	5c28e9dfda51990001e3204b	519047	1	main_slash	7	main_slash	41	stimuli_distractor_trianglediamonds.svg	stimuli_distractor_trianglediamonds.svg	34	no	0	1	2000
6.6.1	and	2022-12-15	11:41:08	11:46:15	293878	5c28e9dfda51990001e3204b	519047	1	main_slash	7	advance_on_keypress_SLASH	42	stimuli_distractor_trianglediamonds.svg	stimuli_distractor_trianglediamonds.svg	34	no	57	0	455
6.6.1	and	2022-12-15	11:41:08	11:46:18	296960	5c28e9dfda51990001e3204b	519047	1	main_slash	7	main_slash	43	stimuli_distractor_trianglediamonds.svg	stimuli_target_diamondsquares.svg	28	yes	0	0	2000
6.6.1	and	2022-12-15	11:41:08	11:46:18	296960	5c28e9dfda51990001e3204b	519047	1	main_slash	7	advance_on_keypress_SLASH	44	stimuli_distractor_trianglediamonds.svg	stimuli_target_diamondsquares.svg	28	yes	57	0	847
6.6.1	and	2022-12-15	11:41:08	11:46:20	299323	5c28e9dfda51990001e3204b	519047	1	main_slash	7	main_slash	45	stimuli_target_diamondcircles.svg	stimuli_distractor_diamondtriangles.svg	23	yes	53	1	879
6.6.1	and	2022-12-15	11:41:08	11:46:20	299323	5c28e9dfda51990001e3204b	519047	1	main_slash	7	advance_on_keypress_SLASH	46	stimuli_target_diamondcircles.svg	stimuli_distractor_diamondtriangles.svg	23	yes	57	0	724
6.6.1	and	2022-12-15	11:41:08	11:46:23	301681	5c28e9dfda51990001e3204b	519047	1	main_slash	7	main_slash	47	stimuli_target_diamondsquares.svg	stimuli_distractor_trianglediamonds.svg	20	yes	53	1	990
6.6.1	and	2022-12-15	11:41:08	11:46:23	301681	5c28e9dfda51990001e3204b	519047	1	main_slash	7	advance_on_keypress_SLASH	48	stimuli_target_diamondsquares.svg	stimuli_distractor_trianglediamonds.svg	20	yes	57	0	582
6.6.1	and	2022-12-15	11:41:08	11:46:26	304894	5c28e9dfda51990001e3204b	519047	1	main_slash	7	main_slash	49	stimuli_distractor_trianglediamonds.svg	stimuli_distractor_trianglediamonds.svg	33	no	0	1	2000
6.6.1	and	2022-12-15	11:41:08	11:46:26	304894	5c28e9dfda51990001e3204b	519047	1	main_slash	7	advance_on_keypress_SLASH	50	stimuli_distractor_trianglediamonds.svg	stimuli_distractor_trianglediamonds.svg	33	no	57	0	581
6.6.1	and	2022-12-15	11:41:08	11:46:28	307095	5c28e9dfda51990001e3204b	519047	1	main_slash	7	main_slash	51	stimuli_target_trianglesquares.svg	stimuli_distractor_diamondtriangles.svg	22	yes	53	1	987
6.6.1	and	2022-12-15	11:41:08	11:46:28	307095	5c28e9dfda51990001e3204b	519047	1	main_slash	7	advance_on_keypress_SLASH	52	stimuli_target_trianglesquares.svg	stimuli_distractor_diamondtriangles.svg	22	yes	57	0	671
6.6.1	and	2022-12-15	11:41:08	11:46:31	309955	5c28e9dfda51990001e3204b	519047	1	main_slash	7	main_slash	53	stimuli_distractor_diamondtriangles.svg	stimuli_distractor_trianglediamonds.svg	38	no	53	0	1562
6.6.1	and	2022-12-15	11:41:08	11:46:31	309955	5c28e9dfda51990001e3204b	519047	1	main_slash	7	advance_on_keypress_SLASH	54	stimuli_distractor_diamondtriangles.svg	stimuli_distractor_trianglediamonds.svg	38	no	57	0	520
6.6.1	and	2022-12-15	11:41:08	11:46:34	313111	5c28e9dfda51990001e3204b	519047	1	main_slash	7	main_slash	55	stimuli_distractor_trianglediamonds.svg	stimuli_distractor_diamondtriangles.svg	36	no	0	1	2000
6.6.1	and	2022-12-15	11:41:08	11:46:34	313111	5c28e9dfda51990001e3204b	519047	1	main_slash	7	advance_on_keypress_SLASH	56	stimuli_distractor_trianglediamonds.svg	stimuli_distractor_diamondtriangles.svg	36	no	57	0	439
6.6.1	and	2022-12-15	11:41:08	11:46:37	316176	5c28e9dfda51990001e3204b	519047	1	main_slash	7	main_slash	57	stimuli_target_squaretriangles.svg	stimuli_distractor_trianglediamonds.svg	3	yes	0	0	2000
6.6.1	and	2022-12-15	11:41:08	11:46:37	316176	5c28e9dfda51990001e3204b	519047	1	main_slash	7	advance_on_keypress_SLASH	58	stimuli_target_squaretriangles.svg	stimuli_distractor_trianglediamonds.svg	3	yes	57	0	679
6.6.1	and	2022-12-15	11:41:08	11:46:40	318801	5c28e9dfda51990001e3204b	519047	1	main_slash	7	main_slash	59	stimuli_distractor_diamondtriangles.svg	stimuli_target_circlediamonds.svg	14	yes	53	1	1308
6.6.1	and	2022-12-15	11:41:08	11:46:40	318801	5c28e9dfda51990001e3204b	519047	1	main_slash	7	advance_on_keypress_SLASH	60	stimuli_distractor_diamondtriangles.svg	stimuli_target_circlediamonds.svg	14	yes	57	0	622
6.6.1	and	2022-12-15	11:41:08	11:46:42	321209	5c28e9dfda51990001e3204b	519047	1	main_slash	7	main_slash	61	stimuli_distractor_diamondtriangles.svg	stimuli_target_diamondsquares.svg	32	yes	53	1	1164
6.6.1	and	2022-12-15	11:41:08	11:46:42	321209	5c28e9dfda51990001e3204b	519047	1	main_slash	7	advance_on_keypress_SLASH	62	stimuli_distractor_diamondtriangles.svg	stimuli_target_diamondsquares.svg	32	yes	57	0	578
6.6.1	and	2022-12-15	11:41:08	11:46:45	324430	5c28e9dfda51990001e3204b	519047	1	main_slash	7	main_slash	63	stimuli_target_circletriangles.svg	stimuli_distractor_diamondtriangles.svg	5	yes	0	0	2000
6.6.1	and	2022-12-15	11:41:08	11:46:45	324430	5c28e9dfda51990001e3204b	519047	1	main_slash	7	advance_on_keypress_SLASH	64	stimuli_target_circletriangles.svg	stimuli_distractor_diamondtriangles.svg	5	yes	57	0	621
6.6.1	and	2022-12-15	11:41:08	11:46:48	327133	5c28e9dfda51990001e3204b	519047	1	main_slash	7	main_slash	65	stimuli_distractor_diamondtriangles.svg	stimuli_distractor_trianglediamonds.svg	37	no	53	0	1454
6.6.1	and	2022-12-15	11:41:08	11:46:48	327133	5c28e9dfda51990001e3204b	519047	1	main_slash	7	advance_on_keypress_SLASH	66	stimuli_distractor_diamondtriangles.svg	stimuli_distractor_trianglediamonds.svg	37	no	57	0	480
6.6.1	and	2022-12-15	11:41:08	11:46:50	329199	5c28e9dfda51990001e3204b	519047	1	main_slash	7	main_slash	67	stimuli_target_trianglesquares.svg	stimuli_distractor_trianglediamonds.svg	18	yes	53	1	950
6.6.1	and	2022-12-15	11:41:08	11:46:50	329199	5c28e9dfda51990001e3204b	519047	1	main_slash	7	advance_on_keypress_SLASH	68	stimuli_target_trianglesquares.svg	stimuli_distractor_trianglediamonds.svg	18	yes	57	0	719
6.6.1	and	2022-12-15	11:41:08	11:46:53	332037	5c28e9dfda51990001e3204b	519047	1	main_slash	7	main_slash	69	stimuli_distractor_trianglediamonds.svg	stimuli_distractor_diamondtriangles.svg	35	no	53	0	1491
6.6.1	and	2022-12-15	11:41:08	11:46:53	332037	5c28e9dfda51990001e3204b	519047	1	main_slash	7	advance_on_keypress_SLASH	70	stimuli_distractor_trianglediamonds.svg	stimuli_distractor_diamondtriangles.svg	35	no	57	0	621
6.6.1	and	2022-12-15	11:41:08	11:46:55	334365	5c28e9dfda51990001e3204b	519047	1	main_slash	7	main_slash	71	stimuli_target_circlediamonds.svg	stimuli_distractor_trianglediamonds.svg	2	yes	53	1	1068
6.6.1	and	2022-12-15	11:41:08	11:46:55	334365	5c28e9dfda51990001e3204b	519047	1	main_slash	7	advance_on_keypress_SLASH	72	stimuli_target_circlediamonds.svg	stimuli_distractor_trianglediamonds.svg	2	yes	57	0	638
6.6.1	and	2022-12-15	11:41:08	11:46:57	336368	5c28e9dfda51990001e3204b	519047	1	main_slash	7	main_slash	73	stimuli_distractor_trianglediamonds.svg	stimuli_target_circlediamonds.svg	10	yes	53	1	738
6.6.1	and	2022-12-15	11:41:08	11:46:57	336368	5c28e9dfda51990001e3204b	519047	1	main_slash	7	advance_on_keypress_SLASH	74	stimuli_distractor_trianglediamonds.svg	stimuli_target_circlediamonds.svg	10	yes	57	0	648
6.6.1	and	2022-12-15	11:41:08	11:47:00	338653	5c28e9dfda51990001e3204b	519047	1	main_slash	7	main_slash	75	stimuli_distractor_trianglediamonds.svg	stimuli_target_trianglesquares.svg	26	yes	53	1	1005
6.6.1	and	2022-12-15	11:41:08	11:47:00	338653	5c28e9dfda51990001e3204b	519047	1	main_slash	7	advance_on_keypress_SLASH	76	stimuli_distractor_trianglediamonds.svg	stimuli_target_trianglesquares.svg	26	yes	57	0	518
6.6.1	and	2022-12-15	11:41:08	11:47:02	340598	5c28e9dfda51990001e3204b	519047	1	main_slash	7	main_slash	77	stimuli_distractor_diamondtriangles.svg	stimuli_target_diamondcircles.svg	31	yes	53	1	799
6.6.1	and	2022-12-15	11:41:08	11:47:02	340598	5c28e9dfda51990001e3204b	519047	1	main_slash	7	advance_on_keypress_SLASH	78	stimuli_distractor_diamondtriangles.svg	stimuli_target_diamondcircles.svg	31	yes	57	0	530
6.6.1	and	2022-12-15	11:41:08	11:47:05	343769	5c28e9dfda51990001e3204b	519047	1	main_slash	7	main_slash	79	stimuli_distractor_diamondtriangles.svg	stimuli_target_circletriangles.svg	13	yes	0	0	2000
6.6.1	and	2022-12-15	11:41:08	11:47:05	343769	5c28e9dfda51990001e3204b	519047	1	main_slash	7	advance_on_keypress_SLASH	80	stimuli_distractor_diamondtriangles.svg	stimuli_target_circletriangles.svg	13	yes	57	0	505
6.6.1	and	2022-12-15	11:41:08	11:47:08	346900	5c28e9dfda51990001e3204b	519047	1	main_slash	7	main_slash	81	stimuli_distractor_diamondtriangles.svg	stimuli_distractor_diamondtriangles.svg	39	no	0	1	2000
6.6.1	and	2022-12-15	11:41:08	11:47:08	346900	5c28e9dfda51990001e3204b	519047	1	main_slash	7	advance_on_keypress_SLASH	82	stimuli_distractor_diamondtriangles.svg	stimuli_distractor_diamondtriangles.svg	39	no	57	0	362
6.6.1	and	2022-12-15	11:41:08	11:47:10	348755	5c28e9dfda51990001e3204b	519047	1	main_slash	7	main_slash	83	stimuli_target_diamondsquares.svg	stimuli_distractor_diamondtriangles.svg	24	yes	53	1	853
6.6.1	and	2022-12-15	11:41:08	11:47:10	348755	5c28e9dfda51990001e3204b	519047	1	main_slash	7	advance_on_keypress_SLASH	84	stimuli_target_diamondsquares.svg	stimuli_distractor_diamondtriangles.svg	24	yes	57	0	474
6.6.1	and	2022-12-15	11:41:08	11:47:11	350436	5c28e9dfda51990001e3204b	519047	1	main_slash	7	main_slash	85	stimuli_target_diamondcircles.svg	stimuli_distractor_trianglediamonds.svg	19	yes	53	1	586
6.6.1	and	2022-12-15	11:41:08	11:47:11	350436	5c28e9dfda51990001e3204b	519047	1	main_slash	7	advance_on_keypress_SLASH	86	stimuli_target_diamondcircles.svg	stimuli_distractor_trianglediamonds.svg	19	yes	57	0	496
6.6.1	and	2022-12-15	11:41:08	11:47:15	353570	5c28e9dfda51990001e3204b	519047	1	main_slash	7	main_slash	87	stimuli_distractor_trianglediamonds.svg	stimuli_distractor_diamondtriangles.svg	36	no	0	1	2000
6.6.1	and	2022-12-15	11:41:08	11:47:15	353570	5c28e9dfda51990001e3204b	519047	1	main_slash	7	advance_on_keypress_SLASH	88	stimuli_distractor_trianglediamonds.svg	stimuli_distractor_diamondtriangles.svg	36	no	57	0	299
6.6.1	and	2022-12-15	11:41:08	11:47:17	355591	5c28e9dfda51990001e3204b	519047	1	main_slash	7	main_slash	89	stimuli_distractor_diamondtriangles.svg	stimuli_target_circlediamonds.svg	14	yes	53	1	1086
6.6.1	and	2022-12-15	11:41:08	11:47:17	355591	5c28e9dfda51990001e3204b	519047	1	main_slash	7	advance_on_keypress_SLASH	90	stimuli_distractor_diamondtriangles.svg	stimuli_target_circlediamonds.svg	14	yes	57	0	515
6.6.1	and	2022-12-15	11:41:08	11:47:19	357908	5c28e9dfda51990001e3204b	519047	1	main_slash	7	main_slash	91	stimuli_distractor_trianglediamonds.svg	stimuli_target_trianglesquares.svg	26	yes	53	1	1172
6.6.1	and	2022-12-15	11:41:08	11:47:19	357908	5c28e9dfda51990001e3204b	519047	1	main_slash	7	advance_on_keypress_SLASH	92	stimuli_distractor_trianglediamonds.svg	stimuli_target_trianglesquares.svg	26	yes	57	0	569
6.6.1	and	2022-12-15	11:41:08	11:47:21	360200	5c28e9dfda51990001e3204b	519047	1	main_slash	7	main_slash	93	stimuli_distractor_trianglediamonds.svg	stimuli_target_trianglecircles.svg	25	yes	53	1	1095
6.6.1	and	2022-12-15	11:41:08	11:47:21	360200	5c28e9dfda51990001e3204b	519047	1	main_slash	7	advance_on_keypress_SLASH	94	stimuli_distractor_trianglediamonds.svg	stimuli_target_trianglecircles.svg	25	yes	57	0	744
6.6.1	and	2022-12-15	11:41:08	11:47:24	362458	5c28e9dfda51990001e3204b	519047	1	main_slash	7	main_slash	95	stimuli_target_trianglesquares.svg	stimuli_distractor_trianglediamonds.svg	18	yes	53	1	871
6.6.1	and	2022-12-15	11:41:08	11:47:24	362458	5c28e9dfda51990001e3204b	519047	1	main_slash	7	advance_on_keypress_SLASH	96	stimuli_target_trianglesquares.svg	stimuli_distractor_trianglediamonds.svg	18	yes	57	0	497
6.6.1	and	2022-12-15	11:41:08	11:47:26	364545	5c28e9dfda51990001e3204b	519047	1	main_slash	7	main_slash	97	stimuli_distractor_trianglediamonds.svg	stimuli_target_circlediamonds.svg	10	yes	53	1	957
6.6.1	and	2022-12-15	11:41:08	11:47:26	364545	5c28e9dfda51990001e3204b	519047	1	main_slash	7	advance_on_keypress_SLASH	98	stimuli_distractor_trianglediamonds.svg	stimuli_target_circlediamonds.svg	10	yes	57	0	651
6.6.1	and	2022-12-15	11:41:08	11:47:28	366751	5c28e9dfda51990001e3204b	519047	1	main_slash	7	main_slash	99	stimuli_distractor_trianglediamonds.svg	stimuli_target_squaretriangles.svg	11	yes	53	1	915
6.6.1	and	2022-12-15	11:41:08	11:47:28	366751	5c28e9dfda51990001e3204b	519047	1	main_slash	7	advance_on_keypress_SLASH	100	stimuli_distractor_trianglediamonds.svg	stimuli_target_squaretriangles.svg	11	yes	57	0	441
6.6.1	and	2022-12-15	11:41:08	11:47:31	369838	5c28e9dfda51990001e3204b	519047	1	main_slash	7	main_slash	101	stimuli_target_trianglecircles.svg	stimuli_distractor_diamondtriangles.svg	21	yes	0	0	2000
6.6.1	and	2022-12-15	11:41:08	11:47:31	369838	5c28e9dfda51990001e3204b	519047	1	main_slash	7	advance_on_keypress_SLASH	102	stimuli_target_trianglecircles.svg	stimuli_distractor_diamondtriangles.svg	21	yes	57	0	490
6.6.1	and	2022-12-15	11:41:08	11:47:33	371841	5c28e9dfda51990001e3204b	519047	1	main_slash	7	main_slash	103	stimuli_distractor_diamondtriangles.svg	stimuli_distractor_trianglediamonds.svg	38	no	53	0	887
6.6.1	and	2022-12-15	11:41:08	11:47:33	371841	5c28e9dfda51990001e3204b	519047	1	main_slash	7	advance_on_keypress_SLASH	104	stimuli_distractor_diamondtriangles.svg	stimuli_distractor_trianglediamonds.svg	38	no	57	0	605
6.6.1	and	2022-12-15	11:41:08	11:47:35	373906	5c28e9dfda51990001e3204b	519047	1	main_slash	7	main_slash	105	stimuli_target_circletriangles.svg	stimuli_distractor_diamondtriangles.svg	5	yes	53	1	834
6.6.1	and	2022-12-15	11:41:08	11:47:35	373906	5c28e9dfda51990001e3204b	519047	1	main_slash	7	advance_on_keypress_SLASH	106	stimuli_target_circletriangles.svg	stimuli_distractor_diamondtriangles.svg	5	yes	57	0	531
6.6.1	and	2022-12-15	11:41:08	11:47:38	377073	5c28e9dfda51990001e3204b	519047	1	main_slash	7	main_slash	107	stimuli_distractor_diamondtriangles.svg	stimuli_distractor_diamondtriangles.svg	40	no	0	1	2000
6.6.1	and	2022-12-15	11:41:08	11:47:38	377073	5c28e9dfda51990001e3204b	519047	1	main_slash	7	advance_on_keypress_SLASH	108	stimuli_distractor_diamondtriangles.svg	stimuli_distractor_diamondtriangles.svg	40	no	57	0	424
6.6.1	and	2022-12-15	11:41:08	11:47:41	379655	5c28e9dfda51990001e3204b	519047	1	main_slash	7	main_slash	109	stimuli_distractor_diamondtriangles.svg	stimuli_distractor_trianglediamonds.svg	37	no	53	0	1514
6.6.1	and	2022-12-15	11:41:08	11:47:41	379655	5c28e9dfda51990001e3204b	519047	1	main_slash	7	advance_on_keypress_SLASH	110	stimuli_distractor_diamondtriangles.svg	stimuli_distractor_trianglediamonds.svg	37	no	57	0	1071
6.6.1	and	2022-12-15	11:41:08	11:47:43	382247	5c28e9dfda51990001e3204b	519047	1	main_slash	7	main_slash	111	stimuli_distractor_diamondtriangles.svg	stimuli_target_circletriangles.svg	13	yes	53	1	888
6.6.1	and	2022-12-15	11:41:08	11:47:43	382247	5c28e9dfda51990001e3204b	519047	1	main_slash	7	advance_on_keypress_SLASH	112	stimuli_distractor_diamondtriangles.svg	stimuli_target_circletriangles.svg	13	yes	57	0	579
6.6.1	and	2022-12-15	11:41:08	11:47:46	384622	5c28e9dfda51990001e3204b	519047	1	main_slash	7	main_slash	113	stimuli_target_diamondsquares.svg	stimuli_distractor_trianglediamonds.svg	20	yes	53	1	1166
6.6.1	and	2022-12-15	11:41:08	11:47:46	384622	5c28e9dfda51990001e3204b	519047	1	main_slash	7	advance_on_keypress_SLASH	114	stimuli_target_diamondsquares.svg	stimuli_distractor_trianglediamonds.svg	20	yes	57	0	1106
6.6.1	and	2022-12-15	11:41:08	11:47:49	387846	5c28e9dfda51990001e3204b	519047	1	main_slash	7	main_slash	115	stimuli_distractor_trianglediamonds.svg	stimuli_target_squarediamonds.svg	12	yes	53	1	1488
6.6.1	and	2022-12-15	11:41:08	11:47:49	387846	5c28e9dfda51990001e3204b	519047	1	main_slash	7	advance_on_keypress_SLASH	116	stimuli_distractor_trianglediamonds.svg	stimuli_target_squarediamonds.svg	12	yes	57	0	431
6.6.1	and	2022-12-15	11:41:08	11:47:52	390910	5c28e9dfda51990001e3204b	519047	1	main_slash	7	main_slash	117	stimuli_distractor_trianglediamonds.svg	stimuli_distractor_trianglediamonds.svg	33	no	0	1	2000
6.6.1	and	2022-12-15	11:41:08	11:47:52	390910	5c28e9dfda51990001e3204b	519047	1	main_slash	7	advance_on_keypress_SLASH	118	stimuli_distractor_trianglediamonds.svg	stimuli_distractor_trianglediamonds.svg	33	no	57	0	698
6.6.1	and	2022-12-15	11:41:08	11:47:54	393315	5c28e9dfda51990001e3204b	519047	1	main_slash	7	main_slash	119	stimuli_distractor_diamondtriangles.svg	stimuli_target_trianglecircles.svg	29	yes	53	1	1072
6.6.1	and	2022-12-15	11:41:08	11:47:54	393315	5c28e9dfda51990001e3204b	519047	1	main_slash	7	advance_on_keypress_SLASH	120	stimuli_distractor_diamondtriangles.svg	stimuli_target_trianglecircles.svg	29	yes	57	0	534
6.6.1	and	2022-12-15	11:41:08	11:47:57	395515	5c28e9dfda51990001e3204b	519047	1	main_slash	7	main_slash	121	stimuli_distractor_trianglediamonds.svg	stimuli_target_diamondcircles.svg	27	yes	53	1	1038
6.6.1	and	2022-12-15	11:41:08	11:47:57	395515	5c28e9dfda51990001e3204b	519047	1	main_slash	7	advance_on_keypress_SLASH	122	stimuli_distractor_trianglediamonds.svg	stimuli_target_diamondcircles.svg	27	yes	57	0	539
6.6.1	and	2022-12-15	11:41:08	11:48:00	398695	5c28e9dfda51990001e3204b	519047	1	main_slash	7	main_slash	123	stimuli_distractor_trianglediamonds.svg	stimuli_distractor_trianglediamonds.svg	34	no	0	1	2000
6.6.1	and	2022-12-15	11:41:08	11:48:00	398695	5c28e9dfda51990001e3204b	519047	1	main_slash	7	advance_on_keypress_SLASH	124	stimuli_distractor_trianglediamonds.svg	stimuli_distractor_trianglediamonds.svg	34	no	57	0	469
6.6.1	and	2022-12-15	11:41:08	11:48:02	400891	5c28e9dfda51990001e3204b	519047	1	main_slash	7	main_slash	125	stimuli_distractor_diamondtriangles.svg	stimuli_target_diamondsquares.svg	32	yes	53	1	1093
6.6.1	and	2022-12-15	11:41:08	11:48:02	400891	5c28e9dfda51990001e3204b	519047	1	main_slash	7	advance_on_keypress_SLASH	126	stimuli_distractor_diamondtriangles.svg	stimuli_target_diamondsquares.svg	32	yes	57	0	422
6.6.1	and	2022-12-15	11:41:08	11:48:05	403604	5c28e9dfda51990001e3204b	519047	1	main_slash	7	main_slash	127	stimuli_distractor_diamondtriangles.svg	stimuli_target_squarediamonds.svg	16	yes	53	1	1661
6.6.1	and	2022-12-15	11:41:08	11:48:05	403604	5c28e9dfda51990001e3204b	519047	1	main_slash	7	advance_on_keypress_SLASH	128	stimuli_distractor_diamondtriangles.svg	stimuli_target_squarediamonds.svg	16	yes	57	0	455
6.6.1	and	2022-12-15	11:41:08	11:48:06	405400	5c28e9dfda51990001e3204b	519047	1	main_slash	7	main_slash	129	stimuli_distractor_diamondtriangles.svg	stimuli_target_squaretriangles.svg	15	yes	53	1	706
6.6.1	and	2022-12-15	11:41:08	11:48:06	405400	5c28e9dfda51990001e3204b	519047	1	main_slash	7	advance_on_keypress_SLASH	130	stimuli_distractor_diamondtriangles.svg	stimuli_target_squaretriangles.svg	15	yes	57	0	451
6.6.1	and	2022-12-15	11:41:08	11:48:08	407145	5c28e9dfda51990001e3204b	519047	1	main_slash	7	main_slash	131	stimuli_target_squaretriangles.svg	stimuli_distractor_diamondtriangles.svg	7	yes	53	1	666
6.6.1	and	2022-12-15	11:41:08	11:48:08	407145	5c28e9dfda51990001e3204b	519047	1	main_slash	7	advance_on_keypress_SLASH	132	stimuli_target_squaretriangles.svg	stimuli_distractor_diamondtriangles.svg	7	yes	57	0	482
6.6.1	and	2022-12-15	11:41:08	11:48:11	409584	5c28e9dfda51990001e3204b	519047	1	main_slash	7	main_slash	133	stimuli_target_circlediamonds.svg	stimuli_distractor_diamondtriangles.svg	6	yes	53	1	1322
6.6.1	and	2022-12-15	11:41:08	11:48:11	409584	5c28e9dfda51990001e3204b	519047	1	main_slash	7	advance_on_keypress_SLASH	134	stimuli_target_circlediamonds.svg	stimuli_distractor_diamondtriangles.svg	6	yes	57	0	538
6.6.1	and	2022-12-15	11:41:08	11:48:13	411701	5c28e9dfda51990001e3204b	519047	1	main_slash	7	main_slash	135	stimuli_target_squaretriangles.svg	stimuli_distractor_trianglediamonds.svg	3	yes	53	1	956
6.6.1	and	2022-12-15	11:41:08	11:48:13	411701	5c28e9dfda51990001e3204b	519047	1	main_slash	7	advance_on_keypress_SLASH	136	stimuli_target_squaretriangles.svg	stimuli_distractor_trianglediamonds.svg	3	yes	57	0	447
6.6.1	and	2022-12-15	11:41:08	11:48:16	414781	5c28e9dfda51990001e3204b	519047	1	main_slash	7	main_slash	137	stimuli_target_trianglesquares.svg	stimuli_distractor_diamondtriangles.svg	22	yes	0	0	2000
6.6.1	and	2022-12-15	11:41:08	11:48:16	414781	5c28e9dfda51990001e3204b	519047	1	main_slash	7	advance_on_keypress_SLASH	138	stimuli_target_trianglesquares.svg	stimuli_distractor_diamondtriangles.svg	22	yes	57	0	538
6.6.1	and	2022-12-15	11:41:08	11:48:18	416640	5c28e9dfda51990001e3204b	519047	1	main_slash	7	main_slash	139	stimuli_target_trianglecircles.svg	stimuli_distractor_trianglediamonds.svg	17	yes	53	1	693
6.6.1	and	2022-12-15	11:41:08	11:48:18	416640	5c28e9dfda51990001e3204b	519047	1	main_slash	7	advance_on_keypress_SLASH	140	stimuli_target_trianglecircles.svg	stimuli_distractor_trianglediamonds.svg	17	yes	57	0	431
6.6.1	and	2022-12-15	11:41:08	11:48:20	418759	5c28e9dfda51990001e3204b	519047	1	main_slash	7	main_slash	141	stimuli_distractor_diamondtriangles.svg	stimuli_target_diamondcircles.svg	31	yes	53	1	1046
6.6.1	and	2022-12-15	11:41:08	11:48:20	418759	5c28e9dfda51990001e3204b	519047	1	main_slash	7	advance_on_keypress_SLASH	142	stimuli_distractor_diamondtriangles.svg	stimuli_target_diamondcircles.svg	31	yes	57	0	483
6.6.1	and	2022-12-15	11:41:08	11:48:22	420942	5c28e9dfda51990001e3204b	519047	1	main_slash	7	main_slash	143	stimuli_distractor_diamondtriangles.svg	stimuli_target_trianglesquares.svg	30	yes	53	1	1057
6.6.1	and	2022-12-15	11:41:08	11:48:22	420942	5c28e9dfda51990001e3204b	519047	1	main_slash	7	advance_on_keypress_SLASH	144	stimuli_distractor_diamondtriangles.svg	stimuli_target_trianglesquares.svg	30	yes	57	0	579
6.6.1	and	2022-12-15	11:41:08	11:48:24	423043	5c28e9dfda51990001e3204b	519047	1	main_slash	7	main_slash	145	stimuli_distractor_trianglediamonds.svg	stimuli_target_diamondsquares.svg	28	yes	53	1	875
6.6.1	and	2022-12-15	11:41:08	11:48:24	423043	5c28e9dfda51990001e3204b	519047	1	main_slash	7	advance_on_keypress_SLASH	146	stimuli_distractor_trianglediamonds.svg	stimuli_target_diamondsquares.svg	28	yes	57	0	450
6.6.1	and	2022-12-15	11:41:08	11:48:26	425063	5c28e9dfda51990001e3204b	519047	1	main_slash	7	main_slash	147	stimuli_target_squarediamonds.svg	stimuli_distractor_diamondtriangles.svg	8	yes	53	1	932
6.6.1	and	2022-12-15	11:41:08	11:48:26	425063	5c28e9dfda51990001e3204b	519047	1	main_slash	7	advance_on_keypress_SLASH	148	stimuli_target_squarediamonds.svg	stimuli_distractor_diamondtriangles.svg	8	yes	57	0	1334
6.6.1	and	2022-12-15	11:41:08	11:48:29	427838	5c28e9dfda51990001e3204b	519047	1	main_slash	7	main_slash	149	stimuli_target_squarediamonds.svg	stimuli_distractor_trianglediamonds.svg	4	yes	53	1	808
6.6.1	and	2022-12-15	11:41:08	11:48:29	427838	5c28e9dfda51990001e3204b	519047	1	main_slash	7	advance_on_keypress_SLASH	150	stimuli_target_squarediamonds.svg	stimuli_distractor_trianglediamonds.svg	4	yes	57	0	656
6.6.1	and	2022-12-15	11:41:08	11:48:31	430106	5c28e9dfda51990001e3204b	519047	1	main_slash	7	main_slash	151	stimuli_target_diamondcircles.svg	stimuli_distractor_diamondtriangles.svg	23	yes	53	1	991
6.6.1	and	2022-12-15	11:41:08	11:48:31	430106	5c28e9dfda51990001e3204b	519047	1	main_slash	7	advance_on_keypress_SLASH	152	stimuli_target_diamondcircles.svg	stimuli_distractor_diamondtriangles.svg	23	yes	57	0	486
6.6.1	and	2022-12-15	11:41:08	11:48:33	431938	5c28e9dfda51990001e3204b	519047	1	main_slash	7	main_slash	153	stimuli_target_circletriangles.svg	stimuli_distractor_trianglediamonds.svg	1	yes	53	1	721
6.6.1	and	2022-12-15	11:41:08	11:48:33	431938	5c28e9dfda51990001e3204b	519047	1	main_slash	7	advance_on_keypress_SLASH	154	stimuli_target_circletriangles.svg	stimuli_distractor_trianglediamonds.svg	1	yes	57	0	416
6.6.1	and	2022-12-15	11:41:08	11:48:35	433470	5c28e9dfda51990001e3204b	519047	1	main_slash	7	main_slash	155	stimuli_target_circlediamonds.svg	stimuli_distractor_trianglediamonds.svg	2	yes	53	1	488
6.6.1	and	2022-12-15	11:41:08	11:48:35	433470	5c28e9dfda51990001e3204b	519047	1	main_slash	7	advance_on_keypress_SLASH	156	stimuli_target_circlediamonds.svg	stimuli_distractor_trianglediamonds.svg	2	yes	57	0	350
6.6.1	and	2022-12-15	11:41:08	11:48:38	436452	5c28e9dfda51990001e3204b	519047	1	main_slash	7	main_slash	157	stimuli_distractor_trianglediamonds.svg	stimuli_distractor_diamondtriangles.svg	35	no	0	1	2000
6.6.1	and	2022-12-15	11:41:08	11:48:38	436452	5c28e9dfda51990001e3204b	519047	1	main_slash	7	advance_on_keypress_SLASH	158	stimuli_distractor_trianglediamonds.svg	stimuli_distractor_diamondtriangles.svg	35	no	57	0	3025
6.6.1	and	2022-12-15	11:41:08	11:48:42	440577	5c28e9dfda51990001e3204b	519047	1	main_slash	7	main_slash	159	stimuli_distractor_trianglediamonds.svg	stimuli_target_circletriangles.svg	9	yes	53	1	459
6.6.1	and	2022-12-15	11:41:08	11:48:42	440577	5c28e9dfda51990001e3204b	519047	1	main_slash	7	advance_on_keypress_SLASH	160	stimuli_distractor_trianglediamonds.svg	stimuli_target_circletriangles.svg	9	yes	57	0	662
6.6.1	and	2022-12-15	11:41:08	11:48:58	456645	5c28e9dfda51990001e3204b	519047	1	practice_z	9	practice_z	1	stimuli_target_squarediamonds.svg	stimuli_distractor_diamondtriangles.svg	2	yes	44	1	507
6.6.1	and	2022-12-15	11:41:08	11:48:58	456645	5c28e9dfda51990001e3204b	519047	1	practice_z	9	advance_on_keypress_ZEE	2	stimuli_target_squarediamonds.svg	stimuli_distractor_diamondtriangles.svg	2	yes	57	0	581
6.6.1	and	2022-12-15	11:41:08	11:49:01	459562	5c28e9dfda51990001e3204b	519047	1	practice_z	9	practice_z	3	stimuli_distractor_diamondtriangles.svg	stimuli_distractor_trianglediamonds.svg	14	no	44	0	690
6.6.1	and	2022-12-15	11:41:08	11:49:01	459562	5c28e9dfda51990001e3204b	519047	1	practice_z	9	advance_on_keypress_ZEE	4	stimuli_distractor_diamondtriangles.svg	stimuli_distractor_trianglediamonds.svg	14	no	57	0	435
6.6.1	and	2022-12-15	11:41:08	11:49:03	462261	5c28e9dfda51990001e3204b	519047	1	practice_z	9	practice_z	5	stimuli_target_circlediamonds.svg	stimuli_distractor_diamondtriangles.svg	1	yes	44	1	637
6.6.1	and	2022-12-15	11:41:08	11:49:03	462261	5c28e9dfda51990001e3204b	519047	1	practice_z	9	advance_on_keypress_ZEE	6	stimuli_target_circlediamonds.svg	stimuli_distractor_diamondtriangles.svg	1	yes	57	0	399
6.6.1	and	2022-12-15	11:41:08	11:49:06	465175	5c28e9dfda51990001e3204b	519047	1	practice_z	9	practice_z	7	stimuli_distractor_diamondtriangles.svg	stimuli_target_diamondcircles.svg	8	yes	44	1	883
6.6.1	and	2022-12-15	11:41:08	11:49:06	465175	5c28e9dfda51990001e3204b	519047	1	practice_z	9	advance_on_keypress_ZEE	8	stimuli_distractor_diamondtriangles.svg	stimuli_target_diamondcircles.svg	8	yes	57	0	501
6.6.1	and	2022-12-15	11:41:08	11:49:09	468033	5c28e9dfda51990001e3204b	519047	1	practice_z	9	practice_z	9	stimuli_distractor_trianglediamonds.svg	stimuli_target_squarediamonds.svg	11	yes	44	1	722
6.6.1	and	2022-12-15	11:41:08	11:49:09	468033	5c28e9dfda51990001e3204b	519047	1	practice_z	9	advance_on_keypress_ZEE	10	stimuli_distractor_trianglediamonds.svg	stimuli_target_squarediamonds.svg	11	yes	57	0	480
6.6.1	and	2022-12-15	11:41:08	11:49:13	472159	5c28e9dfda51990001e3204b	519047	1	practice_z	9	practice_z	11	stimuli_distractor_diamondtriangles.svg	stimuli_distractor_diamondtriangles.svg	13	no	0	1	2000
6.6.1	and	2022-12-15	11:41:08	11:49:13	472159	5c28e9dfda51990001e3204b	519047	1	practice_z	9	advance_on_keypress_ZEE	12	stimuli_distractor_diamondtriangles.svg	stimuli_distractor_diamondtriangles.svg	13	no	57	0	482
6.6.1	and	2022-12-15	11:41:08	11:49:16	475000	5c28e9dfda51990001e3204b	519047	1	practice_z	9	practice_z	13	stimuli_target_circlediamonds.svg	stimuli_distractor_trianglediamonds.svg	4	yes	44	1	725
6.6.1	and	2022-12-15	11:41:08	11:49:16	475000	5c28e9dfda51990001e3204b	519047	1	practice_z	9	advance_on_keypress_ZEE	14	stimuli_target_circlediamonds.svg	stimuli_distractor_trianglediamonds.svg	4	yes	57	0	571
6.6.1	and	2022-12-15	11:41:08	11:49:19	478123	5c28e9dfda51990001e3204b	519047	1	practice_z	9	practice_z	15	stimuli_target_diamondsquares.svg	stimuli_distractor_diamondtriangles.svg	3	yes	44	1	913
6.6.1	and	2022-12-15	11:41:08	11:49:19	478123	5c28e9dfda51990001e3204b	519047	1	practice_z	9	advance_on_keypress_ZEE	16	stimuli_target_diamondsquares.svg	stimuli_distractor_diamondtriangles.svg	3	yes	57	0	511
6.6.1	and	2022-12-15	11:41:08	11:49:22	481255	5c28e9dfda51990001e3204b	519047	1	practice_z	9	practice_z	17	stimuli_distractor_trianglediamonds.svg	stimuli_target_diamondcircles.svg	12	yes	44	1	978
6.6.1	and	2022-12-15	11:41:08	11:49:22	481255	5c28e9dfda51990001e3204b	519047	1	practice_z	9	advance_on_keypress_ZEE	18	stimuli_distractor_trianglediamonds.svg	stimuli_target_diamondcircles.svg	12	yes	57	0	586
6.6.1	and	2022-12-15	11:41:08	11:49:27	485482	5c28e9dfda51990001e3204b	519047	1	practice_z	9	practice_z	19	stimuli_distractor_trianglediamonds.svg	stimuli_distractor_trianglediamonds.svg	15	no	0	1	2000
6.6.1	and	2022-12-15	11:41:08	11:49:27	485482	5c28e9dfda51990001e3204b	519047	1	practice_z	9	advance_on_keypress_ZEE	20	stimuli_distractor_trianglediamonds.svg	stimuli_distractor_trianglediamonds.svg	15	no	57	0	472
6.6.1	and	2022-12-15	11:41:08	11:49:30	488573	5c28e9dfda51990001e3204b	519047	1	practice_z	9	practice_z	21	stimuli_distractor_trianglediamonds.svg	stimuli_distractor_diamondtriangles.svg	16	no	44	0	995
6.6.1	and	2022-12-15	11:41:08	11:49:30	488573	5c28e9dfda51990001e3204b	519047	1	practice_z	9	advance_on_keypress_ZEE	22	stimuli_distractor_trianglediamonds.svg	stimuli_distractor_diamondtriangles.svg	16	no	57	0	566
6.6.1	and	2022-12-15	11:41:08	11:49:33	492071	5c28e9dfda51990001e3204b	519047	1	practice_z	9	practice_z	23	stimuli_target_diamondsquares.svg	stimuli_distractor_trianglediamonds.svg	6	yes	44	1	1275
6.6.1	and	2022-12-15	11:41:08	11:49:33	492071	5c28e9dfda51990001e3204b	519047	1	practice_z	9	advance_on_keypress_ZEE	24	stimuli_target_diamondsquares.svg	stimuli_distractor_trianglediamonds.svg	6	yes	57	0	482
6.6.1	and	2022-12-15	11:41:08	11:49:36	494966	5c28e9dfda51990001e3204b	519047	1	practice_z	9	practice_z	25	stimuli_distractor_diamondtriangles.svg	stimuli_target_circletriangles.svg	7	yes	44	1	769
6.6.1	and	2022-12-15	11:41:08	11:49:36	494966	5c28e9dfda51990001e3204b	519047	1	practice_z	9	advance_on_keypress_ZEE	26	stimuli_distractor_diamondtriangles.svg	stimuli_target_circletriangles.svg	7	yes	57	0	581
6.6.1	and	2022-12-15	11:41:08	11:49:39	497779	5c28e9dfda51990001e3204b	519047	1	practice_z	9	practice_z	27	stimuli_target_squarediamonds.svg	stimuli_distractor_trianglediamonds.svg	5	yes	44	1	595
6.6.1	and	2022-12-15	11:41:08	11:49:39	497779	5c28e9dfda51990001e3204b	519047	1	practice_z	9	advance_on_keypress_ZEE	28	stimuli_target_squarediamonds.svg	stimuli_distractor_trianglediamonds.svg	5	yes	57	0	772
6.6.1	and	2022-12-15	11:41:08	11:49:42	501305	5c28e9dfda51990001e3204b	519047	1	practice_z	9	practice_z	29	stimuli_distractor_diamondtriangles.svg	stimuli_target_trianglecircles.svg	9	yes	44	1	1124
6.6.1	and	2022-12-15	11:41:08	11:49:42	501305	5c28e9dfda51990001e3204b	519047	1	practice_z	9	advance_on_keypress_ZEE	30	stimuli_distractor_diamondtriangles.svg	stimuli_target_trianglecircles.svg	9	yes	57	0	505
6.6.1	and	2022-12-15	11:41:08	11:49:45	503959	5c28e9dfda51990001e3204b	519047	1	practice_z	9	practice_z	31	stimuli_distractor_trianglediamonds.svg	stimuli_target_circlediamonds.svg	10	yes	44	1	510
6.6.1	and	2022-12-15	11:41:08	11:49:45	503959	5c28e9dfda51990001e3204b	519047	1	practice_z	9	advance_on_keypress_ZEE	32	stimuli_distractor_trianglediamonds.svg	stimuli_target_circlediamonds.svg	10	yes	57	0	1580
6.6.1	and	2022-12-15	11:41:08	11:49:59	518080	5c28e9dfda51990001e3204b	519047	1	main_z	11	main_z	1	stimuli_target_trianglecircles.svg	stimuli_distractor_diamondtriangles.svg	21	yes	44	1	680
6.6.1	and	2022-12-15	11:41:08	11:49:59	518080	5c28e9dfda51990001e3204b	519047	1	main_z	11	advance_on_keypress_ZEE	2	stimuli_target_trianglecircles.svg	stimuli_distractor_diamondtriangles.svg	21	yes	57	0	742
6.6.1	and	2022-12-15	11:41:08	11:50:01	519739	5c28e9dfda51990001e3204b	519047	1	main_z	11	main_z	3	stimuli_target_squaretriangles.svg	stimuli_distractor_trianglediamonds.svg	3	yes	44	1	272
6.6.1	and	2022-12-15	11:41:08	11:50:01	519739	5c28e9dfda51990001e3204b	519047	1	main_z	11	advance_on_keypress_ZEE	4	stimuli_target_squaretriangles.svg	stimuli_distractor_trianglediamonds.svg	3	yes	57	0	2644
6.6.1	and	2022-12-15	11:41:08	11:50:05	523536	5c28e9dfda51990001e3204b	519047	1	main_z	11	main_z	5	stimuli_distractor_diamondtriangles.svg	stimuli_target_squarediamonds.svg	16	yes	44	1	522
6.6.1	and	2022-12-15	11:41:08	11:50:05	523536	5c28e9dfda51990001e3204b	519047	1	main_z	11	advance_on_keypress_ZEE	6	stimuli_distractor_diamondtriangles.svg	stimuli_target_squarediamonds.svg	16	yes	57	0	1583
6.6.1	and	2022-12-15	11:41:08	11:50:08	526537	5c28e9dfda51990001e3204b	519047	1	main_z	11	main_z	7	stimuli_distractor_diamondtriangles.svg	stimuli_target_trianglecircles.svg	29	yes	44	1	785
6.6.1	and	2022-12-15	11:41:08	11:50:08	526537	5c28e9dfda51990001e3204b	519047	1	main_z	11	advance_on_keypress_ZEE	8	stimuli_distractor_diamondtriangles.svg	stimuli_target_trianglecircles.svg	29	yes	57	0	476
6.6.1	and	2022-12-15	11:41:08	11:50:09	528436	5c28e9dfda51990001e3204b	519047	1	main_z	11	main_z	9	stimuli_distractor_trianglediamonds.svg	stimuli_distractor_diamondtriangles.svg	36	no	44	0	785
6.6.1	and	2022-12-15	11:41:08	11:50:09	528436	5c28e9dfda51990001e3204b	519047	1	main_z	11	advance_on_keypress_ZEE	10	stimuli_distractor_trianglediamonds.svg	stimuli_distractor_diamondtriangles.svg	36	no	57	0	499
6.6.1	and	2022-12-15	11:41:08	11:50:11	530324	5c28e9dfda51990001e3204b	519047	1	main_z	11	main_z	11	stimuli_target_squaretriangles.svg	stimuli_distractor_diamondtriangles.svg	7	yes	44	1	756
6.6.1	and	2022-12-15	11:41:08	11:50:11	530324	5c28e9dfda51990001e3204b	519047	1	main_z	11	advance_on_keypress_ZEE	12	stimuli_target_squaretriangles.svg	stimuli_distractor_diamondtriangles.svg	7	yes	57	0	2906
6.6.1	and	2022-12-15	11:41:08	11:50:16	534495	5c28e9dfda51990001e3204b	519047	1	main_z	11	main_z	13	stimuli_distractor_trianglediamonds.svg	stimuli_distractor_diamondtriangles.svg	35	no	44	0	640
6.6.1	and	2022-12-15	11:41:08	11:50:16	534495	5c28e9dfda51990001e3204b	519047	1	main_z	11	advance_on_keypress_ZEE	14	stimuli_distractor_trianglediamonds.svg	stimuli_distractor_diamondtriangles.svg	35	no	57	0	607
6.6.1	and	2022-12-15	11:41:08	11:50:17	536219	5c28e9dfda51990001e3204b	519047	1	main_z	11	main_z	15	stimuli_target_squarediamonds.svg	stimuli_distractor_diamondtriangles.svg	8	yes	44	1	483
6.6.1	and	2022-12-15	11:41:08	11:50:17	536219	5c28e9dfda51990001e3204b	519047	1	main_z	11	advance_on_keypress_ZEE	16	stimuli_target_squarediamonds.svg	stimuli_distractor_diamondtriangles.svg	8	yes	57	0	749
6.6.1	and	2022-12-15	11:41:08	11:50:19	538193	5c28e9dfda51990001e3204b	519047	1	main_z	11	main_z	17	stimuli_target_circletriangles.svg	stimuli_distractor_diamondtriangles.svg	5	yes	44	1	587
6.6.1	and	2022-12-15	11:41:08	11:50:19	538193	5c28e9dfda51990001e3204b	519047	1	main_z	11	advance_on_keypress_ZEE	18	stimuli_target_circletriangles.svg	stimuli_distractor_diamondtriangles.svg	5	yes	57	0	1155
6.6.1	and	2022-12-15	11:41:08	11:50:22	540565	5c28e9dfda51990001e3204b	519047	1	main_z	11	main_z	19	stimuli_distractor_trianglediamonds.svg	stimuli_target_circlediamonds.svg	10	yes	44	1	593
6.6.1	and	2022-12-15	11:41:08	11:50:22	540565	5c28e9dfda51990001e3204b	519047	1	main_z	11	advance_on_keypress_ZEE	20	stimuli_distractor_trianglediamonds.svg	stimuli_target_circlediamonds.svg	10	yes	57	0	566
6.6.1	and	2022-12-15	11:41:08	11:50:24	542818	5c28e9dfda51990001e3204b	519047	1	main_z	11	main_z	21	stimuli_target_diamondsquares.svg	stimuli_distractor_trianglediamonds.svg	20	yes	44	1	1047
6.6.1	and	2022-12-15	11:41:08	11:50:24	542818	5c28e9dfda51990001e3204b	519047	1	main_z	11	advance_on_keypress_ZEE	22	stimuli_target_diamondsquares.svg	stimuli_distractor_trianglediamonds.svg	20	yes	57	0	442
6.6.1	and	2022-12-15	11:41:08	11:50:26	544620	5c28e9dfda51990001e3204b	519047	1	main_z	11	main_z	23	stimuli_target_diamondsquares.svg	stimuli_distractor_diamondtriangles.svg	24	yes	44	1	731
6.6.1	and	2022-12-15	11:41:08	11:50:26	544620	5c28e9dfda51990001e3204b	519047	1	main_z	11	advance_on_keypress_ZEE	24	stimuli_target_diamondsquares.svg	stimuli_distractor_diamondtriangles.svg	24	yes	57	0	610
6.6.1	and	2022-12-15	11:41:08	11:50:29	547873	5c28e9dfda51990001e3204b	519047	1	main_z	11	main_z	25	stimuli_distractor_diamondtriangles.svg	stimuli_distractor_trianglediamonds.svg	38	no	0	1	2000
6.6.1	and	2022-12-15	11:41:08	11:50:29	547873	5c28e9dfda51990001e3204b	519047	1	main_z	11	advance_on_keypress_ZEE	26	stimuli_distractor_diamondtriangles.svg	stimuli_distractor_trianglediamonds.svg	38	no	57	0	462
6.6.1	and	2022-12-15	11:41:08	11:50:31	549563	5c28e9dfda51990001e3204b	519047	1	main_z	11	main_z	27	stimuli_distractor_trianglediamonds.svg	stimuli_target_circletriangles.svg	9	yes	44	1	592
6.6.1	and	2022-12-15	11:41:08	11:50:31	549563	5c28e9dfda51990001e3204b	519047	1	main_z	11	advance_on_keypress_ZEE	28	stimuli_distractor_trianglediamonds.svg	stimuli_target_circletriangles.svg	9	yes	57	0	811
6.6.1	and	2022-12-15	11:41:08	11:50:34	553024	5c28e9dfda51990001e3204b	519047	1	main_z	11	main_z	29	stimuli_distractor_diamondtriangles.svg	stimuli_target_diamondsquares.svg	32	yes	0	0	2000
6.6.1	and	2022-12-15	11:41:08	11:50:34	553024	5c28e9dfda51990001e3204b	519047	1	main_z	11	advance_on_keypress_ZEE	30	stimuli_distractor_diamondtriangles.svg	stimuli_target_diamondsquares.svg	32	yes	57	0	676
6.6.1	and	2022-12-15	11:41:08	11:50:36	555313	5c28e9dfda51990001e3204b	519047	1	main_z	11	main_z	31	stimuli_target_diamondcircles.svg	stimuli_distractor_trianglediamonds.svg	19	yes	44	1	970
6.6.1	and	2022-12-15	11:41:08	11:50:36	555313	5c28e9dfda51990001e3204b	519047	1	main_z	11	advance_on_keypress_ZEE	32	stimuli_target_diamondcircles.svg	stimuli_distractor_trianglediamonds.svg	19	yes	57	0	521
6.6.1	and	2022-12-15	11:41:08	11:50:38	557108	5c28e9dfda51990001e3204b	519047	1	main_z	11	main_z	33	stimuli_distractor_trianglediamonds.svg	stimuli_target_diamondcircles.svg	27	yes	44	1	614
6.6.1	and	2022-12-15	11:41:08	11:50:38	557108	5c28e9dfda51990001e3204b	519047	1	main_z	11	advance_on_keypress_ZEE	34	stimuli_distractor_trianglediamonds.svg	stimuli_target_diamondcircles.svg	27	yes	57	0	900
6.6.1	and	2022-12-15	11:41:08	11:50:41	559677	5c28e9dfda51990001e3204b	519047	1	main_z	11	main_z	35	stimuli_distractor_trianglediamonds.svg	stimuli_target_diamondsquares.svg	28	yes	44	1	1036
6.6.1	and	2022-12-15	11:41:08	11:50:41	559677	5c28e9dfda51990001e3204b	519047	1	main_z	11	advance_on_keypress_ZEE	36	stimuli_distractor_trianglediamonds.svg	stimuli_target_diamondsquares.svg	28	yes	57	0	2842
6.6.1	and	2022-12-15	11:41:08	11:50:45	563838	5c28e9dfda51990001e3204b	519047	1	main_z	11	main_z	37	stimuli_distractor_diamondtriangles.svg	stimuli_target_trianglesquares.svg	30	yes	44	1	678
6.6.1	and	2022-12-15	11:41:08	11:50:45	563838	5c28e9dfda51990001e3204b	519047	1	main_z	11	advance_on_keypress_ZEE	38	stimuli_distractor_diamondtriangles.svg	stimuli_target_trianglesquares.svg	30	yes	57	0	1070
6.6.1	and	2022-12-15	11:41:08	11:50:47	566092	5c28e9dfda51990001e3204b	519047	1	main_z	11	main_z	39	stimuli_target_squarediamonds.svg	stimuli_distractor_trianglediamonds.svg	4	yes	44	1	552
6.6.1	and	2022-12-15	11:41:08	11:50:47	566092	5c28e9dfda51990001e3204b	519047	1	main_z	11	advance_on_keypress_ZEE	40	stimuli_target_squarediamonds.svg	stimuli_distractor_trianglediamonds.svg	4	yes	57	0	855
6.6.1	and	2022-12-15	11:41:08	11:50:51	569575	5c28e9dfda51990001e3204b	519047	1	main_z	11	main_z	41	stimuli_distractor_diamondtriangles.svg	stimuli_distractor_diamondtriangles.svg	40	no	0	1	2000
6.6.1	and	2022-12-15	11:41:08	11:50:51	569575	5c28e9dfda51990001e3204b	519047	1	main_z	11	advance_on_keypress_ZEE	42	stimuli_distractor_diamondtriangles.svg	stimuli_distractor_diamondtriangles.svg	40	no	57	0	399
6.6.1	and	2022-12-15	11:41:08	11:50:52	571263	5c28e9dfda51990001e3204b	519047	1	main_z	11	main_z	43	stimuli_target_trianglesquares.svg	stimuli_distractor_diamondtriangles.svg	22	yes	44	1	637
6.6.1	and	2022-12-15	11:41:08	11:50:52	571263	5c28e9dfda51990001e3204b	519047	1	main_z	11	advance_on_keypress_ZEE	44	stimuli_target_trianglesquares.svg	stimuli_distractor_diamondtriangles.svg	22	yes	57	0	447
6.6.1	and	2022-12-15	11:41:08	11:50:54	572961	5c28e9dfda51990001e3204b	519047	1	main_z	11	main_z	45	stimuli_distractor_diamondtriangles.svg	stimuli_target_diamondcircles.svg	31	yes	44	1	612
6.6.1	and	2022-12-15	11:41:08	11:50:54	572961	5c28e9dfda51990001e3204b	519047	1	main_z	11	advance_on_keypress_ZEE	46	stimuli_distractor_diamondtriangles.svg	stimuli_target_diamondcircles.svg	31	yes	57	0	400
6.6.1	and	2022-12-15	11:41:08	11:50:57	576000	5c28e9dfda51990001e3204b	519047	1	main_z	11	main_z	47	stimuli_distractor_trianglediamonds.svg	stimuli_target_squarediamonds.svg	12	yes	0	0	2000
6.6.1	and	2022-12-15	11:41:08	11:50:57	576000	5c28e9dfda51990001e3204b	519047	1	main_z	11	advance_on_keypress_ZEE	48	stimuli_distractor_trianglediamonds.svg	stimuli_target_squarediamonds.svg	12	yes	57	0	437
6.6.1	and	2022-12-15	11:41:08	11:50:59	577648	5c28e9dfda51990001e3204b	519047	1	main_z	11	main_z	49	stimuli_target_circlediamonds.svg	stimuli_distractor_diamondtriangles.svg	6	yes	44	1	588
6.6.1	and	2022-12-15	11:41:08	11:50:59	577648	5c28e9dfda51990001e3204b	519047	1	main_z	11	advance_on_keypress_ZEE	50	stimuli_target_circlediamonds.svg	stimuli_distractor_diamondtriangles.svg	6	yes	57	0	393
6.6.1	and	2022-12-15	11:41:08	11:51:02	580661	5c28e9dfda51990001e3204b	519047	1	main_z	11	main_z	51	stimuli_target_circlediamonds.svg	stimuli_distractor_trianglediamonds.svg	2	yes	0	0	2000
6.6.1	and	2022-12-15	11:41:08	11:51:02	580661	5c28e9dfda51990001e3204b	519047	1	main_z	11	advance_on_keypress_ZEE	52	stimuli_target_circlediamonds.svg	stimuli_distractor_trianglediamonds.svg	2	yes	57	0	918
6.6.1	and	2022-12-15	11:41:08	11:51:05	584212	5c28e9dfda51990001e3204b	519047	1	main_z	11	main_z	53	stimuli_distractor_diamondtriangles.svg	stimuli_distractor_trianglediamonds.svg	37	no	0	1	2000
6.6.1	and	2022-12-15	11:41:08	11:51:05	584212	5c28e9dfda51990001e3204b	519047	1	main_z	11	advance_on_keypress_ZEE	54	stimuli_distractor_diamondtriangles.svg	stimuli_distractor_trianglediamonds.svg	37	no	57	0	400
6.6.1	and	2022-12-15	11:41:08	11:51:07	586241	5c28e9dfda51990001e3204b	519047	1	main_z	11	main_z	55	stimuli_distractor_trianglediamonds.svg	stimuli_target_squaretriangles.svg	11	yes	44	1	996
6.6.1	and	2022-12-15	11:41:08	11:51:07	586241	5c28e9dfda51990001e3204b	519047	1	main_z	11	advance_on_keypress_ZEE	56	stimuli_distractor_trianglediamonds.svg	stimuli_target_squaretriangles.svg	11	yes	57	0	1074
6.6.1	and	2022-12-15	11:41:08	11:51:11	589963	5c28e9dfda51990001e3204b	519047	1	main_z	11	main_z	57	stimuli_distractor_trianglediamonds.svg	stimuli_distractor_trianglediamonds.svg	34	no	0	1	2000
6.6.1	and	2022-12-15	11:41:08	11:51:11	589963	5c28e9dfda51990001e3204b	519047	1	main_z	11	advance_on_keypress_ZEE	58	stimuli_distractor_trianglediamonds.svg	stimuli_distractor_trianglediamonds.svg	34	no	57	0	504
6.6.1	and	2022-12-15	11:41:08	11:51:14	593099	5c28e9dfda51990001e3204b	519047	1	main_z	11	main_z	59	stimuli_distractor_diamondtriangles.svg	stimuli_distractor_diamondtriangles.svg	39	no	0	1	2000
6.6.1	and	2022-12-15	11:41:08	11:51:14	593099	5c28e9dfda51990001e3204b	519047	1	main_z	11	advance_on_keypress_ZEE	60	stimuli_distractor_diamondtriangles.svg	stimuli_distractor_diamondtriangles.svg	39	no	57	0	490
6.6.1	and	2022-12-15	11:41:08	11:51:16	594789	5c28e9dfda51990001e3204b	519047	1	main_z	11	main_z	61	stimuli_target_trianglesquares.svg	stimuli_distractor_trianglediamonds.svg	18	yes	44	1	574
6.6.1	and	2022-12-15	11:41:08	11:51:16	594789	5c28e9dfda51990001e3204b	519047	1	main_z	11	advance_on_keypress_ZEE	62	stimuli_target_trianglesquares.svg	stimuli_distractor_trianglediamonds.svg	18	yes	57	0	563
6.6.1	and	2022-12-15	11:41:08	11:51:18	597084	5c28e9dfda51990001e3204b	519047	1	main_z	11	main_z	63	stimuli_distractor_diamondtriangles.svg	stimuli_target_circlediamonds.svg	14	yes	44	1	1086
6.6.1	and	2022-12-15	11:41:08	11:51:18	597084	5c28e9dfda51990001e3204b	519047	1	main_z	11	advance_on_keypress_ZEE	64	stimuli_distractor_diamondtriangles.svg	stimuli_target_circlediamonds.svg	14	yes	57	0	473
6.6.1	and	2022-12-15	11:41:08	11:51:20	598851	5c28e9dfda51990001e3204b	519047	1	main_z	11	main_z	65	stimuli_distractor_diamondtriangles.svg	stimuli_target_circletriangles.svg	13	yes	44	1	669
6.6.1	and	2022-12-15	11:41:08	11:51:20	598851	5c28e9dfda51990001e3204b	519047	1	main_z	11	advance_on_keypress_ZEE	66	stimuli_distractor_diamondtriangles.svg	stimuli_target_circletriangles.svg	13	yes	57	0	438
6.6.1	and	2022-12-15	11:41:08	11:51:22	600552	5c28e9dfda51990001e3204b	519047	1	main_z	11	main_z	67	stimuli_target_diamondcircles.svg	stimuli_distractor_diamondtriangles.svg	23	yes	44	1	637
6.6.1	and	2022-12-15	11:41:08	11:51:22	600552	5c28e9dfda51990001e3204b	519047	1	main_z	11	advance_on_keypress_ZEE	68	stimuli_target_diamondcircles.svg	stimuli_distractor_diamondtriangles.svg	23	yes	57	0	430
6.6.1	and	2022-12-15	11:41:08	11:51:23	602160	5c28e9dfda51990001e3204b	519047	1	main_z	11	main_z	69	stimuli_distractor_diamondtriangles.svg	stimuli_target_squaretriangles.svg	15	yes	44	1	544
6.6.1	and	2022-12-15	11:41:08	11:51:23	602160	5c28e9dfda51990001e3204b	519047	1	main_z	11	advance_on_keypress_ZEE	70	stimuli_distractor_diamondtriangles.svg	stimuli_target_squaretriangles.svg	15	yes	57	0	371
6.6.1	and	2022-12-15	11:41:08	11:51:25	603985	5c28e9dfda51990001e3204b	519047	1	main_z	11	main_z	71	stimuli_distractor_trianglediamonds.svg	stimuli_target_trianglesquares.svg	26	yes	44	1	820
6.6.1	and	2022-12-15	11:41:08	11:51:25	603985	5c28e9dfda51990001e3204b	519047	1	main_z	11	advance_on_keypress_ZEE	72	stimuli_distractor_trianglediamonds.svg	stimuli_target_trianglesquares.svg	26	yes	57	0	346
6.6.1	and	2022-12-15	11:41:08	11:51:28	606967	5c28e9dfda51990001e3204b	519047	1	main_z	11	main_z	73	stimuli_distractor_trianglediamonds.svg	stimuli_distractor_trianglediamonds.svg	33	no	0	1	2000
6.6.1	and	2022-12-15	11:41:08	11:51:28	606967	5c28e9dfda51990001e3204b	519047	1	main_z	11	advance_on_keypress_ZEE	74	stimuli_distractor_trianglediamonds.svg	stimuli_distractor_trianglediamonds.svg	33	no	57	0	286
6.6.1	and	2022-12-15	11:41:08	11:51:30	608507	5c28e9dfda51990001e3204b	519047	1	main_z	11	main_z	75	stimuli_target_circletriangles.svg	stimuli_distractor_trianglediamonds.svg	1	yes	44	1	624
6.6.1	and	2022-12-15	11:41:08	11:51:30	608507	5c28e9dfda51990001e3204b	519047	1	main_z	11	advance_on_keypress_ZEE	76	stimuli_target_circletriangles.svg	stimuli_distractor_trianglediamonds.svg	1	yes	57	0	340
6.6.1	and	2022-12-15	11:41:08	11:51:31	610040	5c28e9dfda51990001e3204b	519047	1	main_z	11	main_z	77	stimuli_distractor_trianglediamonds.svg	stimuli_target_trianglecircles.svg	25	yes	44	1	575
6.6.1	and	2022-12-15	11:41:08	11:51:31	610040	5c28e9dfda51990001e3204b	519047	1	main_z	11	advance_on_keypress_ZEE	78	stimuli_distractor_trianglediamonds.svg	stimuli_target_trianglecircles.svg	25	yes	57	0	378
6.6.1	and	2022-12-15	11:41:08	11:51:33	611748	5c28e9dfda51990001e3204b	519047	1	main_z	11	main_z	79	stimuli_target_trianglecircles.svg	stimuli_distractor_trianglediamonds.svg	17	yes	44	1	694
6.6.1	and	2022-12-15	11:41:08	11:51:33	611748	5c28e9dfda51990001e3204b	519047	1	main_z	11	advance_on_keypress_ZEE	80	stimuli_target_trianglecircles.svg	stimuli_distractor_trianglediamonds.svg	17	yes	57	0	372
6.6.1	and	2022-12-15	11:41:08	11:51:35	613473	5c28e9dfda51990001e3204b	519047	1	main_z	11	main_z	81	stimuli_distractor_trianglediamonds.svg	stimuli_target_squarediamonds.svg	12	yes	44	1	719
6.6.1	and	2022-12-15	11:41:08	11:51:35	613473	5c28e9dfda51990001e3204b	519047	1	main_z	11	advance_on_keypress_ZEE	82	stimuli_distractor_trianglediamonds.svg	stimuli_target_squarediamonds.svg	12	yes	57	0	325
6.6.1	and	2022-12-15	11:41:08	11:51:36	615141	5c28e9dfda51990001e3204b	519047	1	main_z	11	main_z	83	stimuli_distractor_diamondtriangles.svg	stimuli_target_diamondcircles.svg	31	yes	44	1	703
6.6.1	and	2022-12-15	11:41:08	11:51:36	615141	5c28e9dfda51990001e3204b	519047	1	main_z	11	advance_on_keypress_ZEE	84	stimuli_distractor_diamondtriangles.svg	stimuli_target_diamondcircles.svg	31	yes	57	0	394
6.6.1	and	2022-12-15	11:41:08	11:51:38	616996	5c28e9dfda51990001e3204b	519047	1	main_z	11	main_z	85	stimuli_target_diamondcircles.svg	stimuli_distractor_trianglediamonds.svg	19	yes	44	1	827
6.6.1	and	2022-12-15	11:41:08	11:51:38	616996	5c28e9dfda51990001e3204b	519047	1	main_z	11	advance_on_keypress_ZEE	86	stimuli_target_diamondcircles.svg	stimuli_distractor_trianglediamonds.svg	19	yes	57	0	400
6.6.1	and	2022-12-15	11:41:08	11:51:40	618647	5c28e9dfda51990001e3204b	519047	1	main_z	11	main_z	87	stimuli_distractor_diamondtriangles.svg	stimuli_target_squarediamonds.svg	16	yes	44	1	609
6.6.1	and	2022-12-15	11:41:08	11:51:40	618647	5c28e9dfda51990001e3204b	519047	1	main_z	11	advance_on_keypress_ZEE	88	stimuli_distractor_diamondtriangles.svg	stimuli_target_squarediamonds.svg	16	yes	57	0	299
6.6.1	and	2022-12-15	11:41:08	11:51:42	620711	5c28e9dfda51990001e3204b	519047	1	main_z	11	main_z	89	stimuli_target_diamondsquares.svg	stimuli_distractor_trianglediamonds.svg	20	yes	44	1	1109
6.6.1	and	2022-12-15	11:41:08	11:51:42	620711	5c28e9dfda51990001e3204b	519047	1	main_z	11	advance_on_keypress_ZEE	90	stimuli_target_diamondsquares.svg	stimuli_distractor_trianglediamonds.svg	20	yes	57	0	288
6.6.1	and	2022-12-15	11:41:08	11:51:43	622286	5c28e9dfda51990001e3204b	519047	1	main_z	11	main_z	91	stimuli_distractor_diamondtriangles.svg	stimuli_target_circlediamonds.svg	14	yes	44	1	650
6.6.1	and	2022-12-15	11:41:08	11:51:43	622286	5c28e9dfda51990001e3204b	519047	1	main_z	11	advance_on_keypress_ZEE	92	stimuli_distractor_diamondtriangles.svg	stimuli_target_circlediamonds.svg	14	yes	57	0	402
6.6.1	and	2022-12-15	11:41:08	11:51:45	624022	5c28e9dfda51990001e3204b	519047	1	main_z	11	main_z	93	stimuli_target_squaretriangles.svg	stimuli_distractor_diamondtriangles.svg	7	yes	44	1	703
6.6.1	and	2022-12-15	11:41:08	11:51:45	624022	5c28e9dfda51990001e3204b	519047	1	main_z	11	advance_on_keypress_ZEE	94	stimuli_target_squaretriangles.svg	stimuli_distractor_diamondtriangles.svg	7	yes	57	0	317
6.6.1	and	2022-12-15	11:41:08	11:51:47	625958	5c28e9dfda51990001e3204b	519047	1	main_z	11	main_z	95	stimuli_target_squarediamonds.svg	stimuli_distractor_diamondtriangles.svg	8	yes	44	1	988
6.6.1	and	2022-12-15	11:41:08	11:51:47	625958	5c28e9dfda51990001e3204b	519047	1	main_z	11	advance_on_keypress_ZEE	96	stimuli_target_squarediamonds.svg	stimuli_distractor_diamondtriangles.svg	8	yes	57	0	428
6.6.1	and	2022-12-15	11:41:08	11:51:49	627609	5c28e9dfda51990001e3204b	519047	1	main_z	11	main_z	97	stimuli_target_circletriangles.svg	stimuli_distractor_diamondtriangles.svg	5	yes	44	1	589
6.6.1	and	2022-12-15	11:41:08	11:51:49	627609	5c28e9dfda51990001e3204b	519047	1	main_z	11	advance_on_keypress_ZEE	98	stimuli_target_circletriangles.svg	stimuli_distractor_diamondtriangles.svg	5	yes	57	0	300
6.6.1	and	2022-12-15	11:41:08	11:51:50	629442	5c28e9dfda51990001e3204b	519047	1	main_z	11	main_z	99	stimuli_target_trianglecircles.svg	stimuli_distractor_diamondtriangles.svg	21	yes	44	1	889
6.6.1	and	2022-12-15	11:41:08	11:51:50	629442	5c28e9dfda51990001e3204b	519047	1	main_z	11	advance_on_keypress_ZEE	100	stimuli_target_trianglecircles.svg	stimuli_distractor_diamondtriangles.svg	21	yes	57	0	249
6.6.1	and	2022-12-15	11:41:08	11:51:52	631086	5c28e9dfda51990001e3204b	519047	1	main_z	11	main_z	101	stimuli_distractor_trianglediamonds.svg	stimuli_target_circletriangles.svg	9	yes	44	1	764
6.6.1	and	2022-12-15	11:41:08	11:51:52	631086	5c28e9dfda51990001e3204b	519047	1	main_z	11	advance_on_keypress_ZEE	102	stimuli_distractor_trianglediamonds.svg	stimuli_target_circletriangles.svg	9	yes	57	0	296
6.6.1	and	2022-12-15	11:41:08	11:51:54	632817	5c28e9dfda51990001e3204b	519047	1	main_z	11	main_z	103	stimuli_target_trianglesquares.svg	stimuli_distractor_trianglediamonds.svg	18	yes	44	1	794
6.6.1	and	2022-12-15	11:41:08	11:51:54	632817	5c28e9dfda51990001e3204b	519047	1	main_z	11	advance_on_keypress_ZEE	104	stimuli_target_trianglesquares.svg	stimuli_distractor_trianglediamonds.svg	18	yes	57	0	422
6.6.1	and	2022-12-15	11:41:08	11:51:57	635871	5c28e9dfda51990001e3204b	519047	1	main_z	11	main_z	105	stimuli_distractor_trianglediamonds.svg	stimuli_distractor_trianglediamonds.svg	34	no	0	1	2000
6.6.1	and	2022-12-15	11:41:08	11:51:57	635871	5c28e9dfda51990001e3204b	519047	1	main_z	11	advance_on_keypress_ZEE	106	stimuli_distractor_trianglediamonds.svg	stimuli_distractor_trianglediamonds.svg	34	no	57	0	521
6.6.1	and	2022-12-15	11:41:08	11:52:00	639022	5c28e9dfda51990001e3204b	519047	1	main_z	11	main_z	107	stimuli_distractor_trianglediamonds.svg	stimuli_distractor_trianglediamonds.svg	33	no	0	1	2000
6.6.1	and	2022-12-15	11:41:08	11:52:00	639022	5c28e9dfda51990001e3204b	519047	1	main_z	11	advance_on_keypress_ZEE	108	stimuli_distractor_trianglediamonds.svg	stimuli_distractor_trianglediamonds.svg	33	no	57	0	377
6.6.1	and	2022-12-15	11:41:08	11:52:02	640688	5c28e9dfda51990001e3204b	519047	1	main_z	11	main_z	109	stimuli_distractor_trianglediamonds.svg	stimuli_target_trianglesquares.svg	26	yes	44	1	646
6.6.1	and	2022-12-15	11:41:08	11:52:02	640688	5c28e9dfda51990001e3204b	519047	1	main_z	11	advance_on_keypress_ZEE	110	stimuli_distractor_trianglediamonds.svg	stimuli_target_trianglesquares.svg	26	yes	57	0	418
6.6.1	and	2022-12-15	11:41:08	11:52:03	642342	5c28e9dfda51990001e3204b	519047	1	main_z	11	main_z	111	stimuli_distractor_trianglediamonds.svg	stimuli_target_trianglecircles.svg	25	yes	44	1	603
6.6.1	and	2022-12-15	11:41:08	11:52:03	642342	5c28e9dfda51990001e3204b	519047	1	main_z	11	advance_on_keypress_ZEE	112	stimuli_distractor_trianglediamonds.svg	stimuli_target_trianglecircles.svg	25	yes	57	0	373
6.6.1	and	2022-12-15	11:41:08	11:52:05	644256	5c28e9dfda51990001e3204b	519047	1	main_z	11	main_z	113	stimuli_distractor_trianglediamonds.svg	stimuli_target_diamondsquares.svg	28	yes	44	1	916
6.6.1	and	2022-12-15	11:41:08	11:52:05	644256	5c28e9dfda51990001e3204b	519047	1	main_z	11	advance_on_keypress_ZEE	114	stimuli_distractor_trianglediamonds.svg	stimuli_target_diamondsquares.svg	28	yes	57	0	326
6.6.1	and	2022-12-15	11:41:08	11:52:07	645770	5c28e9dfda51990001e3204b	519047	1	main_z	11	main_z	115	stimuli_target_circlediamonds.svg	stimuli_distractor_trianglediamonds.svg	2	yes	44	1	546
6.6.1	and	2022-12-15	11:41:08	11:52:07	645770	5c28e9dfda51990001e3204b	519047	1	main_z	11	advance_on_keypress_ZEE	116	stimuli_target_circlediamonds.svg	stimuli_distractor_trianglediamonds.svg	2	yes	57	0	273
6.6.1	and	2022-12-15	11:41:08	11:52:08	647190	5c28e9dfda51990001e3204b	519047	1	main_z	11	main_z	117	stimuli_distractor_diamondtriangles.svg	stimuli_target_circletriangles.svg	13	yes	44	1	518
6.6.1	and	2022-12-15	11:41:08	11:52:08	647190	5c28e9dfda51990001e3204b	519047	1	main_z	11	advance_on_keypress_ZEE	118	stimuli_distractor_diamondtriangles.svg	stimuli_target_circletriangles.svg	13	yes	57	0	318
6.6.1	and	2022-12-15	11:41:08	11:52:10	648772	5c28e9dfda51990001e3204b	519047	1	main_z	11	main_z	119	stimuli_target_circlediamonds.svg	stimuli_distractor_diamondtriangles.svg	6	yes	44	1	633
6.6.1	and	2022-12-15	11:41:08	11:52:10	648772	5c28e9dfda51990001e3204b	519047	1	main_z	11	advance_on_keypress_ZEE	120	stimuli_target_circlediamonds.svg	stimuli_distractor_diamondtriangles.svg	6	yes	57	0	230
6.6.1	and	2022-12-15	11:41:08	11:52:11	650163	5c28e9dfda51990001e3204b	519047	1	main_z	11	main_z	121	stimuli_distractor_trianglediamonds.svg	stimuli_target_diamondcircles.svg	27	yes	44	1	525
6.6.1	and	2022-12-15	11:41:08	11:52:11	650163	5c28e9dfda51990001e3204b	519047	1	main_z	11	advance_on_keypress_ZEE	122	stimuli_distractor_trianglediamonds.svg	stimuli_target_diamondcircles.svg	27	yes	57	0	236
6.6.1	and	2022-12-15	11:41:08	11:52:13	651880	5c28e9dfda51990001e3204b	519047	1	main_z	11	main_z	123	stimuli_target_diamondsquares.svg	stimuli_distractor_diamondtriangles.svg	24	yes	44	1	856
6.6.1	and	2022-12-15	11:41:08	11:52:13	651880	5c28e9dfda51990001e3204b	519047	1	main_z	11	advance_on_keypress_ZEE	124	stimuli_target_diamondsquares.svg	stimuli_distractor_diamondtriangles.svg	24	yes	57	0	301
6.6.1	and	2022-12-15	11:41:08	11:52:15	654054	5c28e9dfda51990001e3204b	519047	1	main_z	11	main_z	125	stimuli_target_squarediamonds.svg	stimuli_distractor_trianglediamonds.svg	4	yes	44	1	1244
6.6.1	and	2022-12-15	11:41:08	11:52:15	654054	5c28e9dfda51990001e3204b	519047	1	main_z	11	advance_on_keypress_ZEE	126	stimuli_target_squarediamonds.svg	stimuli_distractor_trianglediamonds.svg	4	yes	57	0	965
6.6.1	and	2022-12-15	11:41:08	11:52:19	657659	5c28e9dfda51990001e3204b	519047	1	main_z	11	main_z	127	stimuli_distractor_diamondtriangles.svg	stimuli_target_diamondsquares.svg	32	yes	0	0	2000
6.6.1	and	2022-12-15	11:41:08	11:52:19	657659	5c28e9dfda51990001e3204b	519047	1	main_z	11	advance_on_keypress_ZEE	128	stimuli_distractor_diamondtriangles.svg	stimuli_target_diamondsquares.svg	32	yes	57	0	1718
6.6.1	and	2022-12-15	11:41:08	11:52:22	660724	5c28e9dfda51990001e3204b	519047	1	main_z	11	main_z	129	stimuli_distractor_diamondtriangles.svg	stimuli_target_trianglecircles.svg	29	yes	44	1	713
6.6.1	and	2022-12-15	11:41:08	11:52:22	660724	5c28e9dfda51990001e3204b	519047	1	main_z	11	advance_on_keypress_ZEE	130	stimuli_distractor_diamondtriangles.svg	stimuli_target_trianglecircles.svg	29	yes	57	0	368
6.6.1	and	2022-12-15	11:41:08	11:52:23	662350	5c28e9dfda51990001e3204b	519047	1	main_z	11	main_z	131	stimuli_target_circletriangles.svg	stimuli_distractor_trianglediamonds.svg	1	yes	44	1	622
6.6.1	and	2022-12-15	11:41:08	11:52:23	662350	5c28e9dfda51990001e3204b	519047	1	main_z	11	advance_on_keypress_ZEE	132	stimuli_target_circletriangles.svg	stimuli_distractor_trianglediamonds.svg	1	yes	57	0	320
6.6.1	and	2022-12-15	11:41:08	11:52:25	663950	5c28e9dfda51990001e3204b	519047	1	main_z	11	main_z	133	stimuli_target_trianglecircles.svg	stimuli_distractor_trianglediamonds.svg	17	yes	44	1	653
6.6.1	and	2022-12-15	11:41:08	11:52:25	663950	5c28e9dfda51990001e3204b	519047	1	main_z	11	advance_on_keypress_ZEE	134	stimuli_target_trianglecircles.svg	stimuli_distractor_trianglediamonds.svg	17	yes	57	0	302
6.6.1	and	2022-12-15	11:41:08	11:52:27	665518	5c28e9dfda51990001e3204b	519047	1	main_z	11	main_z	135	stimuli_target_squaretriangles.svg	stimuli_distractor_trianglediamonds.svg	3	yes	44	1	641
6.6.1	and	2022-12-15	11:41:08	11:52:27	665518	5c28e9dfda51990001e3204b	519047	1	main_z	11	advance_on_keypress_ZEE	136	stimuli_target_squaretriangles.svg	stimuli_distractor_trianglediamonds.svg	3	yes	57	0	328
6.6.1	and	2022-12-15	11:41:08	11:52:28	667224	5c28e9dfda51990001e3204b	519047	1	main_z	11	main_z	137	stimuli_distractor_trianglediamonds.svg	stimuli_target_squaretriangles.svg	11	yes	44	1	745
6.6.1	and	2022-12-15	11:41:08	11:52:28	667224	5c28e9dfda51990001e3204b	519047	1	main_z	11	advance_on_keypress_ZEE	138	stimuli_distractor_trianglediamonds.svg	stimuli_target_squaretriangles.svg	11	yes	57	0	399
6.6.1	and	2022-12-15	11:41:08	11:52:31	670260	5c28e9dfda51990001e3204b	519047	1	main_z	11	main_z	139	stimuli_distractor_trianglediamonds.svg	stimuli_distractor_diamondtriangles.svg	36	no	0	1	2000
6.6.1	and	2022-12-15	11:41:08	11:52:31	670260	5c28e9dfda51990001e3204b	519047	1	main_z	11	advance_on_keypress_ZEE	140	stimuli_distractor_trianglediamonds.svg	stimuli_distractor_diamondtriangles.svg	36	no	57	0	473
6.6.1	and	2022-12-15	11:41:08	11:52:33	671980	5c28e9dfda51990001e3204b	519047	1	main_z	11	main_z	141	stimuli_target_diamondcircles.svg	stimuli_distractor_diamondtriangles.svg	23	yes	44	1	599
6.6.1	and	2022-12-15	11:41:08	11:52:33	671980	5c28e9dfda51990001e3204b	519047	1	main_z	11	advance_on_keypress_ZEE	142	stimuli_target_diamondcircles.svg	stimuli_distractor_diamondtriangles.svg	23	yes	57	0	339
6.6.1	and	2022-12-15	11:41:08	11:52:35	674259	5c28e9dfda51990001e3204b	519047	1	main_z	11	main_z	143	stimuli_distractor_trianglediamonds.svg	stimuli_distractor_diamondtriangles.svg	35	no	44	0	1313
6.6.1	and	2022-12-15	11:41:08	11:52:35	674259	5c28e9dfda51990001e3204b	519047	1	main_z	11	advance_on_keypress_ZEE	144	stimuli_distractor_trianglediamonds.svg	stimuli_distractor_diamondtriangles.svg	35	no	57	0	1260
6.6.1	and	2022-12-15	11:41:08	11:52:39	678162	5c28e9dfda51990001e3204b	519047	1	main_z	11	main_z	145	stimuli_distractor_diamondtriangles.svg	stimuli_distractor_diamondtriangles.svg	39	no	0	1	2000
6.6.1	and	2022-12-15	11:41:08	11:52:39	678162	5c28e9dfda51990001e3204b	519047	1	main_z	11	advance_on_keypress_ZEE	146	stimuli_distractor_diamondtriangles.svg	stimuli_distractor_diamondtriangles.svg	39	no	57	0	666
6.6.1	and	2022-12-15	11:41:08	11:52:41	680271	5c28e9dfda51990001e3204b	519047	1	main_z	11	main_z	147	stimuli_distractor_diamondtriangles.svg	stimuli_target_squaretriangles.svg	15	yes	44	1	809
6.6.1	and	2022-12-15	11:41:08	11:52:41	680271	5c28e9dfda51990001e3204b	519047	1	main_z	11	advance_on_keypress_ZEE	148	stimuli_distractor_diamondtriangles.svg	stimuli_target_squaretriangles.svg	15	yes	57	0	332
6.6.1	and	2022-12-15	11:41:08	11:52:44	683246	5c28e9dfda51990001e3204b	519047	1	main_z	11	main_z	149	stimuli_distractor_diamondtriangles.svg	stimuli_distractor_trianglediamonds.svg	38	no	0	1	2000
6.6.1	and	2022-12-15	11:41:08	11:52:44	683246	5c28e9dfda51990001e3204b	519047	1	main_z	11	advance_on_keypress_ZEE	150	stimuli_distractor_diamondtriangles.svg	stimuli_distractor_trianglediamonds.svg	38	no	57	0	839
6.6.1	and	2022-12-15	11:41:08	11:52:46	685314	5c28e9dfda51990001e3204b	519047	1	main_z	11	main_z	151	stimuli_distractor_trianglediamonds.svg	stimuli_target_circlediamonds.svg	10	yes	44	1	583
6.6.1	and	2022-12-15	11:41:08	11:52:46	685314	5c28e9dfda51990001e3204b	519047	1	main_z	11	advance_on_keypress_ZEE	152	stimuli_distractor_trianglediamonds.svg	stimuli_target_circlediamonds.svg	10	yes	57	0	386
6.6.1	and	2022-12-15	11:41:08	11:52:49	687824	5c28e9dfda51990001e3204b	519047	1	main_z	11	main_z	153	stimuli_distractor_diamondtriangles.svg	stimuli_distractor_trianglediamonds.svg	37	no	44	0	1493
6.6.1	and	2022-12-15	11:41:08	11:52:49	687824	5c28e9dfda51990001e3204b	519047	1	main_z	11	advance_on_keypress_ZEE	154	stimuli_distractor_diamondtriangles.svg	stimuli_distractor_trianglediamonds.svg	37	no	57	0	509
6.6.1	and	2022-12-15	11:41:08	11:52:51	689651	5c28e9dfda51990001e3204b	519047	1	main_z	11	main_z	155	stimuli_distractor_diamondtriangles.svg	stimuli_target_trianglesquares.svg	30	yes	44	1	670
6.6.1	and	2022-12-15	11:41:08	11:52:51	689651	5c28e9dfda51990001e3204b	519047	1	main_z	11	advance_on_keypress_ZEE	156	stimuli_distractor_diamondtriangles.svg	stimuli_target_trianglesquares.svg	30	yes	57	0	426
6.6.1	and	2022-12-15	11:41:08	11:52:54	692715	5c28e9dfda51990001e3204b	519047	1	main_z	11	main_z	157	stimuli_distractor_diamondtriangles.svg	stimuli_distractor_diamondtriangles.svg	40	no	0	1	2000
6.6.1	and	2022-12-15	11:41:08	11:52:54	692715	5c28e9dfda51990001e3204b	519047	1	main_z	11	advance_on_keypress_ZEE	158	stimuli_distractor_diamondtriangles.svg	stimuli_distractor_diamondtriangles.svg	40	no	57	0	680
6.6.1	and	2022-12-15	11:41:08	11:52:56	694491	5c28e9dfda51990001e3204b	519047	1	main_z	11	main_z	159	stimuli_target_trianglesquares.svg	stimuli_distractor_diamondtriangles.svg	22	yes	44	1	458
6.6.1	and	2022-12-15	11:41:08	11:52:56	694491	5c28e9dfda51990001e3204b	519047	1	main_z	11	advance_on_keypress_ZEE	160	stimuli_target_trianglesquares.svg	stimuli_distractor_diamondtriangles.svg	22	yes	57	0	343