build	computer.platform	date	time	timestamp	time_elapsed_ms	subject	group	session	blockcode	blocknum	trialcode	trialnum	stimulus_left	stimulus_right	stim_index	target_present	response	correct	latency
6.6.1	win	2022-12-25	19:56:51	20:01:35	279467	61076f4e081a7f76a8484506	369178700	1	practice_z	5	practice_z	1	stimuli_distractor_trianglediamonds.svg	stimuli_distractor_diamondtriangles.svg	16	no	44	0	1749
6.6.1	win	2022-12-25	19:56:51	20:01:35	279467	61076f4e081a7f76a8484506	369178700	1	practice_z	5	advance_on_keypress_ZEE	2	stimuli_distractor_trianglediamonds.svg	stimuli_distractor_diamondtriangles.svg	16	no	57	0	2473
6.6.1	win	2022-12-25	19:56:51	20:01:41	284691	61076f4e081a7f76a8484506	369178700	1	practice_z	5	practice_z	3	stimuli_distractor_trianglediamonds.svg	stimuli_target_diamondcircles.svg	12	yes	44	1	1038
6.6.1	win	2022-12-25	19:56:51	20:01:41	284691	61076f4e081a7f76a8484506	369178700	1	practice_z	5	advance_on_keypress_ZEE	4	stimuli_distractor_trianglediamonds.svg	stimuli_target_diamondcircles.svg	12	yes	57	0	1282
6.6.1	win	2022-12-25	19:56:51	20:01:45	288605	61076f4e081a7f76a8484506	369178700	1	practice_z	5	practice_z	5	stimuli_distractor_diamondtriangles.svg	stimuli_target_trianglecircles.svg	9	yes	44	1	911
6.6.1	win	2022-12-25	19:56:51	20:01:45	288605	61076f4e081a7f76a8484506	369178700	1	practice_z	5	advance_on_keypress_ZEE	6	stimuli_distractor_diamondtriangles.svg	stimuli_target_trianglecircles.svg	9	yes	57	0	586
6.6.1	win	2022-12-25	19:56:51	20:01:49	292871	61076f4e081a7f76a8484506	369178700	1	practice_z	5	practice_z	7	stimuli_distractor_trianglediamonds.svg	stimuli_distractor_trianglediamonds.svg	15	no	0	1	2000
6.6.1	win	2022-12-25	19:56:51	20:01:49	292871	61076f4e081a7f76a8484506	369178700	1	practice_z	5	advance_on_keypress_ZEE	8	stimuli_distractor_trianglediamonds.svg	stimuli_distractor_trianglediamonds.svg	15	no	57	0	711
6.6.1	win	2022-12-25	19:56:51	20:01:52	296388	61076f4e081a7f76a8484506	369178700	1	practice_z	5	practice_z	9	stimuli_distractor_trianglediamonds.svg	stimuli_target_circlediamonds.svg	10	yes	44	1	1098
6.6.1	win	2022-12-25	19:56:51	20:01:52	296388	61076f4e081a7f76a8484506	369178700	1	practice_z	5	advance_on_keypress_ZEE	10	stimuli_distractor_trianglediamonds.svg	stimuli_target_circlediamonds.svg	10	yes	57	0	1078
6.6.1	win	2022-12-25	19:56:51	20:01:56	300164	61076f4e081a7f76a8484506	369178700	1	practice_z	5	practice_z	11	stimuli_target_squarediamonds.svg	stimuli_distractor_diamondtriangles.svg	2	yes	44	1	1004
6.6.1	win	2022-12-25	19:56:51	20:01:56	300164	61076f4e081a7f76a8484506	369178700	1	practice_z	5	advance_on_keypress_ZEE	12	stimuli_target_squarediamonds.svg	stimuli_distractor_diamondtriangles.svg	2	yes	57	0	1600
6.6.1	win	2022-12-25	19:56:51	20:02:01	304802	61076f4e081a7f76a8484506	369178700	1	practice_z	5	practice_z	13	stimuli_distractor_diamondtriangles.svg	stimuli_distractor_diamondtriangles.svg	13	no	44	0	1364
6.6.1	win	2022-12-25	19:56:51	20:02:01	304802	61076f4e081a7f76a8484506	369178700	1	practice_z	5	advance_on_keypress_ZEE	14	stimuli_distractor_diamondtriangles.svg	stimuli_distractor_diamondtriangles.svg	13	no	57	0	1515
6.6.1	win	2022-12-25	19:56:51	20:02:05	308919	61076f4e081a7f76a8484506	369178700	1	practice_z	5	practice_z	15	stimuli_distractor_diamondtriangles.svg	stimuli_target_diamondcircles.svg	8	yes	44	1	930
6.6.1	win	2022-12-25	19:56:51	20:02:05	308919	61076f4e081a7f76a8484506	369178700	1	practice_z	5	advance_on_keypress_ZEE	16	stimuli_distractor_diamondtriangles.svg	stimuli_target_diamondcircles.svg	8	yes	57	0	1830
6.6.1	win	2022-12-25	19:56:51	20:02:09	313250	61076f4e081a7f76a8484506	369178700	1	practice_z	5	practice_z	17	stimuli_target_squarediamonds.svg	stimuli_distractor_trianglediamonds.svg	5	yes	44	1	824
6.6.1	win	2022-12-25	19:56:51	20:02:09	313250	61076f4e081a7f76a8484506	369178700	1	practice_z	5	advance_on_keypress_ZEE	18	stimuli_target_squarediamonds.svg	stimuli_distractor_trianglediamonds.svg	5	yes	57	0	2866
6.6.1	win	2022-12-25	19:56:51	20:02:15	318794	61076f4e081a7f76a8484506	369178700	1	practice_z	5	practice_z	19	stimuli_target_diamondsquares.svg	stimuli_distractor_trianglediamonds.svg	6	yes	44	1	986
6.6.1	win	2022-12-25	19:56:51	20:02:15	318794	61076f4e081a7f76a8484506	369178700	1	practice_z	5	advance_on_keypress_ZEE	20	stimuli_target_diamondsquares.svg	stimuli_distractor_trianglediamonds.svg	6	yes	57	0	1060
6.6.1	win	2022-12-25	19:56:51	20:02:18	322236	61076f4e081a7f76a8484506	369178700	1	practice_z	5	practice_z	21	stimuli_distractor_trianglediamonds.svg	stimuli_target_squarediamonds.svg	11	yes	44	1	676
6.6.1	win	2022-12-25	19:56:51	20:02:18	322236	61076f4e081a7f76a8484506	369178700	1	practice_z	5	advance_on_keypress_ZEE	22	stimuli_distractor_trianglediamonds.svg	stimuli_target_squarediamonds.svg	11	yes	57	0	663
6.6.1	win	2022-12-25	19:56:51	20:02:21	325517	61076f4e081a7f76a8484506	369178700	1	practice_z	5	practice_z	23	stimuli_target_diamondsquares.svg	stimuli_distractor_diamondtriangles.svg	3	yes	44	1	942
6.6.1	win	2022-12-25	19:56:51	20:02:21	325517	61076f4e081a7f76a8484506	369178700	1	practice_z	5	advance_on_keypress_ZEE	24	stimuli_target_diamondsquares.svg	stimuli_distractor_diamondtriangles.svg	3	yes	57	0	388
6.6.1	win	2022-12-25	19:56:51	20:02:24	328147	61076f4e081a7f76a8484506	369178700	1	practice_z	5	practice_z	25	stimuli_target_circlediamonds.svg	stimuli_distractor_trianglediamonds.svg	4	yes	44	1	571
6.6.1	win	2022-12-25	19:56:51	20:02:24	328147	61076f4e081a7f76a8484506	369178700	1	practice_z	5	advance_on_keypress_ZEE	26	stimuli_target_circlediamonds.svg	stimuli_distractor_trianglediamonds.svg	4	yes	57	0	1394
6.6.1	win	2022-12-25	19:56:51	20:02:29	333210	61076f4e081a7f76a8484506	369178700	1	practice_z	5	practice_z	27	stimuli_distractor_diamondtriangles.svg	stimuli_distractor_trianglediamonds.svg	14	no	0	1	2000
6.6.1	win	2022-12-25	19:56:51	20:02:29	333210	61076f4e081a7f76a8484506	369178700	1	practice_z	5	advance_on_keypress_ZEE	28	stimuli_distractor_diamondtriangles.svg	stimuli_distractor_trianglediamonds.svg	14	no	57	0	1021
6.6.1	win	2022-12-25	19:56:51	20:02:33	336714	61076f4e081a7f76a8484506	369178700	1	practice_z	5	practice_z	29	stimuli_target_circlediamonds.svg	stimuli_distractor_diamondtriangles.svg	1	yes	44	1	767
6.6.1	win	2022-12-25	19:56:51	20:02:33	336714	61076f4e081a7f76a8484506	369178700	1	practice_z	5	advance_on_keypress_ZEE	30	stimuli_target_circlediamonds.svg	stimuli_distractor_diamondtriangles.svg	1	yes	57	0	764
6.6.1	win	2022-12-25	19:56:51	20:02:36	339710	61076f4e081a7f76a8484506	369178700	1	practice_z	5	practice_z	31	stimuli_distractor_diamondtriangles.svg	stimuli_target_circletriangles.svg	7	yes	44	1	518
6.6.1	win	2022-12-25	19:56:51	20:02:36	339710	61076f4e081a7f76a8484506	369178700	1	practice_z	5	advance_on_keypress_ZEE	32	stimuli_distractor_diamondtriangles.svg	stimuli_target_circletriangles.svg	7	yes	57	0	346
6.6.1	win	2022-12-25	19:56:51	20:02:49	352778	61076f4e081a7f76a8484506	369178700	1	main_z	7	main_z	1	stimuli_distractor_diamondtriangles.svg	stimuli_target_circletriangles.svg	13	yes	44	1	985
6.6.1	win	2022-12-25	19:56:51	20:02:49	352778	61076f4e081a7f76a8484506	369178700	1	main_z	7	advance_on_keypress_ZEE	2	stimuli_distractor_diamondtriangles.svg	stimuli_target_circletriangles.svg	13	yes	57	0	930
6.6.1	win	2022-12-25	19:56:51	20:02:51	354995	61076f4e081a7f76a8484506	369178700	1	main_z	7	main_z	3	stimuli_distractor_trianglediamonds.svg	stimuli_target_diamondsquares.svg	28	yes	44	1	618
6.6.1	win	2022-12-25	19:56:51	20:02:51	354995	61076f4e081a7f76a8484506	369178700	1	main_z	7	advance_on_keypress_ZEE	4	stimuli_distractor_trianglediamonds.svg	stimuli_target_diamondsquares.svg	28	yes	57	0	1179
6.6.1	win	2022-12-25	19:56:51	20:02:54	357557	61076f4e081a7f76a8484506	369178700	1	main_z	7	main_z	5	stimuli_target_squarediamonds.svg	stimuli_distractor_diamondtriangles.svg	8	yes	44	1	697
6.6.1	win	2022-12-25	19:56:51	20:02:54	357557	61076f4e081a7f76a8484506	369178700	1	main_z	7	advance_on_keypress_ZEE	6	stimuli_target_squarediamonds.svg	stimuli_distractor_diamondtriangles.svg	8	yes	57	0	625
6.6.1	win	2022-12-25	19:56:51	20:02:57	360845	61076f4e081a7f76a8484506	369178700	1	main_z	7	main_z	7	stimuli_distractor_diamondtriangles.svg	stimuli_distractor_diamondtriangles.svg	39	no	0	1	2000
6.6.1	win	2022-12-25	19:56:51	20:02:57	360845	61076f4e081a7f76a8484506	369178700	1	main_z	7	advance_on_keypress_ZEE	8	stimuli_distractor_diamondtriangles.svg	stimuli_distractor_diamondtriangles.svg	39	no	57	0	677
6.6.1	win	2022-12-25	19:56:51	20:02:59	362757	61076f4e081a7f76a8484506	369178700	1	main_z	7	main_z	9	stimuli_target_diamondcircles.svg	stimuli_distractor_diamondtriangles.svg	23	yes	44	1	564
6.6.1	win	2022-12-25	19:56:51	20:02:59	362757	61076f4e081a7f76a8484506	369178700	1	main_z	7	advance_on_keypress_ZEE	10	stimuli_target_diamondcircles.svg	stimuli_distractor_diamondtriangles.svg	23	yes	57	0	831
6.6.1	win	2022-12-25	19:56:51	20:03:01	364760	61076f4e081a7f76a8484506	369178700	1	main_z	7	main_z	11	stimuli_distractor_trianglediamonds.svg	stimuli_target_trianglecircles.svg	25	yes	44	1	514
6.6.1	win	2022-12-25	19:56:51	20:03:01	364760	61076f4e081a7f76a8484506	369178700	1	main_z	7	advance_on_keypress_ZEE	12	stimuli_distractor_trianglediamonds.svg	stimuli_target_trianglecircles.svg	25	yes	57	0	550
6.6.1	win	2022-12-25	19:56:51	20:03:03	366596	61076f4e081a7f76a8484506	369178700	1	main_z	7	main_z	13	stimuli_distractor_trianglediamonds.svg	stimuli_target_squarediamonds.svg	12	yes	44	1	633
6.6.1	win	2022-12-25	19:56:51	20:03:03	366596	61076f4e081a7f76a8484506	369178700	1	main_z	7	advance_on_keypress_ZEE	14	stimuli_distractor_trianglediamonds.svg	stimuli_target_squarediamonds.svg	12	yes	57	0	426
6.6.1	win	2022-12-25	19:56:51	20:03:04	368337	61076f4e081a7f76a8484506	369178700	1	main_z	7	main_z	15	stimuli_target_diamondsquares.svg	stimuli_distractor_trianglediamonds.svg	20	yes	44	1	659
6.6.1	win	2022-12-25	19:56:51	20:03:04	368337	61076f4e081a7f76a8484506	369178700	1	main_z	7	advance_on_keypress_ZEE	16	stimuli_target_diamondsquares.svg	stimuli_distractor_trianglediamonds.svg	20	yes	57	0	395
6.6.1	win	2022-12-25	19:56:51	20:03:06	370108	61076f4e081a7f76a8484506	369178700	1	main_z	7	main_z	17	stimuli_distractor_trianglediamonds.svg	stimuli_target_trianglesquares.svg	26	yes	44	1	696
6.6.1	win	2022-12-25	19:56:51	20:03:06	370108	61076f4e081a7f76a8484506	369178700	1	main_z	7	advance_on_keypress_ZEE	18	stimuli_distractor_trianglediamonds.svg	stimuli_target_trianglesquares.svg	26	yes	57	0	313
6.6.1	win	2022-12-25	19:56:51	20:03:08	371677	61076f4e081a7f76a8484506	369178700	1	main_z	7	main_z	19	stimuli_target_squaretriangles.svg	stimuli_distractor_trianglediamonds.svg	3	yes	44	1	581
6.6.1	win	2022-12-25	19:56:51	20:03:08	371677	61076f4e081a7f76a8484506	369178700	1	main_z	7	advance_on_keypress_ZEE	20	stimuli_target_squaretriangles.svg	stimuli_distractor_trianglediamonds.svg	3	yes	57	0	562
6.6.1	win	2022-12-25	19:56:51	20:03:11	374899	61076f4e081a7f76a8484506	369178700	1	main_z	7	main_z	21	stimuli_distractor_diamondtriangles.svg	stimuli_distractor_trianglediamonds.svg	37	no	0	1	2000
6.6.1	win	2022-12-25	19:56:51	20:03:11	374899	61076f4e081a7f76a8484506	369178700	1	main_z	7	advance_on_keypress_ZEE	22	stimuli_distractor_diamondtriangles.svg	stimuli_distractor_trianglediamonds.svg	37	no	57	0	577
6.6.1	win	2022-12-25	19:56:51	20:03:13	376749	61076f4e081a7f76a8484506	369178700	1	main_z	7	main_z	23	stimuli_distractor_diamondtriangles.svg	stimuli_target_diamondsquares.svg	32	yes	44	1	602
6.6.1	win	2022-12-25	19:56:51	20:03:13	376749	61076f4e081a7f76a8484506	369178700	1	main_z	7	advance_on_keypress_ZEE	24	stimuli_distractor_diamondtriangles.svg	stimuli_target_diamondsquares.svg	32	yes	57	0	337
6.6.1	win	2022-12-25	19:56:51	20:03:15	378743	61076f4e081a7f76a8484506	369178700	1	main_z	7	main_z	25	stimuli_distractor_diamondtriangles.svg	stimuli_target_squaretriangles.svg	15	yes	44	1	883
6.6.1	win	2022-12-25	19:56:51	20:03:15	378743	61076f4e081a7f76a8484506	369178700	1	main_z	7	advance_on_keypress_ZEE	26	stimuli_distractor_diamondtriangles.svg	stimuli_target_squaretriangles.svg	15	yes	57	0	224
6.6.1	win	2022-12-25	19:56:51	20:03:16	380436	61076f4e081a7f76a8484506	369178700	1	main_z	7	main_z	27	stimuli_target_circletriangles.svg	stimuli_distractor_diamondtriangles.svg	5	yes	44	1	802
6.6.1	win	2022-12-25	19:56:51	20:03:16	380436	61076f4e081a7f76a8484506	369178700	1	main_z	7	advance_on_keypress_ZEE	28	stimuli_target_circletriangles.svg	stimuli_distractor_diamondtriangles.svg	5	yes	57	0	258
6.6.1	win	2022-12-25	19:56:51	20:03:19	383367	61076f4e081a7f76a8484506	369178700	1	main_z	7	main_z	29	stimuli_distractor_trianglediamonds.svg	stimuli_distractor_diamondtriangles.svg	36	no	0	1	2000
6.6.1	win	2022-12-25	19:56:51	20:03:19	383367	61076f4e081a7f76a8484506	369178700	1	main_z	7	advance_on_keypress_ZEE	30	stimuli_distractor_trianglediamonds.svg	stimuli_distractor_diamondtriangles.svg	36	no	57	0	854
6.6.1	win	2022-12-25	19:56:51	20:03:23	386899	61076f4e081a7f76a8484506	369178700	1	main_z	7	main_z	31	stimuli_distractor_trianglediamonds.svg	stimuli_distractor_diamondtriangles.svg	35	no	0	1	2000
6.6.1	win	2022-12-25	19:56:51	20:03:23	386899	61076f4e081a7f76a8484506	369178700	1	main_z	7	advance_on_keypress_ZEE	32	stimuli_distractor_trianglediamonds.svg	stimuli_distractor_diamondtriangles.svg	35	no	57	0	673
6.6.1	win	2022-12-25	19:56:51	20:03:25	388790	61076f4e081a7f76a8484506	369178700	1	main_z	7	main_z	33	stimuli_target_diamondsquares.svg	stimuli_distractor_diamondtriangles.svg	24	yes	44	1	555
6.6.1	win	2022-12-25	19:56:51	20:03:25	388790	61076f4e081a7f76a8484506	369178700	1	main_z	7	advance_on_keypress_ZEE	34	stimuli_target_diamondsquares.svg	stimuli_distractor_diamondtriangles.svg	24	yes	57	0	403
6.6.1	win	2022-12-25	19:56:51	20:03:26	390397	61076f4e081a7f76a8484506	369178700	1	main_z	7	main_z	35	stimuli_target_trianglesquares.svg	stimuli_distractor_diamondtriangles.svg	22	yes	44	1	531
6.6.1	win	2022-12-25	19:56:51	20:03:26	390397	61076f4e081a7f76a8484506	369178700	1	main_z	7	advance_on_keypress_ZEE	36	stimuli_target_trianglesquares.svg	stimuli_distractor_diamondtriangles.svg	22	yes	57	0	352
6.6.1	win	2022-12-25	19:56:51	20:03:28	392030	61076f4e081a7f76a8484506	369178700	1	main_z	7	main_z	37	stimuli_target_squarediamonds.svg	stimuli_distractor_trianglediamonds.svg	4	yes	44	1	614
6.6.1	win	2022-12-25	19:56:51	20:03:28	392030	61076f4e081a7f76a8484506	369178700	1	main_z	7	advance_on_keypress_ZEE	38	stimuli_target_squarediamonds.svg	stimuli_distractor_trianglediamonds.svg	4	yes	57	0	372
6.6.1	win	2022-12-25	19:56:51	20:03:30	393737	61076f4e081a7f76a8484506	369178700	1	main_z	7	main_z	39	stimuli_target_squaretriangles.svg	stimuli_distractor_diamondtriangles.svg	7	yes	44	1	672
6.6.1	win	2022-12-25	19:56:51	20:03:30	393737	61076f4e081a7f76a8484506	369178700	1	main_z	7	advance_on_keypress_ZEE	40	stimuli_target_squaretriangles.svg	stimuli_distractor_diamondtriangles.svg	7	yes	57	0	413
6.6.1	win	2022-12-25	19:56:51	20:03:32	396340	61076f4e081a7f76a8484506	369178700	1	main_z	7	main_z	41	stimuli_distractor_diamondtriangles.svg	stimuli_target_squarediamonds.svg	16	yes	44	1	1523
6.6.1	win	2022-12-25	19:56:51	20:03:32	396340	61076f4e081a7f76a8484506	369178700	1	main_z	7	advance_on_keypress_ZEE	42	stimuli_distractor_diamondtriangles.svg	stimuli_target_squarediamonds.svg	16	yes	57	0	469
6.6.1	win	2022-12-25	19:56:51	20:03:35	399484	61076f4e081a7f76a8484506	369178700	1	main_z	7	main_z	43	stimuli_distractor_trianglediamonds.svg	stimuli_distractor_trianglediamonds.svg	33	no	0	1	2000
6.6.1	win	2022-12-25	19:56:51	20:03:35	399484	61076f4e081a7f76a8484506	369178700	1	main_z	7	advance_on_keypress_ZEE	44	stimuli_distractor_trianglediamonds.svg	stimuli_distractor_trianglediamonds.svg	33	no	57	0	418
6.6.1	win	2022-12-25	19:56:51	20:03:38	401855	61076f4e081a7f76a8484506	369178700	1	main_z	7	main_z	45	stimuli_distractor_diamondtriangles.svg	stimuli_target_circlediamonds.svg	14	yes	44	1	1266
6.6.1	win	2022-12-25	19:56:51	20:03:38	401855	61076f4e081a7f76a8484506	369178700	1	main_z	7	advance_on_keypress_ZEE	46	stimuli_distractor_diamondtriangles.svg	stimuli_target_circlediamonds.svg	14	yes	57	0	367
6.6.1	win	2022-12-25	19:56:51	20:03:40	403710	61076f4e081a7f76a8484506	369178700	1	main_z	7	main_z	47	stimuli_target_trianglecircles.svg	stimuli_distractor_diamondtriangles.svg	21	yes	44	1	823
6.6.1	win	2022-12-25	19:56:51	20:03:40	403710	61076f4e081a7f76a8484506	369178700	1	main_z	7	advance_on_keypress_ZEE	48	stimuli_target_trianglecircles.svg	stimuli_distractor_diamondtriangles.svg	21	yes	57	0	367
6.6.1	win	2022-12-25	19:56:51	20:03:42	405782	61076f4e081a7f76a8484506	369178700	1	main_z	7	main_z	49	stimuli_target_circletriangles.svg	stimuli_distractor_trianglediamonds.svg	1	yes	44	1	1044
6.6.1	win	2022-12-25	19:56:51	20:03:42	405782	61076f4e081a7f76a8484506	369178700	1	main_z	7	advance_on_keypress_ZEE	50	stimuli_target_circletriangles.svg	stimuli_distractor_trianglediamonds.svg	1	yes	57	0	430
6.6.1	win	2022-12-25	19:56:51	20:03:43	407485	61076f4e081a7f76a8484506	369178700	1	main_z	7	main_z	51	stimuli_distractor_trianglediamonds.svg	stimuli_target_circlediamonds.svg	10	yes	44	1	616
6.6.1	win	2022-12-25	19:56:51	20:03:43	407485	61076f4e081a7f76a8484506	369178700	1	main_z	7	advance_on_keypress_ZEE	52	stimuli_distractor_trianglediamonds.svg	stimuli_target_circlediamonds.svg	10	yes	57	0	382
6.6.1	win	2022-12-25	19:56:51	20:03:45	409041	61076f4e081a7f76a8484506	369178700	1	main_z	7	main_z	53	stimuli_distractor_diamondtriangles.svg	stimuli_target_trianglecircles.svg	29	yes	44	1	520
6.6.1	win	2022-12-25	19:56:51	20:03:45	409041	61076f4e081a7f76a8484506	369178700	1	main_z	7	advance_on_keypress_ZEE	54	stimuli_distractor_diamondtriangles.svg	stimuli_target_trianglecircles.svg	29	yes	57	0	315
6.6.1	win	2022-12-25	19:56:51	20:03:47	410534	61076f4e081a7f76a8484506	369178700	1	main_z	7	main_z	55	stimuli_target_trianglecircles.svg	stimuli_distractor_trianglediamonds.svg	17	yes	44	1	498
6.6.1	win	2022-12-25	19:56:51	20:03:47	410534	61076f4e081a7f76a8484506	369178700	1	main_z	7	advance_on_keypress_ZEE	56	stimuli_target_trianglecircles.svg	stimuli_distractor_trianglediamonds.svg	17	yes	57	0	324
6.6.1	win	2022-12-25	19:56:51	20:03:48	412078	61076f4e081a7f76a8484506	369178700	1	main_z	7	main_z	57	stimuli_target_trianglesquares.svg	stimuli_distractor_trianglediamonds.svg	18	yes	44	1	555
6.6.1	win	2022-12-25	19:56:51	20:03:48	412078	61076f4e081a7f76a8484506	369178700	1	main_z	7	advance_on_keypress_ZEE	58	stimuli_target_trianglesquares.svg	stimuli_distractor_trianglediamonds.svg	18	yes	57	0	329
6.6.1	win	2022-12-25	19:56:51	20:03:50	414003	61076f4e081a7f76a8484506	369178700	1	main_z	7	main_z	59	stimuli_distractor_trianglediamonds.svg	stimuli_target_circletriangles.svg	9	yes	44	1	880
6.6.1	win	2022-12-25	19:56:51	20:03:50	414003	61076f4e081a7f76a8484506	369178700	1	main_z	7	advance_on_keypress_ZEE	60	stimuli_distractor_trianglediamonds.svg	stimuli_target_circletriangles.svg	9	yes	57	0	341
6.6.1	win	2022-12-25	19:56:51	20:03:51	415530	61076f4e081a7f76a8484506	369178700	1	main_z	7	main_z	61	stimuli_target_diamondcircles.svg	stimuli_distractor_trianglediamonds.svg	19	yes	44	1	524
6.6.1	win	2022-12-25	19:56:51	20:03:51	415530	61076f4e081a7f76a8484506	369178700	1	main_z	7	advance_on_keypress_ZEE	62	stimuli_target_diamondcircles.svg	stimuli_distractor_trianglediamonds.svg	19	yes	57	0	348
6.6.1	win	2022-12-25	19:56:51	20:03:53	417190	61076f4e081a7f76a8484506	369178700	1	main_z	7	main_z	63	stimuli_distractor_trianglediamonds.svg	stimuli_target_squaretriangles.svg	11	yes	44	1	652
6.6.1	win	2022-12-25	19:56:51	20:03:53	417190	61076f4e081a7f76a8484506	369178700	1	main_z	7	advance_on_keypress_ZEE	64	stimuli_distractor_trianglediamonds.svg	stimuli_target_squaretriangles.svg	11	yes	57	0	277
6.6.1	win	2022-12-25	19:56:51	20:03:56	420155	61076f4e081a7f76a8484506	369178700	1	main_z	7	main_z	65	stimuli_distractor_diamondtriangles.svg	stimuli_distractor_diamondtriangles.svg	40	no	0	1	2000
6.6.1	win	2022-12-25	19:56:51	20:03:56	420155	61076f4e081a7f76a8484506	369178700	1	main_z	7	advance_on_keypress_ZEE	66	stimuli_distractor_diamondtriangles.svg	stimuli_distractor_diamondtriangles.svg	40	no	57	0	543
6.6.1	win	2022-12-25	19:56:51	20:03:58	421808	61076f4e081a7f76a8484506	369178700	1	main_z	7	main_z	67	stimuli_distractor_diamondtriangles.svg	stimuli_target_diamondcircles.svg	31	yes	44	1	452
6.6.1	win	2022-12-25	19:56:51	20:03:58	421808	61076f4e081a7f76a8484506	369178700	1	main_z	7	advance_on_keypress_ZEE	68	stimuli_distractor_diamondtriangles.svg	stimuli_target_diamondcircles.svg	31	yes	57	0	521
6.6.1	win	2022-12-25	19:56:51	20:03:59	423480	61076f4e081a7f76a8484506	369178700	1	main_z	7	main_z	69	stimuli_distractor_trianglediamonds.svg	stimuli_target_diamondcircles.svg	27	yes	44	1	444
6.6.1	win	2022-12-25	19:56:51	20:03:59	423480	61076f4e081a7f76a8484506	369178700	1	main_z	7	advance_on_keypress_ZEE	70	stimuli_distractor_trianglediamonds.svg	stimuli_target_diamondcircles.svg	27	yes	57	0	285
6.6.1	win	2022-12-25	19:56:51	20:04:01	425164	61076f4e081a7f76a8484506	369178700	1	main_z	7	main_z	71	stimuli_target_circlediamonds.svg	stimuli_distractor_diamondtriangles.svg	6	yes	44	1	635
6.6.1	win	2022-12-25	19:56:51	20:04:01	425164	61076f4e081a7f76a8484506	369178700	1	main_z	7	advance_on_keypress_ZEE	72	stimuli_target_circlediamonds.svg	stimuli_distractor_diamondtriangles.svg	6	yes	57	0	222
6.6.1	win	2022-12-25	19:56:51	20:04:04	428100	61076f4e081a7f76a8484506	369178700	1	main_z	7	main_z	73	stimuli_distractor_trianglediamonds.svg	stimuli_distractor_trianglediamonds.svg	34	no	0	1	2000
6.6.1	win	2022-12-25	19:56:51	20:04:04	428100	61076f4e081a7f76a8484506	369178700	1	main_z	7	advance_on_keypress_ZEE	74	stimuli_distractor_trianglediamonds.svg	stimuli_distractor_trianglediamonds.svg	34	no	57	0	686
6.6.1	win	2022-12-25	19:56:51	20:04:06	429918	61076f4e081a7f76a8484506	369178700	1	main_z	7	main_z	75	stimuli_target_circlediamonds.svg	stimuli_distractor_trianglediamonds.svg	2	yes	44	1	468
6.6.1	win	2022-12-25	19:56:51	20:04:06	429918	61076f4e081a7f76a8484506	369178700	1	main_z	7	advance_on_keypress_ZEE	76	stimuli_target_circlediamonds.svg	stimuli_distractor_trianglediamonds.svg	2	yes	57	0	304
6.6.1	win	2022-12-25	19:56:51	20:04:08	431564	61076f4e081a7f76a8484506	369178700	1	main_z	7	main_z	77	stimuli_distractor_diamondtriangles.svg	stimuli_target_trianglesquares.svg	30	yes	44	1	674
6.6.1	win	2022-12-25	19:56:51	20:04:08	431564	61076f4e081a7f76a8484506	369178700	1	main_z	7	advance_on_keypress_ZEE	78	stimuli_distractor_diamondtriangles.svg	stimuli_target_trianglesquares.svg	30	yes	57	0	284
6.6.1	win	2022-12-25	19:56:51	20:04:11	434695	61076f4e081a7f76a8484506	369178700	1	main_z	7	main_z	79	stimuli_distractor_diamondtriangles.svg	stimuli_distractor_trianglediamonds.svg	38	no	0	1	2000
6.6.1	win	2022-12-25	19:56:51	20:04:11	434695	61076f4e081a7f76a8484506	369178700	1	main_z	7	advance_on_keypress_ZEE	80	stimuli_distractor_diamondtriangles.svg	stimuli_distractor_trianglediamonds.svg	38	no	57	0	1045
6.6.1	win	2022-12-25	19:56:51	20:04:13	437258	61076f4e081a7f76a8484506	369178700	1	main_z	7	main_z	81	stimuli_distractor_trianglediamonds.svg	stimuli_target_diamondcircles.svg	27	yes	44	1	547
6.6.1	win	2022-12-25	19:56:51	20:04:13	437258	61076f4e081a7f76a8484506	369178700	1	main_z	7	advance_on_keypress_ZEE	82	stimuli_distractor_trianglediamonds.svg	stimuli_target_diamondcircles.svg	27	yes	57	0	592
6.6.1	win	2022-12-25	19:56:51	20:04:15	439227	61076f4e081a7f76a8484506	369178700	1	main_z	7	main_z	83	stimuli_distractor_diamondtriangles.svg	stimuli_target_trianglesquares.svg	30	yes	44	1	595
6.6.1	win	2022-12-25	19:56:51	20:04:15	439227	61076f4e081a7f76a8484506	369178700	1	main_z	7	advance_on_keypress_ZEE	84	stimuli_distractor_diamondtriangles.svg	stimuli_target_trianglesquares.svg	30	yes	57	0	537
6.6.1	win	2022-12-25	19:56:51	20:04:17	441093	61076f4e081a7f76a8484506	369178700	1	main_z	7	main_z	85	stimuli_target_diamondsquares.svg	stimuli_distractor_diamondtriangles.svg	24	yes	44	1	591
6.6.1	win	2022-12-25	19:56:51	20:04:17	441093	61076f4e081a7f76a8484506	369178700	1	main_z	7	advance_on_keypress_ZEE	86	stimuli_target_diamondsquares.svg	stimuli_distractor_diamondtriangles.svg	24	yes	57	0	479
6.6.1	win	2022-12-25	19:56:51	20:04:19	442884	61076f4e081a7f76a8484506	369178700	1	main_z	7	main_z	87	stimuli_distractor_diamondtriangles.svg	stimuli_target_diamondcircles.svg	31	yes	44	1	572
6.6.1	win	2022-12-25	19:56:51	20:04:19	442884	61076f4e081a7f76a8484506	369178700	1	main_z	7	advance_on_keypress_ZEE	88	stimuli_distractor_diamondtriangles.svg	stimuli_target_diamondcircles.svg	31	yes	57	0	253
6.6.1	win	2022-12-25	19:56:51	20:04:20	444498	61076f4e081a7f76a8484506	369178700	1	main_z	7	main_z	89	stimuli_target_circletriangles.svg	stimuli_distractor_diamondtriangles.svg	5	yes	44	1	605
6.6.1	win	2022-12-25	19:56:51	20:04:20	444498	61076f4e081a7f76a8484506	369178700	1	main_z	7	advance_on_keypress_ZEE	90	stimuli_target_circletriangles.svg	stimuli_distractor_diamondtriangles.svg	5	yes	57	0	324
6.6.1	win	2022-12-25	19:56:51	20:04:22	446172	61076f4e081a7f76a8484506	369178700	1	main_z	7	main_z	91	stimuli_distractor_diamondtriangles.svg	stimuli_target_circlediamonds.svg	14	yes	44	1	602
6.6.1	win	2022-12-25	19:56:51	20:04:22	446172	61076f4e081a7f76a8484506	369178700	1	main_z	7	advance_on_keypress_ZEE	92	stimuli_distractor_diamondtriangles.svg	stimuli_target_circlediamonds.svg	14	yes	57	0	300
6.6.1	win	2022-12-25	19:56:51	20:04:25	449159	61076f4e081a7f76a8484506	369178700	1	main_z	7	main_z	93	stimuli_distractor_trianglediamonds.svg	stimuli_distractor_trianglediamonds.svg	34	no	0	1	2000
6.6.1	win	2022-12-25	19:56:51	20:04:25	449159	61076f4e081a7f76a8484506	369178700	1	main_z	7	advance_on_keypress_ZEE	94	stimuli_distractor_trianglediamonds.svg	stimuli_distractor_trianglediamonds.svg	34	no	57	0	454
6.6.1	win	2022-12-25	19:56:51	20:04:27	450670	61076f4e081a7f76a8484506	369178700	1	main_z	7	main_z	95	stimuli_target_diamondcircles.svg	stimuli_distractor_diamondtriangles.svg	23	yes	44	1	392
6.6.1	win	2022-12-25	19:56:51	20:04:27	450670	61076f4e081a7f76a8484506	369178700	1	main_z	7	advance_on_keypress_ZEE	96	stimuli_target_diamondcircles.svg	stimuli_distractor_diamondtriangles.svg	23	yes	57	0	411
6.6.1	win	2022-12-25	19:56:51	20:04:28	452196	61076f4e081a7f76a8484506	369178700	1	main_z	7	main_z	97	stimuli_target_squarediamonds.svg	stimuli_distractor_diamondtriangles.svg	8	yes	44	1	451
6.6.1	win	2022-12-25	19:56:51	20:04:28	452196	61076f4e081a7f76a8484506	369178700	1	main_z	7	advance_on_keypress_ZEE	98	stimuli_target_squarediamonds.svg	stimuli_distractor_diamondtriangles.svg	8	yes	57	0	358
6.6.1	win	2022-12-25	19:56:51	20:04:30	454140	61076f4e081a7f76a8484506	369178700	1	main_z	7	main_z	99	stimuli_distractor_diamondtriangles.svg	stimuli_target_circletriangles.svg	13	yes	44	1	863
6.6.1	win	2022-12-25	19:56:51	20:04:30	454140	61076f4e081a7f76a8484506	369178700	1	main_z	7	advance_on_keypress_ZEE	100	stimuli_distractor_diamondtriangles.svg	stimuli_target_circletriangles.svg	13	yes	57	0	373
6.6.1	win	2022-12-25	19:56:51	20:04:33	457180	61076f4e081a7f76a8484506	369178700	1	main_z	7	main_z	101	stimuli_distractor_trianglediamonds.svg	stimuli_distractor_trianglediamonds.svg	33	no	0	1	2000
6.6.1	win	2022-12-25	19:56:51	20:04:33	457180	61076f4e081a7f76a8484506	369178700	1	main_z	7	advance_on_keypress_ZEE	102	stimuli_distractor_trianglediamonds.svg	stimuli_distractor_trianglediamonds.svg	33	no	57	0	477
6.6.1	win	2022-12-25	19:56:51	20:04:35	458906	61076f4e081a7f76a8484506	369178700	1	main_z	7	main_z	103	stimuli_target_trianglecircles.svg	stimuli_distractor_diamondtriangles.svg	21	yes	44	1	595
6.6.1	win	2022-12-25	19:56:51	20:04:35	458906	61076f4e081a7f76a8484506	369178700	1	main_z	7	advance_on_keypress_ZEE	104	stimuli_target_trianglecircles.svg	stimuli_distractor_diamondtriangles.svg	21	yes	57	0	441
6.6.1	win	2022-12-25	19:56:51	20:04:37	460547	61076f4e081a7f76a8484506	369178700	1	main_z	7	main_z	105	stimuli_target_circletriangles.svg	stimuli_distractor_trianglediamonds.svg	1	yes	44	1	514
6.6.1	win	2022-12-25	19:56:51	20:04:37	460547	61076f4e081a7f76a8484506	369178700	1	main_z	7	advance_on_keypress_ZEE	106	stimuli_target_circletriangles.svg	stimuli_distractor_trianglediamonds.svg	1	yes	57	0	274
6.6.1	win	2022-12-25	19:56:51	20:04:38	462020	61076f4e081a7f76a8484506	369178700	1	main_z	7	main_z	107	stimuli_target_diamondcircles.svg	stimuli_distractor_trianglediamonds.svg	19	yes	44	1	470
6.6.1	win	2022-12-25	19:56:51	20:04:38	462020	61076f4e081a7f76a8484506	369178700	1	main_z	7	advance_on_keypress_ZEE	108	stimuli_target_diamondcircles.svg	stimuli_distractor_trianglediamonds.svg	19	yes	57	0	324
6.6.1	win	2022-12-25	19:56:51	20:04:40	463582	61076f4e081a7f76a8484506	369178700	1	main_z	7	main_z	109	stimuli_distractor_trianglediamonds.svg	stimuli_target_trianglesquares.svg	26	yes	44	1	467
6.6.1	win	2022-12-25	19:56:51	20:04:40	463582	61076f4e081a7f76a8484506	369178700	1	main_z	7	advance_on_keypress_ZEE	110	stimuli_distractor_trianglediamonds.svg	stimuli_target_trianglesquares.svg	26	yes	57	0	330
6.6.1	win	2022-12-25	19:56:51	20:04:43	466668	61076f4e081a7f76a8484506	369178700	1	main_z	7	main_z	111	stimuli_distractor_diamondtriangles.svg	stimuli_distractor_diamondtriangles.svg	40	no	0	1	2000
6.6.1	win	2022-12-25	19:56:51	20:04:43	466668	61076f4e081a7f76a8484506	369178700	1	main_z	7	advance_on_keypress_ZEE	112	stimuli_distractor_diamondtriangles.svg	stimuli_distractor_diamondtriangles.svg	40	no	57	0	559
6.6.1	win	2022-12-25	19:56:51	20:04:46	469994	61076f4e081a7f76a8484506	369178700	1	main_z	7	main_z	113	stimuli_distractor_trianglediamonds.svg	stimuli_distractor_diamondtriangles.svg	36	no	0	1	2000
6.6.1	win	2022-12-25	19:56:51	20:04:46	469994	61076f4e081a7f76a8484506	369178700	1	main_z	7	advance_on_keypress_ZEE	114	stimuli_distractor_trianglediamonds.svg	stimuli_distractor_diamondtriangles.svg	36	no	57	0	792
6.6.1	win	2022-12-25	19:56:51	20:04:48	472100	61076f4e081a7f76a8484506	369178700	1	main_z	7	main_z	115	stimuli_distractor_diamondtriangles.svg	stimuli_target_squarediamonds.svg	16	yes	44	1	634
6.6.1	win	2022-12-25	19:56:51	20:04:48	472100	61076f4e081a7f76a8484506	369178700	1	main_z	7	advance_on_keypress_ZEE	116	stimuli_distractor_diamondtriangles.svg	stimuli_target_squarediamonds.svg	16	yes	57	0	314
6.6.1	win	2022-12-25	19:56:51	20:04:50	474422	61076f4e081a7f76a8484506	369178700	1	main_z	7	main_z	117	stimuli_distractor_trianglediamonds.svg	stimuli_target_squaretriangles.svg	11	yes	44	1	1290
6.6.1	win	2022-12-25	19:56:51	20:04:50	474422	61076f4e081a7f76a8484506	369178700	1	main_z	7	advance_on_keypress_ZEE	118	stimuli_distractor_trianglediamonds.svg	stimuli_target_squaretriangles.svg	11	yes	57	0	625
6.6.1	win	2022-12-25	19:56:51	20:04:52	476274	61076f4e081a7f76a8484506	369178700	1	main_z	7	main_z	119	stimuli_target_squarediamonds.svg	stimuli_distractor_trianglediamonds.svg	4	yes	44	1	553
6.6.1	win	2022-12-25	19:56:51	20:04:52	476274	61076f4e081a7f76a8484506	369178700	1	main_z	7	advance_on_keypress_ZEE	120	stimuli_target_squarediamonds.svg	stimuli_distractor_trianglediamonds.svg	4	yes	57	0	283
6.6.1	win	2022-12-25	19:56:51	20:04:54	477753	61076f4e081a7f76a8484506	369178700	1	main_z	7	main_z	121	stimuli_target_trianglesquares.svg	stimuli_distractor_trianglediamonds.svg	18	yes	44	1	503
6.6.1	win	2022-12-25	19:56:51	20:04:54	477753	61076f4e081a7f76a8484506	369178700	1	main_z	7	advance_on_keypress_ZEE	122	stimuli_target_trianglesquares.svg	stimuli_distractor_trianglediamonds.svg	18	yes	57	0	329
6.6.1	win	2022-12-25	19:56:51	20:04:56	479975	61076f4e081a7f76a8484506	369178700	1	main_z	7	main_z	123	stimuli_distractor_trianglediamonds.svg	stimuli_target_trianglecircles.svg	25	yes	44	1	1183
6.6.1	win	2022-12-25	19:56:51	20:04:56	479975	61076f4e081a7f76a8484506	369178700	1	main_z	7	advance_on_keypress_ZEE	124	stimuli_distractor_trianglediamonds.svg	stimuli_target_trianglecircles.svg	25	yes	57	0	272
6.6.1	win	2022-12-25	19:56:51	20:04:58	481855	61076f4e081a7f76a8484506	369178700	1	main_z	7	main_z	125	stimuli_distractor_trianglediamonds.svg	stimuli_target_squarediamonds.svg	12	yes	44	1	845
6.6.1	win	2022-12-25	19:56:51	20:04:58	481855	61076f4e081a7f76a8484506	369178700	1	main_z	7	advance_on_keypress_ZEE	126	stimuli_distractor_trianglediamonds.svg	stimuli_target_squarediamonds.svg	12	yes	57	0	257
6.6.1	win	2022-12-25	19:56:51	20:05:00	483629	61076f4e081a7f76a8484506	369178700	1	main_z	7	main_z	127	stimuli_distractor_trianglediamonds.svg	stimuli_target_circlediamonds.svg	10	yes	44	1	828
6.6.1	win	2022-12-25	19:56:51	20:05:00	483629	61076f4e081a7f76a8484506	369178700	1	main_z	7	advance_on_keypress_ZEE	128	stimuli_distractor_trianglediamonds.svg	stimuli_target_circlediamonds.svg	10	yes	57	0	270
6.6.1	win	2022-12-25	19:56:51	20:05:03	486587	61076f4e081a7f76a8484506	369178700	1	main_z	7	main_z	129	stimuli_distractor_diamondtriangles.svg	stimuli_distractor_trianglediamonds.svg	38	no	0	1	2000
6.6.1	win	2022-12-25	19:56:51	20:05:03	486587	61076f4e081a7f76a8484506	369178700	1	main_z	7	advance_on_keypress_ZEE	130	stimuli_distractor_diamondtriangles.svg	stimuli_distractor_trianglediamonds.svg	38	no	57	0	846
6.6.1	win	2022-12-25	19:56:51	20:05:05	488644	61076f4e081a7f76a8484506	369178700	1	main_z	7	main_z	131	stimuli_distractor_diamondtriangles.svg	stimuli_target_trianglecircles.svg	29	yes	44	1	540
6.6.1	win	2022-12-25	19:56:51	20:05:05	488644	61076f4e081a7f76a8484506	369178700	1	main_z	7	advance_on_keypress_ZEE	132	stimuli_distractor_diamondtriangles.svg	stimuli_target_trianglecircles.svg	29	yes	57	0	284
6.6.1	win	2022-12-25	19:56:51	20:05:06	490198	61076f4e081a7f76a8484506	369178700	1	main_z	7	main_z	133	stimuli_distractor_trianglediamonds.svg	stimuli_target_circletriangles.svg	9	yes	44	1	585
6.6.1	win	2022-12-25	19:56:51	20:05:06	490198	61076f4e081a7f76a8484506	369178700	1	main_z	7	advance_on_keypress_ZEE	134	stimuli_distractor_trianglediamonds.svg	stimuli_target_circletriangles.svg	9	yes	57	0	482
6.6.1	win	2022-12-25	19:56:51	20:05:08	492006	61076f4e081a7f76a8484506	369178700	1	main_z	7	main_z	135	stimuli_distractor_diamondtriangles.svg	stimuli_target_squaretriangles.svg	15	yes	44	1	597
6.6.1	win	2022-12-25	19:56:51	20:05:08	492006	61076f4e081a7f76a8484506	369178700	1	main_z	7	advance_on_keypress_ZEE	136	stimuli_distractor_diamondtriangles.svg	stimuli_target_squaretriangles.svg	15	yes	57	0	293
6.6.1	win	2022-12-25	19:56:51	20:05:10	493905	61076f4e081a7f76a8484506	369178700	1	main_z	7	main_z	137	stimuli_distractor_trianglediamonds.svg	stimuli_target_diamondsquares.svg	28	yes	44	1	876
6.6.1	win	2022-12-25	19:56:51	20:05:10	493905	61076f4e081a7f76a8484506	369178700	1	main_z	7	advance_on_keypress_ZEE	138	stimuli_distractor_trianglediamonds.svg	stimuli_target_diamondsquares.svg	28	yes	57	0	243
6.6.1	win	2022-12-25	19:56:51	20:05:13	496903	61076f4e081a7f76a8484506	369178700	1	main_z	7	main_z	139	stimuli_distractor_diamondtriangles.svg	stimuli_distractor_diamondtriangles.svg	39	no	0	1	2000
6.6.1	win	2022-12-25	19:56:51	20:05:13	496903	61076f4e081a7f76a8484506	369178700	1	main_z	7	advance_on_keypress_ZEE	140	stimuli_distractor_diamondtriangles.svg	stimuli_distractor_diamondtriangles.svg	39	no	57	0	322
6.6.1	win	2022-12-25	19:56:51	20:05:14	498351	61076f4e081a7f76a8484506	369178700	1	main_z	7	main_z	141	stimuli_target_circlediamonds.svg	stimuli_distractor_diamondtriangles.svg	6	yes	44	1	457
6.6.1	win	2022-12-25	19:56:51	20:05:14	498351	61076f4e081a7f76a8484506	369178700	1	main_z	7	advance_on_keypress_ZEE	142	stimuli_target_circlediamonds.svg	stimuli_distractor_diamondtriangles.svg	6	yes	57	0	521
6.6.1	win	2022-12-25	19:56:51	20:05:18	501537	61076f4e081a7f76a8484506	369178700	1	main_z	7	main_z	143	stimuli_distractor_diamondtriangles.svg	stimuli_distractor_trianglediamonds.svg	37	no	0	1	2000
6.6.1	win	2022-12-25	19:56:51	20:05:18	501537	61076f4e081a7f76a8484506	369178700	1	main_z	7	advance_on_keypress_ZEE	144	stimuli_distractor_diamondtriangles.svg	stimuli_distractor_trianglediamonds.svg	37	no	57	0	600
6.6.1	win	2022-12-25	19:56:51	20:05:20	503676	61076f4e081a7f76a8484506	369178700	1	main_z	7	main_z	145	stimuli_target_diamondsquares.svg	stimuli_distractor_trianglediamonds.svg	20	yes	44	1	872
6.6.1	win	2022-12-25	19:56:51	20:05:20	503676	61076f4e081a7f76a8484506	369178700	1	main_z	7	advance_on_keypress_ZEE	146	stimuli_target_diamondsquares.svg	stimuli_distractor_trianglediamonds.svg	20	yes	57	0	357
6.6.1	win	2022-12-25	19:56:51	20:05:21	505169	61076f4e081a7f76a8484506	369178700	1	main_z	7	main_z	147	stimuli_target_trianglecircles.svg	stimuli_distractor_trianglediamonds.svg	17	yes	44	1	461
6.6.1	win	2022-12-25	19:56:51	20:05:21	505169	61076f4e081a7f76a8484506	369178700	1	main_z	7	advance_on_keypress_ZEE	148	stimuli_target_trianglecircles.svg	stimuli_distractor_trianglediamonds.svg	17	yes	57	0	315
6.6.1	win	2022-12-25	19:56:51	20:05:23	506651	61076f4e081a7f76a8484506	369178700	1	main_z	7	main_z	149	stimuli_target_squaretriangles.svg	stimuli_distractor_diamondtriangles.svg	7	yes	44	1	508
6.6.1	win	2022-12-25	19:56:51	20:05:23	506651	61076f4e081a7f76a8484506	369178700	1	main_z	7	advance_on_keypress_ZEE	150	stimuli_target_squaretriangles.svg	stimuli_distractor_diamondtriangles.svg	7	yes	57	0	284
6.6.1	win	2022-12-25	19:56:51	20:05:24	508177	61076f4e081a7f76a8484506	369178700	1	main_z	7	main_z	151	stimuli_target_circlediamonds.svg	stimuli_distractor_trianglediamonds.svg	2	yes	44	1	538
6.6.1	win	2022-12-25	19:56:51	20:05:24	508177	61076f4e081a7f76a8484506	369178700	1	main_z	7	advance_on_keypress_ZEE	152	stimuli_target_circlediamonds.svg	stimuli_distractor_trianglediamonds.svg	2	yes	57	0	215
6.6.1	win	2022-12-25	19:56:51	20:05:26	509600	61076f4e081a7f76a8484506	369178700	1	main_z	7	main_z	153	stimuli_target_trianglesquares.svg	stimuli_distractor_diamondtriangles.svg	22	yes	44	1	479
6.6.1	win	2022-12-25	19:56:51	20:05:26	509600	61076f4e081a7f76a8484506	369178700	1	main_z	7	advance_on_keypress_ZEE	154	stimuli_target_trianglesquares.svg	stimuli_distractor_diamondtriangles.svg	22	yes	57	0	213
6.6.1	win	2022-12-25	19:56:51	20:05:27	510995	61076f4e081a7f76a8484506	369178700	1	main_z	7	main_z	155	stimuli_target_squaretriangles.svg	stimuli_distractor_trianglediamonds.svg	3	yes	44	1	522
6.6.1	win	2022-12-25	19:56:51	20:05:27	510995	61076f4e081a7f76a8484506	369178700	1	main_z	7	advance_on_keypress_ZEE	156	stimuli_target_squaretriangles.svg	stimuli_distractor_trianglediamonds.svg	3	yes	57	0	141
6.6.1	win	2022-12-25	19:56:51	20:05:28	512376	61076f4e081a7f76a8484506	369178700	1	main_z	7	main_z	157	stimuli_distractor_diamondtriangles.svg	stimuli_target_diamondsquares.svg	32	yes	44	1	571
6.6.1	win	2022-12-25	19:56:51	20:05:28	512376	61076f4e081a7f76a8484506	369178700	1	main_z	7	advance_on_keypress_ZEE	158	stimuli_distractor_diamondtriangles.svg	stimuli_target_diamondsquares.svg	32	yes	57	0	229
6.6.1	win	2022-12-25	19:56:51	20:05:30	513704	61076f4e081a7f76a8484506	369178700	1	main_z	7	main_z	159	stimuli_distractor_trianglediamonds.svg	stimuli_distractor_diamondtriangles.svg	35	no	44	0	432
6.6.1	win	2022-12-25	19:56:51	20:05:30	513704	61076f4e081a7f76a8484506	369178700	1	main_z	7	advance_on_keypress_ZEE	160	stimuli_distractor_trianglediamonds.svg	stimuli_distractor_diamondtriangles.svg	35	no	57	0	707
6.6.1	win	2022-12-25	19:56:51	20:05:53	537285	61076f4e081a7f76a8484506	369178700	1	practice_slash	9	practice_slash	1	stimuli_distractor_diamondtriangles.svg	stimuli_target_circletriangles.svg	7	yes	53	1	487
6.6.1	win	2022-12-25	19:56:51	20:05:53	537285	61076f4e081a7f76a8484506	369178700	1	practice_slash	9	advance_on_keypress_SLASH	2	stimuli_distractor_diamondtriangles.svg	stimuli_target_circletriangles.svg	7	yes	57	0	1429
6.6.1	win	2022-12-25	19:56:51	20:05:57	540980	61076f4e081a7f76a8484506	369178700	1	practice_slash	9	practice_slash	3	stimuli_target_squarediamonds.svg	stimuli_distractor_trianglediamonds.svg	5	yes	53	1	566
6.6.1	win	2022-12-25	19:56:51	20:05:57	540980	61076f4e081a7f76a8484506	369178700	1	practice_slash	9	advance_on_keypress_SLASH	4	stimuli_target_squarediamonds.svg	stimuli_distractor_trianglediamonds.svg	5	yes	57	0	401
6.6.1	win	2022-12-25	19:56:51	20:06:00	543620	61076f4e081a7f76a8484506	369178700	1	practice_slash	9	practice_slash	5	stimuli_target_circlediamonds.svg	stimuli_distractor_diamondtriangles.svg	1	yes	53	1	555
6.6.1	win	2022-12-25	19:56:51	20:06:00	543620	61076f4e081a7f76a8484506	369178700	1	practice_slash	9	advance_on_keypress_SLASH	6	stimuli_target_circlediamonds.svg	stimuli_distractor_diamondtriangles.svg	1	yes	57	0	339
6.6.1	win	2022-12-25	19:56:51	20:06:04	547632	61076f4e081a7f76a8484506	369178700	1	practice_slash	9	practice_slash	7	stimuli_distractor_trianglediamonds.svg	stimuli_distractor_trianglediamonds.svg	15	no	0	1	2000
6.6.1	win	2022-12-25	19:56:51	20:06:04	547632	61076f4e081a7f76a8484506	369178700	1	practice_slash	9	advance_on_keypress_SLASH	8	stimuli_distractor_trianglediamonds.svg	stimuli_distractor_trianglediamonds.svg	15	no	57	0	21
6.6.1	win	2022-12-25	19:56:51	20:06:07	551332	61076f4e081a7f76a8484506	369178700	1	practice_slash	9	practice_slash	9	stimuli_distractor_diamondtriangles.svg	stimuli_distractor_trianglediamonds.svg	14	no	0	1	2000
6.6.1	win	2022-12-25	19:56:51	20:06:07	551332	61076f4e081a7f76a8484506	369178700	1	practice_slash	9	advance_on_keypress_SLASH	10	stimuli_distractor_diamondtriangles.svg	stimuli_distractor_trianglediamonds.svg	14	no	57	0	876
6.6.1	win	2022-12-25	19:56:51	20:06:11	554662	61076f4e081a7f76a8484506	369178700	1	practice_slash	9	practice_slash	11	stimuli_target_diamondsquares.svg	stimuli_distractor_trianglediamonds.svg	6	yes	53	1	778
6.6.1	win	2022-12-25	19:56:51	20:06:11	554662	61076f4e081a7f76a8484506	369178700	1	practice_slash	9	advance_on_keypress_SLASH	12	stimuli_target_diamondsquares.svg	stimuli_distractor_trianglediamonds.svg	6	yes	57	0	588
6.6.1	win	2022-12-25	19:56:51	20:06:14	557594	61076f4e081a7f76a8484506	369178700	1	practice_slash	9	practice_slash	13	stimuli_target_squarediamonds.svg	stimuli_distractor_diamondtriangles.svg	2	yes	53	1	677
6.6.1	win	2022-12-25	19:56:51	20:06:14	557594	61076f4e081a7f76a8484506	369178700	1	practice_slash	9	advance_on_keypress_SLASH	14	stimuli_target_squarediamonds.svg	stimuli_distractor_diamondtriangles.svg	2	yes	57	0	380
6.6.1	win	2022-12-25	19:56:51	20:06:16	560519	61076f4e081a7f76a8484506	369178700	1	practice_slash	9	practice_slash	15	stimuli_distractor_trianglediamonds.svg	stimuli_target_squarediamonds.svg	11	yes	53	1	869
6.6.1	win	2022-12-25	19:56:51	20:06:16	560519	61076f4e081a7f76a8484506	369178700	1	practice_slash	9	advance_on_keypress_SLASH	16	stimuli_distractor_trianglediamonds.svg	stimuli_target_squarediamonds.svg	11	yes	57	0	473
6.6.1	win	2022-12-25	19:56:51	20:06:19	563240	61076f4e081a7f76a8484506	369178700	1	practice_slash	9	practice_slash	17	stimuli_distractor_diamondtriangles.svg	stimuli_target_trianglecircles.svg	9	yes	53	1	572
6.6.1	win	2022-12-25	19:56:51	20:06:19	563240	61076f4e081a7f76a8484506	369178700	1	practice_slash	9	advance_on_keypress_SLASH	18	stimuli_distractor_diamondtriangles.svg	stimuli_target_trianglecircles.svg	9	yes	57	0	354
6.6.1	win	2022-12-25	19:56:51	20:06:22	566022	61076f4e081a7f76a8484506	369178700	1	practice_slash	9	practice_slash	19	stimuli_distractor_trianglediamonds.svg	stimuli_target_diamondcircles.svg	12	yes	53	1	752
6.6.1	win	2022-12-25	19:56:51	20:06:22	566022	61076f4e081a7f76a8484506	369178700	1	practice_slash	9	advance_on_keypress_SLASH	20	stimuli_distractor_trianglediamonds.svg	stimuli_target_diamondcircles.svg	12	yes	57	0	419
6.6.1	win	2022-12-25	19:56:51	20:06:25	568903	61076f4e081a7f76a8484506	369178700	1	practice_slash	9	practice_slash	21	stimuli_target_diamondsquares.svg	stimuli_distractor_diamondtriangles.svg	3	yes	53	1	770
6.6.1	win	2022-12-25	19:56:51	20:06:25	568903	61076f4e081a7f76a8484506	369178700	1	practice_slash	9	advance_on_keypress_SLASH	22	stimuli_target_diamondsquares.svg	stimuli_distractor_diamondtriangles.svg	3	yes	57	0	596
6.6.1	win	2022-12-25	19:56:51	20:06:29	573170	61076f4e081a7f76a8484506	369178700	1	practice_slash	9	practice_slash	23	stimuli_distractor_trianglediamonds.svg	stimuli_distractor_diamondtriangles.svg	16	no	0	1	2000
6.6.1	win	2022-12-25	19:56:51	20:06:29	573170	61076f4e081a7f76a8484506	369178700	1	practice_slash	9	advance_on_keypress_SLASH	24	stimuli_distractor_trianglediamonds.svg	stimuli_distractor_diamondtriangles.svg	16	no	57	0	607
6.6.1	win	2022-12-25	19:56:51	20:06:32	575937	61076f4e081a7f76a8484506	369178700	1	practice_slash	9	practice_slash	25	stimuli_distractor_trianglediamonds.svg	stimuli_target_circlediamonds.svg	10	yes	53	1	481
6.6.1	win	2022-12-25	19:56:51	20:06:32	575937	61076f4e081a7f76a8484506	369178700	1	practice_slash	9	advance_on_keypress_SLASH	26	stimuli_distractor_trianglediamonds.svg	stimuli_target_circlediamonds.svg	10	yes	57	0	465
6.6.1	win	2022-12-25	19:56:51	20:06:36	580088	61076f4e081a7f76a8484506	369178700	1	practice_slash	9	practice_slash	27	stimuli_distractor_diamondtriangles.svg	stimuli_distractor_diamondtriangles.svg	13	no	0	1	2000
6.6.1	win	2022-12-25	19:56:51	20:06:36	580088	61076f4e081a7f76a8484506	369178700	1	practice_slash	9	advance_on_keypress_SLASH	28	stimuli_distractor_diamondtriangles.svg	stimuli_distractor_diamondtriangles.svg	13	no	57	0	366
6.6.1	win	2022-12-25	19:56:51	20:06:39	582765	61076f4e081a7f76a8484506	369178700	1	practice_slash	9	practice_slash	29	stimuli_distractor_diamondtriangles.svg	stimuli_target_diamondcircles.svg	8	yes	53	1	627
6.6.1	win	2022-12-25	19:56:51	20:06:39	582765	61076f4e081a7f76a8484506	369178700	1	practice_slash	9	advance_on_keypress_SLASH	30	stimuli_distractor_diamondtriangles.svg	stimuli_target_diamondcircles.svg	8	yes	57	0	494
6.6.1	win	2022-12-25	19:56:51	20:06:42	585707	61076f4e081a7f76a8484506	369178700	1	practice_slash	9	practice_slash	31	stimuli_target_circlediamonds.svg	stimuli_distractor_trianglediamonds.svg	4	yes	53	1	765
6.6.1	win	2022-12-25	19:56:51	20:06:42	585707	61076f4e081a7f76a8484506	369178700	1	practice_slash	9	advance_on_keypress_SLASH	32	stimuli_target_circlediamonds.svg	stimuli_distractor_trianglediamonds.svg	4	yes	57	0	523
6.6.1	win	2022-12-25	19:56:51	20:06:46	590325	61076f4e081a7f76a8484506	369178700	1	main_slash	11	main_slash	1	stimuli_distractor_diamondtriangles.svg	stimuli_target_squaretriangles.svg	15	yes	53	1	423
6.6.1	win	2022-12-25	19:56:51	20:06:46	590325	61076f4e081a7f76a8484506	369178700	1	main_slash	11	advance_on_keypress_SLASH	2	stimuli_distractor_diamondtriangles.svg	stimuli_target_squaretriangles.svg	15	yes	57	0	928
6.6.1	win	2022-12-25	19:56:51	20:06:50	593919	61076f4e081a7f76a8484506	369178700	1	main_slash	11	main_slash	3	stimuli_distractor_diamondtriangles.svg	stimuli_distractor_trianglediamonds.svg	37	no	0	1	2000
6.6.1	win	2022-12-25	19:56:51	20:06:50	593919	61076f4e081a7f76a8484506	369178700	1	main_slash	11	advance_on_keypress_SLASH	4	stimuli_distractor_diamondtriangles.svg	stimuli_distractor_trianglediamonds.svg	37	no	57	0	748
6.6.1	win	2022-12-25	19:56:51	20:06:53	597319	61076f4e081a7f76a8484506	369178700	1	main_slash	11	main_slash	5	stimuli_distractor_trianglediamonds.svg	stimuli_distractor_trianglediamonds.svg	34	no	0	1	2000
6.6.1	win	2022-12-25	19:56:51	20:06:53	597319	61076f4e081a7f76a8484506	369178700	1	main_slash	11	advance_on_keypress_SLASH	6	stimuli_distractor_trianglediamonds.svg	stimuli_distractor_trianglediamonds.svg	34	no	57	0	418
6.6.1	win	2022-12-25	19:56:51	20:06:55	598964	61076f4e081a7f76a8484506	369178700	1	main_slash	11	main_slash	7	stimuli_target_squaretriangles.svg	stimuli_distractor_trianglediamonds.svg	3	yes	53	1	577
6.6.1	win	2022-12-25	19:56:51	20:06:55	598964	61076f4e081a7f76a8484506	369178700	1	main_slash	11	advance_on_keypress_SLASH	8	stimuli_target_squaretriangles.svg	stimuli_distractor_trianglediamonds.svg	3	yes	57	0	647
6.6.1	win	2022-12-25	19:56:51	20:06:57	600812	61076f4e081a7f76a8484506	369178700	1	main_slash	11	main_slash	9	stimuli_target_trianglesquares.svg	stimuli_distractor_diamondtriangles.svg	22	yes	53	1	542
6.6.1	win	2022-12-25	19:56:51	20:06:57	600812	61076f4e081a7f76a8484506	369178700	1	main_slash	11	advance_on_keypress_SLASH	10	stimuli_target_trianglesquares.svg	stimuli_distractor_diamondtriangles.svg	22	yes	57	0	497
6.6.1	win	2022-12-25	19:56:51	20:07:00	603970	61076f4e081a7f76a8484506	369178700	1	main_slash	11	main_slash	11	stimuli_distractor_diamondtriangles.svg	stimuli_distractor_diamondtriangles.svg	40	no	0	1	2000
6.6.1	win	2022-12-25	19:56:51	20:07:00	603970	61076f4e081a7f76a8484506	369178700	1	main_slash	11	advance_on_keypress_SLASH	12	stimuli_distractor_diamondtriangles.svg	stimuli_distractor_diamondtriangles.svg	40	no	57	0	460
6.6.1	win	2022-12-25	19:56:51	20:07:02	605642	61076f4e081a7f76a8484506	369178700	1	main_slash	11	main_slash	13	stimuli_distractor_trianglediamonds.svg	stimuli_target_diamondcircles.svg	27	yes	53	1	554
6.6.1	win	2022-12-25	19:56:51	20:07:02	605642	61076f4e081a7f76a8484506	369178700	1	main_slash	11	advance_on_keypress_SLASH	14	stimuli_distractor_trianglediamonds.svg	stimuli_target_diamondcircles.svg	27	yes	57	0	552
6.6.1	win	2022-12-25	19:56:51	20:07:05	608873	61076f4e081a7f76a8484506	369178700	1	main_slash	11	main_slash	15	stimuli_distractor_diamondtriangles.svg	stimuli_distractor_trianglediamonds.svg	38	no	0	1	2000
6.6.1	win	2022-12-25	19:56:51	20:07:05	608873	61076f4e081a7f76a8484506	369178700	1	main_slash	11	advance_on_keypress_SLASH	16	stimuli_distractor_diamondtriangles.svg	stimuli_distractor_trianglediamonds.svg	38	no	57	0	616
6.6.1	win	2022-12-25	19:56:51	20:07:07	610629	61076f4e081a7f76a8484506	369178700	1	main_slash	11	main_slash	17	stimuli_target_circletriangles.svg	stimuli_distractor_diamondtriangles.svg	5	yes	53	1	490
6.6.1	win	2022-12-25	19:56:51	20:07:07	610629	61076f4e081a7f76a8484506	369178700	1	main_slash	11	advance_on_keypress_SLASH	18	stimuli_target_circletriangles.svg	stimuli_distractor_diamondtriangles.svg	5	yes	57	0	555
6.6.1	win	2022-12-25	19:56:51	20:07:09	612583	61076f4e081a7f76a8484506	369178700	1	main_slash	11	main_slash	19	stimuli_distractor_trianglediamonds.svg	stimuli_target_squaretriangles.svg	11	yes	53	1	727
6.6.1	win	2022-12-25	19:56:51	20:07:09	612583	61076f4e081a7f76a8484506	369178700	1	main_slash	11	advance_on_keypress_SLASH	20	stimuli_distractor_trianglediamonds.svg	stimuli_target_squaretriangles.svg	11	yes	57	0	567
6.6.1	win	2022-12-25	19:56:51	20:07:10	614449	61076f4e081a7f76a8484506	369178700	1	main_slash	11	main_slash	21	stimuli_distractor_trianglediamonds.svg	stimuli_target_squarediamonds.svg	12	yes	53	1	643
6.6.1	win	2022-12-25	19:56:51	20:07:10	614449	61076f4e081a7f76a8484506	369178700	1	main_slash	11	advance_on_keypress_SLASH	22	stimuli_distractor_trianglediamonds.svg	stimuli_target_squarediamonds.svg	12	yes	57	0	598
6.6.1	win	2022-12-25	19:56:51	20:07:12	616308	61076f4e081a7f76a8484506	369178700	1	main_slash	11	main_slash	23	stimuli_target_diamondcircles.svg	stimuli_distractor_trianglediamonds.svg	19	yes	53	1	602
6.6.1	win	2022-12-25	19:56:51	20:07:12	616308	61076f4e081a7f76a8484506	369178700	1	main_slash	11	advance_on_keypress_SLASH	24	stimuli_target_diamondcircles.svg	stimuli_distractor_trianglediamonds.svg	19	yes	57	0	485
6.6.1	win	2022-12-25	19:56:51	20:07:14	617932	61076f4e081a7f76a8484506	369178700	1	main_slash	11	main_slash	25	stimuli_distractor_diamondtriangles.svg	stimuli_target_trianglecircles.svg	29	yes	53	1	491
6.6.1	win	2022-12-25	19:56:51	20:07:14	617932	61076f4e081a7f76a8484506	369178700	1	main_slash	11	advance_on_keypress_SLASH	26	stimuli_distractor_diamondtriangles.svg	stimuli_target_trianglecircles.svg	29	yes	57	0	445
6.6.1	win	2022-12-25	19:56:51	20:07:16	619556	61076f4e081a7f76a8484506	369178700	1	main_slash	11	main_slash	27	stimuli_target_trianglecircles.svg	stimuli_distractor_diamondtriangles.svg	21	yes	53	1	514
6.6.1	win	2022-12-25	19:56:51	20:07:16	619556	61076f4e081a7f76a8484506	369178700	1	main_slash	11	advance_on_keypress_SLASH	28	stimuli_target_trianglecircles.svg	stimuli_distractor_diamondtriangles.svg	21	yes	57	0	459
6.6.1	win	2022-12-25	19:56:51	20:07:17	621188	61076f4e081a7f76a8484506	369178700	1	main_slash	11	main_slash	29	stimuli_target_circlediamonds.svg	stimuli_distractor_diamondtriangles.svg	6	yes	53	1	507
6.6.1	win	2022-12-25	19:56:51	20:07:17	621188	61076f4e081a7f76a8484506	369178700	1	main_slash	11	advance_on_keypress_SLASH	30	stimuli_target_circlediamonds.svg	stimuli_distractor_diamondtriangles.svg	6	yes	57	0	409
6.6.1	win	2022-12-25	19:56:51	20:07:19	622742	61076f4e081a7f76a8484506	369178700	1	main_slash	11	main_slash	31	stimuli_distractor_trianglediamonds.svg	stimuli_target_trianglecircles.svg	25	yes	53	1	483
6.6.1	win	2022-12-25	19:56:51	20:07:19	622742	61076f4e081a7f76a8484506	369178700	1	main_slash	11	advance_on_keypress_SLASH	32	stimuli_distractor_trianglediamonds.svg	stimuli_target_trianglecircles.svg	25	yes	57	0	427
6.6.1	win	2022-12-25	19:56:51	20:07:20	624405	61076f4e081a7f76a8484506	369178700	1	main_slash	11	main_slash	33	stimuli_target_squarediamonds.svg	stimuli_distractor_trianglediamonds.svg	4	yes	53	1	580
6.6.1	win	2022-12-25	19:56:51	20:07:20	624405	61076f4e081a7f76a8484506	369178700	1	main_slash	11	advance_on_keypress_SLASH	34	stimuli_target_squarediamonds.svg	stimuli_distractor_trianglediamonds.svg	4	yes	57	0	364
6.6.1	win	2022-12-25	19:56:51	20:07:22	625912	61076f4e081a7f76a8484506	369178700	1	main_slash	11	main_slash	35	stimuli_target_trianglecircles.svg	stimuli_distractor_trianglediamonds.svg	17	yes	53	1	483
6.6.1	win	2022-12-25	19:56:51	20:07:22	625912	61076f4e081a7f76a8484506	369178700	1	main_slash	11	advance_on_keypress_SLASH	36	stimuli_target_trianglecircles.svg	stimuli_distractor_trianglediamonds.svg	17	yes	57	0	333
6.6.1	win	2022-12-25	19:56:51	20:07:23	627407	61076f4e081a7f76a8484506	369178700	1	main_slash	11	main_slash	37	stimuli_distractor_trianglediamonds.svg	stimuli_target_circlediamonds.svg	10	yes	53	1	499
6.6.1	win	2022-12-25	19:56:51	20:07:23	627407	61076f4e081a7f76a8484506	369178700	1	main_slash	11	advance_on_keypress_SLASH	38	stimuli_distractor_trianglediamonds.svg	stimuli_target_circlediamonds.svg	10	yes	57	0	361
6.6.1	win	2022-12-25	19:56:51	20:07:26	630425	61076f4e081a7f76a8484506	369178700	1	main_slash	11	main_slash	39	stimuli_distractor_diamondtriangles.svg	stimuli_distractor_diamondtriangles.svg	39	no	0	1	2000
6.6.1	win	2022-12-25	19:56:51	20:07:26	630425	61076f4e081a7f76a8484506	369178700	1	main_slash	11	advance_on_keypress_SLASH	40	stimuli_distractor_diamondtriangles.svg	stimuli_distractor_diamondtriangles.svg	39	no	57	0	427
6.6.1	win	2022-12-25	19:56:51	20:07:28	631982	61076f4e081a7f76a8484506	369178700	1	main_slash	11	main_slash	41	stimuli_distractor_diamondtriangles.svg	stimuli_target_circletriangles.svg	13	yes	53	1	473
6.6.1	win	2022-12-25	19:56:51	20:07:28	631982	61076f4e081a7f76a8484506	369178700	1	main_slash	11	advance_on_keypress_SLASH	42	stimuli_distractor_diamondtriangles.svg	stimuli_target_circletriangles.svg	13	yes	57	0	537
6.6.1	win	2022-12-25	19:56:51	20:07:30	633708	61076f4e081a7f76a8484506	369178700	1	main_slash	11	main_slash	43	stimuli_target_diamondsquares.svg	stimuli_distractor_diamondtriangles.svg	24	yes	53	1	513
6.6.1	win	2022-12-25	19:56:51	20:07:30	633708	61076f4e081a7f76a8484506	369178700	1	main_slash	11	advance_on_keypress_SLASH	44	stimuli_target_diamondsquares.svg	stimuli_distractor_diamondtriangles.svg	24	yes	57	0	436
6.6.1	win	2022-12-25	19:56:51	20:07:31	635315	61076f4e081a7f76a8484506	369178700	1	main_slash	11	main_slash	45	stimuli_target_circlediamonds.svg	stimuli_distractor_trianglediamonds.svg	2	yes	53	1	499
6.6.1	win	2022-12-25	19:56:51	20:07:31	635315	61076f4e081a7f76a8484506	369178700	1	main_slash	11	advance_on_keypress_SLASH	46	stimuli_target_circlediamonds.svg	stimuli_distractor_trianglediamonds.svg	2	yes	57	0	523
6.6.1	win	2022-12-25	19:56:51	20:07:34	638510	61076f4e081a7f76a8484506	369178700	1	main_slash	11	main_slash	47	stimuli_distractor_trianglediamonds.svg	stimuli_distractor_diamondtriangles.svg	36	no	0	1	2000
6.6.1	win	2022-12-25	19:56:51	20:07:34	638510	61076f4e081a7f76a8484506	369178700	1	main_slash	11	advance_on_keypress_SLASH	48	stimuli_distractor_trianglediamonds.svg	stimuli_distractor_diamondtriangles.svg	36	no	57	0	706
6.6.1	win	2022-12-25	19:56:51	20:07:36	640392	61076f4e081a7f76a8484506	369178700	1	main_slash	11	main_slash	49	stimuli_distractor_diamondtriangles.svg	stimuli_target_circlediamonds.svg	14	yes	53	1	496
6.6.1	win	2022-12-25	19:56:51	20:07:36	640392	61076f4e081a7f76a8484506	369178700	1	main_slash	11	advance_on_keypress_SLASH	50	stimuli_distractor_diamondtriangles.svg	stimuli_target_circlediamonds.svg	14	yes	57	0	404
6.6.1	win	2022-12-25	19:56:51	20:07:38	641988	61076f4e081a7f76a8484506	369178700	1	main_slash	11	main_slash	51	stimuli_target_diamondsquares.svg	stimuli_distractor_trianglediamonds.svg	20	yes	53	1	527
6.6.1	win	2022-12-25	19:56:51	20:07:38	641988	61076f4e081a7f76a8484506	369178700	1	main_slash	11	advance_on_keypress_SLASH	52	stimuli_target_diamondsquares.svg	stimuli_distractor_trianglediamonds.svg	20	yes	57	0	406
6.6.1	win	2022-12-25	19:56:51	20:07:40	643659	61076f4e081a7f76a8484506	369178700	1	main_slash	11	main_slash	53	stimuli_distractor_trianglediamonds.svg	stimuli_target_circletriangles.svg	9	yes	53	1	598
6.6.1	win	2022-12-25	19:56:51	20:07:40	643659	61076f4e081a7f76a8484506	369178700	1	main_slash	11	advance_on_keypress_SLASH	54	stimuli_distractor_trianglediamonds.svg	stimuli_target_circletriangles.svg	9	yes	57	0	407
6.6.1	win	2022-12-25	19:56:51	20:07:41	645216	61076f4e081a7f76a8484506	369178700	1	main_slash	11	main_slash	55	stimuli_target_trianglesquares.svg	stimuli_distractor_trianglediamonds.svg	18	yes	53	1	487
6.6.1	win	2022-12-25	19:56:51	20:07:41	645216	61076f4e081a7f76a8484506	369178700	1	main_slash	11	advance_on_keypress_SLASH	56	stimuli_target_trianglesquares.svg	stimuli_distractor_trianglediamonds.svg	18	yes	57	0	328
6.6.1	win	2022-12-25	19:56:51	20:07:43	646686	61076f4e081a7f76a8484506	369178700	1	main_slash	11	main_slash	57	stimuli_distractor_diamondtriangles.svg	stimuli_target_trianglesquares.svg	30	yes	53	1	466
6.6.1	win	2022-12-25	19:56:51	20:07:43	646686	61076f4e081a7f76a8484506	369178700	1	main_slash	11	advance_on_keypress_SLASH	58	stimuli_distractor_diamondtriangles.svg	stimuli_target_trianglesquares.svg	30	yes	57	0	397
6.6.1	win	2022-12-25	19:56:51	20:07:44	648159	61076f4e081a7f76a8484506	369178700	1	main_slash	11	main_slash	59	stimuli_distractor_diamondtriangles.svg	stimuli_target_diamondsquares.svg	32	yes	53	1	413
6.6.1	win	2022-12-25	19:56:51	20:07:44	648159	61076f4e081a7f76a8484506	369178700	1	main_slash	11	advance_on_keypress_SLASH	60	stimuli_distractor_diamondtriangles.svg	stimuli_target_diamondsquares.svg	32	yes	57	0	323
6.6.1	win	2022-12-25	19:56:51	20:07:46	649701	61076f4e081a7f76a8484506	369178700	1	main_slash	11	main_slash	61	stimuli_target_circletriangles.svg	stimuli_distractor_trianglediamonds.svg	1	yes	53	1	553
6.6.1	win	2022-12-25	19:56:51	20:07:46	649701	61076f4e081a7f76a8484506	369178700	1	main_slash	11	advance_on_keypress_SLASH	62	stimuli_target_circletriangles.svg	stimuli_distractor_trianglediamonds.svg	1	yes	57	0	364
6.6.1	win	2022-12-25	19:56:51	20:07:47	651316	61076f4e081a7f76a8484506	369178700	1	main_slash	11	main_slash	63	stimuli_target_squaretriangles.svg	stimuli_distractor_diamondtriangles.svg	7	yes	53	1	586
6.6.1	win	2022-12-25	19:56:51	20:07:47	651316	61076f4e081a7f76a8484506	369178700	1	main_slash	11	advance_on_keypress_SLASH	64	stimuli_target_squaretriangles.svg	stimuli_distractor_diamondtriangles.svg	7	yes	57	0	313
6.6.1	win	2022-12-25	19:56:51	20:07:49	652818	61076f4e081a7f76a8484506	369178700	1	main_slash	11	main_slash	65	stimuli_distractor_trianglediamonds.svg	stimuli_target_diamondsquares.svg	28	yes	53	1	521
6.6.1	win	2022-12-25	19:56:51	20:07:49	652818	61076f4e081a7f76a8484506	369178700	1	main_slash	11	advance_on_keypress_SLASH	66	stimuli_distractor_trianglediamonds.svg	stimuli_target_diamondsquares.svg	28	yes	57	0	586
6.6.1	win	2022-12-25	19:56:51	20:07:51	654543	61076f4e081a7f76a8484506	369178700	1	main_slash	11	main_slash	67	stimuli_distractor_diamondtriangles.svg	stimuli_target_squarediamonds.svg	16	yes	53	1	463
6.6.1	win	2022-12-25	19:56:51	20:07:51	654543	61076f4e081a7f76a8484506	369178700	1	main_slash	11	advance_on_keypress_SLASH	68	stimuli_distractor_diamondtriangles.svg	stimuli_target_squarediamonds.svg	16	yes	57	0	352
6.6.1	win	2022-12-25	19:56:51	20:07:52	655985	61076f4e081a7f76a8484506	369178700	1	main_slash	11	main_slash	69	stimuli_distractor_trianglediamonds.svg	stimuli_target_trianglesquares.svg	26	yes	53	1	421
6.6.1	win	2022-12-25	19:56:51	20:07:52	655985	61076f4e081a7f76a8484506	369178700	1	main_slash	11	advance_on_keypress_SLASH	70	stimuli_distractor_trianglediamonds.svg	stimuli_target_trianglesquares.svg	26	yes	57	0	354
6.6.1	win	2022-12-25	19:56:51	20:07:53	657395	61076f4e081a7f76a8484506	369178700	1	main_slash	11	main_slash	71	stimuli_distractor_diamondtriangles.svg	stimuli_target_diamondcircles.svg	31	yes	53	1	377
6.6.1	win	2022-12-25	19:56:51	20:07:53	657395	61076f4e081a7f76a8484506	369178700	1	main_slash	11	advance_on_keypress_SLASH	72	stimuli_distractor_diamondtriangles.svg	stimuli_target_diamondcircles.svg	31	yes	57	0	325
6.6.1	win	2022-12-25	19:56:51	20:07:55	658697	61076f4e081a7f76a8484506	369178700	1	main_slash	11	main_slash	73	stimuli_distractor_trianglediamonds.svg	stimuli_distractor_diamondtriangles.svg	35	no	53	0	316
6.6.1	win	2022-12-25	19:56:51	20:07:55	658697	61076f4e081a7f76a8484506	369178700	1	main_slash	11	advance_on_keypress_SLASH	74	stimuli_distractor_trianglediamonds.svg	stimuli_distractor_diamondtriangles.svg	35	no	57	0	843
6.6.1	win	2022-12-25	19:56:51	20:07:58	662198	61076f4e081a7f76a8484506	369178700	1	main_slash	11	main_slash	75	stimuli_distractor_trianglediamonds.svg	stimuli_distractor_trianglediamonds.svg	33	no	0	1	2000
6.6.1	win	2022-12-25	19:56:51	20:07:58	662198	61076f4e081a7f76a8484506	369178700	1	main_slash	11	advance_on_keypress_SLASH	76	stimuli_distractor_trianglediamonds.svg	stimuli_distractor_trianglediamonds.svg	33	no	57	0	429
6.6.1	win	2022-12-25	19:56:51	20:08:00	663740	61076f4e081a7f76a8484506	369178700	1	main_slash	11	main_slash	77	stimuli_target_diamondcircles.svg	stimuli_distractor_diamondtriangles.svg	23	yes	53	1	458
6.6.1	win	2022-12-25	19:56:51	20:08:00	663740	61076f4e081a7f76a8484506	369178700	1	main_slash	11	advance_on_keypress_SLASH	78	stimuli_target_diamondcircles.svg	stimuli_distractor_diamondtriangles.svg	23	yes	57	0	415
6.6.1	win	2022-12-25	19:56:51	20:08:01	665330	61076f4e081a7f76a8484506	369178700	1	main_slash	11	main_slash	79	stimuli_target_squarediamonds.svg	stimuli_distractor_diamondtriangles.svg	8	yes	53	1	508
6.6.1	win	2022-12-25	19:56:51	20:08:01	665330	61076f4e081a7f76a8484506	369178700	1	main_slash	11	advance_on_keypress_SLASH	80	stimuli_target_squarediamonds.svg	stimuli_distractor_diamondtriangles.svg	8	yes	57	0	591
6.6.1	win	2022-12-25	19:56:51	20:08:03	667063	61076f4e081a7f76a8484506	369178700	1	main_slash	11	main_slash	81	stimuli_distractor_diamondtriangles.svg	stimuli_target_trianglesquares.svg	30	yes	53	1	481
6.6.1	win	2022-12-25	19:56:51	20:08:03	667063	61076f4e081a7f76a8484506	369178700	1	main_slash	11	advance_on_keypress_SLASH	82	stimuli_distractor_diamondtriangles.svg	stimuli_target_trianglesquares.svg	30	yes	57	0	450
6.6.1	win	2022-12-25	19:56:51	20:08:05	668649	61076f4e081a7f76a8484506	369178700	1	main_slash	11	main_slash	83	stimuli_target_diamondsquares.svg	stimuli_distractor_trianglediamonds.svg	20	yes	53	1	483
6.6.1	win	2022-12-25	19:56:51	20:08:05	668649	61076f4e081a7f76a8484506	369178700	1	main_slash	11	advance_on_keypress_SLASH	84	stimuli_target_diamondsquares.svg	stimuli_distractor_trianglediamonds.svg	20	yes	57	0	383
6.6.1	win	2022-12-25	19:56:51	20:08:06	670172	61076f4e081a7f76a8484506	369178700	1	main_slash	11	main_slash	85	stimuli_distractor_trianglediamonds.svg	stimuli_target_trianglecircles.svg	25	yes	53	1	488
6.6.1	win	2022-12-25	19:56:51	20:08:06	670172	61076f4e081a7f76a8484506	369178700	1	main_slash	11	advance_on_keypress_SLASH	86	stimuli_distractor_trianglediamonds.svg	stimuli_target_trianglecircles.svg	25	yes	57	0	360
6.6.1	win	2022-12-25	19:56:51	20:08:08	671931	61076f4e081a7f76a8484506	369178700	1	main_slash	11	main_slash	87	stimuli_distractor_trianglediamonds.svg	stimuli_target_squarediamonds.svg	12	yes	53	1	730
6.6.1	win	2022-12-25	19:56:51	20:08:08	671931	61076f4e081a7f76a8484506	369178700	1	main_slash	11	advance_on_keypress_SLASH	88	stimuli_distractor_trianglediamonds.svg	stimuli_target_squarediamonds.svg	12	yes	57	0	370
6.6.1	win	2022-12-25	19:56:51	20:08:10	673762	61076f4e081a7f76a8484506	369178700	1	main_slash	11	main_slash	89	stimuli_target_circlediamonds.svg	stimuli_distractor_diamondtriangles.svg	6	yes	53	1	795
6.6.1	win	2022-12-25	19:56:51	20:08:10	673762	61076f4e081a7f76a8484506	369178700	1	main_slash	11	advance_on_keypress_SLASH	90	stimuli_target_circlediamonds.svg	stimuli_distractor_diamondtriangles.svg	6	yes	57	0	472
6.6.1	win	2022-12-25	19:56:51	20:08:13	676900	61076f4e081a7f76a8484506	369178700	1	main_slash	11	main_slash	91	stimuli_distractor_trianglediamonds.svg	stimuli_distractor_diamondtriangles.svg	35	no	0	1	2000
6.6.1	win	2022-12-25	19:56:51	20:08:13	676900	61076f4e081a7f76a8484506	369178700	1	main_slash	11	advance_on_keypress_SLASH	92	stimuli_distractor_trianglediamonds.svg	stimuli_distractor_diamondtriangles.svg	35	no	57	0	453
6.6.1	win	2022-12-25	19:56:51	20:08:16	680018	61076f4e081a7f76a8484506	369178700	1	main_slash	11	main_slash	93	stimuli_distractor_diamondtriangles.svg	stimuli_distractor_diamondtriangles.svg	40	no	0	1	2000
6.6.1	win	2022-12-25	19:56:51	20:08:16	680018	61076f4e081a7f76a8484506	369178700	1	main_slash	11	advance_on_keypress_SLASH	94	stimuli_distractor_diamondtriangles.svg	stimuli_distractor_diamondtriangles.svg	40	no	57	0	405
6.6.1	win	2022-12-25	19:56:51	20:08:18	681607	61076f4e081a7f76a8484506	369178700	1	main_slash	11	main_slash	95	stimuli_distractor_diamondtriangles.svg	stimuli_target_trianglecircles.svg	29	yes	53	1	522
6.6.1	win	2022-12-25	19:56:51	20:08:18	681607	61076f4e081a7f76a8484506	369178700	1	main_slash	11	advance_on_keypress_SLASH	96	stimuli_distractor_diamondtriangles.svg	stimuli_target_trianglecircles.svg	29	yes	57	0	284
6.6.1	win	2022-12-25	19:56:51	20:08:19	683213	61076f4e081a7f76a8484506	369178700	1	main_slash	11	main_slash	97	stimuli_distractor_diamondtriangles.svg	stimuli_target_circlediamonds.svg	14	yes	53	1	661
6.6.1	win	2022-12-25	19:56:51	20:08:19	683213	61076f4e081a7f76a8484506	369178700	1	main_slash	11	advance_on_keypress_SLASH	98	stimuli_distractor_diamondtriangles.svg	stimuli_target_circlediamonds.svg	14	yes	57	0	341
6.6.1	win	2022-12-25	19:56:51	20:08:21	684765	61076f4e081a7f76a8484506	369178700	1	main_slash	11	main_slash	99	stimuli_target_trianglesquares.svg	stimuli_distractor_trianglediamonds.svg	18	yes	53	1	546
6.6.1	win	2022-12-25	19:56:51	20:08:21	684765	61076f4e081a7f76a8484506	369178700	1	main_slash	11	advance_on_keypress_SLASH	100	stimuli_target_trianglesquares.svg	stimuli_distractor_trianglediamonds.svg	18	yes	57	0	355
6.6.1	win	2022-12-25	19:56:51	20:08:22	686211	61076f4e081a7f76a8484506	369178700	1	main_slash	11	main_slash	101	stimuli_target_trianglecircles.svg	stimuli_distractor_diamondtriangles.svg	21	yes	53	1	424
6.6.1	win	2022-12-25	19:56:51	20:08:22	686211	61076f4e081a7f76a8484506	369178700	1	main_slash	11	advance_on_keypress_SLASH	102	stimuli_target_trianglecircles.svg	stimuli_distractor_diamondtriangles.svg	21	yes	57	0	350
6.6.1	win	2022-12-25	19:56:51	20:08:24	687925	61076f4e081a7f76a8484506	369178700	1	main_slash	11	main_slash	103	stimuli_distractor_diamondtriangles.svg	stimuli_target_circletriangles.svg	13	yes	53	1	706
6.6.1	win	2022-12-25	19:56:51	20:08:24	687925	61076f4e081a7f76a8484506	369178700	1	main_slash	11	advance_on_keypress_SLASH	104	stimuli_distractor_diamondtriangles.svg	stimuli_target_circletriangles.svg	13	yes	57	0	410
6.6.1	win	2022-12-25	19:56:51	20:08:26	689737	61076f4e081a7f76a8484506	369178700	1	main_slash	11	main_slash	105	stimuli_distractor_diamondtriangles.svg	stimuli_target_squaretriangles.svg	15	yes	53	1	734
6.6.1	win	2022-12-25	19:56:51	20:08:26	689737	61076f4e081a7f76a8484506	369178700	1	main_slash	11	advance_on_keypress_SLASH	106	stimuli_distractor_diamondtriangles.svg	stimuli_target_squaretriangles.svg	15	yes	57	0	408
6.6.1	win	2022-12-25	19:56:51	20:08:27	691328	61076f4e081a7f76a8484506	369178700	1	main_slash	11	main_slash	107	stimuli_distractor_diamondtriangles.svg	stimuli_target_diamondcircles.svg	31	yes	53	1	525
6.6.1	win	2022-12-25	19:56:51	20:08:27	691328	61076f4e081a7f76a8484506	369178700	1	main_slash	11	advance_on_keypress_SLASH	108	stimuli_distractor_diamondtriangles.svg	stimuli_target_diamondcircles.svg	31	yes	57	0	407
6.6.1	win	2022-12-25	19:56:51	20:08:30	694407	61076f4e081a7f76a8484506	369178700	1	main_slash	11	main_slash	109	stimuli_distractor_diamondtriangles.svg	stimuli_distractor_diamondtriangles.svg	39	no	0	1	2000
6.6.1	win	2022-12-25	19:56:51	20:08:30	694407	61076f4e081a7f76a8484506	369178700	1	main_slash	11	advance_on_keypress_SLASH	110	stimuli_distractor_diamondtriangles.svg	stimuli_distractor_diamondtriangles.svg	39	no	57	0	631
6.6.1	win	2022-12-25	19:56:51	20:08:32	696162	61076f4e081a7f76a8484506	369178700	1	main_slash	11	main_slash	111	stimuli_target_diamondcircles.svg	stimuli_distractor_trianglediamonds.svg	19	yes	53	1	458
6.6.1	win	2022-12-25	19:56:51	20:08:32	696162	61076f4e081a7f76a8484506	369178700	1	main_slash	11	advance_on_keypress_SLASH	112	stimuli_target_diamondcircles.svg	stimuli_distractor_trianglediamonds.svg	19	yes	57	0	331
6.6.1	win	2022-12-25	19:56:51	20:08:34	697628	61076f4e081a7f76a8484506	369178700	1	main_slash	11	main_slash	113	stimuli_target_diamondcircles.svg	stimuli_distractor_diamondtriangles.svg	23	yes	53	1	473
6.6.1	win	2022-12-25	19:56:51	20:08:34	697628	61076f4e081a7f76a8484506	369178700	1	main_slash	11	advance_on_keypress_SLASH	114	stimuli_target_diamondcircles.svg	stimuli_distractor_diamondtriangles.svg	23	yes	57	0	330
6.6.1	win	2022-12-25	19:56:51	20:08:35	699136	61076f4e081a7f76a8484506	369178700	1	main_slash	11	main_slash	115	stimuli_target_trianglesquares.svg	stimuli_distractor_diamondtriangles.svg	22	yes	53	1	514
6.6.1	win	2022-12-25	19:56:51	20:08:35	699136	61076f4e081a7f76a8484506	369178700	1	main_slash	11	advance_on_keypress_SLASH	116	stimuli_target_trianglesquares.svg	stimuli_distractor_diamondtriangles.svg	22	yes	57	0	395
6.6.1	win	2022-12-25	19:56:51	20:08:37	700654	61076f4e081a7f76a8484506	369178700	1	main_slash	11	main_slash	117	stimuli_target_circletriangles.svg	stimuli_distractor_diamondtriangles.svg	5	yes	53	1	465
6.6.1	win	2022-12-25	19:56:51	20:08:37	700654	61076f4e081a7f76a8484506	369178700	1	main_slash	11	advance_on_keypress_SLASH	118	stimuli_target_circletriangles.svg	stimuli_distractor_diamondtriangles.svg	5	yes	57	0	328
6.6.1	win	2022-12-25	19:56:51	20:08:38	702021	61076f4e081a7f76a8484506	369178700	1	main_slash	11	main_slash	119	stimuli_distractor_trianglediamonds.svg	stimuli_target_circlediamonds.svg	10	yes	53	1	381
6.6.1	win	2022-12-25	19:56:51	20:08:38	702021	61076f4e081a7f76a8484506	369178700	1	main_slash	11	advance_on_keypress_SLASH	120	stimuli_distractor_trianglediamonds.svg	stimuli_target_circlediamonds.svg	10	yes	57	0	377
6.6.1	win	2022-12-25	19:56:51	20:08:41	705055	61076f4e081a7f76a8484506	369178700	1	main_slash	11	main_slash	121	stimuli_distractor_trianglediamonds.svg	stimuli_distractor_trianglediamonds.svg	33	no	0	1	2000
6.6.1	win	2022-12-25	19:56:51	20:08:41	705055	61076f4e081a7f76a8484506	369178700	1	main_slash	11	advance_on_keypress_SLASH	122	stimuli_distractor_trianglediamonds.svg	stimuli_distractor_trianglediamonds.svg	33	no	57	0	994
6.6.1	win	2022-12-25	19:56:51	20:08:45	708706	61076f4e081a7f76a8484506	369178700	1	main_slash	11	main_slash	123	stimuli_distractor_diamondtriangles.svg	stimuli_distractor_trianglediamonds.svg	37	no	0	1	2000
6.6.1	win	2022-12-25	19:56:51	20:08:45	708706	61076f4e081a7f76a8484506	369178700	1	main_slash	11	advance_on_keypress_SLASH	124	stimuli_distractor_diamondtriangles.svg	stimuli_distractor_trianglediamonds.svg	37	no	57	0	565
6.6.1	win	2022-12-25	19:56:51	20:08:46	710512	61076f4e081a7f76a8484506	369178700	1	main_slash	11	main_slash	125	stimuli_target_circlediamonds.svg	stimuli_distractor_trianglediamonds.svg	2	yes	53	1	589
6.6.1	win	2022-12-25	19:56:51	20:08:46	710512	61076f4e081a7f76a8484506	369178700	1	main_slash	11	advance_on_keypress_SLASH	126	stimuli_target_circlediamonds.svg	stimuli_distractor_trianglediamonds.svg	2	yes	57	0	513
6.6.1	win	2022-12-25	19:56:51	20:08:48	712205	61076f4e081a7f76a8484506	369178700	1	main_slash	11	main_slash	127	stimuli_distractor_trianglediamonds.svg	stimuli_target_squaretriangles.svg	11	yes	53	1	507
6.6.1	win	2022-12-25	19:56:51	20:08:48	712205	61076f4e081a7f76a8484506	369178700	1	main_slash	11	advance_on_keypress_SLASH	128	stimuli_distractor_trianglediamonds.svg	stimuli_target_squaretriangles.svg	11	yes	57	0	388
6.6.1	win	2022-12-25	19:56:51	20:08:50	713738	61076f4e081a7f76a8484506	369178700	1	main_slash	11	main_slash	129	stimuli_distractor_trianglediamonds.svg	stimuli_target_diamondcircles.svg	27	yes	53	1	481
6.6.1	win	2022-12-25	19:56:51	20:08:50	713738	61076f4e081a7f76a8484506	369178700	1	main_slash	11	advance_on_keypress_SLASH	130	stimuli_distractor_trianglediamonds.svg	stimuli_target_diamondcircles.svg	27	yes	57	0	281
6.6.1	win	2022-12-25	19:56:51	20:08:53	716677	61076f4e081a7f76a8484506	369178700	1	main_slash	11	main_slash	131	stimuli_distractor_trianglediamonds.svg	stimuli_distractor_trianglediamonds.svg	34	no	0	1	2000
6.6.1	win	2022-12-25	19:56:51	20:08:53	716677	61076f4e081a7f76a8484506	369178700	1	main_slash	11	advance_on_keypress_SLASH	132	stimuli_distractor_trianglediamonds.svg	stimuli_distractor_trianglediamonds.svg	34	no	57	0	482
6.6.1	win	2022-12-25	19:56:51	20:08:54	718300	61076f4e081a7f76a8484506	369178700	1	main_slash	11	main_slash	133	stimuli_target_squaretriangles.svg	stimuli_distractor_diamondtriangles.svg	7	yes	53	1	475
6.6.1	win	2022-12-25	19:56:51	20:08:54	718300	61076f4e081a7f76a8484506	369178700	1	main_slash	11	advance_on_keypress_SLASH	134	stimuli_target_squaretriangles.svg	stimuli_distractor_diamondtriangles.svg	7	yes	57	0	400
6.6.1	win	2022-12-25	19:56:51	20:08:56	719781	61076f4e081a7f76a8484506	369178700	1	main_slash	11	main_slash	135	stimuli_target_squarediamonds.svg	stimuli_distractor_diamondtriangles.svg	8	yes	53	1	422
6.6.1	win	2022-12-25	19:56:51	20:08:56	719781	61076f4e081a7f76a8484506	369178700	1	main_slash	11	advance_on_keypress_SLASH	136	stimuli_target_squarediamonds.svg	stimuli_distractor_diamondtriangles.svg	8	yes	57	0	325
6.6.1	win	2022-12-25	19:56:51	20:08:59	722779	61076f4e081a7f76a8484506	369178700	1	main_slash	11	main_slash	137	stimuli_distractor_trianglediamonds.svg	stimuli_distractor_diamondtriangles.svg	36	no	0	1	2000
6.6.1	win	2022-12-25	19:56:51	20:08:59	722779	61076f4e081a7f76a8484506	369178700	1	main_slash	11	advance_on_keypress_SLASH	138	stimuli_distractor_trianglediamonds.svg	stimuli_distractor_diamondtriangles.svg	36	no	57	0	331
6.6.1	win	2022-12-25	19:56:51	20:09:00	724328	61076f4e081a7f76a8484506	369178700	1	main_slash	11	main_slash	139	stimuli_target_trianglecircles.svg	stimuli_distractor_trianglediamonds.svg	17	yes	53	1	552
6.6.1	win	2022-12-25	19:56:51	20:09:00	724328	61076f4e081a7f76a8484506	369178700	1	main_slash	11	advance_on_keypress_SLASH	140	stimuli_target_trianglecircles.svg	stimuli_distractor_trianglediamonds.svg	17	yes	57	0	386
6.6.1	win	2022-12-25	19:56:51	20:09:02	725848	61076f4e081a7f76a8484506	369178700	1	main_slash	11	main_slash	141	stimuli_target_squaretriangles.svg	stimuli_distractor_trianglediamonds.svg	3	yes	53	1	489
6.6.1	win	2022-12-25	19:56:51	20:09:02	725848	61076f4e081a7f76a8484506	369178700	1	main_slash	11	advance_on_keypress_SLASH	142	stimuli_target_squaretriangles.svg	stimuli_distractor_trianglediamonds.svg	3	yes	57	0	342
6.6.1	win	2022-12-25	19:56:51	20:09:03	727406	61076f4e081a7f76a8484506	369178700	1	main_slash	11	main_slash	143	stimuli_target_squarediamonds.svg	stimuli_distractor_trianglediamonds.svg	4	yes	53	1	544
6.6.1	win	2022-12-25	19:56:51	20:09:03	727406	61076f4e081a7f76a8484506	369178700	1	main_slash	11	advance_on_keypress_SLASH	144	stimuli_target_squarediamonds.svg	stimuli_distractor_trianglediamonds.svg	4	yes	57	0	325
6.6.1	win	2022-12-25	19:56:51	20:09:05	729104	61076f4e081a7f76a8484506	369178700	1	main_slash	11	main_slash	145	stimuli_target_diamondsquares.svg	stimuli_distractor_diamondtriangles.svg	24	yes	53	1	712
6.6.1	win	2022-12-25	19:56:51	20:09:05	729104	61076f4e081a7f76a8484506	369178700	1	main_slash	11	advance_on_keypress_SLASH	146	stimuli_target_diamondsquares.svg	stimuli_distractor_diamondtriangles.svg	24	yes	57	0	362
6.6.1	win	2022-12-25	19:56:51	20:09:07	730606	61076f4e081a7f76a8484506	369178700	1	main_slash	11	main_slash	147	stimuli_distractor_trianglediamonds.svg	stimuli_target_trianglesquares.svg	26	yes	53	1	479
6.6.1	win	2022-12-25	19:56:51	20:09:07	730606	61076f4e081a7f76a8484506	369178700	1	main_slash	11	advance_on_keypress_SLASH	148	stimuli_distractor_trianglediamonds.svg	stimuli_target_trianglesquares.svg	26	yes	57	0	310
6.6.1	win	2022-12-25	19:56:51	20:09:08	732113	61076f4e081a7f76a8484506	369178700	1	main_slash	11	main_slash	149	stimuli_target_circletriangles.svg	stimuli_distractor_trianglediamonds.svg	1	yes	53	1	536
6.6.1	win	2022-12-25	19:56:51	20:09:08	732113	61076f4e081a7f76a8484506	369178700	1	main_slash	11	advance_on_keypress_SLASH	150	stimuli_target_circletriangles.svg	stimuli_distractor_trianglediamonds.svg	1	yes	57	0	368
6.6.1	win	2022-12-25	19:56:51	20:09:10	733657	61076f4e081a7f76a8484506	369178700	1	main_slash	11	main_slash	151	stimuli_distractor_trianglediamonds.svg	stimuli_target_diamondsquares.svg	28	yes	53	1	482
6.6.1	win	2022-12-25	19:56:51	20:09:10	733657	61076f4e081a7f76a8484506	369178700	1	main_slash	11	advance_on_keypress_SLASH	152	stimuli_distractor_trianglediamonds.svg	stimuli_target_diamondsquares.svg	28	yes	57	0	287
6.6.1	win	2022-12-25	19:56:51	20:09:11	735258	61076f4e081a7f76a8484506	369178700	1	main_slash	11	main_slash	153	stimuli_distractor_diamondtriangles.svg	stimuli_target_squarediamonds.svg	16	yes	53	1	646
6.6.1	win	2022-12-25	19:56:51	20:09:11	735258	61076f4e081a7f76a8484506	369178700	1	main_slash	11	advance_on_keypress_SLASH	154	stimuli_distractor_diamondtriangles.svg	stimuli_target_squarediamonds.svg	16	yes	57	0	411
6.6.1	win	2022-12-25	19:56:51	20:09:13	736805	61076f4e081a7f76a8484506	369178700	1	main_slash	11	main_slash	155	stimuli_distractor_trianglediamonds.svg	stimuli_target_circletriangles.svg	9	yes	53	1	475
6.6.1	win	2022-12-25	19:56:51	20:09:13	736805	61076f4e081a7f76a8484506	369178700	1	main_slash	11	advance_on_keypress_SLASH	156	stimuli_distractor_trianglediamonds.svg	stimuli_target_circletriangles.svg	9	yes	57	0	305
6.6.1	win	2022-12-25	19:56:51	20:09:14	738232	61076f4e081a7f76a8484506	369178700	1	main_slash	11	main_slash	157	stimuli_distractor_diamondtriangles.svg	stimuli_target_diamondsquares.svg	32	yes	53	1	453
6.6.1	win	2022-12-25	19:56:51	20:09:14	738232	61076f4e081a7f76a8484506	369178700	1	main_slash	11	advance_on_keypress_SLASH	158	stimuli_distractor_diamondtriangles.svg	stimuli_target_diamondsquares.svg	32	yes	57	0	284
6.6.1	win	2022-12-25	19:56:51	20:09:16	739633	61076f4e081a7f76a8484506	369178700	1	main_slash	11	main_slash	159	stimuli_distractor_diamondtriangles.svg	stimuli_distractor_trianglediamonds.svg	38	no	53	0	454
6.6.1	win	2022-12-25	19:56:51	20:09:16	739633	61076f4e081a7f76a8484506	369178700	1	main_slash	11	advance_on_keypress_SLASH	160	stimuli_distractor_diamondtriangles.svg	stimuli_distractor_trianglediamonds.svg	38	no	57	0	587