build	computer.platform	date	time	timestamp	time_elapsed_ms	subject	group	session	blockcode	blocknum	trialcode	trialnum	stimulus_left	stimulus_right	stim_index	target_present	response	correct	latency
6.6.1	win	2022-11-07	12:34:54	12:37:59	182950	5dd95432cf08aa8dc50bb42a	852467389	1	practice_slash	5	practice_slash	1	stimuli_distractor_diamondtriangles.svg	stimuli_target_trianglecircles.svg	9	yes	53	1	1638
6.6.1	win	2022-11-07	12:34:54	12:37:59	182950	5dd95432cf08aa8dc50bb42a	852467389	1	practice_slash	5	advance_on_keypress_SLASH	2	stimuli_distractor_diamondtriangles.svg	stimuli_target_trianglecircles.svg	9	yes	57	0	5291
6.6.1	win	2022-11-07	12:34:54	12:38:07	190788	5dd95432cf08aa8dc50bb42a	852467389	1	practice_slash	5	practice_slash	3	stimuli_target_circlediamonds.svg	stimuli_distractor_diamondtriangles.svg	1	yes	53	1	904
6.6.1	win	2022-11-07	12:34:54	12:38:07	190788	5dd95432cf08aa8dc50bb42a	852467389	1	practice_slash	5	advance_on_keypress_SLASH	4	stimuli_target_circlediamonds.svg	stimuli_distractor_diamondtriangles.svg	1	yes	57	0	970
6.6.1	win	2022-11-07	12:34:54	12:38:12	195406	5dd95432cf08aa8dc50bb42a	852467389	1	practice_slash	5	practice_slash	5	stimuli_distractor_trianglediamonds.svg	stimuli_distractor_diamondtriangles.svg	16	no	0	1	2000
6.6.1	win	2022-11-07	12:34:54	12:38:12	195406	5dd95432cf08aa8dc50bb42a	852467389	1	practice_slash	5	advance_on_keypress_SLASH	6	stimuli_distractor_trianglediamonds.svg	stimuli_distractor_diamondtriangles.svg	16	no	57	0	2479
6.6.1	win	2022-11-07	12:34:54	12:38:17	200666	5dd95432cf08aa8dc50bb42a	852467389	1	practice_slash	5	practice_slash	7	stimuli_distractor_diamondtriangles.svg	stimuli_target_diamondcircles.svg	8	yes	53	1	1138
6.6.1	win	2022-11-07	12:34:54	12:38:17	200666	5dd95432cf08aa8dc50bb42a	852467389	1	practice_slash	5	advance_on_keypress_SLASH	8	stimuli_distractor_diamondtriangles.svg	stimuli_target_diamondcircles.svg	8	yes	57	0	883
6.6.1	win	2022-11-07	12:34:54	12:38:22	205183	5dd95432cf08aa8dc50bb42a	852467389	1	practice_slash	5	practice_slash	9	stimuli_target_diamondsquares.svg	stimuli_distractor_diamondtriangles.svg	3	yes	0	0	2000
6.6.1	win	2022-11-07	12:34:54	12:38:22	205183	5dd95432cf08aa8dc50bb42a	852467389	1	practice_slash	5	advance_on_keypress_SLASH	10	stimuli_target_diamondsquares.svg	stimuli_distractor_diamondtriangles.svg	3	yes	57	0	979
6.6.1	win	2022-11-07	12:34:54	12:38:25	208537	5dd95432cf08aa8dc50bb42a	852467389	1	practice_slash	5	practice_slash	11	stimuli_distractor_diamondtriangles.svg	stimuli_target_circletriangles.svg	7	yes	53	1	724
6.6.1	win	2022-11-07	12:34:54	12:38:25	208537	5dd95432cf08aa8dc50bb42a	852467389	1	practice_slash	5	advance_on_keypress_SLASH	12	stimuli_distractor_diamondtriangles.svg	stimuli_target_circletriangles.svg	7	yes	57	0	736
6.6.1	win	2022-11-07	12:34:54	12:38:28	211543	5dd95432cf08aa8dc50bb42a	852467389	1	practice_slash	5	practice_slash	13	stimuli_distractor_trianglediamonds.svg	stimuli_target_circlediamonds.svg	10	yes	53	1	624
6.6.1	win	2022-11-07	12:34:54	12:38:28	211543	5dd95432cf08aa8dc50bb42a	852467389	1	practice_slash	5	advance_on_keypress_SLASH	14	stimuli_distractor_trianglediamonds.svg	stimuli_target_circlediamonds.svg	10	yes	57	0	2091
6.6.1	win	2022-11-07	12:34:54	12:38:32	215884	5dd95432cf08aa8dc50bb42a	852467389	1	practice_slash	5	practice_slash	15	stimuli_distractor_trianglediamonds.svg	stimuli_target_diamondcircles.svg	12	yes	53	1	603
6.6.1	win	2022-11-07	12:34:54	12:38:32	215884	5dd95432cf08aa8dc50bb42a	852467389	1	practice_slash	5	advance_on_keypress_SLASH	16	stimuli_distractor_trianglediamonds.svg	stimuli_target_diamondcircles.svg	12	yes	57	0	981
6.6.1	win	2022-11-07	12:34:54	12:38:36	219214	5dd95432cf08aa8dc50bb42a	852467389	1	practice_slash	5	practice_slash	17	stimuli_target_squarediamonds.svg	stimuli_distractor_diamondtriangles.svg	2	yes	53	1	705
6.6.1	win	2022-11-07	12:34:54	12:38:36	219214	5dd95432cf08aa8dc50bb42a	852467389	1	practice_slash	5	advance_on_keypress_SLASH	18	stimuli_target_squarediamonds.svg	stimuli_distractor_diamondtriangles.svg	2	yes	57	0	883
6.6.1	win	2022-11-07	12:34:54	12:38:40	223737	5dd95432cf08aa8dc50bb42a	852467389	1	practice_slash	5	practice_slash	19	stimuli_distractor_diamondtriangles.svg	stimuli_distractor_diamondtriangles.svg	13	no	0	1	2000
6.6.1	win	2022-11-07	12:34:54	12:38:40	223737	5dd95432cf08aa8dc50bb42a	852467389	1	practice_slash	5	advance_on_keypress_SLASH	20	stimuli_distractor_diamondtriangles.svg	stimuli_distractor_diamondtriangles.svg	13	no	57	0	994
6.6.1	win	2022-11-07	12:34:54	12:38:45	228365	5dd95432cf08aa8dc50bb42a	852467389	1	practice_slash	5	practice_slash	21	stimuli_distractor_diamondtriangles.svg	stimuli_distractor_trianglediamonds.svg	14	no	0	1	2000
6.6.1	win	2022-11-07	12:34:54	12:38:45	228365	5dd95432cf08aa8dc50bb42a	852467389	1	practice_slash	5	advance_on_keypress_SLASH	22	stimuli_distractor_diamondtriangles.svg	stimuli_distractor_trianglediamonds.svg	14	no	57	0	784
6.6.1	win	2022-11-07	12:34:54	12:38:48	231591	5dd95432cf08aa8dc50bb42a	852467389	1	practice_slash	5	practice_slash	23	stimuli_distractor_trianglediamonds.svg	stimuli_target_squarediamonds.svg	11	yes	53	1	798
6.6.1	win	2022-11-07	12:34:54	12:38:48	231591	5dd95432cf08aa8dc50bb42a	852467389	1	practice_slash	5	advance_on_keypress_SLASH	24	stimuli_distractor_trianglediamonds.svg	stimuli_target_squarediamonds.svg	11	yes	57	0	611
6.6.1	win	2022-11-07	12:34:54	12:38:51	234480	5dd95432cf08aa8dc50bb42a	852467389	1	practice_slash	5	practice_slash	25	stimuli_target_circlediamonds.svg	stimuli_distractor_trianglediamonds.svg	4	yes	53	1	634
6.6.1	win	2022-11-07	12:34:54	12:38:51	234480	5dd95432cf08aa8dc50bb42a	852467389	1	practice_slash	5	advance_on_keypress_SLASH	26	stimuli_target_circlediamonds.svg	stimuli_distractor_trianglediamonds.svg	4	yes	57	0	677
6.6.1	win	2022-11-07	12:34:54	12:38:54	237746	5dd95432cf08aa8dc50bb42a	852467389	1	practice_slash	5	practice_slash	27	stimuli_target_squarediamonds.svg	stimuli_distractor_trianglediamonds.svg	5	yes	53	1	951
6.6.1	win	2022-11-07	12:34:54	12:38:54	237746	5dd95432cf08aa8dc50bb42a	852467389	1	practice_slash	5	advance_on_keypress_SLASH	28	stimuli_target_squarediamonds.svg	stimuli_distractor_trianglediamonds.svg	5	yes	57	0	845
6.6.1	win	2022-11-07	12:34:54	12:38:59	242224	5dd95432cf08aa8dc50bb42a	852467389	1	practice_slash	5	practice_slash	29	stimuli_target_diamondsquares.svg	stimuli_distractor_trianglediamonds.svg	6	yes	0	0	2000
6.6.1	win	2022-11-07	12:34:54	12:38:59	242224	5dd95432cf08aa8dc50bb42a	852467389	1	practice_slash	5	advance_on_keypress_SLASH	30	stimuli_target_diamondsquares.svg	stimuli_distractor_trianglediamonds.svg	6	yes	57	0	802
6.6.1	win	2022-11-07	12:34:54	12:39:03	246666	5dd95432cf08aa8dc50bb42a	852467389	1	practice_slash	5	practice_slash	31	stimuli_distractor_trianglediamonds.svg	stimuli_distractor_trianglediamonds.svg	15	no	0	1	2000
6.6.1	win	2022-11-07	12:34:54	12:39:03	246666	5dd95432cf08aa8dc50bb42a	852467389	1	practice_slash	5	advance_on_keypress_SLASH	32	stimuli_distractor_trianglediamonds.svg	stimuli_distractor_trianglediamonds.svg	15	no	57	0	326
6.6.1	win	2022-11-07	12:34:54	12:39:17	260261	5dd95432cf08aa8dc50bb42a	852467389	1	main_slash	7	main_slash	1	stimuli_distractor_diamondtriangles.svg	stimuli_target_diamondcircles.svg	31	yes	53	1	705
6.6.1	win	2022-11-07	12:34:54	12:39:17	260261	5dd95432cf08aa8dc50bb42a	852467389	1	main_slash	7	advance_on_keypress_SLASH	2	stimuli_distractor_diamondtriangles.svg	stimuli_target_diamondcircles.svg	31	yes	57	0	3865
6.6.1	win	2022-11-07	12:34:54	12:39:23	266769	5dd95432cf08aa8dc50bb42a	852467389	1	main_slash	7	main_slash	3	stimuli_distractor_trianglediamonds.svg	stimuli_distractor_diamondtriangles.svg	35	no	0	1	2000
6.6.1	win	2022-11-07	12:34:54	12:39:23	266769	5dd95432cf08aa8dc50bb42a	852467389	1	main_slash	7	advance_on_keypress_SLASH	4	stimuli_distractor_trianglediamonds.svg	stimuli_distractor_diamondtriangles.svg	35	no	57	0	734
6.6.1	win	2022-11-07	12:34:54	12:39:25	268713	5dd95432cf08aa8dc50bb42a	852467389	1	main_slash	7	main_slash	5	stimuli_target_diamondcircles.svg	stimuli_distractor_trianglediamonds.svg	19	yes	53	1	546
6.6.1	win	2022-11-07	12:34:54	12:39:25	268713	5dd95432cf08aa8dc50bb42a	852467389	1	main_slash	7	advance_on_keypress_SLASH	6	stimuli_target_diamondcircles.svg	stimuli_distractor_trianglediamonds.svg	19	yes	57	0	1159
6.6.1	win	2022-11-07	12:34:54	12:39:28	271129	5dd95432cf08aa8dc50bb42a	852467389	1	main_slash	7	main_slash	7	stimuli_distractor_diamondtriangles.svg	stimuli_target_trianglecircles.svg	29	yes	53	1	608
6.6.1	win	2022-11-07	12:34:54	12:39:28	271129	5dd95432cf08aa8dc50bb42a	852467389	1	main_slash	7	advance_on_keypress_SLASH	8	stimuli_distractor_diamondtriangles.svg	stimuli_target_trianglecircles.svg	29	yes	57	0	991
6.6.1	win	2022-11-07	12:34:54	12:39:31	274768	5dd95432cf08aa8dc50bb42a	852467389	1	main_slash	7	main_slash	9	stimuli_distractor_diamondtriangles.svg	stimuli_distractor_trianglediamonds.svg	37	no	0	1	2000
6.6.1	win	2022-11-07	12:34:54	12:39:31	274768	5dd95432cf08aa8dc50bb42a	852467389	1	main_slash	7	advance_on_keypress_SLASH	10	stimuli_distractor_diamondtriangles.svg	stimuli_distractor_trianglediamonds.svg	37	no	57	0	884
6.6.1	win	2022-11-07	12:34:54	12:39:35	278289	5dd95432cf08aa8dc50bb42a	852467389	1	main_slash	7	main_slash	11	stimuli_target_diamondsquares.svg	stimuli_distractor_diamondtriangles.svg	24	yes	0	0	2000
6.6.1	win	2022-11-07	12:34:54	12:39:35	278289	5dd95432cf08aa8dc50bb42a	852467389	1	main_slash	7	advance_on_keypress_SLASH	12	stimuli_target_diamondsquares.svg	stimuli_distractor_diamondtriangles.svg	24	yes	57	0	518
6.6.1	win	2022-11-07	12:34:54	12:39:38	281451	5dd95432cf08aa8dc50bb42a	852467389	1	main_slash	7	main_slash	13	stimuli_distractor_diamondtriangles.svg	stimuli_distractor_trianglediamonds.svg	38	no	0	1	2000
6.6.1	win	2022-11-07	12:34:54	12:39:38	281451	5dd95432cf08aa8dc50bb42a	852467389	1	main_slash	7	advance_on_keypress_SLASH	14	stimuli_distractor_diamondtriangles.svg	stimuli_distractor_trianglediamonds.svg	38	no	57	0	1056
6.6.1	win	2022-11-07	12:34:54	12:39:40	283760	5dd95432cf08aa8dc50bb42a	852467389	1	main_slash	7	main_slash	15	stimuli_distractor_diamondtriangles.svg	stimuli_target_circletriangles.svg	13	yes	53	1	616
6.6.1	win	2022-11-07	12:34:54	12:39:40	283760	5dd95432cf08aa8dc50bb42a	852467389	1	main_slash	7	advance_on_keypress_SLASH	16	stimuli_distractor_diamondtriangles.svg	stimuli_target_circletriangles.svg	13	yes	57	0	1079
6.6.1	win	2022-11-07	12:34:54	12:39:43	286094	5dd95432cf08aa8dc50bb42a	852467389	1	main_slash	7	main_slash	17	stimuli_target_trianglecircles.svg	stimuli_distractor_trianglediamonds.svg	17	yes	53	1	615
6.6.1	win	2022-11-07	12:34:54	12:39:43	286094	5dd95432cf08aa8dc50bb42a	852467389	1	main_slash	7	advance_on_keypress_SLASH	18	stimuli_target_trianglecircles.svg	stimuli_distractor_trianglediamonds.svg	17	yes	57	0	755
6.6.1	win	2022-11-07	12:34:54	12:39:46	289480	5dd95432cf08aa8dc50bb42a	852467389	1	main_slash	7	main_slash	19	stimuli_distractor_trianglediamonds.svg	stimuli_distractor_trianglediamonds.svg	33	no	0	1	2000
6.6.1	win	2022-11-07	12:34:54	12:39:46	289480	5dd95432cf08aa8dc50bb42a	852467389	1	main_slash	7	advance_on_keypress_SLASH	20	stimuli_distractor_trianglediamonds.svg	stimuli_distractor_trianglediamonds.svg	33	no	57	0	384
6.6.1	win	2022-11-07	12:34:54	12:39:47	290921	5dd95432cf08aa8dc50bb42a	852467389	1	main_slash	7	main_slash	21	stimuli_distractor_trianglediamonds.svg	stimuli_target_trianglecircles.svg	25	yes	53	1	414
6.6.1	win	2022-11-07	12:34:54	12:39:47	290921	5dd95432cf08aa8dc50bb42a	852467389	1	main_slash	7	advance_on_keypress_SLASH	22	stimuli_distractor_trianglediamonds.svg	stimuli_target_trianglecircles.svg	25	yes	57	0	3049
6.6.1	win	2022-11-07	12:34:54	12:39:52	295169	5dd95432cf08aa8dc50bb42a	852467389	1	main_slash	7	main_slash	23	stimuli_distractor_trianglediamonds.svg	stimuli_target_circlediamonds.svg	10	yes	53	1	567
6.6.1	win	2022-11-07	12:34:54	12:39:52	295169	5dd95432cf08aa8dc50bb42a	852467389	1	main_slash	7	advance_on_keypress_SLASH	24	stimuli_distractor_trianglediamonds.svg	stimuli_target_circlediamonds.svg	10	yes	57	0	1034
6.6.1	win	2022-11-07	12:34:54	12:39:55	298847	5dd95432cf08aa8dc50bb42a	852467389	1	main_slash	7	main_slash	25	stimuli_target_trianglesquares.svg	stimuli_distractor_diamondtriangles.svg	22	yes	0	0	2000
6.6.1	win	2022-11-07	12:34:54	12:39:55	298847	5dd95432cf08aa8dc50bb42a	852467389	1	main_slash	7	advance_on_keypress_SLASH	26	stimuli_target_trianglesquares.svg	stimuli_distractor_diamondtriangles.svg	22	yes	57	0	352
6.6.1	win	2022-11-07	12:34:54	12:39:57	300437	5dd95432cf08aa8dc50bb42a	852467389	1	main_slash	7	main_slash	27	stimuli_target_squarediamonds.svg	stimuli_distractor_diamondtriangles.svg	8	yes	53	1	603
6.6.1	win	2022-11-07	12:34:54	12:39:57	300437	5dd95432cf08aa8dc50bb42a	852467389	1	main_slash	7	advance_on_keypress_SLASH	28	stimuli_target_squarediamonds.svg	stimuli_distractor_diamondtriangles.svg	8	yes	57	0	1100
6.6.1	win	2022-11-07	12:34:54	12:39:59	303015	5dd95432cf08aa8dc50bb42a	852467389	1	main_slash	7	main_slash	29	stimuli_distractor_diamondtriangles.svg	stimuli_target_squaretriangles.svg	15	yes	53	1	827
6.6.1	win	2022-11-07	12:34:54	12:39:59	303015	5dd95432cf08aa8dc50bb42a	852467389	1	main_slash	7	advance_on_keypress_SLASH	30	stimuli_distractor_diamondtriangles.svg	stimuli_target_squaretriangles.svg	15	yes	57	0	558
6.6.1	win	2022-11-07	12:34:54	12:40:03	306206	5dd95432cf08aa8dc50bb42a	852467389	1	main_slash	7	main_slash	31	stimuli_distractor_trianglediamonds.svg	stimuli_target_trianglesquares.svg	26	yes	0	0	2000
6.6.1	win	2022-11-07	12:34:54	12:40:03	306206	5dd95432cf08aa8dc50bb42a	852467389	1	main_slash	7	advance_on_keypress_SLASH	32	stimuli_distractor_trianglediamonds.svg	stimuli_target_trianglesquares.svg	26	yes	57	0	2409
6.6.1	win	2022-11-07	12:34:54	12:40:06	309857	5dd95432cf08aa8dc50bb42a	852467389	1	main_slash	7	main_slash	33	stimuli_distractor_trianglediamonds.svg	stimuli_target_diamondcircles.svg	27	yes	53	1	610
6.6.1	win	2022-11-07	12:34:54	12:40:06	309857	5dd95432cf08aa8dc50bb42a	852467389	1	main_slash	7	advance_on_keypress_SLASH	34	stimuli_distractor_trianglediamonds.svg	stimuli_target_diamondcircles.svg	27	yes	57	0	708
6.6.1	win	2022-11-07	12:34:54	12:40:09	312301	5dd95432cf08aa8dc50bb42a	852467389	1	main_slash	7	main_slash	35	stimuli_distractor_trianglediamonds.svg	stimuli_target_squaretriangles.svg	11	yes	53	1	1105
6.6.1	win	2022-11-07	12:34:54	12:40:09	312301	5dd95432cf08aa8dc50bb42a	852467389	1	main_slash	7	advance_on_keypress_SLASH	36	stimuli_distractor_trianglediamonds.svg	stimuli_target_squaretriangles.svg	11	yes	57	0	868
6.6.1	win	2022-11-07	12:34:54	12:40:12	315129	5dd95432cf08aa8dc50bb42a	852467389	1	main_slash	7	main_slash	37	stimuli_target_trianglesquares.svg	stimuli_distractor_trianglediamonds.svg	18	yes	53	1	1319
6.6.1	win	2022-11-07	12:34:54	12:40:12	315129	5dd95432cf08aa8dc50bb42a	852467389	1	main_slash	7	advance_on_keypress_SLASH	38	stimuli_target_trianglesquares.svg	stimuli_distractor_trianglediamonds.svg	18	yes	57	0	889
6.6.1	win	2022-11-07	12:34:54	12:40:15	318260	5dd95432cf08aa8dc50bb42a	852467389	1	main_slash	7	main_slash	39	stimuli_distractor_diamondtriangles.svg	stimuli_target_squarediamonds.svg	16	yes	53	1	1610
6.6.1	win	2022-11-07	12:34:54	12:40:15	318260	5dd95432cf08aa8dc50bb42a	852467389	1	main_slash	7	advance_on_keypress_SLASH	40	stimuli_distractor_diamondtriangles.svg	stimuli_target_squarediamonds.svg	16	yes	57	0	716
6.6.1	win	2022-11-07	12:34:54	12:40:17	320524	5dd95432cf08aa8dc50bb42a	852467389	1	main_slash	7	main_slash	41	stimuli_distractor_diamondtriangles.svg	stimuli_target_circlediamonds.svg	14	yes	53	1	926
6.6.1	win	2022-11-07	12:34:54	12:40:17	320524	5dd95432cf08aa8dc50bb42a	852467389	1	main_slash	7	advance_on_keypress_SLASH	42	stimuli_distractor_diamondtriangles.svg	stimuli_target_circlediamonds.svg	14	yes	57	0	390
6.6.1	win	2022-11-07	12:34:54	12:40:19	322536	5dd95432cf08aa8dc50bb42a	852467389	1	main_slash	7	main_slash	43	stimuli_distractor_trianglediamonds.svg	stimuli_target_circletriangles.svg	9	yes	53	1	991
6.6.1	win	2022-11-07	12:34:54	12:40:19	322536	5dd95432cf08aa8dc50bb42a	852467389	1	main_slash	7	advance_on_keypress_SLASH	44	stimuli_distractor_trianglediamonds.svg	stimuli_target_circletriangles.svg	9	yes	57	0	1256
6.6.1	win	2022-11-07	12:34:54	12:40:23	326427	5dd95432cf08aa8dc50bb42a	852467389	1	main_slash	7	main_slash	45	stimuli_distractor_diamondtriangles.svg	stimuli_target_diamondsquares.svg	32	yes	0	0	2000
6.6.1	win	2022-11-07	12:34:54	12:40:23	326427	5dd95432cf08aa8dc50bb42a	852467389	1	main_slash	7	advance_on_keypress_SLASH	46	stimuli_distractor_diamondtriangles.svg	stimuli_target_diamondsquares.svg	32	yes	57	0	2328
6.6.1	win	2022-11-07	12:34:54	12:40:26	330040	5dd95432cf08aa8dc50bb42a	852467389	1	main_slash	7	main_slash	47	stimuli_target_diamondcircles.svg	stimuli_distractor_diamondtriangles.svg	23	yes	53	1	652
6.6.1	win	2022-11-07	12:34:54	12:40:26	330040	5dd95432cf08aa8dc50bb42a	852467389	1	main_slash	7	advance_on_keypress_SLASH	48	stimuli_target_diamondcircles.svg	stimuli_distractor_diamondtriangles.svg	23	yes	57	0	357
6.6.1	win	2022-11-07	12:34:54	12:40:28	331862	5dd95432cf08aa8dc50bb42a	852467389	1	main_slash	7	main_slash	49	stimuli_target_circlediamonds.svg	stimuli_distractor_trianglediamonds.svg	2	yes	53	1	820
6.6.1	win	2022-11-07	12:34:54	12:40:28	331862	5dd95432cf08aa8dc50bb42a	852467389	1	main_slash	7	advance_on_keypress_SLASH	50	stimuli_target_circlediamonds.svg	stimuli_distractor_trianglediamonds.svg	2	yes	57	0	325
6.6.1	win	2022-11-07	12:34:54	12:40:30	333923	5dd95432cf08aa8dc50bb42a	852467389	1	main_slash	7	main_slash	51	stimuli_target_trianglecircles.svg	stimuli_distractor_diamondtriangles.svg	21	yes	53	1	1106
6.6.1	win	2022-11-07	12:34:54	12:40:30	333923	5dd95432cf08aa8dc50bb42a	852467389	1	main_slash	7	advance_on_keypress_SLASH	52	stimuli_target_trianglecircles.svg	stimuli_distractor_diamondtriangles.svg	21	yes	57	0	466
6.6.1	win	2022-11-07	12:34:54	12:40:32	335972	5dd95432cf08aa8dc50bb42a	852467389	1	main_slash	7	main_slash	53	stimuli_target_squaretriangles.svg	stimuli_distractor_diamondtriangles.svg	7	yes	53	1	942
6.6.1	win	2022-11-07	12:34:54	12:40:32	335972	5dd95432cf08aa8dc50bb42a	852467389	1	main_slash	7	advance_on_keypress_SLASH	54	stimuli_target_squaretriangles.svg	stimuli_distractor_diamondtriangles.svg	7	yes	57	0	342
6.6.1	win	2022-11-07	12:34:54	12:40:35	338938	5dd95432cf08aa8dc50bb42a	852467389	1	main_slash	7	main_slash	55	stimuli_distractor_diamondtriangles.svg	stimuli_distractor_diamondtriangles.svg	40	no	0	1	2000
6.6.1	win	2022-11-07	12:34:54	12:40:35	338938	5dd95432cf08aa8dc50bb42a	852467389	1	main_slash	7	advance_on_keypress_SLASH	56	stimuli_distractor_diamondtriangles.svg	stimuli_distractor_diamondtriangles.svg	40	no	57	0	685
6.6.1	win	2022-11-07	12:34:54	12:40:38	341223	5dd95432cf08aa8dc50bb42a	852467389	1	main_slash	7	main_slash	57	stimuli_target_squaretriangles.svg	stimuli_distractor_trianglediamonds.svg	3	yes	53	1	964
6.6.1	win	2022-11-07	12:34:54	12:40:38	341223	5dd95432cf08aa8dc50bb42a	852467389	1	main_slash	7	advance_on_keypress_SLASH	58	stimuli_target_squaretriangles.svg	stimuli_distractor_trianglediamonds.svg	3	yes	57	0	823
6.6.1	win	2022-11-07	12:34:54	12:40:41	344674	5dd95432cf08aa8dc50bb42a	852467389	1	main_slash	7	main_slash	59	stimuli_target_diamondsquares.svg	stimuli_distractor_trianglediamonds.svg	20	yes	0	0	2000
6.6.1	win	2022-11-07	12:34:54	12:40:41	344674	5dd95432cf08aa8dc50bb42a	852467389	1	main_slash	7	advance_on_keypress_SLASH	60	stimuli_target_diamondsquares.svg	stimuli_distractor_trianglediamonds.svg	20	yes	57	0	935
6.6.1	win	2022-11-07	12:34:54	12:40:45	348249	5dd95432cf08aa8dc50bb42a	852467389	1	main_slash	7	main_slash	61	stimuli_distractor_diamondtriangles.svg	stimuli_distractor_diamondtriangles.svg	39	no	0	1	2000
6.6.1	win	2022-11-07	12:34:54	12:40:45	348249	5dd95432cf08aa8dc50bb42a	852467389	1	main_slash	7	advance_on_keypress_SLASH	62	stimuli_distractor_diamondtriangles.svg	stimuli_distractor_diamondtriangles.svg	39	no	57	0	581
6.6.1	win	2022-11-07	12:34:54	12:40:47	350227	5dd95432cf08aa8dc50bb42a	852467389	1	main_slash	7	main_slash	63	stimuli_target_squarediamonds.svg	stimuli_distractor_trianglediamonds.svg	4	yes	53	1	764
6.6.1	win	2022-11-07	12:34:54	12:40:47	350227	5dd95432cf08aa8dc50bb42a	852467389	1	main_slash	7	advance_on_keypress_SLASH	64	stimuli_target_squarediamonds.svg	stimuli_distractor_trianglediamonds.svg	4	yes	57	0	410
6.6.1	win	2022-11-07	12:34:54	12:40:48	351850	5dd95432cf08aa8dc50bb42a	852467389	1	main_slash	7	main_slash	65	stimuli_target_circletriangles.svg	stimuli_distractor_diamondtriangles.svg	5	yes	53	1	574
6.6.1	win	2022-11-07	12:34:54	12:40:48	351850	5dd95432cf08aa8dc50bb42a	852467389	1	main_slash	7	advance_on_keypress_SLASH	66	stimuli_target_circletriangles.svg	stimuli_distractor_diamondtriangles.svg	5	yes	57	0	3974
6.6.1	win	2022-11-07	12:34:54	12:40:54	357071	5dd95432cf08aa8dc50bb42a	852467389	1	main_slash	7	main_slash	67	stimuli_target_circletriangles.svg	stimuli_distractor_trianglediamonds.svg	1	yes	53	1	606
6.6.1	win	2022-11-07	12:34:54	12:40:54	357071	5dd95432cf08aa8dc50bb42a	852467389	1	main_slash	7	advance_on_keypress_SLASH	68	stimuli_target_circletriangles.svg	stimuli_distractor_trianglediamonds.svg	1	yes	57	0	1253
6.6.1	win	2022-11-07	12:34:54	12:40:56	359592	5dd95432cf08aa8dc50bb42a	852467389	1	main_slash	7	main_slash	69	stimuli_target_circlediamonds.svg	stimuli_distractor_diamondtriangles.svg	6	yes	53	1	633
6.6.1	win	2022-11-07	12:34:54	12:40:56	359592	5dd95432cf08aa8dc50bb42a	852467389	1	main_slash	7	advance_on_keypress_SLASH	70	stimuli_target_circlediamonds.svg	stimuli_distractor_diamondtriangles.svg	6	yes	57	0	1089
6.6.1	win	2022-11-07	12:34:54	12:41:00	363308	5dd95432cf08aa8dc50bb42a	852467389	1	main_slash	7	main_slash	71	stimuli_distractor_trianglediamonds.svg	stimuli_distractor_diamondtriangles.svg	36	no	0	1	2000
6.6.1	win	2022-11-07	12:34:54	12:41:00	363308	5dd95432cf08aa8dc50bb42a	852467389	1	main_slash	7	advance_on_keypress_SLASH	72	stimuli_distractor_trianglediamonds.svg	stimuli_distractor_diamondtriangles.svg	36	no	57	0	361
6.6.1	win	2022-11-07	12:34:54	12:41:02	365115	5dd95432cf08aa8dc50bb42a	852467389	1	main_slash	7	main_slash	73	stimuli_distractor_trianglediamonds.svg	stimuli_target_squarediamonds.svg	12	yes	53	1	807
6.6.1	win	2022-11-07	12:34:54	12:41:02	365115	5dd95432cf08aa8dc50bb42a	852467389	1	main_slash	7	advance_on_keypress_SLASH	74	stimuli_distractor_trianglediamonds.svg	stimuli_target_squarediamonds.svg	12	yes	57	0	1131
6.6.1	win	2022-11-07	12:34:54	12:41:05	368883	5dd95432cf08aa8dc50bb42a	852467389	1	main_slash	7	main_slash	75	stimuli_distractor_trianglediamonds.svg	stimuli_distractor_trianglediamonds.svg	34	no	0	1	2000
6.6.1	win	2022-11-07	12:34:54	12:41:05	368883	5dd95432cf08aa8dc50bb42a	852467389	1	main_slash	7	advance_on_keypress_SLASH	76	stimuli_distractor_trianglediamonds.svg	stimuli_distractor_trianglediamonds.svg	34	no	57	0	338
6.6.1	win	2022-11-07	12:34:54	12:41:08	371857	5dd95432cf08aa8dc50bb42a	852467389	1	main_slash	7	main_slash	77	stimuli_distractor_trianglediamonds.svg	stimuli_target_diamondsquares.svg	28	yes	0	0	2000
6.6.1	win	2022-11-07	12:34:54	12:41:08	371857	5dd95432cf08aa8dc50bb42a	852467389	1	main_slash	7	advance_on_keypress_SLASH	78	stimuli_distractor_trianglediamonds.svg	stimuli_target_diamondsquares.svg	28	yes	57	0	437
6.6.1	win	2022-11-07	12:34:54	12:41:11	374610	5dd95432cf08aa8dc50bb42a	852467389	1	main_slash	7	main_slash	79	stimuli_distractor_diamondtriangles.svg	stimuli_target_trianglesquares.svg	30	yes	53	1	1682
6.6.1	win	2022-11-07	12:34:54	12:41:11	374610	5dd95432cf08aa8dc50bb42a	852467389	1	main_slash	7	advance_on_keypress_SLASH	80	stimuli_distractor_diamondtriangles.svg	stimuli_target_trianglesquares.svg	30	yes	57	0	814
6.6.1	win	2022-11-07	12:34:54	12:41:14	377073	5dd95432cf08aa8dc50bb42a	852467389	1	main_slash	7	main_slash	81	stimuli_distractor_diamondtriangles.svg	stimuli_target_diamondsquares.svg	32	yes	53	1	1014
6.6.1	win	2022-11-07	12:34:54	12:41:14	377073	5dd95432cf08aa8dc50bb42a	852467389	1	main_slash	7	advance_on_keypress_SLASH	82	stimuli_distractor_diamondtriangles.svg	stimuli_target_diamondsquares.svg	32	yes	57	0	746
6.6.1	win	2022-11-07	12:34:54	12:41:17	380461	5dd95432cf08aa8dc50bb42a	852467389	1	main_slash	7	main_slash	83	stimuli_distractor_trianglediamonds.svg	stimuli_target_squarediamonds.svg	12	yes	0	0	2000
6.6.1	win	2022-11-07	12:34:54	12:41:17	380461	5dd95432cf08aa8dc50bb42a	852467389	1	main_slash	7	advance_on_keypress_SLASH	84	stimuli_distractor_trianglediamonds.svg	stimuli_target_squarediamonds.svg	12	yes	57	0	380
6.6.1	win	2022-11-07	12:34:54	12:41:19	382231	5dd95432cf08aa8dc50bb42a	852467389	1	main_slash	7	main_slash	85	stimuli_distractor_diamondtriangles.svg	stimuli_target_squaretriangles.svg	15	yes	53	1	757
6.6.1	win	2022-11-07	12:34:54	12:41:19	382231	5dd95432cf08aa8dc50bb42a	852467389	1	main_slash	7	advance_on_keypress_SLASH	86	stimuli_distractor_diamondtriangles.svg	stimuli_target_squaretriangles.svg	15	yes	57	0	684
6.6.1	win	2022-11-07	12:34:54	12:41:22	385556	5dd95432cf08aa8dc50bb42a	852467389	1	main_slash	7	main_slash	87	stimuli_distractor_trianglediamonds.svg	stimuli_distractor_trianglediamonds.svg	33	no	0	1	2000
6.6.1	win	2022-11-07	12:34:54	12:41:22	385556	5dd95432cf08aa8dc50bb42a	852467389	1	main_slash	7	advance_on_keypress_SLASH	88	stimuli_distractor_trianglediamonds.svg	stimuli_distractor_trianglediamonds.svg	33	no	57	0	301
6.6.1	win	2022-11-07	12:34:54	12:41:25	388490	5dd95432cf08aa8dc50bb42a	852467389	1	main_slash	7	main_slash	89	stimuli_distractor_trianglediamonds.svg	stimuli_distractor_trianglediamonds.svg	34	no	0	1	2000
6.6.1	win	2022-11-07	12:34:54	12:41:25	388490	5dd95432cf08aa8dc50bb42a	852467389	1	main_slash	7	advance_on_keypress_SLASH	90	stimuli_distractor_trianglediamonds.svg	stimuli_distractor_trianglediamonds.svg	34	no	57	0	328
6.6.1	win	2022-11-07	12:34:54	12:41:27	390218	5dd95432cf08aa8dc50bb42a	852467389	1	main_slash	7	main_slash	91	stimuli_target_trianglecircles.svg	stimuli_distractor_diamondtriangles.svg	21	yes	53	1	767
6.6.1	win	2022-11-07	12:34:54	12:41:27	390218	5dd95432cf08aa8dc50bb42a	852467389	1	main_slash	7	advance_on_keypress_SLASH	92	stimuli_target_trianglecircles.svg	stimuli_distractor_diamondtriangles.svg	21	yes	57	0	959
6.6.1	win	2022-11-07	12:34:54	12:41:29	392603	5dd95432cf08aa8dc50bb42a	852467389	1	main_slash	7	main_slash	93	stimuli_target_diamondcircles.svg	stimuli_distractor_trianglediamonds.svg	19	yes	53	1	791
6.6.1	win	2022-11-07	12:34:54	12:41:29	392603	5dd95432cf08aa8dc50bb42a	852467389	1	main_slash	7	advance_on_keypress_SLASH	94	stimuli_target_diamondcircles.svg	stimuli_distractor_trianglediamonds.svg	19	yes	57	0	345
6.6.1	win	2022-11-07	12:34:54	12:41:31	394406	5dd95432cf08aa8dc50bb42a	852467389	1	main_slash	7	main_slash	95	stimuli_distractor_trianglediamonds.svg	stimuli_target_trianglecircles.svg	25	yes	53	1	820
6.6.1	win	2022-11-07	12:34:54	12:41:31	394406	5dd95432cf08aa8dc50bb42a	852467389	1	main_slash	7	advance_on_keypress_SLASH	96	stimuli_distractor_trianglediamonds.svg	stimuli_target_trianglecircles.svg	25	yes	57	0	1032
6.6.1	win	2022-11-07	12:34:54	12:41:34	397071	5dd95432cf08aa8dc50bb42a	852467389	1	main_slash	7	main_slash	97	stimuli_distractor_trianglediamonds.svg	stimuli_target_diamondcircles.svg	27	yes	53	1	1004
6.6.1	win	2022-11-07	12:34:54	12:41:34	397071	5dd95432cf08aa8dc50bb42a	852467389	1	main_slash	7	advance_on_keypress_SLASH	98	stimuli_distractor_trianglediamonds.svg	stimuli_target_diamondcircles.svg	27	yes	57	0	848
6.6.1	win	2022-11-07	12:34:54	12:41:37	400548	5dd95432cf08aa8dc50bb42a	852467389	1	main_slash	7	main_slash	99	stimuli_distractor_trianglediamonds.svg	stimuli_distractor_diamondtriangles.svg	36	no	0	1	2000
6.6.1	win	2022-11-07	12:34:54	12:41:37	400548	5dd95432cf08aa8dc50bb42a	852467389	1	main_slash	7	advance_on_keypress_SLASH	100	stimuli_distractor_trianglediamonds.svg	stimuli_distractor_diamondtriangles.svg	36	no	57	0	308
6.6.1	win	2022-11-07	12:34:54	12:41:39	402510	5dd95432cf08aa8dc50bb42a	852467389	1	main_slash	7	main_slash	101	stimuli_distractor_diamondtriangles.svg	stimuli_target_circlediamonds.svg	14	yes	53	1	1014
6.6.1	win	2022-11-07	12:34:54	12:41:39	402510	5dd95432cf08aa8dc50bb42a	852467389	1	main_slash	7	advance_on_keypress_SLASH	102	stimuli_distractor_diamondtriangles.svg	stimuli_target_circlediamonds.svg	14	yes	57	0	499
6.6.1	win	2022-11-07	12:34:54	12:41:42	405643	5dd95432cf08aa8dc50bb42a	852467389	1	main_slash	7	main_slash	103	stimuli_target_diamondsquares.svg	stimuli_distractor_trianglediamonds.svg	20	yes	0	0	2000
6.6.1	win	2022-11-07	12:34:54	12:41:42	405643	5dd95432cf08aa8dc50bb42a	852467389	1	main_slash	7	advance_on_keypress_SLASH	104	stimuli_target_diamondsquares.svg	stimuli_distractor_trianglediamonds.svg	20	yes	57	0	703
6.6.1	win	2022-11-07	12:34:54	12:41:44	407727	5dd95432cf08aa8dc50bb42a	852467389	1	main_slash	7	main_slash	105	stimuli_distractor_trianglediamonds.svg	stimuli_target_circlediamonds.svg	10	yes	53	1	746
6.6.1	win	2022-11-07	12:34:54	12:41:44	407727	5dd95432cf08aa8dc50bb42a	852467389	1	main_slash	7	advance_on_keypress_SLASH	106	stimuli_distractor_trianglediamonds.svg	stimuli_target_circlediamonds.svg	10	yes	57	0	396
6.6.1	win	2022-11-07	12:34:54	12:41:46	409833	5dd95432cf08aa8dc50bb42a	852467389	1	main_slash	7	main_slash	107	stimuli_target_trianglesquares.svg	stimuli_distractor_trianglediamonds.svg	18	yes	53	1	1068
6.6.1	win	2022-11-07	12:34:54	12:41:46	409833	5dd95432cf08aa8dc50bb42a	852467389	1	main_slash	7	advance_on_keypress_SLASH	108	stimuli_target_trianglesquares.svg	stimuli_distractor_trianglediamonds.svg	18	yes	57	0	359
6.6.1	win	2022-11-07	12:34:54	12:41:49	412833	5dd95432cf08aa8dc50bb42a	852467389	1	main_slash	7	main_slash	109	stimuli_distractor_diamondtriangles.svg	stimuli_distractor_trianglediamonds.svg	37	no	0	1	2000
6.6.1	win	2022-11-07	12:34:54	12:41:49	412833	5dd95432cf08aa8dc50bb42a	852467389	1	main_slash	7	advance_on_keypress_SLASH	110	stimuli_distractor_diamondtriangles.svg	stimuli_distractor_trianglediamonds.svg	37	no	57	0	316
6.6.1	win	2022-11-07	12:34:54	12:41:51	414671	5dd95432cf08aa8dc50bb42a	852467389	1	main_slash	7	main_slash	111	stimuli_target_trianglesquares.svg	stimuli_distractor_diamondtriangles.svg	22	yes	53	1	891
6.6.1	win	2022-11-07	12:34:54	12:41:51	414671	5dd95432cf08aa8dc50bb42a	852467389	1	main_slash	7	advance_on_keypress_SLASH	112	stimuli_target_trianglesquares.svg	stimuli_distractor_diamondtriangles.svg	22	yes	57	0	347
6.6.1	win	2022-11-07	12:34:54	12:41:53	416444	5dd95432cf08aa8dc50bb42a	852467389	1	main_slash	7	main_slash	113	stimuli_target_diamondcircles.svg	stimuli_distractor_diamondtriangles.svg	23	yes	53	1	784
6.6.1	win	2022-11-07	12:34:54	12:41:53	416444	5dd95432cf08aa8dc50bb42a	852467389	1	main_slash	7	advance_on_keypress_SLASH	114	stimuli_target_diamondcircles.svg	stimuli_distractor_diamondtriangles.svg	23	yes	57	0	296
6.6.1	win	2022-11-07	12:34:54	12:41:56	419369	5dd95432cf08aa8dc50bb42a	852467389	1	main_slash	7	main_slash	115	stimuli_distractor_diamondtriangles.svg	stimuli_distractor_diamondtriangles.svg	39	no	0	1	2000
6.6.1	win	2022-11-07	12:34:54	12:41:56	419369	5dd95432cf08aa8dc50bb42a	852467389	1	main_slash	7	advance_on_keypress_SLASH	116	stimuli_distractor_diamondtriangles.svg	stimuli_distractor_diamondtriangles.svg	39	no	57	0	703
6.6.1	win	2022-11-07	12:34:54	12:41:58	421405	5dd95432cf08aa8dc50bb42a	852467389	1	main_slash	7	main_slash	117	stimuli_target_circlediamonds.svg	stimuli_distractor_trianglediamonds.svg	2	yes	53	1	703
6.6.1	win	2022-11-07	12:34:54	12:41:58	421405	5dd95432cf08aa8dc50bb42a	852467389	1	main_slash	7	advance_on_keypress_SLASH	118	stimuli_target_circlediamonds.svg	stimuli_distractor_trianglediamonds.svg	2	yes	57	0	375
6.6.1	win	2022-11-07	12:34:54	12:42:00	423323	5dd95432cf08aa8dc50bb42a	852467389	1	main_slash	7	main_slash	119	stimuli_distractor_trianglediamonds.svg	stimuli_target_circletriangles.svg	9	yes	53	1	913
6.6.1	win	2022-11-07	12:34:54	12:42:00	423323	5dd95432cf08aa8dc50bb42a	852467389	1	main_slash	7	advance_on_keypress_SLASH	120	stimuli_distractor_trianglediamonds.svg	stimuli_target_circletriangles.svg	9	yes	57	0	5570
6.6.1	win	2022-11-07	12:34:54	12:42:07	430146	5dd95432cf08aa8dc50bb42a	852467389	1	main_slash	7	main_slash	121	stimuli_distractor_diamondtriangles.svg	stimuli_target_trianglecircles.svg	29	yes	53	1	626
6.6.1	win	2022-11-07	12:34:54	12:42:07	430146	5dd95432cf08aa8dc50bb42a	852467389	1	main_slash	7	advance_on_keypress_SLASH	122	stimuli_distractor_diamondtriangles.svg	stimuli_target_trianglecircles.svg	29	yes	57	0	388
6.6.1	win	2022-11-07	12:34:54	12:42:08	431938	5dd95432cf08aa8dc50bb42a	852467389	1	main_slash	7	main_slash	123	stimuli_target_squarediamonds.svg	stimuli_distractor_diamondtriangles.svg	8	yes	53	1	765
6.6.1	win	2022-11-07	12:34:54	12:42:08	431938	5dd95432cf08aa8dc50bb42a	852467389	1	main_slash	7	advance_on_keypress_SLASH	124	stimuli_target_squarediamonds.svg	stimuli_distractor_diamondtriangles.svg	8	yes	57	0	394
6.6.1	win	2022-11-07	12:34:54	12:42:10	433819	5dd95432cf08aa8dc50bb42a	852467389	1	main_slash	7	main_slash	125	stimuli_target_squaretriangles.svg	stimuli_distractor_diamondtriangles.svg	7	yes	53	1	859
6.6.1	win	2022-11-07	12:34:54	12:42:10	433819	5dd95432cf08aa8dc50bb42a	852467389	1	main_slash	7	advance_on_keypress_SLASH	126	stimuli_target_squaretriangles.svg	stimuli_distractor_diamondtriangles.svg	7	yes	57	0	349
6.6.1	win	2022-11-07	12:34:54	12:42:13	436802	5dd95432cf08aa8dc50bb42a	852467389	1	main_slash	7	main_slash	127	stimuli_distractor_diamondtriangles.svg	stimuli_distractor_diamondtriangles.svg	40	no	0	1	2000
6.6.1	win	2022-11-07	12:34:54	12:42:13	436802	5dd95432cf08aa8dc50bb42a	852467389	1	main_slash	7	advance_on_keypress_SLASH	128	stimuli_distractor_diamondtriangles.svg	stimuli_distractor_diamondtriangles.svg	40	no	57	0	339
6.6.1	win	2022-11-07	12:34:54	12:42:15	438479	5dd95432cf08aa8dc50bb42a	852467389	1	main_slash	7	main_slash	129	stimuli_target_squarediamonds.svg	stimuli_distractor_trianglediamonds.svg	4	yes	53	1	704
6.6.1	win	2022-11-07	12:34:54	12:42:15	438479	5dd95432cf08aa8dc50bb42a	852467389	1	main_slash	7	advance_on_keypress_SLASH	130	stimuli_target_squarediamonds.svg	stimuli_distractor_trianglediamonds.svg	4	yes	57	0	350
6.6.1	win	2022-11-07	12:34:54	12:42:17	440261	5dd95432cf08aa8dc50bb42a	852467389	1	main_slash	7	main_slash	131	stimuli_target_circlediamonds.svg	stimuli_distractor_diamondtriangles.svg	6	yes	53	1	790
6.6.1	win	2022-11-07	12:34:54	12:42:17	440261	5dd95432cf08aa8dc50bb42a	852467389	1	main_slash	7	advance_on_keypress_SLASH	132	stimuli_target_circlediamonds.svg	stimuli_distractor_diamondtriangles.svg	6	yes	57	0	285
6.6.1	win	2022-11-07	12:34:54	12:42:18	441965	5dd95432cf08aa8dc50bb42a	852467389	1	main_slash	7	main_slash	133	stimuli_distractor_diamondtriangles.svg	stimuli_target_trianglesquares.svg	30	yes	53	1	788
6.6.1	win	2022-11-07	12:34:54	12:42:18	441965	5dd95432cf08aa8dc50bb42a	852467389	1	main_slash	7	advance_on_keypress_SLASH	134	stimuli_distractor_diamondtriangles.svg	stimuli_target_trianglesquares.svg	30	yes	57	0	304
6.6.1	win	2022-11-07	12:34:54	12:42:21	444898	5dd95432cf08aa8dc50bb42a	852467389	1	main_slash	7	main_slash	135	stimuli_distractor_diamondtriangles.svg	stimuli_distractor_trianglediamonds.svg	38	no	0	1	2000
6.6.1	win	2022-11-07	12:34:54	12:42:21	444898	5dd95432cf08aa8dc50bb42a	852467389	1	main_slash	7	advance_on_keypress_SLASH	136	stimuli_distractor_diamondtriangles.svg	stimuli_distractor_trianglediamonds.svg	38	no	57	0	526
6.6.1	win	2022-11-07	12:34:54	12:42:23	446848	5dd95432cf08aa8dc50bb42a	852467389	1	main_slash	7	main_slash	137	stimuli_target_trianglecircles.svg	stimuli_distractor_trianglediamonds.svg	17	yes	53	1	790
6.6.1	win	2022-11-07	12:34:54	12:42:23	446848	5dd95432cf08aa8dc50bb42a	852467389	1	main_slash	7	advance_on_keypress_SLASH	138	stimuli_target_trianglecircles.svg	stimuli_distractor_trianglediamonds.svg	17	yes	57	0	397
6.6.1	win	2022-11-07	12:34:54	12:42:25	448849	5dd95432cf08aa8dc50bb42a	852467389	1	main_slash	7	main_slash	139	stimuli_distractor_diamondtriangles.svg	stimuli_target_circletriangles.svg	13	yes	53	1	971
6.6.1	win	2022-11-07	12:34:54	12:42:25	448849	5dd95432cf08aa8dc50bb42a	852467389	1	main_slash	7	advance_on_keypress_SLASH	140	stimuli_distractor_diamondtriangles.svg	stimuli_target_circletriangles.svg	13	yes	57	0	756
6.6.1	win	2022-11-07	12:34:54	12:42:27	450960	5dd95432cf08aa8dc50bb42a	852467389	1	main_slash	7	main_slash	141	stimuli_distractor_diamondtriangles.svg	stimuli_target_diamondcircles.svg	31	yes	53	1	713
6.6.1	win	2022-11-07	12:34:54	12:42:27	450960	5dd95432cf08aa8dc50bb42a	852467389	1	main_slash	7	advance_on_keypress_SLASH	142	stimuli_distractor_diamondtriangles.svg	stimuli_target_diamondcircles.svg	31	yes	57	0	1802
6.6.1	win	2022-11-07	12:34:54	12:42:31	454076	5dd95432cf08aa8dc50bb42a	852467389	1	main_slash	7	main_slash	143	stimuli_target_circletriangles.svg	stimuli_distractor_diamondtriangles.svg	5	yes	53	1	681
6.6.1	win	2022-11-07	12:34:54	12:42:31	454076	5dd95432cf08aa8dc50bb42a	852467389	1	main_slash	7	advance_on_keypress_SLASH	144	stimuli_target_circletriangles.svg	stimuli_distractor_diamondtriangles.svg	5	yes	57	0	481
6.6.1	win	2022-11-07	12:34:54	12:42:33	456136	5dd95432cf08aa8dc50bb42a	852467389	1	main_slash	7	main_slash	145	stimuli_target_squaretriangles.svg	stimuli_distractor_trianglediamonds.svg	3	yes	53	1	941
6.6.1	win	2022-11-07	12:34:54	12:42:33	456136	5dd95432cf08aa8dc50bb42a	852467389	1	main_slash	7	advance_on_keypress_SLASH	146	stimuli_target_squaretriangles.svg	stimuli_distractor_trianglediamonds.svg	3	yes	57	0	586
6.6.1	win	2022-11-07	12:34:54	12:42:36	459357	5dd95432cf08aa8dc50bb42a	852467389	1	main_slash	7	main_slash	147	stimuli_distractor_trianglediamonds.svg	stimuli_distractor_diamondtriangles.svg	35	no	0	1	2000
6.6.1	win	2022-11-07	12:34:54	12:42:36	459357	5dd95432cf08aa8dc50bb42a	852467389	1	main_slash	7	advance_on_keypress_SLASH	148	stimuli_distractor_trianglediamonds.svg	stimuli_distractor_diamondtriangles.svg	35	no	57	0	379
6.6.1	win	2022-11-07	12:34:54	12:42:38	461269	5dd95432cf08aa8dc50bb42a	852467389	1	main_slash	7	main_slash	149	stimuli_distractor_trianglediamonds.svg	stimuli_target_squaretriangles.svg	11	yes	53	1	899
6.6.1	win	2022-11-07	12:34:54	12:42:38	461269	5dd95432cf08aa8dc50bb42a	852467389	1	main_slash	7	advance_on_keypress_SLASH	150	stimuli_distractor_trianglediamonds.svg	stimuli_target_squaretriangles.svg	11	yes	57	0	728
6.6.1	win	2022-11-07	12:34:54	12:42:40	463649	5dd95432cf08aa8dc50bb42a	852467389	1	main_slash	7	main_slash	151	stimuli_distractor_trianglediamonds.svg	stimuli_target_trianglesquares.svg	26	yes	53	1	1024
6.6.1	win	2022-11-07	12:34:54	12:42:40	463649	5dd95432cf08aa8dc50bb42a	852467389	1	main_slash	7	advance_on_keypress_SLASH	152	stimuli_distractor_trianglediamonds.svg	stimuli_target_trianglesquares.svg	26	yes	57	0	890
6.6.1	win	2022-11-07	12:34:54	12:42:42	466019	5dd95432cf08aa8dc50bb42a	852467389	1	main_slash	7	main_slash	153	stimuli_distractor_diamondtriangles.svg	stimuli_target_squarediamonds.svg	16	yes	53	1	847
6.6.1	win	2022-11-07	12:34:54	12:42:42	466019	5dd95432cf08aa8dc50bb42a	852467389	1	main_slash	7	advance_on_keypress_SLASH	154	stimuli_distractor_diamondtriangles.svg	stimuli_target_squarediamonds.svg	16	yes	57	0	1257
6.6.1	win	2022-11-07	12:34:54	12:42:45	468635	5dd95432cf08aa8dc50bb42a	852467389	1	main_slash	7	main_slash	155	stimuli_target_circletriangles.svg	stimuli_distractor_trianglediamonds.svg	1	yes	53	1	728
6.6.1	win	2022-11-07	12:34:54	12:42:45	468635	5dd95432cf08aa8dc50bb42a	852467389	1	main_slash	7	advance_on_keypress_SLASH	156	stimuli_target_circletriangles.svg	stimuli_distractor_trianglediamonds.svg	1	yes	57	0	799
6.6.1	win	2022-11-07	12:34:54	12:42:47	470940	5dd95432cf08aa8dc50bb42a	852467389	1	main_slash	7	main_slash	157	stimuli_target_diamondsquares.svg	stimuli_distractor_diamondtriangles.svg	24	yes	53	1	872
6.6.1	win	2022-11-07	12:34:54	12:42:47	470940	5dd95432cf08aa8dc50bb42a	852467389	1	main_slash	7	advance_on_keypress_SLASH	158	stimuli_target_diamondsquares.svg	stimuli_distractor_diamondtriangles.svg	24	yes	57	0	674
6.6.1	win	2022-11-07	12:34:54	12:42:50	473333	5dd95432cf08aa8dc50bb42a	852467389	1	main_slash	7	main_slash	159	stimuli_distractor_trianglediamonds.svg	stimuli_target_diamondsquares.svg	28	yes	53	1	1091
6.6.1	win	2022-11-07	12:34:54	12:42:50	473333	5dd95432cf08aa8dc50bb42a	852467389	1	main_slash	7	advance_on_keypress_SLASH	160	stimuli_distractor_trianglediamonds.svg	stimuli_target_diamondsquares.svg	28	yes	57	0	1156
6.6.1	win	2022-11-07	12:34:54	12:43:20	503606	5dd95432cf08aa8dc50bb42a	852467389	1	practice_z	9	practice_z	1	stimuli_target_diamondsquares.svg	stimuli_distractor_diamondtriangles.svg	3	yes	44	1	632
6.6.1	win	2022-11-07	12:34:54	12:43:20	503606	5dd95432cf08aa8dc50bb42a	852467389	1	practice_z	9	advance_on_keypress_ZEE	2	stimuli_target_diamondsquares.svg	stimuli_distractor_diamondtriangles.svg	3	yes	57	0	489
6.6.1	win	2022-11-07	12:34:54	12:43:23	506309	5dd95432cf08aa8dc50bb42a	852467389	1	practice_z	9	practice_z	3	stimuli_distractor_diamondtriangles.svg	stimuli_target_diamondcircles.svg	8	yes	44	1	587
6.6.1	win	2022-11-07	12:34:54	12:43:23	506309	5dd95432cf08aa8dc50bb42a	852467389	1	practice_z	9	advance_on_keypress_ZEE	4	stimuli_distractor_diamondtriangles.svg	stimuli_target_diamondcircles.svg	8	yes	57	0	642
6.6.1	win	2022-11-07	12:34:54	12:43:27	510591	5dd95432cf08aa8dc50bb42a	852467389	1	practice_z	9	practice_z	5	stimuli_distractor_trianglediamonds.svg	stimuli_distractor_trianglediamonds.svg	15	no	0	1	2000
6.6.1	win	2022-11-07	12:34:54	12:43:27	510591	5dd95432cf08aa8dc50bb42a	852467389	1	practice_z	9	advance_on_keypress_ZEE	6	stimuli_distractor_trianglediamonds.svg	stimuli_distractor_trianglediamonds.svg	15	no	57	0	450
6.6.1	win	2022-11-07	12:34:54	12:43:30	513166	5dd95432cf08aa8dc50bb42a	852467389	1	practice_z	9	practice_z	7	stimuli_distractor_trianglediamonds.svg	stimuli_target_circlediamonds.svg	10	yes	44	1	481
6.6.1	win	2022-11-07	12:34:54	12:43:30	513166	5dd95432cf08aa8dc50bb42a	852467389	1	practice_z	9	advance_on_keypress_ZEE	8	stimuli_distractor_trianglediamonds.svg	stimuli_target_circlediamonds.svg	10	yes	57	0	552
6.6.1	win	2022-11-07	12:34:54	12:43:34	517353	5dd95432cf08aa8dc50bb42a	852467389	1	practice_z	9	practice_z	9	stimuli_distractor_diamondtriangles.svg	stimuli_distractor_trianglediamonds.svg	14	no	0	1	2000
6.6.1	win	2022-11-07	12:34:54	12:43:34	517353	5dd95432cf08aa8dc50bb42a	852467389	1	practice_z	9	advance_on_keypress_ZEE	10	stimuli_distractor_diamondtriangles.svg	stimuli_distractor_trianglediamonds.svg	14	no	57	0	373
6.6.1	win	2022-11-07	12:34:54	12:43:36	519905	5dd95432cf08aa8dc50bb42a	852467389	1	practice_z	9	practice_z	11	stimuli_target_circlediamonds.svg	stimuli_distractor_trianglediamonds.svg	4	yes	44	1	539
6.6.1	win	2022-11-07	12:34:54	12:43:36	519905	5dd95432cf08aa8dc50bb42a	852467389	1	practice_z	9	advance_on_keypress_ZEE	12	stimuli_target_circlediamonds.svg	stimuli_distractor_trianglediamonds.svg	4	yes	57	0	537
6.6.1	win	2022-11-07	12:34:54	12:43:39	522701	5dd95432cf08aa8dc50bb42a	852467389	1	practice_z	9	practice_z	13	stimuli_distractor_diamondtriangles.svg	stimuli_target_circletriangles.svg	7	yes	44	1	626
6.6.1	win	2022-11-07	12:34:54	12:43:39	522701	5dd95432cf08aa8dc50bb42a	852467389	1	practice_z	9	advance_on_keypress_ZEE	14	stimuli_distractor_diamondtriangles.svg	stimuli_target_circletriangles.svg	7	yes	57	0	525
6.6.1	win	2022-11-07	12:34:54	12:43:42	525450	5dd95432cf08aa8dc50bb42a	852467389	1	practice_z	9	practice_z	15	stimuli_target_squarediamonds.svg	stimuli_distractor_trianglediamonds.svg	5	yes	44	1	586
6.6.1	win	2022-11-07	12:34:54	12:43:42	525450	5dd95432cf08aa8dc50bb42a	852467389	1	practice_z	9	advance_on_keypress_ZEE	16	stimuli_target_squarediamonds.svg	stimuli_distractor_trianglediamonds.svg	5	yes	57	0	409
6.6.1	win	2022-11-07	12:34:54	12:43:45	528069	5dd95432cf08aa8dc50bb42a	852467389	1	practice_z	9	practice_z	17	stimuli_target_circlediamonds.svg	stimuli_distractor_diamondtriangles.svg	1	yes	44	1	565
6.6.1	win	2022-11-07	12:34:54	12:43:45	528069	5dd95432cf08aa8dc50bb42a	852467389	1	practice_z	9	advance_on_keypress_ZEE	18	stimuli_target_circlediamonds.svg	stimuli_distractor_diamondtriangles.svg	1	yes	57	0	346
6.6.1	win	2022-11-07	12:34:54	12:43:47	530635	5dd95432cf08aa8dc50bb42a	852467389	1	practice_z	9	practice_z	19	stimuli_distractor_trianglediamonds.svg	stimuli_target_diamondcircles.svg	12	yes	44	1	584
6.6.1	win	2022-11-07	12:34:54	12:43:47	530635	5dd95432cf08aa8dc50bb42a	852467389	1	practice_z	9	advance_on_keypress_ZEE	20	stimuli_distractor_trianglediamonds.svg	stimuli_target_diamondcircles.svg	12	yes	57	0	596
6.6.1	win	2022-11-07	12:34:54	12:43:51	534867	5dd95432cf08aa8dc50bb42a	852467389	1	practice_z	9	practice_z	21	stimuli_target_diamondsquares.svg	stimuli_distractor_trianglediamonds.svg	6	yes	0	0	2000
6.6.1	win	2022-11-07	12:34:54	12:43:51	534867	5dd95432cf08aa8dc50bb42a	852467389	1	practice_z	9	advance_on_keypress_ZEE	22	stimuli_target_diamondsquares.svg	stimuli_distractor_trianglediamonds.svg	6	yes	57	0	659
6.6.1	win	2022-11-07	12:34:54	12:43:54	537738	5dd95432cf08aa8dc50bb42a	852467389	1	practice_z	9	practice_z	23	stimuli_distractor_diamondtriangles.svg	stimuli_target_trianglecircles.svg	9	yes	44	1	578
6.6.1	win	2022-11-07	12:34:54	12:43:54	537738	5dd95432cf08aa8dc50bb42a	852467389	1	practice_z	9	advance_on_keypress_ZEE	24	stimuli_distractor_diamondtriangles.svg	stimuli_target_trianglecircles.svg	9	yes	57	0	278
6.6.1	win	2022-11-07	12:34:54	12:43:57	540568	5dd95432cf08aa8dc50bb42a	852467389	1	practice_z	9	practice_z	25	stimuli_target_squarediamonds.svg	stimuli_distractor_diamondtriangles.svg	2	yes	44	1	913
6.6.1	win	2022-11-07	12:34:54	12:43:57	540568	5dd95432cf08aa8dc50bb42a	852467389	1	practice_z	9	advance_on_keypress_ZEE	26	stimuli_target_squarediamonds.svg	stimuli_distractor_diamondtriangles.svg	2	yes	57	0	374
6.6.1	win	2022-11-07	12:34:54	12:44:01	544577	5dd95432cf08aa8dc50bb42a	852467389	1	practice_z	9	practice_z	27	stimuli_distractor_diamondtriangles.svg	stimuli_distractor_diamondtriangles.svg	13	no	0	1	2000
6.6.1	win	2022-11-07	12:34:54	12:44:01	544577	5dd95432cf08aa8dc50bb42a	852467389	1	practice_z	9	advance_on_keypress_ZEE	28	stimuli_distractor_diamondtriangles.svg	stimuli_distractor_diamondtriangles.svg	13	no	57	0	423
6.6.1	win	2022-11-07	12:34:54	12:44:05	548632	5dd95432cf08aa8dc50bb42a	852467389	1	practice_z	9	practice_z	29	stimuli_distractor_trianglediamonds.svg	stimuli_distractor_diamondtriangles.svg	16	no	0	1	2000
6.6.1	win	2022-11-07	12:34:54	12:44:05	548632	5dd95432cf08aa8dc50bb42a	852467389	1	practice_z	9	advance_on_keypress_ZEE	30	stimuli_distractor_trianglediamonds.svg	stimuli_distractor_diamondtriangles.svg	16	no	57	0	1554
6.6.1	win	2022-11-07	12:34:54	12:44:09	552398	5dd95432cf08aa8dc50bb42a	852467389	1	practice_z	9	practice_z	31	stimuli_distractor_trianglediamonds.svg	stimuli_target_squarediamonds.svg	11	yes	44	1	578
6.6.1	win	2022-11-07	12:34:54	12:44:09	552398	5dd95432cf08aa8dc50bb42a	852467389	1	practice_z	9	advance_on_keypress_ZEE	32	stimuli_distractor_trianglediamonds.svg	stimuli_target_squarediamonds.svg	11	yes	57	0	451
6.6.1	win	2022-11-07	12:34:54	12:44:15	558096	5dd95432cf08aa8dc50bb42a	852467389	1	main_z	11	main_z	1	stimuli_target_diamondsquares.svg	stimuli_distractor_trianglediamonds.svg	20	yes	44	1	969
6.6.1	win	2022-11-07	12:34:54	12:44:15	558096	5dd95432cf08aa8dc50bb42a	852467389	1	main_z	11	advance_on_keypress_ZEE	2	stimuli_target_diamondsquares.svg	stimuli_distractor_trianglediamonds.svg	20	yes	57	0	1968
6.6.1	win	2022-11-07	12:34:54	12:44:18	561257	5dd95432cf08aa8dc50bb42a	852467389	1	main_z	11	main_z	3	stimuli_distractor_diamondtriangles.svg	stimuli_target_trianglecircles.svg	29	yes	44	1	556
6.6.1	win	2022-11-07	12:34:54	12:44:18	561257	5dd95432cf08aa8dc50bb42a	852467389	1	main_z	11	advance_on_keypress_ZEE	4	stimuli_distractor_diamondtriangles.svg	stimuli_target_trianglecircles.svg	29	yes	57	0	625
6.6.1	win	2022-11-07	12:34:54	12:44:20	563226	5dd95432cf08aa8dc50bb42a	852467389	1	main_z	11	main_z	5	stimuli_target_squaretriangles.svg	stimuli_distractor_trianglediamonds.svg	3	yes	44	1	711
6.6.1	win	2022-11-07	12:34:54	12:44:20	563226	5dd95432cf08aa8dc50bb42a	852467389	1	main_z	11	advance_on_keypress_ZEE	6	stimuli_target_squaretriangles.svg	stimuli_distractor_trianglediamonds.svg	3	yes	57	0	831
6.6.1	win	2022-11-07	12:34:54	12:44:22	565399	5dd95432cf08aa8dc50bb42a	852467389	1	main_z	11	main_z	7	stimuli_target_diamondcircles.svg	stimuli_distractor_diamondtriangles.svg	23	yes	44	1	709
6.6.1	win	2022-11-07	12:34:54	12:44:22	565399	5dd95432cf08aa8dc50bb42a	852467389	1	main_z	11	advance_on_keypress_ZEE	8	stimuli_target_diamondcircles.svg	stimuli_distractor_diamondtriangles.svg	23	yes	57	0	691
6.6.1	win	2022-11-07	12:34:54	12:44:24	567301	5dd95432cf08aa8dc50bb42a	852467389	1	main_z	11	main_z	9	stimuli_distractor_diamondtriangles.svg	stimuli_target_circletriangles.svg	13	yes	44	1	571
6.6.1	win	2022-11-07	12:34:54	12:44:24	567301	5dd95432cf08aa8dc50bb42a	852467389	1	main_z	11	advance_on_keypress_ZEE	10	stimuli_distractor_diamondtriangles.svg	stimuli_target_circletriangles.svg	13	yes	57	0	511
6.6.1	win	2022-11-07	12:34:54	12:44:25	569003	5dd95432cf08aa8dc50bb42a	852467389	1	main_z	11	main_z	11	stimuli_target_trianglecircles.svg	stimuli_distractor_trianglediamonds.svg	17	yes	44	1	552
6.6.1	win	2022-11-07	12:34:54	12:44:25	569003	5dd95432cf08aa8dc50bb42a	852467389	1	main_z	11	advance_on_keypress_ZEE	12	stimuli_target_trianglecircles.svg	stimuli_distractor_trianglediamonds.svg	17	yes	57	0	446
6.6.1	win	2022-11-07	12:34:54	12:44:27	570597	5dd95432cf08aa8dc50bb42a	852467389	1	main_z	11	main_z	13	stimuli_target_circletriangles.svg	stimuli_distractor_diamondtriangles.svg	5	yes	44	1	519
6.6.1	win	2022-11-07	12:34:54	12:44:27	570597	5dd95432cf08aa8dc50bb42a	852467389	1	main_z	11	advance_on_keypress_ZEE	14	stimuli_target_circletriangles.svg	stimuli_distractor_diamondtriangles.svg	5	yes	57	0	426
6.6.1	win	2022-11-07	12:34:54	12:44:29	572126	5dd95432cf08aa8dc50bb42a	852467389	1	main_z	11	main_z	15	stimuli_target_trianglecircles.svg	stimuli_distractor_diamondtriangles.svg	21	yes	44	1	461
6.6.1	win	2022-11-07	12:34:54	12:44:29	572126	5dd95432cf08aa8dc50bb42a	852467389	1	main_z	11	advance_on_keypress_ZEE	16	stimuli_target_trianglecircles.svg	stimuli_distractor_diamondtriangles.svg	21	yes	57	0	455
6.6.1	win	2022-11-07	12:34:54	12:44:30	574018	5dd95432cf08aa8dc50bb42a	852467389	1	main_z	11	main_z	17	stimuli_distractor_diamondtriangles.svg	stimuli_target_squaretriangles.svg	15	yes	44	1	804
6.6.1	win	2022-11-07	12:34:54	12:44:30	574018	5dd95432cf08aa8dc50bb42a	852467389	1	main_z	11	advance_on_keypress_ZEE	18	stimuli_distractor_diamondtriangles.svg	stimuli_target_squaretriangles.svg	15	yes	57	0	593
6.6.1	win	2022-11-07	12:34:54	12:44:32	575759	5dd95432cf08aa8dc50bb42a	852467389	1	main_z	11	main_z	19	stimuli_distractor_diamondtriangles.svg	stimuli_target_circlediamonds.svg	14	yes	44	1	516
6.6.1	win	2022-11-07	12:34:54	12:44:32	575759	5dd95432cf08aa8dc50bb42a	852467389	1	main_z	11	advance_on_keypress_ZEE	20	stimuli_distractor_diamondtriangles.svg	stimuli_target_circlediamonds.svg	14	yes	57	0	444
6.6.1	win	2022-11-07	12:34:54	12:44:34	577325	5dd95432cf08aa8dc50bb42a	852467389	1	main_z	11	main_z	21	stimuli_target_circlediamonds.svg	stimuli_distractor_trianglediamonds.svg	2	yes	44	1	483
6.6.1	win	2022-11-07	12:34:54	12:44:34	577325	5dd95432cf08aa8dc50bb42a	852467389	1	main_z	11	advance_on_keypress_ZEE	22	stimuli_target_circlediamonds.svg	stimuli_distractor_trianglediamonds.svg	2	yes	57	0	444
6.6.1	win	2022-11-07	12:34:54	12:44:35	578869	5dd95432cf08aa8dc50bb42a	852467389	1	main_z	11	main_z	23	stimuli_target_circlediamonds.svg	stimuli_distractor_diamondtriangles.svg	6	yes	44	1	468
6.6.1	win	2022-11-07	12:34:54	12:44:35	578869	5dd95432cf08aa8dc50bb42a	852467389	1	main_z	11	advance_on_keypress_ZEE	24	stimuli_target_circlediamonds.svg	stimuli_distractor_diamondtriangles.svg	6	yes	57	0	428
6.6.1	win	2022-11-07	12:34:54	12:44:38	581936	5dd95432cf08aa8dc50bb42a	852467389	1	main_z	11	main_z	25	stimuli_distractor_diamondtriangles.svg	stimuli_distractor_trianglediamonds.svg	38	no	0	1	2000
6.6.1	win	2022-11-07	12:34:54	12:44:38	581936	5dd95432cf08aa8dc50bb42a	852467389	1	main_z	11	advance_on_keypress_ZEE	26	stimuli_distractor_diamondtriangles.svg	stimuli_distractor_trianglediamonds.svg	38	no	57	0	313
6.6.1	win	2022-11-07	12:34:54	12:44:40	583632	5dd95432cf08aa8dc50bb42a	852467389	1	main_z	11	main_z	27	stimuli_target_trianglesquares.svg	stimuli_distractor_trianglediamonds.svg	18	yes	44	1	749
6.6.1	win	2022-11-07	12:34:54	12:44:40	583632	5dd95432cf08aa8dc50bb42a	852467389	1	main_z	11	advance_on_keypress_ZEE	28	stimuli_target_trianglesquares.svg	stimuli_distractor_trianglediamonds.svg	18	yes	57	0	519
6.6.1	win	2022-11-07	12:34:54	12:44:42	585287	5dd95432cf08aa8dc50bb42a	852467389	1	main_z	11	main_z	29	stimuli_target_trianglesquares.svg	stimuli_distractor_diamondtriangles.svg	22	yes	44	1	496
6.6.1	win	2022-11-07	12:34:54	12:44:42	585287	5dd95432cf08aa8dc50bb42a	852467389	1	main_z	11	advance_on_keypress_ZEE	30	stimuli_target_trianglesquares.svg	stimuli_distractor_diamondtriangles.svg	22	yes	57	0	382
6.6.1	win	2022-11-07	12:34:54	12:44:45	588298	5dd95432cf08aa8dc50bb42a	852467389	1	main_z	11	main_z	31	stimuli_distractor_diamondtriangles.svg	stimuli_distractor_diamondtriangles.svg	39	no	0	1	2000
6.6.1	win	2022-11-07	12:34:54	12:44:45	588298	5dd95432cf08aa8dc50bb42a	852467389	1	main_z	11	advance_on_keypress_ZEE	32	stimuli_distractor_diamondtriangles.svg	stimuli_distractor_diamondtriangles.svg	39	no	57	0	386
6.6.1	win	2022-11-07	12:34:54	12:44:46	589793	5dd95432cf08aa8dc50bb42a	852467389	1	main_z	11	main_z	33	stimuli_distractor_diamondtriangles.svg	stimuli_target_trianglesquares.svg	30	yes	44	1	468
6.6.1	win	2022-11-07	12:34:54	12:44:46	589793	5dd95432cf08aa8dc50bb42a	852467389	1	main_z	11	advance_on_keypress_ZEE	34	stimuli_distractor_diamondtriangles.svg	stimuli_target_trianglesquares.svg	30	yes	57	0	371
6.6.1	win	2022-11-07	12:34:54	12:44:48	591547	5dd95432cf08aa8dc50bb42a	852467389	1	main_z	11	main_z	35	stimuli_distractor_trianglediamonds.svg	stimuli_target_squaretriangles.svg	11	yes	44	1	741
6.6.1	win	2022-11-07	12:34:54	12:44:48	591547	5dd95432cf08aa8dc50bb42a	852467389	1	main_z	11	advance_on_keypress_ZEE	36	stimuli_distractor_trianglediamonds.svg	stimuli_target_squaretriangles.svg	11	yes	57	0	319
6.6.1	win	2022-11-07	12:34:54	12:44:51	594501	5dd95432cf08aa8dc50bb42a	852467389	1	main_z	11	main_z	37	stimuli_distractor_trianglediamonds.svg	stimuli_distractor_trianglediamonds.svg	34	no	0	1	2000
6.6.1	win	2022-11-07	12:34:54	12:44:51	594501	5dd95432cf08aa8dc50bb42a	852467389	1	main_z	11	advance_on_keypress_ZEE	38	stimuli_distractor_trianglediamonds.svg	stimuli_distractor_trianglediamonds.svg	34	no	57	0	354
6.6.1	win	2022-11-07	12:34:54	12:44:53	596065	5dd95432cf08aa8dc50bb42a	852467389	1	main_z	11	main_z	39	stimuli_target_diamondcircles.svg	stimuli_distractor_trianglediamonds.svg	19	yes	44	1	577
6.6.1	win	2022-11-07	12:34:54	12:44:53	596065	5dd95432cf08aa8dc50bb42a	852467389	1	main_z	11	advance_on_keypress_ZEE	40	stimuli_target_diamondcircles.svg	stimuli_distractor_trianglediamonds.svg	19	yes	57	0	434
6.6.1	win	2022-11-07	12:34:54	12:44:54	597729	5dd95432cf08aa8dc50bb42a	852467389	1	main_z	11	main_z	41	stimuli_distractor_diamondtriangles.svg	stimuli_target_diamondsquares.svg	32	yes	44	1	601
6.6.1	win	2022-11-07	12:34:54	12:44:54	597729	5dd95432cf08aa8dc50bb42a	852467389	1	main_z	11	advance_on_keypress_ZEE	42	stimuli_distractor_diamondtriangles.svg	stimuli_target_diamondsquares.svg	32	yes	57	0	357
6.6.1	win	2022-11-07	12:34:54	12:44:56	599932	5dd95432cf08aa8dc50bb42a	852467389	1	main_z	11	main_z	43	stimuli_target_diamondsquares.svg	stimuli_distractor_diamondtriangles.svg	24	yes	44	1	1203
6.6.1	win	2022-11-07	12:34:54	12:44:56	599932	5dd95432cf08aa8dc50bb42a	852467389	1	main_z	11	advance_on_keypress_ZEE	44	stimuli_target_diamondsquares.svg	stimuli_distractor_diamondtriangles.svg	24	yes	57	0	3408
6.6.1	win	2022-11-07	12:34:54	12:45:01	604494	5dd95432cf08aa8dc50bb42a	852467389	1	main_z	11	main_z	45	stimuli_distractor_trianglediamonds.svg	stimuli_target_squarediamonds.svg	12	yes	44	1	523
6.6.1	win	2022-11-07	12:34:54	12:45:01	604494	5dd95432cf08aa8dc50bb42a	852467389	1	main_z	11	advance_on_keypress_ZEE	46	stimuli_distractor_trianglediamonds.svg	stimuli_target_squarediamonds.svg	12	yes	57	0	1685
6.6.1	win	2022-11-07	12:34:54	12:45:04	607261	5dd95432cf08aa8dc50bb42a	852467389	1	main_z	11	main_z	47	stimuli_distractor_trianglediamonds.svg	stimuli_target_circletriangles.svg	9	yes	44	1	449
6.6.1	win	2022-11-07	12:34:54	12:45:04	607261	5dd95432cf08aa8dc50bb42a	852467389	1	main_z	11	advance_on_keypress_ZEE	48	stimuli_distractor_trianglediamonds.svg	stimuli_target_circletriangles.svg	9	yes	57	0	393
6.6.1	win	2022-11-07	12:34:54	12:45:05	608694	5dd95432cf08aa8dc50bb42a	852467389	1	main_z	11	main_z	49	stimuli_distractor_trianglediamonds.svg	stimuli_target_diamondcircles.svg	27	yes	44	1	415
6.6.1	win	2022-11-07	12:34:54	12:45:05	608694	5dd95432cf08aa8dc50bb42a	852467389	1	main_z	11	advance_on_keypress_ZEE	50	stimuli_distractor_trianglediamonds.svg	stimuli_target_diamondcircles.svg	27	yes	57	0	416
6.6.1	win	2022-11-07	12:34:54	12:45:08	611747	5dd95432cf08aa8dc50bb42a	852467389	1	main_z	11	main_z	51	stimuli_distractor_trianglediamonds.svg	stimuli_distractor_diamondtriangles.svg	36	no	0	1	2000
6.6.1	win	2022-11-07	12:34:54	12:45:08	611747	5dd95432cf08aa8dc50bb42a	852467389	1	main_z	11	advance_on_keypress_ZEE	52	stimuli_distractor_trianglediamonds.svg	stimuli_distractor_diamondtriangles.svg	36	no	57	0	390
6.6.1	win	2022-11-07	12:34:54	12:45:10	613169	5dd95432cf08aa8dc50bb42a	852467389	1	main_z	11	main_z	53	stimuli_distractor_trianglediamonds.svg	stimuli_target_diamondsquares.svg	28	yes	44	1	395
6.6.1	win	2022-11-07	12:34:54	12:45:10	613169	5dd95432cf08aa8dc50bb42a	852467389	1	main_z	11	advance_on_keypress_ZEE	54	stimuli_distractor_trianglediamonds.svg	stimuli_target_diamondsquares.svg	28	yes	57	0	416
6.6.1	win	2022-11-07	12:34:54	12:45:11	614664	5dd95432cf08aa8dc50bb42a	852467389	1	main_z	11	main_z	55	stimuli_target_squaretriangles.svg	stimuli_distractor_diamondtriangles.svg	7	yes	44	1	449
6.6.1	win	2022-11-07	12:34:54	12:45:11	614664	5dd95432cf08aa8dc50bb42a	852467389	1	main_z	11	advance_on_keypress_ZEE	56	stimuli_target_squaretriangles.svg	stimuli_distractor_diamondtriangles.svg	7	yes	57	0	392
6.6.1	win	2022-11-07	12:34:54	12:45:13	616132	5dd95432cf08aa8dc50bb42a	852467389	1	main_z	11	main_z	57	stimuli_distractor_diamondtriangles.svg	stimuli_target_squarediamonds.svg	16	yes	44	1	450
6.6.1	win	2022-11-07	12:34:54	12:45:13	616132	5dd95432cf08aa8dc50bb42a	852467389	1	main_z	11	advance_on_keypress_ZEE	58	stimuli_distractor_diamondtriangles.svg	stimuli_target_squarediamonds.svg	16	yes	57	0	386
6.6.1	win	2022-11-07	12:34:54	12:45:14	617561	5dd95432cf08aa8dc50bb42a	852467389	1	main_z	11	main_z	59	stimuli_target_circletriangles.svg	stimuli_distractor_trianglediamonds.svg	1	yes	44	1	412
6.6.1	win	2022-11-07	12:34:54	12:45:14	617561	5dd95432cf08aa8dc50bb42a	852467389	1	main_z	11	advance_on_keypress_ZEE	60	stimuli_target_circletriangles.svg	stimuli_distractor_trianglediamonds.svg	1	yes	57	0	357
6.6.1	win	2022-11-07	12:34:54	12:45:15	618919	5dd95432cf08aa8dc50bb42a	852467389	1	main_z	11	main_z	61	stimuli_target_squarediamonds.svg	stimuli_distractor_diamondtriangles.svg	8	yes	44	1	356
6.6.1	win	2022-11-07	12:34:54	12:45:15	618919	5dd95432cf08aa8dc50bb42a	852467389	1	main_z	11	advance_on_keypress_ZEE	62	stimuli_target_squarediamonds.svg	stimuli_distractor_diamondtriangles.svg	8	yes	57	0	386
6.6.1	win	2022-11-07	12:34:54	12:45:17	620550	5dd95432cf08aa8dc50bb42a	852467389	1	main_z	11	main_z	63	stimuli_distractor_diamondtriangles.svg	stimuli_target_diamondcircles.svg	31	yes	44	1	613
6.6.1	win	2022-11-07	12:34:54	12:45:17	620550	5dd95432cf08aa8dc50bb42a	852467389	1	main_z	11	advance_on_keypress_ZEE	64	stimuli_distractor_diamondtriangles.svg	stimuli_target_diamondcircles.svg	31	yes	57	0	1430
6.6.1	win	2022-11-07	12:34:54	12:45:19	623036	5dd95432cf08aa8dc50bb42a	852467389	1	main_z	11	main_z	65	stimuli_distractor_trianglediamonds.svg	stimuli_target_trianglesquares.svg	26	yes	44	1	418
6.6.1	win	2022-11-07	12:34:54	12:45:19	623036	5dd95432cf08aa8dc50bb42a	852467389	1	main_z	11	advance_on_keypress_ZEE	66	stimuli_distractor_trianglediamonds.svg	stimuli_target_trianglesquares.svg	26	yes	57	0	407
6.6.1	win	2022-11-07	12:34:54	12:45:23	626072	5dd95432cf08aa8dc50bb42a	852467389	1	main_z	11	main_z	67	stimuli_distractor_trianglediamonds.svg	stimuli_distractor_diamondtriangles.svg	35	no	0	1	2000
6.6.1	win	2022-11-07	12:34:54	12:45:23	626072	5dd95432cf08aa8dc50bb42a	852467389	1	main_z	11	advance_on_keypress_ZEE	68	stimuli_distractor_trianglediamonds.svg	stimuli_distractor_diamondtriangles.svg	35	no	57	0	330
6.6.1	win	2022-11-07	12:34:54	12:45:25	629034	5dd95432cf08aa8dc50bb42a	852467389	1	main_z	11	main_z	69	stimuli_distractor_diamondtriangles.svg	stimuli_distractor_trianglediamonds.svg	37	no	0	1	2000
6.6.1	win	2022-11-07	12:34:54	12:45:25	629034	5dd95432cf08aa8dc50bb42a	852467389	1	main_z	11	advance_on_keypress_ZEE	70	stimuli_distractor_diamondtriangles.svg	stimuli_distractor_trianglediamonds.svg	37	no	57	0	333
6.6.1	win	2022-11-07	12:34:54	12:45:27	630433	5dd95432cf08aa8dc50bb42a	852467389	1	main_z	11	main_z	71	stimuli_distractor_trianglediamonds.svg	stimuli_target_trianglecircles.svg	25	yes	44	1	426
6.6.1	win	2022-11-07	12:34:54	12:45:27	630433	5dd95432cf08aa8dc50bb42a	852467389	1	main_z	11	advance_on_keypress_ZEE	72	stimuli_distractor_trianglediamonds.svg	stimuli_target_trianglecircles.svg	25	yes	57	0	858
6.6.1	win	2022-11-07	12:34:54	12:45:30	633929	5dd95432cf08aa8dc50bb42a	852467389	1	main_z	11	main_z	73	stimuli_distractor_trianglediamonds.svg	stimuli_distractor_trianglediamonds.svg	33	no	0	1	2000
6.6.1	win	2022-11-07	12:34:54	12:45:30	633929	5dd95432cf08aa8dc50bb42a	852467389	1	main_z	11	advance_on_keypress_ZEE	74	stimuli_distractor_trianglediamonds.svg	stimuli_distractor_trianglediamonds.svg	33	no	57	0	342
6.6.1	win	2022-11-07	12:34:54	12:45:33	636903	5dd95432cf08aa8dc50bb42a	852467389	1	main_z	11	main_z	75	stimuli_distractor_diamondtriangles.svg	stimuli_distractor_diamondtriangles.svg	40	no	0	1	2000
6.6.1	win	2022-11-07	12:34:54	12:45:33	636903	5dd95432cf08aa8dc50bb42a	852467389	1	main_z	11	advance_on_keypress_ZEE	76	stimuli_distractor_diamondtriangles.svg	stimuli_distractor_diamondtriangles.svg	40	no	57	0	701
6.6.1	win	2022-11-07	12:34:54	12:45:35	638772	5dd95432cf08aa8dc50bb42a	852467389	1	main_z	11	main_z	77	stimuli_distractor_trianglediamonds.svg	stimuli_target_circlediamonds.svg	10	yes	44	1	535
6.6.1	win	2022-11-07	12:34:54	12:45:35	638772	5dd95432cf08aa8dc50bb42a	852467389	1	main_z	11	advance_on_keypress_ZEE	78	stimuli_distractor_trianglediamonds.svg	stimuli_target_circlediamonds.svg	10	yes	57	0	325
6.6.1	win	2022-11-07	12:34:54	12:45:37	640250	5dd95432cf08aa8dc50bb42a	852467389	1	main_z	11	main_z	79	stimuli_target_squarediamonds.svg	stimuli_distractor_trianglediamonds.svg	4	yes	44	1	507
6.6.1	win	2022-11-07	12:34:54	12:45:37	640250	5dd95432cf08aa8dc50bb42a	852467389	1	main_z	11	advance_on_keypress_ZEE	80	stimuli_target_squarediamonds.svg	stimuli_distractor_trianglediamonds.svg	4	yes	57	0	355
6.6.1	win	2022-11-07	12:34:54	12:45:40	643261	5dd95432cf08aa8dc50bb42a	852467389	1	main_z	11	main_z	81	stimuli_target_circlediamonds.svg	stimuli_distractor_trianglediamonds.svg	2	yes	0	0	2000
6.6.1	win	2022-11-07	12:34:54	12:45:40	643261	5dd95432cf08aa8dc50bb42a	852467389	1	main_z	11	advance_on_keypress_ZEE	82	stimuli_target_circlediamonds.svg	stimuli_distractor_trianglediamonds.svg	2	yes	57	0	595
6.6.1	win	2022-11-07	12:34:54	12:45:41	644921	5dd95432cf08aa8dc50bb42a	852467389	1	main_z	11	main_z	83	stimuli_distractor_trianglediamonds.svg	stimuli_target_circlediamonds.svg	10	yes	44	1	440
6.6.1	win	2022-11-07	12:34:54	12:45:41	644921	5dd95432cf08aa8dc50bb42a	852467389	1	main_z	11	advance_on_keypress_ZEE	84	stimuli_distractor_trianglediamonds.svg	stimuli_target_circlediamonds.svg	10	yes	57	0	440
6.6.1	win	2022-11-07	12:34:54	12:45:43	646458	5dd95432cf08aa8dc50bb42a	852467389	1	main_z	11	main_z	85	stimuli_target_squaretriangles.svg	stimuli_distractor_trianglediamonds.svg	3	yes	44	1	458
6.6.1	win	2022-11-07	12:34:54	12:45:43	646458	5dd95432cf08aa8dc50bb42a	852467389	1	main_z	11	advance_on_keypress_ZEE	86	stimuli_target_squaretriangles.svg	stimuli_distractor_trianglediamonds.svg	3	yes	57	0	384
6.6.1	win	2022-11-07	12:34:54	12:45:44	647980	5dd95432cf08aa8dc50bb42a	852467389	1	main_z	11	main_z	87	stimuli_distractor_trianglediamonds.svg	stimuli_target_diamondsquares.svg	28	yes	44	1	500
6.6.1	win	2022-11-07	12:34:54	12:45:44	647980	5dd95432cf08aa8dc50bb42a	852467389	1	main_z	11	advance_on_keypress_ZEE	88	stimuli_distractor_trianglediamonds.svg	stimuli_target_diamondsquares.svg	28	yes	57	0	946
6.6.1	win	2022-11-07	12:34:54	12:45:48	651562	5dd95432cf08aa8dc50bb42a	852467389	1	main_z	11	main_z	89	stimuli_distractor_trianglediamonds.svg	stimuli_distractor_diamondtriangles.svg	36	no	0	1	2000
6.6.1	win	2022-11-07	12:34:54	12:45:48	651562	5dd95432cf08aa8dc50bb42a	852467389	1	main_z	11	advance_on_keypress_ZEE	90	stimuli_distractor_trianglediamonds.svg	stimuli_distractor_diamondtriangles.svg	36	no	57	0	1299
6.6.1	win	2022-11-07	12:34:54	12:45:50	653978	5dd95432cf08aa8dc50bb42a	852467389	1	main_z	11	main_z	91	stimuli_target_diamondcircles.svg	stimuli_distractor_trianglediamonds.svg	19	yes	44	1	482
6.6.1	win	2022-11-07	12:34:54	12:45:50	653978	5dd95432cf08aa8dc50bb42a	852467389	1	main_z	11	advance_on_keypress_ZEE	92	stimuli_target_diamondcircles.svg	stimuli_distractor_trianglediamonds.svg	19	yes	57	0	582
6.6.1	win	2022-11-07	12:34:54	12:45:54	657191	5dd95432cf08aa8dc50bb42a	852467389	1	main_z	11	main_z	93	stimuli_distractor_trianglediamonds.svg	stimuli_distractor_trianglediamonds.svg	34	no	0	1	2000
6.6.1	win	2022-11-07	12:34:54	12:45:54	657191	5dd95432cf08aa8dc50bb42a	852467389	1	main_z	11	advance_on_keypress_ZEE	94	stimuli_distractor_trianglediamonds.svg	stimuli_distractor_trianglediamonds.svg	34	no	57	0	897
6.6.1	win	2022-11-07	12:34:54	12:45:56	659180	5dd95432cf08aa8dc50bb42a	852467389	1	main_z	11	main_z	95	stimuli_target_diamondcircles.svg	stimuli_distractor_diamondtriangles.svg	23	yes	44	1	455
6.6.1	win	2022-11-07	12:34:54	12:45:56	659180	5dd95432cf08aa8dc50bb42a	852467389	1	main_z	11	advance_on_keypress_ZEE	96	stimuli_target_diamondcircles.svg	stimuli_distractor_diamondtriangles.svg	23	yes	57	0	476
6.6.1	win	2022-11-07	12:34:54	12:45:59	662286	5dd95432cf08aa8dc50bb42a	852467389	1	main_z	11	main_z	97	stimuli_target_squarediamonds.svg	stimuli_distractor_diamondtriangles.svg	8	yes	0	0	2000
6.6.1	win	2022-11-07	12:34:54	12:45:59	662286	5dd95432cf08aa8dc50bb42a	852467389	1	main_z	11	advance_on_keypress_ZEE	98	stimuli_target_squarediamonds.svg	stimuli_distractor_diamondtriangles.svg	8	yes	57	0	1060
6.6.1	win	2022-11-07	12:34:54	12:46:01	664422	5dd95432cf08aa8dc50bb42a	852467389	1	main_z	11	main_z	99	stimuli_distractor_trianglediamonds.svg	stimuli_target_trianglecircles.svg	25	yes	44	1	442
6.6.1	win	2022-11-07	12:34:54	12:46:01	664422	5dd95432cf08aa8dc50bb42a	852467389	1	main_z	11	advance_on_keypress_ZEE	100	stimuli_distractor_trianglediamonds.svg	stimuli_target_trianglecircles.svg	25	yes	57	0	403
6.6.1	win	2022-11-07	12:34:54	12:46:04	667461	5dd95432cf08aa8dc50bb42a	852467389	1	main_z	11	main_z	101	stimuli_distractor_diamondtriangles.svg	stimuli_distractor_diamondtriangles.svg	40	no	0	1	2000
6.6.1	win	2022-11-07	12:34:54	12:46:04	667461	5dd95432cf08aa8dc50bb42a	852467389	1	main_z	11	advance_on_keypress_ZEE	102	stimuli_distractor_diamondtriangles.svg	stimuli_distractor_diamondtriangles.svg	40	no	57	0	395
6.6.1	win	2022-11-07	12:34:54	12:46:05	668910	5dd95432cf08aa8dc50bb42a	852467389	1	main_z	11	main_z	103	stimuli_distractor_trianglediamonds.svg	stimuli_target_trianglesquares.svg	26	yes	44	1	422
6.6.1	win	2022-11-07	12:34:54	12:46:05	668910	5dd95432cf08aa8dc50bb42a	852467389	1	main_z	11	advance_on_keypress_ZEE	104	stimuli_distractor_trianglediamonds.svg	stimuli_target_trianglesquares.svg	26	yes	57	0	418
6.6.1	win	2022-11-07	12:34:54	12:46:07	670399	5dd95432cf08aa8dc50bb42a	852467389	1	main_z	11	main_z	105	stimuli_distractor_diamondtriangles.svg	stimuli_target_diamondcircles.svg	31	yes	44	1	443
6.6.1	win	2022-11-07	12:34:54	12:46:07	670399	5dd95432cf08aa8dc50bb42a	852467389	1	main_z	11	advance_on_keypress_ZEE	106	stimuli_distractor_diamondtriangles.svg	stimuli_target_diamondcircles.svg	31	yes	57	0	402
6.6.1	win	2022-11-07	12:34:54	12:46:08	671960	5dd95432cf08aa8dc50bb42a	852467389	1	main_z	11	main_z	107	stimuli_distractor_diamondtriangles.svg	stimuli_target_diamondsquares.svg	32	yes	44	1	524
6.6.1	win	2022-11-07	12:34:54	12:46:08	671960	5dd95432cf08aa8dc50bb42a	852467389	1	main_z	11	advance_on_keypress_ZEE	108	stimuli_distractor_diamondtriangles.svg	stimuli_target_diamondsquares.svg	32	yes	57	0	386
6.6.1	win	2022-11-07	12:34:54	12:46:10	673602	5dd95432cf08aa8dc50bb42a	852467389	1	main_z	11	main_z	109	stimuli_distractor_trianglediamonds.svg	stimuli_target_circletriangles.svg	9	yes	44	1	619
6.6.1	win	2022-11-07	12:34:54	12:46:10	673602	5dd95432cf08aa8dc50bb42a	852467389	1	main_z	11	advance_on_keypress_ZEE	110	stimuli_distractor_trianglediamonds.svg	stimuli_target_circletriangles.svg	9	yes	57	0	639
6.6.1	win	2022-11-07	12:34:54	12:46:12	675293	5dd95432cf08aa8dc50bb42a	852467389	1	main_z	11	main_z	111	stimuli_distractor_diamondtriangles.svg	stimuli_target_trianglecircles.svg	29	yes	44	1	416
6.6.1	win	2022-11-07	12:34:54	12:46:12	675293	5dd95432cf08aa8dc50bb42a	852467389	1	main_z	11	advance_on_keypress_ZEE	112	stimuli_distractor_diamondtriangles.svg	stimuli_target_trianglecircles.svg	29	yes	57	0	394
6.6.1	win	2022-11-07	12:34:54	12:46:15	678319	5dd95432cf08aa8dc50bb42a	852467389	1	main_z	11	main_z	113	stimuli_distractor_diamondtriangles.svg	stimuli_distractor_diamondtriangles.svg	39	no	0	1	2000
6.6.1	win	2022-11-07	12:34:54	12:46:15	678319	5dd95432cf08aa8dc50bb42a	852467389	1	main_z	11	advance_on_keypress_ZEE	114	stimuli_distractor_diamondtriangles.svg	stimuli_distractor_diamondtriangles.svg	39	no	57	0	284
6.6.1	win	2022-11-07	12:34:54	12:46:18	681240	5dd95432cf08aa8dc50bb42a	852467389	1	main_z	11	main_z	115	stimuli_distractor_diamondtriangles.svg	stimuli_distractor_trianglediamonds.svg	38	no	0	1	2000
6.6.1	win	2022-11-07	12:34:54	12:46:18	681240	5dd95432cf08aa8dc50bb42a	852467389	1	main_z	11	advance_on_keypress_ZEE	116	stimuli_distractor_diamondtriangles.svg	stimuli_distractor_trianglediamonds.svg	38	no	57	0	796
6.6.1	win	2022-11-07	12:34:54	12:46:21	684668	5dd95432cf08aa8dc50bb42a	852467389	1	main_z	11	main_z	117	stimuli_distractor_trianglediamonds.svg	stimuli_distractor_trianglediamonds.svg	33	no	0	1	2000
6.6.1	win	2022-11-07	12:34:54	12:46:21	684668	5dd95432cf08aa8dc50bb42a	852467389	1	main_z	11	advance_on_keypress_ZEE	118	stimuli_distractor_trianglediamonds.svg	stimuli_distractor_trianglediamonds.svg	33	no	57	0	301
6.6.1	win	2022-11-07	12:34:54	12:46:23	686145	5dd95432cf08aa8dc50bb42a	852467389	1	main_z	11	main_z	119	stimuli_distractor_trianglediamonds.svg	stimuli_target_squarediamonds.svg	12	yes	44	1	544
6.6.1	win	2022-11-07	12:34:54	12:46:23	686145	5dd95432cf08aa8dc50bb42a	852467389	1	main_z	11	advance_on_keypress_ZEE	120	stimuli_distractor_trianglediamonds.svg	stimuli_target_squarediamonds.svg	12	yes	57	0	414
6.6.1	win	2022-11-07	12:34:54	12:46:24	687605	5dd95432cf08aa8dc50bb42a	852467389	1	main_z	11	main_z	121	stimuli_distractor_diamondtriangles.svg	stimuli_target_circletriangles.svg	13	yes	44	1	416
6.6.1	win	2022-11-07	12:34:54	12:46:24	687605	5dd95432cf08aa8dc50bb42a	852467389	1	main_z	11	advance_on_keypress_ZEE	122	stimuli_distractor_diamondtriangles.svg	stimuli_target_circletriangles.svg	13	yes	57	0	437
6.6.1	win	2022-11-07	12:34:54	12:46:27	690317	5dd95432cf08aa8dc50bb42a	852467389	1	main_z	11	main_z	123	stimuli_distractor_diamondtriangles.svg	stimuli_target_circlediamonds.svg	14	yes	44	1	1634
6.6.1	win	2022-11-07	12:34:54	12:46:27	690317	5dd95432cf08aa8dc50bb42a	852467389	1	main_z	11	advance_on_keypress_ZEE	124	stimuli_distractor_diamondtriangles.svg	stimuli_target_circlediamonds.svg	14	yes	57	0	958
6.6.1	win	2022-11-07	12:34:54	12:46:30	693898	5dd95432cf08aa8dc50bb42a	852467389	1	main_z	11	main_z	125	stimuli_distractor_diamondtriangles.svg	stimuli_distractor_trianglediamonds.svg	37	no	0	1	2000
6.6.1	win	2022-11-07	12:34:54	12:46:30	693898	5dd95432cf08aa8dc50bb42a	852467389	1	main_z	11	advance_on_keypress_ZEE	126	stimuli_distractor_diamondtriangles.svg	stimuli_distractor_trianglediamonds.svg	37	no	57	0	309
6.6.1	win	2022-11-07	12:34:54	12:46:33	696846	5dd95432cf08aa8dc50bb42a	852467389	1	main_z	11	main_z	127	stimuli_distractor_trianglediamonds.svg	stimuli_distractor_diamondtriangles.svg	35	no	0	1	2000
6.6.1	win	2022-11-07	12:34:54	12:46:33	696846	5dd95432cf08aa8dc50bb42a	852467389	1	main_z	11	advance_on_keypress_ZEE	128	stimuli_distractor_trianglediamonds.svg	stimuli_distractor_diamondtriangles.svg	35	no	57	0	383
6.6.1	win	2022-11-07	12:34:54	12:46:35	698695	5dd95432cf08aa8dc50bb42a	852467389	1	main_z	11	main_z	129	stimuli_distractor_diamondtriangles.svg	stimuli_target_trianglesquares.svg	30	yes	44	1	836
6.6.1	win	2022-11-07	12:34:54	12:46:35	698695	5dd95432cf08aa8dc50bb42a	852467389	1	main_z	11	advance_on_keypress_ZEE	130	stimuli_distractor_diamondtriangles.svg	stimuli_target_trianglesquares.svg	30	yes	57	0	450
6.6.1	win	2022-11-07	12:34:54	12:46:37	700302	5dd95432cf08aa8dc50bb42a	852467389	1	main_z	11	main_z	131	stimuli_target_squarediamonds.svg	stimuli_distractor_trianglediamonds.svg	4	yes	44	1	535
6.6.1	win	2022-11-07	12:34:54	12:46:37	700302	5dd95432cf08aa8dc50bb42a	852467389	1	main_z	11	advance_on_keypress_ZEE	132	stimuli_target_squarediamonds.svg	stimuli_distractor_trianglediamonds.svg	4	yes	57	0	389
6.6.1	win	2022-11-07	12:34:54	12:46:38	702045	5dd95432cf08aa8dc50bb42a	852467389	1	main_z	11	main_z	133	stimuli_target_circlediamonds.svg	stimuli_distractor_diamondtriangles.svg	6	yes	44	1	718
6.6.1	win	2022-11-07	12:34:54	12:46:38	702045	5dd95432cf08aa8dc50bb42a	852467389	1	main_z	11	advance_on_keypress_ZEE	134	stimuli_target_circlediamonds.svg	stimuli_distractor_diamondtriangles.svg	6	yes	57	0	590
6.6.1	win	2022-11-07	12:34:54	12:46:40	703664	5dd95432cf08aa8dc50bb42a	852467389	1	main_z	11	main_z	135	stimuli_distractor_diamondtriangles.svg	stimuli_target_squarediamonds.svg	16	yes	44	1	389
6.6.1	win	2022-11-07	12:34:54	12:46:40	703664	5dd95432cf08aa8dc50bb42a	852467389	1	main_z	11	advance_on_keypress_ZEE	136	stimuli_distractor_diamondtriangles.svg	stimuli_target_squarediamonds.svg	16	yes	57	0	439
6.6.1	win	2022-11-07	12:34:54	12:46:42	705183	5dd95432cf08aa8dc50bb42a	852467389	1	main_z	11	main_z	137	stimuli_target_trianglesquares.svg	stimuli_distractor_trianglediamonds.svg	18	yes	44	1	440
6.6.1	win	2022-11-07	12:34:54	12:46:42	705183	5dd95432cf08aa8dc50bb42a	852467389	1	main_z	11	advance_on_keypress_ZEE	138	stimuli_target_trianglesquares.svg	stimuli_distractor_trianglediamonds.svg	18	yes	57	0	1136
6.6.1	win	2022-11-07	12:34:54	12:46:44	707937	5dd95432cf08aa8dc50bb42a	852467389	1	main_z	11	main_z	139	stimuli_target_diamondsquares.svg	stimuli_distractor_diamondtriangles.svg	24	yes	44	1	981
6.6.1	win	2022-11-07	12:34:54	12:46:44	707937	5dd95432cf08aa8dc50bb42a	852467389	1	main_z	11	advance_on_keypress_ZEE	140	stimuli_target_diamondsquares.svg	stimuli_distractor_diamondtriangles.svg	24	yes	57	0	567
6.6.1	win	2022-11-07	12:34:54	12:46:46	709553	5dd95432cf08aa8dc50bb42a	852467389	1	main_z	11	main_z	141	stimuli_target_trianglecircles.svg	stimuli_distractor_trianglediamonds.svg	17	yes	44	1	423
6.6.1	win	2022-11-07	12:34:54	12:46:46	709553	5dd95432cf08aa8dc50bb42a	852467389	1	main_z	11	advance_on_keypress_ZEE	142	stimuli_target_trianglecircles.svg	stimuli_distractor_trianglediamonds.svg	17	yes	57	0	912
6.6.1	win	2022-11-07	12:34:54	12:46:48	711455	5dd95432cf08aa8dc50bb42a	852467389	1	main_z	11	main_z	143	stimuli_distractor_trianglediamonds.svg	stimuli_target_squaretriangles.svg	11	yes	44	1	364
6.6.1	win	2022-11-07	12:34:54	12:46:48	711455	5dd95432cf08aa8dc50bb42a	852467389	1	main_z	11	advance_on_keypress_ZEE	144	stimuli_distractor_trianglediamonds.svg	stimuli_target_squaretriangles.svg	11	yes	57	0	407
6.6.1	win	2022-11-07	12:34:54	12:46:49	712888	5dd95432cf08aa8dc50bb42a	852467389	1	main_z	11	main_z	145	stimuli_distractor_trianglediamonds.svg	stimuli_target_diamondcircles.svg	27	yes	44	1	397
6.6.1	win	2022-11-07	12:34:54	12:46:49	712888	5dd95432cf08aa8dc50bb42a	852467389	1	main_z	11	advance_on_keypress_ZEE	146	stimuli_distractor_trianglediamonds.svg	stimuli_target_diamondcircles.svg	27	yes	57	0	350
6.6.1	win	2022-11-07	12:34:54	12:46:51	714224	5dd95432cf08aa8dc50bb42a	852467389	1	main_z	11	main_z	147	stimuli_target_trianglesquares.svg	stimuli_distractor_diamondtriangles.svg	22	yes	44	1	359
6.6.1	win	2022-11-07	12:34:54	12:46:51	714224	5dd95432cf08aa8dc50bb42a	852467389	1	main_z	11	advance_on_keypress_ZEE	148	stimuli_target_trianglesquares.svg	stimuli_distractor_diamondtriangles.svg	22	yes	57	0	397
6.6.1	win	2022-11-07	12:34:54	12:46:52	715613	5dd95432cf08aa8dc50bb42a	852467389	1	main_z	11	main_z	149	stimuli_target_circletriangles.svg	stimuli_distractor_trianglediamonds.svg	1	yes	44	1	355
6.6.1	win	2022-11-07	12:34:54	12:46:52	715613	5dd95432cf08aa8dc50bb42a	852467389	1	main_z	11	advance_on_keypress_ZEE	150	stimuli_target_circletriangles.svg	stimuli_distractor_trianglediamonds.svg	1	yes	57	0	380
6.6.1	win	2022-11-07	12:34:54	12:46:53	716932	5dd95432cf08aa8dc50bb42a	852467389	1	main_z	11	main_z	151	stimuli_target_circletriangles.svg	stimuli_distractor_diamondtriangles.svg	5	yes	44	1	306
6.6.1	win	2022-11-07	12:34:54	12:46:53	716932	5dd95432cf08aa8dc50bb42a	852467389	1	main_z	11	advance_on_keypress_ZEE	152	stimuli_target_circletriangles.svg	stimuli_distractor_diamondtriangles.svg	5	yes	57	0	369
6.6.1	win	2022-11-07	12:34:54	12:46:55	718319	5dd95432cf08aa8dc50bb42a	852467389	1	main_z	11	main_z	153	stimuli_target_squaretriangles.svg	stimuli_distractor_diamondtriangles.svg	7	yes	44	1	379
6.6.1	win	2022-11-07	12:34:54	12:46:55	718319	5dd95432cf08aa8dc50bb42a	852467389	1	main_z	11	advance_on_keypress_ZEE	154	stimuli_target_squaretriangles.svg	stimuli_distractor_diamondtriangles.svg	7	yes	57	0	360
6.6.1	win	2022-11-07	12:34:54	12:46:56	719657	5dd95432cf08aa8dc50bb42a	852467389	1	main_z	11	main_z	155	stimuli_target_trianglecircles.svg	stimuli_distractor_diamondtriangles.svg	21	yes	44	1	336
6.6.1	win	2022-11-07	12:34:54	12:46:56	719657	5dd95432cf08aa8dc50bb42a	852467389	1	main_z	11	advance_on_keypress_ZEE	156	stimuli_target_trianglecircles.svg	stimuli_distractor_diamondtriangles.svg	21	yes	57	0	362
6.6.1	win	2022-11-07	12:34:54	12:46:57	721051	5dd95432cf08aa8dc50bb42a	852467389	1	main_z	11	main_z	157	stimuli_distractor_diamondtriangles.svg	stimuli_target_squaretriangles.svg	15	yes	44	1	397
6.6.1	win	2022-11-07	12:34:54	12:46:57	721051	5dd95432cf08aa8dc50bb42a	852467389	1	main_z	11	advance_on_keypress_ZEE	158	stimuli_distractor_diamondtriangles.svg	stimuli_target_squaretriangles.svg	15	yes	57	0	431
6.6.1	win	2022-11-07	12:34:54	12:46:59	722405	5dd95432cf08aa8dc50bb42a	852467389	1	main_z	11	main_z	159	stimuli_target_diamondsquares.svg	stimuli_distractor_trianglediamonds.svg	20	yes	44	1	297
6.6.1	win	2022-11-07	12:34:54	12:46:59	722405	5dd95432cf08aa8dc50bb42a	852467389	1	main_z	11	advance_on_keypress_ZEE	160	stimuli_target_diamondsquares.svg	stimuli_distractor_trianglediamonds.svg	20	yes	57	0	2336