build	computer.platform	date	time	timestamp	time_elapsed_ms	subject	group	session	blockcode	blocknum	trialcode	trialnum	stimulus_left	stimulus_right	stim_index	target_present	response	correct	latency
6.6.1	win	2022-12-20	11:54:40	11:56:57	135659	5a776b5aae9a0b0001a9631d	179798006	1	practice_z	5	practice_z	1	stimuli_distractor_trianglediamonds.svg	stimuli_target_squarediamonds.svg	11	yes	44	1	1848
6.6.1	win	2022-12-20	11:54:40	11:56:57	135659	5a776b5aae9a0b0001a9631d	179798006	1	practice_z	5	advance_on_keypress_ZEE	2	stimuli_distractor_trianglediamonds.svg	stimuli_target_squarediamonds.svg	11	yes	57	0	2086
6.6.1	win	2022-12-20	11:54:40	11:57:02	140473	5a776b5aae9a0b0001a9631d	179798006	1	practice_z	5	practice_z	3	stimuli_distractor_diamondtriangles.svg	stimuli_target_diamondcircles.svg	8	yes	44	1	1084
6.6.1	win	2022-12-20	11:54:40	11:57:02	140473	5a776b5aae9a0b0001a9631d	179798006	1	practice_z	5	advance_on_keypress_ZEE	4	stimuli_distractor_diamondtriangles.svg	stimuli_target_diamondcircles.svg	8	yes	57	0	798
6.6.1	win	2022-12-20	11:54:40	11:57:06	143970	5a776b5aae9a0b0001a9631d	179798006	1	practice_z	5	practice_z	5	stimuli_target_circlediamonds.svg	stimuli_distractor_trianglediamonds.svg	4	yes	44	1	1063
6.6.1	win	2022-12-20	11:54:40	11:57:06	143970	5a776b5aae9a0b0001a9631d	179798006	1	practice_z	5	advance_on_keypress_ZEE	6	stimuli_target_circlediamonds.svg	stimuli_distractor_trianglediamonds.svg	4	yes	57	0	566
6.6.1	win	2022-12-20	11:54:40	11:57:09	147096	5a776b5aae9a0b0001a9631d	179798006	1	practice_z	5	practice_z	7	stimuli_target_squarediamonds.svg	stimuli_distractor_diamondtriangles.svg	2	yes	44	1	928
6.6.1	win	2022-12-20	11:54:40	11:57:09	147096	5a776b5aae9a0b0001a9631d	179798006	1	practice_z	5	advance_on_keypress_ZEE	8	stimuli_target_squarediamonds.svg	stimuli_distractor_diamondtriangles.svg	2	yes	57	0	405
6.6.1	win	2022-12-20	11:54:40	11:57:12	150061	5a776b5aae9a0b0001a9631d	179798006	1	practice_z	5	practice_z	9	stimuli_distractor_diamondtriangles.svg	stimuli_target_circletriangles.svg	7	yes	44	1	930
6.6.1	win	2022-12-20	11:54:40	11:57:12	150061	5a776b5aae9a0b0001a9631d	179798006	1	practice_z	5	advance_on_keypress_ZEE	10	stimuli_distractor_diamondtriangles.svg	stimuli_target_circletriangles.svg	7	yes	57	0	306
6.6.1	win	2022-12-20	11:54:40	11:57:16	153996	5a776b5aae9a0b0001a9631d	179798006	1	practice_z	5	practice_z	11	stimuli_distractor_trianglediamonds.svg	stimuli_distractor_diamondtriangles.svg	16	no	0	1	2000
6.6.1	win	2022-12-20	11:54:40	11:57:16	153996	5a776b5aae9a0b0001a9631d	179798006	1	practice_z	5	advance_on_keypress_ZEE	12	stimuli_distractor_trianglediamonds.svg	stimuli_distractor_diamondtriangles.svg	16	no	57	0	384
6.6.1	win	2022-12-20	11:54:40	11:57:18	156657	5a776b5aae9a0b0001a9631d	179798006	1	practice_z	5	practice_z	13	stimuli_target_circlediamonds.svg	stimuli_distractor_diamondtriangles.svg	1	yes	44	1	655
6.6.1	win	2022-12-20	11:54:40	11:57:18	156657	5a776b5aae9a0b0001a9631d	179798006	1	practice_z	5	advance_on_keypress_ZEE	14	stimuli_target_circlediamonds.svg	stimuli_distractor_diamondtriangles.svg	1	yes	57	0	397
6.6.1	win	2022-12-20	11:54:40	11:57:22	160019	5a776b5aae9a0b0001a9631d	179798006	1	practice_z	5	practice_z	15	stimuli_target_diamondsquares.svg	stimuli_distractor_diamondtriangles.svg	3	yes	44	1	1333
6.6.1	win	2022-12-20	11:54:40	11:57:22	160019	5a776b5aae9a0b0001a9631d	179798006	1	practice_z	5	advance_on_keypress_ZEE	16	stimuli_target_diamondsquares.svg	stimuli_distractor_diamondtriangles.svg	3	yes	57	0	337
6.6.1	win	2022-12-20	11:54:40	11:57:26	163989	5a776b5aae9a0b0001a9631d	179798006	1	practice_z	5	practice_z	17	stimuli_distractor_diamondtriangles.svg	stimuli_distractor_trianglediamonds.svg	14	no	0	1	2000
6.6.1	win	2022-12-20	11:54:40	11:57:26	163989	5a776b5aae9a0b0001a9631d	179798006	1	practice_z	5	advance_on_keypress_ZEE	18	stimuli_distractor_diamondtriangles.svg	stimuli_distractor_trianglediamonds.svg	14	no	57	0	432
6.6.1	win	2022-12-20	11:54:40	11:57:28	166839	5a776b5aae9a0b0001a9631d	179798006	1	practice_z	5	practice_z	19	stimuli_distractor_trianglediamonds.svg	stimuli_target_diamondcircles.svg	12	yes	44	1	785
6.6.1	win	2022-12-20	11:54:40	11:57:28	166839	5a776b5aae9a0b0001a9631d	179798006	1	practice_z	5	advance_on_keypress_ZEE	20	stimuli_distractor_trianglediamonds.svg	stimuli_target_diamondcircles.svg	12	yes	57	0	435
6.6.1	win	2022-12-20	11:54:40	11:57:31	169664	5a776b5aae9a0b0001a9631d	179798006	1	practice_z	5	practice_z	21	stimuli_distractor_diamondtriangles.svg	stimuli_target_trianglecircles.svg	9	yes	44	1	756
6.6.1	win	2022-12-20	11:54:40	11:57:31	169664	5a776b5aae9a0b0001a9631d	179798006	1	practice_z	5	advance_on_keypress_ZEE	22	stimuli_distractor_diamondtriangles.svg	stimuli_target_trianglecircles.svg	9	yes	57	0	360
6.6.1	win	2022-12-20	11:54:40	11:57:35	173701	5a776b5aae9a0b0001a9631d	179798006	1	practice_z	5	practice_z	23	stimuli_distractor_diamondtriangles.svg	stimuli_distractor_diamondtriangles.svg	13	no	0	1	2000
6.6.1	win	2022-12-20	11:54:40	11:57:35	173701	5a776b5aae9a0b0001a9631d	179798006	1	practice_z	5	advance_on_keypress_ZEE	24	stimuli_distractor_diamondtriangles.svg	stimuli_distractor_diamondtriangles.svg	13	no	57	0	388
6.6.1	win	2022-12-20	11:54:40	11:57:38	176443	5a776b5aae9a0b0001a9631d	179798006	1	practice_z	5	practice_z	25	stimuli_target_squarediamonds.svg	stimuli_distractor_trianglediamonds.svg	5	yes	44	1	717
6.6.1	win	2022-12-20	11:54:40	11:57:38	176443	5a776b5aae9a0b0001a9631d	179798006	1	practice_z	5	advance_on_keypress_ZEE	26	stimuli_target_squarediamonds.svg	stimuli_distractor_trianglediamonds.svg	5	yes	57	0	406
6.6.1	win	2022-12-20	11:54:40	11:57:41	179585	5a776b5aae9a0b0001a9631d	179798006	1	practice_z	5	practice_z	27	stimuli_distractor_trianglediamonds.svg	stimuli_target_circlediamonds.svg	10	yes	44	1	1115
6.6.1	win	2022-12-20	11:54:40	11:57:41	179585	5a776b5aae9a0b0001a9631d	179798006	1	practice_z	5	advance_on_keypress_ZEE	28	stimuli_distractor_trianglediamonds.svg	stimuli_target_circlediamonds.svg	10	yes	57	0	421
6.6.1	win	2022-12-20	11:54:40	11:57:44	182650	5a776b5aae9a0b0001a9631d	179798006	1	practice_z	5	practice_z	29	stimuli_target_diamondsquares.svg	stimuli_distractor_trianglediamonds.svg	6	yes	44	1	1005
6.6.1	win	2022-12-20	11:54:40	11:57:44	182650	5a776b5aae9a0b0001a9631d	179798006	1	practice_z	5	advance_on_keypress_ZEE	30	stimuli_target_diamondsquares.svg	stimuli_distractor_trianglediamonds.svg	6	yes	57	0	430
6.6.1	win	2022-12-20	11:54:40	11:57:48	186709	5a776b5aae9a0b0001a9631d	179798006	1	practice_z	5	practice_z	31	stimuli_distractor_trianglediamonds.svg	stimuli_distractor_trianglediamonds.svg	15	no	0	1	2000
6.6.1	win	2022-12-20	11:54:40	11:57:48	186709	5a776b5aae9a0b0001a9631d	179798006	1	practice_z	5	advance_on_keypress_ZEE	32	stimuli_distractor_trianglediamonds.svg	stimuli_distractor_trianglediamonds.svg	15	no	57	0	251
6.6.1	win	2022-12-20	11:54:40	11:57:59	197691	5a776b5aae9a0b0001a9631d	179798006	1	main_z	7	main_z	1	stimuli_target_trianglecircles.svg	stimuli_distractor_trianglediamonds.svg	17	yes	44	1	655
6.6.1	win	2022-12-20	11:54:40	11:57:59	197691	5a776b5aae9a0b0001a9631d	179798006	1	main_z	7	advance_on_keypress_ZEE	2	stimuli_target_trianglecircles.svg	stimuli_distractor_trianglediamonds.svg	17	yes	57	0	813
6.6.1	win	2022-12-20	11:54:40	11:58:01	199767	5a776b5aae9a0b0001a9631d	179798006	1	main_z	7	main_z	3	stimuli_distractor_diamondtriangles.svg	stimuli_target_trianglecircles.svg	29	yes	44	1	628
6.6.1	win	2022-12-20	11:54:40	11:58:01	199767	5a776b5aae9a0b0001a9631d	179798006	1	main_z	7	advance_on_keypress_ZEE	4	stimuli_distractor_diamondtriangles.svg	stimuli_target_trianglecircles.svg	29	yes	57	0	321
6.6.1	win	2022-12-20	11:54:40	11:58:03	201467	5a776b5aae9a0b0001a9631d	179798006	1	main_z	7	main_z	5	stimuli_target_diamondsquares.svg	stimuli_distractor_diamondtriangles.svg	24	yes	44	1	756
6.6.1	win	2022-12-20	11:54:40	11:58:03	201467	5a776b5aae9a0b0001a9631d	179798006	1	main_z	7	advance_on_keypress_ZEE	6	stimuli_target_diamondsquares.svg	stimuli_distractor_diamondtriangles.svg	24	yes	57	0	234
6.6.1	win	2022-12-20	11:54:40	11:58:05	202970	5a776b5aae9a0b0001a9631d	179798006	1	main_z	7	main_z	7	stimuli_target_diamondcircles.svg	stimuli_distractor_trianglediamonds.svg	19	yes	44	1	647
6.6.1	win	2022-12-20	11:54:40	11:58:05	202970	5a776b5aae9a0b0001a9631d	179798006	1	main_z	7	advance_on_keypress_ZEE	8	stimuli_target_diamondcircles.svg	stimuli_distractor_trianglediamonds.svg	19	yes	57	0	224
6.6.1	win	2022-12-20	11:54:40	11:58:07	205814	5a776b5aae9a0b0001a9631d	179798006	1	main_z	7	main_z	9	stimuli_distractor_diamondtriangles.svg	stimuli_distractor_diamondtriangles.svg	39	no	0	1	2000
6.6.1	win	2022-12-20	11:54:40	11:58:07	205814	5a776b5aae9a0b0001a9631d	179798006	1	main_z	7	advance_on_keypress_ZEE	10	stimuli_distractor_diamondtriangles.svg	stimuli_distractor_diamondtriangles.svg	39	no	57	0	362
6.6.1	win	2022-12-20	11:54:40	11:58:10	208808	5a776b5aae9a0b0001a9631d	179798006	1	main_z	7	main_z	11	stimuli_distractor_diamondtriangles.svg	stimuli_distractor_diamondtriangles.svg	40	no	0	1	2000
6.6.1	win	2022-12-20	11:54:40	11:58:10	208808	5a776b5aae9a0b0001a9631d	179798006	1	main_z	7	advance_on_keypress_ZEE	12	stimuli_distractor_diamondtriangles.svg	stimuli_distractor_diamondtriangles.svg	40	no	57	0	339
6.6.1	win	2022-12-20	11:54:40	11:58:12	210863	5a776b5aae9a0b0001a9631d	179798006	1	main_z	7	main_z	13	stimuli_target_trianglesquares.svg	stimuli_distractor_trianglediamonds.svg	18	yes	44	1	1090
6.6.1	win	2022-12-20	11:54:40	11:58:12	210863	5a776b5aae9a0b0001a9631d	179798006	1	main_z	7	advance_on_keypress_ZEE	14	stimuli_target_trianglesquares.svg	stimuli_distractor_trianglediamonds.svg	18	yes	57	0	431
6.6.1	win	2022-12-20	11:54:40	11:58:16	213935	5a776b5aae9a0b0001a9631d	179798006	1	main_z	7	main_z	15	stimuli_target_squaretriangles.svg	stimuli_distractor_diamondtriangles.svg	7	yes	0	0	2000
6.6.1	win	2022-12-20	11:54:40	11:58:16	213935	5a776b5aae9a0b0001a9631d	179798006	1	main_z	7	advance_on_keypress_ZEE	16	stimuli_target_squaretriangles.svg	stimuli_distractor_diamondtriangles.svg	7	yes	57	0	279
6.6.1	win	2022-12-20	11:54:40	11:58:18	216839	5a776b5aae9a0b0001a9631d	179798006	1	main_z	7	main_z	17	stimuli_distractor_trianglediamonds.svg	stimuli_distractor_trianglediamonds.svg	33	no	0	1	2000
6.6.1	win	2022-12-20	11:54:40	11:58:18	216839	5a776b5aae9a0b0001a9631d	179798006	1	main_z	7	advance_on_keypress_ZEE	18	stimuli_distractor_trianglediamonds.svg	stimuli_distractor_trianglediamonds.svg	33	no	57	0	262
6.6.1	win	2022-12-20	11:54:40	11:58:20	218451	5a776b5aae9a0b0001a9631d	179798006	1	main_z	7	main_z	19	stimuli_target_circlediamonds.svg	stimuli_distractor_trianglediamonds.svg	2	yes	44	1	729
6.6.1	win	2022-12-20	11:54:40	11:58:20	218451	5a776b5aae9a0b0001a9631d	179798006	1	main_z	7	advance_on_keypress_ZEE	20	stimuli_target_circlediamonds.svg	stimuli_distractor_trianglediamonds.svg	2	yes	57	0	356
6.6.1	win	2022-12-20	11:54:40	11:58:22	220306	5a776b5aae9a0b0001a9631d	179798006	1	main_z	7	main_z	21	stimuli_distractor_diamondtriangles.svg	stimuli_target_diamondsquares.svg	32	yes	44	1	881
6.6.1	win	2022-12-20	11:54:40	11:58:22	220306	5a776b5aae9a0b0001a9631d	179798006	1	main_z	7	advance_on_keypress_ZEE	22	stimuli_distractor_diamondtriangles.svg	stimuli_target_diamondsquares.svg	32	yes	57	0	223
6.6.1	win	2022-12-20	11:54:40	11:58:23	221918	5a776b5aae9a0b0001a9631d	179798006	1	main_z	7	main_z	23	stimuli_distractor_diamondtriangles.svg	stimuli_target_diamondcircles.svg	31	yes	44	1	761
6.6.1	win	2022-12-20	11:54:40	11:58:23	221918	5a776b5aae9a0b0001a9631d	179798006	1	main_z	7	advance_on_keypress_ZEE	24	stimuli_distractor_diamondtriangles.svg	stimuli_target_diamondcircles.svg	31	yes	57	0	231
6.6.1	win	2022-12-20	11:54:40	11:58:25	223574	5a776b5aae9a0b0001a9631d	179798006	1	main_z	7	main_z	25	stimuli_target_circletriangles.svg	stimuli_distractor_diamondtriangles.svg	5	yes	44	1	784
6.6.1	win	2022-12-20	11:54:40	11:58:25	223574	5a776b5aae9a0b0001a9631d	179798006	1	main_z	7	advance_on_keypress_ZEE	26	stimuli_target_circletriangles.svg	stimuli_distractor_diamondtriangles.svg	5	yes	57	0	241
6.6.1	win	2022-12-20	11:54:40	11:58:27	225189	5a776b5aae9a0b0001a9631d	179798006	1	main_z	7	main_z	27	stimuli_distractor_diamondtriangles.svg	stimuli_target_trianglesquares.svg	30	yes	44	1	737
6.6.1	win	2022-12-20	11:54:40	11:58:27	225189	5a776b5aae9a0b0001a9631d	179798006	1	main_z	7	advance_on_keypress_ZEE	28	stimuli_distractor_diamondtriangles.svg	stimuli_target_trianglesquares.svg	30	yes	57	0	229
6.6.1	win	2022-12-20	11:54:40	11:58:30	228043	5a776b5aae9a0b0001a9631d	179798006	1	main_z	7	main_z	29	stimuli_distractor_diamondtriangles.svg	stimuli_distractor_trianglediamonds.svg	38	no	0	1	2000
6.6.1	win	2022-12-20	11:54:40	11:58:30	228043	5a776b5aae9a0b0001a9631d	179798006	1	main_z	7	advance_on_keypress_ZEE	30	stimuli_distractor_diamondtriangles.svg	stimuli_distractor_trianglediamonds.svg	38	no	57	0	244
6.6.1	win	2022-12-20	11:54:40	11:58:32	230407	5a776b5aae9a0b0001a9631d	179798006	1	main_z	7	main_z	31	stimuli_distractor_diamondtriangles.svg	stimuli_target_squarediamonds.svg	16	yes	44	1	1473
6.6.1	win	2022-12-20	11:54:40	11:58:32	230407	5a776b5aae9a0b0001a9631d	179798006	1	main_z	7	advance_on_keypress_ZEE	32	stimuli_distractor_diamondtriangles.svg	stimuli_target_squarediamonds.svg	16	yes	57	0	257
6.6.1	win	2022-12-20	11:54:40	11:58:35	233280	5a776b5aae9a0b0001a9631d	179798006	1	main_z	7	main_z	33	stimuli_distractor_trianglediamonds.svg	stimuli_distractor_trianglediamonds.svg	34	no	0	1	2000
6.6.1	win	2022-12-20	11:54:40	11:58:35	233280	5a776b5aae9a0b0001a9631d	179798006	1	main_z	7	advance_on_keypress_ZEE	34	stimuli_distractor_trianglediamonds.svg	stimuli_distractor_trianglediamonds.svg	34	no	57	0	330
6.6.1	win	2022-12-20	11:54:40	11:58:36	234905	5a776b5aae9a0b0001a9631d	179798006	1	main_z	7	main_z	35	stimuli_target_diamondsquares.svg	stimuli_distractor_trianglediamonds.svg	20	yes	44	1	670
6.6.1	win	2022-12-20	11:54:40	11:58:36	234905	5a776b5aae9a0b0001a9631d	179798006	1	main_z	7	advance_on_keypress_ZEE	36	stimuli_target_diamondsquares.svg	stimuli_distractor_trianglediamonds.svg	20	yes	57	0	230
6.6.1	win	2022-12-20	11:54:40	11:58:39	237766	5a776b5aae9a0b0001a9631d	179798006	1	main_z	7	main_z	37	stimuli_distractor_diamondtriangles.svg	stimuli_target_squaretriangles.svg	15	yes	0	0	2000
6.6.1	win	2022-12-20	11:54:40	11:58:39	237766	5a776b5aae9a0b0001a9631d	179798006	1	main_z	7	advance_on_keypress_ZEE	38	stimuli_distractor_diamondtriangles.svg	stimuli_target_squaretriangles.svg	15	yes	57	0	299
6.6.1	win	2022-12-20	11:54:40	11:58:41	239438	5a776b5aae9a0b0001a9631d	179798006	1	main_z	7	main_z	39	stimuli_target_squarediamonds.svg	stimuli_distractor_diamondtriangles.svg	8	yes	44	1	747
6.6.1	win	2022-12-20	11:54:40	11:58:41	239438	5a776b5aae9a0b0001a9631d	179798006	1	main_z	7	advance_on_keypress_ZEE	40	stimuli_target_squarediamonds.svg	stimuli_distractor_diamondtriangles.svg	8	yes	57	0	227
6.6.1	win	2022-12-20	11:54:40	11:58:43	241102	5a776b5aae9a0b0001a9631d	179798006	1	main_z	7	main_z	41	stimuli_distractor_trianglediamonds.svg	stimuli_target_trianglesquares.svg	26	yes	44	1	819
6.6.1	win	2022-12-20	11:54:40	11:58:43	241102	5a776b5aae9a0b0001a9631d	179798006	1	main_z	7	advance_on_keypress_ZEE	42	stimuli_distractor_trianglediamonds.svg	stimuli_target_trianglesquares.svg	26	yes	57	0	243
6.6.1	win	2022-12-20	11:54:40	11:58:45	243822	5a776b5aae9a0b0001a9631d	179798006	1	main_z	7	main_z	43	stimuli_distractor_trianglediamonds.svg	stimuli_target_circletriangles.svg	9	yes	44	1	1857
6.6.1	win	2022-12-20	11:54:40	11:58:45	243822	5a776b5aae9a0b0001a9631d	179798006	1	main_z	7	advance_on_keypress_ZEE	44	stimuli_distractor_trianglediamonds.svg	stimuli_target_circletriangles.svg	9	yes	57	0	331
6.6.1	win	2022-12-20	11:54:40	11:58:47	245660	5a776b5aae9a0b0001a9631d	179798006	1	main_z	7	main_z	45	stimuli_distractor_trianglediamonds.svg	stimuli_target_trianglecircles.svg	25	yes	44	1	871
6.6.1	win	2022-12-20	11:54:40	11:58:47	245660	5a776b5aae9a0b0001a9631d	179798006	1	main_z	7	advance_on_keypress_ZEE	46	stimuli_distractor_trianglediamonds.svg	stimuli_target_trianglecircles.svg	25	yes	57	0	233
6.6.1	win	2022-12-20	11:54:40	11:58:49	247362	5a776b5aae9a0b0001a9631d	179798006	1	main_z	7	main_z	47	stimuli_target_circlediamonds.svg	stimuli_distractor_diamondtriangles.svg	6	yes	44	1	841
6.6.1	win	2022-12-20	11:54:40	11:58:49	247362	5a776b5aae9a0b0001a9631d	179798006	1	main_z	7	advance_on_keypress_ZEE	48	stimuli_target_circlediamonds.svg	stimuli_distractor_diamondtriangles.svg	6	yes	57	0	199
6.6.1	win	2022-12-20	11:54:40	11:58:51	249047	5a776b5aae9a0b0001a9631d	179798006	1	main_z	7	main_z	49	stimuli_target_circletriangles.svg	stimuli_distractor_trianglediamonds.svg	1	yes	44	1	854
6.6.1	win	2022-12-20	11:54:40	11:58:51	249047	5a776b5aae9a0b0001a9631d	179798006	1	main_z	7	advance_on_keypress_ZEE	50	stimuli_target_circletriangles.svg	stimuli_distractor_trianglediamonds.svg	1	yes	57	0	190
6.6.1	win	2022-12-20	11:54:40	11:58:52	250844	5a776b5aae9a0b0001a9631d	179798006	1	main_z	7	main_z	51	stimuli_distractor_trianglediamonds.svg	stimuli_target_diamondsquares.svg	28	yes	44	1	979
6.6.1	win	2022-12-20	11:54:40	11:58:52	250844	5a776b5aae9a0b0001a9631d	179798006	1	main_z	7	advance_on_keypress_ZEE	52	stimuli_distractor_trianglediamonds.svg	stimuli_target_diamondsquares.svg	28	yes	57	0	196
6.6.1	win	2022-12-20	11:54:40	11:58:54	252562	5a776b5aae9a0b0001a9631d	179798006	1	main_z	7	main_z	53	stimuli_distractor_trianglediamonds.svg	stimuli_distractor_diamondtriangles.svg	36	no	44	0	904
6.6.1	win	2022-12-20	11:54:40	11:58:54	252562	5a776b5aae9a0b0001a9631d	179798006	1	main_z	7	advance_on_keypress_ZEE	54	stimuli_distractor_trianglediamonds.svg	stimuli_distractor_diamondtriangles.svg	36	no	57	0	144
6.6.1	win	2022-12-20	11:54:40	11:58:56	254617	5a776b5aae9a0b0001a9631d	179798006	1	main_z	7	main_z	55	stimuli_distractor_trianglediamonds.svg	stimuli_target_squarediamonds.svg	12	yes	44	1	1287
6.6.1	win	2022-12-20	11:54:40	11:58:56	254617	5a776b5aae9a0b0001a9631d	179798006	1	main_z	7	advance_on_keypress_ZEE	56	stimuli_distractor_trianglediamonds.svg	stimuli_target_squarediamonds.svg	12	yes	57	0	172
6.6.1	win	2022-12-20	11:54:40	11:58:58	256340	5a776b5aae9a0b0001a9631d	179798006	1	main_z	7	main_z	57	stimuli_distractor_diamondtriangles.svg	stimuli_distractor_trianglediamonds.svg	37	no	44	0	927
6.6.1	win	2022-12-20	11:54:40	11:58:58	256340	5a776b5aae9a0b0001a9631d	179798006	1	main_z	7	advance_on_keypress_ZEE	58	stimuli_distractor_diamondtriangles.svg	stimuli_distractor_trianglediamonds.svg	37	no	57	0	129
6.6.1	win	2022-12-20	11:54:40	11:58:59	257864	5a776b5aae9a0b0001a9631d	179798006	1	main_z	7	main_z	59	stimuli_distractor_diamondtriangles.svg	stimuli_target_circlediamonds.svg	14	yes	44	1	769
6.6.1	win	2022-12-20	11:54:40	11:58:59	257864	5a776b5aae9a0b0001a9631d	179798006	1	main_z	7	advance_on_keypress_ZEE	60	stimuli_distractor_diamondtriangles.svg	stimuli_target_circlediamonds.svg	14	yes	57	0	159
6.6.1	win	2022-12-20	11:54:40	11:59:01	259442	5a776b5aae9a0b0001a9631d	179798006	1	main_z	7	main_z	61	stimuli_target_squarediamonds.svg	stimuli_distractor_trianglediamonds.svg	4	yes	44	1	795
6.6.1	win	2022-12-20	11:54:40	11:59:01	259442	5a776b5aae9a0b0001a9631d	179798006	1	main_z	7	advance_on_keypress_ZEE	62	stimuli_target_squarediamonds.svg	stimuli_distractor_trianglediamonds.svg	4	yes	57	0	182
6.6.1	win	2022-12-20	11:54:40	11:59:03	261126	5a776b5aae9a0b0001a9631d	179798006	1	main_z	7	main_z	63	stimuli_distractor_trianglediamonds.svg	stimuli_target_squaretriangles.svg	11	yes	44	1	866
6.6.1	win	2022-12-20	11:54:40	11:59:03	261126	5a776b5aae9a0b0001a9631d	179798006	1	main_z	7	advance_on_keypress_ZEE	64	stimuli_distractor_trianglediamonds.svg	stimuli_target_squaretriangles.svg	11	yes	57	0	168
6.6.1	win	2022-12-20	11:54:40	11:59:04	262753	5a776b5aae9a0b0001a9631d	179798006	1	main_z	7	main_z	65	stimuli_target_trianglecircles.svg	stimuli_distractor_diamondtriangles.svg	21	yes	44	1	842
6.6.1	win	2022-12-20	11:54:40	11:59:04	262753	5a776b5aae9a0b0001a9631d	179798006	1	main_z	7	advance_on_keypress_ZEE	66	stimuli_target_trianglecircles.svg	stimuli_distractor_diamondtriangles.svg	21	yes	57	0	163
6.6.1	win	2022-12-20	11:54:40	11:59:06	264590	5a776b5aae9a0b0001a9631d	179798006	1	main_z	7	main_z	67	stimuli_distractor_trianglediamonds.svg	stimuli_target_diamondcircles.svg	27	yes	44	1	1037
6.6.1	win	2022-12-20	11:54:40	11:59:06	264590	5a776b5aae9a0b0001a9631d	179798006	1	main_z	7	advance_on_keypress_ZEE	68	stimuli_distractor_trianglediamonds.svg	stimuli_target_diamondcircles.svg	27	yes	57	0	165
6.6.1	win	2022-12-20	11:54:40	11:59:09	266985	5a776b5aae9a0b0001a9631d	179798006	1	main_z	7	main_z	69	stimuli_distractor_trianglediamonds.svg	stimuli_target_circlediamonds.svg	10	yes	44	1	1609
6.6.1	win	2022-12-20	11:54:40	11:59:09	266985	5a776b5aae9a0b0001a9631d	179798006	1	main_z	7	advance_on_keypress_ZEE	70	stimuli_distractor_trianglediamonds.svg	stimuli_target_circlediamonds.svg	10	yes	57	0	159
6.6.1	win	2022-12-20	11:54:40	11:59:10	268710	5a776b5aae9a0b0001a9631d	179798006	1	main_z	7	main_z	71	stimuli_distractor_diamondtriangles.svg	stimuli_target_circletriangles.svg	13	yes	44	1	941
6.6.1	win	2022-12-20	11:54:40	11:59:10	268710	5a776b5aae9a0b0001a9631d	179798006	1	main_z	7	advance_on_keypress_ZEE	72	stimuli_distractor_diamondtriangles.svg	stimuli_target_circletriangles.svg	13	yes	57	0	187
6.6.1	win	2022-12-20	11:54:40	11:59:12	270596	5a776b5aae9a0b0001a9631d	179798006	1	main_z	7	main_z	73	stimuli_target_trianglesquares.svg	stimuli_distractor_diamondtriangles.svg	22	yes	44	1	1075
6.6.1	win	2022-12-20	11:54:40	11:59:12	270596	5a776b5aae9a0b0001a9631d	179798006	1	main_z	7	advance_on_keypress_ZEE	74	stimuli_target_trianglesquares.svg	stimuli_distractor_diamondtriangles.svg	22	yes	57	0	173
6.6.1	win	2022-12-20	11:54:40	11:59:15	273085	5a776b5aae9a0b0001a9631d	179798006	1	main_z	7	main_z	75	stimuli_target_diamondcircles.svg	stimuli_distractor_diamondtriangles.svg	23	yes	44	1	1691
6.6.1	win	2022-12-20	11:54:40	11:59:15	273085	5a776b5aae9a0b0001a9631d	179798006	1	main_z	7	advance_on_keypress_ZEE	76	stimuli_target_diamondcircles.svg	stimuli_distractor_diamondtriangles.svg	23	yes	57	0	198
6.6.1	win	2022-12-20	11:54:40	11:59:17	275036	5a776b5aae9a0b0001a9631d	179798006	1	main_z	7	main_z	77	stimuli_target_squaretriangles.svg	stimuli_distractor_trianglediamonds.svg	3	yes	44	1	1119
6.6.1	win	2022-12-20	11:54:40	11:59:17	275036	5a776b5aae9a0b0001a9631d	179798006	1	main_z	7	advance_on_keypress_ZEE	78	stimuli_target_squaretriangles.svg	stimuli_distractor_trianglediamonds.svg	3	yes	57	0	189
6.6.1	win	2022-12-20	11:54:40	11:59:19	277849	5a776b5aae9a0b0001a9631d	179798006	1	main_z	7	main_z	79	stimuli_distractor_trianglediamonds.svg	stimuli_distractor_diamondtriangles.svg	35	no	0	1	2000
6.6.1	win	2022-12-20	11:54:40	11:59:19	277849	5a776b5aae9a0b0001a9631d	179798006	1	main_z	7	advance_on_keypress_ZEE	80	stimuli_distractor_trianglediamonds.svg	stimuli_distractor_diamondtriangles.svg	35	no	57	0	658
6.6.1	win	2022-12-20	11:54:40	11:59:22	280142	5a776b5aae9a0b0001a9631d	179798006	1	main_z	7	main_z	81	stimuli_distractor_trianglediamonds.svg	stimuli_target_trianglesquares.svg	26	yes	44	1	1018
6.6.1	win	2022-12-20	11:54:40	11:59:22	280142	5a776b5aae9a0b0001a9631d	179798006	1	main_z	7	advance_on_keypress_ZEE	82	stimuli_distractor_trianglediamonds.svg	stimuli_target_trianglesquares.svg	26	yes	57	0	176
6.6.1	win	2022-12-20	11:54:40	11:59:23	281883	5a776b5aae9a0b0001a9631d	179798006	1	main_z	7	main_z	83	stimuli_target_diamondsquares.svg	stimuli_distractor_diamondtriangles.svg	24	yes	44	1	947
6.6.1	win	2022-12-20	11:54:40	11:59:23	281883	5a776b5aae9a0b0001a9631d	179798006	1	main_z	7	advance_on_keypress_ZEE	84	stimuli_target_diamondsquares.svg	stimuli_distractor_diamondtriangles.svg	24	yes	57	0	175
6.6.1	win	2022-12-20	11:54:40	11:59:25	283752	5a776b5aae9a0b0001a9631d	179798006	1	main_z	7	main_z	85	stimuli_target_trianglecircles.svg	stimuli_distractor_diamondtriangles.svg	21	yes	44	1	1073
6.6.1	win	2022-12-20	11:54:40	11:59:25	283752	5a776b5aae9a0b0001a9631d	179798006	1	main_z	7	advance_on_keypress_ZEE	86	stimuli_target_trianglecircles.svg	stimuli_distractor_diamondtriangles.svg	21	yes	57	0	175
6.6.1	win	2022-12-20	11:54:40	11:59:27	285584	5a776b5aae9a0b0001a9631d	179798006	1	main_z	7	main_z	87	stimuli_distractor_trianglediamonds.svg	stimuli_target_trianglecircles.svg	25	yes	44	1	1033
6.6.1	win	2022-12-20	11:54:40	11:59:27	285584	5a776b5aae9a0b0001a9631d	179798006	1	main_z	7	advance_on_keypress_ZEE	88	stimuli_distractor_trianglediamonds.svg	stimuli_target_trianglecircles.svg	25	yes	57	0	188
6.6.1	win	2022-12-20	11:54:40	11:59:30	288393	5a776b5aae9a0b0001a9631d	179798006	1	main_z	7	main_z	89	stimuli_distractor_diamondtriangles.svg	stimuli_distractor_trianglediamonds.svg	37	no	0	1	2000
6.6.1	win	2022-12-20	11:54:40	11:59:30	288393	5a776b5aae9a0b0001a9631d	179798006	1	main_z	7	advance_on_keypress_ZEE	90	stimuli_distractor_diamondtriangles.svg	stimuli_distractor_trianglediamonds.svg	37	no	57	0	298
6.6.1	win	2022-12-20	11:54:40	11:59:32	290244	5a776b5aae9a0b0001a9631d	179798006	1	main_z	7	main_z	91	stimuli_distractor_diamondtriangles.svg	stimuli_target_trianglesquares.svg	30	yes	44	1	937
6.6.1	win	2022-12-20	11:54:40	11:59:32	290244	5a776b5aae9a0b0001a9631d	179798006	1	main_z	7	advance_on_keypress_ZEE	92	stimuli_distractor_diamondtriangles.svg	stimuli_target_trianglesquares.svg	30	yes	57	0	170
6.6.1	win	2022-12-20	11:54:40	11:59:35	293039	5a776b5aae9a0b0001a9631d	179798006	1	main_z	7	main_z	93	stimuli_distractor_trianglediamonds.svg	stimuli_distractor_trianglediamonds.svg	34	no	0	1	2000
6.6.1	win	2022-12-20	11:54:40	11:59:35	293039	5a776b5aae9a0b0001a9631d	179798006	1	main_z	7	advance_on_keypress_ZEE	94	stimuli_distractor_trianglediamonds.svg	stimuli_distractor_trianglediamonds.svg	34	no	57	0	317
6.6.1	win	2022-12-20	11:54:40	11:59:38	295973	5a776b5aae9a0b0001a9631d	179798006	1	main_z	7	main_z	95	stimuli_distractor_diamondtriangles.svg	stimuli_target_circlediamonds.svg	14	yes	0	0	2000
6.6.1	win	2022-12-20	11:54:40	11:59:38	295973	5a776b5aae9a0b0001a9631d	179798006	1	main_z	7	advance_on_keypress_ZEE	96	stimuli_distractor_diamondtriangles.svg	stimuli_target_circlediamonds.svg	14	yes	57	0	284
6.6.1	win	2022-12-20	11:54:40	11:59:40	298176	5a776b5aae9a0b0001a9631d	179798006	1	main_z	7	main_z	97	stimuli_distractor_diamondtriangles.svg	stimuli_target_squarediamonds.svg	16	yes	44	1	1299
6.6.1	win	2022-12-20	11:54:40	11:59:40	298176	5a776b5aae9a0b0001a9631d	179798006	1	main_z	7	advance_on_keypress_ZEE	98	stimuli_distractor_diamondtriangles.svg	stimuli_target_squarediamonds.svg	16	yes	57	0	174
6.6.1	win	2022-12-20	11:54:40	11:59:42	299938	5a776b5aae9a0b0001a9631d	179798006	1	main_z	7	main_z	99	stimuli_target_trianglesquares.svg	stimuli_distractor_trianglediamonds.svg	18	yes	44	1	969
6.6.1	win	2022-12-20	11:54:40	11:59:42	299938	5a776b5aae9a0b0001a9631d	179798006	1	main_z	7	advance_on_keypress_ZEE	100	stimuli_target_trianglesquares.svg	stimuli_distractor_trianglediamonds.svg	18	yes	57	0	165
6.6.1	win	2022-12-20	11:54:40	11:59:43	301540	5a776b5aae9a0b0001a9631d	179798006	1	main_z	7	main_z	101	stimuli_target_diamondcircles.svg	stimuli_distractor_diamondtriangles.svg	23	yes	44	1	808
6.6.1	win	2022-12-20	11:54:40	11:59:43	301540	5a776b5aae9a0b0001a9631d	179798006	1	main_z	7	advance_on_keypress_ZEE	102	stimuli_target_diamondcircles.svg	stimuli_distractor_diamondtriangles.svg	23	yes	57	0	198
6.6.1	win	2022-12-20	11:54:40	11:59:46	304354	5a776b5aae9a0b0001a9631d	179798006	1	main_z	7	main_z	103	stimuli_distractor_diamondtriangles.svg	stimuli_distractor_diamondtriangles.svg	40	no	0	1	2000
6.6.1	win	2022-12-20	11:54:40	11:59:46	304354	5a776b5aae9a0b0001a9631d	179798006	1	main_z	7	advance_on_keypress_ZEE	104	stimuli_distractor_diamondtriangles.svg	stimuli_distractor_diamondtriangles.svg	40	no	57	0	270
6.6.1	win	2022-12-20	11:54:40	11:59:48	306139	5a776b5aae9a0b0001a9631d	179798006	1	main_z	7	main_z	105	stimuli_target_trianglesquares.svg	stimuli_distractor_diamondtriangles.svg	22	yes	44	1	891
6.6.1	win	2022-12-20	11:54:40	11:59:48	306139	5a776b5aae9a0b0001a9631d	179798006	1	main_z	7	advance_on_keypress_ZEE	106	stimuli_target_trianglesquares.svg	stimuli_distractor_diamondtriangles.svg	22	yes	57	0	144
6.6.1	win	2022-12-20	11:54:40	11:59:50	308910	5a776b5aae9a0b0001a9631d	179798006	1	main_z	7	main_z	107	stimuli_distractor_trianglediamonds.svg	stimuli_target_circletriangles.svg	9	yes	0	0	2000
6.6.1	win	2022-12-20	11:54:40	11:59:50	308910	5a776b5aae9a0b0001a9631d	179798006	1	main_z	7	advance_on_keypress_ZEE	108	stimuli_distractor_trianglediamonds.svg	stimuli_target_circletriangles.svg	9	yes	57	0	254
6.6.1	win	2022-12-20	11:54:40	11:59:53	311783	5a776b5aae9a0b0001a9631d	179798006	1	main_z	7	main_z	109	stimuli_distractor_trianglediamonds.svg	stimuli_target_squarediamonds.svg	12	yes	0	0	2000
6.6.1	win	2022-12-20	11:54:40	11:59:53	311783	5a776b5aae9a0b0001a9631d	179798006	1	main_z	7	advance_on_keypress_ZEE	110	stimuli_distractor_trianglediamonds.svg	stimuli_target_squarediamonds.svg	12	yes	57	0	233
6.6.1	win	2022-12-20	11:54:40	11:59:55	313490	5a776b5aae9a0b0001a9631d	179798006	1	main_z	7	main_z	111	stimuli_distractor_trianglediamonds.svg	stimuli_target_diamondcircles.svg	27	yes	44	1	852
6.6.1	win	2022-12-20	11:54:40	11:59:55	313490	5a776b5aae9a0b0001a9631d	179798006	1	main_z	7	advance_on_keypress_ZEE	112	stimuli_distractor_trianglediamonds.svg	stimuli_target_diamondcircles.svg	27	yes	57	0	149
6.6.1	win	2022-12-20	11:54:40	11:59:57	315199	5a776b5aae9a0b0001a9631d	179798006	1	main_z	7	main_z	113	stimuli_target_circlediamonds.svg	stimuli_distractor_diamondtriangles.svg	6	yes	44	1	930
6.6.1	win	2022-12-20	11:54:40	11:59:57	315199	5a776b5aae9a0b0001a9631d	179798006	1	main_z	7	advance_on_keypress_ZEE	114	stimuli_target_circlediamonds.svg	stimuli_distractor_diamondtriangles.svg	6	yes	57	0	173
6.6.1	win	2022-12-20	11:54:40	11:59:59	316941	5a776b5aae9a0b0001a9631d	179798006	1	main_z	7	main_z	115	stimuli_target_diamondcircles.svg	stimuli_distractor_trianglediamonds.svg	19	yes	44	1	949
6.6.1	win	2022-12-20	11:54:40	11:59:59	316941	5a776b5aae9a0b0001a9631d	179798006	1	main_z	7	advance_on_keypress_ZEE	116	stimuli_target_diamondcircles.svg	stimuli_distractor_trianglediamonds.svg	19	yes	57	0	185
6.6.1	win	2022-12-20	11:54:40	12:00:01	319081	5a776b5aae9a0b0001a9631d	179798006	1	main_z	7	main_z	117	stimuli_distractor_trianglediamonds.svg	stimuli_target_squaretriangles.svg	11	yes	44	1	1334
6.6.1	win	2022-12-20	11:54:40	12:00:01	319081	5a776b5aae9a0b0001a9631d	179798006	1	main_z	7	advance_on_keypress_ZEE	118	stimuli_distractor_trianglediamonds.svg	stimuli_target_squaretriangles.svg	11	yes	57	0	128
6.6.1	win	2022-12-20	11:54:40	12:00:03	320994	5a776b5aae9a0b0001a9631d	179798006	1	main_z	7	main_z	119	stimuli_distractor_trianglediamonds.svg	stimuli_target_diamondsquares.svg	28	yes	44	1	1168
6.6.1	win	2022-12-20	11:54:40	12:00:03	320994	5a776b5aae9a0b0001a9631d	179798006	1	main_z	7	advance_on_keypress_ZEE	120	stimuli_distractor_trianglediamonds.svg	stimuli_target_diamondsquares.svg	28	yes	57	0	136
6.6.1	win	2022-12-20	11:54:40	12:00:04	322657	5a776b5aae9a0b0001a9631d	179798006	1	main_z	7	main_z	121	stimuli_target_squarediamonds.svg	stimuli_distractor_diamondtriangles.svg	8	yes	44	1	907
6.6.1	win	2022-12-20	11:54:40	12:00:04	322657	5a776b5aae9a0b0001a9631d	179798006	1	main_z	7	advance_on_keypress_ZEE	122	stimuli_target_squarediamonds.svg	stimuli_distractor_diamondtriangles.svg	8	yes	57	0	161
6.6.1	win	2022-12-20	11:54:40	12:00:06	324402	5a776b5aae9a0b0001a9631d	179798006	1	main_z	7	main_z	123	stimuli_target_squarediamonds.svg	stimuli_distractor_trianglediamonds.svg	4	yes	44	1	950
6.6.1	win	2022-12-20	11:54:40	12:00:06	324402	5a776b5aae9a0b0001a9631d	179798006	1	main_z	7	advance_on_keypress_ZEE	124	stimuli_target_squarediamonds.svg	stimuli_distractor_trianglediamonds.svg	4	yes	57	0	179
6.6.1	win	2022-12-20	11:54:40	12:00:08	326061	5a776b5aae9a0b0001a9631d	179798006	1	main_z	7	main_z	125	stimuli_target_circletriangles.svg	stimuli_distractor_trianglediamonds.svg	1	yes	44	1	857
6.6.1	win	2022-12-20	11:54:40	12:00:08	326061	5a776b5aae9a0b0001a9631d	179798006	1	main_z	7	advance_on_keypress_ZEE	126	stimuli_target_circletriangles.svg	stimuli_distractor_trianglediamonds.svg	1	yes	57	0	132
6.6.1	win	2022-12-20	11:54:40	12:00:10	328816	5a776b5aae9a0b0001a9631d	179798006	1	main_z	7	main_z	127	stimuli_distractor_diamondtriangles.svg	stimuli_distractor_diamondtriangles.svg	39	no	0	1	2000
6.6.1	win	2022-12-20	11:54:40	12:00:10	328816	5a776b5aae9a0b0001a9631d	179798006	1	main_z	7	advance_on_keypress_ZEE	128	stimuli_distractor_diamondtriangles.svg	stimuli_distractor_diamondtriangles.svg	39	no	57	0	270
6.6.1	win	2022-12-20	11:54:40	12:00:12	330515	5a776b5aae9a0b0001a9631d	179798006	1	main_z	7	main_z	129	stimuli_target_circlediamonds.svg	stimuli_distractor_trianglediamonds.svg	2	yes	44	1	805
6.6.1	win	2022-12-20	11:54:40	12:00:12	330515	5a776b5aae9a0b0001a9631d	179798006	1	main_z	7	advance_on_keypress_ZEE	130	stimuli_target_circlediamonds.svg	stimuli_distractor_trianglediamonds.svg	2	yes	57	0	148
6.6.1	win	2022-12-20	11:54:40	12:00:15	333282	5a776b5aae9a0b0001a9631d	179798006	1	main_z	7	main_z	131	stimuli_distractor_diamondtriangles.svg	stimuli_distractor_trianglediamonds.svg	38	no	0	1	2000
6.6.1	win	2022-12-20	11:54:40	12:00:15	333282	5a776b5aae9a0b0001a9631d	179798006	1	main_z	7	advance_on_keypress_ZEE	132	stimuli_distractor_diamondtriangles.svg	stimuli_distractor_trianglediamonds.svg	38	no	57	0	289
6.6.1	win	2022-12-20	11:54:40	12:00:17	335100	5a776b5aae9a0b0001a9631d	179798006	1	main_z	7	main_z	133	stimuli_target_squaretriangles.svg	stimuli_distractor_diamondtriangles.svg	7	yes	44	1	904
6.6.1	win	2022-12-20	11:54:40	12:00:17	335100	5a776b5aae9a0b0001a9631d	179798006	1	main_z	7	advance_on_keypress_ZEE	134	stimuli_target_squaretriangles.svg	stimuli_distractor_diamondtriangles.svg	7	yes	57	0	146
6.6.1	win	2022-12-20	11:54:40	12:00:18	336822	5a776b5aae9a0b0001a9631d	179798006	1	main_z	7	main_z	135	stimuli_distractor_diamondtriangles.svg	stimuli_target_diamondcircles.svg	31	yes	44	1	952
6.6.1	win	2022-12-20	11:54:40	12:00:18	336822	5a776b5aae9a0b0001a9631d	179798006	1	main_z	7	advance_on_keypress_ZEE	136	stimuli_distractor_diamondtriangles.svg	stimuli_target_diamondcircles.svg	31	yes	57	0	160
6.6.1	win	2022-12-20	11:54:40	12:00:20	338556	5a776b5aae9a0b0001a9631d	179798006	1	main_z	7	main_z	137	stimuli_distractor_diamondtriangles.svg	stimuli_target_squaretriangles.svg	15	yes	44	1	945
6.6.1	win	2022-12-20	11:54:40	12:00:20	338556	5a776b5aae9a0b0001a9631d	179798006	1	main_z	7	advance_on_keypress_ZEE	138	stimuli_distractor_diamondtriangles.svg	stimuli_target_squaretriangles.svg	15	yes	57	0	121
6.6.1	win	2022-12-20	11:54:40	12:00:23	341302	5a776b5aae9a0b0001a9631d	179798006	1	main_z	7	main_z	139	stimuli_distractor_trianglediamonds.svg	stimuli_distractor_diamondtriangles.svg	35	no	0	1	2000
6.6.1	win	2022-12-20	11:54:40	12:00:23	341302	5a776b5aae9a0b0001a9631d	179798006	1	main_z	7	advance_on_keypress_ZEE	140	stimuli_distractor_trianglediamonds.svg	stimuli_distractor_diamondtriangles.svg	35	no	57	0	260
6.6.1	win	2022-12-20	11:54:40	12:00:25	343113	5a776b5aae9a0b0001a9631d	179798006	1	main_z	7	main_z	141	stimuli_target_squaretriangles.svg	stimuli_distractor_trianglediamonds.svg	3	yes	44	1	926
6.6.1	win	2022-12-20	11:54:40	12:00:25	343113	5a776b5aae9a0b0001a9631d	179798006	1	main_z	7	advance_on_keypress_ZEE	142	stimuli_target_squaretriangles.svg	stimuli_distractor_trianglediamonds.svg	3	yes	57	0	158
6.6.1	win	2022-12-20	11:54:40	12:00:27	345898	5a776b5aae9a0b0001a9631d	179798006	1	main_z	7	main_z	143	stimuli_distractor_trianglediamonds.svg	stimuli_distractor_diamondtriangles.svg	36	no	0	1	2000
6.6.1	win	2022-12-20	11:54:40	12:00:27	345898	5a776b5aae9a0b0001a9631d	179798006	1	main_z	7	advance_on_keypress_ZEE	144	stimuli_distractor_trianglediamonds.svg	stimuli_distractor_diamondtriangles.svg	36	no	57	0	225
6.6.1	win	2022-12-20	11:54:40	12:00:29	347724	5a776b5aae9a0b0001a9631d	179798006	1	main_z	7	main_z	145	stimuli_distractor_diamondtriangles.svg	stimuli_target_trianglecircles.svg	29	yes	44	1	981
6.6.1	win	2022-12-20	11:54:40	12:00:29	347724	5a776b5aae9a0b0001a9631d	179798006	1	main_z	7	advance_on_keypress_ZEE	146	stimuli_distractor_diamondtriangles.svg	stimuli_target_trianglecircles.svg	29	yes	57	0	137
6.6.1	win	2022-12-20	11:54:40	12:00:31	349583	5a776b5aae9a0b0001a9631d	179798006	1	main_z	7	main_z	147	stimuli_target_diamondsquares.svg	stimuli_distractor_trianglediamonds.svg	20	yes	44	1	1098
6.6.1	win	2022-12-20	11:54:40	12:00:31	349583	5a776b5aae9a0b0001a9631d	179798006	1	main_z	7	advance_on_keypress_ZEE	148	stimuli_target_diamondsquares.svg	stimuli_distractor_trianglediamonds.svg	20	yes	57	0	149
6.6.1	win	2022-12-20	11:54:40	12:00:33	351371	5a776b5aae9a0b0001a9631d	179798006	1	main_z	7	main_z	149	stimuli_target_trianglecircles.svg	stimuli_distractor_trianglediamonds.svg	17	yes	44	1	1014
6.6.1	win	2022-12-20	11:54:40	12:00:33	351371	5a776b5aae9a0b0001a9631d	179798006	1	main_z	7	advance_on_keypress_ZEE	150	stimuli_target_trianglecircles.svg	stimuli_distractor_trianglediamonds.svg	17	yes	57	0	135
6.6.1	win	2022-12-20	11:54:40	12:00:35	353078	5a776b5aae9a0b0001a9631d	179798006	1	main_z	7	main_z	151	stimuli_distractor_diamondtriangles.svg	stimuli_target_diamondsquares.svg	32	yes	44	1	949
6.6.1	win	2022-12-20	11:54:40	12:00:35	353078	5a776b5aae9a0b0001a9631d	179798006	1	main_z	7	advance_on_keypress_ZEE	152	stimuli_distractor_diamondtriangles.svg	stimuli_target_diamondsquares.svg	32	yes	57	0	127
6.6.1	win	2022-12-20	11:54:40	12:00:37	354957	5a776b5aae9a0b0001a9631d	179798006	1	main_z	7	main_z	153	stimuli_target_circletriangles.svg	stimuli_distractor_diamondtriangles.svg	5	yes	44	1	1135
6.6.1	win	2022-12-20	11:54:40	12:00:37	354957	5a776b5aae9a0b0001a9631d	179798006	1	main_z	7	advance_on_keypress_ZEE	154	stimuli_target_circletriangles.svg	stimuli_distractor_diamondtriangles.svg	5	yes	57	0	127
6.6.1	win	2022-12-20	11:54:40	12:00:39	357704	5a776b5aae9a0b0001a9631d	179798006	1	main_z	7	main_z	155	stimuli_distractor_trianglediamonds.svg	stimuli_distractor_trianglediamonds.svg	33	no	0	1	2000
6.6.1	win	2022-12-20	11:54:40	12:00:39	357704	5a776b5aae9a0b0001a9631d	179798006	1	main_z	7	advance_on_keypress_ZEE	156	stimuli_distractor_trianglediamonds.svg	stimuli_distractor_trianglediamonds.svg	33	no	57	0	288
6.6.1	win	2022-12-20	11:54:40	12:00:42	360608	5a776b5aae9a0b0001a9631d	179798006	1	main_z	7	main_z	157	stimuli_distractor_trianglediamonds.svg	stimuli_target_circlediamonds.svg	10	yes	0	0	2000
6.6.1	win	2022-12-20	11:54:40	12:00:42	360608	5a776b5aae9a0b0001a9631d	179798006	1	main_z	7	advance_on_keypress_ZEE	158	stimuli_distractor_trianglediamonds.svg	stimuli_target_circlediamonds.svg	10	yes	57	0	264
6.6.1	win	2022-12-20	11:54:40	12:00:44	362356	5a776b5aae9a0b0001a9631d	179798006	1	main_z	7	main_z	159	stimuli_distractor_diamondtriangles.svg	stimuli_target_circletriangles.svg	13	yes	44	1	864
6.6.1	win	2022-12-20	11:54:40	12:00:44	362356	5a776b5aae9a0b0001a9631d	179798006	1	main_z	7	advance_on_keypress_ZEE	160	stimuli_distractor_diamondtriangles.svg	stimuli_target_circletriangles.svg	13	yes	57	0	142
6.6.1	win	2022-12-20	11:54:40	12:01:08	386549	5a776b5aae9a0b0001a9631d	179798006	1	practice_slash	9	practice_slash	1	stimuli_target_circlediamonds.svg	stimuli_distractor_diamondtriangles.svg	1	yes	53	1	906
6.6.1	win	2022-12-20	11:54:40	12:01:08	386549	5a776b5aae9a0b0001a9631d	179798006	1	practice_slash	9	advance_on_keypress_SLASH	2	stimuli_target_circlediamonds.svg	stimuli_distractor_diamondtriangles.svg	1	yes	57	0	442
6.6.1	win	2022-12-20	11:54:40	12:01:11	389398	5a776b5aae9a0b0001a9631d	179798006	1	practice_slash	9	practice_slash	3	stimuli_distractor_diamondtriangles.svg	stimuli_target_circletriangles.svg	7	yes	53	1	782
6.6.1	win	2022-12-20	11:54:40	12:01:11	389398	5a776b5aae9a0b0001a9631d	179798006	1	practice_slash	9	advance_on_keypress_SLASH	4	stimuli_distractor_diamondtriangles.svg	stimuli_target_circletriangles.svg	7	yes	57	0	594
6.6.1	win	2022-12-20	11:54:40	12:01:15	393620	5a776b5aae9a0b0001a9631d	179798006	1	practice_slash	9	practice_slash	5	stimuli_distractor_diamondtriangles.svg	stimuli_distractor_trianglediamonds.svg	14	no	0	1	2000
6.6.1	win	2022-12-20	11:54:40	12:01:15	393620	5a776b5aae9a0b0001a9631d	179798006	1	practice_slash	9	advance_on_keypress_SLASH	6	stimuli_distractor_diamondtriangles.svg	stimuli_distractor_trianglediamonds.svg	14	no	57	0	291
6.6.1	win	2022-12-20	11:54:40	12:01:19	397536	5a776b5aae9a0b0001a9631d	179798006	1	practice_slash	9	practice_slash	7	stimuli_distractor_trianglediamonds.svg	stimuli_distractor_diamondtriangles.svg	16	no	0	1	2000
6.6.1	win	2022-12-20	11:54:40	12:01:19	397536	5a776b5aae9a0b0001a9631d	179798006	1	practice_slash	9	advance_on_keypress_SLASH	8	stimuli_distractor_trianglediamonds.svg	stimuli_distractor_diamondtriangles.svg	16	no	57	0	365
6.6.1	win	2022-12-20	11:54:40	12:01:22	400247	5a776b5aae9a0b0001a9631d	179798006	1	practice_slash	9	practice_slash	9	stimuli_target_circlediamonds.svg	stimuli_distractor_trianglediamonds.svg	4	yes	53	1	716
6.6.1	win	2022-12-20	11:54:40	12:01:22	400247	5a776b5aae9a0b0001a9631d	179798006	1	practice_slash	9	advance_on_keypress_SLASH	10	stimuli_target_circlediamonds.svg	stimuli_distractor_trianglediamonds.svg	4	yes	57	0	254
6.6.1	win	2022-12-20	11:54:40	12:01:25	402939	5a776b5aae9a0b0001a9631d	179798006	1	practice_slash	9	practice_slash	11	stimuli_distractor_diamondtriangles.svg	stimuli_target_trianglecircles.svg	9	yes	53	1	815
6.6.1	win	2022-12-20	11:54:40	12:01:25	402939	5a776b5aae9a0b0001a9631d	179798006	1	practice_slash	9	advance_on_keypress_SLASH	12	stimuli_distractor_diamondtriangles.svg	stimuli_target_trianglecircles.svg	9	yes	57	0	218
6.6.1	win	2022-12-20	11:54:40	12:01:28	406794	5a776b5aae9a0b0001a9631d	179798006	1	practice_slash	9	practice_slash	13	stimuli_distractor_trianglediamonds.svg	stimuli_distractor_trianglediamonds.svg	15	no	0	1	2000
6.6.1	win	2022-12-20	11:54:40	12:01:28	406794	5a776b5aae9a0b0001a9631d	179798006	1	practice_slash	9	advance_on_keypress_SLASH	14	stimuli_distractor_trianglediamonds.svg	stimuli_distractor_trianglediamonds.svg	15	no	57	0	246
6.6.1	win	2022-12-20	11:54:40	12:01:31	409440	5a776b5aae9a0b0001a9631d	179798006	1	practice_slash	9	practice_slash	15	stimuli_distractor_trianglediamonds.svg	stimuli_target_diamondcircles.svg	12	yes	53	1	774
6.6.1	win	2022-12-20	11:54:40	12:01:31	409440	5a776b5aae9a0b0001a9631d	179798006	1	practice_slash	9	advance_on_keypress_SLASH	16	stimuli_distractor_trianglediamonds.svg	stimuli_target_diamondcircles.svg	12	yes	57	0	305
6.6.1	win	2022-12-20	11:54:40	12:01:34	412143	5a776b5aae9a0b0001a9631d	179798006	1	practice_slash	9	practice_slash	17	stimuli_target_squarediamonds.svg	stimuli_distractor_trianglediamonds.svg	5	yes	53	1	764
6.6.1	win	2022-12-20	11:54:40	12:01:34	412143	5a776b5aae9a0b0001a9631d	179798006	1	practice_slash	9	advance_on_keypress_SLASH	18	stimuli_target_squarediamonds.svg	stimuli_distractor_trianglediamonds.svg	5	yes	57	0	229
6.6.1	win	2022-12-20	11:54:40	12:01:36	414841	5a776b5aae9a0b0001a9631d	179798006	1	practice_slash	9	practice_slash	19	stimuli_distractor_diamondtriangles.svg	stimuli_target_diamondcircles.svg	8	yes	53	1	841
6.6.1	win	2022-12-20	11:54:40	12:01:36	414841	5a776b5aae9a0b0001a9631d	179798006	1	practice_slash	9	advance_on_keypress_SLASH	20	stimuli_distractor_diamondtriangles.svg	stimuli_target_diamondcircles.svg	8	yes	57	0	217
6.6.1	win	2022-12-20	11:54:40	12:01:40	418021	5a776b5aae9a0b0001a9631d	179798006	1	practice_slash	9	practice_slash	21	stimuli_distractor_trianglediamonds.svg	stimuli_target_circlediamonds.svg	10	yes	53	1	1326
6.6.1	win	2022-12-20	11:54:40	12:01:40	418021	5a776b5aae9a0b0001a9631d	179798006	1	practice_slash	9	advance_on_keypress_SLASH	22	stimuli_distractor_trianglediamonds.svg	stimuli_target_circlediamonds.svg	10	yes	57	0	192
6.6.1	win	2022-12-20	11:54:40	12:01:43	421838	5a776b5aae9a0b0001a9631d	179798006	1	practice_slash	9	practice_slash	23	stimuli_distractor_trianglediamonds.svg	stimuli_target_squarediamonds.svg	11	yes	0	0	2000
6.6.1	win	2022-12-20	11:54:40	12:01:43	421838	5a776b5aae9a0b0001a9631d	179798006	1	practice_slash	9	advance_on_keypress_SLASH	24	stimuli_distractor_trianglediamonds.svg	stimuli_target_squarediamonds.svg	11	yes	57	0	329
6.6.1	win	2022-12-20	11:54:40	12:01:46	424599	5a776b5aae9a0b0001a9631d	179798006	1	practice_slash	9	practice_slash	25	stimuli_target_squarediamonds.svg	stimuli_distractor_diamondtriangles.svg	2	yes	53	1	806
6.6.1	win	2022-12-20	11:54:40	12:01:46	424599	5a776b5aae9a0b0001a9631d	179798006	1	practice_slash	9	advance_on_keypress_SLASH	26	stimuli_target_squarediamonds.svg	stimuli_distractor_diamondtriangles.svg	2	yes	57	0	255
6.6.1	win	2022-12-20	11:54:40	12:01:49	427290	5a776b5aae9a0b0001a9631d	179798006	1	practice_slash	9	practice_slash	27	stimuli_target_diamondsquares.svg	stimuli_distractor_diamondtriangles.svg	3	yes	53	1	813
6.6.1	win	2022-12-20	11:54:40	12:01:49	427290	5a776b5aae9a0b0001a9631d	179798006	1	practice_slash	9	advance_on_keypress_SLASH	28	stimuli_target_diamondsquares.svg	stimuli_distractor_diamondtriangles.svg	3	yes	57	0	253
6.6.1	win	2022-12-20	11:54:40	12:01:51	429927	5a776b5aae9a0b0001a9631d	179798006	1	practice_slash	9	practice_slash	29	stimuli_target_diamondsquares.svg	stimuli_distractor_trianglediamonds.svg	6	yes	53	1	757
6.6.1	win	2022-12-20	11:54:40	12:01:51	429927	5a776b5aae9a0b0001a9631d	179798006	1	practice_slash	9	advance_on_keypress_SLASH	30	stimuli_target_diamondsquares.svg	stimuli_distractor_trianglediamonds.svg	6	yes	57	0	54
6.6.1	win	2022-12-20	11:54:40	12:01:55	433603	5a776b5aae9a0b0001a9631d	179798006	1	practice_slash	9	practice_slash	31	stimuli_distractor_diamondtriangles.svg	stimuli_distractor_diamondtriangles.svg	13	no	0	1	2000
6.6.1	win	2022-12-20	11:54:40	12:01:55	433603	5a776b5aae9a0b0001a9631d	179798006	1	practice_slash	9	advance_on_keypress_SLASH	32	stimuli_distractor_diamondtriangles.svg	stimuli_distractor_diamondtriangles.svg	13	no	57	0	472
6.6.1	win	2022-12-20	11:54:40	12:02:05	443381	5a776b5aae9a0b0001a9631d	179798006	1	main_slash	11	main_slash	1	stimuli_distractor_trianglediamonds.svg	stimuli_target_trianglesquares.svg	26	yes	53	1	712
6.6.1	win	2022-12-20	11:54:40	12:02:05	443381	5a776b5aae9a0b0001a9631d	179798006	1	main_slash	11	advance_on_keypress_SLASH	2	stimuli_distractor_trianglediamonds.svg	stimuli_target_trianglesquares.svg	26	yes	57	0	505
6.6.1	win	2022-12-20	11:54:40	12:02:07	445168	5a776b5aae9a0b0001a9631d	179798006	1	main_slash	11	main_slash	3	stimuli_target_diamondsquares.svg	stimuli_distractor_diamondtriangles.svg	24	yes	53	1	657
6.6.1	win	2022-12-20	11:54:40	12:02:07	445168	5a776b5aae9a0b0001a9631d	179798006	1	main_slash	11	advance_on_keypress_SLASH	4	stimuli_target_diamondsquares.svg	stimuli_distractor_diamondtriangles.svg	24	yes	57	0	457
6.6.1	win	2022-12-20	11:54:40	12:02:09	447075	5a776b5aae9a0b0001a9631d	179798006	1	main_slash	11	main_slash	5	stimuli_target_diamondsquares.svg	stimuli_distractor_trianglediamonds.svg	20	yes	53	1	832
6.6.1	win	2022-12-20	11:54:40	12:02:09	447075	5a776b5aae9a0b0001a9631d	179798006	1	main_slash	11	advance_on_keypress_SLASH	6	stimuli_target_diamondsquares.svg	stimuli_distractor_trianglediamonds.svg	20	yes	57	0	346
6.6.1	win	2022-12-20	11:54:40	12:02:10	448723	5a776b5aae9a0b0001a9631d	179798006	1	main_slash	11	main_slash	7	stimuli_target_circlediamonds.svg	stimuli_distractor_diamondtriangles.svg	6	yes	53	1	678
6.6.1	win	2022-12-20	11:54:40	12:02:10	448723	5a776b5aae9a0b0001a9631d	179798006	1	main_slash	11	advance_on_keypress_SLASH	8	stimuli_target_circlediamonds.svg	stimuli_distractor_diamondtriangles.svg	6	yes	57	0	323
6.6.1	win	2022-12-20	11:54:40	12:02:12	450323	5a776b5aae9a0b0001a9631d	179798006	1	main_slash	11	main_slash	9	stimuli_target_diamondcircles.svg	stimuli_distractor_diamondtriangles.svg	23	yes	53	1	654
6.6.1	win	2022-12-20	11:54:40	12:02:12	450323	5a776b5aae9a0b0001a9631d	179798006	1	main_slash	11	advance_on_keypress_SLASH	10	stimuli_target_diamondcircles.svg	stimuli_distractor_diamondtriangles.svg	23	yes	57	0	297
6.6.1	win	2022-12-20	11:54:40	12:02:13	451879	5a776b5aae9a0b0001a9631d	179798006	1	main_slash	11	main_slash	11	stimuli_distractor_trianglediamonds.svg	stimuli_target_trianglecircles.svg	25	yes	53	1	640
6.6.1	win	2022-12-20	11:54:40	12:02:13	451879	5a776b5aae9a0b0001a9631d	179798006	1	main_slash	11	advance_on_keypress_SLASH	12	stimuli_distractor_trianglediamonds.svg	stimuli_target_trianglecircles.svg	25	yes	57	0	269
6.6.1	win	2022-12-20	11:54:40	12:02:15	453455	5a776b5aae9a0b0001a9631d	179798006	1	main_slash	11	main_slash	13	stimuli_target_trianglesquares.svg	stimuli_distractor_trianglediamonds.svg	18	yes	53	1	673
6.6.1	win	2022-12-20	11:54:40	12:02:15	453455	5a776b5aae9a0b0001a9631d	179798006	1	main_slash	11	advance_on_keypress_SLASH	14	stimuli_target_trianglesquares.svg	stimuli_distractor_trianglediamonds.svg	18	yes	57	0	262
6.6.1	win	2022-12-20	11:54:40	12:02:18	456344	5a776b5aae9a0b0001a9631d	179798006	1	main_slash	11	main_slash	15	stimuli_distractor_diamondtriangles.svg	stimuli_distractor_trianglediamonds.svg	37	no	0	1	2000
6.6.1	win	2022-12-20	11:54:40	12:02:18	456344	5a776b5aae9a0b0001a9631d	179798006	1	main_slash	11	advance_on_keypress_SLASH	16	stimuli_distractor_diamondtriangles.svg	stimuli_distractor_trianglediamonds.svg	37	no	57	0	416
6.6.1	win	2022-12-20	11:54:40	12:02:21	459378	5a776b5aae9a0b0001a9631d	179798006	1	main_slash	11	main_slash	17	stimuli_distractor_trianglediamonds.svg	stimuli_distractor_trianglediamonds.svg	33	no	0	1	2000
6.6.1	win	2022-12-20	11:54:40	12:02:21	459378	5a776b5aae9a0b0001a9631d	179798006	1	main_slash	11	advance_on_keypress_SLASH	18	stimuli_distractor_trianglediamonds.svg	stimuli_distractor_trianglediamonds.svg	33	no	57	0	244
6.6.1	win	2022-12-20	11:54:40	12:02:23	461066	5a776b5aae9a0b0001a9631d	179798006	1	main_slash	11	main_slash	19	stimuli_target_circletriangles.svg	stimuli_distractor_diamondtriangles.svg	5	yes	53	1	824
6.6.1	win	2022-12-20	11:54:40	12:02:23	461066	5a776b5aae9a0b0001a9631d	179798006	1	main_slash	11	advance_on_keypress_SLASH	20	stimuli_target_circletriangles.svg	stimuli_distractor_diamondtriangles.svg	5	yes	57	0	305
6.6.1	win	2022-12-20	11:54:40	12:02:24	462695	5a776b5aae9a0b0001a9631d	179798006	1	main_slash	11	main_slash	21	stimuli_target_circlediamonds.svg	stimuli_distractor_trianglediamonds.svg	2	yes	53	1	701
6.6.1	win	2022-12-20	11:54:40	12:02:24	462695	5a776b5aae9a0b0001a9631d	179798006	1	main_slash	11	advance_on_keypress_SLASH	22	stimuli_target_circlediamonds.svg	stimuli_distractor_trianglediamonds.svg	2	yes	57	0	316
6.6.1	win	2022-12-20	11:54:40	12:02:26	464315	5a776b5aae9a0b0001a9631d	179798006	1	main_slash	11	main_slash	23	stimuli_target_squarediamonds.svg	stimuli_distractor_trianglediamonds.svg	4	yes	53	1	680
6.6.1	win	2022-12-20	11:54:40	12:02:26	464315	5a776b5aae9a0b0001a9631d	179798006	1	main_slash	11	advance_on_keypress_SLASH	24	stimuli_target_squarediamonds.svg	stimuli_distractor_trianglediamonds.svg	4	yes	57	0	298
6.6.1	win	2022-12-20	11:54:40	12:02:27	465906	5a776b5aae9a0b0001a9631d	179798006	1	main_slash	11	main_slash	25	stimuli_distractor_diamondtriangles.svg	stimuli_target_trianglesquares.svg	30	yes	53	1	679
6.6.1	win	2022-12-20	11:54:40	12:02:27	465906	5a776b5aae9a0b0001a9631d	179798006	1	main_slash	11	advance_on_keypress_SLASH	26	stimuli_distractor_diamondtriangles.svg	stimuli_target_trianglesquares.svg	30	yes	57	0	322
6.6.1	win	2022-12-20	11:54:40	12:02:30	468850	5a776b5aae9a0b0001a9631d	179798006	1	main_slash	11	main_slash	27	stimuli_distractor_trianglediamonds.svg	stimuli_distractor_trianglediamonds.svg	34	no	0	1	2000
6.6.1	win	2022-12-20	11:54:40	12:02:30	468850	5a776b5aae9a0b0001a9631d	179798006	1	main_slash	11	advance_on_keypress_SLASH	28	stimuli_distractor_trianglediamonds.svg	stimuli_distractor_trianglediamonds.svg	34	no	57	0	232
6.6.1	win	2022-12-20	11:54:40	12:02:33	471704	5a776b5aae9a0b0001a9631d	179798006	1	main_slash	11	main_slash	29	stimuli_distractor_trianglediamonds.svg	stimuli_distractor_diamondtriangles.svg	36	no	0	1	2000
6.6.1	win	2022-12-20	11:54:40	12:02:33	471704	5a776b5aae9a0b0001a9631d	179798006	1	main_slash	11	advance_on_keypress_SLASH	30	stimuli_distractor_trianglediamonds.svg	stimuli_distractor_diamondtriangles.svg	36	no	57	0	44
6.6.1	win	2022-12-20	11:54:40	12:02:35	473398	5a776b5aae9a0b0001a9631d	179798006	1	main_slash	11	main_slash	31	stimuli_distractor_trianglediamonds.svg	stimuli_target_squaretriangles.svg	11	yes	53	1	1031
6.6.1	win	2022-12-20	11:54:40	12:02:35	473398	5a776b5aae9a0b0001a9631d	179798006	1	main_slash	11	advance_on_keypress_SLASH	32	stimuli_distractor_trianglediamonds.svg	stimuli_target_squaretriangles.svg	11	yes	57	0	389
6.6.1	win	2022-12-20	11:54:40	12:02:37	475186	5a776b5aae9a0b0001a9631d	179798006	1	main_slash	11	main_slash	33	stimuli_distractor_diamondtriangles.svg	stimuli_target_diamondcircles.svg	31	yes	53	1	761
6.6.1	win	2022-12-20	11:54:40	12:02:37	475186	5a776b5aae9a0b0001a9631d	179798006	1	main_slash	11	advance_on_keypress_SLASH	34	stimuli_distractor_diamondtriangles.svg	stimuli_target_diamondcircles.svg	31	yes	57	0	333
6.6.1	win	2022-12-20	11:54:40	12:02:38	476917	5a776b5aae9a0b0001a9631d	179798006	1	main_slash	11	main_slash	35	stimuli_target_diamondcircles.svg	stimuli_distractor_trianglediamonds.svg	19	yes	53	1	762
6.6.1	win	2022-12-20	11:54:40	12:02:38	476917	5a776b5aae9a0b0001a9631d	179798006	1	main_slash	11	advance_on_keypress_SLASH	36	stimuli_target_diamondcircles.svg	stimuli_distractor_trianglediamonds.svg	19	yes	57	0	316
6.6.1	win	2022-12-20	11:54:40	12:02:40	478685	5a776b5aae9a0b0001a9631d	179798006	1	main_slash	11	main_slash	37	stimuli_distractor_trianglediamonds.svg	stimuli_target_diamondsquares.svg	28	yes	53	1	831
6.6.1	win	2022-12-20	11:54:40	12:02:40	478685	5a776b5aae9a0b0001a9631d	179798006	1	main_slash	11	advance_on_keypress_SLASH	38	stimuli_distractor_trianglediamonds.svg	stimuli_target_diamondsquares.svg	28	yes	57	0	463
6.6.1	win	2022-12-20	11:54:40	12:02:42	480558	5a776b5aae9a0b0001a9631d	179798006	1	main_slash	11	main_slash	39	stimuli_target_trianglesquares.svg	stimuli_distractor_diamondtriangles.svg	22	yes	53	1	780
6.6.1	win	2022-12-20	11:54:40	12:02:42	480558	5a776b5aae9a0b0001a9631d	179798006	1	main_slash	11	advance_on_keypress_SLASH	40	stimuli_target_trianglesquares.svg	stimuli_distractor_diamondtriangles.svg	22	yes	57	0	369
6.6.1	win	2022-12-20	11:54:40	12:02:44	482311	5a776b5aae9a0b0001a9631d	179798006	1	main_slash	11	main_slash	41	stimuli_target_trianglecircles.svg	stimuli_distractor_trianglediamonds.svg	17	yes	53	1	751
6.6.1	win	2022-12-20	11:54:40	12:02:44	482311	5a776b5aae9a0b0001a9631d	179798006	1	main_slash	11	advance_on_keypress_SLASH	42	stimuli_target_trianglecircles.svg	stimuli_distractor_trianglediamonds.svg	17	yes	57	0	348
6.6.1	win	2022-12-20	11:54:40	12:02:46	484081	5a776b5aae9a0b0001a9631d	179798006	1	main_slash	11	main_slash	43	stimuli_target_squaretriangles.svg	stimuli_distractor_trianglediamonds.svg	3	yes	53	1	799
6.6.1	win	2022-12-20	11:54:40	12:02:46	484081	5a776b5aae9a0b0001a9631d	179798006	1	main_slash	11	advance_on_keypress_SLASH	44	stimuli_target_squaretriangles.svg	stimuli_distractor_trianglediamonds.svg	3	yes	57	0	346
6.6.1	win	2022-12-20	11:54:40	12:02:47	485863	5a776b5aae9a0b0001a9631d	179798006	1	main_slash	11	main_slash	45	stimuli_target_circletriangles.svg	stimuli_distractor_trianglediamonds.svg	1	yes	53	1	819
6.6.1	win	2022-12-20	11:54:40	12:02:47	485863	5a776b5aae9a0b0001a9631d	179798006	1	main_slash	11	advance_on_keypress_SLASH	46	stimuli_target_circletriangles.svg	stimuli_distractor_trianglediamonds.svg	1	yes	57	0	342
6.6.1	win	2022-12-20	11:54:40	12:02:49	487605	5a776b5aae9a0b0001a9631d	179798006	1	main_slash	11	main_slash	47	stimuli_distractor_trianglediamonds.svg	stimuli_target_squarediamonds.svg	12	yes	53	1	778
6.6.1	win	2022-12-20	11:54:40	12:02:49	487605	5a776b5aae9a0b0001a9631d	179798006	1	main_slash	11	advance_on_keypress_SLASH	48	stimuli_distractor_trianglediamonds.svg	stimuli_target_squarediamonds.svg	12	yes	57	0	376
6.6.1	win	2022-12-20	11:54:40	12:02:51	489385	5a776b5aae9a0b0001a9631d	179798006	1	main_slash	11	main_slash	49	stimuli_target_squaretriangles.svg	stimuli_distractor_diamondtriangles.svg	7	yes	53	1	786
6.6.1	win	2022-12-20	11:54:40	12:02:51	489385	5a776b5aae9a0b0001a9631d	179798006	1	main_slash	11	advance_on_keypress_SLASH	50	stimuli_target_squaretriangles.svg	stimuli_distractor_diamondtriangles.svg	7	yes	57	0	343
6.6.1	win	2022-12-20	11:54:40	12:02:53	491276	5a776b5aae9a0b0001a9631d	179798006	1	main_slash	11	main_slash	51	stimuli_distractor_diamondtriangles.svg	stimuli_target_squaretriangles.svg	15	yes	53	1	916
6.6.1	win	2022-12-20	11:54:40	12:02:53	491276	5a776b5aae9a0b0001a9631d	179798006	1	main_slash	11	advance_on_keypress_SLASH	52	stimuli_distractor_diamondtriangles.svg	stimuli_target_squaretriangles.svg	15	yes	57	0	334
6.6.1	win	2022-12-20	11:54:40	12:02:56	494233	5a776b5aae9a0b0001a9631d	179798006	1	main_slash	11	main_slash	53	stimuli_distractor_trianglediamonds.svg	stimuli_distractor_diamondtriangles.svg	35	no	0	1	2000
6.6.1	win	2022-12-20	11:54:40	12:02:56	494233	5a776b5aae9a0b0001a9631d	179798006	1	main_slash	11	advance_on_keypress_SLASH	54	stimuli_distractor_trianglediamonds.svg	stimuli_distractor_diamondtriangles.svg	35	no	57	0	202
6.6.1	win	2022-12-20	11:54:40	12:02:57	495892	5a776b5aae9a0b0001a9631d	179798006	1	main_slash	11	main_slash	55	stimuli_distractor_trianglediamonds.svg	stimuli_target_diamondcircles.svg	27	yes	53	1	834
6.6.1	win	2022-12-20	11:54:40	12:02:57	495892	5a776b5aae9a0b0001a9631d	179798006	1	main_slash	11	advance_on_keypress_SLASH	56	stimuli_distractor_trianglediamonds.svg	stimuli_target_diamondcircles.svg	27	yes	57	0	324
6.6.1	win	2022-12-20	11:54:40	12:02:59	497599	5a776b5aae9a0b0001a9631d	179798006	1	main_slash	11	main_slash	57	stimuli_distractor_diamondtriangles.svg	stimuli_target_diamondsquares.svg	32	yes	53	1	760
6.6.1	win	2022-12-20	11:54:40	12:02:59	497599	5a776b5aae9a0b0001a9631d	179798006	1	main_slash	11	advance_on_keypress_SLASH	58	stimuli_distractor_diamondtriangles.svg	stimuli_target_diamondsquares.svg	32	yes	57	0	268
6.6.1	win	2022-12-20	11:54:40	12:03:02	500492	5a776b5aae9a0b0001a9631d	179798006	1	main_slash	11	main_slash	59	stimuli_distractor_diamondtriangles.svg	stimuli_distractor_diamondtriangles.svg	40	no	0	1	2000
6.6.1	win	2022-12-20	11:54:40	12:03:02	500492	5a776b5aae9a0b0001a9631d	179798006	1	main_slash	11	advance_on_keypress_SLASH	60	stimuli_distractor_diamondtriangles.svg	stimuli_distractor_diamondtriangles.svg	40	no	57	0	303
6.6.1	win	2022-12-20	11:54:40	12:03:04	502183	5a776b5aae9a0b0001a9631d	179798006	1	main_slash	11	main_slash	61	stimuli_distractor_diamondtriangles.svg	stimuli_target_squarediamonds.svg	16	yes	53	1	767
6.6.1	win	2022-12-20	11:54:40	12:03:04	502183	5a776b5aae9a0b0001a9631d	179798006	1	main_slash	11	advance_on_keypress_SLASH	62	stimuli_distractor_diamondtriangles.svg	stimuli_target_squarediamonds.svg	16	yes	57	0	306
6.6.1	win	2022-12-20	11:54:40	12:03:06	503985	5a776b5aae9a0b0001a9631d	179798006	1	main_slash	11	main_slash	63	stimuli_distractor_diamondtriangles.svg	stimuli_target_circlediamonds.svg	14	yes	53	1	877
6.6.1	win	2022-12-20	11:54:40	12:03:06	503985	5a776b5aae9a0b0001a9631d	179798006	1	main_slash	11	advance_on_keypress_SLASH	64	stimuli_distractor_diamondtriangles.svg	stimuli_target_circlediamonds.svg	14	yes	57	0	517
6.6.1	win	2022-12-20	11:54:40	12:03:09	507120	5a776b5aae9a0b0001a9631d	179798006	1	main_slash	11	main_slash	65	stimuli_distractor_diamondtriangles.svg	stimuli_distractor_trianglediamonds.svg	38	no	0	1	2000
6.6.1	win	2022-12-20	11:54:40	12:03:09	507120	5a776b5aae9a0b0001a9631d	179798006	1	main_slash	11	advance_on_keypress_SLASH	66	stimuli_distractor_diamondtriangles.svg	stimuli_distractor_trianglediamonds.svg	38	no	57	0	264
6.6.1	win	2022-12-20	11:54:40	12:03:11	508962	5a776b5aae9a0b0001a9631d	179798006	1	main_slash	11	main_slash	67	stimuli_distractor_trianglediamonds.svg	stimuli_target_circletriangles.svg	9	yes	53	1	957
6.6.1	win	2022-12-20	11:54:40	12:03:11	508962	5a776b5aae9a0b0001a9631d	179798006	1	main_slash	11	advance_on_keypress_SLASH	68	stimuli_distractor_trianglediamonds.svg	stimuli_target_circletriangles.svg	9	yes	57	0	508
6.6.1	win	2022-12-20	11:54:40	12:03:12	510817	5a776b5aae9a0b0001a9631d	179798006	1	main_slash	11	main_slash	69	stimuli_distractor_trianglediamonds.svg	stimuli_target_circlediamonds.svg	10	yes	53	1	731
6.6.1	win	2022-12-20	11:54:40	12:03:12	510817	5a776b5aae9a0b0001a9631d	179798006	1	main_slash	11	advance_on_keypress_SLASH	70	stimuli_distractor_trianglediamonds.svg	stimuli_target_circlediamonds.svg	10	yes	57	0	324
6.6.1	win	2022-12-20	11:54:40	12:03:14	512453	5a776b5aae9a0b0001a9631d	179798006	1	main_slash	11	main_slash	71	stimuli_target_squarediamonds.svg	stimuli_distractor_diamondtriangles.svg	8	yes	53	1	682
6.6.1	win	2022-12-20	11:54:40	12:03:14	512453	5a776b5aae9a0b0001a9631d	179798006	1	main_slash	11	advance_on_keypress_SLASH	72	stimuli_target_squarediamonds.svg	stimuli_distractor_diamondtriangles.svg	8	yes	57	0	345
6.6.1	win	2022-12-20	11:54:40	12:03:16	514237	5a776b5aae9a0b0001a9631d	179798006	1	main_slash	11	main_slash	73	stimuli_distractor_diamondtriangles.svg	stimuli_target_circletriangles.svg	13	yes	53	1	815
6.6.1	win	2022-12-20	11:54:40	12:03:16	514237	5a776b5aae9a0b0001a9631d	179798006	1	main_slash	11	advance_on_keypress_SLASH	74	stimuli_distractor_diamondtriangles.svg	stimuli_target_circletriangles.svg	13	yes	57	0	296
6.6.1	win	2022-12-20	11:54:40	12:03:18	515932	5a776b5aae9a0b0001a9631d	179798006	1	main_slash	11	main_slash	75	stimuli_distractor_diamondtriangles.svg	stimuli_target_trianglecircles.svg	29	yes	53	1	779
6.6.1	win	2022-12-20	11:54:40	12:03:18	515932	5a776b5aae9a0b0001a9631d	179798006	1	main_slash	11	advance_on_keypress_SLASH	76	stimuli_distractor_diamondtriangles.svg	stimuli_target_trianglecircles.svg	29	yes	57	0	286
6.6.1	win	2022-12-20	11:54:40	12:03:20	518836	5a776b5aae9a0b0001a9631d	179798006	1	main_slash	11	main_slash	77	stimuli_distractor_diamondtriangles.svg	stimuli_distractor_diamondtriangles.svg	39	no	0	1	2000
6.6.1	win	2022-12-20	11:54:40	12:03:20	518836	5a776b5aae9a0b0001a9631d	179798006	1	main_slash	11	advance_on_keypress_SLASH	78	stimuli_distractor_diamondtriangles.svg	stimuli_distractor_diamondtriangles.svg	39	no	57	0	296
6.6.1	win	2022-12-20	11:54:40	12:03:22	520580	5a776b5aae9a0b0001a9631d	179798006	1	main_slash	11	main_slash	79	stimuli_target_trianglecircles.svg	stimuli_distractor_diamondtriangles.svg	21	yes	53	1	830
6.6.1	win	2022-12-20	11:54:40	12:03:22	520580	5a776b5aae9a0b0001a9631d	179798006	1	main_slash	11	advance_on_keypress_SLASH	80	stimuli_target_trianglecircles.svg	stimuli_distractor_diamondtriangles.svg	21	yes	57	0	461
6.6.1	win	2022-12-20	11:54:40	12:03:24	522453	5a776b5aae9a0b0001a9631d	179798006	1	main_slash	11	main_slash	81	stimuli_target_trianglecircles.svg	stimuli_distractor_diamondtriangles.svg	21	yes	53	1	790
6.6.1	win	2022-12-20	11:54:40	12:03:24	522453	5a776b5aae9a0b0001a9631d	179798006	1	main_slash	11	advance_on_keypress_SLASH	82	stimuli_target_trianglecircles.svg	stimuli_distractor_diamondtriangles.svg	21	yes	57	0	474
6.6.1	win	2022-12-20	11:54:40	12:03:27	525575	5a776b5aae9a0b0001a9631d	179798006	1	main_slash	11	main_slash	83	stimuli_distractor_diamondtriangles.svg	stimuli_distractor_trianglediamonds.svg	38	no	0	1	2000
6.6.1	win	2022-12-20	11:54:40	12:03:27	525575	5a776b5aae9a0b0001a9631d	179798006	1	main_slash	11	advance_on_keypress_SLASH	84	stimuli_distractor_diamondtriangles.svg	stimuli_distractor_trianglediamonds.svg	38	no	57	0	404
6.6.1	win	2022-12-20	11:54:40	12:03:29	527348	5a776b5aae9a0b0001a9631d	179798006	1	main_slash	11	main_slash	85	stimuli_distractor_diamondtriangles.svg	stimuli_target_trianglesquares.svg	30	yes	53	1	750
6.6.1	win	2022-12-20	11:54:40	12:03:29	527348	5a776b5aae9a0b0001a9631d	179798006	1	main_slash	11	advance_on_keypress_SLASH	86	stimuli_distractor_diamondtriangles.svg	stimuli_target_trianglesquares.svg	30	yes	57	0	334
6.6.1	win	2022-12-20	11:54:40	12:03:31	529119	5a776b5aae9a0b0001a9631d	179798006	1	main_slash	11	main_slash	87	stimuli_target_diamondcircles.svg	stimuli_distractor_diamondtriangles.svg	23	yes	53	1	818
6.6.1	win	2022-12-20	11:54:40	12:03:31	529119	5a776b5aae9a0b0001a9631d	179798006	1	main_slash	11	advance_on_keypress_SLASH	88	stimuli_target_diamondcircles.svg	stimuli_distractor_diamondtriangles.svg	23	yes	57	0	309
6.6.1	win	2022-12-20	11:54:40	12:03:32	530854	5a776b5aae9a0b0001a9631d	179798006	1	main_slash	11	main_slash	89	stimuli_distractor_trianglediamonds.svg	stimuli_target_circletriangles.svg	9	yes	53	1	800
6.6.1	win	2022-12-20	11:54:40	12:03:32	530854	5a776b5aae9a0b0001a9631d	179798006	1	main_slash	11	advance_on_keypress_SLASH	90	stimuli_distractor_trianglediamonds.svg	stimuli_target_circletriangles.svg	9	yes	57	0	268
6.6.1	win	2022-12-20	11:54:40	12:03:34	532540	5a776b5aae9a0b0001a9631d	179798006	1	main_slash	11	main_slash	91	stimuli_target_diamondcircles.svg	stimuli_distractor_trianglediamonds.svg	19	yes	53	1	784
6.6.1	win	2022-12-20	11:54:40	12:03:34	532540	5a776b5aae9a0b0001a9631d	179798006	1	main_slash	11	advance_on_keypress_SLASH	92	stimuli_target_diamondcircles.svg	stimuli_distractor_trianglediamonds.svg	19	yes	57	0	274
6.6.1	win	2022-12-20	11:54:40	12:03:36	534196	5a776b5aae9a0b0001a9631d	179798006	1	main_slash	11	main_slash	93	stimuli_target_squarediamonds.svg	stimuli_distractor_diamondtriangles.svg	8	yes	53	1	758
6.6.1	win	2022-12-20	11:54:40	12:03:36	534196	5a776b5aae9a0b0001a9631d	179798006	1	main_slash	11	advance_on_keypress_SLASH	94	stimuli_target_squarediamonds.svg	stimuli_distractor_diamondtriangles.svg	8	yes	57	0	296
6.6.1	win	2022-12-20	11:54:40	12:03:37	535839	5a776b5aae9a0b0001a9631d	179798006	1	main_slash	11	main_slash	95	stimuli_distractor_diamondtriangles.svg	stimuli_target_circlediamonds.svg	14	yes	53	1	730
6.6.1	win	2022-12-20	11:54:40	12:03:37	535839	5a776b5aae9a0b0001a9631d	179798006	1	main_slash	11	advance_on_keypress_SLASH	96	stimuli_distractor_diamondtriangles.svg	stimuli_target_circlediamonds.svg	14	yes	57	0	300
6.6.1	win	2022-12-20	11:54:40	12:03:39	537552	5a776b5aae9a0b0001a9631d	179798006	1	main_slash	11	main_slash	97	stimuli_distractor_diamondtriangles.svg	stimuli_target_squarediamonds.svg	16	yes	53	1	789
6.6.1	win	2022-12-20	11:54:40	12:03:39	537552	5a776b5aae9a0b0001a9631d	179798006	1	main_slash	11	advance_on_keypress_SLASH	98	stimuli_distractor_diamondtriangles.svg	stimuli_target_squarediamonds.svg	16	yes	57	0	329
6.6.1	win	2022-12-20	11:54:40	12:03:41	539252	5a776b5aae9a0b0001a9631d	179798006	1	main_slash	11	main_slash	99	stimuli_target_squaretriangles.svg	stimuli_distractor_diamondtriangles.svg	7	yes	53	1	747
6.6.1	win	2022-12-20	11:54:40	12:03:41	539252	5a776b5aae9a0b0001a9631d	179798006	1	main_slash	11	advance_on_keypress_SLASH	100	stimuli_target_squaretriangles.svg	stimuli_distractor_diamondtriangles.svg	7	yes	57	0	321
6.6.1	win	2022-12-20	11:54:40	12:03:44	542196	5a776b5aae9a0b0001a9631d	179798006	1	main_slash	11	main_slash	101	stimuli_distractor_diamondtriangles.svg	stimuli_distractor_diamondtriangles.svg	40	no	0	1	2000
6.6.1	win	2022-12-20	11:54:40	12:03:44	542196	5a776b5aae9a0b0001a9631d	179798006	1	main_slash	11	advance_on_keypress_SLASH	102	stimuli_distractor_diamondtriangles.svg	stimuli_distractor_diamondtriangles.svg	40	no	57	0	244
6.6.1	win	2022-12-20	11:54:40	12:03:45	543807	5a776b5aae9a0b0001a9631d	179798006	1	main_slash	11	main_slash	103	stimuli_distractor_trianglediamonds.svg	stimuli_target_squaretriangles.svg	11	yes	53	1	745
6.6.1	win	2022-12-20	11:54:40	12:03:45	543807	5a776b5aae9a0b0001a9631d	179798006	1	main_slash	11	advance_on_keypress_SLASH	104	stimuli_distractor_trianglediamonds.svg	stimuli_target_squaretriangles.svg	11	yes	57	0	307
6.6.1	win	2022-12-20	11:54:40	12:03:47	545580	5a776b5aae9a0b0001a9631d	179798006	1	main_slash	11	main_slash	105	stimuli_distractor_trianglediamonds.svg	stimuli_target_circlediamonds.svg	10	yes	53	1	848
6.6.1	win	2022-12-20	11:54:40	12:03:47	545580	5a776b5aae9a0b0001a9631d	179798006	1	main_slash	11	advance_on_keypress_SLASH	106	stimuli_distractor_trianglediamonds.svg	stimuli_target_circlediamonds.svg	10	yes	57	0	297
6.6.1	win	2022-12-20	11:54:40	12:03:49	547430	5a776b5aae9a0b0001a9631d	179798006	1	main_slash	11	main_slash	107	stimuli_target_trianglecircles.svg	stimuli_distractor_trianglediamonds.svg	17	yes	53	1	932
6.6.1	win	2022-12-20	11:54:40	12:03:49	547430	5a776b5aae9a0b0001a9631d	179798006	1	main_slash	11	advance_on_keypress_SLASH	108	stimuli_target_trianglecircles.svg	stimuli_distractor_trianglediamonds.svg	17	yes	57	0	302
6.6.1	win	2022-12-20	11:54:40	12:03:52	550357	5a776b5aae9a0b0001a9631d	179798006	1	main_slash	11	main_slash	109	stimuli_distractor_diamondtriangles.svg	stimuli_distractor_trianglediamonds.svg	37	no	0	1	2000
6.6.1	win	2022-12-20	11:54:40	12:03:52	550357	5a776b5aae9a0b0001a9631d	179798006	1	main_slash	11	advance_on_keypress_SLASH	110	stimuli_distractor_diamondtriangles.svg	stimuli_distractor_trianglediamonds.svg	37	no	57	0	224
6.6.1	win	2022-12-20	11:54:40	12:03:54	552030	5a776b5aae9a0b0001a9631d	179798006	1	main_slash	11	main_slash	111	stimuli_distractor_diamondtriangles.svg	stimuli_target_diamondcircles.svg	31	yes	53	1	828
6.6.1	win	2022-12-20	11:54:40	12:03:54	552030	5a776b5aae9a0b0001a9631d	179798006	1	main_slash	11	advance_on_keypress_SLASH	112	stimuli_distractor_diamondtriangles.svg	stimuli_target_diamondcircles.svg	31	yes	57	0	276
6.6.1	win	2022-12-20	11:54:40	12:03:55	553911	5a776b5aae9a0b0001a9631d	179798006	1	main_slash	11	main_slash	113	stimuli_distractor_diamondtriangles.svg	stimuli_target_circletriangles.svg	13	yes	53	1	987
6.6.1	win	2022-12-20	11:54:40	12:03:55	553911	5a776b5aae9a0b0001a9631d	179798006	1	main_slash	11	advance_on_keypress_SLASH	114	stimuli_distractor_diamondtriangles.svg	stimuli_target_circletriangles.svg	13	yes	57	0	1223
6.6.1	win	2022-12-20	11:54:40	12:03:59	557768	5a776b5aae9a0b0001a9631d	179798006	1	main_slash	11	main_slash	115	stimuli_distractor_trianglediamonds.svg	stimuli_distractor_diamondtriangles.svg	36	no	0	1	2000
6.6.1	win	2022-12-20	11:54:40	12:03:59	557768	5a776b5aae9a0b0001a9631d	179798006	1	main_slash	11	advance_on_keypress_SLASH	116	stimuli_distractor_trianglediamonds.svg	stimuli_distractor_diamondtriangles.svg	36	no	57	0	390
6.6.1	win	2022-12-20	11:54:40	12:04:02	560781	5a776b5aae9a0b0001a9631d	179798006	1	main_slash	11	main_slash	117	stimuli_distractor_trianglediamonds.svg	stimuli_distractor_trianglediamonds.svg	34	no	0	1	2000
6.6.1	win	2022-12-20	11:54:40	12:04:02	560781	5a776b5aae9a0b0001a9631d	179798006	1	main_slash	11	advance_on_keypress_SLASH	118	stimuli_distractor_trianglediamonds.svg	stimuli_distractor_trianglediamonds.svg	34	no	57	0	271
6.6.1	win	2022-12-20	11:54:40	12:04:05	563675	5a776b5aae9a0b0001a9631d	179798006	1	main_slash	11	main_slash	119	stimuli_distractor_diamondtriangles.svg	stimuli_distractor_diamondtriangles.svg	39	no	0	1	2000
6.6.1	win	2022-12-20	11:54:40	12:04:05	563675	5a776b5aae9a0b0001a9631d	179798006	1	main_slash	11	advance_on_keypress_SLASH	120	stimuli_distractor_diamondtriangles.svg	stimuli_distractor_diamondtriangles.svg	39	no	57	0	111
6.6.1	win	2022-12-20	11:54:40	12:04:07	565182	5a776b5aae9a0b0001a9631d	179798006	1	main_slash	11	main_slash	121	stimuli_distractor_trianglediamonds.svg	stimuli_target_trianglecircles.svg	25	yes	53	1	772
6.6.1	win	2022-12-20	11:54:40	12:04:07	565182	5a776b5aae9a0b0001a9631d	179798006	1	main_slash	11	advance_on_keypress_SLASH	122	stimuli_distractor_trianglediamonds.svg	stimuli_target_trianglecircles.svg	25	yes	57	0	298
6.6.1	win	2022-12-20	11:54:40	12:04:08	566870	5a776b5aae9a0b0001a9631d	179798006	1	main_slash	11	main_slash	123	stimuli_target_trianglesquares.svg	stimuli_distractor_trianglediamonds.svg	18	yes	53	1	769
6.6.1	win	2022-12-20	11:54:40	12:04:08	566870	5a776b5aae9a0b0001a9631d	179798006	1	main_slash	11	advance_on_keypress_SLASH	124	stimuli_target_trianglesquares.svg	stimuli_distractor_trianglediamonds.svg	18	yes	57	0	322
6.6.1	win	2022-12-20	11:54:40	12:04:10	568582	5a776b5aae9a0b0001a9631d	179798006	1	main_slash	11	main_slash	125	stimuli_target_trianglesquares.svg	stimuli_distractor_diamondtriangles.svg	22	yes	53	1	760
6.6.1	win	2022-12-20	11:54:40	12:04:10	568582	5a776b5aae9a0b0001a9631d	179798006	1	main_slash	11	advance_on_keypress_SLASH	126	stimuli_target_trianglesquares.svg	stimuli_distractor_diamondtriangles.svg	22	yes	57	0	721
6.6.1	win	2022-12-20	11:54:40	12:04:12	570912	5a776b5aae9a0b0001a9631d	179798006	1	main_slash	11	main_slash	127	stimuli_distractor_trianglediamonds.svg	stimuli_target_diamondsquares.svg	28	yes	53	1	986
6.6.1	win	2022-12-20	11:54:40	12:04:12	570912	5a776b5aae9a0b0001a9631d	179798006	1	main_slash	11	advance_on_keypress_SLASH	128	stimuli_distractor_trianglediamonds.svg	stimuli_target_diamondsquares.svg	28	yes	57	0	912
6.6.1	win	2022-12-20	11:54:40	12:04:15	573379	5a776b5aae9a0b0001a9631d	179798006	1	main_slash	11	main_slash	129	stimuli_distractor_trianglediamonds.svg	stimuli_target_squarediamonds.svg	12	yes	53	1	931
6.6.1	win	2022-12-20	11:54:40	12:04:15	573379	5a776b5aae9a0b0001a9631d	179798006	1	main_slash	11	advance_on_keypress_SLASH	130	stimuli_distractor_trianglediamonds.svg	stimuli_target_squarediamonds.svg	12	yes	57	0	389
6.6.1	win	2022-12-20	11:54:40	12:04:17	575337	5a776b5aae9a0b0001a9631d	179798006	1	main_slash	11	main_slash	131	stimuli_distractor_trianglediamonds.svg	stimuli_target_trianglesquares.svg	26	yes	53	1	936
6.6.1	win	2022-12-20	11:54:40	12:04:17	575337	5a776b5aae9a0b0001a9631d	179798006	1	main_slash	11	advance_on_keypress_SLASH	132	stimuli_distractor_trianglediamonds.svg	stimuli_target_trianglesquares.svg	26	yes	57	0	369
6.6.1	win	2022-12-20	11:54:40	12:04:20	578334	5a776b5aae9a0b0001a9631d	179798006	1	main_slash	11	main_slash	133	stimuli_distractor_trianglediamonds.svg	stimuli_distractor_trianglediamonds.svg	33	no	0	1	2000
6.6.1	win	2022-12-20	11:54:40	12:04:20	578334	5a776b5aae9a0b0001a9631d	179798006	1	main_slash	11	advance_on_keypress_SLASH	134	stimuli_distractor_trianglediamonds.svg	stimuli_distractor_trianglediamonds.svg	33	no	57	0	252
6.6.1	win	2022-12-20	11:54:40	12:04:22	580184	5a776b5aae9a0b0001a9631d	179798006	1	main_slash	11	main_slash	135	stimuli_target_circlediamonds.svg	stimuli_distractor_diamondtriangles.svg	6	yes	53	1	977
6.6.1	win	2022-12-20	11:54:40	12:04:22	580184	5a776b5aae9a0b0001a9631d	179798006	1	main_slash	11	advance_on_keypress_SLASH	136	stimuli_target_circlediamonds.svg	stimuli_distractor_diamondtriangles.svg	6	yes	57	0	364
6.6.1	win	2022-12-20	11:54:40	12:04:23	581904	5a776b5aae9a0b0001a9631d	179798006	1	main_slash	11	main_slash	137	stimuli_target_circlediamonds.svg	stimuli_distractor_trianglediamonds.svg	2	yes	53	1	734
6.6.1	win	2022-12-20	11:54:40	12:04:23	581904	5a776b5aae9a0b0001a9631d	179798006	1	main_slash	11	advance_on_keypress_SLASH	138	stimuli_target_circlediamonds.svg	stimuli_distractor_trianglediamonds.svg	2	yes	57	0	331
6.6.1	win	2022-12-20	11:54:40	12:04:25	583629	5a776b5aae9a0b0001a9631d	179798006	1	main_slash	11	main_slash	139	stimuli_target_squaretriangles.svg	stimuli_distractor_trianglediamonds.svg	3	yes	53	1	755
6.6.1	win	2022-12-20	11:54:40	12:04:25	583629	5a776b5aae9a0b0001a9631d	179798006	1	main_slash	11	advance_on_keypress_SLASH	140	stimuli_target_squaretriangles.svg	stimuli_distractor_trianglediamonds.svg	3	yes	57	0	355
6.6.1	win	2022-12-20	11:54:40	12:04:27	585379	5a776b5aae9a0b0001a9631d	179798006	1	main_slash	11	main_slash	141	stimuli_distractor_diamondtriangles.svg	stimuli_target_trianglecircles.svg	29	yes	53	1	774
6.6.1	win	2022-12-20	11:54:40	12:04:27	585379	5a776b5aae9a0b0001a9631d	179798006	1	main_slash	11	advance_on_keypress_SLASH	142	stimuli_distractor_diamondtriangles.svg	stimuli_target_trianglecircles.svg	29	yes	57	0	328
6.6.1	win	2022-12-20	11:54:40	12:04:29	587176	5a776b5aae9a0b0001a9631d	179798006	1	main_slash	11	main_slash	143	stimuli_target_circletriangles.svg	stimuli_distractor_diamondtriangles.svg	5	yes	53	1	848
6.6.1	win	2022-12-20	11:54:40	12:04:29	587176	5a776b5aae9a0b0001a9631d	179798006	1	main_slash	11	advance_on_keypress_SLASH	144	stimuli_target_circletriangles.svg	stimuli_distractor_diamondtriangles.svg	5	yes	57	0	367
6.6.1	win	2022-12-20	11:54:40	12:04:31	589036	5a776b5aae9a0b0001a9631d	179798006	1	main_slash	11	main_slash	145	stimuli_target_diamondsquares.svg	stimuli_distractor_diamondtriangles.svg	24	yes	53	1	876
6.6.1	win	2022-12-20	11:54:40	12:04:31	589036	5a776b5aae9a0b0001a9631d	179798006	1	main_slash	11	advance_on_keypress_SLASH	146	stimuli_target_diamondsquares.svg	stimuli_distractor_diamondtriangles.svg	24	yes	57	0	649
6.6.1	win	2022-12-20	11:54:40	12:04:33	591299	5a776b5aae9a0b0001a9631d	179798006	1	main_slash	11	main_slash	147	stimuli_distractor_diamondtriangles.svg	stimuli_target_squaretriangles.svg	15	yes	53	1	983
6.6.1	win	2022-12-20	11:54:40	12:04:33	591299	5a776b5aae9a0b0001a9631d	179798006	1	main_slash	11	advance_on_keypress_SLASH	148	stimuli_distractor_diamondtriangles.svg	stimuli_target_squaretriangles.svg	15	yes	57	0	361
6.6.1	win	2022-12-20	11:54:40	12:04:36	594285	5a776b5aae9a0b0001a9631d	179798006	1	main_slash	11	main_slash	149	stimuli_distractor_trianglediamonds.svg	stimuli_distractor_diamondtriangles.svg	35	no	0	1	2000
6.6.1	win	2022-12-20	11:54:40	12:04:36	594285	5a776b5aae9a0b0001a9631d	179798006	1	main_slash	11	advance_on_keypress_SLASH	150	stimuli_distractor_trianglediamonds.svg	stimuli_distractor_diamondtriangles.svg	35	no	57	0	296
6.6.1	win	2022-12-20	11:54:40	12:04:38	596166	5a776b5aae9a0b0001a9631d	179798006	1	main_slash	11	main_slash	151	stimuli_distractor_diamondtriangles.svg	stimuli_target_diamondsquares.svg	32	yes	53	1	967
6.6.1	win	2022-12-20	11:54:40	12:04:38	596166	5a776b5aae9a0b0001a9631d	179798006	1	main_slash	11	advance_on_keypress_SLASH	152	stimuli_distractor_diamondtriangles.svg	stimuli_target_diamondsquares.svg	32	yes	57	0	297
6.6.1	win	2022-12-20	11:54:40	12:04:40	597939	5a776b5aae9a0b0001a9631d	179798006	1	main_slash	11	main_slash	153	stimuli_target_diamondsquares.svg	stimuli_distractor_trianglediamonds.svg	20	yes	53	1	857
6.6.1	win	2022-12-20	11:54:40	12:04:40	597939	5a776b5aae9a0b0001a9631d	179798006	1	main_slash	11	advance_on_keypress_SLASH	154	stimuli_target_diamondsquares.svg	stimuli_distractor_trianglediamonds.svg	20	yes	57	0	320
6.6.1	win	2022-12-20	11:54:40	12:04:41	599878	5a776b5aae9a0b0001a9631d	179798006	1	main_slash	11	main_slash	155	stimuli_distractor_trianglediamonds.svg	stimuli_target_diamondcircles.svg	27	yes	53	1	994
6.6.1	win	2022-12-20	11:54:40	12:04:41	599878	5a776b5aae9a0b0001a9631d	179798006	1	main_slash	11	advance_on_keypress_SLASH	156	stimuli_distractor_trianglediamonds.svg	stimuli_target_diamondcircles.svg	27	yes	57	0	340
6.6.1	win	2022-12-20	11:54:40	12:04:43	601743	5a776b5aae9a0b0001a9631d	179798006	1	main_slash	11	main_slash	157	stimuli_target_squarediamonds.svg	stimuli_distractor_trianglediamonds.svg	4	yes	53	1	897
6.6.1	win	2022-12-20	11:54:40	12:04:43	601743	5a776b5aae9a0b0001a9631d	179798006	1	main_slash	11	advance_on_keypress_SLASH	158	stimuli_target_squarediamonds.svg	stimuli_distractor_trianglediamonds.svg	4	yes	57	0	346
6.6.1	win	2022-12-20	11:54:40	12:04:45	603604	5a776b5aae9a0b0001a9631d	179798006	1	main_slash	11	main_slash	159	stimuli_target_circletriangles.svg	stimuli_distractor_trianglediamonds.svg	1	yes	53	1	895
6.6.1	win	2022-12-20	11:54:40	12:04:45	603604	5a776b5aae9a0b0001a9631d	179798006	1	main_slash	11	advance_on_keypress_SLASH	160	stimuli_target_circletriangles.svg	stimuli_distractor_trianglediamonds.svg	1	yes	57	0	343