build	computer.platform	date	time	timestamp	time_elapsed_ms	subject	group	session	blockcode	blocknum	trialcode	trialnum	stimulus_left	stimulus_right	stim_index	target_present	response	correct	latency
6.6.1	win	2022-12-19	18:03:11	18:12:40	568491	60175a2c2d7cc99cb9f4049c	749638386	1	practice_z	5	practice_z	1	stimuli_distractor_trianglediamonds.svg	stimuli_target_diamondcircles.svg	12	yes	0	0	2000
6.6.1	win	2022-12-19	18:03:11	18:12:40	568491	60175a2c2d7cc99cb9f4049c	749638386	1	practice_z	5	advance_on_keypress_ZEE	2	stimuli_distractor_trianglediamonds.svg	stimuli_target_diamondcircles.svg	12	yes	57	0	1860
6.6.1	win	2022-12-19	18:03:11	18:12:45	573535	60175a2c2d7cc99cb9f4049c	749638386	1	practice_z	5	practice_z	3	stimuli_distractor_diamondtriangles.svg	stimuli_distractor_diamondtriangles.svg	13	no	44	0	1527
6.6.1	win	2022-12-19	18:03:11	18:12:45	573535	60175a2c2d7cc99cb9f4049c	749638386	1	practice_z	5	advance_on_keypress_ZEE	4	stimuli_distractor_diamondtriangles.svg	stimuli_distractor_diamondtriangles.svg	13	no	57	0	803
6.6.1	win	2022-12-19	18:03:11	18:12:49	576735	60175a2c2d7cc99cb9f4049c	749638386	1	practice_z	5	practice_z	5	stimuli_target_squarediamonds.svg	stimuli_distractor_trianglediamonds.svg	5	yes	44	1	761
6.6.1	win	2022-12-19	18:03:11	18:12:49	576735	60175a2c2d7cc99cb9f4049c	749638386	1	practice_z	5	advance_on_keypress_ZEE	6	stimuli_target_squarediamonds.svg	stimuli_distractor_trianglediamonds.svg	5	yes	57	0	802
6.6.1	win	2022-12-19	18:03:11	18:12:52	579615	60175a2c2d7cc99cb9f4049c	749638386	1	practice_z	5	practice_z	7	stimuli_distractor_trianglediamonds.svg	stimuli_target_circlediamonds.svg	10	yes	44	1	442
6.6.1	win	2022-12-19	18:03:11	18:12:52	579615	60175a2c2d7cc99cb9f4049c	749638386	1	practice_z	5	advance_on_keypress_ZEE	8	stimuli_distractor_trianglediamonds.svg	stimuli_target_circlediamonds.svg	10	yes	57	0	1503
6.6.1	win	2022-12-19	18:03:11	18:12:57	584757	60175a2c2d7cc99cb9f4049c	749638386	1	practice_z	5	practice_z	9	stimuli_distractor_trianglediamonds.svg	stimuli_distractor_diamondtriangles.svg	16	no	0	1	2000
6.6.1	win	2022-12-19	18:03:11	18:12:57	584757	60175a2c2d7cc99cb9f4049c	749638386	1	practice_z	5	advance_on_keypress_ZEE	10	stimuli_distractor_trianglediamonds.svg	stimuli_distractor_diamondtriangles.svg	16	no	57	0	514
6.6.1	win	2022-12-19	18:03:11	18:13:01	588923	60175a2c2d7cc99cb9f4049c	749638386	1	practice_z	5	practice_z	11	stimuli_distractor_diamondtriangles.svg	stimuli_target_trianglecircles.svg	9	yes	0	0	2000
6.6.1	win	2022-12-19	18:03:11	18:13:01	588923	60175a2c2d7cc99cb9f4049c	749638386	1	practice_z	5	advance_on_keypress_ZEE	12	stimuli_distractor_diamondtriangles.svg	stimuli_target_trianglecircles.svg	9	yes	57	0	3706
6.6.1	win	2022-12-19	18:03:11	18:13:07	595015	60175a2c2d7cc99cb9f4049c	749638386	1	practice_z	5	practice_z	13	stimuli_distractor_trianglediamonds.svg	stimuli_distractor_trianglediamonds.svg	15	no	44	0	742
6.6.1	win	2022-12-19	18:03:11	18:13:07	595015	60175a2c2d7cc99cb9f4049c	749638386	1	practice_z	5	advance_on_keypress_ZEE	14	stimuli_distractor_trianglediamonds.svg	stimuli_distractor_trianglediamonds.svg	15	no	57	0	86512
6.6.1	win	2022-12-19	18:03:11	18:14:35	683559	60175a2c2d7cc99cb9f4049c	749638386	1	practice_z	5	practice_z	15	stimuli_target_diamondsquares.svg	stimuli_distractor_trianglediamonds.svg	6	yes	44	1	390
6.6.1	win	2022-12-19	18:03:11	18:14:35	683559	60175a2c2d7cc99cb9f4049c	749638386	1	practice_z	5	advance_on_keypress_ZEE	16	stimuli_target_diamondsquares.svg	stimuli_distractor_trianglediamonds.svg	6	yes	57	0	462
6.6.1	win	2022-12-19	18:03:11	18:14:38	686015	60175a2c2d7cc99cb9f4049c	749638386	1	practice_z	5	practice_z	17	stimuli_distractor_diamondtriangles.svg	stimuli_target_circletriangles.svg	7	yes	44	1	346
6.6.1	win	2022-12-19	18:03:11	18:14:38	686015	60175a2c2d7cc99cb9f4049c	749638386	1	practice_z	5	advance_on_keypress_ZEE	18	stimuli_distractor_diamondtriangles.svg	stimuli_target_circletriangles.svg	7	yes	57	0	515
6.6.1	win	2022-12-19	18:03:11	18:14:40	688463	60175a2c2d7cc99cb9f4049c	749638386	1	practice_z	5	practice_z	19	stimuli_distractor_diamondtriangles.svg	stimuli_target_diamondcircles.svg	8	yes	44	1	278
6.6.1	win	2022-12-19	18:03:11	18:14:40	688463	60175a2c2d7cc99cb9f4049c	749638386	1	practice_z	5	advance_on_keypress_ZEE	20	stimuli_distractor_diamondtriangles.svg	stimuli_target_diamondcircles.svg	8	yes	57	0	27
6.6.1	win	2022-12-19	18:03:11	18:14:42	690481	60175a2c2d7cc99cb9f4049c	749638386	1	practice_z	5	practice_z	21	stimuli_target_squarediamonds.svg	stimuli_distractor_diamondtriangles.svg	2	yes	44	1	361
6.6.1	win	2022-12-19	18:03:11	18:14:42	690481	60175a2c2d7cc99cb9f4049c	749638386	1	practice_z	5	advance_on_keypress_ZEE	22	stimuli_target_squarediamonds.svg	stimuli_distractor_diamondtriangles.svg	2	yes	57	0	345
6.6.1	win	2022-12-19	18:03:11	18:14:45	692703	60175a2c2d7cc99cb9f4049c	749638386	1	practice_z	5	practice_z	23	stimuli_target_diamondsquares.svg	stimuli_distractor_diamondtriangles.svg	3	yes	44	1	234
6.6.1	win	2022-12-19	18:03:11	18:14:45	692703	60175a2c2d7cc99cb9f4049c	749638386	1	practice_z	5	advance_on_keypress_ZEE	24	stimuli_target_diamondsquares.svg	stimuli_distractor_diamondtriangles.svg	3	yes	57	0	57
6.6.1	win	2022-12-19	18:03:11	18:14:47	694687	60175a2c2d7cc99cb9f4049c	749638386	1	practice_z	5	practice_z	25	stimuli_distractor_trianglediamonds.svg	stimuli_target_squarediamonds.svg	11	yes	44	1	285
6.6.1	win	2022-12-19	18:03:11	18:14:47	694687	60175a2c2d7cc99cb9f4049c	749638386	1	practice_z	5	advance_on_keypress_ZEE	26	stimuli_distractor_trianglediamonds.svg	stimuli_target_squarediamonds.svg	11	yes	57	0	25
6.6.1	win	2022-12-19	18:03:11	18:14:49	696622	60175a2c2d7cc99cb9f4049c	749638386	1	practice_z	5	practice_z	27	stimuli_distractor_diamondtriangles.svg	stimuli_distractor_trianglediamonds.svg	14	no	44	0	270
6.6.1	win	2022-12-19	18:03:11	18:14:49	696622	60175a2c2d7cc99cb9f4049c	749638386	1	practice_z	5	advance_on_keypress_ZEE	28	stimuli_distractor_diamondtriangles.svg	stimuli_distractor_trianglediamonds.svg	14	no	57	0	467
6.6.1	win	2022-12-19	18:03:11	18:14:51	699310	60175a2c2d7cc99cb9f4049c	749638386	1	practice_z	5	practice_z	29	stimuli_target_circlediamonds.svg	stimuli_distractor_trianglediamonds.svg	4	yes	44	1	575
6.6.1	win	2022-12-19	18:03:11	18:14:51	699310	60175a2c2d7cc99cb9f4049c	749638386	1	practice_z	5	advance_on_keypress_ZEE	30	stimuli_target_circlediamonds.svg	stimuli_distractor_trianglediamonds.svg	4	yes	57	0	633
6.6.1	win	2022-12-19	18:03:11	18:14:54	701847	60175a2c2d7cc99cb9f4049c	749638386	1	practice_z	5	practice_z	31	stimuli_target_circlediamonds.svg	stimuli_distractor_diamondtriangles.svg	1	yes	44	1	263
6.6.1	win	2022-12-19	18:03:11	18:14:54	701847	60175a2c2d7cc99cb9f4049c	749638386	1	practice_z	5	advance_on_keypress_ZEE	32	stimuli_target_circlediamonds.svg	stimuli_distractor_diamondtriangles.svg	1	yes	57	0	420
6.6.1	win	2022-12-19	18:03:11	18:15:06	713870	60175a2c2d7cc99cb9f4049c	749638386	1	main_z	7	main_z	1	stimuli_distractor_diamondtriangles.svg	stimuli_target_trianglecircles.svg	29	yes	44	1	870
6.6.1	win	2022-12-19	18:03:11	18:15:06	713870	60175a2c2d7cc99cb9f4049c	749638386	1	main_z	7	advance_on_keypress_ZEE	2	stimuli_distractor_diamondtriangles.svg	stimuli_target_trianglecircles.svg	29	yes	57	0	314
6.6.1	win	2022-12-19	18:03:11	18:15:08	716382	60175a2c2d7cc99cb9f4049c	749638386	1	main_z	7	main_z	3	stimuli_target_trianglesquares.svg	stimuli_distractor_diamondtriangles.svg	22	yes	44	1	1549
6.6.1	win	2022-12-19	18:03:11	18:15:08	716382	60175a2c2d7cc99cb9f4049c	749638386	1	main_z	7	advance_on_keypress_ZEE	4	stimuli_target_trianglesquares.svg	stimuli_distractor_diamondtriangles.svg	22	yes	57	0	191
6.6.1	win	2022-12-19	18:03:11	18:15:10	717614	60175a2c2d7cc99cb9f4049c	749638386	1	main_z	7	main_z	5	stimuli_distractor_trianglediamonds.svg	stimuli_distractor_diamondtriangles.svg	35	no	44	0	398
6.6.1	win	2022-12-19	18:03:11	18:15:10	717614	60175a2c2d7cc99cb9f4049c	749638386	1	main_z	7	advance_on_keypress_ZEE	6	stimuli_distractor_trianglediamonds.svg	stimuli_distractor_diamondtriangles.svg	35	no	57	0	572
6.6.1	win	2022-12-19	18:03:11	18:15:11	719366	60175a2c2d7cc99cb9f4049c	749638386	1	main_z	7	main_z	7	stimuli_target_circlediamonds.svg	stimuli_distractor_trianglediamonds.svg	2	yes	44	1	533
6.6.1	win	2022-12-19	18:03:11	18:15:11	719366	60175a2c2d7cc99cb9f4049c	749638386	1	main_z	7	advance_on_keypress_ZEE	8	stimuli_target_circlediamonds.svg	stimuli_distractor_trianglediamonds.svg	2	yes	57	0	239
6.6.1	win	2022-12-19	18:03:11	18:15:13	720846	60175a2c2d7cc99cb9f4049c	749638386	1	main_z	7	main_z	9	stimuli_target_diamondcircles.svg	stimuli_distractor_diamondtriangles.svg	23	yes	44	1	597
6.6.1	win	2022-12-19	18:03:11	18:15:13	720846	60175a2c2d7cc99cb9f4049c	749638386	1	main_z	7	advance_on_keypress_ZEE	10	stimuli_target_diamondcircles.svg	stimuli_distractor_diamondtriangles.svg	23	yes	57	0	221
6.6.1	win	2022-12-19	18:03:11	18:15:14	722142	60175a2c2d7cc99cb9f4049c	749638386	1	main_z	7	main_z	11	stimuli_target_circlediamonds.svg	stimuli_distractor_diamondtriangles.svg	6	yes	44	1	443
6.6.1	win	2022-12-19	18:03:11	18:15:14	722142	60175a2c2d7cc99cb9f4049c	749638386	1	main_z	7	advance_on_keypress_ZEE	12	stimuli_target_circlediamonds.svg	stimuli_distractor_diamondtriangles.svg	6	yes	57	0	313
6.6.1	win	2022-12-19	18:03:11	18:15:15	723566	60175a2c2d7cc99cb9f4049c	749638386	1	main_z	7	main_z	13	stimuli_target_squarediamonds.svg	stimuli_distractor_diamondtriangles.svg	8	yes	44	1	482
6.6.1	win	2022-12-19	18:03:11	18:15:15	723566	60175a2c2d7cc99cb9f4049c	749638386	1	main_z	7	advance_on_keypress_ZEE	14	stimuli_target_squarediamonds.svg	stimuli_distractor_diamondtriangles.svg	8	yes	57	0	177
6.6.1	win	2022-12-19	18:03:11	18:15:17	724766	60175a2c2d7cc99cb9f4049c	749638386	1	main_z	7	main_z	15	stimuli_target_squarediamonds.svg	stimuli_distractor_trianglediamonds.svg	4	yes	44	1	383
6.6.1	win	2022-12-19	18:03:11	18:15:17	724766	60175a2c2d7cc99cb9f4049c	749638386	1	main_z	7	advance_on_keypress_ZEE	16	stimuli_target_squarediamonds.svg	stimuli_distractor_trianglediamonds.svg	4	yes	57	0	184
6.6.1	win	2022-12-19	18:03:11	18:15:18	726126	60175a2c2d7cc99cb9f4049c	749638386	1	main_z	7	main_z	17	stimuli_distractor_diamondtriangles.svg	stimuli_target_circletriangles.svg	13	yes	44	1	527
6.6.1	win	2022-12-19	18:03:11	18:15:18	726126	60175a2c2d7cc99cb9f4049c	749638386	1	main_z	7	advance_on_keypress_ZEE	18	stimuli_distractor_diamondtriangles.svg	stimuli_target_circletriangles.svg	13	yes	57	0	202
6.6.1	win	2022-12-19	18:03:11	18:15:21	728966	60175a2c2d7cc99cb9f4049c	749638386	1	main_z	7	main_z	19	stimuli_distractor_diamondtriangles.svg	stimuli_distractor_diamondtriangles.svg	39	no	0	1	2000
6.6.1	win	2022-12-19	18:03:11	18:15:21	728966	60175a2c2d7cc99cb9f4049c	749638386	1	main_z	7	advance_on_keypress_ZEE	20	stimuli_distractor_diamondtriangles.svg	stimuli_distractor_diamondtriangles.svg	39	no	57	0	543
6.6.1	win	2022-12-19	18:03:11	18:15:23	731230	60175a2c2d7cc99cb9f4049c	749638386	1	main_z	7	main_z	21	stimuli_target_diamondsquares.svg	stimuli_distractor_diamondtriangles.svg	24	yes	44	1	1081
6.6.1	win	2022-12-19	18:03:11	18:15:23	731230	60175a2c2d7cc99cb9f4049c	749638386	1	main_z	7	advance_on_keypress_ZEE	22	stimuli_target_diamondsquares.svg	stimuli_distractor_diamondtriangles.svg	24	yes	57	0	117
6.6.1	win	2022-12-19	18:03:11	18:15:26	733999	60175a2c2d7cc99cb9f4049c	749638386	1	main_z	7	main_z	23	stimuli_distractor_trianglediamonds.svg	stimuli_distractor_trianglediamonds.svg	33	no	0	1	2000
6.6.1	win	2022-12-19	18:03:11	18:15:26	733999	60175a2c2d7cc99cb9f4049c	749638386	1	main_z	7	advance_on_keypress_ZEE	24	stimuli_distractor_trianglediamonds.svg	stimuli_distractor_trianglediamonds.svg	33	no	57	0	319
6.6.1	win	2022-12-19	18:03:11	18:15:28	736054	60175a2c2d7cc99cb9f4049c	749638386	1	main_z	7	main_z	25	stimuli_distractor_trianglediamonds.svg	stimuli_target_trianglesquares.svg	26	yes	44	1	1089
6.6.1	win	2022-12-19	18:03:11	18:15:28	736054	60175a2c2d7cc99cb9f4049c	749638386	1	main_z	7	advance_on_keypress_ZEE	26	stimuli_distractor_trianglediamonds.svg	stimuli_target_trianglesquares.svg	26	yes	57	0	117
6.6.1	win	2022-12-19	18:03:11	18:15:30	737894	60175a2c2d7cc99cb9f4049c	749638386	1	main_z	7	main_z	27	stimuli_target_diamondcircles.svg	stimuli_distractor_trianglediamonds.svg	19	yes	44	1	1079
6.6.1	win	2022-12-19	18:03:11	18:15:30	737894	60175a2c2d7cc99cb9f4049c	749638386	1	main_z	7	advance_on_keypress_ZEE	28	stimuli_target_diamondcircles.svg	stimuli_distractor_trianglediamonds.svg	19	yes	57	0	204
6.6.1	win	2022-12-19	18:03:11	18:15:32	739902	60175a2c2d7cc99cb9f4049c	749638386	1	main_z	7	main_z	29	stimuli_target_squaretriangles.svg	stimuli_distractor_diamondtriangles.svg	7	yes	44	1	1170
6.6.1	win	2022-12-19	18:03:11	18:15:32	739902	60175a2c2d7cc99cb9f4049c	749638386	1	main_z	7	advance_on_keypress_ZEE	30	stimuli_target_squaretriangles.svg	stimuli_distractor_diamondtriangles.svg	7	yes	57	0	131
6.6.1	win	2022-12-19	18:03:11	18:15:34	742357	60175a2c2d7cc99cb9f4049c	749638386	1	main_z	7	main_z	31	stimuli_target_trianglecircles.svg	stimuli_distractor_trianglediamonds.svg	17	yes	44	1	1675
6.6.1	win	2022-12-19	18:03:11	18:15:34	742357	60175a2c2d7cc99cb9f4049c	749638386	1	main_z	7	advance_on_keypress_ZEE	32	stimuli_target_trianglecircles.svg	stimuli_distractor_trianglediamonds.svg	17	yes	57	0	281
6.6.1	win	2022-12-19	18:03:11	18:15:36	744374	60175a2c2d7cc99cb9f4049c	749638386	1	main_z	7	main_z	33	stimuli_distractor_diamondtriangles.svg	stimuli_target_diamondcircles.svg	31	yes	44	1	1092
6.6.1	win	2022-12-19	18:03:11	18:15:36	744374	60175a2c2d7cc99cb9f4049c	749638386	1	main_z	7	advance_on_keypress_ZEE	34	stimuli_distractor_diamondtriangles.svg	stimuli_target_diamondcircles.svg	31	yes	57	0	112
6.6.1	win	2022-12-19	18:03:11	18:15:38	746190	60175a2c2d7cc99cb9f4049c	749638386	1	main_z	7	main_z	35	stimuli_distractor_trianglediamonds.svg	stimuli_target_squaretriangles.svg	11	yes	44	1	1075
6.6.1	win	2022-12-19	18:03:11	18:15:38	746190	60175a2c2d7cc99cb9f4049c	749638386	1	main_z	7	advance_on_keypress_ZEE	36	stimuli_distractor_trianglediamonds.svg	stimuli_target_squaretriangles.svg	11	yes	57	0	80
6.6.1	win	2022-12-19	18:03:11	18:15:40	748126	60175a2c2d7cc99cb9f4049c	749638386	1	main_z	7	main_z	37	stimuli_distractor_trianglediamonds.svg	stimuli_target_circletriangles.svg	9	yes	44	1	1228
6.6.1	win	2022-12-19	18:03:11	18:15:40	748126	60175a2c2d7cc99cb9f4049c	749638386	1	main_z	7	advance_on_keypress_ZEE	38	stimuli_distractor_trianglediamonds.svg	stimuli_target_circletriangles.svg	9	yes	57	0	163
6.6.1	win	2022-12-19	18:03:11	18:15:42	749710	60175a2c2d7cc99cb9f4049c	749638386	1	main_z	7	main_z	39	stimuli_distractor_diamondtriangles.svg	stimuli_target_squarediamonds.svg	16	yes	44	1	795
6.6.1	win	2022-12-19	18:03:11	18:15:42	749710	60175a2c2d7cc99cb9f4049c	749638386	1	main_z	7	advance_on_keypress_ZEE	40	stimuli_distractor_diamondtriangles.svg	stimuli_target_squarediamonds.svg	16	yes	57	0	179
6.6.1	win	2022-12-19	18:03:11	18:15:44	751686	60175a2c2d7cc99cb9f4049c	749638386	1	main_z	7	main_z	41	stimuli_target_circletriangles.svg	stimuli_distractor_diamondtriangles.svg	5	yes	44	1	1171
6.6.1	win	2022-12-19	18:03:11	18:15:44	751686	60175a2c2d7cc99cb9f4049c	749638386	1	main_z	7	advance_on_keypress_ZEE	42	stimuli_target_circletriangles.svg	stimuli_distractor_diamondtriangles.svg	5	yes	57	0	163
6.6.1	win	2022-12-19	18:03:11	18:15:45	753326	60175a2c2d7cc99cb9f4049c	749638386	1	main_z	7	main_z	43	stimuli_target_trianglecircles.svg	stimuli_distractor_diamondtriangles.svg	21	yes	44	1	845
6.6.1	win	2022-12-19	18:03:11	18:15:45	753326	60175a2c2d7cc99cb9f4049c	749638386	1	main_z	7	advance_on_keypress_ZEE	44	stimuli_target_trianglecircles.svg	stimuli_distractor_diamondtriangles.svg	21	yes	57	0	211
6.6.1	win	2022-12-19	18:03:11	18:15:48	755791	60175a2c2d7cc99cb9f4049c	749638386	1	main_z	7	main_z	45	stimuli_distractor_trianglediamonds.svg	stimuli_target_squarediamonds.svg	12	yes	44	1	1626
6.6.1	win	2022-12-19	18:03:11	18:15:48	755791	60175a2c2d7cc99cb9f4049c	749638386	1	main_z	7	advance_on_keypress_ZEE	46	stimuli_distractor_trianglediamonds.svg	stimuli_target_squarediamonds.svg	12	yes	57	0	159
6.6.1	win	2022-12-19	18:03:11	18:15:50	758094	60175a2c2d7cc99cb9f4049c	749638386	1	main_z	7	main_z	47	stimuli_distractor_trianglediamonds.svg	stimuli_target_diamondcircles.svg	27	yes	44	1	1513
6.6.1	win	2022-12-19	18:03:11	18:15:50	758094	60175a2c2d7cc99cb9f4049c	749638386	1	main_z	7	advance_on_keypress_ZEE	48	stimuli_distractor_trianglediamonds.svg	stimuli_target_diamondcircles.svg	27	yes	57	0	131
6.6.1	win	2022-12-19	18:03:11	18:15:52	759894	60175a2c2d7cc99cb9f4049c	749638386	1	main_z	7	main_z	49	stimuli_distractor_diamondtriangles.svg	stimuli_target_diamondsquares.svg	32	yes	44	1	1030
6.6.1	win	2022-12-19	18:03:11	18:15:52	759894	60175a2c2d7cc99cb9f4049c	749638386	1	main_z	7	advance_on_keypress_ZEE	50	stimuli_distractor_diamondtriangles.svg	stimuli_target_diamondsquares.svg	32	yes	57	0	181
6.6.1	win	2022-12-19	18:03:11	18:15:54	761734	60175a2c2d7cc99cb9f4049c	749638386	1	main_z	7	main_z	51	stimuli_target_circletriangles.svg	stimuli_distractor_trianglediamonds.svg	1	yes	44	1	1020
6.6.1	win	2022-12-19	18:03:11	18:15:54	761734	60175a2c2d7cc99cb9f4049c	749638386	1	main_z	7	advance_on_keypress_ZEE	52	stimuli_target_circletriangles.svg	stimuli_distractor_trianglediamonds.svg	1	yes	57	0	100
6.6.1	win	2022-12-19	18:03:11	18:15:56	764481	60175a2c2d7cc99cb9f4049c	749638386	1	main_z	7	main_z	53	stimuli_distractor_trianglediamonds.svg	stimuli_distractor_trianglediamonds.svg	34	no	0	1	2000
6.6.1	win	2022-12-19	18:03:11	18:15:56	764481	60175a2c2d7cc99cb9f4049c	749638386	1	main_z	7	advance_on_keypress_ZEE	54	stimuli_distractor_trianglediamonds.svg	stimuli_distractor_trianglediamonds.svg	34	no	57	0	589
6.6.1	win	2022-12-19	18:03:11	18:15:59	766710	60175a2c2d7cc99cb9f4049c	749638386	1	main_z	7	main_z	55	stimuli_target_diamondsquares.svg	stimuli_distractor_trianglediamonds.svg	20	yes	44	1	996
6.6.1	win	2022-12-19	18:03:11	18:15:59	766710	60175a2c2d7cc99cb9f4049c	749638386	1	main_z	7	advance_on_keypress_ZEE	56	stimuli_target_diamondsquares.svg	stimuli_distractor_trianglediamonds.svg	20	yes	57	0	125
6.6.1	win	2022-12-19	18:03:11	18:16:00	768238	60175a2c2d7cc99cb9f4049c	749638386	1	main_z	7	main_z	57	stimuli_distractor_trianglediamonds.svg	stimuli_target_trianglecircles.svg	25	yes	44	1	774
6.6.1	win	2022-12-19	18:03:11	18:16:00	768238	60175a2c2d7cc99cb9f4049c	749638386	1	main_z	7	advance_on_keypress_ZEE	58	stimuli_distractor_trianglediamonds.svg	stimuli_target_trianglecircles.svg	25	yes	57	0	159
6.6.1	win	2022-12-19	18:03:11	18:16:03	771031	60175a2c2d7cc99cb9f4049c	749638386	1	main_z	7	main_z	59	stimuli_distractor_diamondtriangles.svg	stimuli_distractor_trianglediamonds.svg	37	no	0	1	2000
6.6.1	win	2022-12-19	18:03:11	18:16:03	771031	60175a2c2d7cc99cb9f4049c	749638386	1	main_z	7	advance_on_keypress_ZEE	60	stimuli_distractor_diamondtriangles.svg	stimuli_distractor_trianglediamonds.svg	37	no	57	0	559
6.6.1	win	2022-12-19	18:03:11	18:16:05	772862	60175a2c2d7cc99cb9f4049c	749638386	1	main_z	7	main_z	61	stimuli_distractor_trianglediamonds.svg	stimuli_target_circlediamonds.svg	10	yes	44	1	632
6.6.1	win	2022-12-19	18:03:11	18:16:05	772862	60175a2c2d7cc99cb9f4049c	749638386	1	main_z	7	advance_on_keypress_ZEE	62	stimuli_distractor_trianglediamonds.svg	stimuli_target_circlediamonds.svg	10	yes	57	0	126
6.6.1	win	2022-12-19	18:03:11	18:16:07	774782	60175a2c2d7cc99cb9f4049c	749638386	1	main_z	7	main_z	63	stimuli_distractor_trianglediamonds.svg	stimuli_target_diamondsquares.svg	28	yes	44	1	1152
6.6.1	win	2022-12-19	18:03:11	18:16:07	774782	60175a2c2d7cc99cb9f4049c	749638386	1	main_z	7	advance_on_keypress_ZEE	64	stimuli_distractor_trianglediamonds.svg	stimuli_target_diamondsquares.svg	28	yes	57	0	105
6.6.1	win	2022-12-19	18:03:11	18:16:08	776390	60175a2c2d7cc99cb9f4049c	749638386	1	main_z	7	main_z	65	stimuli_target_trianglesquares.svg	stimuli_distractor_trianglediamonds.svg	18	yes	44	1	860
6.6.1	win	2022-12-19	18:03:11	18:16:08	776390	60175a2c2d7cc99cb9f4049c	749638386	1	main_z	7	advance_on_keypress_ZEE	66	stimuli_target_trianglesquares.svg	stimuli_distractor_trianglediamonds.svg	18	yes	57	0	168
6.6.1	win	2022-12-19	18:03:11	18:16:10	777966	60175a2c2d7cc99cb9f4049c	749638386	1	main_z	7	main_z	67	stimuli_distractor_diamondtriangles.svg	stimuli_target_circlediamonds.svg	14	yes	44	1	769
6.6.1	win	2022-12-19	18:03:11	18:16:10	777966	60175a2c2d7cc99cb9f4049c	749638386	1	main_z	7	advance_on_keypress_ZEE	68	stimuli_distractor_diamondtriangles.svg	stimuli_target_circlediamonds.svg	14	yes	57	0	162
6.6.1	win	2022-12-19	18:03:11	18:16:13	780764	60175a2c2d7cc99cb9f4049c	749638386	1	main_z	7	main_z	69	stimuli_distractor_diamondtriangles.svg	stimuli_distractor_trianglediamonds.svg	38	no	0	1	2000
6.6.1	win	2022-12-19	18:03:11	18:16:13	780764	60175a2c2d7cc99cb9f4049c	749638386	1	main_z	7	advance_on_keypress_ZEE	70	stimuli_distractor_diamondtriangles.svg	stimuli_distractor_trianglediamonds.svg	38	no	57	0	570
6.6.1	win	2022-12-19	18:03:11	18:16:15	782998	60175a2c2d7cc99cb9f4049c	749638386	1	main_z	7	main_z	71	stimuli_target_squaretriangles.svg	stimuli_distractor_trianglediamonds.svg	3	yes	44	1	1018
6.6.1	win	2022-12-19	18:03:11	18:16:15	782998	60175a2c2d7cc99cb9f4049c	749638386	1	main_z	7	advance_on_keypress_ZEE	72	stimuli_target_squaretriangles.svg	stimuli_distractor_trianglediamonds.svg	3	yes	57	0	105
6.6.1	win	2022-12-19	18:03:11	18:16:16	784510	60175a2c2d7cc99cb9f4049c	749638386	1	main_z	7	main_z	73	stimuli_distractor_diamondtriangles.svg	stimuli_target_trianglesquares.svg	30	yes	44	1	764
6.6.1	win	2022-12-19	18:03:11	18:16:16	784510	60175a2c2d7cc99cb9f4049c	749638386	1	main_z	7	advance_on_keypress_ZEE	74	stimuli_distractor_diamondtriangles.svg	stimuli_target_trianglesquares.svg	30	yes	57	0	134
6.6.1	win	2022-12-19	18:03:11	18:16:19	787280	60175a2c2d7cc99cb9f4049c	749638386	1	main_z	7	main_z	75	stimuli_distractor_diamondtriangles.svg	stimuli_distractor_diamondtriangles.svg	40	no	0	1	2000
6.6.1	win	2022-12-19	18:03:11	18:16:19	787280	60175a2c2d7cc99cb9f4049c	749638386	1	main_z	7	advance_on_keypress_ZEE	76	stimuli_distractor_diamondtriangles.svg	stimuli_distractor_diamondtriangles.svg	40	no	57	0	590
6.6.1	win	2022-12-19	18:03:11	18:16:21	789310	60175a2c2d7cc99cb9f4049c	749638386	1	main_z	7	main_z	77	stimuli_distractor_diamondtriangles.svg	stimuli_target_squaretriangles.svg	15	yes	44	1	797
6.6.1	win	2022-12-19	18:03:11	18:16:21	789310	60175a2c2d7cc99cb9f4049c	749638386	1	main_z	7	advance_on_keypress_ZEE	78	stimuli_distractor_diamondtriangles.svg	stimuli_target_squaretriangles.svg	15	yes	57	0	141
6.6.1	win	2022-12-19	18:03:11	18:16:23	791470	60175a2c2d7cc99cb9f4049c	749638386	1	main_z	7	main_z	79	stimuli_distractor_trianglediamonds.svg	stimuli_distractor_diamondtriangles.svg	36	no	44	0	1374
6.6.1	win	2022-12-19	18:03:11	18:16:23	791470	60175a2c2d7cc99cb9f4049c	749638386	1	main_z	7	advance_on_keypress_ZEE	80	stimuli_distractor_trianglediamonds.svg	stimuli_distractor_diamondtriangles.svg	36	no	57	0	126
6.6.1	win	2022-12-19	18:03:11	18:16:25	793206	60175a2c2d7cc99cb9f4049c	749638386	1	main_z	7	main_z	81	stimuli_distractor_trianglediamonds.svg	stimuli_target_trianglesquares.svg	26	yes	44	1	977
6.6.1	win	2022-12-19	18:03:11	18:16:25	793206	60175a2c2d7cc99cb9f4049c	749638386	1	main_z	7	advance_on_keypress_ZEE	82	stimuli_distractor_trianglediamonds.svg	stimuli_target_trianglesquares.svg	26	yes	57	0	169
6.6.1	win	2022-12-19	18:03:11	18:16:27	795342	60175a2c2d7cc99cb9f4049c	749638386	1	main_z	7	main_z	83	stimuli_distractor_trianglediamonds.svg	stimuli_target_diamondsquares.svg	28	yes	44	1	1329
6.6.1	win	2022-12-19	18:03:11	18:16:27	795342	60175a2c2d7cc99cb9f4049c	749638386	1	main_z	7	advance_on_keypress_ZEE	84	stimuli_distractor_trianglediamonds.svg	stimuli_target_diamondsquares.svg	28	yes	57	0	116
6.6.1	win	2022-12-19	18:03:11	18:16:29	797166	60175a2c2d7cc99cb9f4049c	749638386	1	main_z	7	main_z	85	stimuli_target_diamondcircles.svg	stimuli_distractor_diamondtriangles.svg	23	yes	44	1	1070
6.6.1	win	2022-12-19	18:03:11	18:16:29	797166	60175a2c2d7cc99cb9f4049c	749638386	1	main_z	7	advance_on_keypress_ZEE	86	stimuli_target_diamondcircles.svg	stimuli_distractor_diamondtriangles.svg	23	yes	57	0	99
6.6.1	win	2022-12-19	18:03:11	18:16:31	798815	60175a2c2d7cc99cb9f4049c	749638386	1	main_z	7	main_z	87	stimuli_target_circletriangles.svg	stimuli_distractor_diamondtriangles.svg	5	yes	44	1	901
6.6.1	win	2022-12-19	18:03:11	18:16:31	798815	60175a2c2d7cc99cb9f4049c	749638386	1	main_z	7	advance_on_keypress_ZEE	88	stimuli_target_circletriangles.svg	stimuli_distractor_diamondtriangles.svg	5	yes	57	0	129
6.6.1	win	2022-12-19	18:03:11	18:16:32	800446	60175a2c2d7cc99cb9f4049c	749638386	1	main_z	7	main_z	89	stimuli_distractor_diamondtriangles.svg	stimuli_target_trianglesquares.svg	30	yes	44	1	867
6.6.1	win	2022-12-19	18:03:11	18:16:32	800446	60175a2c2d7cc99cb9f4049c	749638386	1	main_z	7	advance_on_keypress_ZEE	90	stimuli_distractor_diamondtriangles.svg	stimuli_target_trianglesquares.svg	30	yes	57	0	112
6.6.1	win	2022-12-19	18:03:11	18:16:34	802238	60175a2c2d7cc99cb9f4049c	749638386	1	main_z	7	main_z	91	stimuli_target_trianglecircles.svg	stimuli_distractor_diamondtriangles.svg	21	yes	44	1	1042
6.6.1	win	2022-12-19	18:03:11	18:16:34	802238	60175a2c2d7cc99cb9f4049c	749638386	1	main_z	7	advance_on_keypress_ZEE	92	stimuli_target_trianglecircles.svg	stimuli_distractor_diamondtriangles.svg	21	yes	57	0	104
6.6.1	win	2022-12-19	18:03:11	18:16:37	804630	60175a2c2d7cc99cb9f4049c	749638386	1	main_z	7	main_z	93	stimuli_distractor_trianglediamonds.svg	stimuli_target_squaretriangles.svg	11	yes	44	1	1651
6.6.1	win	2022-12-19	18:03:11	18:16:37	804630	60175a2c2d7cc99cb9f4049c	749638386	1	main_z	7	advance_on_keypress_ZEE	94	stimuli_distractor_trianglediamonds.svg	stimuli_target_squaretriangles.svg	11	yes	57	0	121
6.6.1	win	2022-12-19	18:03:11	18:16:38	806414	60175a2c2d7cc99cb9f4049c	749638386	1	main_z	7	main_z	95	stimuli_distractor_diamondtriangles.svg	stimuli_target_diamondcircles.svg	31	yes	44	1	1018
6.6.1	win	2022-12-19	18:03:11	18:16:38	806414	60175a2c2d7cc99cb9f4049c	749638386	1	main_z	7	advance_on_keypress_ZEE	96	stimuli_distractor_diamondtriangles.svg	stimuli_target_diamondcircles.svg	31	yes	57	0	113
6.6.1	win	2022-12-19	18:03:11	18:16:40	807942	60175a2c2d7cc99cb9f4049c	749638386	1	main_z	7	main_z	97	stimuli_distractor_diamondtriangles.svg	stimuli_target_circletriangles.svg	13	yes	44	1	763
6.6.1	win	2022-12-19	18:03:11	18:16:40	807942	60175a2c2d7cc99cb9f4049c	749638386	1	main_z	7	advance_on_keypress_ZEE	98	stimuli_distractor_diamondtriangles.svg	stimuli_target_circletriangles.svg	13	yes	57	0	100
6.6.1	win	2022-12-19	18:03:11	18:16:43	810696	60175a2c2d7cc99cb9f4049c	749638386	1	main_z	7	main_z	99	stimuli_distractor_trianglediamonds.svg	stimuli_target_diamondcircles.svg	27	yes	0	0	2000
6.6.1	win	2022-12-19	18:03:11	18:16:43	810696	60175a2c2d7cc99cb9f4049c	749638386	1	main_z	7	advance_on_keypress_ZEE	100	stimuli_distractor_trianglediamonds.svg	stimuli_target_diamondcircles.svg	27	yes	57	0	662
6.6.1	win	2022-12-19	18:03:11	18:16:44	812567	60175a2c2d7cc99cb9f4049c	749638386	1	main_z	7	main_z	101	stimuli_target_squaretriangles.svg	stimuli_distractor_trianglediamonds.svg	3	yes	44	1	571
6.6.1	win	2022-12-19	18:03:11	18:16:44	812567	60175a2c2d7cc99cb9f4049c	749638386	1	main_z	7	advance_on_keypress_ZEE	102	stimuli_target_squaretriangles.svg	stimuli_distractor_trianglediamonds.svg	3	yes	57	0	102
6.6.1	win	2022-12-19	18:03:11	18:16:46	813886	60175a2c2d7cc99cb9f4049c	749638386	1	main_z	7	main_z	103	stimuli_distractor_trianglediamonds.svg	stimuli_target_circletriangles.svg	9	yes	44	1	574
6.6.1	win	2022-12-19	18:03:11	18:16:46	813886	60175a2c2d7cc99cb9f4049c	749638386	1	main_z	7	advance_on_keypress_ZEE	104	stimuli_distractor_trianglediamonds.svg	stimuli_target_circletriangles.svg	9	yes	57	0	87
6.6.1	win	2022-12-19	18:03:11	18:16:47	815526	60175a2c2d7cc99cb9f4049c	749638386	1	main_z	7	main_z	105	stimuli_distractor_diamondtriangles.svg	stimuli_target_diamondsquares.svg	32	yes	44	1	914
6.6.1	win	2022-12-19	18:03:11	18:16:47	815526	60175a2c2d7cc99cb9f4049c	749638386	1	main_z	7	advance_on_keypress_ZEE	106	stimuli_distractor_diamondtriangles.svg	stimuli_target_diamondsquares.svg	32	yes	57	0	61
6.6.1	win	2022-12-19	18:03:11	18:16:50	817630	60175a2c2d7cc99cb9f4049c	749638386	1	main_z	7	main_z	107	stimuli_distractor_diamondtriangles.svg	stimuli_distractor_diamondtriangles.svg	39	no	44	0	1402
6.6.1	win	2022-12-19	18:03:11	18:16:50	817630	60175a2c2d7cc99cb9f4049c	749638386	1	main_z	7	advance_on_keypress_ZEE	108	stimuli_distractor_diamondtriangles.svg	stimuli_distractor_diamondtriangles.svg	39	no	57	0	129
6.6.1	win	2022-12-19	18:03:11	18:16:51	819182	60175a2c2d7cc99cb9f4049c	749638386	1	main_z	7	main_z	109	stimuli_target_diamondcircles.svg	stimuli_distractor_trianglediamonds.svg	19	yes	44	1	787
6.6.1	win	2022-12-19	18:03:11	18:16:51	819182	60175a2c2d7cc99cb9f4049c	749638386	1	main_z	7	advance_on_keypress_ZEE	110	stimuli_target_diamondcircles.svg	stimuli_distractor_trianglediamonds.svg	19	yes	57	0	115
6.6.1	win	2022-12-19	18:03:11	18:16:53	820767	60175a2c2d7cc99cb9f4049c	749638386	1	main_z	7	main_z	111	stimuli_target_trianglesquares.svg	stimuli_distractor_diamondtriangles.svg	22	yes	44	1	821
6.6.1	win	2022-12-19	18:03:11	18:16:53	820767	60175a2c2d7cc99cb9f4049c	749638386	1	main_z	7	advance_on_keypress_ZEE	112	stimuli_target_trianglesquares.svg	stimuli_distractor_diamondtriangles.svg	22	yes	57	0	124
6.6.1	win	2022-12-19	18:03:11	18:16:54	822430	60175a2c2d7cc99cb9f4049c	749638386	1	main_z	7	main_z	113	stimuli_distractor_diamondtriangles.svg	stimuli_target_circlediamonds.svg	14	yes	44	1	902
6.6.1	win	2022-12-19	18:03:11	18:16:54	822430	60175a2c2d7cc99cb9f4049c	749638386	1	main_z	7	advance_on_keypress_ZEE	114	stimuli_distractor_diamondtriangles.svg	stimuli_target_circlediamonds.svg	14	yes	57	0	105
6.6.1	win	2022-12-19	18:03:11	18:16:57	825178	60175a2c2d7cc99cb9f4049c	749638386	1	main_z	7	main_z	115	stimuli_distractor_trianglediamonds.svg	stimuli_distractor_diamondtriangles.svg	35	no	0	1	2000
6.6.1	win	2022-12-19	18:03:11	18:16:57	825178	60175a2c2d7cc99cb9f4049c	749638386	1	main_z	7	advance_on_keypress_ZEE	116	stimuli_distractor_trianglediamonds.svg	stimuli_distractor_diamondtriangles.svg	35	no	57	0	356
6.6.1	win	2022-12-19	18:03:11	18:16:59	827046	60175a2c2d7cc99cb9f4049c	749638386	1	main_z	7	main_z	117	stimuli_distractor_trianglediamonds.svg	stimuli_target_circlediamonds.svg	10	yes	44	1	868
6.6.1	win	2022-12-19	18:03:11	18:16:59	827046	60175a2c2d7cc99cb9f4049c	749638386	1	main_z	7	advance_on_keypress_ZEE	118	stimuli_distractor_trianglediamonds.svg	stimuli_target_circlediamonds.svg	10	yes	57	0	81
6.6.1	win	2022-12-19	18:03:11	18:17:02	829761	60175a2c2d7cc99cb9f4049c	749638386	1	main_z	7	main_z	119	stimuli_distractor_trianglediamonds.svg	stimuli_distractor_trianglediamonds.svg	33	no	0	1	2000
6.6.1	win	2022-12-19	18:03:11	18:17:02	829761	60175a2c2d7cc99cb9f4049c	749638386	1	main_z	7	advance_on_keypress_ZEE	120	stimuli_distractor_trianglediamonds.svg	stimuli_distractor_trianglediamonds.svg	33	no	57	0	556
6.6.1	win	2022-12-19	18:03:11	18:17:04	831920	60175a2c2d7cc99cb9f4049c	749638386	1	main_z	7	main_z	121	stimuli_target_trianglesquares.svg	stimuli_distractor_trianglediamonds.svg	18	yes	44	1	958
6.6.1	win	2022-12-19	18:03:11	18:17:04	831920	60175a2c2d7cc99cb9f4049c	749638386	1	main_z	7	advance_on_keypress_ZEE	122	stimuli_target_trianglesquares.svg	stimuli_distractor_trianglediamonds.svg	18	yes	57	0	71
6.6.1	win	2022-12-19	18:03:11	18:17:05	833414	60175a2c2d7cc99cb9f4049c	749638386	1	main_z	7	main_z	123	stimuli_distractor_trianglediamonds.svg	stimuli_target_trianglecircles.svg	25	yes	44	1	786
6.6.1	win	2022-12-19	18:03:11	18:17:05	833414	60175a2c2d7cc99cb9f4049c	749638386	1	main_z	7	advance_on_keypress_ZEE	124	stimuli_distractor_trianglediamonds.svg	stimuli_target_trianglecircles.svg	25	yes	57	0	124
6.6.1	win	2022-12-19	18:03:11	18:17:07	835030	60175a2c2d7cc99cb9f4049c	749638386	1	main_z	7	main_z	125	stimuli_distractor_diamondtriangles.svg	stimuli_target_squaretriangles.svg	15	yes	44	1	853
6.6.1	win	2022-12-19	18:03:11	18:17:07	835030	60175a2c2d7cc99cb9f4049c	749638386	1	main_z	7	advance_on_keypress_ZEE	126	stimuli_distractor_diamondtriangles.svg	stimuli_target_squaretriangles.svg	15	yes	57	0	130
6.6.1	win	2022-12-19	18:03:11	18:17:08	836454	60175a2c2d7cc99cb9f4049c	749638386	1	main_z	7	main_z	127	stimuli_target_circlediamonds.svg	stimuli_distractor_trianglediamonds.svg	2	yes	44	1	643
6.6.1	win	2022-12-19	18:03:11	18:17:08	836454	60175a2c2d7cc99cb9f4049c	749638386	1	main_z	7	advance_on_keypress_ZEE	128	stimuli_target_circlediamonds.svg	stimuli_distractor_trianglediamonds.svg	2	yes	57	0	145
6.6.1	win	2022-12-19	18:03:11	18:17:10	837758	60175a2c2d7cc99cb9f4049c	749638386	1	main_z	7	main_z	129	stimuli_distractor_diamondtriangles.svg	stimuli_target_squarediamonds.svg	16	yes	44	1	531
6.6.1	win	2022-12-19	18:03:11	18:17:10	837758	60175a2c2d7cc99cb9f4049c	749638386	1	main_z	7	advance_on_keypress_ZEE	130	stimuli_distractor_diamondtriangles.svg	stimuli_target_squarediamonds.svg	16	yes	57	0	109
6.6.1	win	2022-12-19	18:03:11	18:17:12	840511	60175a2c2d7cc99cb9f4049c	749638386	1	main_z	7	main_z	131	stimuli_distractor_diamondtriangles.svg	stimuli_distractor_trianglediamonds.svg	37	no	0	1	2000
6.6.1	win	2022-12-19	18:03:11	18:17:12	840511	60175a2c2d7cc99cb9f4049c	749638386	1	main_z	7	advance_on_keypress_ZEE	132	stimuli_distractor_diamondtriangles.svg	stimuli_distractor_trianglediamonds.svg	37	no	57	0	647
6.6.1	win	2022-12-19	18:03:11	18:17:16	843794	60175a2c2d7cc99cb9f4049c	749638386	1	main_z	7	main_z	133	stimuli_distractor_trianglediamonds.svg	stimuli_distractor_diamondtriangles.svg	36	no	0	1	2000
6.6.1	win	2022-12-19	18:03:11	18:17:16	843794	60175a2c2d7cc99cb9f4049c	749638386	1	main_z	7	advance_on_keypress_ZEE	134	stimuli_distractor_trianglediamonds.svg	stimuli_distractor_diamondtriangles.svg	36	no	57	0	699
6.6.1	win	2022-12-19	18:03:11	18:17:18	845942	60175a2c2d7cc99cb9f4049c	749638386	1	main_z	7	main_z	135	stimuli_distractor_trianglediamonds.svg	stimuli_target_squarediamonds.svg	12	yes	44	1	798
6.6.1	win	2022-12-19	18:03:11	18:17:18	845942	60175a2c2d7cc99cb9f4049c	749638386	1	main_z	7	advance_on_keypress_ZEE	136	stimuli_distractor_trianglediamonds.svg	stimuli_target_squarediamonds.svg	12	yes	57	0	78
6.6.1	win	2022-12-19	18:03:11	18:17:19	847319	60175a2c2d7cc99cb9f4049c	749638386	1	main_z	7	main_z	137	stimuli_target_circletriangles.svg	stimuli_distractor_trianglediamonds.svg	1	yes	44	1	658
6.6.1	win	2022-12-19	18:03:11	18:17:19	847319	60175a2c2d7cc99cb9f4049c	749638386	1	main_z	7	advance_on_keypress_ZEE	138	stimuli_target_circletriangles.svg	stimuli_distractor_trianglediamonds.svg	1	yes	57	0	111
6.6.1	win	2022-12-19	18:03:11	18:17:21	848654	60175a2c2d7cc99cb9f4049c	749638386	1	main_z	7	main_z	139	stimuli_target_squarediamonds.svg	stimuli_distractor_trianglediamonds.svg	4	yes	44	1	594
6.6.1	win	2022-12-19	18:03:11	18:17:21	848654	60175a2c2d7cc99cb9f4049c	749638386	1	main_z	7	advance_on_keypress_ZEE	140	stimuli_target_squarediamonds.svg	stimuli_distractor_trianglediamonds.svg	4	yes	57	0	146
6.6.1	win	2022-12-19	18:03:11	18:17:23	851427	60175a2c2d7cc99cb9f4049c	749638386	1	main_z	7	main_z	141	stimuli_distractor_diamondtriangles.svg	stimuli_distractor_diamondtriangles.svg	40	no	0	1	2000
6.6.1	win	2022-12-19	18:03:11	18:17:23	851427	60175a2c2d7cc99cb9f4049c	749638386	1	main_z	7	advance_on_keypress_ZEE	142	stimuli_distractor_diamondtriangles.svg	stimuli_distractor_diamondtriangles.svg	40	no	57	0	770
6.6.1	win	2022-12-19	18:03:11	18:17:27	854844	60175a2c2d7cc99cb9f4049c	749638386	1	main_z	7	main_z	143	stimuli_distractor_diamondtriangles.svg	stimuli_distractor_trianglediamonds.svg	38	no	0	1	2000
6.6.1	win	2022-12-19	18:03:11	18:17:27	854844	60175a2c2d7cc99cb9f4049c	749638386	1	main_z	7	advance_on_keypress_ZEE	144	stimuli_distractor_diamondtriangles.svg	stimuli_distractor_trianglediamonds.svg	38	no	57	0	1346
6.6.1	win	2022-12-19	18:03:11	18:17:31	858826	60175a2c2d7cc99cb9f4049c	749638386	1	main_z	7	main_z	145	stimuli_target_trianglecircles.svg	stimuli_distractor_trianglediamonds.svg	17	yes	0	0	2000
6.6.1	win	2022-12-19	18:03:11	18:17:31	858826	60175a2c2d7cc99cb9f4049c	749638386	1	main_z	7	advance_on_keypress_ZEE	146	stimuli_target_trianglecircles.svg	stimuli_distractor_trianglediamonds.svg	17	yes	57	0	346
6.6.1	win	2022-12-19	18:03:11	18:17:33	861462	60175a2c2d7cc99cb9f4049c	749638386	1	main_z	7	main_z	147	stimuli_target_diamondsquares.svg	stimuli_distractor_trianglediamonds.svg	20	yes	44	1	1652
6.6.1	win	2022-12-19	18:03:11	18:17:33	861462	60175a2c2d7cc99cb9f4049c	749638386	1	main_z	7	advance_on_keypress_ZEE	148	stimuli_target_diamondsquares.svg	stimuli_distractor_trianglediamonds.svg	20	yes	57	0	82
6.6.1	win	2022-12-19	18:03:11	18:17:35	863206	60175a2c2d7cc99cb9f4049c	749638386	1	main_z	7	main_z	149	stimuli_target_squaretriangles.svg	stimuli_distractor_diamondtriangles.svg	7	yes	44	1	1013
6.6.1	win	2022-12-19	18:03:11	18:17:35	863206	60175a2c2d7cc99cb9f4049c	749638386	1	main_z	7	advance_on_keypress_ZEE	150	stimuli_target_squaretriangles.svg	stimuli_distractor_diamondtriangles.svg	7	yes	57	0	126
6.6.1	win	2022-12-19	18:03:11	18:17:38	865960	60175a2c2d7cc99cb9f4049c	749638386	1	main_z	7	main_z	151	stimuli_distractor_trianglediamonds.svg	stimuli_distractor_trianglediamonds.svg	34	no	0	1	2000
6.6.1	win	2022-12-19	18:03:11	18:17:38	865960	60175a2c2d7cc99cb9f4049c	749638386	1	main_z	7	advance_on_keypress_ZEE	152	stimuli_distractor_trianglediamonds.svg	stimuli_distractor_trianglediamonds.svg	34	no	57	0	710
6.6.1	win	2022-12-19	18:03:11	18:17:41	869309	60175a2c2d7cc99cb9f4049c	749638386	1	main_z	7	main_z	153	stimuli_target_diamondsquares.svg	stimuli_distractor_diamondtriangles.svg	24	yes	0	0	2000
6.6.1	win	2022-12-19	18:03:11	18:17:41	869309	60175a2c2d7cc99cb9f4049c	749638386	1	main_z	7	advance_on_keypress_ZEE	154	stimuli_target_diamondsquares.svg	stimuli_distractor_diamondtriangles.svg	24	yes	57	0	392
6.6.1	win	2022-12-19	18:03:11	18:17:43	871270	60175a2c2d7cc99cb9f4049c	749638386	1	main_z	7	main_z	155	stimuli_distractor_diamondtriangles.svg	stimuli_target_trianglecircles.svg	29	yes	44	1	928
6.6.1	win	2022-12-19	18:03:11	18:17:43	871270	60175a2c2d7cc99cb9f4049c	749638386	1	main_z	7	advance_on_keypress_ZEE	156	stimuli_distractor_diamondtriangles.svg	stimuli_target_trianglecircles.svg	29	yes	57	0	130
6.6.1	win	2022-12-19	18:03:11	18:17:45	872743	60175a2c2d7cc99cb9f4049c	749638386	1	main_z	7	main_z	157	stimuli_target_squarediamonds.svg	stimuli_distractor_diamondtriangles.svg	8	yes	44	1	716
6.6.1	win	2022-12-19	18:03:11	18:17:45	872743	60175a2c2d7cc99cb9f4049c	749638386	1	main_z	7	advance_on_keypress_ZEE	158	stimuli_target_squarediamonds.svg	stimuli_distractor_diamondtriangles.svg	8	yes	57	0	135
6.6.1	win	2022-12-19	18:03:11	18:17:46	874134	60175a2c2d7cc99cb9f4049c	749638386	1	main_z	7	main_z	159	stimuli_target_circlediamonds.svg	stimuli_distractor_diamondtriangles.svg	6	yes	44	1	608
6.6.1	win	2022-12-19	18:03:11	18:17:46	874134	60175a2c2d7cc99cb9f4049c	749638386	1	main_z	7	advance_on_keypress_ZEE	160	stimuli_target_circlediamonds.svg	stimuli_distractor_diamondtriangles.svg	6	yes	57	0	138
6.6.1	win	2022-12-19	18:03:11	18:18:14	901912	60175a2c2d7cc99cb9f4049c	749638386	1	practice_slash	9	practice_slash	1	stimuli_distractor_trianglediamonds.svg	stimuli_distractor_diamondtriangles.svg	16	no	0	1	2000
6.6.1	win	2022-12-19	18:03:11	18:18:14	901912	60175a2c2d7cc99cb9f4049c	749638386	1	practice_slash	9	advance_on_keypress_SLASH	2	stimuli_distractor_trianglediamonds.svg	stimuli_distractor_diamondtriangles.svg	16	no	57	0	618
6.6.1	win	2022-12-19	18:03:11	18:18:17	905079	60175a2c2d7cc99cb9f4049c	749638386	1	practice_slash	9	practice_slash	3	stimuli_distractor_diamondtriangles.svg	stimuli_target_trianglecircles.svg	9	yes	53	1	904
6.6.1	win	2022-12-19	18:03:11	18:18:17	905079	60175a2c2d7cc99cb9f4049c	749638386	1	practice_slash	9	advance_on_keypress_SLASH	4	stimuli_distractor_diamondtriangles.svg	stimuli_target_trianglecircles.svg	9	yes	57	0	1107
6.6.1	win	2022-12-19	18:03:11	18:18:21	908855	60175a2c2d7cc99cb9f4049c	749638386	1	practice_slash	9	practice_slash	5	stimuli_distractor_trianglediamonds.svg	stimuli_target_diamondcircles.svg	12	yes	53	1	1030
6.6.1	win	2022-12-19	18:03:11	18:18:21	908855	60175a2c2d7cc99cb9f4049c	749638386	1	practice_slash	9	advance_on_keypress_SLASH	6	stimuli_distractor_trianglediamonds.svg	stimuli_target_diamondcircles.svg	12	yes	57	0	85
6.6.1	win	2022-12-19	18:03:11	18:18:24	912575	60175a2c2d7cc99cb9f4049c	749638386	1	practice_slash	9	practice_slash	7	stimuli_distractor_trianglediamonds.svg	stimuli_distractor_trianglediamonds.svg	15	no	0	1	2000
6.6.1	win	2022-12-19	18:03:11	18:18:24	912575	60175a2c2d7cc99cb9f4049c	749638386	1	practice_slash	9	advance_on_keypress_SLASH	8	stimuli_distractor_trianglediamonds.svg	stimuli_distractor_trianglediamonds.svg	15	no	57	0	399
6.6.1	win	2022-12-19	18:03:11	18:18:27	915278	60175a2c2d7cc99cb9f4049c	749638386	1	practice_slash	9	practice_slash	9	stimuli_distractor_trianglediamonds.svg	stimuli_target_circlediamonds.svg	10	yes	53	1	654
6.6.1	win	2022-12-19	18:03:11	18:18:27	915278	60175a2c2d7cc99cb9f4049c	749638386	1	practice_slash	9	advance_on_keypress_SLASH	10	stimuli_distractor_trianglediamonds.svg	stimuli_target_circlediamonds.svg	10	yes	57	0	396
6.6.1	win	2022-12-19	18:03:11	18:18:30	918360	60175a2c2d7cc99cb9f4049c	749638386	1	practice_slash	9	practice_slash	11	stimuli_target_circlediamonds.svg	stimuli_distractor_diamondtriangles.svg	1	yes	53	1	1051
6.6.1	win	2022-12-19	18:03:11	18:18:30	918360	60175a2c2d7cc99cb9f4049c	749638386	1	practice_slash	9	advance_on_keypress_SLASH	12	stimuli_target_circlediamonds.svg	stimuli_distractor_diamondtriangles.svg	1	yes	57	0	456
6.6.1	win	2022-12-19	18:03:11	18:18:33	921471	60175a2c2d7cc99cb9f4049c	749638386	1	practice_slash	9	practice_slash	13	stimuli_target_squarediamonds.svg	stimuli_distractor_diamondtriangles.svg	2	yes	53	1	1013
6.6.1	win	2022-12-19	18:03:11	18:18:33	921471	60175a2c2d7cc99cb9f4049c	749638386	1	practice_slash	9	advance_on_keypress_SLASH	14	stimuli_target_squarediamonds.svg	stimuli_distractor_diamondtriangles.svg	2	yes	57	0	340
6.6.1	win	2022-12-19	18:03:11	18:18:37	925458	60175a2c2d7cc99cb9f4049c	749638386	1	practice_slash	9	practice_slash	15	stimuli_target_diamondsquares.svg	stimuli_distractor_trianglediamonds.svg	6	yes	0	0	2000
6.6.1	win	2022-12-19	18:03:11	18:18:37	925458	60175a2c2d7cc99cb9f4049c	749638386	1	practice_slash	9	advance_on_keypress_SLASH	16	stimuli_target_diamondsquares.svg	stimuli_distractor_trianglediamonds.svg	6	yes	57	0	725
6.6.1	win	2022-12-19	18:03:11	18:18:41	929071	60175a2c2d7cc99cb9f4049c	749638386	1	practice_slash	9	practice_slash	17	stimuli_distractor_trianglediamonds.svg	stimuli_target_squarediamonds.svg	11	yes	53	1	1247
6.6.1	win	2022-12-19	18:03:11	18:18:41	929071	60175a2c2d7cc99cb9f4049c	749638386	1	practice_slash	9	advance_on_keypress_SLASH	18	stimuli_distractor_trianglediamonds.svg	stimuli_target_squarediamonds.svg	11	yes	57	0	940
6.6.1	win	2022-12-19	18:03:11	18:18:44	932287	60175a2c2d7cc99cb9f4049c	749638386	1	practice_slash	9	practice_slash	19	stimuli_target_circlediamonds.svg	stimuli_distractor_trianglediamonds.svg	4	yes	53	1	630
6.6.1	win	2022-12-19	18:03:11	18:18:44	932287	60175a2c2d7cc99cb9f4049c	749638386	1	practice_slash	9	advance_on_keypress_SLASH	20	stimuli_target_circlediamonds.svg	stimuli_distractor_trianglediamonds.svg	4	yes	57	0	444
6.6.1	win	2022-12-19	18:03:11	18:18:48	935704	60175a2c2d7cc99cb9f4049c	749638386	1	practice_slash	9	practice_slash	21	stimuli_distractor_diamondtriangles.svg	stimuli_target_diamondcircles.svg	8	yes	53	1	1346
6.6.1	win	2022-12-19	18:03:11	18:18:48	935704	60175a2c2d7cc99cb9f4049c	749638386	1	practice_slash	9	advance_on_keypress_SLASH	22	stimuli_distractor_diamondtriangles.svg	stimuli_target_diamondcircles.svg	8	yes	57	0	483
6.6.1	win	2022-12-19	18:03:11	18:18:51	938663	60175a2c2d7cc99cb9f4049c	749638386	1	practice_slash	9	practice_slash	23	stimuli_distractor_diamondtriangles.svg	stimuli_target_circletriangles.svg	7	yes	53	1	822
6.6.1	win	2022-12-19	18:03:11	18:18:51	938663	60175a2c2d7cc99cb9f4049c	749638386	1	practice_slash	9	advance_on_keypress_SLASH	24	stimuli_distractor_diamondtriangles.svg	stimuli_target_circletriangles.svg	7	yes	57	0	340
6.6.1	win	2022-12-19	18:03:11	18:18:54	942007	60175a2c2d7cc99cb9f4049c	749638386	1	practice_slash	9	practice_slash	25	stimuli_target_squarediamonds.svg	stimuli_distractor_trianglediamonds.svg	5	yes	53	1	1367
6.6.1	win	2022-12-19	18:03:11	18:18:54	942007	60175a2c2d7cc99cb9f4049c	749638386	1	practice_slash	9	advance_on_keypress_SLASH	26	stimuli_target_squarediamonds.svg	stimuli_distractor_trianglediamonds.svg	5	yes	57	0	527
6.6.1	win	2022-12-19	18:03:11	18:18:58	946174	60175a2c2d7cc99cb9f4049c	749638386	1	practice_slash	9	practice_slash	27	stimuli_distractor_diamondtriangles.svg	stimuli_distractor_diamondtriangles.svg	13	no	0	1	2000
6.6.1	win	2022-12-19	18:03:11	18:18:58	946174	60175a2c2d7cc99cb9f4049c	749638386	1	practice_slash	9	advance_on_keypress_SLASH	28	stimuli_distractor_diamondtriangles.svg	stimuli_distractor_diamondtriangles.svg	13	no	57	0	1017
6.6.1	win	2022-12-19	18:03:11	18:19:03	950841	60175a2c2d7cc99cb9f4049c	749638386	1	practice_slash	9	practice_slash	29	stimuli_distractor_diamondtriangles.svg	stimuli_distractor_trianglediamonds.svg	14	no	0	1	2000
6.6.1	win	2022-12-19	18:03:11	18:19:03	950841	60175a2c2d7cc99cb9f4049c	749638386	1	practice_slash	9	advance_on_keypress_SLASH	30	stimuli_distractor_diamondtriangles.svg	stimuli_distractor_trianglediamonds.svg	14	no	57	0	1030
6.6.1	win	2022-12-19	18:03:11	18:19:07	955522	60175a2c2d7cc99cb9f4049c	749638386	1	practice_slash	9	practice_slash	31	stimuli_target_diamondsquares.svg	stimuli_distractor_diamondtriangles.svg	3	yes	0	0	2000
6.6.1	win	2022-12-19	18:03:11	18:19:07	955522	60175a2c2d7cc99cb9f4049c	749638386	1	practice_slash	9	advance_on_keypress_SLASH	32	stimuli_target_diamondsquares.svg	stimuli_distractor_diamondtriangles.svg	3	yes	57	0	1372
6.6.1	win	2022-12-19	18:03:11	18:19:20	968382	60175a2c2d7cc99cb9f4049c	749638386	1	main_slash	11	main_slash	1	stimuli_target_circletriangles.svg	stimuli_distractor_trianglediamonds.svg	1	yes	53	1	727
6.6.1	win	2022-12-19	18:03:11	18:19:20	968382	60175a2c2d7cc99cb9f4049c	749638386	1	main_slash	11	advance_on_keypress_SLASH	2	stimuli_target_circletriangles.svg	stimuli_distractor_trianglediamonds.svg	1	yes	57	0	434
6.6.1	win	2022-12-19	18:03:11	18:19:22	970302	60175a2c2d7cc99cb9f4049c	749638386	1	main_slash	11	main_slash	3	stimuli_distractor_diamondtriangles.svg	stimuli_target_squarediamonds.svg	16	yes	53	1	846
6.6.1	win	2022-12-19	18:03:11	18:19:22	970302	60175a2c2d7cc99cb9f4049c	749638386	1	main_slash	11	advance_on_keypress_SLASH	4	stimuli_distractor_diamondtriangles.svg	stimuli_target_squarediamonds.svg	16	yes	57	0	318
6.6.1	win	2022-12-19	18:03:11	18:19:24	972190	60175a2c2d7cc99cb9f4049c	749638386	1	main_slash	11	main_slash	5	stimuli_target_trianglecircles.svg	stimuli_distractor_trianglediamonds.svg	17	yes	53	1	936
6.6.1	win	2022-12-19	18:03:11	18:19:24	972190	60175a2c2d7cc99cb9f4049c	749638386	1	main_slash	11	advance_on_keypress_SLASH	6	stimuli_target_trianglecircles.svg	stimuli_distractor_trianglediamonds.svg	17	yes	57	0	250
6.6.1	win	2022-12-19	18:03:11	18:19:27	975089	60175a2c2d7cc99cb9f4049c	749638386	1	main_slash	11	main_slash	7	stimuli_distractor_trianglediamonds.svg	stimuli_distractor_trianglediamonds.svg	34	no	0	1	2000
6.6.1	win	2022-12-19	18:03:11	18:19:27	975089	60175a2c2d7cc99cb9f4049c	749638386	1	main_slash	11	advance_on_keypress_SLASH	8	stimuli_distractor_trianglediamonds.svg	stimuli_distractor_trianglediamonds.svg	34	no	57	0	366
6.6.1	win	2022-12-19	18:03:11	18:19:29	976950	60175a2c2d7cc99cb9f4049c	749638386	1	main_slash	11	main_slash	9	stimuli_target_diamondsquares.svg	stimuli_distractor_diamondtriangles.svg	24	yes	53	1	846
6.6.1	win	2022-12-19	18:03:11	18:19:29	976950	60175a2c2d7cc99cb9f4049c	749638386	1	main_slash	11	advance_on_keypress_SLASH	10	stimuli_target_diamondsquares.svg	stimuli_distractor_diamondtriangles.svg	24	yes	57	0	180
6.6.1	win	2022-12-19	18:03:11	18:19:31	978882	60175a2c2d7cc99cb9f4049c	749638386	1	main_slash	11	main_slash	11	stimuli_target_diamondcircles.svg	stimuli_distractor_trianglediamonds.svg	19	yes	53	1	1127
6.6.1	win	2022-12-19	18:03:11	18:19:31	978882	60175a2c2d7cc99cb9f4049c	749638386	1	main_slash	11	advance_on_keypress_SLASH	12	stimuli_target_diamondcircles.svg	stimuli_distractor_trianglediamonds.svg	19	yes	57	0	1062
6.6.1	win	2022-12-19	18:03:11	18:19:35	982588	60175a2c2d7cc99cb9f4049c	749638386	1	main_slash	11	main_slash	13	stimuli_distractor_diamondtriangles.svg	stimuli_distractor_diamondtriangles.svg	40	no	0	1	2000
6.6.1	win	2022-12-19	18:03:11	18:19:35	982588	60175a2c2d7cc99cb9f4049c	749638386	1	main_slash	11	advance_on_keypress_SLASH	14	stimuli_distractor_diamondtriangles.svg	stimuli_distractor_diamondtriangles.svg	40	no	57	0	810
6.6.1	win	2022-12-19	18:03:11	18:19:37	984838	60175a2c2d7cc99cb9f4049c	749638386	1	main_slash	11	main_slash	15	stimuli_target_circletriangles.svg	stimuli_distractor_diamondtriangles.svg	5	yes	53	1	801
6.6.1	win	2022-12-19	18:03:11	18:19:37	984838	60175a2c2d7cc99cb9f4049c	749638386	1	main_slash	11	advance_on_keypress_SLASH	16	stimuli_target_circletriangles.svg	stimuli_distractor_diamondtriangles.svg	5	yes	57	0	336
6.6.1	win	2022-12-19	18:03:11	18:19:39	986855	60175a2c2d7cc99cb9f4049c	749638386	1	main_slash	11	main_slash	17	stimuli_distractor_trianglediamonds.svg	stimuli_distractor_diamondtriangles.svg	36	no	53	0	1033
6.6.1	win	2022-12-19	18:03:11	18:19:39	986855	60175a2c2d7cc99cb9f4049c	749638386	1	main_slash	11	advance_on_keypress_SLASH	18	stimuli_distractor_trianglediamonds.svg	stimuli_distractor_diamondtriangles.svg	36	no	57	0	303
6.6.1	win	2022-12-19	18:03:11	18:19:42	989804	60175a2c2d7cc99cb9f4049c	749638386	1	main_slash	11	main_slash	19	stimuli_distractor_diamondtriangles.svg	stimuli_distractor_trianglediamonds.svg	38	no	0	1	2000
6.6.1	win	2022-12-19	18:03:11	18:19:42	989804	60175a2c2d7cc99cb9f4049c	749638386	1	main_slash	11	advance_on_keypress_SLASH	20	stimuli_distractor_diamondtriangles.svg	stimuli_distractor_trianglediamonds.svg	38	no	57	0	658
6.6.1	win	2022-12-19	18:03:11	18:19:44	991839	60175a2c2d7cc99cb9f4049c	749638386	1	main_slash	11	main_slash	21	stimuli_distractor_trianglediamonds.svg	stimuli_target_diamondcircles.svg	27	yes	53	1	734
6.6.1	win	2022-12-19	18:03:11	18:19:44	991839	60175a2c2d7cc99cb9f4049c	749638386	1	main_slash	11	advance_on_keypress_SLASH	22	stimuli_distractor_trianglediamonds.svg	stimuli_target_diamondcircles.svg	27	yes	57	0	377
6.6.1	win	2022-12-19	18:03:11	18:19:46	993910	60175a2c2d7cc99cb9f4049c	749638386	1	main_slash	11	main_slash	23	stimuli_target_trianglesquares.svg	stimuli_distractor_diamondtriangles.svg	22	yes	53	1	1056
6.6.1	win	2022-12-19	18:03:11	18:19:46	993910	60175a2c2d7cc99cb9f4049c	749638386	1	main_slash	11	advance_on_keypress_SLASH	24	stimuli_target_trianglesquares.svg	stimuli_distractor_diamondtriangles.svg	22	yes	57	0	286
6.6.1	win	2022-12-19	18:03:11	18:19:48	995918	60175a2c2d7cc99cb9f4049c	749638386	1	main_slash	11	main_slash	25	stimuli_distractor_diamondtriangles.svg	stimuli_target_diamondcircles.svg	31	yes	53	1	1081
6.6.1	win	2022-12-19	18:03:11	18:19:48	995918	60175a2c2d7cc99cb9f4049c	749638386	1	main_slash	11	advance_on_keypress_SLASH	26	stimuli_distractor_diamondtriangles.svg	stimuli_target_diamondcircles.svg	31	yes	57	0	293
6.6.1	win	2022-12-19	18:03:11	18:19:50	997894	60175a2c2d7cc99cb9f4049c	749638386	1	main_slash	11	main_slash	27	stimuli_target_circlediamonds.svg	stimuli_distractor_trianglediamonds.svg	2	yes	53	1	1041
6.6.1	win	2022-12-19	18:03:11	18:19:50	997894	60175a2c2d7cc99cb9f4049c	749638386	1	main_slash	11	advance_on_keypress_SLASH	28	stimuli_target_circlediamonds.svg	stimuli_distractor_trianglediamonds.svg	2	yes	57	0	351
6.6.1	win	2022-12-19	18:03:11	18:19:52	999966	60175a2c2d7cc99cb9f4049c	749638386	1	main_slash	11	main_slash	29	stimuli_distractor_trianglediamonds.svg	stimuli_target_trianglesquares.svg	26	yes	53	1	1079
6.6.1	win	2022-12-19	18:03:11	18:19:52	999966	60175a2c2d7cc99cb9f4049c	749638386	1	main_slash	11	advance_on_keypress_SLASH	30	stimuli_distractor_trianglediamonds.svg	stimuli_target_trianglesquares.svg	26	yes	57	0	332
6.6.1	win	2022-12-19	18:03:11	18:19:54	1002174	60175a2c2d7cc99cb9f4049c	749638386	1	main_slash	11	main_slash	31	stimuli_target_squarediamonds.svg	stimuli_distractor_diamondtriangles.svg	8	yes	53	1	1237
6.6.1	win	2022-12-19	18:03:11	18:19:54	1002174	60175a2c2d7cc99cb9f4049c	749638386	1	main_slash	11	advance_on_keypress_SLASH	32	stimuli_target_squarediamonds.svg	stimuli_distractor_diamondtriangles.svg	8	yes	57	0	252
6.6.1	win	2022-12-19	18:03:11	18:19:56	1004174	60175a2c2d7cc99cb9f4049c	749638386	1	main_slash	11	main_slash	33	stimuli_distractor_diamondtriangles.svg	stimuli_target_trianglesquares.svg	30	yes	53	1	1104
6.6.1	win	2022-12-19	18:03:11	18:19:56	1004174	60175a2c2d7cc99cb9f4049c	749638386	1	main_slash	11	advance_on_keypress_SLASH	34	stimuli_distractor_diamondtriangles.svg	stimuli_target_trianglesquares.svg	30	yes	57	0	284
6.6.1	win	2022-12-19	18:03:11	18:19:58	1006558	60175a2c2d7cc99cb9f4049c	749638386	1	main_slash	11	main_slash	35	stimuli_distractor_trianglediamonds.svg	stimuli_target_trianglecircles.svg	25	yes	53	1	1455
6.6.1	win	2022-12-19	18:03:11	18:19:58	1006558	60175a2c2d7cc99cb9f4049c	749638386	1	main_slash	11	advance_on_keypress_SLASH	36	stimuli_distractor_trianglediamonds.svg	stimuli_target_trianglecircles.svg	25	yes	57	0	500
6.6.1	win	2022-12-19	18:03:11	18:20:01	1009126	60175a2c2d7cc99cb9f4049c	749638386	1	main_slash	11	main_slash	37	stimuli_distractor_diamondtriangles.svg	stimuli_target_trianglecircles.svg	29	yes	53	1	1423
6.6.1	win	2022-12-19	18:03:11	18:20:01	1009126	60175a2c2d7cc99cb9f4049c	749638386	1	main_slash	11	advance_on_keypress_SLASH	38	stimuli_distractor_diamondtriangles.svg	stimuli_target_trianglecircles.svg	29	yes	57	0	366
6.6.1	win	2022-12-19	18:03:11	18:20:04	1011678	60175a2c2d7cc99cb9f4049c	749638386	1	main_slash	11	main_slash	39	stimuli_distractor_trianglediamonds.svg	stimuli_target_circletriangles.svg	9	yes	53	1	1542
6.6.1	win	2022-12-19	18:03:11	18:20:04	1011678	60175a2c2d7cc99cb9f4049c	749638386	1	main_slash	11	advance_on_keypress_SLASH	40	stimuli_distractor_trianglediamonds.svg	stimuli_target_circletriangles.svg	9	yes	57	0	280
6.6.1	win	2022-12-19	18:03:11	18:20:05	1013167	60175a2c2d7cc99cb9f4049c	749638386	1	main_slash	11	main_slash	41	stimuli_distractor_trianglediamonds.svg	stimuli_target_squaretriangles.svg	11	yes	53	1	581
6.6.1	win	2022-12-19	18:03:11	18:20:05	1013167	60175a2c2d7cc99cb9f4049c	749638386	1	main_slash	11	advance_on_keypress_SLASH	42	stimuli_distractor_trianglediamonds.svg	stimuli_target_squaretriangles.svg	11	yes	57	0	340
6.6.1	win	2022-12-19	18:03:11	18:20:07	1015134	60175a2c2d7cc99cb9f4049c	749638386	1	main_slash	11	main_slash	43	stimuli_target_diamondcircles.svg	stimuli_distractor_diamondtriangles.svg	23	yes	53	1	981
6.6.1	win	2022-12-19	18:03:11	18:20:07	1015134	60175a2c2d7cc99cb9f4049c	749638386	1	main_slash	11	advance_on_keypress_SLASH	44	stimuli_target_diamondcircles.svg	stimuli_distractor_diamondtriangles.svg	23	yes	57	0	221
6.6.1	win	2022-12-19	18:03:11	18:20:09	1017182	60175a2c2d7cc99cb9f4049c	749638386	1	main_slash	11	main_slash	45	stimuli_target_circlediamonds.svg	stimuli_distractor_diamondtriangles.svg	6	yes	53	1	1179
6.6.1	win	2022-12-19	18:03:11	18:20:09	1017182	60175a2c2d7cc99cb9f4049c	749638386	1	main_slash	11	advance_on_keypress_SLASH	46	stimuli_target_circlediamonds.svg	stimuli_distractor_diamondtriangles.svg	6	yes	57	0	260
6.6.1	win	2022-12-19	18:03:11	18:20:11	1018942	60175a2c2d7cc99cb9f4049c	749638386	1	main_slash	11	main_slash	47	stimuli_target_trianglesquares.svg	stimuli_distractor_trianglediamonds.svg	18	yes	53	1	873
6.6.1	win	2022-12-19	18:03:11	18:20:11	1018942	60175a2c2d7cc99cb9f4049c	749638386	1	main_slash	11	advance_on_keypress_SLASH	48	stimuli_target_trianglesquares.svg	stimuli_distractor_trianglediamonds.svg	18	yes	57	0	294
6.6.1	win	2022-12-19	18:03:11	18:20:13	1020782	60175a2c2d7cc99cb9f4049c	749638386	1	main_slash	11	main_slash	49	stimuli_target_squarediamonds.svg	stimuli_distractor_trianglediamonds.svg	4	yes	53	1	913
6.6.1	win	2022-12-19	18:03:11	18:20:13	1020782	60175a2c2d7cc99cb9f4049c	749638386	1	main_slash	11	advance_on_keypress_SLASH	50	stimuli_target_squarediamonds.svg	stimuli_distractor_trianglediamonds.svg	4	yes	57	0	342
6.6.1	win	2022-12-19	18:03:11	18:20:16	1023753	60175a2c2d7cc99cb9f4049c	749638386	1	main_slash	11	main_slash	51	stimuli_target_trianglecircles.svg	stimuli_distractor_diamondtriangles.svg	21	yes	0	0	2000
6.6.1	win	2022-12-19	18:03:11	18:20:16	1023753	60175a2c2d7cc99cb9f4049c	749638386	1	main_slash	11	advance_on_keypress_SLASH	52	stimuli_target_trianglecircles.svg	stimuli_distractor_diamondtriangles.svg	21	yes	57	0	2037
6.6.1	win	2022-12-19	18:03:11	18:20:20	1027830	60175a2c2d7cc99cb9f4049c	749638386	1	main_slash	11	main_slash	53	stimuli_target_squaretriangles.svg	stimuli_distractor_diamondtriangles.svg	7	yes	53	1	1395
6.6.1	win	2022-12-19	18:03:11	18:20:20	1027830	60175a2c2d7cc99cb9f4049c	749638386	1	main_slash	11	advance_on_keypress_SLASH	54	stimuli_target_squaretriangles.svg	stimuli_distractor_diamondtriangles.svg	7	yes	57	0	459
6.6.1	win	2022-12-19	18:03:11	18:20:22	1029887	60175a2c2d7cc99cb9f4049c	749638386	1	main_slash	11	main_slash	55	stimuli_distractor_trianglediamonds.svg	stimuli_target_circlediamonds.svg	10	yes	53	1	968
6.6.1	win	2022-12-19	18:03:11	18:20:22	1029887	60175a2c2d7cc99cb9f4049c	749638386	1	main_slash	11	advance_on_keypress_SLASH	56	stimuli_distractor_trianglediamonds.svg	stimuli_target_circlediamonds.svg	10	yes	57	0	360
6.6.1	win	2022-12-19	18:03:11	18:20:25	1032885	60175a2c2d7cc99cb9f4049c	749638386	1	main_slash	11	main_slash	57	stimuli_distractor_trianglediamonds.svg	stimuli_target_diamondsquares.svg	28	yes	0	0	2000
6.6.1	win	2022-12-19	18:03:11	18:20:25	1032885	60175a2c2d7cc99cb9f4049c	749638386	1	main_slash	11	advance_on_keypress_SLASH	58	stimuli_distractor_trianglediamonds.svg	stimuli_target_diamondsquares.svg	28	yes	57	0	2272
6.6.1	win	2022-12-19	18:03:11	18:20:29	1037448	60175a2c2d7cc99cb9f4049c	749638386	1	main_slash	11	main_slash	59	stimuli_target_squaretriangles.svg	stimuli_distractor_trianglediamonds.svg	3	yes	53	1	1645
6.6.1	win	2022-12-19	18:03:11	18:20:29	1037448	60175a2c2d7cc99cb9f4049c	749638386	1	main_slash	11	advance_on_keypress_SLASH	60	stimuli_target_squaretriangles.svg	stimuli_distractor_trianglediamonds.svg	3	yes	57	0	394
6.6.1	win	2022-12-19	18:03:11	18:20:31	1039423	60175a2c2d7cc99cb9f4049c	749638386	1	main_slash	11	main_slash	61	stimuli_distractor_diamondtriangles.svg	stimuli_target_circlediamonds.svg	14	yes	53	1	954
6.6.1	win	2022-12-19	18:03:11	18:20:31	1039423	60175a2c2d7cc99cb9f4049c	749638386	1	main_slash	11	advance_on_keypress_SLASH	62	stimuli_distractor_diamondtriangles.svg	stimuli_target_circlediamonds.svg	14	yes	57	0	515
6.6.1	win	2022-12-19	18:03:11	18:20:34	1042430	60175a2c2d7cc99cb9f4049c	749638386	1	main_slash	11	main_slash	63	stimuli_distractor_diamondtriangles.svg	stimuli_target_squaretriangles.svg	15	yes	53	1	1845
6.6.1	win	2022-12-19	18:03:11	18:20:34	1042430	60175a2c2d7cc99cb9f4049c	749638386	1	main_slash	11	advance_on_keypress_SLASH	64	stimuli_distractor_diamondtriangles.svg	stimuli_target_squaretriangles.svg	15	yes	57	0	379
6.6.1	win	2022-12-19	18:03:11	18:20:37	1045436	60175a2c2d7cc99cb9f4049c	749638386	1	main_slash	11	main_slash	65	stimuli_distractor_diamondtriangles.svg	stimuli_distractor_diamondtriangles.svg	39	no	0	1	2000
6.6.1	win	2022-12-19	18:03:11	18:20:37	1045436	60175a2c2d7cc99cb9f4049c	749638386	1	main_slash	11	advance_on_keypress_SLASH	66	stimuli_distractor_diamondtriangles.svg	stimuli_distractor_diamondtriangles.svg	39	no	57	0	859
6.6.1	win	2022-12-19	18:03:11	18:20:41	1048935	60175a2c2d7cc99cb9f4049c	749638386	1	main_slash	11	main_slash	67	stimuli_distractor_trianglediamonds.svg	stimuli_distractor_diamondtriangles.svg	35	no	0	1	2000
6.6.1	win	2022-12-19	18:03:11	18:20:41	1048935	60175a2c2d7cc99cb9f4049c	749638386	1	main_slash	11	advance_on_keypress_SLASH	68	stimuli_distractor_trianglediamonds.svg	stimuli_distractor_diamondtriangles.svg	35	no	57	0	1367
6.6.1	win	2022-12-19	18:03:11	18:20:45	1052952	60175a2c2d7cc99cb9f4049c	749638386	1	main_slash	11	main_slash	69	stimuli_target_diamondsquares.svg	stimuli_distractor_trianglediamonds.svg	20	yes	0	0	2000
6.6.1	win	2022-12-19	18:03:11	18:20:45	1052952	60175a2c2d7cc99cb9f4049c	749638386	1	main_slash	11	advance_on_keypress_SLASH	70	stimuli_target_diamondsquares.svg	stimuli_distractor_trianglediamonds.svg	20	yes	57	0	479
6.6.1	win	2022-12-19	18:03:11	18:20:48	1056069	60175a2c2d7cc99cb9f4049c	749638386	1	main_slash	11	main_slash	71	stimuli_distractor_trianglediamonds.svg	stimuli_distractor_trianglediamonds.svg	33	no	0	1	2000
6.6.1	win	2022-12-19	18:03:11	18:20:48	1056069	60175a2c2d7cc99cb9f4049c	749638386	1	main_slash	11	advance_on_keypress_SLASH	72	stimuli_distractor_trianglediamonds.svg	stimuli_distractor_trianglediamonds.svg	33	no	57	0	818
6.6.1	win	2022-12-19	18:03:11	18:20:51	1059534	60175a2c2d7cc99cb9f4049c	749638386	1	main_slash	11	main_slash	73	stimuli_distractor_trianglediamonds.svg	stimuli_target_squarediamonds.svg	12	yes	0	0	2000
6.6.1	win	2022-12-19	18:03:11	18:20:51	1059534	60175a2c2d7cc99cb9f4049c	749638386	1	main_slash	11	advance_on_keypress_SLASH	74	stimuli_distractor_trianglediamonds.svg	stimuli_target_squarediamonds.svg	12	yes	57	0	13143
6.6.1	win	2022-12-19	18:03:11	18:21:06	1074047	60175a2c2d7cc99cb9f4049c	749638386	1	main_slash	11	main_slash	75	stimuli_distractor_diamondtriangles.svg	stimuli_target_diamondsquares.svg	32	yes	53	1	713
6.6.1	win	2022-12-19	18:03:11	18:21:06	1074047	60175a2c2d7cc99cb9f4049c	749638386	1	main_slash	11	advance_on_keypress_SLASH	76	stimuli_distractor_diamondtriangles.svg	stimuli_target_diamondsquares.svg	32	yes	57	0	251
6.6.1	win	2022-12-19	18:03:11	18:21:07	1075534	60175a2c2d7cc99cb9f4049c	749638386	1	main_slash	11	main_slash	77	stimuli_distractor_diamondtriangles.svg	stimuli_target_circletriangles.svg	13	yes	53	1	584
6.6.1	win	2022-12-19	18:03:11	18:21:07	1075534	60175a2c2d7cc99cb9f4049c	749638386	1	main_slash	11	advance_on_keypress_SLASH	78	stimuli_distractor_diamondtriangles.svg	stimuli_target_circletriangles.svg	13	yes	57	0	193
6.6.1	win	2022-12-19	18:03:11	18:21:10	1078367	60175a2c2d7cc99cb9f4049c	749638386	1	main_slash	11	main_slash	79	stimuli_distractor_diamondtriangles.svg	stimuli_distractor_trianglediamonds.svg	37	no	0	1	2000
6.6.1	win	2022-12-19	18:03:11	18:21:10	1078367	60175a2c2d7cc99cb9f4049c	749638386	1	main_slash	11	advance_on_keypress_SLASH	80	stimuli_distractor_diamondtriangles.svg	stimuli_distractor_trianglediamonds.svg	37	no	57	0	295
6.6.1	win	2022-12-19	18:03:11	18:21:13	1081300	60175a2c2d7cc99cb9f4049c	749638386	1	main_slash	11	main_slash	81	stimuli_distractor_diamondtriangles.svg	stimuli_distractor_trianglediamonds.svg	37	no	0	1	2000
6.6.1	win	2022-12-19	18:03:11	18:21:13	1081300	60175a2c2d7cc99cb9f4049c	749638386	1	main_slash	11	advance_on_keypress_SLASH	82	stimuli_distractor_diamondtriangles.svg	stimuli_distractor_trianglediamonds.svg	37	no	57	0	282
6.6.1	win	2022-12-19	18:03:11	18:21:16	1084233	60175a2c2d7cc99cb9f4049c	749638386	1	main_slash	11	main_slash	83	stimuli_distractor_diamondtriangles.svg	stimuli_distractor_diamondtriangles.svg	40	no	0	1	2000
6.6.1	win	2022-12-19	18:03:11	18:21:16	1084233	60175a2c2d7cc99cb9f4049c	749638386	1	main_slash	11	advance_on_keypress_SLASH	84	stimuli_distractor_diamondtriangles.svg	stimuli_distractor_diamondtriangles.svg	40	no	57	0	253
6.6.1	win	2022-12-19	18:03:11	18:21:19	1087133	60175a2c2d7cc99cb9f4049c	749638386	1	main_slash	11	main_slash	85	stimuli_distractor_diamondtriangles.svg	stimuli_distractor_trianglediamonds.svg	38	no	0	1	2000
6.6.1	win	2022-12-19	18:03:11	18:21:19	1087133	60175a2c2d7cc99cb9f4049c	749638386	1	main_slash	11	advance_on_keypress_SLASH	86	stimuli_distractor_diamondtriangles.svg	stimuli_distractor_trianglediamonds.svg	38	no	57	0	305
6.6.1	win	2022-12-19	18:03:11	18:21:21	1088638	60175a2c2d7cc99cb9f4049c	749638386	1	main_slash	11	main_slash	87	stimuli_target_diamondsquares.svg	stimuli_distractor_diamondtriangles.svg	24	yes	53	1	556
6.6.1	win	2022-12-19	18:03:11	18:21:21	1088638	60175a2c2d7cc99cb9f4049c	749638386	1	main_slash	11	advance_on_keypress_SLASH	88	stimuli_target_diamondsquares.svg	stimuli_distractor_diamondtriangles.svg	24	yes	57	0	333
6.6.1	win	2022-12-19	18:03:11	18:21:22	1090132	60175a2c2d7cc99cb9f4049c	749638386	1	main_slash	11	main_slash	89	stimuli_target_circletriangles.svg	stimuli_distractor_diamondtriangles.svg	5	yes	53	1	510
6.6.1	win	2022-12-19	18:03:11	18:21:22	1090132	60175a2c2d7cc99cb9f4049c	749638386	1	main_slash	11	advance_on_keypress_SLASH	90	stimuli_target_circletriangles.svg	stimuli_distractor_diamondtriangles.svg	5	yes	57	0	329
6.6.1	win	2022-12-19	18:03:11	18:21:24	1091718	60175a2c2d7cc99cb9f4049c	749638386	1	main_slash	11	main_slash	91	stimuli_distractor_trianglediamonds.svg	stimuli_target_squaretriangles.svg	11	yes	53	1	619
6.6.1	win	2022-12-19	18:03:11	18:21:24	1091718	60175a2c2d7cc99cb9f4049c	749638386	1	main_slash	11	advance_on_keypress_SLASH	92	stimuli_distractor_trianglediamonds.svg	stimuli_target_squaretriangles.svg	11	yes	57	0	249
6.6.1	win	2022-12-19	18:03:11	18:21:25	1093358	60175a2c2d7cc99cb9f4049c	749638386	1	main_slash	11	main_slash	93	stimuli_target_trianglesquares.svg	stimuli_distractor_diamondtriangles.svg	22	yes	53	1	742
6.6.1	win	2022-12-19	18:03:11	18:21:25	1093358	60175a2c2d7cc99cb9f4049c	749638386	1	main_slash	11	advance_on_keypress_SLASH	94	stimuli_target_trianglesquares.svg	stimuli_distractor_diamondtriangles.svg	22	yes	57	0	256
6.6.1	win	2022-12-19	18:03:11	18:21:27	1094814	60175a2c2d7cc99cb9f4049c	749638386	1	main_slash	11	main_slash	95	stimuli_distractor_diamondtriangles.svg	stimuli_target_diamondcircles.svg	31	yes	53	1	565
6.6.1	win	2022-12-19	18:03:11	18:21:27	1094814	60175a2c2d7cc99cb9f4049c	749638386	1	main_slash	11	advance_on_keypress_SLASH	96	stimuli_distractor_diamondtriangles.svg	stimuli_target_diamondcircles.svg	31	yes	57	0	294
6.6.1	win	2022-12-19	18:03:11	18:21:28	1096454	60175a2c2d7cc99cb9f4049c	749638386	1	main_slash	11	main_slash	97	stimuli_target_circletriangles.svg	stimuli_distractor_trianglediamonds.svg	1	yes	53	1	705
6.6.1	win	2022-12-19	18:03:11	18:21:28	1096454	60175a2c2d7cc99cb9f4049c	749638386	1	main_slash	11	advance_on_keypress_SLASH	98	stimuli_target_circletriangles.svg	stimuli_distractor_trianglediamonds.svg	1	yes	57	0	301
6.6.1	win	2022-12-19	18:03:11	18:21:30	1098054	60175a2c2d7cc99cb9f4049c	749638386	1	main_slash	11	main_slash	99	stimuli_distractor_trianglediamonds.svg	stimuli_target_squarediamonds.svg	12	yes	53	1	655
6.6.1	win	2022-12-19	18:03:11	18:21:30	1098054	60175a2c2d7cc99cb9f4049c	749638386	1	main_slash	11	advance_on_keypress_SLASH	100	stimuli_distractor_trianglediamonds.svg	stimuli_target_squarediamonds.svg	12	yes	57	0	317
6.6.1	win	2022-12-19	18:03:11	18:21:32	1099783	60175a2c2d7cc99cb9f4049c	749638386	1	main_slash	11	main_slash	101	stimuli_target_circlediamonds.svg	stimuli_distractor_diamondtriangles.svg	6	yes	53	1	767
6.6.1	win	2022-12-19	18:03:11	18:21:32	1099783	60175a2c2d7cc99cb9f4049c	749638386	1	main_slash	11	advance_on_keypress_SLASH	102	stimuli_target_circlediamonds.svg	stimuli_distractor_diamondtriangles.svg	6	yes	57	0	295
6.6.1	win	2022-12-19	18:03:11	18:21:34	1101606	60175a2c2d7cc99cb9f4049c	749638386	1	main_slash	11	main_slash	103	stimuli_target_diamondcircles.svg	stimuli_distractor_diamondtriangles.svg	23	yes	53	1	891
6.6.1	win	2022-12-19	18:03:11	18:21:34	1101606	60175a2c2d7cc99cb9f4049c	749638386	1	main_slash	11	advance_on_keypress_SLASH	104	stimuli_target_diamondcircles.svg	stimuli_distractor_diamondtriangles.svg	23	yes	57	0	207
6.6.1	win	2022-12-19	18:03:11	18:21:35	1103150	60175a2c2d7cc99cb9f4049c	749638386	1	main_slash	11	main_slash	105	stimuli_distractor_diamondtriangles.svg	stimuli_target_circletriangles.svg	13	yes	53	1	701
6.6.1	win	2022-12-19	18:03:11	18:21:35	1103150	60175a2c2d7cc99cb9f4049c	749638386	1	main_slash	11	advance_on_keypress_SLASH	106	stimuli_distractor_diamondtriangles.svg	stimuli_target_circletriangles.svg	13	yes	57	0	337
6.6.1	win	2022-12-19	18:03:11	18:21:37	1104918	60175a2c2d7cc99cb9f4049c	749638386	1	main_slash	11	main_slash	107	stimuli_distractor_trianglediamonds.svg	stimuli_target_circletriangles.svg	9	yes	53	1	786
6.6.1	win	2022-12-19	18:03:11	18:21:37	1104918	60175a2c2d7cc99cb9f4049c	749638386	1	main_slash	11	advance_on_keypress_SLASH	108	stimuli_distractor_trianglediamonds.svg	stimuli_target_circletriangles.svg	9	yes	57	0	354
6.6.1	win	2022-12-19	18:03:11	18:21:40	1107915	60175a2c2d7cc99cb9f4049c	749638386	1	main_slash	11	main_slash	109	stimuli_target_circlediamonds.svg	stimuli_distractor_trianglediamonds.svg	2	yes	0	0	2000
6.6.1	win	2022-12-19	18:03:11	18:21:40	1107915	60175a2c2d7cc99cb9f4049c	749638386	1	main_slash	11	advance_on_keypress_SLASH	110	stimuli_target_circlediamonds.svg	stimuli_distractor_trianglediamonds.svg	2	yes	57	0	1922
6.6.1	win	2022-12-19	18:03:11	18:21:44	1111888	60175a2c2d7cc99cb9f4049c	749638386	1	main_slash	11	main_slash	111	stimuli_distractor_diamondtriangles.svg	stimuli_target_trianglesquares.svg	30	yes	53	1	1405
6.6.1	win	2022-12-19	18:03:11	18:21:44	1111888	60175a2c2d7cc99cb9f4049c	749638386	1	main_slash	11	advance_on_keypress_SLASH	112	stimuli_distractor_diamondtriangles.svg	stimuli_target_trianglesquares.svg	30	yes	57	0	180
6.6.1	win	2022-12-19	18:03:11	18:21:46	1114495	60175a2c2d7cc99cb9f4049c	749638386	1	main_slash	11	main_slash	113	stimuli_target_diamondcircles.svg	stimuli_distractor_trianglediamonds.svg	19	yes	53	1	1795
6.6.1	win	2022-12-19	18:03:11	18:21:46	1114495	60175a2c2d7cc99cb9f4049c	749638386	1	main_slash	11	advance_on_keypress_SLASH	114	stimuli_target_diamondcircles.svg	stimuli_distractor_trianglediamonds.svg	19	yes	57	0	380
6.6.1	win	2022-12-19	18:03:11	18:21:49	1117498	60175a2c2d7cc99cb9f4049c	749638386	1	main_slash	11	main_slash	115	stimuli_distractor_trianglediamonds.svg	stimuli_distractor_trianglediamonds.svg	34	no	0	1	2000
6.6.1	win	2022-12-19	18:03:11	18:21:49	1117498	60175a2c2d7cc99cb9f4049c	749638386	1	main_slash	11	advance_on_keypress_SLASH	116	stimuli_distractor_trianglediamonds.svg	stimuli_distractor_trianglediamonds.svg	34	no	57	0	587
6.6.1	win	2022-12-19	18:03:11	18:21:52	1120351	60175a2c2d7cc99cb9f4049c	749638386	1	main_slash	11	main_slash	117	stimuli_target_trianglecircles.svg	stimuli_distractor_diamondtriangles.svg	21	yes	53	1	1619
6.6.1	win	2022-12-19	18:03:11	18:21:52	1120351	60175a2c2d7cc99cb9f4049c	749638386	1	main_slash	11	advance_on_keypress_SLASH	118	stimuli_target_trianglecircles.svg	stimuli_distractor_diamondtriangles.svg	21	yes	57	0	1098
6.6.1	win	2022-12-19	18:03:11	18:21:55	1123390	60175a2c2d7cc99cb9f4049c	749638386	1	main_slash	11	main_slash	119	stimuli_distractor_trianglediamonds.svg	stimuli_target_trianglecircles.svg	25	yes	53	1	1292
6.6.1	win	2022-12-19	18:03:11	18:21:55	1123390	60175a2c2d7cc99cb9f4049c	749638386	1	main_slash	11	advance_on_keypress_SLASH	120	stimuli_distractor_trianglediamonds.svg	stimuli_target_trianglecircles.svg	25	yes	57	0	328
6.6.1	win	2022-12-19	18:03:11	18:21:58	1126349	60175a2c2d7cc99cb9f4049c	749638386	1	main_slash	11	main_slash	121	stimuli_distractor_trianglediamonds.svg	stimuli_distractor_diamondtriangles.svg	35	no	0	1	2000
6.6.1	win	2022-12-19	18:03:11	18:21:58	1126349	60175a2c2d7cc99cb9f4049c	749638386	1	main_slash	11	advance_on_keypress_SLASH	122	stimuli_distractor_trianglediamonds.svg	stimuli_distractor_diamondtriangles.svg	35	no	57	0	2338
6.6.1	win	2022-12-19	18:03:11	18:22:02	1130198	60175a2c2d7cc99cb9f4049c	749638386	1	main_slash	11	main_slash	123	stimuli_target_trianglesquares.svg	stimuli_distractor_trianglediamonds.svg	18	yes	53	1	867
6.6.1	win	2022-12-19	18:03:11	18:22:02	1130198	60175a2c2d7cc99cb9f4049c	749638386	1	main_slash	11	advance_on_keypress_SLASH	124	stimuli_target_trianglesquares.svg	stimuli_distractor_trianglediamonds.svg	18	yes	57	0	176
6.6.1	win	2022-12-19	18:03:11	18:22:04	1131926	60175a2c2d7cc99cb9f4049c	749638386	1	main_slash	11	main_slash	125	stimuli_target_squaretriangles.svg	stimuli_distractor_trianglediamonds.svg	3	yes	53	1	912
6.6.1	win	2022-12-19	18:03:11	18:22:04	1131926	60175a2c2d7cc99cb9f4049c	749638386	1	main_slash	11	advance_on_keypress_SLASH	126	stimuli_target_squaretriangles.svg	stimuli_distractor_trianglediamonds.svg	3	yes	57	0	187
6.6.1	win	2022-12-19	18:03:11	18:22:07	1134747	60175a2c2d7cc99cb9f4049c	749638386	1	main_slash	11	main_slash	127	stimuli_distractor_trianglediamonds.svg	stimuli_target_diamondcircles.svg	27	yes	0	0	2000
6.6.1	win	2022-12-19	18:03:11	18:22:07	1134747	60175a2c2d7cc99cb9f4049c	749638386	1	main_slash	11	advance_on_keypress_SLASH	128	stimuli_distractor_trianglediamonds.svg	stimuli_target_diamondcircles.svg	27	yes	57	0	418
6.6.1	win	2022-12-19	18:03:11	18:22:09	1137270	60175a2c2d7cc99cb9f4049c	749638386	1	main_slash	11	main_slash	129	stimuli_target_trianglecircles.svg	stimuli_distractor_trianglediamonds.svg	17	yes	53	1	1456
6.6.1	win	2022-12-19	18:03:11	18:22:09	1137270	60175a2c2d7cc99cb9f4049c	749638386	1	main_slash	11	advance_on_keypress_SLASH	130	stimuli_target_trianglecircles.svg	stimuli_distractor_trianglediamonds.svg	17	yes	57	0	230
6.6.1	win	2022-12-19	18:03:11	18:22:12	1140070	60175a2c2d7cc99cb9f4049c	749638386	1	main_slash	11	main_slash	131	stimuli_distractor_diamondtriangles.svg	stimuli_target_diamondsquares.svg	32	yes	53	1	1940
6.6.1	win	2022-12-19	18:03:11	18:22:12	1140070	60175a2c2d7cc99cb9f4049c	749638386	1	main_slash	11	advance_on_keypress_SLASH	132	stimuli_distractor_diamondtriangles.svg	stimuli_target_diamondsquares.svg	32	yes	57	0	238
6.6.1	win	2022-12-19	18:03:11	18:22:15	1142947	60175a2c2d7cc99cb9f4049c	749638386	1	main_slash	11	main_slash	133	stimuli_distractor_diamondtriangles.svg	stimuli_target_trianglecircles.svg	29	yes	0	0	2000
6.6.1	win	2022-12-19	18:03:11	18:22:15	1142947	60175a2c2d7cc99cb9f4049c	749638386	1	main_slash	11	advance_on_keypress_SLASH	134	stimuli_distractor_diamondtriangles.svg	stimuli_target_trianglecircles.svg	29	yes	57	0	12699
6.6.1	win	2022-12-19	18:03:11	18:22:29	1156999	60175a2c2d7cc99cb9f4049c	749638386	1	main_slash	11	main_slash	135	stimuli_distractor_diamondtriangles.svg	stimuli_target_squaretriangles.svg	15	yes	53	1	702
6.6.1	win	2022-12-19	18:03:11	18:22:29	1156999	60175a2c2d7cc99cb9f4049c	749638386	1	main_slash	11	advance_on_keypress_SLASH	136	stimuli_distractor_diamondtriangles.svg	stimuli_target_squaretriangles.svg	15	yes	57	0	321
6.6.1	win	2022-12-19	18:03:11	18:22:30	1158503	60175a2c2d7cc99cb9f4049c	749638386	1	main_slash	11	main_slash	137	stimuli_target_squarediamonds.svg	stimuli_distractor_trianglediamonds.svg	4	yes	53	1	539
6.6.1	win	2022-12-19	18:03:11	18:22:30	1158503	60175a2c2d7cc99cb9f4049c	749638386	1	main_slash	11	advance_on_keypress_SLASH	138	stimuli_target_squarediamonds.svg	stimuli_distractor_trianglediamonds.svg	4	yes	57	0	197
6.6.1	win	2022-12-19	18:03:11	18:22:32	1159862	60175a2c2d7cc99cb9f4049c	749638386	1	main_slash	11	main_slash	139	stimuli_distractor_diamondtriangles.svg	stimuli_target_circlediamonds.svg	14	yes	53	1	516
6.6.1	win	2022-12-19	18:03:11	18:22:32	1159862	60175a2c2d7cc99cb9f4049c	749638386	1	main_slash	11	advance_on_keypress_SLASH	140	stimuli_distractor_diamondtriangles.svg	stimuli_target_circlediamonds.svg	14	yes	57	0	327
6.6.1	win	2022-12-19	18:03:11	18:22:33	1161398	60175a2c2d7cc99cb9f4049c	749638386	1	main_slash	11	main_slash	141	stimuli_target_squarediamonds.svg	stimuli_distractor_diamondtriangles.svg	8	yes	53	1	569
6.6.1	win	2022-12-19	18:03:11	18:22:33	1161398	60175a2c2d7cc99cb9f4049c	749638386	1	main_slash	11	advance_on_keypress_SLASH	142	stimuli_target_squarediamonds.svg	stimuli_distractor_diamondtriangles.svg	8	yes	57	0	257
6.6.1	win	2022-12-19	18:03:11	18:22:36	1164297	60175a2c2d7cc99cb9f4049c	749638386	1	main_slash	11	main_slash	143	stimuli_distractor_trianglediamonds.svg	stimuli_distractor_trianglediamonds.svg	33	no	0	1	2000
6.6.1	win	2022-12-19	18:03:11	18:22:36	1164297	60175a2c2d7cc99cb9f4049c	749638386	1	main_slash	11	advance_on_keypress_SLASH	144	stimuli_distractor_trianglediamonds.svg	stimuli_distractor_trianglediamonds.svg	33	no	57	0	550
6.6.1	win	2022-12-19	18:03:11	18:22:38	1166247	60175a2c2d7cc99cb9f4049c	749638386	1	main_slash	11	main_slash	145	stimuli_distractor_trianglediamonds.svg	stimuli_target_circlediamonds.svg	10	yes	53	1	750
6.6.1	win	2022-12-19	18:03:11	18:22:38	1166247	60175a2c2d7cc99cb9f4049c	749638386	1	main_slash	11	advance_on_keypress_SLASH	146	stimuli_distractor_trianglediamonds.svg	stimuli_target_circlediamonds.svg	10	yes	57	0	313
6.6.1	win	2022-12-19	18:03:11	18:22:41	1169196	60175a2c2d7cc99cb9f4049c	749638386	1	main_slash	11	main_slash	147	stimuli_distractor_diamondtriangles.svg	stimuli_distractor_diamondtriangles.svg	39	no	0	1	2000
6.6.1	win	2022-12-19	18:03:11	18:22:41	1169196	60175a2c2d7cc99cb9f4049c	749638386	1	main_slash	11	advance_on_keypress_SLASH	148	stimuli_distractor_diamondtriangles.svg	stimuli_distractor_diamondtriangles.svg	39	no	57	0	978
6.6.1	win	2022-12-19	18:03:11	18:22:44	1172375	60175a2c2d7cc99cb9f4049c	749638386	1	main_slash	11	main_slash	149	stimuli_distractor_trianglediamonds.svg	stimuli_target_trianglesquares.svg	26	yes	53	1	1563
6.6.1	win	2022-12-19	18:03:11	18:22:44	1172375	60175a2c2d7cc99cb9f4049c	749638386	1	main_slash	11	advance_on_keypress_SLASH	150	stimuli_distractor_trianglediamonds.svg	stimuli_target_trianglesquares.svg	26	yes	57	0	395
6.6.1	win	2022-12-19	18:03:11	18:22:47	1175396	60175a2c2d7cc99cb9f4049c	749638386	1	main_slash	11	main_slash	151	stimuli_distractor_trianglediamonds.svg	stimuli_distractor_diamondtriangles.svg	36	no	0	1	2000
6.6.1	win	2022-12-19	18:03:11	18:22:47	1175396	60175a2c2d7cc99cb9f4049c	749638386	1	main_slash	11	advance_on_keypress_SLASH	152	stimuli_distractor_trianglediamonds.svg	stimuli_distractor_diamondtriangles.svg	36	no	57	0	1074
6.6.1	win	2022-12-19	18:03:11	18:22:50	1178046	60175a2c2d7cc99cb9f4049c	749638386	1	main_slash	11	main_slash	153	stimuli_distractor_diamondtriangles.svg	stimuli_target_squarediamonds.svg	16	yes	53	1	934
6.6.1	win	2022-12-19	18:03:11	18:22:50	1178046	60175a2c2d7cc99cb9f4049c	749638386	1	main_slash	11	advance_on_keypress_SLASH	154	stimuli_distractor_diamondtriangles.svg	stimuli_target_squarediamonds.svg	16	yes	57	0	265
6.6.1	win	2022-12-19	18:03:11	18:22:52	1179902	60175a2c2d7cc99cb9f4049c	749638386	1	main_slash	11	main_slash	155	stimuli_target_squaretriangles.svg	stimuli_distractor_diamondtriangles.svg	7	yes	53	1	940
6.6.1	win	2022-12-19	18:03:11	18:22:52	1179902	60175a2c2d7cc99cb9f4049c	749638386	1	main_slash	11	advance_on_keypress_SLASH	156	stimuli_target_squaretriangles.svg	stimuli_distractor_diamondtriangles.svg	7	yes	57	0	278
6.6.1	win	2022-12-19	18:03:11	18:22:55	1182812	60175a2c2d7cc99cb9f4049c	749638386	1	main_slash	11	main_slash	157	stimuli_distractor_trianglediamonds.svg	stimuli_target_diamondsquares.svg	28	yes	0	0	2000
6.6.1	win	2022-12-19	18:03:11	18:22:55	1182812	60175a2c2d7cc99cb9f4049c	749638386	1	main_slash	11	advance_on_keypress_SLASH	158	stimuli_distractor_trianglediamonds.svg	stimuli_target_diamondsquares.svg	28	yes	57	0	5754
6.6.1	win	2022-12-19	18:03:11	18:23:03	1190686	60175a2c2d7cc99cb9f4049c	749638386	1	main_slash	11	main_slash	159	stimuli_target_diamondsquares.svg	stimuli_distractor_trianglediamonds.svg	20	yes	53	1	1474
6.6.1	win	2022-12-19	18:03:11	18:23:03	1190686	60175a2c2d7cc99cb9f4049c	749638386	1	main_slash	11	advance_on_keypress_SLASH	160	stimuli_target_diamondsquares.svg	stimuli_distractor_trianglediamonds.svg	20	yes	57	0	623