build	computer.platform	date	time	timestamp	time_elapsed_ms	subject	group	session	blockcode	blocknum	trialcode	trialnum	stimulus_left	stimulus_right	stim_index	target_present	response	correct	latency
6.6.1	mac	2022-11-07	14:14:02	14:16:24	138965	5c17294778ee390001ab19e5	997969023	1	practice_slash	5	practice_slash	1	stimuli_distractor_diamondtriangles.svg	stimuli_target_trianglecircles.svg	9	yes	0	0	2000
6.6.1	mac	2022-11-07	14:14:02	14:16:24	138965	5c17294778ee390001ab19e5	997969023	1	practice_slash	5	advance_on_keypress_SLASH	2	stimuli_distractor_diamondtriangles.svg	stimuli_target_trianglecircles.svg	9	yes	57	0	3268
6.6.1	mac	2022-11-07	14:14:02	14:16:31	145921	5c17294778ee390001ab19e5	997969023	1	practice_slash	5	practice_slash	3	stimuli_distractor_diamondtriangles.svg	stimuli_distractor_diamondtriangles.svg	13	no	0	1	2000
6.6.1	mac	2022-11-07	14:14:02	14:16:31	145921	5c17294778ee390001ab19e5	997969023	1	practice_slash	5	advance_on_keypress_SLASH	4	stimuli_distractor_diamondtriangles.svg	stimuli_distractor_diamondtriangles.svg	13	no	57	0	2948
6.6.1	mac	2022-11-07	14:14:02	14:16:37	152560	5c17294778ee390001ab19e5	997969023	1	practice_slash	5	practice_slash	5	stimuli_distractor_diamondtriangles.svg	stimuli_target_diamondcircles.svg	8	yes	0	0	2000
6.6.1	mac	2022-11-07	14:14:02	14:16:37	152560	5c17294778ee390001ab19e5	997969023	1	practice_slash	5	advance_on_keypress_SLASH	6	stimuli_distractor_diamondtriangles.svg	stimuli_target_diamondcircles.svg	8	yes	57	0	1457
6.6.1	mac	2022-11-07	14:14:02	14:16:43	157762	5c17294778ee390001ab19e5	997969023	1	practice_slash	5	practice_slash	7	stimuli_target_diamondsquares.svg	stimuli_distractor_trianglediamonds.svg	6	yes	0	0	2000
6.6.1	mac	2022-11-07	14:14:02	14:16:43	157762	5c17294778ee390001ab19e5	997969023	1	practice_slash	5	advance_on_keypress_SLASH	8	stimuli_target_diamondsquares.svg	stimuli_distractor_trianglediamonds.svg	6	yes	57	0	1369
6.6.1	mac	2022-11-07	14:14:02	14:16:47	161818	5c17294778ee390001ab19e5	997969023	1	practice_slash	5	practice_slash	9	stimuli_distractor_trianglediamonds.svg	stimuli_target_squarediamonds.svg	11	yes	53	1	998
6.6.1	mac	2022-11-07	14:14:02	14:16:47	161818	5c17294778ee390001ab19e5	997969023	1	practice_slash	5	advance_on_keypress_SLASH	10	stimuli_distractor_trianglediamonds.svg	stimuli_target_squarediamonds.svg	11	yes	57	0	563
6.6.1	mac	2022-11-07	14:14:02	14:16:51	166071	5c17294778ee390001ab19e5	997969023	1	practice_slash	5	practice_slash	11	stimuli_distractor_trianglediamonds.svg	stimuli_distractor_trianglediamonds.svg	15	no	0	1	2000
6.6.1	mac	2022-11-07	14:14:02	14:16:51	166071	5c17294778ee390001ab19e5	997969023	1	practice_slash	5	advance_on_keypress_SLASH	12	stimuli_distractor_trianglediamonds.svg	stimuli_distractor_trianglediamonds.svg	15	no	57	0	516
6.6.1	mac	2022-11-07	14:14:02	14:16:55	170271	5c17294778ee390001ab19e5	997969023	1	practice_slash	5	practice_slash	13	stimuli_target_diamondsquares.svg	stimuli_distractor_diamondtriangles.svg	3	yes	0	0	2000
6.6.1	mac	2022-11-07	14:14:02	14:16:55	170271	5c17294778ee390001ab19e5	997969023	1	practice_slash	5	advance_on_keypress_SLASH	14	stimuli_target_diamondsquares.svg	stimuli_distractor_diamondtriangles.svg	3	yes	57	0	901
6.6.1	mac	2022-11-07	14:14:02	14:16:59	173964	5c17294778ee390001ab19e5	997969023	1	practice_slash	5	practice_slash	15	stimuli_distractor_trianglediamonds.svg	stimuli_target_circlediamonds.svg	10	yes	53	1	1037
6.6.1	mac	2022-11-07	14:14:02	14:16:59	173964	5c17294778ee390001ab19e5	997969023	1	practice_slash	5	advance_on_keypress_SLASH	16	stimuli_distractor_trianglediamonds.svg	stimuli_target_circlediamonds.svg	10	yes	57	0	1209
6.6.1	mac	2022-11-07	14:14:02	14:17:03	177875	5c17294778ee390001ab19e5	997969023	1	practice_slash	5	practice_slash	17	stimuli_target_circlediamonds.svg	stimuli_distractor_trianglediamonds.svg	4	yes	53	1	1060
6.6.1	mac	2022-11-07	14:14:02	14:17:03	177875	5c17294778ee390001ab19e5	997969023	1	practice_slash	5	advance_on_keypress_SLASH	18	stimuli_target_circlediamonds.svg	stimuli_distractor_trianglediamonds.svg	4	yes	57	0	640
6.6.1	mac	2022-11-07	14:14:02	14:17:07	182199	5c17294778ee390001ab19e5	997969023	1	practice_slash	5	practice_slash	19	stimuli_distractor_trianglediamonds.svg	stimuli_distractor_diamondtriangles.svg	16	no	0	1	2000
6.6.1	mac	2022-11-07	14:14:02	14:17:07	182199	5c17294778ee390001ab19e5	997969023	1	practice_slash	5	advance_on_keypress_SLASH	20	stimuli_distractor_trianglediamonds.svg	stimuli_distractor_diamondtriangles.svg	16	no	57	0	1909
6.6.1	mac	2022-11-07	14:14:02	14:17:12	186757	5c17294778ee390001ab19e5	997969023	1	practice_slash	5	practice_slash	21	stimuli_target_squarediamonds.svg	stimuli_distractor_trianglediamonds.svg	5	yes	53	1	951
6.6.1	mac	2022-11-07	14:14:02	14:17:12	186757	5c17294778ee390001ab19e5	997969023	1	practice_slash	5	advance_on_keypress_SLASH	22	stimuli_target_squarediamonds.svg	stimuli_distractor_trianglediamonds.svg	5	yes	57	0	738
6.6.1	mac	2022-11-07	14:14:02	14:17:15	190166	5c17294778ee390001ab19e5	997969023	1	practice_slash	5	practice_slash	23	stimuli_target_circlediamonds.svg	stimuli_distractor_diamondtriangles.svg	1	yes	53	1	1039
6.6.1	mac	2022-11-07	14:14:02	14:17:15	190166	5c17294778ee390001ab19e5	997969023	1	practice_slash	5	advance_on_keypress_SLASH	24	stimuli_target_circlediamonds.svg	stimuli_distractor_diamondtriangles.svg	1	yes	57	0	522
6.6.1	mac	2022-11-07	14:14:02	14:17:18	193250	5c17294778ee390001ab19e5	997969023	1	practice_slash	5	practice_slash	25	stimuli_distractor_diamondtriangles.svg	stimuli_target_circletriangles.svg	7	yes	53	1	923
6.6.1	mac	2022-11-07	14:14:02	14:17:18	193250	5c17294778ee390001ab19e5	997969023	1	practice_slash	5	advance_on_keypress_SLASH	26	stimuli_distractor_diamondtriangles.svg	stimuli_target_circletriangles.svg	7	yes	57	0	433
6.6.1	mac	2022-11-07	14:14:02	14:17:22	197310	5c17294778ee390001ab19e5	997969023	1	practice_slash	5	practice_slash	27	stimuli_distractor_trianglediamonds.svg	stimuli_target_diamondcircles.svg	12	yes	0	0	2000
6.6.1	mac	2022-11-07	14:14:02	14:17:22	197310	5c17294778ee390001ab19e5	997969023	1	practice_slash	5	advance_on_keypress_SLASH	28	stimuli_distractor_trianglediamonds.svg	stimuli_target_diamondcircles.svg	12	yes	57	0	740
6.6.1	mac	2022-11-07	14:14:02	14:17:27	201765	5c17294778ee390001ab19e5	997969023	1	practice_slash	5	practice_slash	29	stimuli_distractor_diamondtriangles.svg	stimuli_distractor_trianglediamonds.svg	14	no	0	1	2000
6.6.1	mac	2022-11-07	14:14:02	14:17:27	201765	5c17294778ee390001ab19e5	997969023	1	practice_slash	5	advance_on_keypress_SLASH	30	stimuli_distractor_diamondtriangles.svg	stimuli_distractor_trianglediamonds.svg	14	no	57	0	381
6.6.1	mac	2022-11-07	14:14:02	14:17:30	204672	5c17294778ee390001ab19e5	997969023	1	practice_slash	5	practice_slash	31	stimuli_target_squarediamonds.svg	stimuli_distractor_diamondtriangles.svg	2	yes	53	1	897
6.6.1	mac	2022-11-07	14:14:02	14:17:30	204672	5c17294778ee390001ab19e5	997969023	1	practice_slash	5	advance_on_keypress_SLASH	32	stimuli_target_squarediamonds.svg	stimuli_distractor_diamondtriangles.svg	2	yes	57	0	413
6.6.1	mac	2022-11-07	14:14:02	14:17:35	210548	5c17294778ee390001ab19e5	997969023	1	main_slash	7	main_slash	1	stimuli_target_squaretriangles.svg	stimuli_distractor_diamondtriangles.svg	7	yes	53	1	748
6.6.1	mac	2022-11-07	14:14:02	14:17:35	210548	5c17294778ee390001ab19e5	997969023	1	main_slash	7	advance_on_keypress_SLASH	2	stimuli_target_squaretriangles.svg	stimuli_distractor_diamondtriangles.svg	7	yes	57	0	1137
6.6.1	mac	2022-11-07	14:14:02	14:17:38	213039	5c17294778ee390001ab19e5	997969023	1	main_slash	7	main_slash	3	stimuli_target_squaretriangles.svg	stimuli_distractor_trianglediamonds.svg	3	yes	53	1	702
6.6.1	mac	2022-11-07	14:14:02	14:17:38	213039	5c17294778ee390001ab19e5	997969023	1	main_slash	7	advance_on_keypress_SLASH	4	stimuli_target_squaretriangles.svg	stimuli_distractor_trianglediamonds.svg	3	yes	57	0	849
6.6.1	mac	2022-11-07	14:14:02	14:17:40	215310	5c17294778ee390001ab19e5	997969023	1	main_slash	7	main_slash	5	stimuli_distractor_trianglediamonds.svg	stimuli_target_circletriangles.svg	9	yes	53	1	789
6.6.1	mac	2022-11-07	14:14:02	14:17:40	215310	5c17294778ee390001ab19e5	997969023	1	main_slash	7	advance_on_keypress_SLASH	6	stimuli_distractor_trianglediamonds.svg	stimuli_target_circletriangles.svg	9	yes	57	0	858
6.6.1	mac	2022-11-07	14:14:02	14:17:43	217702	5c17294778ee390001ab19e5	997969023	1	main_slash	7	main_slash	7	stimuli_distractor_trianglediamonds.svg	stimuli_target_squarediamonds.svg	12	yes	53	1	896
6.6.1	mac	2022-11-07	14:14:02	14:17:43	217702	5c17294778ee390001ab19e5	997969023	1	main_slash	7	advance_on_keypress_SLASH	8	stimuli_distractor_trianglediamonds.svg	stimuli_target_squarediamonds.svg	12	yes	57	0	818
6.6.1	mac	2022-11-07	14:14:02	14:17:46	221156	5c17294778ee390001ab19e5	997969023	1	main_slash	7	main_slash	9	stimuli_target_diamondcircles.svg	stimuli_distractor_diamondtriangles.svg	23	yes	0	0	2000
6.6.1	mac	2022-11-07	14:14:02	14:17:46	221156	5c17294778ee390001ab19e5	997969023	1	main_slash	7	advance_on_keypress_SLASH	10	stimuli_target_diamondcircles.svg	stimuli_distractor_diamondtriangles.svg	23	yes	57	0	708
6.6.1	mac	2022-11-07	14:14:02	14:17:49	224482	5c17294778ee390001ab19e5	997969023	1	main_slash	7	main_slash	11	stimuli_target_diamondcircles.svg	stimuli_distractor_trianglediamonds.svg	19	yes	0	0	2000
6.6.1	mac	2022-11-07	14:14:02	14:17:49	224482	5c17294778ee390001ab19e5	997969023	1	main_slash	7	advance_on_keypress_SLASH	12	stimuli_target_diamondcircles.svg	stimuli_distractor_trianglediamonds.svg	19	yes	57	0	478
6.6.1	mac	2022-11-07	14:14:02	14:17:51	226502	5c17294778ee390001ab19e5	997969023	1	main_slash	7	main_slash	13	stimuli_distractor_trianglediamonds.svg	stimuli_target_squaretriangles.svg	11	yes	53	1	897
6.6.1	mac	2022-11-07	14:14:02	14:17:51	226502	5c17294778ee390001ab19e5	997969023	1	main_slash	7	advance_on_keypress_SLASH	14	stimuli_distractor_trianglediamonds.svg	stimuli_target_squaretriangles.svg	11	yes	57	0	725
6.6.1	mac	2022-11-07	14:14:02	14:17:54	229484	5c17294778ee390001ab19e5	997969023	1	main_slash	7	main_slash	15	stimuli_distractor_diamondtriangles.svg	stimuli_target_squarediamonds.svg	16	yes	53	1	1578
6.6.1	mac	2022-11-07	14:14:02	14:17:54	229484	5c17294778ee390001ab19e5	997969023	1	main_slash	7	advance_on_keypress_SLASH	16	stimuli_distractor_diamondtriangles.svg	stimuli_target_squarediamonds.svg	16	yes	57	0	636
6.6.1	mac	2022-11-07	14:14:02	14:17:58	232758	5c17294778ee390001ab19e5	997969023	1	main_slash	7	main_slash	17	stimuli_target_diamondsquares.svg	stimuli_distractor_trianglediamonds.svg	20	yes	0	0	2000
6.6.1	mac	2022-11-07	14:14:02	14:17:58	232758	5c17294778ee390001ab19e5	997969023	1	main_slash	7	advance_on_keypress_SLASH	18	stimuli_target_diamondsquares.svg	stimuli_distractor_trianglediamonds.svg	20	yes	57	0	471
6.6.1	mac	2022-11-07	14:14:02	14:18:00	234763	5c17294778ee390001ab19e5	997969023	1	main_slash	7	main_slash	19	stimuli_distractor_diamondtriangles.svg	stimuli_target_circlediamonds.svg	14	yes	53	1	852
6.6.1	mac	2022-11-07	14:14:02	14:18:00	234763	5c17294778ee390001ab19e5	997969023	1	main_slash	7	advance_on_keypress_SLASH	20	stimuli_distractor_diamondtriangles.svg	stimuli_target_circlediamonds.svg	14	yes	57	0	713
6.6.1	mac	2022-11-07	14:14:02	14:18:02	237387	5c17294778ee390001ab19e5	997969023	1	main_slash	7	main_slash	21	stimuli_target_diamondsquares.svg	stimuli_distractor_diamondtriangles.svg	24	yes	53	1	1218
6.6.1	mac	2022-11-07	14:14:02	14:18:02	237387	5c17294778ee390001ab19e5	997969023	1	main_slash	7	advance_on_keypress_SLASH	22	stimuli_target_diamondsquares.svg	stimuli_distractor_diamondtriangles.svg	24	yes	57	0	656
6.6.1	mac	2022-11-07	14:14:02	14:18:06	240670	5c17294778ee390001ab19e5	997969023	1	main_slash	7	main_slash	23	stimuli_target_trianglesquares.svg	stimuli_distractor_diamondtriangles.svg	22	yes	0	0	2000
6.6.1	mac	2022-11-07	14:14:02	14:18:06	240670	5c17294778ee390001ab19e5	997969023	1	main_slash	7	advance_on_keypress_SLASH	24	stimuli_target_trianglesquares.svg	stimuli_distractor_diamondtriangles.svg	22	yes	57	0	416
6.6.1	mac	2022-11-07	14:14:02	14:18:09	243771	5c17294778ee390001ab19e5	997969023	1	main_slash	7	main_slash	25	stimuli_distractor_trianglediamonds.svg	stimuli_distractor_trianglediamonds.svg	34	no	0	1	2000
6.6.1	mac	2022-11-07	14:14:02	14:18:09	243771	5c17294778ee390001ab19e5	997969023	1	main_slash	7	advance_on_keypress_SLASH	26	stimuli_distractor_trianglediamonds.svg	stimuli_distractor_trianglediamonds.svg	34	no	57	0	609
6.6.1	mac	2022-11-07	14:14:02	14:18:11	245957	5c17294778ee390001ab19e5	997969023	1	main_slash	7	main_slash	27	stimuli_target_circletriangles.svg	stimuli_distractor_diamondtriangles.svg	5	yes	53	1	899
6.6.1	mac	2022-11-07	14:14:02	14:18:11	245957	5c17294778ee390001ab19e5	997969023	1	main_slash	7	advance_on_keypress_SLASH	28	stimuli_target_circletriangles.svg	stimuli_distractor_diamondtriangles.svg	5	yes	57	0	615
6.6.1	mac	2022-11-07	14:14:02	14:18:14	249264	5c17294778ee390001ab19e5	997969023	1	main_slash	7	main_slash	29	stimuli_distractor_trianglediamonds.svg	stimuli_distractor_diamondtriangles.svg	35	no	0	1	2000
6.6.1	mac	2022-11-07	14:14:02	14:18:14	249264	5c17294778ee390001ab19e5	997969023	1	main_slash	7	advance_on_keypress_SLASH	30	stimuli_distractor_trianglediamonds.svg	stimuli_distractor_diamondtriangles.svg	35	no	57	0	378
6.6.1	mac	2022-11-07	14:14:02	14:18:16	251245	5c17294778ee390001ab19e5	997969023	1	main_slash	7	main_slash	31	stimuli_distractor_trianglediamonds.svg	stimuli_target_circlediamonds.svg	10	yes	53	1	907
6.6.1	mac	2022-11-07	14:14:02	14:18:16	251245	5c17294778ee390001ab19e5	997969023	1	main_slash	7	advance_on_keypress_SLASH	32	stimuli_distractor_trianglediamonds.svg	stimuli_target_circlediamonds.svg	10	yes	57	0	781
6.6.1	mac	2022-11-07	14:14:02	14:18:20	254667	5c17294778ee390001ab19e5	997969023	1	main_slash	7	main_slash	33	stimuli_distractor_diamondtriangles.svg	stimuli_distractor_trianglediamonds.svg	38	no	0	1	2000
6.6.1	mac	2022-11-07	14:14:02	14:18:20	254667	5c17294778ee390001ab19e5	997969023	1	main_slash	7	advance_on_keypress_SLASH	34	stimuli_distractor_diamondtriangles.svg	stimuli_distractor_trianglediamonds.svg	38	no	57	0	467
6.6.1	mac	2022-11-07	14:14:02	14:18:22	256670	5c17294778ee390001ab19e5	997969023	1	main_slash	7	main_slash	35	stimuli_distractor_diamondtriangles.svg	stimuli_target_circletriangles.svg	13	yes	53	1	899
6.6.1	mac	2022-11-07	14:14:02	14:18:22	256670	5c17294778ee390001ab19e5	997969023	1	main_slash	7	advance_on_keypress_SLASH	36	stimuli_distractor_diamondtriangles.svg	stimuli_target_circletriangles.svg	13	yes	57	0	596
6.6.1	mac	2022-11-07	14:14:02	14:18:25	259955	5c17294778ee390001ab19e5	997969023	1	main_slash	7	main_slash	37	stimuli_distractor_trianglediamonds.svg	stimuli_distractor_trianglediamonds.svg	33	no	0	1	2000
6.6.1	mac	2022-11-07	14:14:02	14:18:25	259955	5c17294778ee390001ab19e5	997969023	1	main_slash	7	advance_on_keypress_SLASH	38	stimuli_distractor_trianglediamonds.svg	stimuli_distractor_trianglediamonds.svg	33	no	57	0	760
6.6.1	mac	2022-11-07	14:14:02	14:18:28	263394	5c17294778ee390001ab19e5	997969023	1	main_slash	7	main_slash	39	stimuli_distractor_diamondtriangles.svg	stimuli_distractor_trianglediamonds.svg	37	no	0	1	2000
6.6.1	mac	2022-11-07	14:14:02	14:18:28	263394	5c17294778ee390001ab19e5	997969023	1	main_slash	7	advance_on_keypress_SLASH	40	stimuli_distractor_diamondtriangles.svg	stimuli_distractor_trianglediamonds.svg	37	no	57	0	418
6.6.1	mac	2022-11-07	14:14:02	14:18:31	266495	5c17294778ee390001ab19e5	997969023	1	main_slash	7	main_slash	41	stimuli_target_trianglesquares.svg	stimuli_distractor_trianglediamonds.svg	18	yes	0	0	2000
6.6.1	mac	2022-11-07	14:14:02	14:18:31	266495	5c17294778ee390001ab19e5	997969023	1	main_slash	7	advance_on_keypress_SLASH	42	stimuli_target_trianglesquares.svg	stimuli_distractor_trianglediamonds.svg	18	yes	57	0	427
6.6.1	mac	2022-11-07	14:14:02	14:18:33	268388	5c17294778ee390001ab19e5	997969023	1	main_slash	7	main_slash	43	stimuli_target_circlediamonds.svg	stimuli_distractor_trianglediamonds.svg	2	yes	53	1	792
6.6.1	mac	2022-11-07	14:14:02	14:18:33	268388	5c17294778ee390001ab19e5	997969023	1	main_slash	7	advance_on_keypress_SLASH	44	stimuli_target_circlediamonds.svg	stimuli_distractor_trianglediamonds.svg	2	yes	57	0	554
6.6.1	mac	2022-11-07	14:14:02	14:18:35	270381	5c17294778ee390001ab19e5	997969023	1	main_slash	7	main_slash	45	stimuli_distractor_diamondtriangles.svg	stimuli_target_diamondcircles.svg	31	yes	53	1	816
6.6.1	mac	2022-11-07	14:14:02	14:18:35	270381	5c17294778ee390001ab19e5	997969023	1	main_slash	7	advance_on_keypress_SLASH	46	stimuli_distractor_diamondtriangles.svg	stimuli_target_diamondcircles.svg	31	yes	57	0	574
6.6.1	mac	2022-11-07	14:14:02	14:18:37	272354	5c17294778ee390001ab19e5	997969023	1	main_slash	7	main_slash	47	stimuli_target_trianglecircles.svg	stimuli_distractor_trianglediamonds.svg	17	yes	53	1	717
6.6.1	mac	2022-11-07	14:14:02	14:18:37	272354	5c17294778ee390001ab19e5	997969023	1	main_slash	7	advance_on_keypress_SLASH	48	stimuli_target_trianglecircles.svg	stimuli_distractor_trianglediamonds.svg	17	yes	57	0	747
6.6.1	mac	2022-11-07	14:14:02	14:18:40	275183	5c17294778ee390001ab19e5	997969023	1	main_slash	7	main_slash	49	stimuli_target_squarediamonds.svg	stimuli_distractor_trianglediamonds.svg	4	yes	53	1	1445
6.6.1	mac	2022-11-07	14:14:02	14:18:40	275183	5c17294778ee390001ab19e5	997969023	1	main_slash	7	advance_on_keypress_SLASH	50	stimuli_target_squarediamonds.svg	stimuli_distractor_trianglediamonds.svg	4	yes	57	0	535
6.6.1	mac	2022-11-07	14:14:02	14:18:43	278340	5c17294778ee390001ab19e5	997969023	1	main_slash	7	main_slash	51	stimuli_distractor_diamondtriangles.svg	stimuli_distractor_diamondtriangles.svg	39	no	0	1	2000
6.6.1	mac	2022-11-07	14:14:02	14:18:43	278340	5c17294778ee390001ab19e5	997969023	1	main_slash	7	advance_on_keypress_SLASH	52	stimuli_distractor_diamondtriangles.svg	stimuli_distractor_diamondtriangles.svg	39	no	57	0	536
6.6.1	mac	2022-11-07	14:14:02	14:18:46	280688	5c17294778ee390001ab19e5	997969023	1	main_slash	7	main_slash	53	stimuli_distractor_trianglediamonds.svg	stimuli_distractor_diamondtriangles.svg	36	no	53	0	1127
6.6.1	mac	2022-11-07	14:14:02	14:18:46	280688	5c17294778ee390001ab19e5	997969023	1	main_slash	7	advance_on_keypress_SLASH	54	stimuli_distractor_trianglediamonds.svg	stimuli_distractor_diamondtriangles.svg	36	no	57	0	585
6.6.1	mac	2022-11-07	14:14:02	14:18:48	282902	5c17294778ee390001ab19e5	997969023	1	main_slash	7	main_slash	55	stimuli_distractor_diamondtriangles.svg	stimuli_target_trianglesquares.svg	30	yes	53	1	991
6.6.1	mac	2022-11-07	14:14:02	14:18:48	282902	5c17294778ee390001ab19e5	997969023	1	main_slash	7	advance_on_keypress_SLASH	56	stimuli_distractor_diamondtriangles.svg	stimuli_target_trianglesquares.svg	30	yes	57	0	538
6.6.1	mac	2022-11-07	14:14:02	14:18:50	284913	5c17294778ee390001ab19e5	997969023	1	main_slash	7	main_slash	57	stimuli_target_circletriangles.svg	stimuli_distractor_trianglediamonds.svg	1	yes	53	1	850
6.6.1	mac	2022-11-07	14:14:02	14:18:50	284913	5c17294778ee390001ab19e5	997969023	1	main_slash	7	advance_on_keypress_SLASH	58	stimuli_target_circletriangles.svg	stimuli_distractor_trianglediamonds.svg	1	yes	57	0	400
6.6.1	mac	2022-11-07	14:14:02	14:18:52	286671	5c17294778ee390001ab19e5	997969023	1	main_slash	7	main_slash	59	stimuli_distractor_trianglediamonds.svg	stimuli_target_diamondcircles.svg	27	yes	53	1	722
6.6.1	mac	2022-11-07	14:14:02	14:18:52	286671	5c17294778ee390001ab19e5	997969023	1	main_slash	7	advance_on_keypress_SLASH	60	stimuli_distractor_trianglediamonds.svg	stimuli_target_diamondcircles.svg	27	yes	57	0	478
6.6.1	mac	2022-11-07	14:14:02	14:18:54	288664	5c17294778ee390001ab19e5	997969023	1	main_slash	7	main_slash	61	stimuli_target_circlediamonds.svg	stimuli_distractor_diamondtriangles.svg	6	yes	53	1	878
6.6.1	mac	2022-11-07	14:14:02	14:18:54	288664	5c17294778ee390001ab19e5	997969023	1	main_slash	7	advance_on_keypress_SLASH	62	stimuli_target_circlediamonds.svg	stimuli_distractor_diamondtriangles.svg	6	yes	57	0	425
6.6.1	mac	2022-11-07	14:14:02	14:18:55	290441	5c17294778ee390001ab19e5	997969023	1	main_slash	7	main_slash	63	stimuli_distractor_diamondtriangles.svg	stimuli_target_trianglecircles.svg	29	yes	53	1	707
6.6.1	mac	2022-11-07	14:14:02	14:18:55	290441	5c17294778ee390001ab19e5	997969023	1	main_slash	7	advance_on_keypress_SLASH	64	stimuli_distractor_diamondtriangles.svg	stimuli_target_trianglecircles.svg	29	yes	57	0	445
6.6.1	mac	2022-11-07	14:14:02	14:18:57	292468	5c17294778ee390001ab19e5	997969023	1	main_slash	7	main_slash	65	stimuli_distractor_diamondtriangles.svg	stimuli_target_diamondsquares.svg	32	yes	53	1	926
6.6.1	mac	2022-11-07	14:14:02	14:18:57	292468	5c17294778ee390001ab19e5	997969023	1	main_slash	7	advance_on_keypress_SLASH	66	stimuli_distractor_diamondtriangles.svg	stimuli_target_diamondsquares.svg	32	yes	57	0	447
6.6.1	mac	2022-11-07	14:14:02	14:18:59	294476	5c17294778ee390001ab19e5	997969023	1	main_slash	7	main_slash	67	stimuli_target_squarediamonds.svg	stimuli_distractor_diamondtriangles.svg	8	yes	53	1	921
6.6.1	mac	2022-11-07	14:14:02	14:18:59	294476	5c17294778ee390001ab19e5	997969023	1	main_slash	7	advance_on_keypress_SLASH	68	stimuli_target_squarediamonds.svg	stimuli_distractor_diamondtriangles.svg	8	yes	57	0	377
6.6.1	mac	2022-11-07	14:14:02	14:19:02	297190	5c17294778ee390001ab19e5	997969023	1	main_slash	7	main_slash	69	stimuli_distractor_diamondtriangles.svg	stimuli_target_squaretriangles.svg	15	yes	53	1	1686
6.6.1	mac	2022-11-07	14:14:02	14:19:02	297190	5c17294778ee390001ab19e5	997969023	1	main_slash	7	advance_on_keypress_SLASH	70	stimuli_distractor_diamondtriangles.svg	stimuli_target_squaretriangles.svg	15	yes	57	0	436
6.6.1	mac	2022-11-07	14:14:02	14:19:04	299179	5c17294778ee390001ab19e5	997969023	1	main_slash	7	main_slash	71	stimuli_distractor_trianglediamonds.svg	stimuli_target_trianglecircles.svg	25	yes	53	1	905
6.6.1	mac	2022-11-07	14:14:02	14:19:04	299179	5c17294778ee390001ab19e5	997969023	1	main_slash	7	advance_on_keypress_SLASH	72	stimuli_distractor_trianglediamonds.svg	stimuli_target_trianglecircles.svg	25	yes	57	0	409
6.6.1	mac	2022-11-07	14:14:02	14:19:06	301192	5c17294778ee390001ab19e5	997969023	1	main_slash	7	main_slash	73	stimuli_distractor_diamondtriangles.svg	stimuli_distractor_diamondtriangles.svg	40	no	53	0	946
6.6.1	mac	2022-11-07	14:14:02	14:19:06	301192	5c17294778ee390001ab19e5	997969023	1	main_slash	7	advance_on_keypress_SLASH	74	stimuli_distractor_diamondtriangles.svg	stimuli_distractor_diamondtriangles.svg	40	no	57	0	425
6.6.1	mac	2022-11-07	14:14:02	14:19:08	303063	5c17294778ee390001ab19e5	997969023	1	main_slash	7	main_slash	75	stimuli_target_trianglecircles.svg	stimuli_distractor_diamondtriangles.svg	21	yes	53	1	799
6.6.1	mac	2022-11-07	14:14:02	14:19:08	303063	5c17294778ee390001ab19e5	997969023	1	main_slash	7	advance_on_keypress_SLASH	76	stimuli_target_trianglecircles.svg	stimuli_distractor_diamondtriangles.svg	21	yes	57	0	492
6.6.1	mac	2022-11-07	14:14:02	14:19:10	305197	5c17294778ee390001ab19e5	997969023	1	main_slash	7	main_slash	77	stimuli_distractor_trianglediamonds.svg	stimuli_target_trianglesquares.svg	26	yes	53	1	1014
6.6.1	mac	2022-11-07	14:14:02	14:19:10	305197	5c17294778ee390001ab19e5	997969023	1	main_slash	7	advance_on_keypress_SLASH	78	stimuli_distractor_trianglediamonds.svg	stimuli_target_trianglesquares.svg	26	yes	57	0	479
6.6.1	mac	2022-11-07	14:14:02	14:19:12	307293	5c17294778ee390001ab19e5	997969023	1	main_slash	7	main_slash	79	stimuli_distractor_trianglediamonds.svg	stimuli_target_diamondsquares.svg	28	yes	53	1	971
6.6.1	mac	2022-11-07	14:14:02	14:19:12	307293	5c17294778ee390001ab19e5	997969023	1	main_slash	7	advance_on_keypress_SLASH	80	stimuli_distractor_trianglediamonds.svg	stimuli_target_diamondsquares.svg	28	yes	57	0	394
6.6.1	mac	2022-11-07	14:14:02	14:19:14	309339	5c17294778ee390001ab19e5	997969023	1	main_slash	7	main_slash	81	stimuli_distractor_trianglediamonds.svg	stimuli_target_circlediamonds.svg	10	yes	53	1	1038
6.6.1	mac	2022-11-07	14:14:02	14:19:14	309339	5c17294778ee390001ab19e5	997969023	1	main_slash	7	advance_on_keypress_SLASH	82	stimuli_distractor_trianglediamonds.svg	stimuli_target_circlediamonds.svg	10	yes	57	0	374
6.6.1	mac	2022-11-07	14:14:02	14:19:17	312334	5c17294778ee390001ab19e5	997969023	1	main_slash	7	main_slash	83	stimuli_distractor_diamondtriangles.svg	stimuli_target_squaretriangles.svg	15	yes	0	0	2000
6.6.1	mac	2022-11-07	14:14:02	14:19:17	312334	5c17294778ee390001ab19e5	997969023	1	main_slash	7	advance_on_keypress_SLASH	84	stimuli_distractor_diamondtriangles.svg	stimuli_target_squaretriangles.svg	15	yes	57	0	496
6.6.1	mac	2022-11-07	14:14:02	14:19:19	314295	5c17294778ee390001ab19e5	997969023	1	main_slash	7	main_slash	85	stimuli_target_diamondsquares.svg	stimuli_distractor_trianglediamonds.svg	20	yes	53	1	774
6.6.1	mac	2022-11-07	14:14:02	14:19:19	314295	5c17294778ee390001ab19e5	997969023	1	main_slash	7	advance_on_keypress_SLASH	86	stimuli_target_diamondsquares.svg	stimuli_distractor_trianglediamonds.svg	20	yes	57	0	476
6.6.1	mac	2022-11-07	14:14:02	14:19:22	316908	5c17294778ee390001ab19e5	997969023	1	main_slash	7	main_slash	87	stimuli_distractor_diamondtriangles.svg	stimuli_distractor_trianglediamonds.svg	37	no	53	0	1504
6.6.1	mac	2022-11-07	14:14:02	14:19:22	316908	5c17294778ee390001ab19e5	997969023	1	main_slash	7	advance_on_keypress_SLASH	88	stimuli_distractor_diamondtriangles.svg	stimuli_distractor_trianglediamonds.svg	37	no	57	0	419
6.6.1	mac	2022-11-07	14:14:02	14:19:25	319954	5c17294778ee390001ab19e5	997969023	1	main_slash	7	main_slash	89	stimuli_distractor_diamondtriangles.svg	stimuli_distractor_diamondtriangles.svg	39	no	0	1	2000
6.6.1	mac	2022-11-07	14:14:02	14:19:25	319954	5c17294778ee390001ab19e5	997969023	1	main_slash	7	advance_on_keypress_SLASH	90	stimuli_distractor_diamondtriangles.svg	stimuli_distractor_diamondtriangles.svg	39	no	57	0	557
6.6.1	mac	2022-11-07	14:14:02	14:19:27	322068	5c17294778ee390001ab19e5	997969023	1	main_slash	7	main_slash	91	stimuli_distractor_diamondtriangles.svg	stimuli_target_trianglecircles.svg	29	yes	53	1	891
6.6.1	mac	2022-11-07	14:14:02	14:19:27	322068	5c17294778ee390001ab19e5	997969023	1	main_slash	7	advance_on_keypress_SLASH	92	stimuli_distractor_diamondtriangles.svg	stimuli_target_trianglecircles.svg	29	yes	57	0	400
6.6.1	mac	2022-11-07	14:14:02	14:19:29	323956	5c17294778ee390001ab19e5	997969023	1	main_slash	7	main_slash	93	stimuli_target_diamondsquares.svg	stimuli_distractor_diamondtriangles.svg	24	yes	53	1	861
6.6.1	mac	2022-11-07	14:14:02	14:19:29	323956	5c17294778ee390001ab19e5	997969023	1	main_slash	7	advance_on_keypress_SLASH	94	stimuli_target_diamondsquares.svg	stimuli_distractor_diamondtriangles.svg	24	yes	57	0	328
6.6.1	mac	2022-11-07	14:14:02	14:19:32	326979	5c17294778ee390001ab19e5	997969023	1	main_slash	7	main_slash	95	stimuli_target_squarediamonds.svg	stimuli_distractor_diamondtriangles.svg	8	yes	0	0	2000
6.6.1	mac	2022-11-07	14:14:02	14:19:32	326979	5c17294778ee390001ab19e5	997969023	1	main_slash	7	advance_on_keypress_SLASH	96	stimuli_target_squarediamonds.svg	stimuli_distractor_diamondtriangles.svg	8	yes	57	0	388
6.6.1	mac	2022-11-07	14:14:02	14:19:35	329635	5c17294778ee390001ab19e5	997969023	1	main_slash	7	main_slash	97	stimuli_distractor_trianglediamonds.svg	stimuli_target_squaretriangles.svg	11	yes	53	1	1603
6.6.1	mac	2022-11-07	14:14:02	14:19:35	329635	5c17294778ee390001ab19e5	997969023	1	main_slash	7	advance_on_keypress_SLASH	98	stimuli_distractor_trianglediamonds.svg	stimuli_target_squaretriangles.svg	11	yes	57	0	410
6.6.1	mac	2022-11-07	14:14:02	14:19:38	332683	5c17294778ee390001ab19e5	997969023	1	main_slash	7	main_slash	99	stimuli_distractor_trianglediamonds.svg	stimuli_distractor_trianglediamonds.svg	34	no	0	1	2000
6.6.1	mac	2022-11-07	14:14:02	14:19:38	332683	5c17294778ee390001ab19e5	997969023	1	main_slash	7	advance_on_keypress_SLASH	100	stimuli_distractor_trianglediamonds.svg	stimuli_distractor_trianglediamonds.svg	34	no	57	0	384
6.6.1	mac	2022-11-07	14:14:02	14:19:39	334231	5c17294778ee390001ab19e5	997969023	1	main_slash	7	main_slash	101	stimuli_target_trianglecircles.svg	stimuli_distractor_diamondtriangles.svg	21	yes	53	1	456
6.6.1	mac	2022-11-07	14:14:02	14:19:39	334231	5c17294778ee390001ab19e5	997969023	1	main_slash	7	advance_on_keypress_SLASH	102	stimuli_target_trianglecircles.svg	stimuli_distractor_diamondtriangles.svg	21	yes	57	0	666
6.6.1	mac	2022-11-07	14:14:02	14:19:42	337552	5c17294778ee390001ab19e5	997969023	1	main_slash	7	main_slash	103	stimuli_distractor_diamondtriangles.svg	stimuli_distractor_trianglediamonds.svg	38	no	0	1	2000
6.6.1	mac	2022-11-07	14:14:02	14:19:42	337552	5c17294778ee390001ab19e5	997969023	1	main_slash	7	advance_on_keypress_SLASH	104	stimuli_distractor_diamondtriangles.svg	stimuli_distractor_trianglediamonds.svg	38	no	57	0	1264
6.6.1	mac	2022-11-07	14:14:02	14:19:45	340233	5c17294778ee390001ab19e5	997969023	1	main_slash	7	main_slash	105	stimuli_distractor_trianglediamonds.svg	stimuli_target_trianglecircles.svg	25	yes	53	1	775
6.6.1	mac	2022-11-07	14:14:02	14:19:45	340233	5c17294778ee390001ab19e5	997969023	1	main_slash	7	advance_on_keypress_SLASH	106	stimuli_distractor_trianglediamonds.svg	stimuli_target_trianglecircles.svg	25	yes	57	0	412
6.6.1	mac	2022-11-07	14:14:02	14:19:47	342180	5c17294778ee390001ab19e5	997969023	1	main_slash	7	main_slash	107	stimuli_distractor_diamondtriangles.svg	stimuli_target_diamondsquares.svg	32	yes	53	1	877
6.6.1	mac	2022-11-07	14:14:02	14:19:47	342180	5c17294778ee390001ab19e5	997969023	1	main_slash	7	advance_on_keypress_SLASH	108	stimuli_distractor_diamondtriangles.svg	stimuli_target_diamondsquares.svg	32	yes	57	0	508
6.6.1	mac	2022-11-07	14:14:02	14:19:49	344513	5c17294778ee390001ab19e5	997969023	1	main_slash	7	main_slash	109	stimuli_distractor_diamondtriangles.svg	stimuli_target_circletriangles.svg	13	yes	53	1	1192
6.6.1	mac	2022-11-07	14:14:02	14:19:49	344513	5c17294778ee390001ab19e5	997969023	1	main_slash	7	advance_on_keypress_SLASH	110	stimuli_distractor_diamondtriangles.svg	stimuli_target_circletriangles.svg	13	yes	57	0	539
6.6.1	mac	2022-11-07	14:14:02	14:19:52	346825	5c17294778ee390001ab19e5	997969023	1	main_slash	7	main_slash	111	stimuli_distractor_diamondtriangles.svg	stimuli_target_squarediamonds.svg	16	yes	53	1	1152
6.6.1	mac	2022-11-07	14:14:02	14:19:52	346825	5c17294778ee390001ab19e5	997969023	1	main_slash	7	advance_on_keypress_SLASH	112	stimuli_distractor_diamondtriangles.svg	stimuli_target_squarediamonds.svg	16	yes	57	0	403
6.6.1	mac	2022-11-07	14:14:02	14:19:55	349909	5c17294778ee390001ab19e5	997969023	1	main_slash	7	main_slash	113	stimuli_target_squarediamonds.svg	stimuli_distractor_trianglediamonds.svg	4	yes	0	0	2000
6.6.1	mac	2022-11-07	14:14:02	14:19:55	349909	5c17294778ee390001ab19e5	997969023	1	main_slash	7	advance_on_keypress_SLASH	114	stimuli_target_squarediamonds.svg	stimuli_distractor_trianglediamonds.svg	4	yes	57	0	340
6.6.1	mac	2022-11-07	14:14:02	14:19:57	352575	5c17294778ee390001ab19e5	997969023	1	main_slash	7	main_slash	115	stimuli_distractor_diamondtriangles.svg	stimuli_target_circlediamonds.svg	14	yes	53	1	1618
6.6.1	mac	2022-11-07	14:14:02	14:19:57	352575	5c17294778ee390001ab19e5	997969023	1	main_slash	7	advance_on_keypress_SLASH	116	stimuli_distractor_diamondtriangles.svg	stimuli_target_circlediamonds.svg	14	yes	57	0	305
6.6.1	mac	2022-11-07	14:14:02	14:19:59	354516	5c17294778ee390001ab19e5	997969023	1	main_slash	7	main_slash	117	stimuli_distractor_diamondtriangles.svg	stimuli_target_trianglesquares.svg	30	yes	53	1	986
6.6.1	mac	2022-11-07	14:14:02	14:19:59	354516	5c17294778ee390001ab19e5	997969023	1	main_slash	7	advance_on_keypress_SLASH	118	stimuli_distractor_diamondtriangles.svg	stimuli_target_trianglesquares.svg	30	yes	57	0	355
6.6.1	mac	2022-11-07	14:14:02	14:20:01	356447	5c17294778ee390001ab19e5	997969023	1	main_slash	7	main_slash	119	stimuli_distractor_diamondtriangles.svg	stimuli_target_diamondcircles.svg	31	yes	53	1	949
6.6.1	mac	2022-11-07	14:14:02	14:20:01	356447	5c17294778ee390001ab19e5	997969023	1	main_slash	7	advance_on_keypress_SLASH	120	stimuli_distractor_diamondtriangles.svg	stimuli_target_diamondcircles.svg	31	yes	57	0	495
6.6.1	mac	2022-11-07	14:14:02	14:20:05	359630	5c17294778ee390001ab19e5	997969023	1	main_slash	7	main_slash	121	stimuli_distractor_trianglediamonds.svg	stimuli_distractor_diamondtriangles.svg	35	no	0	1	2000
6.6.1	mac	2022-11-07	14:14:02	14:20:05	359630	5c17294778ee390001ab19e5	997969023	1	main_slash	7	advance_on_keypress_SLASH	122	stimuli_distractor_trianglediamonds.svg	stimuli_distractor_diamondtriangles.svg	35	no	57	0	421
6.6.1	mac	2022-11-07	14:14:02	14:20:06	361432	5c17294778ee390001ab19e5	997969023	1	main_slash	7	main_slash	123	stimuli_target_trianglecircles.svg	stimuli_distractor_trianglediamonds.svg	17	yes	53	1	748
6.6.1	mac	2022-11-07	14:14:02	14:20:06	361432	5c17294778ee390001ab19e5	997969023	1	main_slash	7	advance_on_keypress_SLASH	124	stimuli_target_trianglecircles.svg	stimuli_distractor_trianglediamonds.svg	17	yes	57	0	322
6.6.1	mac	2022-11-07	14:14:02	14:20:09	364406	5c17294778ee390001ab19e5	997969023	1	main_slash	7	main_slash	125	stimuli_distractor_trianglediamonds.svg	stimuli_target_squarediamonds.svg	12	yes	0	0	2000
6.6.1	mac	2022-11-07	14:14:02	14:20:09	364406	5c17294778ee390001ab19e5	997969023	1	main_slash	7	advance_on_keypress_SLASH	126	stimuli_distractor_trianglediamonds.svg	stimuli_target_squarediamonds.svg	12	yes	57	0	329
6.6.1	mac	2022-11-07	14:14:02	14:20:12	366780	5c17294778ee390001ab19e5	997969023	1	main_slash	7	main_slash	127	stimuli_target_circletriangles.svg	stimuli_distractor_diamondtriangles.svg	5	yes	53	1	1409
6.6.1	mac	2022-11-07	14:14:02	14:20:12	366780	5c17294778ee390001ab19e5	997969023	1	main_slash	7	advance_on_keypress_SLASH	128	stimuli_target_circletriangles.svg	stimuli_distractor_diamondtriangles.svg	5	yes	57	0	301
6.6.1	mac	2022-11-07	14:14:02	14:20:15	369771	5c17294778ee390001ab19e5	997969023	1	main_slash	7	main_slash	129	stimuli_distractor_trianglediamonds.svg	stimuli_distractor_diamondtriangles.svg	36	no	0	1	2000
6.6.1	mac	2022-11-07	14:14:02	14:20:15	369771	5c17294778ee390001ab19e5	997969023	1	main_slash	7	advance_on_keypress_SLASH	130	stimuli_distractor_trianglediamonds.svg	stimuli_distractor_diamondtriangles.svg	36	no	57	0	369
6.6.1	mac	2022-11-07	14:14:02	14:20:17	372219	5c17294778ee390001ab19e5	997969023	1	main_slash	7	main_slash	131	stimuli_target_squaretriangles.svg	stimuli_distractor_diamondtriangles.svg	7	yes	53	1	1396
6.6.1	mac	2022-11-07	14:14:02	14:20:17	372219	5c17294778ee390001ab19e5	997969023	1	main_slash	7	advance_on_keypress_SLASH	132	stimuli_target_squaretriangles.svg	stimuli_distractor_diamondtriangles.svg	7	yes	57	0	409
6.6.1	mac	2022-11-07	14:14:02	14:20:19	374312	5c17294778ee390001ab19e5	997969023	1	main_slash	7	main_slash	133	stimuli_target_diamondcircles.svg	stimuli_distractor_diamondtriangles.svg	23	yes	53	1	1050
6.6.1	mac	2022-11-07	14:14:02	14:20:19	374312	5c17294778ee390001ab19e5	997969023	1	main_slash	7	advance_on_keypress_SLASH	134	stimuli_target_diamondcircles.svg	stimuli_distractor_diamondtriangles.svg	23	yes	57	0	376
6.6.1	mac	2022-11-07	14:14:02	14:20:22	377328	5c17294778ee390001ab19e5	997969023	1	main_slash	7	main_slash	135	stimuli_target_circlediamonds.svg	stimuli_distractor_diamondtriangles.svg	6	yes	0	0	2000
6.6.1	mac	2022-11-07	14:14:02	14:20:22	377328	5c17294778ee390001ab19e5	997969023	1	main_slash	7	advance_on_keypress_SLASH	136	stimuli_target_circlediamonds.svg	stimuli_distractor_diamondtriangles.svg	6	yes	57	0	339
6.6.1	mac	2022-11-07	14:14:02	14:20:24	379327	5c17294778ee390001ab19e5	997969023	1	main_slash	7	main_slash	137	stimuli_distractor_trianglediamonds.svg	stimuli_target_trianglesquares.svg	26	yes	53	1	1029
6.6.1	mac	2022-11-07	14:14:02	14:20:24	379327	5c17294778ee390001ab19e5	997969023	1	main_slash	7	advance_on_keypress_SLASH	138	stimuli_distractor_trianglediamonds.svg	stimuli_target_trianglesquares.svg	26	yes	57	0	463
6.6.1	mac	2022-11-07	14:14:02	14:20:26	381226	5c17294778ee390001ab19e5	997969023	1	main_slash	7	main_slash	139	stimuli_distractor_trianglediamonds.svg	stimuli_target_diamondsquares.svg	28	yes	53	1	795
6.6.1	mac	2022-11-07	14:14:02	14:20:26	381226	5c17294778ee390001ab19e5	997969023	1	main_slash	7	advance_on_keypress_SLASH	140	stimuli_distractor_trianglediamonds.svg	stimuli_target_diamondsquares.svg	28	yes	57	0	368
6.6.1	mac	2022-11-07	14:14:02	14:20:28	383079	5c17294778ee390001ab19e5	997969023	1	main_slash	7	main_slash	141	stimuli_distractor_trianglediamonds.svg	stimuli_target_diamondcircles.svg	27	yes	53	1	848
6.6.1	mac	2022-11-07	14:14:02	14:20:28	383079	5c17294778ee390001ab19e5	997969023	1	main_slash	7	advance_on_keypress_SLASH	142	stimuli_distractor_trianglediamonds.svg	stimuli_target_diamondcircles.svg	27	yes	57	0	325
6.6.1	mac	2022-11-07	14:14:02	14:20:30	384804	5c17294778ee390001ab19e5	997969023	1	main_slash	7	main_slash	143	stimuli_distractor_diamondtriangles.svg	stimuli_distractor_diamondtriangles.svg	40	no	53	0	716
6.6.1	mac	2022-11-07	14:14:02	14:20:30	384804	5c17294778ee390001ab19e5	997969023	1	main_slash	7	advance_on_keypress_SLASH	144	stimuli_distractor_diamondtriangles.svg	stimuli_distractor_diamondtriangles.svg	40	no	57	0	590
6.6.1	mac	2022-11-07	14:14:02	14:20:33	388017	5c17294778ee390001ab19e5	997969023	1	main_slash	7	main_slash	145	stimuli_distractor_trianglediamonds.svg	stimuli_distractor_trianglediamonds.svg	33	no	0	1	2000
6.6.1	mac	2022-11-07	14:14:02	14:20:33	388017	5c17294778ee390001ab19e5	997969023	1	main_slash	7	advance_on_keypress_SLASH	146	stimuli_distractor_trianglediamonds.svg	stimuli_distractor_trianglediamonds.svg	33	no	57	0	593
6.6.1	mac	2022-11-07	14:14:02	14:20:36	391046	5c17294778ee390001ab19e5	997969023	1	main_slash	7	main_slash	147	stimuli_target_trianglesquares.svg	stimuli_distractor_diamondtriangles.svg	22	yes	53	1	1759
6.6.1	mac	2022-11-07	14:14:02	14:20:36	391046	5c17294778ee390001ab19e5	997969023	1	main_slash	7	advance_on_keypress_SLASH	148	stimuli_target_trianglesquares.svg	stimuli_distractor_diamondtriangles.svg	22	yes	57	0	382
6.6.1	mac	2022-11-07	14:14:02	14:20:38	393400	5c17294778ee390001ab19e5	997969023	1	main_slash	7	main_slash	149	stimuli_target_circletriangles.svg	stimuli_distractor_trianglediamonds.svg	1	yes	53	1	1342
6.6.1	mac	2022-11-07	14:14:02	14:20:38	393400	5c17294778ee390001ab19e5	997969023	1	main_slash	7	advance_on_keypress_SLASH	150	stimuli_target_circletriangles.svg	stimuli_distractor_trianglediamonds.svg	1	yes	57	0	342
6.6.1	mac	2022-11-07	14:14:02	14:20:40	395202	5c17294778ee390001ab19e5	997969023	1	main_slash	7	main_slash	151	stimuli_target_diamondcircles.svg	stimuli_distractor_trianglediamonds.svg	19	yes	53	1	841
6.6.1	mac	2022-11-07	14:14:02	14:20:40	395202	5c17294778ee390001ab19e5	997969023	1	main_slash	7	advance_on_keypress_SLASH	152	stimuli_target_diamondcircles.svg	stimuli_distractor_trianglediamonds.svg	19	yes	57	0	384
6.6.1	mac	2022-11-07	14:14:02	14:20:42	397156	5c17294778ee390001ab19e5	997969023	1	main_slash	7	main_slash	153	stimuli_target_squaretriangles.svg	stimuli_distractor_trianglediamonds.svg	3	yes	53	1	946
6.6.1	mac	2022-11-07	14:14:02	14:20:42	397156	5c17294778ee390001ab19e5	997969023	1	main_slash	7	advance_on_keypress_SLASH	154	stimuli_target_squaretriangles.svg	stimuli_distractor_trianglediamonds.svg	3	yes	57	0	326
6.6.1	mac	2022-11-07	14:14:02	14:20:44	398915	5c17294778ee390001ab19e5	997969023	1	main_slash	7	main_slash	155	stimuli_target_trianglesquares.svg	stimuli_distractor_trianglediamonds.svg	18	yes	53	1	752
6.6.1	mac	2022-11-07	14:14:02	14:20:44	398915	5c17294778ee390001ab19e5	997969023	1	main_slash	7	advance_on_keypress_SLASH	156	stimuli_target_trianglesquares.svg	stimuli_distractor_trianglediamonds.svg	18	yes	57	0	523
6.6.1	mac	2022-11-07	14:14:02	14:20:47	401646	5c17294778ee390001ab19e5	997969023	1	main_slash	7	main_slash	157	stimuli_distractor_trianglediamonds.svg	stimuli_target_circletriangles.svg	9	yes	53	1	1584
6.6.1	mac	2022-11-07	14:14:02	14:20:47	401646	5c17294778ee390001ab19e5	997969023	1	main_slash	7	advance_on_keypress_SLASH	158	stimuli_distractor_trianglediamonds.svg	stimuli_target_circletriangles.svg	9	yes	57	0	359
6.6.1	mac	2022-11-07	14:14:02	14:20:49	403748	5c17294778ee390001ab19e5	997969023	1	main_slash	7	main_slash	159	stimuli_target_circlediamonds.svg	stimuli_distractor_trianglediamonds.svg	2	yes	53	1	1045
6.6.1	mac	2022-11-07	14:14:02	14:20:49	403748	5c17294778ee390001ab19e5	997969023	1	main_slash	7	advance_on_keypress_SLASH	160	stimuli_target_circlediamonds.svg	stimuli_distractor_trianglediamonds.svg	2	yes	57	0	287
6.6.1	mac	2022-11-07	14:14:02	14:21:07	422343	5c17294778ee390001ab19e5	997969023	1	practice_z	9	practice_z	1	stimuli_distractor_diamondtriangles.svg	stimuli_target_diamondcircles.svg	8	yes	44	1	957
6.6.1	mac	2022-11-07	14:14:02	14:21:07	422343	5c17294778ee390001ab19e5	997969023	1	practice_z	9	advance_on_keypress_ZEE	2	stimuli_distractor_diamondtriangles.svg	stimuli_target_diamondcircles.svg	8	yes	57	0	385
6.6.1	mac	2022-11-07	14:14:02	14:21:10	425365	5c17294778ee390001ab19e5	997969023	1	practice_z	9	practice_z	3	stimuli_target_squarediamonds.svg	stimuli_distractor_trianglediamonds.svg	5	yes	44	1	975
6.6.1	mac	2022-11-07	14:14:02	14:21:10	425365	5c17294778ee390001ab19e5	997969023	1	practice_z	9	advance_on_keypress_ZEE	4	stimuli_target_squarediamonds.svg	stimuli_distractor_trianglediamonds.svg	5	yes	57	0	509
6.6.1	mac	2022-11-07	14:14:02	14:21:13	428293	5c17294778ee390001ab19e5	997969023	1	practice_z	9	practice_z	5	stimuli_target_circlediamonds.svg	stimuli_distractor_diamondtriangles.svg	1	yes	44	1	770
6.6.1	mac	2022-11-07	14:14:02	14:21:13	428293	5c17294778ee390001ab19e5	997969023	1	practice_z	9	advance_on_keypress_ZEE	6	stimuli_target_circlediamonds.svg	stimuli_distractor_diamondtriangles.svg	1	yes	57	0	737
6.6.1	mac	2022-11-07	14:14:02	14:21:17	432386	5c17294778ee390001ab19e5	997969023	1	practice_z	9	practice_z	7	stimuli_distractor_diamondtriangles.svg	stimuli_distractor_trianglediamonds.svg	14	no	44	0	1694
6.6.1	mac	2022-11-07	14:14:02	14:21:17	432386	5c17294778ee390001ab19e5	997969023	1	practice_z	9	advance_on_keypress_ZEE	8	stimuli_distractor_diamondtriangles.svg	stimuli_distractor_trianglediamonds.svg	14	no	57	0	365
6.6.1	mac	2022-11-07	14:14:02	14:21:20	435191	5c17294778ee390001ab19e5	997969023	1	practice_z	9	practice_z	9	stimuli_distractor_diamondtriangles.svg	stimuli_target_trianglecircles.svg	9	yes	44	1	799
6.6.1	mac	2022-11-07	14:14:02	14:21:20	435191	5c17294778ee390001ab19e5	997969023	1	practice_z	9	advance_on_keypress_ZEE	10	stimuli_distractor_diamondtriangles.svg	stimuli_target_trianglecircles.svg	9	yes	57	0	464
6.6.1	mac	2022-11-07	14:14:02	14:21:24	438712	5c17294778ee390001ab19e5	997969023	1	practice_z	9	practice_z	11	stimuli_distractor_diamondtriangles.svg	stimuli_distractor_diamondtriangles.svg	13	no	44	0	1418
6.6.1	mac	2022-11-07	14:14:02	14:21:24	438712	5c17294778ee390001ab19e5	997969023	1	practice_z	9	advance_on_keypress_ZEE	12	stimuli_distractor_diamondtriangles.svg	stimuli_distractor_diamondtriangles.svg	13	no	57	0	476
6.6.1	mac	2022-11-07	14:14:02	14:21:28	442822	5c17294778ee390001ab19e5	997969023	1	practice_z	9	practice_z	13	stimuli_target_diamondsquares.svg	stimuli_distractor_trianglediamonds.svg	6	yes	0	0	2000
6.6.1	mac	2022-11-07	14:14:02	14:21:28	442822	5c17294778ee390001ab19e5	997969023	1	practice_z	9	advance_on_keypress_ZEE	14	stimuli_target_diamondsquares.svg	stimuli_distractor_trianglediamonds.svg	6	yes	57	0	420
6.6.1	mac	2022-11-07	14:14:02	14:21:31	445799	5c17294778ee390001ab19e5	997969023	1	practice_z	9	practice_z	15	stimuli_distractor_trianglediamonds.svg	stimuli_target_squarediamonds.svg	11	yes	44	1	916
6.6.1	mac	2022-11-07	14:14:02	14:21:31	445799	5c17294778ee390001ab19e5	997969023	1	practice_z	9	advance_on_keypress_ZEE	16	stimuli_distractor_trianglediamonds.svg	stimuli_target_squarediamonds.svg	11	yes	57	0	326
6.6.1	mac	2022-11-07	14:14:02	14:21:35	449766	5c17294778ee390001ab19e5	997969023	1	practice_z	9	practice_z	17	stimuli_target_squarediamonds.svg	stimuli_distractor_diamondtriangles.svg	2	yes	0	0	2000
6.6.1	mac	2022-11-07	14:14:02	14:21:35	449766	5c17294778ee390001ab19e5	997969023	1	practice_z	9	advance_on_keypress_ZEE	18	stimuli_target_squarediamonds.svg	stimuli_distractor_diamondtriangles.svg	2	yes	57	0	401
6.6.1	mac	2022-11-07	14:14:02	14:21:38	452672	5c17294778ee390001ab19e5	997969023	1	practice_z	9	practice_z	19	stimuli_distractor_trianglediamonds.svg	stimuli_target_circlediamonds.svg	10	yes	44	1	816
6.6.1	mac	2022-11-07	14:14:02	14:21:38	452672	5c17294778ee390001ab19e5	997969023	1	practice_z	9	advance_on_keypress_ZEE	20	stimuli_distractor_trianglediamonds.svg	stimuli_target_circlediamonds.svg	10	yes	57	0	292
6.6.1	mac	2022-11-07	14:14:02	14:21:41	456097	5c17294778ee390001ab19e5	997969023	1	practice_z	9	practice_z	21	stimuli_distractor_trianglediamonds.svg	stimuli_target_diamondcircles.svg	12	yes	44	1	1490
6.6.1	mac	2022-11-07	14:14:02	14:21:41	456097	5c17294778ee390001ab19e5	997969023	1	practice_z	9	advance_on_keypress_ZEE	22	stimuli_distractor_trianglediamonds.svg	stimuli_target_diamondcircles.svg	12	yes	57	0	312
6.6.1	mac	2022-11-07	14:14:02	14:21:44	458896	5c17294778ee390001ab19e5	997969023	1	practice_z	9	practice_z	23	stimuli_target_diamondsquares.svg	stimuli_distractor_diamondtriangles.svg	3	yes	44	1	837
6.6.1	mac	2022-11-07	14:14:02	14:21:44	458896	5c17294778ee390001ab19e5	997969023	1	practice_z	9	advance_on_keypress_ZEE	24	stimuli_target_diamondsquares.svg	stimuli_distractor_diamondtriangles.svg	3	yes	57	0	463
6.6.1	mac	2022-11-07	14:14:02	14:21:48	462992	5c17294778ee390001ab19e5	997969023	1	practice_z	9	practice_z	25	stimuli_distractor_trianglediamonds.svg	stimuli_distractor_trianglediamonds.svg	15	no	0	1	2000
6.6.1	mac	2022-11-07	14:14:02	14:21:48	462992	5c17294778ee390001ab19e5	997969023	1	practice_z	9	advance_on_keypress_ZEE	26	stimuli_distractor_trianglediamonds.svg	stimuli_distractor_trianglediamonds.svg	15	no	57	0	462
6.6.1	mac	2022-11-07	14:14:02	14:21:51	466036	5c17294778ee390001ab19e5	997969023	1	practice_z	9	practice_z	27	stimuli_target_circlediamonds.svg	stimuli_distractor_trianglediamonds.svg	4	yes	44	1	890
6.6.1	mac	2022-11-07	14:14:02	14:21:51	466036	5c17294778ee390001ab19e5	997969023	1	practice_z	9	advance_on_keypress_ZEE	28	stimuli_target_circlediamonds.svg	stimuli_distractor_trianglediamonds.svg	4	yes	57	0	297
6.6.1	mac	2022-11-07	14:14:02	14:21:54	468858	5c17294778ee390001ab19e5	997969023	1	practice_z	9	practice_z	29	stimuli_distractor_diamondtriangles.svg	stimuli_target_circletriangles.svg	7	yes	44	1	872
6.6.1	mac	2022-11-07	14:14:02	14:21:54	468858	5c17294778ee390001ab19e5	997969023	1	practice_z	9	advance_on_keypress_ZEE	30	stimuli_distractor_diamondtriangles.svg	stimuli_target_circletriangles.svg	7	yes	57	0	328
6.6.1	mac	2022-11-07	14:14:02	14:21:57	471600	5c17294778ee390001ab19e5	997969023	1	practice_z	9	practice_z	31	stimuli_distractor_trianglediamonds.svg	stimuli_distractor_diamondtriangles.svg	16	no	44	0	756
6.6.1	mac	2022-11-07	14:14:02	14:21:57	471600	5c17294778ee390001ab19e5	997969023	1	practice_z	9	advance_on_keypress_ZEE	32	stimuli_distractor_trianglediamonds.svg	stimuli_distractor_diamondtriangles.svg	16	no	57	0	348
6.6.1	mac	2022-11-07	14:14:02	14:22:01	475913	5c17294778ee390001ab19e5	997969023	1	main_z	11	main_z	1	stimuli_distractor_diamondtriangles.svg	stimuli_distractor_diamondtriangles.svg	40	no	44	0	1301
6.6.1	mac	2022-11-07	14:14:02	14:22:01	475913	5c17294778ee390001ab19e5	997969023	1	main_z	11	advance_on_keypress_ZEE	2	stimuli_distractor_diamondtriangles.svg	stimuli_distractor_diamondtriangles.svg	40	no	57	0	809
6.6.1	mac	2022-11-07	14:14:02	14:22:03	478073	5c17294778ee390001ab19e5	997969023	1	main_z	11	main_z	3	stimuli_target_circlediamonds.svg	stimuli_distractor_trianglediamonds.svg	2	yes	44	1	721
6.6.1	mac	2022-11-07	14:14:02	14:22:03	478073	5c17294778ee390001ab19e5	997969023	1	main_z	11	advance_on_keypress_ZEE	4	stimuli_target_circlediamonds.svg	stimuli_distractor_trianglediamonds.svg	2	yes	57	0	524
6.6.1	mac	2022-11-07	14:14:02	14:22:05	480357	5c17294778ee390001ab19e5	997969023	1	main_z	11	main_z	5	stimuli_distractor_trianglediamonds.svg	stimuli_distractor_trianglediamonds.svg	34	no	44	0	1138
6.6.1	mac	2022-11-07	14:14:02	14:22:05	480357	5c17294778ee390001ab19e5	997969023	1	main_z	11	advance_on_keypress_ZEE	6	stimuli_distractor_trianglediamonds.svg	stimuli_distractor_trianglediamonds.svg	34	no	57	0	506
6.6.1	mac	2022-11-07	14:14:02	14:22:08	482625	5c17294778ee390001ab19e5	997969023	1	main_z	11	main_z	7	stimuli_target_diamondsquares.svg	stimuli_distractor_trianglediamonds.svg	20	yes	44	1	1138
6.6.1	mac	2022-11-07	14:14:02	14:22:08	482625	5c17294778ee390001ab19e5	997969023	1	main_z	11	advance_on_keypress_ZEE	8	stimuli_target_diamondsquares.svg	stimuli_distractor_trianglediamonds.svg	20	yes	57	0	419
6.6.1	mac	2022-11-07	14:14:02	14:22:10	484713	5c17294778ee390001ab19e5	997969023	1	main_z	11	main_z	9	stimuli_distractor_diamondtriangles.svg	stimuli_target_squarediamonds.svg	16	yes	44	1	986
6.6.1	mac	2022-11-07	14:14:02	14:22:10	484713	5c17294778ee390001ab19e5	997969023	1	main_z	11	advance_on_keypress_ZEE	10	stimuli_distractor_diamondtriangles.svg	stimuli_target_squarediamonds.svg	16	yes	57	0	424
6.6.1	mac	2022-11-07	14:14:02	14:22:12	486641	5c17294778ee390001ab19e5	997969023	1	main_z	11	main_z	11	stimuli_target_diamondcircles.svg	stimuli_distractor_diamondtriangles.svg	23	yes	44	1	829
6.6.1	mac	2022-11-07	14:14:02	14:22:12	486641	5c17294778ee390001ab19e5	997969023	1	main_z	11	advance_on_keypress_ZEE	12	stimuli_target_diamondcircles.svg	stimuli_distractor_diamondtriangles.svg	23	yes	57	0	317
6.6.1	mac	2022-11-07	14:14:02	14:22:13	488204	5c17294778ee390001ab19e5	997969023	1	main_z	11	main_z	13	stimuli_distractor_diamondtriangles.svg	stimuli_distractor_trianglediamonds.svg	38	no	44	0	554
6.6.1	mac	2022-11-07	14:14:02	14:22:13	488204	5c17294778ee390001ab19e5	997969023	1	main_z	11	advance_on_keypress_ZEE	14	stimuli_distractor_diamondtriangles.svg	stimuli_distractor_trianglediamonds.svg	38	no	57	0	518
6.6.1	mac	2022-11-07	14:14:02	14:22:15	490085	5c17294778ee390001ab19e5	997969023	1	main_z	11	main_z	15	stimuli_target_trianglecircles.svg	stimuli_distractor_trianglediamonds.svg	17	yes	44	1	718
6.6.1	mac	2022-11-07	14:14:02	14:22:15	490085	5c17294778ee390001ab19e5	997969023	1	main_z	11	advance_on_keypress_ZEE	16	stimuli_target_trianglecircles.svg	stimuli_distractor_trianglediamonds.svg	17	yes	57	0	358
6.6.1	mac	2022-11-07	14:14:02	14:22:17	492409	5c17294778ee390001ab19e5	997969023	1	main_z	11	main_z	17	stimuli_distractor_trianglediamonds.svg	stimuli_target_circletriangles.svg	9	yes	44	1	1340
6.6.1	mac	2022-11-07	14:14:02	14:22:17	492409	5c17294778ee390001ab19e5	997969023	1	main_z	11	advance_on_keypress_ZEE	18	stimuli_distractor_trianglediamonds.svg	stimuli_target_circletriangles.svg	9	yes	57	0	613
6.6.1	mac	2022-11-07	14:14:02	14:22:21	495654	5c17294778ee390001ab19e5	997969023	1	main_z	11	main_z	19	stimuli_distractor_trianglediamonds.svg	stimuli_distractor_trianglediamonds.svg	33	no	0	1	2000
6.6.1	mac	2022-11-07	14:14:02	14:22:21	495654	5c17294778ee390001ab19e5	997969023	1	main_z	11	advance_on_keypress_ZEE	20	stimuli_distractor_trianglediamonds.svg	stimuli_distractor_trianglediamonds.svg	33	no	57	0	370
6.6.1	mac	2022-11-07	14:14:02	14:22:22	497387	5c17294778ee390001ab19e5	997969023	1	main_z	11	main_z	21	stimuli_distractor_trianglediamonds.svg	stimuli_target_trianglecircles.svg	25	yes	44	1	682
6.6.1	mac	2022-11-07	14:14:02	14:22:22	497387	5c17294778ee390001ab19e5	997969023	1	main_z	11	advance_on_keypress_ZEE	22	stimuli_distractor_trianglediamonds.svg	stimuli_target_trianglecircles.svg	25	yes	57	0	369
6.6.1	mac	2022-11-07	14:14:02	14:22:24	499045	5c17294778ee390001ab19e5	997969023	1	main_z	11	main_z	23	stimuli_distractor_diamondtriangles.svg	stimuli_target_circlediamonds.svg	14	yes	44	1	652
6.6.1	mac	2022-11-07	14:14:02	14:22:24	499045	5c17294778ee390001ab19e5	997969023	1	main_z	11	advance_on_keypress_ZEE	24	stimuli_distractor_diamondtriangles.svg	stimuli_target_circlediamonds.svg	14	yes	57	0	385
6.6.1	mac	2022-11-07	14:14:02	14:22:27	502059	5c17294778ee390001ab19e5	997969023	1	main_z	11	main_z	25	stimuli_distractor_trianglediamonds.svg	stimuli_distractor_diamondtriangles.svg	35	no	0	1	2000
6.6.1	mac	2022-11-07	14:14:02	14:22:27	502059	5c17294778ee390001ab19e5	997969023	1	main_z	11	advance_on_keypress_ZEE	26	stimuli_distractor_trianglediamonds.svg	stimuli_distractor_diamondtriangles.svg	35	no	57	0	328
6.6.1	mac	2022-11-07	14:14:02	14:22:29	503819	5c17294778ee390001ab19e5	997969023	1	main_z	11	main_z	27	stimuli_distractor_trianglediamonds.svg	stimuli_target_circlediamonds.svg	10	yes	44	1	768
6.6.1	mac	2022-11-07	14:14:02	14:22:29	503819	5c17294778ee390001ab19e5	997969023	1	main_z	11	advance_on_keypress_ZEE	28	stimuli_distractor_trianglediamonds.svg	stimuli_target_circlediamonds.svg	10	yes	57	0	361
6.6.1	mac	2022-11-07	14:14:02	14:22:31	505655	5c17294778ee390001ab19e5	997969023	1	main_z	11	main_z	29	stimuli_distractor_diamondtriangles.svg	stimuli_target_diamondcircles.svg	31	yes	44	1	837
6.6.1	mac	2022-11-07	14:14:02	14:22:31	505655	5c17294778ee390001ab19e5	997969023	1	main_z	11	advance_on_keypress_ZEE	30	stimuli_distractor_diamondtriangles.svg	stimuli_target_diamondcircles.svg	31	yes	57	0	471
6.6.1	mac	2022-11-07	14:14:02	14:22:32	507555	5c17294778ee390001ab19e5	997969023	1	main_z	11	main_z	31	stimuli_distractor_trianglediamonds.svg	stimuli_target_squaretriangles.svg	11	yes	44	1	801
6.6.1	mac	2022-11-07	14:14:02	14:22:32	507555	5c17294778ee390001ab19e5	997969023	1	main_z	11	advance_on_keypress_ZEE	32	stimuli_distractor_trianglediamonds.svg	stimuli_target_squaretriangles.svg	11	yes	57	0	803
6.6.1	mac	2022-11-07	14:14:02	14:22:35	509990	5c17294778ee390001ab19e5	997969023	1	main_z	11	main_z	33	stimuli_target_diamondsquares.svg	stimuli_distractor_diamondtriangles.svg	24	yes	44	1	913
6.6.1	mac	2022-11-07	14:14:02	14:22:35	509990	5c17294778ee390001ab19e5	997969023	1	main_z	11	advance_on_keypress_ZEE	34	stimuli_target_diamondsquares.svg	stimuli_distractor_diamondtriangles.svg	24	yes	57	0	327
6.6.1	mac	2022-11-07	14:14:02	14:22:37	511966	5c17294778ee390001ab19e5	997969023	1	main_z	11	main_z	35	stimuli_target_trianglesquares.svg	stimuli_distractor_diamondtriangles.svg	22	yes	44	1	987
6.6.1	mac	2022-11-07	14:14:02	14:22:37	511966	5c17294778ee390001ab19e5	997969023	1	main_z	11	advance_on_keypress_ZEE	36	stimuli_target_trianglesquares.svg	stimuli_distractor_diamondtriangles.svg	22	yes	57	0	342
6.6.1	mac	2022-11-07	14:14:02	14:22:39	513733	5c17294778ee390001ab19e5	997969023	1	main_z	11	main_z	37	stimuli_target_circletriangles.svg	stimuli_distractor_diamondtriangles.svg	5	yes	44	1	780
6.6.1	mac	2022-11-07	14:14:02	14:22:39	513733	5c17294778ee390001ab19e5	997969023	1	main_z	11	advance_on_keypress_ZEE	38	stimuli_target_circletriangles.svg	stimuli_distractor_diamondtriangles.svg	5	yes	57	0	411
6.6.1	mac	2022-11-07	14:14:02	14:22:40	515540	5c17294778ee390001ab19e5	997969023	1	main_z	11	main_z	39	stimuli_distractor_trianglediamonds.svg	stimuli_target_trianglesquares.svg	26	yes	44	1	753
6.6.1	mac	2022-11-07	14:14:02	14:22:40	515540	5c17294778ee390001ab19e5	997969023	1	main_z	11	advance_on_keypress_ZEE	40	stimuli_distractor_trianglediamonds.svg	stimuli_target_trianglesquares.svg	26	yes	57	0	450
6.6.1	mac	2022-11-07	14:14:02	14:22:42	517125	5c17294778ee390001ab19e5	997969023	1	main_z	11	main_z	41	stimuli_distractor_trianglediamonds.svg	stimuli_target_diamondcircles.svg	27	yes	44	1	503
6.6.1	mac	2022-11-07	14:14:02	14:22:42	517125	5c17294778ee390001ab19e5	997969023	1	main_z	11	advance_on_keypress_ZEE	42	stimuli_distractor_trianglediamonds.svg	stimuli_target_diamondcircles.svg	27	yes	57	0	463
6.6.1	mac	2022-11-07	14:14:02	14:22:45	520220	5c17294778ee390001ab19e5	997969023	1	main_z	11	main_z	43	stimuli_distractor_trianglediamonds.svg	stimuli_target_squarediamonds.svg	12	yes	0	0	2000
6.6.1	mac	2022-11-07	14:14:02	14:22:45	520220	5c17294778ee390001ab19e5	997969023	1	main_z	11	advance_on_keypress_ZEE	44	stimuli_distractor_trianglediamonds.svg	stimuli_target_squarediamonds.svg	12	yes	57	0	313
6.6.1	mac	2022-11-07	14:14:02	14:22:47	521909	5c17294778ee390001ab19e5	997969023	1	main_z	11	main_z	45	stimuli_target_squaretriangles.svg	stimuli_distractor_trianglediamonds.svg	3	yes	44	1	736
6.6.1	mac	2022-11-07	14:14:02	14:22:47	521909	5c17294778ee390001ab19e5	997969023	1	main_z	11	advance_on_keypress_ZEE	46	stimuli_target_squaretriangles.svg	stimuli_distractor_trianglediamonds.svg	3	yes	57	0	344
6.6.1	mac	2022-11-07	14:14:02	14:22:48	523565	5c17294778ee390001ab19e5	997969023	1	main_z	11	main_z	47	stimuli_target_squarediamonds.svg	stimuli_distractor_diamondtriangles.svg	8	yes	44	1	668
6.6.1	mac	2022-11-07	14:14:02	14:22:48	523565	5c17294778ee390001ab19e5	997969023	1	main_z	11	advance_on_keypress_ZEE	48	stimuli_target_squarediamonds.svg	stimuli_distractor_diamondtriangles.svg	8	yes	57	0	291
6.6.1	mac	2022-11-07	14:14:02	14:22:50	525103	5c17294778ee390001ab19e5	997969023	1	main_z	11	main_z	49	stimuli_target_diamondcircles.svg	stimuli_distractor_trianglediamonds.svg	19	yes	44	1	623
6.6.1	mac	2022-11-07	14:14:02	14:22:50	525103	5c17294778ee390001ab19e5	997969023	1	main_z	11	advance_on_keypress_ZEE	50	stimuli_target_diamondcircles.svg	stimuli_distractor_trianglediamonds.svg	19	yes	57	0	343
6.6.1	mac	2022-11-07	14:14:02	14:22:52	526820	5c17294778ee390001ab19e5	997969023	1	main_z	11	main_z	51	stimuli_distractor_diamondtriangles.svg	stimuli_target_diamondsquares.svg	32	yes	44	1	739
6.6.1	mac	2022-11-07	14:14:02	14:22:52	526820	5c17294778ee390001ab19e5	997969023	1	main_z	11	advance_on_keypress_ZEE	52	stimuli_distractor_diamondtriangles.svg	stimuli_target_diamondsquares.svg	32	yes	57	0	356
6.6.1	mac	2022-11-07	14:14:02	14:22:54	528784	5c17294778ee390001ab19e5	997969023	1	main_z	11	main_z	53	stimuli_distractor_diamondtriangles.svg	stimuli_target_squaretriangles.svg	15	yes	44	1	983
6.6.1	mac	2022-11-07	14:14:02	14:22:54	528784	5c17294778ee390001ab19e5	997969023	1	main_z	11	advance_on_keypress_ZEE	54	stimuli_distractor_diamondtriangles.svg	stimuli_target_squaretriangles.svg	15	yes	57	0	299
6.6.1	mac	2022-11-07	14:14:02	14:22:55	530505	5c17294778ee390001ab19e5	997969023	1	main_z	11	main_z	55	stimuli_target_circletriangles.svg	stimuli_distractor_trianglediamonds.svg	1	yes	44	1	736
6.6.1	mac	2022-11-07	14:14:02	14:22:55	530505	5c17294778ee390001ab19e5	997969023	1	main_z	11	advance_on_keypress_ZEE	56	stimuli_target_circletriangles.svg	stimuli_distractor_trianglediamonds.svg	1	yes	57	0	331
6.6.1	mac	2022-11-07	14:14:02	14:22:57	532194	5c17294778ee390001ab19e5	997969023	1	main_z	11	main_z	57	stimuli_distractor_diamondtriangles.svg	stimuli_target_circletriangles.svg	13	yes	44	1	724
6.6.1	mac	2022-11-07	14:14:02	14:22:57	532194	5c17294778ee390001ab19e5	997969023	1	main_z	11	advance_on_keypress_ZEE	58	stimuli_distractor_diamondtriangles.svg	stimuli_target_circletriangles.svg	13	yes	57	0	364
6.6.1	mac	2022-11-07	14:14:02	14:22:59	533903	5c17294778ee390001ab19e5	997969023	1	main_z	11	main_z	59	stimuli_target_circlediamonds.svg	stimuli_distractor_diamondtriangles.svg	6	yes	44	1	715
6.6.1	mac	2022-11-07	14:14:02	14:22:59	533903	5c17294778ee390001ab19e5	997969023	1	main_z	11	advance_on_keypress_ZEE	60	stimuli_target_circlediamonds.svg	stimuli_distractor_diamondtriangles.svg	6	yes	57	0	295
6.6.1	mac	2022-11-07	14:14:02	14:23:00	535371	5c17294778ee390001ab19e5	997969023	1	main_z	11	main_z	61	stimuli_target_squarediamonds.svg	stimuli_distractor_trianglediamonds.svg	4	yes	44	1	532
6.6.1	mac	2022-11-07	14:14:02	14:23:00	535371	5c17294778ee390001ab19e5	997969023	1	main_z	11	advance_on_keypress_ZEE	62	stimuli_target_squarediamonds.svg	stimuli_distractor_trianglediamonds.svg	4	yes	57	0	323
6.6.1	mac	2022-11-07	14:14:02	14:23:02	537170	5c17294778ee390001ab19e5	997969023	1	main_z	11	main_z	63	stimuli_distractor_trianglediamonds.svg	stimuli_target_diamondsquares.svg	28	yes	44	1	825
6.6.1	mac	2022-11-07	14:14:02	14:23:02	537170	5c17294778ee390001ab19e5	997969023	1	main_z	11	advance_on_keypress_ZEE	64	stimuli_distractor_trianglediamonds.svg	stimuli_target_diamondsquares.svg	28	yes	57	0	294
6.6.1	mac	2022-11-07	14:14:02	14:23:05	540106	5c17294778ee390001ab19e5	997969023	1	main_z	11	main_z	65	stimuli_distractor_diamondtriangles.svg	stimuli_distractor_diamondtriangles.svg	39	no	0	1	2000
6.6.1	mac	2022-11-07	14:14:02	14:23:05	540106	5c17294778ee390001ab19e5	997969023	1	main_z	11	advance_on_keypress_ZEE	66	stimuli_distractor_diamondtriangles.svg	stimuli_distractor_diamondtriangles.svg	39	no	57	0	321
6.6.1	mac	2022-11-07	14:14:02	14:23:07	542096	5c17294778ee390001ab19e5	997969023	1	main_z	11	main_z	67	stimuli_distractor_trianglediamonds.svg	stimuli_distractor_diamondtriangles.svg	36	no	44	0	1021
6.6.1	mac	2022-11-07	14:14:02	14:23:07	542096	5c17294778ee390001ab19e5	997969023	1	main_z	11	advance_on_keypress_ZEE	68	stimuli_distractor_trianglediamonds.svg	stimuli_distractor_diamondtriangles.svg	36	no	57	0	428
6.6.1	mac	2022-11-07	14:14:02	14:23:09	544210	5c17294778ee390001ab19e5	997969023	1	main_z	11	main_z	69	stimuli_target_trianglesquares.svg	stimuli_distractor_trianglediamonds.svg	18	yes	44	1	1052
6.6.1	mac	2022-11-07	14:14:02	14:23:09	544210	5c17294778ee390001ab19e5	997969023	1	main_z	11	advance_on_keypress_ZEE	70	stimuli_target_trianglesquares.svg	stimuli_distractor_trianglediamonds.svg	18	yes	57	0	280
6.6.1	mac	2022-11-07	14:14:02	14:23:11	546056	5c17294778ee390001ab19e5	997969023	1	main_z	11	main_z	71	stimuli_target_squaretriangles.svg	stimuli_distractor_diamondtriangles.svg	7	yes	44	1	861
6.6.1	mac	2022-11-07	14:14:02	14:23:11	546056	5c17294778ee390001ab19e5	997969023	1	main_z	11	advance_on_keypress_ZEE	72	stimuli_target_squaretriangles.svg	stimuli_distractor_diamondtriangles.svg	7	yes	57	0	293
6.6.1	mac	2022-11-07	14:14:02	14:23:13	547625	5c17294778ee390001ab19e5	997969023	1	main_z	11	main_z	73	stimuli_distractor_diamondtriangles.svg	stimuli_target_trianglesquares.svg	30	yes	44	1	631
6.6.1	mac	2022-11-07	14:14:02	14:23:13	547625	5c17294778ee390001ab19e5	997969023	1	main_z	11	advance_on_keypress_ZEE	74	stimuli_distractor_diamondtriangles.svg	stimuli_target_trianglesquares.svg	30	yes	57	0	256
6.6.1	mac	2022-11-07	14:14:02	14:23:15	550527	5c17294778ee390001ab19e5	997969023	1	main_z	11	main_z	75	stimuli_distractor_diamondtriangles.svg	stimuli_distractor_trianglediamonds.svg	37	no	0	1	2000
6.6.1	mac	2022-11-07	14:14:02	14:23:15	550527	5c17294778ee390001ab19e5	997969023	1	main_z	11	advance_on_keypress_ZEE	76	stimuli_distractor_diamondtriangles.svg	stimuli_distractor_trianglediamonds.svg	37	no	57	0	549
6.6.1	mac	2022-11-07	14:14:02	14:23:17	552471	5c17294778ee390001ab19e5	997969023	1	main_z	11	main_z	77	stimuli_target_trianglecircles.svg	stimuli_distractor_diamondtriangles.svg	21	yes	44	1	740
6.6.1	mac	2022-11-07	14:14:02	14:23:17	552471	5c17294778ee390001ab19e5	997969023	1	main_z	11	advance_on_keypress_ZEE	78	stimuli_target_trianglecircles.svg	stimuli_distractor_diamondtriangles.svg	21	yes	57	0	298
6.6.1	mac	2022-11-07	14:14:02	14:23:19	553960	5c17294778ee390001ab19e5	997969023	1	main_z	11	main_z	79	stimuli_distractor_diamondtriangles.svg	stimuli_target_trianglecircles.svg	29	yes	44	1	555
6.6.1	mac	2022-11-07	14:14:02	14:23:19	553960	5c17294778ee390001ab19e5	997969023	1	main_z	11	advance_on_keypress_ZEE	80	stimuli_distractor_diamondtriangles.svg	stimuli_target_trianglecircles.svg	29	yes	57	0	343
6.6.1	mac	2022-11-07	14:14:02	14:23:21	555594	5c17294778ee390001ab19e5	997969023	1	main_z	11	main_z	81	stimuli_distractor_trianglediamonds.svg	stimuli_target_trianglecircles.svg	25	yes	44	1	650
6.6.1	mac	2022-11-07	14:14:02	14:23:21	555594	5c17294778ee390001ab19e5	997969023	1	main_z	11	advance_on_keypress_ZEE	82	stimuli_distractor_trianglediamonds.svg	stimuli_target_trianglecircles.svg	25	yes	57	0	290
6.6.1	mac	2022-11-07	14:14:02	14:23:22	557278	5c17294778ee390001ab19e5	997969023	1	main_z	11	main_z	83	stimuli_target_trianglesquares.svg	stimuli_distractor_trianglediamonds.svg	18	yes	44	1	771
6.6.1	mac	2022-11-07	14:14:02	14:23:22	557278	5c17294778ee390001ab19e5	997969023	1	main_z	11	advance_on_keypress_ZEE	84	stimuli_target_trianglesquares.svg	stimuli_distractor_trianglediamonds.svg	18	yes	57	0	219
6.6.1	mac	2022-11-07	14:14:02	14:23:24	559095	5c17294778ee390001ab19e5	997969023	1	main_z	11	main_z	85	stimuli_distractor_trianglediamonds.svg	stimuli_distractor_diamondtriangles.svg	36	no	44	0	918
6.6.1	mac	2022-11-07	14:14:02	14:23:24	559095	5c17294778ee390001ab19e5	997969023	1	main_z	11	advance_on_keypress_ZEE	86	stimuli_distractor_trianglediamonds.svg	stimuli_distractor_diamondtriangles.svg	36	no	57	0	183
6.6.1	mac	2022-11-07	14:14:02	14:23:27	561978	5c17294778ee390001ab19e5	997969023	1	main_z	11	main_z	87	stimuli_target_squarediamonds.svg	stimuli_distractor_diamondtriangles.svg	8	yes	0	0	2000
6.6.1	mac	2022-11-07	14:14:02	14:23:27	561978	5c17294778ee390001ab19e5	997969023	1	main_z	11	advance_on_keypress_ZEE	88	stimuli_target_squarediamonds.svg	stimuli_distractor_diamondtriangles.svg	8	yes	57	0	747
6.6.1	mac	2022-11-07	14:14:02	14:23:29	564154	5c17294778ee390001ab19e5	997969023	1	main_z	11	main_z	89	stimuli_target_trianglecircles.svg	stimuli_distractor_trianglediamonds.svg	17	yes	44	1	772
6.6.1	mac	2022-11-07	14:14:02	14:23:29	564154	5c17294778ee390001ab19e5	997969023	1	main_z	11	advance_on_keypress_ZEE	90	stimuli_target_trianglecircles.svg	stimuli_distractor_trianglediamonds.svg	17	yes	57	0	266
6.6.1	mac	2022-11-07	14:14:02	14:23:31	565800	5c17294778ee390001ab19e5	997969023	1	main_z	11	main_z	91	stimuli_distractor_diamondtriangles.svg	stimuli_target_diamondsquares.svg	32	yes	44	1	750
6.6.1	mac	2022-11-07	14:14:02	14:23:31	565800	5c17294778ee390001ab19e5	997969023	1	main_z	11	advance_on_keypress_ZEE	92	stimuli_distractor_diamondtriangles.svg	stimuli_target_diamondsquares.svg	32	yes	57	0	243
6.6.1	mac	2022-11-07	14:14:02	14:23:34	568682	5c17294778ee390001ab19e5	997969023	1	main_z	11	main_z	93	stimuli_distractor_diamondtriangles.svg	stimuli_distractor_trianglediamonds.svg	38	no	0	1	2000
6.6.1	mac	2022-11-07	14:14:02	14:23:34	568682	5c17294778ee390001ab19e5	997969023	1	main_z	11	advance_on_keypress_ZEE	94	stimuli_distractor_diamondtriangles.svg	stimuli_distractor_trianglediamonds.svg	38	no	57	0	499
6.6.1	mac	2022-11-07	14:14:02	14:23:36	570590	5c17294778ee390001ab19e5	997969023	1	main_z	11	main_z	95	stimuli_target_trianglecircles.svg	stimuli_distractor_diamondtriangles.svg	21	yes	44	1	722
6.6.1	mac	2022-11-07	14:14:02	14:23:36	570590	5c17294778ee390001ab19e5	997969023	1	main_z	11	advance_on_keypress_ZEE	96	stimuli_target_trianglecircles.svg	stimuli_distractor_diamondtriangles.svg	21	yes	57	0	375
6.6.1	mac	2022-11-07	14:14:02	14:23:37	572523	5c17294778ee390001ab19e5	997969023	1	main_z	11	main_z	97	stimuli_target_squaretriangles.svg	stimuli_distractor_trianglediamonds.svg	3	yes	44	1	936
6.6.1	mac	2022-11-07	14:14:02	14:23:37	572523	5c17294778ee390001ab19e5	997969023	1	main_z	11	advance_on_keypress_ZEE	98	stimuli_target_squaretriangles.svg	stimuli_distractor_trianglediamonds.svg	3	yes	57	0	316
6.6.1	mac	2022-11-07	14:14:02	14:23:39	574202	5c17294778ee390001ab19e5	997969023	1	main_z	11	main_z	99	stimuli_distractor_diamondtriangles.svg	stimuli_target_diamondcircles.svg	31	yes	44	1	725
6.6.1	mac	2022-11-07	14:14:02	14:23:39	574202	5c17294778ee390001ab19e5	997969023	1	main_z	11	advance_on_keypress_ZEE	100	stimuli_distractor_diamondtriangles.svg	stimuli_target_diamondcircles.svg	31	yes	57	0	303
6.6.1	mac	2022-11-07	14:14:02	14:23:41	576181	5c17294778ee390001ab19e5	997969023	1	main_z	11	main_z	101	stimuli_distractor_diamondtriangles.svg	stimuli_distractor_trianglediamonds.svg	37	no	44	0	1054
6.6.1	mac	2022-11-07	14:14:02	14:23:41	576181	5c17294778ee390001ab19e5	997969023	1	main_z	11	advance_on_keypress_ZEE	102	stimuli_distractor_diamondtriangles.svg	stimuli_distractor_trianglediamonds.svg	37	no	57	0	238
6.6.1	mac	2022-11-07	14:14:02	14:23:43	577997	5c17294778ee390001ab19e5	997969023	1	main_z	11	main_z	103	stimuli_distractor_diamondtriangles.svg	stimuli_distractor_diamondtriangles.svg	40	no	44	0	953
6.6.1	mac	2022-11-07	14:14:02	14:23:43	577997	5c17294778ee390001ab19e5	997969023	1	main_z	11	advance_on_keypress_ZEE	104	stimuli_distractor_diamondtriangles.svg	stimuli_distractor_diamondtriangles.svg	40	no	57	0	200
6.6.1	mac	2022-11-07	14:14:02	14:23:45	579574	5c17294778ee390001ab19e5	997969023	1	main_z	11	main_z	105	stimuli_distractor_trianglediamonds.svg	stimuli_target_circlediamonds.svg	10	yes	44	1	691
6.6.1	mac	2022-11-07	14:14:02	14:23:45	579574	5c17294778ee390001ab19e5	997969023	1	main_z	11	advance_on_keypress_ZEE	106	stimuli_distractor_trianglediamonds.svg	stimuli_target_circlediamonds.svg	10	yes	57	0	257
6.6.1	mac	2022-11-07	14:14:02	14:23:46	581166	5c17294778ee390001ab19e5	997969023	1	main_z	11	main_z	107	stimuli_distractor_trianglediamonds.svg	stimuli_target_squarediamonds.svg	12	yes	44	1	717
6.6.1	mac	2022-11-07	14:14:02	14:23:46	581166	5c17294778ee390001ab19e5	997969023	1	main_z	11	advance_on_keypress_ZEE	108	stimuli_distractor_trianglediamonds.svg	stimuli_target_squarediamonds.svg	12	yes	57	0	254
6.6.1	mac	2022-11-07	14:14:02	14:23:48	582750	5c17294778ee390001ab19e5	997969023	1	main_z	11	main_z	109	stimuli_distractor_trianglediamonds.svg	stimuli_target_diamondsquares.svg	28	yes	44	1	700
6.6.1	mac	2022-11-07	14:14:02	14:23:48	582750	5c17294778ee390001ab19e5	997969023	1	main_z	11	advance_on_keypress_ZEE	110	stimuli_distractor_trianglediamonds.svg	stimuli_target_diamondsquares.svg	28	yes	57	0	271
6.6.1	mac	2022-11-07	14:14:02	14:23:49	584267	5c17294778ee390001ab19e5	997969023	1	main_z	11	main_z	111	stimuli_distractor_trianglediamonds.svg	stimuli_target_diamondcircles.svg	27	yes	44	1	612
6.6.1	mac	2022-11-07	14:14:02	14:23:49	584267	5c17294778ee390001ab19e5	997969023	1	main_z	11	advance_on_keypress_ZEE	112	stimuli_distractor_trianglediamonds.svg	stimuli_target_diamondcircles.svg	27	yes	57	0	185
6.6.1	mac	2022-11-07	14:14:02	14:23:51	585765	5c17294778ee390001ab19e5	997969023	1	main_z	11	main_z	113	stimuli_target_squarediamonds.svg	stimuli_distractor_trianglediamonds.svg	4	yes	44	1	676
6.6.1	mac	2022-11-07	14:14:02	14:23:51	585765	5c17294778ee390001ab19e5	997969023	1	main_z	11	advance_on_keypress_ZEE	114	stimuli_target_squarediamonds.svg	stimuli_distractor_trianglediamonds.svg	4	yes	57	0	267
6.6.1	mac	2022-11-07	14:14:02	14:23:52	587497	5c17294778ee390001ab19e5	997969023	1	main_z	11	main_z	115	stimuli_distractor_trianglediamonds.svg	stimuli_target_trianglesquares.svg	26	yes	44	1	826
6.6.1	mac	2022-11-07	14:14:02	14:23:52	587497	5c17294778ee390001ab19e5	997969023	1	main_z	11	advance_on_keypress_ZEE	116	stimuli_distractor_trianglediamonds.svg	stimuli_target_trianglesquares.svg	26	yes	57	0	304
6.6.1	mac	2022-11-07	14:14:02	14:23:54	589150	5c17294778ee390001ab19e5	997969023	1	main_z	11	main_z	117	stimuli_target_circletriangles.svg	stimuli_distractor_trianglediamonds.svg	1	yes	44	1	726
6.6.1	mac	2022-11-07	14:14:02	14:23:54	589150	5c17294778ee390001ab19e5	997969023	1	main_z	11	advance_on_keypress_ZEE	118	stimuli_target_circletriangles.svg	stimuli_distractor_trianglediamonds.svg	1	yes	57	0	227
6.6.1	mac	2022-11-07	14:14:02	14:23:57	592073	5c17294778ee390001ab19e5	997969023	1	main_z	11	main_z	119	stimuli_distractor_diamondtriangles.svg	stimuli_distractor_diamondtriangles.svg	39	no	0	1	2000
6.6.1	mac	2022-11-07	14:14:02	14:23:57	592073	5c17294778ee390001ab19e5	997969023	1	main_z	11	advance_on_keypress_ZEE	120	stimuli_distractor_diamondtriangles.svg	stimuli_distractor_diamondtriangles.svg	39	no	57	0	510
6.6.1	mac	2022-11-07	14:14:02	14:23:59	594007	5c17294778ee390001ab19e5	997969023	1	main_z	11	main_z	121	stimuli_distractor_diamondtriangles.svg	stimuli_target_circlediamonds.svg	14	yes	44	1	744
6.6.1	mac	2022-11-07	14:14:02	14:23:59	594007	5c17294778ee390001ab19e5	997969023	1	main_z	11	advance_on_keypress_ZEE	122	stimuli_distractor_diamondtriangles.svg	stimuli_target_circlediamonds.svg	14	yes	57	0	166
6.6.1	mac	2022-11-07	14:14:02	14:24:01	595576	5c17294778ee390001ab19e5	997969023	1	main_z	11	main_z	123	stimuli_target_circletriangles.svg	stimuli_distractor_diamondtriangles.svg	5	yes	44	1	712
6.6.1	mac	2022-11-07	14:14:02	14:24:01	595576	5c17294778ee390001ab19e5	997969023	1	main_z	11	advance_on_keypress_ZEE	124	stimuli_target_circletriangles.svg	stimuli_distractor_diamondtriangles.svg	5	yes	57	0	239
6.6.1	mac	2022-11-07	14:14:02	14:24:02	597139	5c17294778ee390001ab19e5	997969023	1	main_z	11	main_z	125	stimuli_distractor_diamondtriangles.svg	stimuli_target_squarediamonds.svg	16	yes	44	1	692
6.6.1	mac	2022-11-07	14:14:02	14:24:02	597139	5c17294778ee390001ab19e5	997969023	1	main_z	11	advance_on_keypress_ZEE	126	stimuli_distractor_diamondtriangles.svg	stimuli_target_squarediamonds.svg	16	yes	57	0	259
6.6.1	mac	2022-11-07	14:14:02	14:24:04	598769	5c17294778ee390001ab19e5	997969023	1	main_z	11	main_z	127	stimuli_distractor_diamondtriangles.svg	stimuli_target_trianglecircles.svg	29	yes	44	1	751
6.6.1	mac	2022-11-07	14:14:02	14:24:04	598769	5c17294778ee390001ab19e5	997969023	1	main_z	11	advance_on_keypress_ZEE	128	stimuli_distractor_diamondtriangles.svg	stimuli_target_trianglecircles.svg	29	yes	57	0	171
6.6.1	mac	2022-11-07	14:14:02	14:24:05	600262	5c17294778ee390001ab19e5	997969023	1	main_z	11	main_z	129	stimuli_target_diamondcircles.svg	stimuli_distractor_diamondtriangles.svg	23	yes	44	1	627
6.6.1	mac	2022-11-07	14:14:02	14:24:05	600262	5c17294778ee390001ab19e5	997969023	1	main_z	11	advance_on_keypress_ZEE	130	stimuli_target_diamondcircles.svg	stimuli_distractor_diamondtriangles.svg	23	yes	57	0	188
6.6.1	mac	2022-11-07	14:14:02	14:24:07	601745	5c17294778ee390001ab19e5	997969023	1	main_z	11	main_z	131	stimuli_distractor_trianglediamonds.svg	stimuli_target_circletriangles.svg	9	yes	44	1	648
6.6.1	mac	2022-11-07	14:14:02	14:24:07	601745	5c17294778ee390001ab19e5	997969023	1	main_z	11	advance_on_keypress_ZEE	132	stimuli_distractor_trianglediamonds.svg	stimuli_target_circletriangles.svg	9	yes	57	0	263
6.6.1	mac	2022-11-07	14:14:02	14:24:10	604656	5c17294778ee390001ab19e5	997969023	1	main_z	11	main_z	133	stimuli_distractor_trianglediamonds.svg	stimuli_distractor_diamondtriangles.svg	35	no	0	1	2000
6.6.1	mac	2022-11-07	14:14:02	14:24:10	604656	5c17294778ee390001ab19e5	997969023	1	main_z	11	advance_on_keypress_ZEE	134	stimuli_distractor_trianglediamonds.svg	stimuli_distractor_diamondtriangles.svg	35	no	57	0	390
6.6.1	mac	2022-11-07	14:14:02	14:24:13	607673	5c17294778ee390001ab19e5	997969023	1	main_z	11	main_z	135	stimuli_distractor_trianglediamonds.svg	stimuli_distractor_trianglediamonds.svg	33	no	0	1	2000
6.6.1	mac	2022-11-07	14:14:02	14:24:13	607673	5c17294778ee390001ab19e5	997969023	1	main_z	11	advance_on_keypress_ZEE	136	stimuli_distractor_trianglediamonds.svg	stimuli_distractor_trianglediamonds.svg	33	no	57	0	356
6.6.1	mac	2022-11-07	14:14:02	14:24:16	610726	5c17294778ee390001ab19e5	997969023	1	main_z	11	main_z	137	stimuli_target_diamondsquares.svg	stimuli_distractor_trianglediamonds.svg	20	yes	0	0	2000
6.6.1	mac	2022-11-07	14:14:02	14:24:16	610726	5c17294778ee390001ab19e5	997969023	1	main_z	11	advance_on_keypress_ZEE	138	stimuli_target_diamondsquares.svg	stimuli_distractor_trianglediamonds.svg	20	yes	57	0	399
6.6.1	mac	2022-11-07	14:14:02	14:24:18	613112	5c17294778ee390001ab19e5	997969023	1	main_z	11	main_z	139	stimuli_target_squaretriangles.svg	stimuli_distractor_diamondtriangles.svg	7	yes	44	1	1350
6.6.1	mac	2022-11-07	14:14:02	14:24:18	613112	5c17294778ee390001ab19e5	997969023	1	main_z	11	advance_on_keypress_ZEE	140	stimuli_target_squaretriangles.svg	stimuli_distractor_diamondtriangles.svg	7	yes	57	0	480
6.6.1	mac	2022-11-07	14:14:02	14:24:20	615270	5c17294778ee390001ab19e5	997969023	1	main_z	11	main_z	141	stimuli_distractor_diamondtriangles.svg	stimuli_target_trianglesquares.svg	30	yes	44	1	1050
6.6.1	mac	2022-11-07	14:14:02	14:24:20	615270	5c17294778ee390001ab19e5	997969023	1	main_z	11	advance_on_keypress_ZEE	142	stimuli_distractor_diamondtriangles.svg	stimuli_target_trianglesquares.svg	30	yes	57	0	508
6.6.1	mac	2022-11-07	14:14:02	14:24:23	618420	5c17294778ee390001ab19e5	997969023	1	main_z	11	main_z	143	stimuli_distractor_trianglediamonds.svg	stimuli_distractor_trianglediamonds.svg	34	no	0	1	2000
6.6.1	mac	2022-11-07	14:14:02	14:24:23	618420	5c17294778ee390001ab19e5	997969023	1	main_z	11	advance_on_keypress_ZEE	144	stimuli_distractor_trianglediamonds.svg	stimuli_distractor_trianglediamonds.svg	34	no	57	0	320
6.6.1	mac	2022-11-07	14:14:02	14:24:25	620249	5c17294778ee390001ab19e5	997969023	1	main_z	11	main_z	145	stimuli_target_diamondcircles.svg	stimuli_distractor_trianglediamonds.svg	19	yes	44	1	827
6.6.1	mac	2022-11-07	14:14:02	14:24:25	620249	5c17294778ee390001ab19e5	997969023	1	main_z	11	advance_on_keypress_ZEE	146	stimuli_target_diamondcircles.svg	stimuli_distractor_trianglediamonds.svg	19	yes	57	0	203
6.6.1	mac	2022-11-07	14:14:02	14:24:27	621883	5c17294778ee390001ab19e5	997969023	1	main_z	11	main_z	147	stimuli_target_diamondsquares.svg	stimuli_distractor_diamondtriangles.svg	24	yes	44	1	745
6.6.1	mac	2022-11-07	14:14:02	14:24:27	621883	5c17294778ee390001ab19e5	997969023	1	main_z	11	advance_on_keypress_ZEE	148	stimuli_target_diamondsquares.svg	stimuli_distractor_diamondtriangles.svg	24	yes	57	0	269
6.6.1	mac	2022-11-07	14:14:02	14:24:28	623566	5c17294778ee390001ab19e5	997969023	1	main_z	11	main_z	149	stimuli_distractor_diamondtriangles.svg	stimuli_target_squaretriangles.svg	15	yes	44	1	789
6.6.1	mac	2022-11-07	14:14:02	14:24:28	623566	5c17294778ee390001ab19e5	997969023	1	main_z	11	advance_on_keypress_ZEE	150	stimuli_distractor_diamondtriangles.svg	stimuli_target_squaretriangles.svg	15	yes	57	0	285
6.6.1	mac	2022-11-07	14:14:02	14:24:30	625347	5c17294778ee390001ab19e5	997969023	1	main_z	11	main_z	151	stimuli_target_trianglesquares.svg	stimuli_distractor_diamondtriangles.svg	22	yes	44	1	868
6.6.1	mac	2022-11-07	14:14:02	14:24:30	625347	5c17294778ee390001ab19e5	997969023	1	main_z	11	advance_on_keypress_ZEE	152	stimuli_target_trianglesquares.svg	stimuli_distractor_diamondtriangles.svg	22	yes	57	0	245
6.6.1	mac	2022-11-07	14:14:02	14:24:32	626922	5c17294778ee390001ab19e5	997969023	1	main_z	11	main_z	153	stimuli_target_circlediamonds.svg	stimuli_distractor_diamondtriangles.svg	6	yes	44	1	693
6.6.1	mac	2022-11-07	14:14:02	14:24:32	626922	5c17294778ee390001ab19e5	997969023	1	main_z	11	advance_on_keypress_ZEE	154	stimuli_target_circlediamonds.svg	stimuli_distractor_diamondtriangles.svg	6	yes	57	0	251
6.6.1	mac	2022-11-07	14:14:02	14:24:33	628374	5c17294778ee390001ab19e5	997969023	1	main_z	11	main_z	155	stimuli_distractor_trianglediamonds.svg	stimuli_target_squaretriangles.svg	11	yes	44	1	575
6.6.1	mac	2022-11-07	14:14:02	14:24:33	628374	5c17294778ee390001ab19e5	997969023	1	main_z	11	advance_on_keypress_ZEE	156	stimuli_distractor_trianglediamonds.svg	stimuli_target_squaretriangles.svg	11	yes	57	0	238
6.6.1	mac	2022-11-07	14:14:02	14:24:35	629967	5c17294778ee390001ab19e5	997969023	1	main_z	11	main_z	157	stimuli_distractor_diamondtriangles.svg	stimuli_target_circletriangles.svg	13	yes	44	1	687
6.6.1	mac	2022-11-07	14:14:02	14:24:35	629967	5c17294778ee390001ab19e5	997969023	1	main_z	11	advance_on_keypress_ZEE	158	stimuli_distractor_diamondtriangles.svg	stimuli_target_circletriangles.svg	13	yes	57	0	145
6.6.1	mac	2022-11-07	14:14:02	14:24:36	631351	5c17294778ee390001ab19e5	997969023	1	main_z	11	main_z	159	stimuli_target_circlediamonds.svg	stimuli_distractor_trianglediamonds.svg	2	yes	44	1	601
6.6.1	mac	2022-11-07	14:14:02	14:24:36	631351	5c17294778ee390001ab19e5	997969023	1	main_z	11	advance_on_keypress_ZEE	160	stimuli_target_circlediamonds.svg	stimuli_distractor_trianglediamonds.svg	2	yes	57	0	227