build	computer.platform	date	time	timestamp	time_elapsed_ms	subject	group	session	blockcode	blocknum	trialcode	trialnum	stimulus_left	stimulus_right	stim_index	target_present	response	correct	latency
6.6.1	win	2022-12-16	07:50:40	07:52:48	126269	581d38509b5b8800014d507e	258286749	1	practice_slash	5	practice_slash	1	stimuli_target_diamondsquares.svg	stimuli_distractor_diamondtriangles.svg	3	yes	0	0	2000
6.6.1	win	2022-12-16	07:50:40	07:52:48	126269	581d38509b5b8800014d507e	258286749	1	practice_slash	5	advance_on_keypress_SLASH	2	stimuli_target_diamondsquares.svg	stimuli_distractor_diamondtriangles.svg	3	yes	57	0	1632
6.6.1	win	2022-12-16	07:50:40	07:52:52	129938	581d38509b5b8800014d507e	258286749	1	practice_slash	5	practice_slash	3	stimuli_target_squarediamonds.svg	stimuli_distractor_diamondtriangles.svg	2	yes	53	1	386
6.6.1	win	2022-12-16	07:50:40	07:52:52	129938	581d38509b5b8800014d507e	258286749	1	practice_slash	5	advance_on_keypress_SLASH	4	stimuli_target_squarediamonds.svg	stimuli_distractor_diamondtriangles.svg	2	yes	57	0	880
6.6.1	win	2022-12-16	07:50:40	07:52:57	134485	581d38509b5b8800014d507e	258286749	1	practice_slash	5	practice_slash	5	stimuli_distractor_trianglediamonds.svg	stimuli_distractor_trianglediamonds.svg	15	no	0	1	2000
6.6.1	win	2022-12-16	07:50:40	07:52:57	134485	581d38509b5b8800014d507e	258286749	1	practice_slash	5	advance_on_keypress_SLASH	6	stimuli_distractor_trianglediamonds.svg	stimuli_distractor_trianglediamonds.svg	15	no	57	0	637
6.6.1	win	2022-12-16	07:50:40	07:52:59	137388	581d38509b5b8800014d507e	258286749	1	practice_slash	5	practice_slash	7	stimuli_distractor_trianglediamonds.svg	stimuli_target_squarediamonds.svg	11	yes	53	1	618
6.6.1	win	2022-12-16	07:50:40	07:52:59	137388	581d38509b5b8800014d507e	258286749	1	practice_slash	5	advance_on_keypress_SLASH	8	stimuli_distractor_trianglediamonds.svg	stimuli_target_squarediamonds.svg	11	yes	57	0	767
6.6.1	win	2022-12-16	07:50:40	07:53:04	141819	581d38509b5b8800014d507e	258286749	1	practice_slash	5	practice_slash	9	stimuli_distractor_trianglediamonds.svg	stimuli_target_diamondcircles.svg	12	yes	0	0	2000
6.6.1	win	2022-12-16	07:50:40	07:53:04	141819	581d38509b5b8800014d507e	258286749	1	practice_slash	5	advance_on_keypress_SLASH	10	stimuli_distractor_trianglediamonds.svg	stimuli_target_diamondcircles.svg	12	yes	57	0	457
6.6.1	win	2022-12-16	07:50:40	07:53:07	144580	581d38509b5b8800014d507e	258286749	1	practice_slash	5	practice_slash	11	stimuli_target_squarediamonds.svg	stimuli_distractor_trianglediamonds.svg	5	yes	53	1	661
6.6.1	win	2022-12-16	07:50:40	07:53:07	144580	581d38509b5b8800014d507e	258286749	1	practice_slash	5	advance_on_keypress_SLASH	12	stimuli_target_squarediamonds.svg	stimuli_distractor_trianglediamonds.svg	5	yes	57	0	624
6.6.1	win	2022-12-16	07:50:40	07:53:10	147455	581d38509b5b8800014d507e	258286749	1	practice_slash	5	practice_slash	13	stimuli_target_circlediamonds.svg	stimuli_distractor_diamondtriangles.svg	1	yes	53	1	586
6.6.1	win	2022-12-16	07:50:40	07:53:10	147455	581d38509b5b8800014d507e	258286749	1	practice_slash	5	advance_on_keypress_SLASH	14	stimuli_target_circlediamonds.svg	stimuli_distractor_diamondtriangles.svg	1	yes	57	0	537
6.6.1	win	2022-12-16	07:50:40	07:53:12	150036	581d38509b5b8800014d507e	258286749	1	practice_slash	5	practice_slash	15	stimuli_distractor_diamondtriangles.svg	stimuli_target_circletriangles.svg	7	yes	53	1	367
6.6.1	win	2022-12-16	07:50:40	07:53:12	150036	581d38509b5b8800014d507e	258286749	1	practice_slash	5	advance_on_keypress_SLASH	16	stimuli_distractor_diamondtriangles.svg	stimuli_target_circletriangles.svg	7	yes	57	0	291
6.6.1	win	2022-12-16	07:50:40	07:53:16	153986	581d38509b5b8800014d507e	258286749	1	practice_slash	5	practice_slash	17	stimuli_distractor_diamondtriangles.svg	stimuli_distractor_trianglediamonds.svg	14	no	0	1	2000
6.6.1	win	2022-12-16	07:50:40	07:53:16	153986	581d38509b5b8800014d507e	258286749	1	practice_slash	5	advance_on_keypress_SLASH	18	stimuli_distractor_diamondtriangles.svg	stimuli_distractor_trianglediamonds.svg	14	no	57	0	416
6.6.1	win	2022-12-16	07:50:40	07:53:19	156784	581d38509b5b8800014d507e	258286749	1	practice_slash	5	practice_slash	19	stimuli_distractor_trianglediamonds.svg	stimuli_target_circlediamonds.svg	10	yes	53	1	731
6.6.1	win	2022-12-16	07:50:40	07:53:19	156784	581d38509b5b8800014d507e	258286749	1	practice_slash	5	advance_on_keypress_SLASH	20	stimuli_distractor_trianglediamonds.svg	stimuli_target_circlediamonds.svg	10	yes	57	0	954
6.6.1	win	2022-12-16	07:50:40	07:53:23	161386	581d38509b5b8800014d507e	258286749	1	practice_slash	5	practice_slash	21	stimuli_distractor_trianglediamonds.svg	stimuli_distractor_diamondtriangles.svg	16	no	0	1	2000
6.6.1	win	2022-12-16	07:50:40	07:53:23	161386	581d38509b5b8800014d507e	258286749	1	practice_slash	5	advance_on_keypress_SLASH	22	stimuli_distractor_trianglediamonds.svg	stimuli_distractor_diamondtriangles.svg	16	no	57	0	470
6.6.1	win	2022-12-16	07:50:40	07:53:28	165519	581d38509b5b8800014d507e	258286749	1	practice_slash	5	practice_slash	23	stimuli_distractor_diamondtriangles.svg	stimuli_target_diamondcircles.svg	8	yes	0	0	2000
6.6.1	win	2022-12-16	07:50:40	07:53:28	165519	581d38509b5b8800014d507e	258286749	1	practice_slash	5	advance_on_keypress_SLASH	24	stimuli_distractor_diamondtriangles.svg	stimuli_target_diamondcircles.svg	8	yes	57	0	235
6.6.1	win	2022-12-16	07:50:40	07:53:30	168323	581d38509b5b8800014d507e	258286749	1	practice_slash	5	practice_slash	25	stimuli_target_circlediamonds.svg	stimuli_distractor_trianglediamonds.svg	4	yes	53	1	921
6.6.1	win	2022-12-16	07:50:40	07:53:30	168323	581d38509b5b8800014d507e	258286749	1	practice_slash	5	advance_on_keypress_SLASH	26	stimuli_target_circlediamonds.svg	stimuli_distractor_trianglediamonds.svg	4	yes	57	0	590
6.6.1	win	2022-12-16	07:50:40	07:53:35	172569	581d38509b5b8800014d507e	258286749	1	practice_slash	5	practice_slash	27	stimuli_distractor_diamondtriangles.svg	stimuli_distractor_diamondtriangles.svg	13	no	0	1	2000
6.6.1	win	2022-12-16	07:50:40	07:53:35	172569	581d38509b5b8800014d507e	258286749	1	practice_slash	5	advance_on_keypress_SLASH	28	stimuli_distractor_diamondtriangles.svg	stimuli_distractor_diamondtriangles.svg	13	no	57	0	281
6.6.1	win	2022-12-16	07:50:40	07:53:39	176503	581d38509b5b8800014d507e	258286749	1	practice_slash	5	practice_slash	29	stimuli_target_diamondsquares.svg	stimuli_distractor_trianglediamonds.svg	6	yes	0	0	2000
6.6.1	win	2022-12-16	07:50:40	07:53:39	176503	581d38509b5b8800014d507e	258286749	1	practice_slash	5	advance_on_keypress_SLASH	30	stimuli_target_diamondsquares.svg	stimuli_distractor_trianglediamonds.svg	6	yes	57	0	230
6.6.1	win	2022-12-16	07:50:40	07:53:42	180385	581d38509b5b8800014d507e	258286749	1	practice_slash	5	practice_slash	31	stimuli_distractor_diamondtriangles.svg	stimuli_target_trianglecircles.svg	9	yes	0	0	2000
6.6.1	win	2022-12-16	07:50:40	07:53:42	180385	581d38509b5b8800014d507e	258286749	1	practice_slash	5	advance_on_keypress_SLASH	32	stimuli_distractor_diamondtriangles.svg	stimuli_target_trianglecircles.svg	9	yes	57	0	262
6.6.1	win	2022-12-16	07:50:40	07:53:49	187162	581d38509b5b8800014d507e	258286749	1	main_slash	7	main_slash	1	stimuli_target_circlediamonds.svg	stimuli_distractor_trianglediamonds.svg	2	yes	53	1	428
6.6.1	win	2022-12-16	07:50:40	07:53:49	187162	581d38509b5b8800014d507e	258286749	1	main_slash	7	advance_on_keypress_SLASH	2	stimuli_target_circlediamonds.svg	stimuli_distractor_trianglediamonds.svg	2	yes	57	0	1592
6.6.1	win	2022-12-16	07:50:40	07:53:52	189737	581d38509b5b8800014d507e	258286749	1	main_slash	7	main_slash	3	stimuli_distractor_diamondtriangles.svg	stimuli_distractor_trianglediamonds.svg	38	no	53	0	336
6.6.1	win	2022-12-16	07:50:40	07:53:52	189737	581d38509b5b8800014d507e	258286749	1	main_slash	7	advance_on_keypress_SLASH	4	stimuli_distractor_diamondtriangles.svg	stimuli_distractor_trianglediamonds.svg	38	no	57	0	758
6.6.1	win	2022-12-16	07:50:40	07:53:54	191550	581d38509b5b8800014d507e	258286749	1	main_slash	7	main_slash	5	stimuli_target_squarediamonds.svg	stimuli_distractor_trianglediamonds.svg	4	yes	53	1	415
6.6.1	win	2022-12-16	07:50:40	07:53:54	191550	581d38509b5b8800014d507e	258286749	1	main_slash	7	advance_on_keypress_SLASH	6	stimuli_target_squarediamonds.svg	stimuli_distractor_trianglediamonds.svg	4	yes	57	0	743
6.6.1	win	2022-12-16	07:50:40	07:53:56	193445	581d38509b5b8800014d507e	258286749	1	main_slash	7	main_slash	7	stimuli_target_circletriangles.svg	stimuli_distractor_trianglediamonds.svg	1	yes	53	1	508
6.6.1	win	2022-12-16	07:50:40	07:53:56	193445	581d38509b5b8800014d507e	258286749	1	main_slash	7	advance_on_keypress_SLASH	8	stimuli_target_circletriangles.svg	stimuli_distractor_trianglediamonds.svg	1	yes	57	0	686
6.6.1	win	2022-12-16	07:50:40	07:53:58	195926	581d38509b5b8800014d507e	258286749	1	main_slash	7	main_slash	9	stimuli_distractor_diamondtriangles.svg	stimuli_target_diamondsquares.svg	32	yes	53	1	1142
6.6.1	win	2022-12-16	07:50:40	07:53:58	195926	581d38509b5b8800014d507e	258286749	1	main_slash	7	advance_on_keypress_SLASH	10	stimuli_distractor_diamondtriangles.svg	stimuli_target_diamondsquares.svg	32	yes	57	0	800
6.6.1	win	2022-12-16	07:50:40	07:54:00	197742	581d38509b5b8800014d507e	258286749	1	main_slash	7	main_slash	11	stimuli_target_squaretriangles.svg	stimuli_distractor_trianglediamonds.svg	3	yes	53	1	357
6.6.1	win	2022-12-16	07:50:40	07:54:00	197742	581d38509b5b8800014d507e	258286749	1	main_slash	7	advance_on_keypress_SLASH	12	stimuli_target_squaretriangles.svg	stimuli_distractor_trianglediamonds.svg	3	yes	57	0	509
6.6.1	win	2022-12-16	07:50:40	07:54:03	200903	581d38509b5b8800014d507e	258286749	1	main_slash	7	main_slash	13	stimuli_distractor_diamondtriangles.svg	stimuli_distractor_trianglediamonds.svg	37	no	0	1	2000
6.6.1	win	2022-12-16	07:50:40	07:54:03	200903	581d38509b5b8800014d507e	258286749	1	main_slash	7	advance_on_keypress_SLASH	14	stimuli_distractor_diamondtriangles.svg	stimuli_distractor_trianglediamonds.svg	37	no	57	0	425
6.6.1	win	2022-12-16	07:50:40	07:54:04	202397	581d38509b5b8800014d507e	258286749	1	main_slash	7	main_slash	15	stimuli_distractor_trianglediamonds.svg	stimuli_target_trianglecircles.svg	25	yes	53	1	429
6.6.1	win	2022-12-16	07:50:40	07:54:04	202397	581d38509b5b8800014d507e	258286749	1	main_slash	7	advance_on_keypress_SLASH	16	stimuli_distractor_trianglediamonds.svg	stimuli_target_trianglecircles.svg	25	yes	57	0	773
6.6.1	win	2022-12-16	07:50:40	07:54:08	205818	581d38509b5b8800014d507e	258286749	1	main_slash	7	main_slash	17	stimuli_distractor_diamondtriangles.svg	stimuli_target_trianglecircles.svg	29	yes	0	0	2000
6.6.1	win	2022-12-16	07:50:40	07:54:08	205818	581d38509b5b8800014d507e	258286749	1	main_slash	7	advance_on_keypress_SLASH	18	stimuli_distractor_diamondtriangles.svg	stimuli_target_trianglecircles.svg	29	yes	57	0	373
6.6.1	win	2022-12-16	07:50:40	07:54:09	207404	581d38509b5b8800014d507e	258286749	1	main_slash	7	main_slash	19	stimuli_distractor_diamondtriangles.svg	stimuli_target_circletriangles.svg	13	yes	53	1	569
6.6.1	win	2022-12-16	07:50:40	07:54:09	207404	581d38509b5b8800014d507e	258286749	1	main_slash	7	advance_on_keypress_SLASH	20	stimuli_distractor_diamondtriangles.svg	stimuli_target_circletriangles.svg	13	yes	57	0	645
6.6.1	win	2022-12-16	07:50:40	07:54:11	209168	581d38509b5b8800014d507e	258286749	1	main_slash	7	main_slash	21	stimuli_distractor_diamondtriangles.svg	stimuli_target_circlediamonds.svg	14	yes	53	1	483
6.6.1	win	2022-12-16	07:50:40	07:54:11	209168	581d38509b5b8800014d507e	258286749	1	main_slash	7	advance_on_keypress_SLASH	22	stimuli_distractor_diamondtriangles.svg	stimuli_target_circlediamonds.svg	14	yes	57	0	618
6.6.1	win	2022-12-16	07:50:40	07:54:13	210866	581d38509b5b8800014d507e	258286749	1	main_slash	7	main_slash	23	stimuli_distractor_diamondtriangles.svg	stimuli_target_squarediamonds.svg	16	yes	53	1	432
6.6.1	win	2022-12-16	07:50:40	07:54:13	210866	581d38509b5b8800014d507e	258286749	1	main_slash	7	advance_on_keypress_SLASH	24	stimuli_distractor_diamondtriangles.svg	stimuli_target_squarediamonds.svg	16	yes	57	0	613
6.6.1	win	2022-12-16	07:50:40	07:54:15	212424	581d38509b5b8800014d507e	258286749	1	main_slash	7	main_slash	25	stimuli_distractor_trianglediamonds.svg	stimuli_target_circletriangles.svg	9	yes	53	1	306
6.6.1	win	2022-12-16	07:50:40	07:54:15	212424	581d38509b5b8800014d507e	258286749	1	main_slash	7	advance_on_keypress_SLASH	26	stimuli_distractor_trianglediamonds.svg	stimuli_target_circletriangles.svg	9	yes	57	0	524
6.6.1	win	2022-12-16	07:50:40	07:54:16	213913	581d38509b5b8800014d507e	258286749	1	main_slash	7	main_slash	27	stimuli_target_circletriangles.svg	stimuli_distractor_diamondtriangles.svg	5	yes	53	1	312
6.6.1	win	2022-12-16	07:50:40	07:54:16	213913	581d38509b5b8800014d507e	258286749	1	main_slash	7	advance_on_keypress_SLASH	28	stimuli_target_circletriangles.svg	stimuli_distractor_diamondtriangles.svg	5	yes	57	0	515
6.6.1	win	2022-12-16	07:50:40	07:54:17	215331	581d38509b5b8800014d507e	258286749	1	main_slash	7	main_slash	29	stimuli_distractor_trianglediamonds.svg	stimuli_distractor_diamondtriangles.svg	35	no	53	0	247
6.6.1	win	2022-12-16	07:50:40	07:54:17	215331	581d38509b5b8800014d507e	258286749	1	main_slash	7	advance_on_keypress_SLASH	30	stimuli_distractor_trianglediamonds.svg	stimuli_distractor_diamondtriangles.svg	35	no	57	0	556
6.6.1	win	2022-12-16	07:50:40	07:54:21	218535	581d38509b5b8800014d507e	258286749	1	main_slash	7	main_slash	31	stimuli_target_trianglecircles.svg	stimuli_distractor_diamondtriangles.svg	21	yes	0	0	2000
6.6.1	win	2022-12-16	07:50:40	07:54:21	218535	581d38509b5b8800014d507e	258286749	1	main_slash	7	advance_on_keypress_SLASH	32	stimuli_target_trianglecircles.svg	stimuli_distractor_diamondtriangles.svg	21	yes	57	0	266
6.6.1	win	2022-12-16	07:50:40	07:54:22	220150	581d38509b5b8800014d507e	258286749	1	main_slash	7	main_slash	33	stimuli_target_trianglesquares.svg	stimuli_distractor_trianglediamonds.svg	18	yes	53	1	699
6.6.1	win	2022-12-16	07:50:40	07:54:22	220150	581d38509b5b8800014d507e	258286749	1	main_slash	7	advance_on_keypress_SLASH	34	stimuli_target_trianglesquares.svg	stimuli_distractor_trianglediamonds.svg	18	yes	57	0	538
6.6.1	win	2022-12-16	07:50:40	07:54:24	221709	581d38509b5b8800014d507e	258286749	1	main_slash	7	main_slash	35	stimuli_target_squaretriangles.svg	stimuli_distractor_diamondtriangles.svg	7	yes	53	1	370
6.6.1	win	2022-12-16	07:50:40	07:54:24	221709	581d38509b5b8800014d507e	258286749	1	main_slash	7	advance_on_keypress_SLASH	36	stimuli_target_squaretriangles.svg	stimuli_distractor_diamondtriangles.svg	7	yes	57	0	361
6.6.1	win	2022-12-16	07:50:40	07:54:25	223390	581d38509b5b8800014d507e	258286749	1	main_slash	7	main_slash	37	stimuli_target_trianglecircles.svg	stimuli_distractor_trianglediamonds.svg	17	yes	53	1	672
6.6.1	win	2022-12-16	07:50:40	07:54:25	223390	581d38509b5b8800014d507e	258286749	1	main_slash	7	advance_on_keypress_SLASH	38	stimuli_target_trianglecircles.svg	stimuli_distractor_trianglediamonds.svg	17	yes	57	0	339
6.6.1	win	2022-12-16	07:50:40	07:54:27	224764	581d38509b5b8800014d507e	258286749	1	main_slash	7	main_slash	39	stimuli_target_trianglesquares.svg	stimuli_distractor_diamondtriangles.svg	22	yes	53	1	379
6.6.1	win	2022-12-16	07:50:40	07:54:27	224764	581d38509b5b8800014d507e	258286749	1	main_slash	7	advance_on_keypress_SLASH	40	stimuli_target_trianglesquares.svg	stimuli_distractor_diamondtriangles.svg	22	yes	57	0	318
6.6.1	win	2022-12-16	07:50:40	07:54:28	225989	581d38509b5b8800014d507e	258286749	1	main_slash	7	main_slash	41	stimuli_distractor_trianglediamonds.svg	stimuli_distractor_diamondtriangles.svg	36	no	53	0	255
6.6.1	win	2022-12-16	07:50:40	07:54:28	225989	581d38509b5b8800014d507e	258286749	1	main_slash	7	advance_on_keypress_SLASH	42	stimuli_distractor_trianglediamonds.svg	stimuli_distractor_diamondtriangles.svg	36	no	57	0	602
6.6.1	win	2022-12-16	07:50:40	07:54:31	229251	581d38509b5b8800014d507e	258286749	1	main_slash	7	main_slash	43	stimuli_distractor_diamondtriangles.svg	stimuli_distractor_diamondtriangles.svg	40	no	0	1	2000
6.6.1	win	2022-12-16	07:50:40	07:54:31	229251	581d38509b5b8800014d507e	258286749	1	main_slash	7	advance_on_keypress_SLASH	44	stimuli_distractor_diamondtriangles.svg	stimuli_distractor_diamondtriangles.svg	40	no	57	0	278
6.6.1	win	2022-12-16	07:50:40	07:54:33	230771	581d38509b5b8800014d507e	258286749	1	main_slash	7	main_slash	45	stimuli_target_diamondsquares.svg	stimuli_distractor_diamondtriangles.svg	24	yes	53	1	604
6.6.1	win	2022-12-16	07:50:40	07:54:33	230771	581d38509b5b8800014d507e	258286749	1	main_slash	7	advance_on_keypress_SLASH	46	stimuli_target_diamondsquares.svg	stimuli_distractor_diamondtriangles.svg	24	yes	57	0	655
6.6.1	win	2022-12-16	07:50:40	07:54:36	234085	581d38509b5b8800014d507e	258286749	1	main_slash	7	main_slash	47	stimuli_distractor_diamondtriangles.svg	stimuli_distractor_diamondtriangles.svg	39	no	0	1	2000
6.6.1	win	2022-12-16	07:50:40	07:54:36	234085	581d38509b5b8800014d507e	258286749	1	main_slash	7	advance_on_keypress_SLASH	48	stimuli_distractor_diamondtriangles.svg	stimuli_distractor_diamondtriangles.svg	39	no	57	0	270
6.6.1	win	2022-12-16	07:50:40	07:54:38	235630	581d38509b5b8800014d507e	258286749	1	main_slash	7	main_slash	49	stimuli_distractor_diamondtriangles.svg	stimuli_target_diamondcircles.svg	31	yes	53	1	629
6.6.1	win	2022-12-16	07:50:40	07:54:38	235630	581d38509b5b8800014d507e	258286749	1	main_slash	7	advance_on_keypress_SLASH	50	stimuli_distractor_diamondtriangles.svg	stimuli_target_diamondcircles.svg	31	yes	57	0	737
6.6.1	win	2022-12-16	07:50:40	07:54:40	237481	581d38509b5b8800014d507e	258286749	1	main_slash	7	main_slash	51	stimuli_distractor_diamondtriangles.svg	stimuli_target_trianglesquares.svg	30	yes	53	1	463
6.6.1	win	2022-12-16	07:50:40	07:54:40	237481	581d38509b5b8800014d507e	258286749	1	main_slash	7	advance_on_keypress_SLASH	52	stimuli_distractor_diamondtriangles.svg	stimuli_target_trianglesquares.svg	30	yes	57	0	561
6.6.1	win	2022-12-16	07:50:40	07:54:43	240685	581d38509b5b8800014d507e	258286749	1	main_slash	7	main_slash	53	stimuli_target_diamondsquares.svg	stimuli_distractor_trianglediamonds.svg	20	yes	0	0	2000
6.6.1	win	2022-12-16	07:50:40	07:54:43	240685	581d38509b5b8800014d507e	258286749	1	main_slash	7	advance_on_keypress_SLASH	54	stimuli_target_diamondsquares.svg	stimuli_distractor_trianglediamonds.svg	20	yes	57	0	297
6.6.1	win	2022-12-16	07:50:40	07:54:44	242091	581d38509b5b8800014d507e	258286749	1	main_slash	7	main_slash	55	stimuli_target_circlediamonds.svg	stimuli_distractor_diamondtriangles.svg	6	yes	53	1	457
6.6.1	win	2022-12-16	07:50:40	07:54:44	242091	581d38509b5b8800014d507e	258286749	1	main_slash	7	advance_on_keypress_SLASH	56	stimuli_target_circlediamonds.svg	stimuli_distractor_diamondtriangles.svg	6	yes	57	0	472
6.6.1	win	2022-12-16	07:50:40	07:54:46	243820	581d38509b5b8800014d507e	258286749	1	main_slash	7	main_slash	57	stimuli_distractor_trianglediamonds.svg	stimuli_target_diamondsquares.svg	28	yes	53	1	602
6.6.1	win	2022-12-16	07:50:40	07:54:46	243820	581d38509b5b8800014d507e	258286749	1	main_slash	7	advance_on_keypress_SLASH	58	stimuli_distractor_trianglediamonds.svg	stimuli_target_diamondsquares.svg	28	yes	57	0	1004
6.6.1	win	2022-12-16	07:50:40	07:54:48	245870	581d38509b5b8800014d507e	258286749	1	main_slash	7	main_slash	59	stimuli_distractor_trianglediamonds.svg	stimuli_target_trianglesquares.svg	26	yes	53	1	403
6.6.1	win	2022-12-16	07:50:40	07:54:48	245870	581d38509b5b8800014d507e	258286749	1	main_slash	7	advance_on_keypress_SLASH	60	stimuli_distractor_trianglediamonds.svg	stimuli_target_trianglesquares.svg	26	yes	57	0	496
6.6.1	win	2022-12-16	07:50:40	07:54:51	249002	581d38509b5b8800014d507e	258286749	1	main_slash	7	main_slash	61	stimuli_distractor_trianglediamonds.svg	stimuli_distractor_trianglediamonds.svg	33	no	0	1	2000
6.6.1	win	2022-12-16	07:50:40	07:54:51	249002	581d38509b5b8800014d507e	258286749	1	main_slash	7	advance_on_keypress_SLASH	62	stimuli_distractor_trianglediamonds.svg	stimuli_distractor_trianglediamonds.svg	33	no	57	0	566
6.6.1	win	2022-12-16	07:50:40	07:54:53	250705	581d38509b5b8800014d507e	258286749	1	main_slash	7	main_slash	63	stimuli_distractor_trianglediamonds.svg	stimuli_target_squaretriangles.svg	11	yes	53	1	488
6.6.1	win	2022-12-16	07:50:40	07:54:53	250705	581d38509b5b8800014d507e	258286749	1	main_slash	7	advance_on_keypress_SLASH	64	stimuli_distractor_trianglediamonds.svg	stimuli_target_squaretriangles.svg	11	yes	57	0	558
6.6.1	win	2022-12-16	07:50:40	07:54:55	252594	581d38509b5b8800014d507e	258286749	1	main_slash	7	main_slash	65	stimuli_distractor_trianglediamonds.svg	stimuli_target_diamondcircles.svg	27	yes	53	1	676
6.6.1	win	2022-12-16	07:50:40	07:54:55	252594	581d38509b5b8800014d507e	258286749	1	main_slash	7	advance_on_keypress_SLASH	66	stimuli_distractor_trianglediamonds.svg	stimuli_target_diamondcircles.svg	27	yes	57	0	1221
6.6.1	win	2022-12-16	07:50:40	07:54:57	255048	581d38509b5b8800014d507e	258286749	1	main_slash	7	main_slash	67	stimuli_distractor_trianglediamonds.svg	stimuli_target_circlediamonds.svg	10	yes	53	1	580
6.6.1	win	2022-12-16	07:50:40	07:54:57	255048	581d38509b5b8800014d507e	258286749	1	main_slash	7	advance_on_keypress_SLASH	68	stimuli_distractor_trianglediamonds.svg	stimuli_target_circlediamonds.svg	10	yes	57	0	490
6.6.1	win	2022-12-16	07:50:40	07:54:59	256742	581d38509b5b8800014d507e	258286749	1	main_slash	7	main_slash	69	stimuli_distractor_diamondtriangles.svg	stimuli_target_squaretriangles.svg	15	yes	53	1	557
6.6.1	win	2022-12-16	07:50:40	07:54:59	256742	581d38509b5b8800014d507e	258286749	1	main_slash	7	advance_on_keypress_SLASH	70	stimuli_distractor_diamondtriangles.svg	stimuli_target_squaretriangles.svg	15	yes	57	0	542
6.6.1	win	2022-12-16	07:50:40	07:55:01	258513	581d38509b5b8800014d507e	258286749	1	main_slash	7	main_slash	71	stimuli_target_squarediamonds.svg	stimuli_distractor_diamondtriangles.svg	8	yes	53	1	578
6.6.1	win	2022-12-16	07:50:40	07:55:01	258513	581d38509b5b8800014d507e	258286749	1	main_slash	7	advance_on_keypress_SLASH	72	stimuli_target_squarediamonds.svg	stimuli_distractor_diamondtriangles.svg	8	yes	57	0	588
6.6.1	win	2022-12-16	07:50:40	07:55:04	261751	581d38509b5b8800014d507e	258286749	1	main_slash	7	main_slash	73	stimuli_target_diamondcircles.svg	stimuli_distractor_trianglediamonds.svg	19	yes	0	0	2000
6.6.1	win	2022-12-16	07:50:40	07:55:04	261751	581d38509b5b8800014d507e	258286749	1	main_slash	7	advance_on_keypress_SLASH	74	stimuli_target_diamondcircles.svg	stimuli_distractor_trianglediamonds.svg	19	yes	57	0	294
6.6.1	win	2022-12-16	07:50:40	07:55:05	263118	581d38509b5b8800014d507e	258286749	1	main_slash	7	main_slash	75	stimuli_distractor_trianglediamonds.svg	stimuli_target_squarediamonds.svg	12	yes	53	1	434
6.6.1	win	2022-12-16	07:50:40	07:55:05	263118	581d38509b5b8800014d507e	258286749	1	main_slash	7	advance_on_keypress_SLASH	76	stimuli_distractor_trianglediamonds.svg	stimuli_target_squarediamonds.svg	12	yes	57	0	590
6.6.1	win	2022-12-16	07:50:40	07:55:07	265165	581d38509b5b8800014d507e	258286749	1	main_slash	7	main_slash	77	stimuli_target_diamondcircles.svg	stimuli_distractor_diamondtriangles.svg	23	yes	53	1	814
6.6.1	win	2022-12-16	07:50:40	07:55:07	265165	581d38509b5b8800014d507e	258286749	1	main_slash	7	advance_on_keypress_SLASH	78	stimuli_target_diamondcircles.svg	stimuli_distractor_diamondtriangles.svg	23	yes	57	0	666
6.6.1	win	2022-12-16	07:50:40	07:55:11	268484	581d38509b5b8800014d507e	258286749	1	main_slash	7	main_slash	79	stimuli_distractor_trianglediamonds.svg	stimuli_distractor_trianglediamonds.svg	34	no	0	1	2000
6.6.1	win	2022-12-16	07:50:40	07:55:11	268484	581d38509b5b8800014d507e	258286749	1	main_slash	7	advance_on_keypress_SLASH	80	stimuli_distractor_trianglediamonds.svg	stimuli_distractor_trianglediamonds.svg	34	no	57	0	385
6.6.1	win	2022-12-16	07:50:40	07:55:14	271518	581d38509b5b8800014d507e	258286749	1	main_slash	7	main_slash	81	stimuli_distractor_diamondtriangles.svg	stimuli_distractor_diamondtriangles.svg	39	no	0	1	2000
6.6.1	win	2022-12-16	07:50:40	07:55:14	271518	581d38509b5b8800014d507e	258286749	1	main_slash	7	advance_on_keypress_SLASH	82	stimuli_distractor_diamondtriangles.svg	stimuli_distractor_diamondtriangles.svg	39	no	57	0	279
6.6.1	win	2022-12-16	07:50:40	07:55:17	274434	581d38509b5b8800014d507e	258286749	1	main_slash	7	main_slash	83	stimuli_target_diamondsquares.svg	stimuli_distractor_diamondtriangles.svg	24	yes	0	0	2000
6.6.1	win	2022-12-16	07:50:40	07:55:17	274434	581d38509b5b8800014d507e	258286749	1	main_slash	7	advance_on_keypress_SLASH	84	stimuli_target_diamondsquares.svg	stimuli_distractor_diamondtriangles.svg	24	yes	57	0	294
6.6.1	win	2022-12-16	07:50:40	07:55:18	276170	581d38509b5b8800014d507e	258286749	1	main_slash	7	main_slash	85	stimuli_target_diamondcircles.svg	stimuli_distractor_diamondtriangles.svg	23	yes	53	1	801
6.6.1	win	2022-12-16	07:50:40	07:55:18	276170	581d38509b5b8800014d507e	258286749	1	main_slash	7	advance_on_keypress_SLASH	86	stimuli_target_diamondcircles.svg	stimuli_distractor_diamondtriangles.svg	23	yes	57	0	1436
6.6.1	win	2022-12-16	07:50:40	07:55:22	279414	581d38509b5b8800014d507e	258286749	1	main_slash	7	main_slash	87	stimuli_distractor_trianglediamonds.svg	stimuli_target_diamondsquares.svg	28	yes	53	1	1162
6.6.1	win	2022-12-16	07:50:40	07:55:22	279414	581d38509b5b8800014d507e	258286749	1	main_slash	7	advance_on_keypress_SLASH	88	stimuli_distractor_trianglediamonds.svg	stimuli_target_diamondsquares.svg	28	yes	57	0	661
6.6.1	win	2022-12-16	07:50:40	07:55:23	281370	581d38509b5b8800014d507e	258286749	1	main_slash	7	main_slash	89	stimuli_distractor_diamondtriangles.svg	stimuli_target_trianglesquares.svg	30	yes	53	1	652
6.6.1	win	2022-12-16	07:50:40	07:55:23	281370	581d38509b5b8800014d507e	258286749	1	main_slash	7	advance_on_keypress_SLASH	90	stimuli_distractor_diamondtriangles.svg	stimuli_target_trianglesquares.svg	30	yes	57	0	943
6.6.1	win	2022-12-16	07:50:40	07:55:26	283740	581d38509b5b8800014d507e	258286749	1	main_slash	7	main_slash	91	stimuli_target_trianglecircles.svg	stimuli_distractor_diamondtriangles.svg	21	yes	53	1	788
6.6.1	win	2022-12-16	07:50:40	07:55:26	283740	581d38509b5b8800014d507e	258286749	1	main_slash	7	advance_on_keypress_SLASH	92	stimuli_target_trianglecircles.svg	stimuli_distractor_diamondtriangles.svg	21	yes	57	0	752
6.6.1	win	2022-12-16	07:50:40	07:55:29	287151	581d38509b5b8800014d507e	258286749	1	main_slash	7	main_slash	93	stimuli_distractor_trianglediamonds.svg	stimuli_distractor_diamondtriangles.svg	35	no	0	1	2000
6.6.1	win	2022-12-16	07:50:40	07:55:29	287151	581d38509b5b8800014d507e	258286749	1	main_slash	7	advance_on_keypress_SLASH	94	stimuli_distractor_trianglediamonds.svg	stimuli_distractor_diamondtriangles.svg	35	no	57	0	441
6.6.1	win	2022-12-16	07:50:40	07:55:31	288796	581d38509b5b8800014d507e	258286749	1	main_slash	7	main_slash	95	stimuli_distractor_trianglediamonds.svg	stimuli_target_trianglesquares.svg	26	yes	53	1	561
6.6.1	win	2022-12-16	07:50:40	07:55:31	288796	581d38509b5b8800014d507e	258286749	1	main_slash	7	advance_on_keypress_SLASH	96	stimuli_distractor_trianglediamonds.svg	stimuli_target_trianglesquares.svg	26	yes	57	0	603
6.6.1	win	2022-12-16	07:50:40	07:55:34	292051	581d38509b5b8800014d507e	258286749	1	main_slash	7	main_slash	97	stimuli_distractor_trianglediamonds.svg	stimuli_target_circlediamonds.svg	10	yes	0	0	2000
6.6.1	win	2022-12-16	07:50:40	07:55:34	292051	581d38509b5b8800014d507e	258286749	1	main_slash	7	advance_on_keypress_SLASH	98	stimuli_distractor_trianglediamonds.svg	stimuli_target_circlediamonds.svg	10	yes	57	0	301
6.6.1	win	2022-12-16	07:50:40	07:55:36	293479	581d38509b5b8800014d507e	258286749	1	main_slash	7	main_slash	99	stimuli_target_trianglesquares.svg	stimuli_distractor_trianglediamonds.svg	18	yes	53	1	477
6.6.1	win	2022-12-16	07:50:40	07:55:36	293479	581d38509b5b8800014d507e	258286749	1	main_slash	7	advance_on_keypress_SLASH	100	stimuli_target_trianglesquares.svg	stimuli_distractor_trianglediamonds.svg	18	yes	57	0	627
6.6.1	win	2022-12-16	07:50:40	07:55:38	295796	581d38509b5b8800014d507e	258286749	1	main_slash	7	main_slash	101	stimuli_distractor_diamondtriangles.svg	stimuli_target_squarediamonds.svg	16	yes	53	1	1044
6.6.1	win	2022-12-16	07:50:40	07:55:38	295796	581d38509b5b8800014d507e	258286749	1	main_slash	7	advance_on_keypress_SLASH	102	stimuli_distractor_diamondtriangles.svg	stimuli_target_squarediamonds.svg	16	yes	57	0	582
6.6.1	win	2022-12-16	07:50:40	07:55:40	297561	581d38509b5b8800014d507e	258286749	1	main_slash	7	main_slash	103	stimuli_distractor_trianglediamonds.svg	stimuli_target_squarediamonds.svg	12	yes	53	1	527
6.6.1	win	2022-12-16	07:50:40	07:55:40	297561	581d38509b5b8800014d507e	258286749	1	main_slash	7	advance_on_keypress_SLASH	104	stimuli_distractor_trianglediamonds.svg	stimuli_target_squarediamonds.svg	12	yes	57	0	542
6.6.1	win	2022-12-16	07:50:40	07:55:43	300751	581d38509b5b8800014d507e	258286749	1	main_slash	7	main_slash	105	stimuli_distractor_diamondtriangles.svg	stimuli_distractor_trianglediamonds.svg	38	no	0	1	2000
6.6.1	win	2022-12-16	07:50:40	07:55:43	300751	581d38509b5b8800014d507e	258286749	1	main_slash	7	advance_on_keypress_SLASH	106	stimuli_distractor_diamondtriangles.svg	stimuli_distractor_trianglediamonds.svg	38	no	57	0	581
6.6.1	win	2022-12-16	07:50:40	07:55:45	302643	581d38509b5b8800014d507e	258286749	1	main_slash	7	main_slash	107	stimuli_target_squarediamonds.svg	stimuli_distractor_trianglediamonds.svg	4	yes	53	1	659
6.6.1	win	2022-12-16	07:50:40	07:55:45	302643	581d38509b5b8800014d507e	258286749	1	main_slash	7	advance_on_keypress_SLASH	108	stimuli_target_squarediamonds.svg	stimuli_distractor_trianglediamonds.svg	4	yes	57	0	577
6.6.1	win	2022-12-16	07:50:40	07:55:47	304812	581d38509b5b8800014d507e	258286749	1	main_slash	7	main_slash	109	stimuli_distractor_diamondtriangles.svg	stimuli_target_diamondcircles.svg	31	yes	53	1	945
6.6.1	win	2022-12-16	07:50:40	07:55:47	304812	581d38509b5b8800014d507e	258286749	1	main_slash	7	advance_on_keypress_SLASH	110	stimuli_distractor_diamondtriangles.svg	stimuli_target_diamondcircles.svg	31	yes	57	0	575
6.6.1	win	2022-12-16	07:50:40	07:55:50	308035	581d38509b5b8800014d507e	258286749	1	main_slash	7	main_slash	111	stimuli_distractor_diamondtriangles.svg	stimuli_distractor_diamondtriangles.svg	40	no	0	1	2000
6.6.1	win	2022-12-16	07:50:40	07:55:50	308035	581d38509b5b8800014d507e	258286749	1	main_slash	7	advance_on_keypress_SLASH	112	stimuli_distractor_diamondtriangles.svg	stimuli_distractor_diamondtriangles.svg	40	no	57	0	252
6.6.1	win	2022-12-16	07:50:40	07:55:52	309540	581d38509b5b8800014d507e	258286749	1	main_slash	7	main_slash	113	stimuli_target_circletriangles.svg	stimuli_distractor_trianglediamonds.svg	1	yes	53	1	606
6.6.1	win	2022-12-16	07:50:40	07:55:52	309540	581d38509b5b8800014d507e	258286749	1	main_slash	7	advance_on_keypress_SLASH	114	stimuli_target_circletriangles.svg	stimuli_distractor_trianglediamonds.svg	1	yes	57	0	660
6.6.1	win	2022-12-16	07:50:40	07:55:53	311404	581d38509b5b8800014d507e	258286749	1	main_slash	7	main_slash	115	stimuli_distractor_trianglediamonds.svg	stimuli_target_diamondcircles.svg	27	yes	53	1	553
6.6.1	win	2022-12-16	07:50:40	07:55:53	311404	581d38509b5b8800014d507e	258286749	1	main_slash	7	advance_on_keypress_SLASH	116	stimuli_distractor_trianglediamonds.svg	stimuli_target_diamondcircles.svg	27	yes	57	0	515
6.6.1	win	2022-12-16	07:50:40	07:55:56	313423	581d38509b5b8800014d507e	258286749	1	main_slash	7	main_slash	117	stimuli_distractor_diamondtriangles.svg	stimuli_target_trianglecircles.svg	29	yes	53	1	856
6.6.1	win	2022-12-16	07:50:40	07:55:56	313423	581d38509b5b8800014d507e	258286749	1	main_slash	7	advance_on_keypress_SLASH	118	stimuli_distractor_diamondtriangles.svg	stimuli_target_trianglecircles.svg	29	yes	57	0	552
6.6.1	win	2022-12-16	07:50:40	07:55:57	315380	581d38509b5b8800014d507e	258286749	1	main_slash	7	main_slash	119	stimuli_target_squaretriangles.svg	stimuli_distractor_diamondtriangles.svg	7	yes	53	1	745
6.6.1	win	2022-12-16	07:50:40	07:55:57	315380	581d38509b5b8800014d507e	258286749	1	main_slash	7	advance_on_keypress_SLASH	120	stimuli_target_squaretriangles.svg	stimuli_distractor_diamondtriangles.svg	7	yes	57	0	434
6.6.1	win	2022-12-16	07:50:40	07:55:59	317109	581d38509b5b8800014d507e	258286749	1	main_slash	7	main_slash	121	stimuli_distractor_diamondtriangles.svg	stimuli_target_circlediamonds.svg	14	yes	53	1	641
6.6.1	win	2022-12-16	07:50:40	07:55:59	317109	581d38509b5b8800014d507e	258286749	1	main_slash	7	advance_on_keypress_SLASH	122	stimuli_distractor_diamondtriangles.svg	stimuli_target_circlediamonds.svg	14	yes	57	0	369
6.6.1	win	2022-12-16	07:50:40	07:56:01	318869	581d38509b5b8800014d507e	258286749	1	main_slash	7	main_slash	123	stimuli_distractor_trianglediamonds.svg	stimuli_target_trianglecircles.svg	25	yes	53	1	734
6.6.1	win	2022-12-16	07:50:40	07:56:01	318869	581d38509b5b8800014d507e	258286749	1	main_slash	7	advance_on_keypress_SLASH	124	stimuli_distractor_trianglediamonds.svg	stimuli_target_trianglecircles.svg	25	yes	57	0	347
6.6.1	win	2022-12-16	07:50:40	07:56:04	321868	581d38509b5b8800014d507e	258286749	1	main_slash	7	main_slash	125	stimuli_target_diamondsquares.svg	stimuli_distractor_trianglediamonds.svg	20	yes	0	0	2000
6.6.1	win	2022-12-16	07:50:40	07:56:04	321868	581d38509b5b8800014d507e	258286749	1	main_slash	7	advance_on_keypress_SLASH	126	stimuli_target_diamondsquares.svg	stimuli_distractor_trianglediamonds.svg	20	yes	57	0	375
6.6.1	win	2022-12-16	07:50:40	07:56:07	324885	581d38509b5b8800014d507e	258286749	1	main_slash	7	main_slash	127	stimuli_distractor_trianglediamonds.svg	stimuli_distractor_trianglediamonds.svg	34	no	0	1	2000
6.6.1	win	2022-12-16	07:50:40	07:56:07	324885	581d38509b5b8800014d507e	258286749	1	main_slash	7	advance_on_keypress_SLASH	128	stimuli_distractor_trianglediamonds.svg	stimuli_distractor_trianglediamonds.svg	34	no	57	0	338
6.6.1	win	2022-12-16	07:50:40	07:56:08	326403	581d38509b5b8800014d507e	258286749	1	main_slash	7	main_slash	129	stimuli_target_squarediamonds.svg	stimuli_distractor_diamondtriangles.svg	8	yes	53	1	535
6.6.1	win	2022-12-16	07:50:40	07:56:08	326403	581d38509b5b8800014d507e	258286749	1	main_slash	7	advance_on_keypress_SLASH	130	stimuli_target_squarediamonds.svg	stimuli_distractor_diamondtriangles.svg	8	yes	57	0	920
6.6.1	win	2022-12-16	07:50:40	07:56:11	328963	581d38509b5b8800014d507e	258286749	1	main_slash	7	main_slash	131	stimuli_target_trianglesquares.svg	stimuli_distractor_diamondtriangles.svg	22	yes	53	1	995
6.6.1	win	2022-12-16	07:50:40	07:56:11	328963	581d38509b5b8800014d507e	258286749	1	main_slash	7	advance_on_keypress_SLASH	132	stimuli_target_trianglesquares.svg	stimuli_distractor_diamondtriangles.svg	22	yes	57	0	1712
6.6.1	win	2022-12-16	07:50:40	07:56:15	333318	581d38509b5b8800014d507e	258286749	1	main_slash	7	main_slash	133	stimuli_target_circletriangles.svg	stimuli_distractor_diamondtriangles.svg	5	yes	0	0	2000
6.6.1	win	2022-12-16	07:50:40	07:56:15	333318	581d38509b5b8800014d507e	258286749	1	main_slash	7	advance_on_keypress_SLASH	134	stimuli_target_circletriangles.svg	stimuli_distractor_diamondtriangles.svg	5	yes	57	0	586
6.6.1	win	2022-12-16	07:50:40	07:56:17	335007	581d38509b5b8800014d507e	258286749	1	main_slash	7	main_slash	135	stimuli_target_circlediamonds.svg	stimuli_distractor_diamondtriangles.svg	6	yes	53	1	455
6.6.1	win	2022-12-16	07:50:40	07:56:17	335007	581d38509b5b8800014d507e	258286749	1	main_slash	7	advance_on_keypress_SLASH	136	stimuli_target_circlediamonds.svg	stimuli_distractor_diamondtriangles.svg	6	yes	57	0	766
6.6.1	win	2022-12-16	07:50:40	07:56:19	336769	581d38509b5b8800014d507e	258286749	1	main_slash	7	main_slash	137	stimuli_distractor_trianglediamonds.svg	stimuli_target_squaretriangles.svg	11	yes	53	1	334
6.6.1	win	2022-12-16	07:50:40	07:56:19	336769	581d38509b5b8800014d507e	258286749	1	main_slash	7	advance_on_keypress_SLASH	138	stimuli_distractor_trianglediamonds.svg	stimuli_target_squaretriangles.svg	11	yes	57	0	542
6.6.1	win	2022-12-16	07:50:40	07:56:20	338348	581d38509b5b8800014d507e	258286749	1	main_slash	7	main_slash	139	stimuli_target_squaretriangles.svg	stimuli_distractor_trianglediamonds.svg	3	yes	53	1	397
6.6.1	win	2022-12-16	07:50:40	07:56:20	338348	581d38509b5b8800014d507e	258286749	1	main_slash	7	advance_on_keypress_SLASH	140	stimuli_target_squaretriangles.svg	stimuli_distractor_trianglediamonds.svg	3	yes	57	0	475
6.6.1	win	2022-12-16	07:50:40	07:56:22	339752	581d38509b5b8800014d507e	258286749	1	main_slash	7	main_slash	141	stimuli_distractor_diamondtriangles.svg	stimuli_target_circletriangles.svg	13	yes	53	1	285
6.6.1	win	2022-12-16	07:50:40	07:56:22	339752	581d38509b5b8800014d507e	258286749	1	main_slash	7	advance_on_keypress_SLASH	142	stimuli_distractor_diamondtriangles.svg	stimuli_target_circletriangles.svg	13	yes	57	0	390
6.6.1	win	2022-12-16	07:50:40	07:56:25	342784	581d38509b5b8800014d507e	258286749	1	main_slash	7	main_slash	143	stimuli_distractor_diamondtriangles.svg	stimuli_distractor_trianglediamonds.svg	37	no	0	1	2000
6.6.1	win	2022-12-16	07:50:40	07:56:25	342784	581d38509b5b8800014d507e	258286749	1	main_slash	7	advance_on_keypress_SLASH	144	stimuli_distractor_diamondtriangles.svg	stimuli_distractor_trianglediamonds.svg	37	no	57	0	536
6.6.1	win	2022-12-16	07:50:40	07:56:28	345968	581d38509b5b8800014d507e	258286749	1	main_slash	7	main_slash	145	stimuli_distractor_trianglediamonds.svg	stimuli_distractor_trianglediamonds.svg	33	no	0	1	2000
6.6.1	win	2022-12-16	07:50:40	07:56:28	345968	581d38509b5b8800014d507e	258286749	1	main_slash	7	advance_on_keypress_SLASH	146	stimuli_distractor_trianglediamonds.svg	stimuli_distractor_trianglediamonds.svg	33	no	57	0	461
6.6.1	win	2022-12-16	07:50:40	07:56:31	349069	581d38509b5b8800014d507e	258286749	1	main_slash	7	main_slash	147	stimuli_target_diamondcircles.svg	stimuli_distractor_trianglediamonds.svg	19	yes	0	0	2000
6.6.1	win	2022-12-16	07:50:40	07:56:31	349069	581d38509b5b8800014d507e	258286749	1	main_slash	7	advance_on_keypress_SLASH	148	stimuli_target_diamondcircles.svg	stimuli_distractor_trianglediamonds.svg	19	yes	57	0	371
6.6.1	win	2022-12-16	07:50:40	07:56:33	350593	581d38509b5b8800014d507e	258286749	1	main_slash	7	main_slash	149	stimuli_distractor_trianglediamonds.svg	stimuli_target_circletriangles.svg	9	yes	53	1	505
6.6.1	win	2022-12-16	07:50:40	07:56:33	350593	581d38509b5b8800014d507e	258286749	1	main_slash	7	advance_on_keypress_SLASH	150	stimuli_distractor_trianglediamonds.svg	stimuli_target_circletriangles.svg	9	yes	57	0	464
6.6.1	win	2022-12-16	07:50:40	07:56:36	353718	581d38509b5b8800014d507e	258286749	1	main_slash	7	main_slash	151	stimuli_target_trianglecircles.svg	stimuli_distractor_trianglediamonds.svg	17	yes	0	0	2000
6.6.1	win	2022-12-16	07:50:40	07:56:36	353718	581d38509b5b8800014d507e	258286749	1	main_slash	7	advance_on_keypress_SLASH	152	stimuli_target_trianglecircles.svg	stimuli_distractor_trianglediamonds.svg	17	yes	57	0	492
6.6.1	win	2022-12-16	07:50:40	07:56:39	356852	581d38509b5b8800014d507e	258286749	1	main_slash	7	main_slash	153	stimuli_distractor_trianglediamonds.svg	stimuli_distractor_diamondtriangles.svg	36	no	0	1	2000
6.6.1	win	2022-12-16	07:50:40	07:56:39	356852	581d38509b5b8800014d507e	258286749	1	main_slash	7	advance_on_keypress_SLASH	154	stimuli_distractor_trianglediamonds.svg	stimuli_distractor_diamondtriangles.svg	36	no	57	0	326
6.6.1	win	2022-12-16	07:50:40	07:56:40	358249	581d38509b5b8800014d507e	258286749	1	main_slash	7	main_slash	155	stimuli_distractor_diamondtriangles.svg	stimuli_target_squaretriangles.svg	15	yes	53	1	430
6.6.1	win	2022-12-16	07:50:40	07:56:40	358249	581d38509b5b8800014d507e	258286749	1	main_slash	7	advance_on_keypress_SLASH	156	stimuli_distractor_diamondtriangles.svg	stimuli_target_squaretriangles.svg	15	yes	57	0	539
6.6.1	win	2022-12-16	07:50:40	07:56:42	359958	581d38509b5b8800014d507e	258286749	1	main_slash	7	main_slash	157	stimuli_target_circlediamonds.svg	stimuli_distractor_trianglediamonds.svg	2	yes	53	1	523
6.6.1	win	2022-12-16	07:50:40	07:56:42	359958	581d38509b5b8800014d507e	258286749	1	main_slash	7	advance_on_keypress_SLASH	158	stimuli_target_circlediamonds.svg	stimuli_distractor_trianglediamonds.svg	2	yes	57	0	421
6.6.1	win	2022-12-16	07:50:40	07:56:45	363035	581d38509b5b8800014d507e	258286749	1	main_slash	7	main_slash	159	stimuli_distractor_diamondtriangles.svg	stimuli_target_diamondsquares.svg	32	yes	0	0	2000
6.6.1	win	2022-12-16	07:50:40	07:56:45	363035	581d38509b5b8800014d507e	258286749	1	main_slash	7	advance_on_keypress_SLASH	160	stimuli_distractor_diamondtriangles.svg	stimuli_target_diamondsquares.svg	32	yes	57	0	456
6.6.1	win	2022-12-16	07:50:40	07:57:07	385037	581d38509b5b8800014d507e	258286749	1	practice_z	9	practice_z	1	stimuli_distractor_diamondtriangles.svg	stimuli_distractor_diamondtriangles.svg	13	no	0	1	2000
6.6.1	win	2022-12-16	07:50:40	07:57:07	385037	581d38509b5b8800014d507e	258286749	1	practice_z	9	advance_on_keypress_ZEE	2	stimuli_distractor_diamondtriangles.svg	stimuli_distractor_diamondtriangles.svg	13	no	57	0	1110
6.6.1	win	2022-12-16	07:50:40	07:57:12	389802	581d38509b5b8800014d507e	258286749	1	practice_z	9	practice_z	3	stimuli_target_diamondsquares.svg	stimuli_distractor_diamondtriangles.svg	3	yes	0	0	2000
6.6.1	win	2022-12-16	07:50:40	07:57:12	389802	581d38509b5b8800014d507e	258286749	1	practice_z	9	advance_on_keypress_ZEE	4	stimuli_target_diamondsquares.svg	stimuli_distractor_diamondtriangles.svg	3	yes	57	0	672
6.6.1	win	2022-12-16	07:50:40	07:57:15	392601	581d38509b5b8800014d507e	258286749	1	practice_z	9	practice_z	5	stimuli_distractor_trianglediamonds.svg	stimuli_target_squarediamonds.svg	11	yes	44	1	482
6.6.1	win	2022-12-16	07:50:40	07:57:15	392601	581d38509b5b8800014d507e	258286749	1	practice_z	9	advance_on_keypress_ZEE	6	stimuli_distractor_trianglediamonds.svg	stimuli_target_squarediamonds.svg	11	yes	57	0	531
6.6.1	win	2022-12-16	07:50:40	07:57:17	395132	581d38509b5b8800014d507e	258286749	1	practice_z	9	practice_z	7	stimuli_distractor_trianglediamonds.svg	stimuli_target_circlediamonds.svg	10	yes	44	1	346
6.6.1	win	2022-12-16	07:50:40	07:57:17	395132	581d38509b5b8800014d507e	258286749	1	practice_z	9	advance_on_keypress_ZEE	8	stimuli_distractor_trianglediamonds.svg	stimuli_target_circlediamonds.svg	10	yes	57	0	392
6.6.1	win	2022-12-16	07:50:40	07:57:20	397533	581d38509b5b8800014d507e	258286749	1	practice_z	9	practice_z	9	stimuli_target_squarediamonds.svg	stimuli_distractor_diamondtriangles.svg	2	yes	44	1	347
6.6.1	win	2022-12-16	07:50:40	07:57:20	397533	581d38509b5b8800014d507e	258286749	1	practice_z	9	advance_on_keypress_ZEE	10	stimuli_target_squarediamonds.svg	stimuli_distractor_diamondtriangles.svg	2	yes	57	0	215
6.6.1	win	2022-12-16	07:50:40	07:57:22	399668	581d38509b5b8800014d507e	258286749	1	practice_z	9	practice_z	11	stimuli_distractor_trianglediamonds.svg	stimuli_target_diamondcircles.svg	12	yes	44	1	265
6.6.1	win	2022-12-16	07:50:40	07:57:22	399668	581d38509b5b8800014d507e	258286749	1	practice_z	9	advance_on_keypress_ZEE	12	stimuli_distractor_trianglediamonds.svg	stimuli_target_diamondcircles.svg	12	yes	57	0	285
6.6.1	win	2022-12-16	07:50:40	07:57:24	401834	581d38509b5b8800014d507e	258286749	1	practice_z	9	practice_z	13	stimuli_target_squarediamonds.svg	stimuli_distractor_trianglediamonds.svg	5	yes	44	1	227
6.6.1	win	2022-12-16	07:50:40	07:57:24	401834	581d38509b5b8800014d507e	258286749	1	practice_z	9	advance_on_keypress_ZEE	14	stimuli_target_squarediamonds.svg	stimuli_distractor_trianglediamonds.svg	5	yes	57	0	404
6.6.1	win	2022-12-16	07:50:40	07:57:26	404221	581d38509b5b8800014d507e	258286749	1	practice_z	9	practice_z	15	stimuli_distractor_diamondtriangles.svg	stimuli_target_diamondcircles.svg	8	yes	44	1	335
6.6.1	win	2022-12-16	07:50:40	07:57:26	404221	581d38509b5b8800014d507e	258286749	1	practice_z	9	advance_on_keypress_ZEE	16	stimuli_distractor_diamondtriangles.svg	stimuli_target_diamondcircles.svg	8	yes	57	0	279
6.6.1	win	2022-12-16	07:50:40	07:57:29	406608	581d38509b5b8800014d507e	258286749	1	practice_z	9	practice_z	17	stimuli_distractor_diamondtriangles.svg	stimuli_target_trianglecircles.svg	9	yes	44	1	454
6.6.1	win	2022-12-16	07:50:40	07:57:29	406608	581d38509b5b8800014d507e	258286749	1	practice_z	9	advance_on_keypress_ZEE	18	stimuli_distractor_diamondtriangles.svg	stimuli_target_trianglecircles.svg	9	yes	57	0	239
6.6.1	win	2022-12-16	07:50:40	07:57:33	410502	581d38509b5b8800014d507e	258286749	1	practice_z	9	practice_z	19	stimuli_target_diamondsquares.svg	stimuli_distractor_trianglediamonds.svg	6	yes	0	0	2000
6.6.1	win	2022-12-16	07:50:40	07:57:33	410502	581d38509b5b8800014d507e	258286749	1	practice_z	9	advance_on_keypress_ZEE	20	stimuli_target_diamondsquares.svg	stimuli_distractor_trianglediamonds.svg	6	yes	57	0	446
6.6.1	win	2022-12-16	07:50:40	07:57:37	414602	581d38509b5b8800014d507e	258286749	1	practice_z	9	practice_z	21	stimuli_distractor_trianglediamonds.svg	stimuli_distractor_trianglediamonds.svg	15	no	0	1	2000
6.6.1	win	2022-12-16	07:50:40	07:57:37	414602	581d38509b5b8800014d507e	258286749	1	practice_z	9	advance_on_keypress_ZEE	22	stimuli_distractor_trianglediamonds.svg	stimuli_distractor_trianglediamonds.svg	15	no	57	0	248
6.6.1	win	2022-12-16	07:50:40	07:57:41	418503	581d38509b5b8800014d507e	258286749	1	practice_z	9	practice_z	23	stimuli_distractor_trianglediamonds.svg	stimuli_distractor_diamondtriangles.svg	16	no	0	1	2000
6.6.1	win	2022-12-16	07:50:40	07:57:41	418503	581d38509b5b8800014d507e	258286749	1	practice_z	9	advance_on_keypress_ZEE	24	stimuli_distractor_trianglediamonds.svg	stimuli_distractor_diamondtriangles.svg	16	no	57	0	411
6.6.1	win	2022-12-16	07:50:40	07:57:45	422569	581d38509b5b8800014d507e	258286749	1	practice_z	9	practice_z	25	stimuli_distractor_diamondtriangles.svg	stimuli_distractor_trianglediamonds.svg	14	no	0	1	2000
6.6.1	win	2022-12-16	07:50:40	07:57:45	422569	581d38509b5b8800014d507e	258286749	1	practice_z	9	advance_on_keypress_ZEE	26	stimuli_distractor_diamondtriangles.svg	stimuli_distractor_trianglediamonds.svg	14	no	57	0	253
6.6.1	win	2022-12-16	07:50:40	07:57:48	426131	581d38509b5b8800014d507e	258286749	1	practice_z	9	practice_z	27	stimuli_target_circlediamonds.svg	stimuli_distractor_diamondtriangles.svg	1	yes	44	1	1662
6.6.1	win	2022-12-16	07:50:40	07:57:48	426131	581d38509b5b8800014d507e	258286749	1	practice_z	9	advance_on_keypress_ZEE	28	stimuli_target_circlediamonds.svg	stimuli_distractor_diamondtriangles.svg	1	yes	57	0	384
6.6.1	win	2022-12-16	07:50:40	07:57:51	428742	581d38509b5b8800014d507e	258286749	1	practice_z	9	practice_z	29	stimuli_distractor_diamondtriangles.svg	stimuli_target_circletriangles.svg	7	yes	44	1	573
6.6.1	win	2022-12-16	07:50:40	07:57:51	428742	581d38509b5b8800014d507e	258286749	1	practice_z	9	advance_on_keypress_ZEE	30	stimuli_distractor_diamondtriangles.svg	stimuli_target_circletriangles.svg	7	yes	57	0	415
6.6.1	win	2022-12-16	07:50:40	07:57:53	431260	581d38509b5b8800014d507e	258286749	1	practice_z	9	practice_z	31	stimuli_target_circlediamonds.svg	stimuli_distractor_trianglediamonds.svg	4	yes	44	1	440
6.6.1	win	2022-12-16	07:50:40	07:57:53	431260	581d38509b5b8800014d507e	258286749	1	practice_z	9	advance_on_keypress_ZEE	32	stimuli_target_circlediamonds.svg	stimuli_distractor_trianglediamonds.svg	4	yes	57	0	477
6.6.1	win	2022-12-16	07:50:40	07:58:00	438101	581d38509b5b8800014d507e	258286749	1	main_z	11	main_z	1	stimuli_distractor_trianglediamonds.svg	stimuli_distractor_trianglediamonds.svg	34	no	0	1	2000
6.6.1	win	2022-12-16	07:50:40	07:58:00	438101	581d38509b5b8800014d507e	258286749	1	main_z	11	advance_on_keypress_ZEE	2	stimuli_distractor_trianglediamonds.svg	stimuli_distractor_trianglediamonds.svg	34	no	57	0	495
6.6.1	win	2022-12-16	07:50:40	07:58:02	439665	581d38509b5b8800014d507e	258286749	1	main_z	11	main_z	3	stimuli_distractor_trianglediamonds.svg	stimuli_target_squarediamonds.svg	12	yes	44	1	431
6.6.1	win	2022-12-16	07:50:40	07:58:02	439665	581d38509b5b8800014d507e	258286749	1	main_z	11	advance_on_keypress_ZEE	4	stimuli_distractor_trianglediamonds.svg	stimuli_target_squarediamonds.svg	12	yes	57	0	658
6.6.1	win	2022-12-16	07:50:40	07:58:04	441455	581d38509b5b8800014d507e	258286749	1	main_z	11	main_z	5	stimuli_target_diamondcircles.svg	stimuli_distractor_trianglediamonds.svg	19	yes	44	1	487
6.6.1	win	2022-12-16	07:50:40	07:58:04	441455	581d38509b5b8800014d507e	258286749	1	main_z	11	advance_on_keypress_ZEE	6	stimuli_target_diamondcircles.svg	stimuli_distractor_trianglediamonds.svg	19	yes	57	0	515
6.6.1	win	2022-12-16	07:50:40	07:58:05	443203	581d38509b5b8800014d507e	258286749	1	main_z	11	main_z	7	stimuli_target_diamondcircles.svg	stimuli_distractor_diamondtriangles.svg	23	yes	44	1	586
6.6.1	win	2022-12-16	07:50:40	07:58:05	443203	581d38509b5b8800014d507e	258286749	1	main_z	11	advance_on_keypress_ZEE	8	stimuli_target_diamondcircles.svg	stimuli_distractor_diamondtriangles.svg	23	yes	57	0	436
6.6.1	win	2022-12-16	07:50:40	07:58:07	444623	581d38509b5b8800014d507e	258286749	1	main_z	11	main_z	9	stimuli_distractor_diamondtriangles.svg	stimuli_target_circlediamonds.svg	14	yes	44	1	338
6.6.1	win	2022-12-16	07:50:40	07:58:07	444623	581d38509b5b8800014d507e	258286749	1	main_z	11	advance_on_keypress_ZEE	10	stimuli_distractor_diamondtriangles.svg	stimuli_target_circlediamonds.svg	14	yes	57	0	302
6.6.1	win	2022-12-16	07:50:40	07:58:08	445913	581d38509b5b8800014d507e	258286749	1	main_z	11	main_z	11	stimuli_target_squaretriangles.svg	stimuli_distractor_trianglediamonds.svg	3	yes	44	1	329
6.6.1	win	2022-12-16	07:50:40	07:58:08	445913	581d38509b5b8800014d507e	258286749	1	main_z	11	advance_on_keypress_ZEE	12	stimuli_target_squaretriangles.svg	stimuli_distractor_trianglediamonds.svg	3	yes	57	0	171
6.6.1	win	2022-12-16	07:50:40	07:58:09	446981	581d38509b5b8800014d507e	258286749	1	main_z	11	main_z	13	stimuli_distractor_diamondtriangles.svg	stimuli_distractor_diamondtriangles.svg	39	no	44	0	246
6.6.1	win	2022-12-16	07:50:40	07:58:09	446981	581d38509b5b8800014d507e	258286749	1	main_z	11	advance_on_keypress_ZEE	14	stimuli_distractor_diamondtriangles.svg	stimuli_distractor_diamondtriangles.svg	39	no	57	0	102
6.6.1	win	2022-12-16	07:50:40	07:58:10	448376	581d38509b5b8800014d507e	258286749	1	main_z	11	main_z	15	stimuli_target_trianglecircles.svg	stimuli_distractor_diamondtriangles.svg	21	yes	44	1	641
6.6.1	win	2022-12-16	07:50:40	07:58:10	448376	581d38509b5b8800014d507e	258286749	1	main_z	11	advance_on_keypress_ZEE	16	stimuli_target_trianglecircles.svg	stimuli_distractor_diamondtriangles.svg	21	yes	57	0	534
6.6.1	win	2022-12-16	07:50:40	07:58:12	449803	581d38509b5b8800014d507e	258286749	1	main_z	11	main_z	17	stimuli_target_circletriangles.svg	stimuli_distractor_diamondtriangles.svg	5	yes	44	1	235
6.6.1	win	2022-12-16	07:50:40	07:58:12	449803	581d38509b5b8800014d507e	258286749	1	main_z	11	advance_on_keypress_ZEE	18	stimuli_target_circletriangles.svg	stimuli_distractor_diamondtriangles.svg	5	yes	57	0	410
6.6.1	win	2022-12-16	07:50:40	07:58:13	451020	581d38509b5b8800014d507e	258286749	1	main_z	11	main_z	19	stimuli_distractor_diamondtriangles.svg	stimuli_target_circletriangles.svg	13	yes	44	1	168
6.6.1	win	2022-12-16	07:50:40	07:58:13	451020	581d38509b5b8800014d507e	258286749	1	main_z	11	advance_on_keypress_ZEE	20	stimuli_distractor_diamondtriangles.svg	stimuli_target_circletriangles.svg	13	yes	57	0	60
6.6.1	win	2022-12-16	07:50:40	07:58:15	452569	581d38509b5b8800014d507e	258286749	1	main_z	11	main_z	21	stimuli_distractor_trianglediamonds.svg	stimuli_target_trianglesquares.svg	26	yes	44	1	850
6.6.1	win	2022-12-16	07:50:40	07:58:15	452569	581d38509b5b8800014d507e	258286749	1	main_z	11	advance_on_keypress_ZEE	22	stimuli_distractor_trianglediamonds.svg	stimuli_target_trianglesquares.svg	26	yes	57	0	101
6.6.1	win	2022-12-16	07:50:40	07:58:16	453671	581d38509b5b8800014d507e	258286749	1	main_z	11	main_z	23	stimuli_distractor_trianglediamonds.svg	stimuli_target_trianglecircles.svg	25	yes	44	1	352
6.6.1	win	2022-12-16	07:50:40	07:58:16	453671	581d38509b5b8800014d507e	258286749	1	main_z	11	advance_on_keypress_ZEE	24	stimuli_distractor_trianglediamonds.svg	stimuli_target_trianglecircles.svg	25	yes	57	0	22
6.6.1	win	2022-12-16	07:50:40	07:58:17	454603	581d38509b5b8800014d507e	258286749	1	main_z	11	main_z	25	stimuli_distractor_diamondtriangles.svg	stimuli_target_diamondsquares.svg	32	yes	44	1	268
6.6.1	win	2022-12-16	07:50:40	07:58:17	454603	581d38509b5b8800014d507e	258286749	1	main_z	11	advance_on_keypress_ZEE	26	stimuli_distractor_diamondtriangles.svg	stimuli_target_diamondsquares.svg	32	yes	57	0	57
6.6.1	win	2022-12-16	07:50:40	07:58:18	455735	581d38509b5b8800014d507e	258286749	1	main_z	11	main_z	27	stimuli_target_circlediamonds.svg	stimuli_distractor_diamondtriangles.svg	6	yes	44	1	433
6.6.1	win	2022-12-16	07:50:40	07:58:18	455735	581d38509b5b8800014d507e	258286749	1	main_z	11	advance_on_keypress_ZEE	28	stimuli_target_circlediamonds.svg	stimuli_distractor_diamondtriangles.svg	6	yes	57	0	18
6.6.1	win	2022-12-16	07:50:40	07:58:19	456620	581d38509b5b8800014d507e	258286749	1	main_z	11	main_z	29	stimuli_distractor_diamondtriangles.svg	stimuli_target_squarediamonds.svg	16	yes	44	1	218
6.6.1	win	2022-12-16	07:50:40	07:58:19	456620	581d38509b5b8800014d507e	258286749	1	main_z	11	advance_on_keypress_ZEE	30	stimuli_distractor_diamondtriangles.svg	stimuli_target_squarediamonds.svg	16	yes	57	0	21
6.6.1	win	2022-12-16	07:50:40	07:58:20	457605	581d38509b5b8800014d507e	258286749	1	main_z	11	main_z	31	stimuli_distractor_trianglediamonds.svg	stimuli_target_squaretriangles.svg	11	yes	44	1	321
6.6.1	win	2022-12-16	07:50:40	07:58:20	457605	581d38509b5b8800014d507e	258286749	1	main_z	11	advance_on_keypress_ZEE	32	stimuli_distractor_trianglediamonds.svg	stimuli_target_squaretriangles.svg	11	yes	57	0	64
6.6.1	win	2022-12-16	07:50:40	07:58:21	458527	581d38509b5b8800014d507e	258286749	1	main_z	11	main_z	33	stimuli_distractor_diamondtriangles.svg	stimuli_target_diamondcircles.svg	31	yes	44	1	210
6.6.1	win	2022-12-16	07:50:40	07:58:21	458527	581d38509b5b8800014d507e	258286749	1	main_z	11	advance_on_keypress_ZEE	34	stimuli_distractor_diamondtriangles.svg	stimuli_target_diamondcircles.svg	31	yes	57	0	48
6.6.1	win	2022-12-16	07:50:40	07:58:22	459646	581d38509b5b8800014d507e	258286749	1	main_z	11	main_z	35	stimuli_target_circlediamonds.svg	stimuli_distractor_trianglediamonds.svg	2	yes	44	1	411
6.6.1	win	2022-12-16	07:50:40	07:58:22	459646	581d38509b5b8800014d507e	258286749	1	main_z	11	advance_on_keypress_ZEE	36	stimuli_target_circlediamonds.svg	stimuli_distractor_trianglediamonds.svg	2	yes	57	0	15
6.6.1	win	2022-12-16	07:50:40	07:58:23	460525	581d38509b5b8800014d507e	258286749	1	main_z	11	main_z	37	stimuli_distractor_trianglediamonds.svg	stimuli_target_circlediamonds.svg	10	yes	44	1	207
6.6.1	win	2022-12-16	07:50:40	07:58:23	460525	581d38509b5b8800014d507e	258286749	1	main_z	11	advance_on_keypress_ZEE	38	stimuli_distractor_trianglediamonds.svg	stimuli_target_circlediamonds.svg	10	yes	57	0	13
6.6.1	win	2022-12-16	07:50:40	07:58:24	461454	581d38509b5b8800014d507e	258286749	1	main_z	11	main_z	39	stimuli_distractor_diamondtriangles.svg	stimuli_target_trianglecircles.svg	29	yes	44	1	270
6.6.1	win	2022-12-16	07:50:40	07:58:24	461454	581d38509b5b8800014d507e	258286749	1	main_z	11	advance_on_keypress_ZEE	40	stimuli_distractor_diamondtriangles.svg	stimuli_target_trianglecircles.svg	29	yes	57	0	20
6.6.1	win	2022-12-16	07:50:40	07:58:24	462407	581d38509b5b8800014d507e	258286749	1	main_z	11	main_z	41	stimuli_distractor_diamondtriangles.svg	stimuli_distractor_trianglediamonds.svg	37	no	44	0	289
6.6.1	win	2022-12-16	07:50:40	07:58:24	462407	581d38509b5b8800014d507e	258286749	1	main_z	11	advance_on_keypress_ZEE	42	stimuli_distractor_diamondtriangles.svg	stimuli_distractor_trianglediamonds.svg	37	no	57	0	12
6.6.1	win	2022-12-16	07:50:40	07:58:27	464669	581d38509b5b8800014d507e	258286749	1	main_z	11	main_z	43	stimuli_target_trianglecircles.svg	stimuli_distractor_trianglediamonds.svg	17	yes	44	1	1601
6.6.1	win	2022-12-16	07:50:40	07:58:27	464669	581d38509b5b8800014d507e	258286749	1	main_z	11	advance_on_keypress_ZEE	44	stimuli_target_trianglecircles.svg	stimuli_distractor_trianglediamonds.svg	17	yes	57	0	990
6.6.1	win	2022-12-16	07:50:40	07:58:29	466537	581d38509b5b8800014d507e	258286749	1	main_z	11	main_z	45	stimuli_distractor_trianglediamonds.svg	stimuli_target_diamondsquares.svg	28	yes	44	1	236
6.6.1	win	2022-12-16	07:50:40	07:58:29	466537	581d38509b5b8800014d507e	258286749	1	main_z	11	advance_on_keypress_ZEE	46	stimuli_distractor_trianglediamonds.svg	stimuli_target_diamondsquares.svg	28	yes	57	0	102
6.6.1	win	2022-12-16	07:50:40	07:58:30	468079	581d38509b5b8800014d507e	258286749	1	main_z	11	main_z	47	stimuli_distractor_trianglediamonds.svg	stimuli_target_diamondcircles.svg	27	yes	44	1	795
6.6.1	win	2022-12-16	07:50:40	07:58:30	468079	581d38509b5b8800014d507e	258286749	1	main_z	11	advance_on_keypress_ZEE	48	stimuli_distractor_trianglediamonds.svg	stimuli_target_diamondcircles.svg	27	yes	57	0	128
6.6.1	win	2022-12-16	07:50:40	07:58:31	469042	581d38509b5b8800014d507e	258286749	1	main_z	11	main_z	49	stimuli_distractor_trianglediamonds.svg	stimuli_target_circletriangles.svg	9	yes	44	1	191
6.6.1	win	2022-12-16	07:50:40	07:58:31	469042	581d38509b5b8800014d507e	258286749	1	main_z	11	advance_on_keypress_ZEE	50	stimuli_distractor_trianglediamonds.svg	stimuli_target_circletriangles.svg	9	yes	57	0	48
6.6.1	win	2022-12-16	07:50:40	07:58:32	469884	581d38509b5b8800014d507e	258286749	1	main_z	11	main_z	51	stimuli_distractor_trianglediamonds.svg	stimuli_distractor_diamondtriangles.svg	35	no	44	0	124
6.6.1	win	2022-12-16	07:50:40	07:58:32	469884	581d38509b5b8800014d507e	258286749	1	main_z	11	advance_on_keypress_ZEE	52	stimuli_distractor_trianglediamonds.svg	stimuli_distractor_diamondtriangles.svg	35	no	57	0	85
6.6.1	win	2022-12-16	07:50:40	07:58:33	471060	581d38509b5b8800014d507e	258286749	1	main_z	11	main_z	53	stimuli_target_squarediamonds.svg	stimuli_distractor_diamondtriangles.svg	8	yes	44	1	442
6.6.1	win	2022-12-16	07:50:40	07:58:33	471060	581d38509b5b8800014d507e	258286749	1	main_z	11	advance_on_keypress_ZEE	54	stimuli_target_squarediamonds.svg	stimuli_distractor_diamondtriangles.svg	8	yes	57	0	124
6.6.1	win	2022-12-16	07:50:40	07:58:34	472068	581d38509b5b8800014d507e	258286749	1	main_z	11	main_z	55	stimuli_distractor_trianglediamonds.svg	stimuli_distractor_trianglediamonds.svg	33	no	44	0	233
6.6.1	win	2022-12-16	07:50:40	07:58:34	472068	581d38509b5b8800014d507e	258286749	1	main_z	11	advance_on_keypress_ZEE	56	stimuli_distractor_trianglediamonds.svg	stimuli_distractor_trianglediamonds.svg	33	no	57	0	20
6.6.1	win	2022-12-16	07:50:40	07:58:35	473161	581d38509b5b8800014d507e	258286749	1	main_z	11	main_z	57	stimuli_target_squarediamonds.svg	stimuli_distractor_trianglediamonds.svg	4	yes	44	1	426
6.6.1	win	2022-12-16	07:50:40	07:58:35	473161	581d38509b5b8800014d507e	258286749	1	main_z	11	advance_on_keypress_ZEE	58	stimuli_target_squarediamonds.svg	stimuli_distractor_trianglediamonds.svg	4	yes	57	0	85
6.6.1	win	2022-12-16	07:50:40	07:58:37	474474	581d38509b5b8800014d507e	258286749	1	main_z	11	main_z	59	stimuli_target_squaretriangles.svg	stimuli_distractor_diamondtriangles.svg	7	yes	44	1	572
6.6.1	win	2022-12-16	07:50:40	07:58:37	474474	581d38509b5b8800014d507e	258286749	1	main_z	11	advance_on_keypress_ZEE	60	stimuli_target_squaretriangles.svg	stimuli_distractor_diamondtriangles.svg	7	yes	57	0	98
6.6.1	win	2022-12-16	07:50:40	07:58:38	475505	581d38509b5b8800014d507e	258286749	1	main_z	11	main_z	61	stimuli_target_diamondsquares.svg	stimuli_distractor_trianglediamonds.svg	20	yes	44	1	286
6.6.1	win	2022-12-16	07:50:40	07:58:38	475505	581d38509b5b8800014d507e	258286749	1	main_z	11	advance_on_keypress_ZEE	62	stimuli_target_diamondsquares.svg	stimuli_distractor_trianglediamonds.svg	20	yes	57	0	24
6.6.1	win	2022-12-16	07:50:40	07:58:40	478168	581d38509b5b8800014d507e	258286749	1	main_z	11	main_z	63	stimuli_distractor_trianglediamonds.svg	stimuli_distractor_diamondtriangles.svg	36	no	0	1	2000
6.6.1	win	2022-12-16	07:50:40	07:58:40	478168	581d38509b5b8800014d507e	258286749	1	main_z	11	advance_on_keypress_ZEE	64	stimuli_distractor_trianglediamonds.svg	stimuli_distractor_diamondtriangles.svg	36	no	57	0	249
6.6.1	win	2022-12-16	07:50:40	07:58:42	480287	581d38509b5b8800014d507e	258286749	1	main_z	11	main_z	65	stimuli_target_trianglesquares.svg	stimuli_distractor_trianglediamonds.svg	18	yes	44	1	1219
6.6.1	win	2022-12-16	07:50:40	07:58:42	480287	581d38509b5b8800014d507e	258286749	1	main_z	11	advance_on_keypress_ZEE	66	stimuli_target_trianglesquares.svg	stimuli_distractor_trianglediamonds.svg	18	yes	57	0	98
6.6.1	win	2022-12-16	07:50:40	07:58:44	481777	581d38509b5b8800014d507e	258286749	1	main_z	11	main_z	67	stimuli_target_circletriangles.svg	stimuli_distractor_trianglediamonds.svg	1	yes	44	1	743
6.6.1	win	2022-12-16	07:50:40	07:58:44	481777	581d38509b5b8800014d507e	258286749	1	main_z	11	advance_on_keypress_ZEE	68	stimuli_target_circletriangles.svg	stimuli_distractor_trianglediamonds.svg	1	yes	57	0	85
6.6.1	win	2022-12-16	07:50:40	07:58:45	482867	581d38509b5b8800014d507e	258286749	1	main_z	11	main_z	69	stimuli_distractor_diamondtriangles.svg	stimuli_target_squaretriangles.svg	15	yes	44	1	349
6.6.1	win	2022-12-16	07:50:40	07:58:45	482867	581d38509b5b8800014d507e	258286749	1	main_z	11	advance_on_keypress_ZEE	70	stimuli_distractor_diamondtriangles.svg	stimuli_target_squaretriangles.svg	15	yes	57	0	57
6.6.1	win	2022-12-16	07:50:40	07:58:48	485568	581d38509b5b8800014d507e	258286749	1	main_z	11	main_z	71	stimuli_distractor_diamondtriangles.svg	stimuli_distractor_diamondtriangles.svg	40	no	0	1	2000
6.6.1	win	2022-12-16	07:50:40	07:58:48	485568	581d38509b5b8800014d507e	258286749	1	main_z	11	advance_on_keypress_ZEE	72	stimuli_distractor_diamondtriangles.svg	stimuli_distractor_diamondtriangles.svg	40	no	57	0	86
6.6.1	win	2022-12-16	07:50:40	07:58:49	487284	581d38509b5b8800014d507e	258286749	1	main_z	11	main_z	73	stimuli_target_diamondsquares.svg	stimuli_distractor_diamondtriangles.svg	24	yes	44	1	983
6.6.1	win	2022-12-16	07:50:40	07:58:49	487284	581d38509b5b8800014d507e	258286749	1	main_z	11	advance_on_keypress_ZEE	74	stimuli_target_diamondsquares.svg	stimuli_distractor_diamondtriangles.svg	24	yes	57	0	135
6.6.1	win	2022-12-16	07:50:40	07:58:50	488392	581d38509b5b8800014d507e	258286749	1	main_z	11	main_z	75	stimuli_distractor_diamondtriangles.svg	stimuli_target_trianglesquares.svg	30	yes	44	1	325
6.6.1	win	2022-12-16	07:50:40	07:58:50	488392	581d38509b5b8800014d507e	258286749	1	main_z	11	advance_on_keypress_ZEE	76	stimuli_distractor_diamondtriangles.svg	stimuli_target_trianglesquares.svg	30	yes	57	0	1356
6.6.1	win	2022-12-16	07:50:40	07:58:53	490629	581d38509b5b8800014d507e	258286749	1	main_z	11	main_z	77	stimuli_distractor_diamondtriangles.svg	stimuli_distractor_trianglediamonds.svg	38	no	44	0	227
6.6.1	win	2022-12-16	07:50:40	07:58:53	490629	581d38509b5b8800014d507e	258286749	1	main_z	11	advance_on_keypress_ZEE	78	stimuli_distractor_diamondtriangles.svg	stimuli_distractor_trianglediamonds.svg	38	no	57	0	126
6.6.1	win	2022-12-16	07:50:40	07:58:54	491968	581d38509b5b8800014d507e	258286749	1	main_z	11	main_z	79	stimuli_target_trianglesquares.svg	stimuli_distractor_diamondtriangles.svg	22	yes	44	1	566
6.6.1	win	2022-12-16	07:50:40	07:58:54	491968	581d38509b5b8800014d507e	258286749	1	main_z	11	advance_on_keypress_ZEE	80	stimuli_target_trianglesquares.svg	stimuli_distractor_diamondtriangles.svg	22	yes	57	0	549
6.6.1	win	2022-12-16	07:50:40	07:58:56	493564	581d38509b5b8800014d507e	258286749	1	main_z	11	main_z	81	stimuli_distractor_diamondtriangles.svg	stimuli_target_circlediamonds.svg	14	yes	44	1	396
6.6.1	win	2022-12-16	07:50:40	07:58:56	493564	581d38509b5b8800014d507e	258286749	1	main_z	11	advance_on_keypress_ZEE	82	stimuli_distractor_diamondtriangles.svg	stimuli_target_circlediamonds.svg	14	yes	57	0	545
6.6.1	win	2022-12-16	07:50:40	07:58:57	495077	581d38509b5b8800014d507e	258286749	1	main_z	11	main_z	83	stimuli_distractor_diamondtriangles.svg	stimuli_target_squarediamonds.svg	16	yes	44	1	325
6.6.1	win	2022-12-16	07:50:40	07:58:57	495077	581d38509b5b8800014d507e	258286749	1	main_z	11	advance_on_keypress_ZEE	84	stimuli_distractor_diamondtriangles.svg	stimuli_target_squarediamonds.svg	16	yes	57	0	126
6.6.1	win	2022-12-16	07:50:40	07:58:58	496086	581d38509b5b8800014d507e	258286749	1	main_z	11	main_z	85	stimuli_distractor_diamondtriangles.svg	stimuli_distractor_diamondtriangles.svg	40	no	44	0	235
6.6.1	win	2022-12-16	07:50:40	07:58:58	496086	581d38509b5b8800014d507e	258286749	1	main_z	11	advance_on_keypress_ZEE	86	stimuli_distractor_diamondtriangles.svg	stimuli_distractor_diamondtriangles.svg	40	no	57	0	1630
6.6.1	win	2022-12-16	07:50:40	07:59:02	500368	581d38509b5b8800014d507e	258286749	1	main_z	11	main_z	87	stimuli_distractor_diamondtriangles.svg	stimuli_distractor_trianglediamonds.svg	37	no	0	1	2000
6.6.1	win	2022-12-16	07:50:40	07:59:02	500368	581d38509b5b8800014d507e	258286749	1	main_z	11	advance_on_keypress_ZEE	88	stimuli_distractor_diamondtriangles.svg	stimuli_distractor_trianglediamonds.svg	37	no	57	0	347
6.6.1	win	2022-12-16	07:50:40	07:59:04	502113	581d38509b5b8800014d507e	258286749	1	main_z	11	main_z	89	stimuli_distractor_trianglediamonds.svg	stimuli_target_diamondsquares.svg	28	yes	44	1	762
6.6.1	win	2022-12-16	07:50:40	07:59:04	502113	581d38509b5b8800014d507e	258286749	1	main_z	11	advance_on_keypress_ZEE	90	stimuli_distractor_trianglediamonds.svg	stimuli_target_diamondsquares.svg	28	yes	57	0	89
6.6.1	win	2022-12-16	07:50:40	07:59:05	503283	581d38509b5b8800014d507e	258286749	1	main_z	11	main_z	91	stimuli_target_squaretriangles.svg	stimuli_distractor_diamondtriangles.svg	7	yes	44	1	431
6.6.1	win	2022-12-16	07:50:40	07:59:05	503283	581d38509b5b8800014d507e	258286749	1	main_z	11	advance_on_keypress_ZEE	92	stimuli_target_squaretriangles.svg	stimuli_distractor_diamondtriangles.svg	7	yes	57	0	423
6.6.1	win	2022-12-16	07:50:40	07:59:07	504787	581d38509b5b8800014d507e	258286749	1	main_z	11	main_z	93	stimuli_distractor_trianglediamonds.svg	stimuli_target_squaretriangles.svg	11	yes	44	1	435
6.6.1	win	2022-12-16	07:50:40	07:59:07	504787	581d38509b5b8800014d507e	258286749	1	main_z	11	advance_on_keypress_ZEE	94	stimuli_distractor_trianglediamonds.svg	stimuli_target_squaretriangles.svg	11	yes	57	0	97
6.6.1	win	2022-12-16	07:50:40	07:59:10	507535	581d38509b5b8800014d507e	258286749	1	main_z	11	main_z	95	stimuli_target_diamondcircles.svg	stimuli_distractor_trianglediamonds.svg	19	yes	0	0	2000
6.6.1	win	2022-12-16	07:50:40	07:59:10	507535	581d38509b5b8800014d507e	258286749	1	main_z	11	advance_on_keypress_ZEE	96	stimuli_target_diamondcircles.svg	stimuli_distractor_trianglediamonds.svg	19	yes	57	0	659
6.6.1	win	2022-12-16	07:50:40	07:59:13	510835	581d38509b5b8800014d507e	258286749	1	main_z	11	main_z	97	stimuli_distractor_diamondtriangles.svg	stimuli_distractor_trianglediamonds.svg	38	no	0	1	2000
6.6.1	win	2022-12-16	07:50:40	07:59:13	510835	581d38509b5b8800014d507e	258286749	1	main_z	11	advance_on_keypress_ZEE	98	stimuli_distractor_diamondtriangles.svg	stimuli_distractor_trianglediamonds.svg	38	no	57	0	550
6.6.1	win	2022-12-16	07:50:40	07:59:15	512600	581d38509b5b8800014d507e	258286749	1	main_z	11	main_z	99	stimuli_distractor_trianglediamonds.svg	stimuli_target_trianglecircles.svg	25	yes	44	1	564
6.6.1	win	2022-12-16	07:50:40	07:59:15	512600	581d38509b5b8800014d507e	258286749	1	main_z	11	advance_on_keypress_ZEE	100	stimuli_distractor_trianglediamonds.svg	stimuli_target_trianglecircles.svg	25	yes	57	0	496
6.6.1	win	2022-12-16	07:50:40	07:59:16	514279	581d38509b5b8800014d507e	258286749	1	main_z	11	main_z	101	stimuli_target_circletriangles.svg	stimuli_distractor_diamondtriangles.svg	5	yes	44	1	544
6.6.1	win	2022-12-16	07:50:40	07:59:16	514279	581d38509b5b8800014d507e	258286749	1	main_z	11	advance_on_keypress_ZEE	102	stimuli_target_circletriangles.svg	stimuli_distractor_diamondtriangles.svg	5	yes	57	0	86
6.6.1	win	2022-12-16	07:50:40	07:59:18	515451	581d38509b5b8800014d507e	258286749	1	main_z	11	main_z	103	stimuli_target_circlediamonds.svg	stimuli_distractor_trianglediamonds.svg	2	yes	44	1	432
6.6.1	win	2022-12-16	07:50:40	07:59:18	515451	581d38509b5b8800014d507e	258286749	1	main_z	11	advance_on_keypress_ZEE	104	stimuli_target_circlediamonds.svg	stimuli_distractor_trianglediamonds.svg	2	yes	57	0	58
6.6.1	win	2022-12-16	07:50:40	07:59:20	518152	581d38509b5b8800014d507e	258286749	1	main_z	11	main_z	105	stimuli_target_diamondsquares.svg	stimuli_distractor_trianglediamonds.svg	20	yes	0	0	2000
6.6.1	win	2022-12-16	07:50:40	07:59:20	518152	581d38509b5b8800014d507e	258286749	1	main_z	11	advance_on_keypress_ZEE	106	stimuli_target_diamondsquares.svg	stimuli_distractor_trianglediamonds.svg	20	yes	57	0	592
6.6.1	win	2022-12-16	07:50:40	07:59:22	519706	581d38509b5b8800014d507e	258286749	1	main_z	11	main_z	107	stimuli_distractor_trianglediamonds.svg	stimuli_target_circletriangles.svg	9	yes	44	1	322
6.6.1	win	2022-12-16	07:50:40	07:59:22	519706	581d38509b5b8800014d507e	258286749	1	main_z	11	advance_on_keypress_ZEE	108	stimuli_distractor_trianglediamonds.svg	stimuli_target_circletriangles.svg	9	yes	57	0	9
6.6.1	win	2022-12-16	07:50:40	07:59:23	521186	581d38509b5b8800014d507e	258286749	1	main_z	11	main_z	109	stimuli_target_diamondcircles.svg	stimuli_distractor_diamondtriangles.svg	23	yes	44	1	817
6.6.1	win	2022-12-16	07:50:40	07:59:23	521186	581d38509b5b8800014d507e	258286749	1	main_z	11	advance_on_keypress_ZEE	110	stimuli_target_diamondcircles.svg	stimuli_distractor_diamondtriangles.svg	23	yes	57	0	56
6.6.1	win	2022-12-16	07:50:40	07:59:25	522445	581d38509b5b8800014d507e	258286749	1	main_z	11	main_z	111	stimuli_distractor_diamondtriangles.svg	stimuli_target_diamondsquares.svg	32	yes	44	1	561
6.6.1	win	2022-12-16	07:50:40	07:59:25	522445	581d38509b5b8800014d507e	258286749	1	main_z	11	advance_on_keypress_ZEE	112	stimuli_distractor_diamondtriangles.svg	stimuli_target_diamondsquares.svg	32	yes	57	0	83
6.6.1	win	2022-12-16	07:50:40	07:59:26	523644	581d38509b5b8800014d507e	258286749	1	main_z	11	main_z	113	stimuli_target_circlediamonds.svg	stimuli_distractor_diamondtriangles.svg	6	yes	44	1	459
6.6.1	win	2022-12-16	07:50:40	07:59:26	523644	581d38509b5b8800014d507e	258286749	1	main_z	11	advance_on_keypress_ZEE	114	stimuli_target_circlediamonds.svg	stimuli_distractor_diamondtriangles.svg	6	yes	57	0	49
6.6.1	win	2022-12-16	07:50:40	07:59:27	524714	581d38509b5b8800014d507e	258286749	1	main_z	11	main_z	115	stimuli_distractor_diamondtriangles.svg	stimuli_target_diamondcircles.svg	31	yes	44	1	362
6.6.1	win	2022-12-16	07:50:40	07:59:27	524714	581d38509b5b8800014d507e	258286749	1	main_z	11	advance_on_keypress_ZEE	116	stimuli_distractor_diamondtriangles.svg	stimuli_target_diamondcircles.svg	31	yes	57	0	90
6.6.1	win	2022-12-16	07:50:40	07:59:28	525762	581d38509b5b8800014d507e	258286749	1	main_z	11	main_z	117	stimuli_distractor_diamondtriangles.svg	stimuli_target_circletriangles.svg	13	yes	44	1	310
6.6.1	win	2022-12-16	07:50:40	07:59:28	525762	581d38509b5b8800014d507e	258286749	1	main_z	11	advance_on_keypress_ZEE	118	stimuli_distractor_diamondtriangles.svg	stimuli_target_circletriangles.svg	13	yes	57	0	88
6.6.1	win	2022-12-16	07:50:40	07:59:29	526768	581d38509b5b8800014d507e	258286749	1	main_z	11	main_z	119	stimuli_target_trianglesquares.svg	stimuli_distractor_trianglediamonds.svg	18	yes	44	1	266
6.6.1	win	2022-12-16	07:50:40	07:59:29	526768	581d38509b5b8800014d507e	258286749	1	main_z	11	advance_on_keypress_ZEE	120	stimuli_target_trianglesquares.svg	stimuli_distractor_trianglediamonds.svg	18	yes	57	0	423
6.6.1	win	2022-12-16	07:50:40	07:59:30	528308	581d38509b5b8800014d507e	258286749	1	main_z	11	main_z	121	stimuli_target_diamondsquares.svg	stimuli_distractor_diamondtriangles.svg	24	yes	44	1	474
6.6.1	win	2022-12-16	07:50:40	07:59:30	528308	581d38509b5b8800014d507e	258286749	1	main_z	11	advance_on_keypress_ZEE	122	stimuli_target_diamondsquares.svg	stimuli_distractor_diamondtriangles.svg	24	yes	57	0	82
6.6.1	win	2022-12-16	07:50:40	07:59:31	529380	581d38509b5b8800014d507e	258286749	1	main_z	11	main_z	123	stimuli_distractor_trianglediamonds.svg	stimuli_target_trianglesquares.svg	26	yes	44	1	328
6.6.1	win	2022-12-16	07:50:40	07:59:31	529380	581d38509b5b8800014d507e	258286749	1	main_z	11	advance_on_keypress_ZEE	124	stimuli_distractor_trianglediamonds.svg	stimuli_target_trianglesquares.svg	26	yes	57	0	87
6.6.1	win	2022-12-16	07:50:40	07:59:33	530431	581d38509b5b8800014d507e	258286749	1	main_z	11	main_z	125	stimuli_distractor_trianglediamonds.svg	stimuli_target_squarediamonds.svg	12	yes	44	1	313
6.6.1	win	2022-12-16	07:50:40	07:59:33	530431	581d38509b5b8800014d507e	258286749	1	main_z	11	advance_on_keypress_ZEE	126	stimuli_distractor_trianglediamonds.svg	stimuli_target_squarediamonds.svg	12	yes	57	0	57
6.6.1	win	2022-12-16	07:50:40	07:59:35	533135	581d38509b5b8800014d507e	258286749	1	main_z	11	main_z	127	stimuli_distractor_diamondtriangles.svg	stimuli_distractor_diamondtriangles.svg	39	no	0	1	2000
6.6.1	win	2022-12-16	07:50:40	07:59:35	533135	581d38509b5b8800014d507e	258286749	1	main_z	11	advance_on_keypress_ZEE	128	stimuli_distractor_diamondtriangles.svg	stimuli_distractor_diamondtriangles.svg	39	no	57	0	424
6.6.1	win	2022-12-16	07:50:40	07:59:37	534527	581d38509b5b8800014d507e	258286749	1	main_z	11	main_z	129	stimuli_distractor_trianglediamonds.svg	stimuli_distractor_diamondtriangles.svg	36	no	44	0	325
6.6.1	win	2022-12-16	07:50:40	07:59:37	534527	581d38509b5b8800014d507e	258286749	1	main_z	11	advance_on_keypress_ZEE	130	stimuli_distractor_trianglediamonds.svg	stimuli_distractor_diamondtriangles.svg	36	no	57	0	1118
6.6.1	win	2022-12-16	07:50:40	07:59:39	536750	581d38509b5b8800014d507e	258286749	1	main_z	11	main_z	131	stimuli_target_squaretriangles.svg	stimuli_distractor_trianglediamonds.svg	3	yes	44	1	448
6.6.1	win	2022-12-16	07:50:40	07:59:39	536750	581d38509b5b8800014d507e	258286749	1	main_z	11	advance_on_keypress_ZEE	132	stimuli_target_squaretriangles.svg	stimuli_distractor_trianglediamonds.svg	3	yes	57	0	57
6.6.1	win	2022-12-16	07:50:40	07:59:40	538040	581d38509b5b8800014d507e	258286749	1	main_z	11	main_z	133	stimuli_target_trianglecircles.svg	stimuli_distractor_diamondtriangles.svg	21	yes	44	1	589
6.6.1	win	2022-12-16	07:50:40	07:59:40	538040	581d38509b5b8800014d507e	258286749	1	main_z	11	advance_on_keypress_ZEE	134	stimuli_target_trianglecircles.svg	stimuli_distractor_diamondtriangles.svg	21	yes	57	0	194
6.6.1	win	2022-12-16	07:50:40	07:59:41	539246	581d38509b5b8800014d507e	258286749	1	main_z	11	main_z	135	stimuli_target_circletriangles.svg	stimuli_distractor_trianglediamonds.svg	1	yes	44	1	361
6.6.1	win	2022-12-16	07:50:40	07:59:41	539246	581d38509b5b8800014d507e	258286749	1	main_z	11	advance_on_keypress_ZEE	136	stimuli_target_circletriangles.svg	stimuli_distractor_trianglediamonds.svg	1	yes	57	0	202
6.6.1	win	2022-12-16	07:50:40	07:59:43	540892	581d38509b5b8800014d507e	258286749	1	main_z	11	main_z	137	stimuli_target_trianglecircles.svg	stimuli_distractor_trianglediamonds.svg	17	yes	44	1	790
6.6.1	win	2022-12-16	07:50:40	07:59:43	540892	581d38509b5b8800014d507e	258286749	1	main_z	11	advance_on_keypress_ZEE	138	stimuli_target_trianglecircles.svg	stimuli_distractor_trianglediamonds.svg	17	yes	57	0	299
6.6.1	win	2022-12-16	07:50:40	07:59:44	542165	581d38509b5b8800014d507e	258286749	1	main_z	11	main_z	139	stimuli_distractor_trianglediamonds.svg	stimuli_distractor_trianglediamonds.svg	34	no	44	0	313
6.6.1	win	2022-12-16	07:50:40	07:59:44	542165	581d38509b5b8800014d507e	258286749	1	main_z	11	advance_on_keypress_ZEE	140	stimuli_distractor_trianglediamonds.svg	stimuli_distractor_trianglediamonds.svg	34	no	57	0	128
6.6.1	win	2022-12-16	07:50:40	07:59:46	543461	581d38509b5b8800014d507e	258286749	1	main_z	11	main_z	141	stimuli_target_trianglesquares.svg	stimuli_distractor_diamondtriangles.svg	22	yes	44	1	527
6.6.1	win	2022-12-16	07:50:40	07:59:46	543461	581d38509b5b8800014d507e	258286749	1	main_z	11	advance_on_keypress_ZEE	142	stimuli_target_trianglesquares.svg	stimuli_distractor_diamondtriangles.svg	22	yes	57	0	87
6.6.1	win	2022-12-16	07:50:40	07:59:47	544557	581d38509b5b8800014d507e	258286749	1	main_z	11	main_z	143	stimuli_distractor_diamondtriangles.svg	stimuli_target_trianglesquares.svg	30	yes	44	1	356
6.6.1	win	2022-12-16	07:50:40	07:59:47	544557	581d38509b5b8800014d507e	258286749	1	main_z	11	advance_on_keypress_ZEE	144	stimuli_distractor_diamondtriangles.svg	stimuli_target_trianglesquares.svg	30	yes	57	0	121
6.6.1	win	2022-12-16	07:50:40	07:59:48	545688	581d38509b5b8800014d507e	258286749	1	main_z	11	main_z	145	stimuli_distractor_diamondtriangles.svg	stimuli_target_squaretriangles.svg	15	yes	44	1	353
6.6.1	win	2022-12-16	07:50:40	07:59:48	545688	581d38509b5b8800014d507e	258286749	1	main_z	11	advance_on_keypress_ZEE	146	stimuli_distractor_diamondtriangles.svg	stimuli_target_squaretriangles.svg	15	yes	57	0	136
6.6.1	win	2022-12-16	07:50:40	07:59:49	546817	581d38509b5b8800014d507e	258286749	1	main_z	11	main_z	147	stimuli_target_squarediamonds.svg	stimuli_distractor_trianglediamonds.svg	4	yes	44	1	349
6.6.1	win	2022-12-16	07:50:40	07:59:49	546817	581d38509b5b8800014d507e	258286749	1	main_z	11	advance_on_keypress_ZEE	148	stimuli_target_squarediamonds.svg	stimuli_distractor_trianglediamonds.svg	4	yes	57	0	129
6.6.1	win	2022-12-16	07:50:40	07:59:50	547876	581d38509b5b8800014d507e	258286749	1	main_z	11	main_z	149	stimuli_distractor_diamondtriangles.svg	stimuli_target_trianglecircles.svg	29	yes	44	1	274
6.6.1	win	2022-12-16	07:50:40	07:59:50	547876	581d38509b5b8800014d507e	258286749	1	main_z	11	advance_on_keypress_ZEE	150	stimuli_distractor_diamondtriangles.svg	stimuli_target_trianglecircles.svg	29	yes	57	0	87
6.6.1	win	2022-12-16	07:50:40	07:59:51	548832	581d38509b5b8800014d507e	258286749	1	main_z	11	main_z	151	stimuli_distractor_trianglediamonds.svg	stimuli_target_diamondcircles.svg	27	yes	44	1	212
6.6.1	win	2022-12-16	07:50:40	07:59:51	548832	581d38509b5b8800014d507e	258286749	1	main_z	11	advance_on_keypress_ZEE	152	stimuli_distractor_trianglediamonds.svg	stimuli_target_diamondcircles.svg	27	yes	57	0	89
6.6.1	win	2022-12-16	07:50:40	07:59:52	549813	581d38509b5b8800014d507e	258286749	1	main_z	11	main_z	153	stimuli_distractor_trianglediamonds.svg	stimuli_distractor_trianglediamonds.svg	33	no	44	0	244
6.6.1	win	2022-12-16	07:50:40	07:59:52	549813	581d38509b5b8800014d507e	258286749	1	main_z	11	advance_on_keypress_ZEE	154	stimuli_distractor_trianglediamonds.svg	stimuli_distractor_trianglediamonds.svg	33	no	57	0	859
6.6.1	win	2022-12-16	07:50:40	07:59:55	553318	581d38509b5b8800014d507e	258286749	1	main_z	11	main_z	155	stimuli_distractor_trianglediamonds.svg	stimuli_distractor_diamondtriangles.svg	35	no	0	1	2000
6.6.1	win	2022-12-16	07:50:40	07:59:55	553318	581d38509b5b8800014d507e	258286749	1	main_z	11	advance_on_keypress_ZEE	156	stimuli_distractor_trianglediamonds.svg	stimuli_distractor_diamondtriangles.svg	35	no	57	0	339
6.6.1	win	2022-12-16	07:50:40	07:59:57	554688	581d38509b5b8800014d507e	258286749	1	main_z	11	main_z	157	stimuli_target_squarediamonds.svg	stimuli_distractor_diamondtriangles.svg	8	yes	44	1	387
6.6.1	win	2022-12-16	07:50:40	07:59:57	554688	581d38509b5b8800014d507e	258286749	1	main_z	11	advance_on_keypress_ZEE	158	stimuli_target_squarediamonds.svg	stimuli_distractor_diamondtriangles.svg	8	yes	57	0	98
6.6.1	win	2022-12-16	07:50:40	07:59:58	555826	581d38509b5b8800014d507e	258286749	1	main_z	11	main_z	159	stimuli_distractor_trianglediamonds.svg	stimuli_target_circlediamonds.svg	10	yes	44	1	390
6.6.1	win	2022-12-16	07:50:40	07:59:58	555826	581d38509b5b8800014d507e	258286749	1	main_z	11	advance_on_keypress_ZEE	160	stimuli_distractor_trianglediamonds.svg	stimuli_target_circlediamonds.svg	10	yes	57	0	85