build	computer.platform	date	time	timestamp	time_elapsed_ms	subject	group	session	blockcode	blocknum	trialcode	trialnum	stimulus_left	stimulus_right	stim_index	target_present	response	correct	latency
6.6.1	win	2022-12-19	19:03:22	19:05:31	127493	62f20c2e4032c85e3fe9c2cc	201689242	1	practice_z	5	practice_z	1	stimuli_distractor_diamondtriangles.svg	stimuli_distractor_diamondtriangles.svg	13	no	44	0	1552
6.6.1	win	2022-12-19	19:03:22	19:05:31	127493	62f20c2e4032c85e3fe9c2cc	201689242	1	practice_z	5	advance_on_keypress_ZEE	2	stimuli_distractor_diamondtriangles.svg	stimuli_distractor_diamondtriangles.svg	13	no	57	0	1478
6.6.1	win	2022-12-19	19:03:22	19:05:35	131365	62f20c2e4032c85e3fe9c2cc	201689242	1	practice_z	5	practice_z	3	stimuli_target_circlediamonds.svg	stimuli_distractor_diamondtriangles.svg	1	yes	44	1	755
6.6.1	win	2022-12-19	19:03:22	19:05:35	131365	62f20c2e4032c85e3fe9c2cc	201689242	1	practice_z	5	advance_on_keypress_ZEE	4	stimuli_target_circlediamonds.svg	stimuli_distractor_diamondtriangles.svg	1	yes	57	0	392
6.6.1	win	2022-12-19	19:03:22	19:05:38	134126	62f20c2e4032c85e3fe9c2cc	201689242	1	practice_z	5	practice_z	5	stimuli_distractor_diamondtriangles.svg	stimuli_target_diamondcircles.svg	8	yes	44	1	732
6.6.1	win	2022-12-19	19:03:22	19:05:38	134126	62f20c2e4032c85e3fe9c2cc	201689242	1	practice_z	5	advance_on_keypress_ZEE	6	stimuli_distractor_diamondtriangles.svg	stimuli_target_diamondcircles.svg	8	yes	57	0	304
6.6.1	win	2022-12-19	19:03:22	19:05:40	136860	62f20c2e4032c85e3fe9c2cc	201689242	1	practice_z	5	practice_z	7	stimuli_distractor_diamondtriangles.svg	stimuli_target_circletriangles.svg	7	yes	44	1	769
6.6.1	win	2022-12-19	19:03:22	19:05:40	136860	62f20c2e4032c85e3fe9c2cc	201689242	1	practice_z	5	advance_on_keypress_ZEE	8	stimuli_distractor_diamondtriangles.svg	stimuli_target_circletriangles.svg	7	yes	57	0	308
6.6.1	win	2022-12-19	19:03:22	19:05:44	140830	62f20c2e4032c85e3fe9c2cc	201689242	1	practice_z	5	practice_z	9	stimuli_distractor_trianglediamonds.svg	stimuli_distractor_diamondtriangles.svg	16	no	0	1	2000
6.6.1	win	2022-12-19	19:03:22	19:05:44	140830	62f20c2e4032c85e3fe9c2cc	201689242	1	practice_z	5	advance_on_keypress_ZEE	10	stimuli_distractor_trianglediamonds.svg	stimuli_distractor_diamondtriangles.svg	16	no	57	0	464
6.6.1	win	2022-12-19	19:03:22	19:05:49	144954	62f20c2e4032c85e3fe9c2cc	201689242	1	practice_z	5	practice_z	11	stimuli_distractor_trianglediamonds.svg	stimuli_target_squarediamonds.svg	11	yes	0	0	2000
6.6.1	win	2022-12-19	19:03:22	19:05:49	144954	62f20c2e4032c85e3fe9c2cc	201689242	1	practice_z	5	advance_on_keypress_ZEE	12	stimuli_distractor_trianglediamonds.svg	stimuli_target_squarediamonds.svg	11	yes	57	0	589
6.6.1	win	2022-12-19	19:03:22	19:05:52	147984	62f20c2e4032c85e3fe9c2cc	201689242	1	practice_z	5	practice_z	13	stimuli_distractor_diamondtriangles.svg	stimuli_target_trianglecircles.svg	9	yes	44	1	779
6.6.1	win	2022-12-19	19:03:22	19:05:52	147984	62f20c2e4032c85e3fe9c2cc	201689242	1	practice_z	5	advance_on_keypress_ZEE	14	stimuli_distractor_diamondtriangles.svg	stimuli_target_trianglecircles.svg	9	yes	57	0	249
6.6.1	win	2022-12-19	19:03:22	19:05:54	150605	62f20c2e4032c85e3fe9c2cc	201689242	1	practice_z	5	practice_z	15	stimuli_distractor_trianglediamonds.svg	stimuli_target_circlediamonds.svg	10	yes	44	1	749
6.6.1	win	2022-12-19	19:03:22	19:05:54	150605	62f20c2e4032c85e3fe9c2cc	201689242	1	practice_z	5	advance_on_keypress_ZEE	16	stimuli_distractor_trianglediamonds.svg	stimuli_target_circlediamonds.svg	10	yes	57	0	672
6.6.1	win	2022-12-19	19:03:22	19:05:58	154162	62f20c2e4032c85e3fe9c2cc	201689242	1	practice_z	5	practice_z	17	stimuli_target_squarediamonds.svg	stimuli_distractor_diamondtriangles.svg	2	yes	44	1	1244
6.6.1	win	2022-12-19	19:03:22	19:05:58	154162	62f20c2e4032c85e3fe9c2cc	201689242	1	practice_z	5	advance_on_keypress_ZEE	18	stimuli_target_squarediamonds.svg	stimuli_distractor_diamondtriangles.svg	2	yes	57	0	277
6.6.1	win	2022-12-19	19:03:22	19:06:01	156933	62f20c2e4032c85e3fe9c2cc	201689242	1	practice_z	5	practice_z	19	stimuli_target_squarediamonds.svg	stimuli_distractor_trianglediamonds.svg	5	yes	44	1	854
6.6.1	win	2022-12-19	19:03:22	19:06:01	156933	62f20c2e4032c85e3fe9c2cc	201689242	1	practice_z	5	advance_on_keypress_ZEE	20	stimuli_target_squarediamonds.svg	stimuli_distractor_trianglediamonds.svg	5	yes	57	0	2165
6.6.1	win	2022-12-19	19:03:22	19:06:06	162733	62f20c2e4032c85e3fe9c2cc	201689242	1	practice_z	5	practice_z	21	stimuli_target_diamondsquares.svg	stimuli_distractor_trianglediamonds.svg	6	yes	0	0	2000
6.6.1	win	2022-12-19	19:03:22	19:06:06	162733	62f20c2e4032c85e3fe9c2cc	201689242	1	practice_z	5	advance_on_keypress_ZEE	22	stimuli_target_diamondsquares.svg	stimuli_distractor_trianglediamonds.svg	6	yes	57	0	536
6.6.1	win	2022-12-19	19:03:22	19:06:11	166931	62f20c2e4032c85e3fe9c2cc	201689242	1	practice_z	5	practice_z	23	stimuli_distractor_diamondtriangles.svg	stimuli_distractor_trianglediamonds.svg	14	no	0	1	2000
6.6.1	win	2022-12-19	19:03:22	19:06:11	166931	62f20c2e4032c85e3fe9c2cc	201689242	1	practice_z	5	advance_on_keypress_ZEE	24	stimuli_distractor_diamondtriangles.svg	stimuli_distractor_trianglediamonds.svg	14	no	57	0	2548
6.6.1	win	2022-12-19	19:03:22	19:06:15	171885	62f20c2e4032c85e3fe9c2cc	201689242	1	practice_z	5	practice_z	25	stimuli_target_circlediamonds.svg	stimuli_distractor_trianglediamonds.svg	4	yes	44	1	787
6.6.1	win	2022-12-19	19:03:22	19:06:15	171885	62f20c2e4032c85e3fe9c2cc	201689242	1	practice_z	5	advance_on_keypress_ZEE	26	stimuli_target_circlediamonds.svg	stimuli_distractor_trianglediamonds.svg	4	yes	57	0	565
6.6.1	win	2022-12-19	19:03:22	19:06:19	175086	62f20c2e4032c85e3fe9c2cc	201689242	1	practice_z	5	practice_z	27	stimuli_target_diamondsquares.svg	stimuli_distractor_diamondtriangles.svg	3	yes	44	1	1000
6.6.1	win	2022-12-19	19:03:22	19:06:19	175086	62f20c2e4032c85e3fe9c2cc	201689242	1	practice_z	5	advance_on_keypress_ZEE	28	stimuli_target_diamondsquares.svg	stimuli_distractor_diamondtriangles.svg	3	yes	57	0	307
6.6.1	win	2022-12-19	19:03:22	19:06:21	177807	62f20c2e4032c85e3fe9c2cc	201689242	1	practice_z	5	practice_z	29	stimuli_distractor_trianglediamonds.svg	stimuli_target_diamondcircles.svg	12	yes	44	1	753
6.6.1	win	2022-12-19	19:03:22	19:06:21	177807	62f20c2e4032c85e3fe9c2cc	201689242	1	practice_z	5	advance_on_keypress_ZEE	30	stimuli_distractor_trianglediamonds.svg	stimuli_target_diamondcircles.svg	12	yes	57	0	321
6.6.1	win	2022-12-19	19:03:22	19:06:24	180694	62f20c2e4032c85e3fe9c2cc	201689242	1	practice_z	5	practice_z	31	stimuli_distractor_trianglediamonds.svg	stimuli_distractor_trianglediamonds.svg	15	no	44	0	931
6.6.1	win	2022-12-19	19:03:22	19:06:24	180694	62f20c2e4032c85e3fe9c2cc	201689242	1	practice_z	5	advance_on_keypress_ZEE	32	stimuli_distractor_trianglediamonds.svg	stimuli_distractor_trianglediamonds.svg	15	no	57	0	420
6.6.1	win	2022-12-19	19:03:22	19:06:35	191537	62f20c2e4032c85e3fe9c2cc	201689242	1	main_z	7	main_z	1	stimuli_distractor_diamondtriangles.svg	stimuli_distractor_trianglediamonds.svg	37	no	0	1	2000
6.6.1	win	2022-12-19	19:03:22	19:06:35	191537	62f20c2e4032c85e3fe9c2cc	201689242	1	main_z	7	advance_on_keypress_ZEE	2	stimuli_distractor_diamondtriangles.svg	stimuli_distractor_trianglediamonds.svg	37	no	57	0	402
6.6.1	win	2022-12-19	19:03:22	19:06:37	193323	62f20c2e4032c85e3fe9c2cc	201689242	1	main_z	7	main_z	3	stimuli_distractor_trianglediamonds.svg	stimuli_target_squaretriangles.svg	11	yes	44	1	743
6.6.1	win	2022-12-19	19:03:22	19:06:37	193323	62f20c2e4032c85e3fe9c2cc	201689242	1	main_z	7	advance_on_keypress_ZEE	4	stimuli_distractor_trianglediamonds.svg	stimuli_target_squaretriangles.svg	11	yes	57	0	360
6.6.1	win	2022-12-19	19:03:22	19:06:40	196305	62f20c2e4032c85e3fe9c2cc	201689242	1	main_z	7	main_z	5	stimuli_distractor_trianglediamonds.svg	stimuli_target_diamondsquares.svg	28	yes	0	0	2000
6.6.1	win	2022-12-19	19:03:22	19:06:40	196305	62f20c2e4032c85e3fe9c2cc	201689242	1	main_z	7	advance_on_keypress_ZEE	6	stimuli_distractor_trianglediamonds.svg	stimuli_target_diamondsquares.svg	28	yes	57	0	297
6.6.1	win	2022-12-19	19:03:22	19:06:43	199220	62f20c2e4032c85e3fe9c2cc	201689242	1	main_z	7	main_z	7	stimuli_distractor_diamondtriangles.svg	stimuli_distractor_diamondtriangles.svg	40	no	0	1	2000
6.6.1	win	2022-12-19	19:03:22	19:06:43	199220	62f20c2e4032c85e3fe9c2cc	201689242	1	main_z	7	advance_on_keypress_ZEE	8	stimuli_distractor_diamondtriangles.svg	stimuli_distractor_diamondtriangles.svg	40	no	57	0	249
6.6.1	win	2022-12-19	19:03:22	19:06:46	202085	62f20c2e4032c85e3fe9c2cc	201689242	1	main_z	7	main_z	9	stimuli_distractor_trianglediamonds.svg	stimuli_distractor_diamondtriangles.svg	36	no	0	1	2000
6.6.1	win	2022-12-19	19:03:22	19:06:46	202085	62f20c2e4032c85e3fe9c2cc	201689242	1	main_z	7	advance_on_keypress_ZEE	10	stimuli_distractor_trianglediamonds.svg	stimuli_distractor_diamondtriangles.svg	36	no	57	0	319
6.6.1	win	2022-12-19	19:03:22	19:06:49	205021	62f20c2e4032c85e3fe9c2cc	201689242	1	main_z	7	main_z	11	stimuli_distractor_trianglediamonds.svg	stimuli_distractor_trianglediamonds.svg	33	no	0	1	2000
6.6.1	win	2022-12-19	19:03:22	19:06:49	205021	62f20c2e4032c85e3fe9c2cc	201689242	1	main_z	7	advance_on_keypress_ZEE	12	stimuli_distractor_trianglediamonds.svg	stimuli_distractor_trianglediamonds.svg	33	no	57	0	322
6.6.1	win	2022-12-19	19:03:22	19:06:50	206733	62f20c2e4032c85e3fe9c2cc	201689242	1	main_z	7	main_z	13	stimuli_target_squarediamonds.svg	stimuli_distractor_trianglediamonds.svg	4	yes	44	1	756
6.6.1	win	2022-12-19	19:03:22	19:06:50	206733	62f20c2e4032c85e3fe9c2cc	201689242	1	main_z	7	advance_on_keypress_ZEE	14	stimuli_target_squarediamonds.svg	stimuli_distractor_trianglediamonds.svg	4	yes	57	0	369
6.6.1	win	2022-12-19	19:03:22	19:06:52	208451	62f20c2e4032c85e3fe9c2cc	201689242	1	main_z	7	main_z	15	stimuli_target_trianglesquares.svg	stimuli_distractor_diamondtriangles.svg	22	yes	44	1	731
6.6.1	win	2022-12-19	19:03:22	19:06:52	208451	62f20c2e4032c85e3fe9c2cc	201689242	1	main_z	7	advance_on_keypress_ZEE	16	stimuli_target_trianglesquares.svg	stimuli_distractor_diamondtriangles.svg	22	yes	57	0	271
6.6.1	win	2022-12-19	19:03:22	19:06:54	210095	62f20c2e4032c85e3fe9c2cc	201689242	1	main_z	7	main_z	17	stimuli_target_diamondcircles.svg	stimuli_distractor_trianglediamonds.svg	19	yes	44	1	738
6.6.1	win	2022-12-19	19:03:22	19:06:54	210095	62f20c2e4032c85e3fe9c2cc	201689242	1	main_z	7	advance_on_keypress_ZEE	18	stimuli_target_diamondcircles.svg	stimuli_distractor_trianglediamonds.svg	19	yes	57	0	308
6.6.1	win	2022-12-19	19:03:22	19:06:56	211982	62f20c2e4032c85e3fe9c2cc	201689242	1	main_z	7	main_z	19	stimuli_target_trianglesquares.svg	stimuli_distractor_trianglediamonds.svg	18	yes	44	1	964
6.6.1	win	2022-12-19	19:03:22	19:06:56	211982	62f20c2e4032c85e3fe9c2cc	201689242	1	main_z	7	advance_on_keypress_ZEE	20	stimuli_target_trianglesquares.svg	stimuli_distractor_trianglediamonds.svg	18	yes	57	0	344
6.6.1	win	2022-12-19	19:03:22	19:06:59	214937	62f20c2e4032c85e3fe9c2cc	201689242	1	main_z	7	main_z	21	stimuli_distractor_diamondtriangles.svg	stimuli_target_squarediamonds.svg	16	yes	0	0	2000
6.6.1	win	2022-12-19	19:03:22	19:06:59	214937	62f20c2e4032c85e3fe9c2cc	201689242	1	main_z	7	advance_on_keypress_ZEE	22	stimuli_distractor_diamondtriangles.svg	stimuli_target_squarediamonds.svg	16	yes	57	0	537
6.6.1	win	2022-12-19	19:03:22	19:07:00	216811	62f20c2e4032c85e3fe9c2cc	201689242	1	main_z	7	main_z	23	stimuli_target_diamondsquares.svg	stimuli_distractor_trianglediamonds.svg	20	yes	44	1	727
6.6.1	win	2022-12-19	19:03:22	19:07:00	216811	62f20c2e4032c85e3fe9c2cc	201689242	1	main_z	7	advance_on_keypress_ZEE	24	stimuli_target_diamondsquares.svg	stimuli_distractor_trianglediamonds.svg	20	yes	57	0	203
6.6.1	win	2022-12-19	19:03:22	19:07:02	218481	62f20c2e4032c85e3fe9c2cc	201689242	1	main_z	7	main_z	25	stimuli_distractor_trianglediamonds.svg	stimuli_target_squarediamonds.svg	12	yes	44	1	856
6.6.1	win	2022-12-19	19:03:22	19:07:02	218481	62f20c2e4032c85e3fe9c2cc	201689242	1	main_z	7	advance_on_keypress_ZEE	26	stimuli_distractor_trianglediamonds.svg	stimuli_target_squarediamonds.svg	12	yes	57	0	280
6.6.1	win	2022-12-19	19:03:22	19:07:05	221370	62f20c2e4032c85e3fe9c2cc	201689242	1	main_z	7	main_z	27	stimuli_distractor_diamondtriangles.svg	stimuli_distractor_trianglediamonds.svg	38	no	0	1	2000
6.6.1	win	2022-12-19	19:03:22	19:07:05	221370	62f20c2e4032c85e3fe9c2cc	201689242	1	main_z	7	advance_on_keypress_ZEE	28	stimuli_distractor_diamondtriangles.svg	stimuli_distractor_trianglediamonds.svg	38	no	57	0	250
6.6.1	win	2022-12-19	19:03:22	19:07:07	222966	62f20c2e4032c85e3fe9c2cc	201689242	1	main_z	7	main_z	29	stimuli_target_diamondcircles.svg	stimuli_distractor_diamondtriangles.svg	23	yes	44	1	736
6.6.1	win	2022-12-19	19:03:22	19:07:07	222966	62f20c2e4032c85e3fe9c2cc	201689242	1	main_z	7	advance_on_keypress_ZEE	30	stimuli_target_diamondcircles.svg	stimuli_distractor_diamondtriangles.svg	23	yes	57	0	194
6.6.1	win	2022-12-19	19:03:22	19:07:08	224503	62f20c2e4032c85e3fe9c2cc	201689242	1	main_z	7	main_z	31	stimuli_target_circletriangles.svg	stimuli_distractor_diamondtriangles.svg	5	yes	44	1	731
6.6.1	win	2022-12-19	19:03:22	19:07:08	224503	62f20c2e4032c85e3fe9c2cc	201689242	1	main_z	7	advance_on_keypress_ZEE	32	stimuli_target_circletriangles.svg	stimuli_distractor_diamondtriangles.svg	5	yes	57	0	204
6.6.1	win	2022-12-19	19:03:22	19:07:10	226039	62f20c2e4032c85e3fe9c2cc	201689242	1	main_z	7	main_z	33	stimuli_distractor_diamondtriangles.svg	stimuli_target_squaretriangles.svg	15	yes	44	1	717
6.6.1	win	2022-12-19	19:03:22	19:07:10	226039	62f20c2e4032c85e3fe9c2cc	201689242	1	main_z	7	advance_on_keypress_ZEE	34	stimuli_distractor_diamondtriangles.svg	stimuli_target_squaretriangles.svg	15	yes	57	0	162
6.6.1	win	2022-12-19	19:03:22	19:07:11	227530	62f20c2e4032c85e3fe9c2cc	201689242	1	main_z	7	main_z	35	stimuli_distractor_diamondtriangles.svg	stimuli_target_trianglesquares.svg	30	yes	44	1	713
6.6.1	win	2022-12-19	19:03:22	19:07:11	227530	62f20c2e4032c85e3fe9c2cc	201689242	1	main_z	7	advance_on_keypress_ZEE	36	stimuli_distractor_diamondtriangles.svg	stimuli_target_trianglesquares.svg	30	yes	57	0	101
6.6.1	win	2022-12-19	19:03:22	19:07:13	229008	62f20c2e4032c85e3fe9c2cc	201689242	1	main_z	7	main_z	37	stimuli_distractor_diamondtriangles.svg	stimuli_target_circlediamonds.svg	14	yes	44	1	761
6.6.1	win	2022-12-19	19:03:22	19:07:13	229008	62f20c2e4032c85e3fe9c2cc	201689242	1	main_z	7	advance_on_keypress_ZEE	38	stimuli_distractor_diamondtriangles.svg	stimuli_target_circlediamonds.svg	14	yes	57	0	69
6.6.1	win	2022-12-19	19:03:22	19:07:14	230453	62f20c2e4032c85e3fe9c2cc	201689242	1	main_z	7	main_z	39	stimuli_target_diamondsquares.svg	stimuli_distractor_diamondtriangles.svg	24	yes	44	1	765
6.6.1	win	2022-12-19	19:03:22	19:07:14	230453	62f20c2e4032c85e3fe9c2cc	201689242	1	main_z	7	advance_on_keypress_ZEE	40	stimuli_target_diamondsquares.svg	stimuli_distractor_diamondtriangles.svg	24	yes	57	0	97
6.6.1	win	2022-12-19	19:03:22	19:07:16	231935	62f20c2e4032c85e3fe9c2cc	201689242	1	main_z	7	main_z	41	stimuli_distractor_diamondtriangles.svg	stimuli_target_diamondcircles.svg	31	yes	44	1	775
6.6.1	win	2022-12-19	19:03:22	19:07:16	231935	62f20c2e4032c85e3fe9c2cc	201689242	1	main_z	7	advance_on_keypress_ZEE	42	stimuli_distractor_diamondtriangles.svg	stimuli_target_diamondcircles.svg	31	yes	57	0	93
6.6.1	win	2022-12-19	19:03:22	19:07:18	234645	62f20c2e4032c85e3fe9c2cc	201689242	1	main_z	7	main_z	43	stimuli_distractor_trianglediamonds.svg	stimuli_distractor_trianglediamonds.svg	34	no	0	1	2000
6.6.1	win	2022-12-19	19:03:22	19:07:18	234645	62f20c2e4032c85e3fe9c2cc	201689242	1	main_z	7	advance_on_keypress_ZEE	44	stimuli_distractor_trianglediamonds.svg	stimuli_distractor_trianglediamonds.svg	34	no	57	0	328
6.6.1	win	2022-12-19	19:03:22	19:07:20	236352	62f20c2e4032c85e3fe9c2cc	201689242	1	main_z	7	main_z	45	stimuli_target_circletriangles.svg	stimuli_distractor_trianglediamonds.svg	1	yes	44	1	764
6.6.1	win	2022-12-19	19:03:22	19:07:20	236352	62f20c2e4032c85e3fe9c2cc	201689242	1	main_z	7	advance_on_keypress_ZEE	46	stimuli_target_circletriangles.svg	stimuli_distractor_trianglediamonds.svg	1	yes	57	0	84
6.6.1	win	2022-12-19	19:03:22	19:07:21	237770	62f20c2e4032c85e3fe9c2cc	201689242	1	main_z	7	main_z	47	stimuli_target_squaretriangles.svg	stimuli_distractor_diamondtriangles.svg	7	yes	44	1	719
6.6.1	win	2022-12-19	19:03:22	19:07:21	237770	62f20c2e4032c85e3fe9c2cc	201689242	1	main_z	7	advance_on_keypress_ZEE	48	stimuli_target_squaretriangles.svg	stimuli_distractor_diamondtriangles.svg	7	yes	57	0	103
6.6.1	win	2022-12-19	19:03:22	19:07:23	239229	62f20c2e4032c85e3fe9c2cc	201689242	1	main_z	7	main_z	49	stimuli_distractor_trianglediamonds.svg	stimuli_target_trianglecircles.svg	25	yes	44	1	747
6.6.1	win	2022-12-19	19:03:22	19:07:23	239229	62f20c2e4032c85e3fe9c2cc	201689242	1	main_z	7	advance_on_keypress_ZEE	50	stimuli_distractor_trianglediamonds.svg	stimuli_target_trianglecircles.svg	25	yes	57	0	129
6.6.1	win	2022-12-19	19:03:22	19:07:24	240727	62f20c2e4032c85e3fe9c2cc	201689242	1	main_z	7	main_z	51	stimuli_distractor_trianglediamonds.svg	stimuli_target_trianglesquares.svg	26	yes	44	1	754
6.6.1	win	2022-12-19	19:03:22	19:07:24	240727	62f20c2e4032c85e3fe9c2cc	201689242	1	main_z	7	advance_on_keypress_ZEE	52	stimuli_distractor_trianglediamonds.svg	stimuli_target_trianglesquares.svg	26	yes	57	0	63
6.6.1	win	2022-12-19	19:03:22	19:07:26	242136	62f20c2e4032c85e3fe9c2cc	201689242	1	main_z	7	main_z	53	stimuli_target_circlediamonds.svg	stimuli_distractor_trianglediamonds.svg	2	yes	44	1	730
6.6.1	win	2022-12-19	19:03:22	19:07:26	242136	62f20c2e4032c85e3fe9c2cc	201689242	1	main_z	7	advance_on_keypress_ZEE	54	stimuli_target_circlediamonds.svg	stimuli_distractor_trianglediamonds.svg	2	yes	57	0	89
6.6.1	win	2022-12-19	19:03:22	19:07:27	243569	62f20c2e4032c85e3fe9c2cc	201689242	1	main_z	7	main_z	55	stimuli_target_circlediamonds.svg	stimuli_distractor_diamondtriangles.svg	6	yes	44	1	734
6.6.1	win	2022-12-19	19:03:22	19:07:27	243569	62f20c2e4032c85e3fe9c2cc	201689242	1	main_z	7	advance_on_keypress_ZEE	56	stimuli_target_circlediamonds.svg	stimuli_distractor_diamondtriangles.svg	6	yes	57	0	89
6.6.1	win	2022-12-19	19:03:22	19:07:29	245040	62f20c2e4032c85e3fe9c2cc	201689242	1	main_z	7	main_z	57	stimuli_distractor_trianglediamonds.svg	stimuli_target_diamondcircles.svg	27	yes	44	1	773
6.6.1	win	2022-12-19	19:03:22	19:07:29	245040	62f20c2e4032c85e3fe9c2cc	201689242	1	main_z	7	advance_on_keypress_ZEE	58	stimuli_distractor_trianglediamonds.svg	stimuli_target_diamondcircles.svg	27	yes	57	0	52
6.6.1	win	2022-12-19	19:03:22	19:07:30	246422	62f20c2e4032c85e3fe9c2cc	201689242	1	main_z	7	main_z	59	stimuli_distractor_diamondtriangles.svg	stimuli_target_circletriangles.svg	13	yes	44	1	719
6.6.1	win	2022-12-19	19:03:22	19:07:30	246422	62f20c2e4032c85e3fe9c2cc	201689242	1	main_z	7	advance_on_keypress_ZEE	60	stimuli_distractor_diamondtriangles.svg	stimuli_target_circletriangles.svg	13	yes	57	0	93
6.6.1	win	2022-12-19	19:03:22	19:07:31	247882	62f20c2e4032c85e3fe9c2cc	201689242	1	main_z	7	main_z	61	stimuli_target_trianglecircles.svg	stimuli_distractor_diamondtriangles.svg	21	yes	44	1	745
6.6.1	win	2022-12-19	19:03:22	19:07:31	247882	62f20c2e4032c85e3fe9c2cc	201689242	1	main_z	7	advance_on_keypress_ZEE	62	stimuli_target_trianglecircles.svg	stimuli_distractor_diamondtriangles.svg	21	yes	57	0	78
6.6.1	win	2022-12-19	19:03:22	19:07:33	249531	62f20c2e4032c85e3fe9c2cc	201689242	1	main_z	7	main_z	63	stimuli_distractor_diamondtriangles.svg	stimuli_target_diamondsquares.svg	32	yes	44	1	923
6.6.1	win	2022-12-19	19:03:22	19:07:33	249531	62f20c2e4032c85e3fe9c2cc	201689242	1	main_z	7	advance_on_keypress_ZEE	64	stimuli_distractor_diamondtriangles.svg	stimuli_target_diamondsquares.svg	32	yes	57	0	71
6.6.1	win	2022-12-19	19:03:22	19:07:35	250945	62f20c2e4032c85e3fe9c2cc	201689242	1	main_z	7	main_z	65	stimuli_target_trianglecircles.svg	stimuli_distractor_trianglediamonds.svg	17	yes	44	1	726
6.6.1	win	2022-12-19	19:03:22	19:07:35	250945	62f20c2e4032c85e3fe9c2cc	201689242	1	main_z	7	advance_on_keypress_ZEE	66	stimuli_target_trianglecircles.svg	stimuli_distractor_trianglediamonds.svg	17	yes	57	0	78
6.6.1	win	2022-12-19	19:03:22	19:07:36	252400	62f20c2e4032c85e3fe9c2cc	201689242	1	main_z	7	main_z	67	stimuli_distractor_trianglediamonds.svg	stimuli_target_circlediamonds.svg	10	yes	44	1	766
6.6.1	win	2022-12-19	19:03:22	19:07:36	252400	62f20c2e4032c85e3fe9c2cc	201689242	1	main_z	7	advance_on_keypress_ZEE	68	stimuli_distractor_trianglediamonds.svg	stimuli_target_circlediamonds.svg	10	yes	57	0	83
6.6.1	win	2022-12-19	19:03:22	19:07:37	253818	62f20c2e4032c85e3fe9c2cc	201689242	1	main_z	7	main_z	69	stimuli_distractor_trianglediamonds.svg	stimuli_target_circletriangles.svg	9	yes	44	1	725
6.6.1	win	2022-12-19	19:03:22	19:07:37	253818	62f20c2e4032c85e3fe9c2cc	201689242	1	main_z	7	advance_on_keypress_ZEE	70	stimuli_distractor_trianglediamonds.svg	stimuli_target_circletriangles.svg	9	yes	57	0	95
6.6.1	win	2022-12-19	19:03:22	19:07:40	256532	62f20c2e4032c85e3fe9c2cc	201689242	1	main_z	7	main_z	71	stimuli_distractor_trianglediamonds.svg	stimuli_distractor_diamondtriangles.svg	35	no	0	1	2000
6.6.1	win	2022-12-19	19:03:22	19:07:40	256532	62f20c2e4032c85e3fe9c2cc	201689242	1	main_z	7	advance_on_keypress_ZEE	72	stimuli_distractor_trianglediamonds.svg	stimuli_distractor_diamondtriangles.svg	35	no	57	0	329
6.6.1	win	2022-12-19	19:03:22	19:07:42	258272	62f20c2e4032c85e3fe9c2cc	201689242	1	main_z	7	main_z	73	stimuli_target_squarediamonds.svg	stimuli_distractor_diamondtriangles.svg	8	yes	44	1	796
6.6.1	win	2022-12-19	19:03:22	19:07:42	258272	62f20c2e4032c85e3fe9c2cc	201689242	1	main_z	7	advance_on_keypress_ZEE	74	stimuli_target_squarediamonds.svg	stimuli_distractor_diamondtriangles.svg	8	yes	57	0	70
6.6.1	win	2022-12-19	19:03:22	19:07:44	259933	62f20c2e4032c85e3fe9c2cc	201689242	1	main_z	7	main_z	75	stimuli_distractor_diamondtriangles.svg	stimuli_target_trianglecircles.svg	29	yes	44	1	976
6.6.1	win	2022-12-19	19:03:22	19:07:44	259933	62f20c2e4032c85e3fe9c2cc	201689242	1	main_z	7	advance_on_keypress_ZEE	76	stimuli_distractor_diamondtriangles.svg	stimuli_target_trianglecircles.svg	29	yes	57	0	45
6.6.1	win	2022-12-19	19:03:22	19:07:45	261364	62f20c2e4032c85e3fe9c2cc	201689242	1	main_z	7	main_z	77	stimuli_target_squaretriangles.svg	stimuli_distractor_trianglediamonds.svg	3	yes	44	1	764
6.6.1	win	2022-12-19	19:03:22	19:07:45	261364	62f20c2e4032c85e3fe9c2cc	201689242	1	main_z	7	advance_on_keypress_ZEE	78	stimuli_target_squaretriangles.svg	stimuli_distractor_trianglediamonds.svg	3	yes	57	0	80
6.6.1	win	2022-12-19	19:03:22	19:07:48	264058	62f20c2e4032c85e3fe9c2cc	201689242	1	main_z	7	main_z	79	stimuli_distractor_diamondtriangles.svg	stimuli_distractor_diamondtriangles.svg	39	no	0	1	2000
6.6.1	win	2022-12-19	19:03:22	19:07:48	264058	62f20c2e4032c85e3fe9c2cc	201689242	1	main_z	7	advance_on_keypress_ZEE	80	stimuli_distractor_diamondtriangles.svg	stimuli_distractor_diamondtriangles.svg	39	no	57	0	252
6.6.1	win	2022-12-19	19:03:22	19:07:49	265655	62f20c2e4032c85e3fe9c2cc	201689242	1	main_z	7	main_z	81	stimuli_target_diamondcircles.svg	stimuli_distractor_trianglediamonds.svg	19	yes	44	1	722
6.6.1	win	2022-12-19	19:03:22	19:07:49	265655	62f20c2e4032c85e3fe9c2cc	201689242	1	main_z	7	advance_on_keypress_ZEE	82	stimuli_target_diamondcircles.svg	stimuli_distractor_trianglediamonds.svg	19	yes	57	0	84
6.6.1	win	2022-12-19	19:03:22	19:07:51	267117	62f20c2e4032c85e3fe9c2cc	201689242	1	main_z	7	main_z	83	stimuli_distractor_trianglediamonds.svg	stimuli_target_trianglesquares.svg	26	yes	44	1	760
6.6.1	win	2022-12-19	19:03:22	19:07:51	267117	62f20c2e4032c85e3fe9c2cc	201689242	1	main_z	7	advance_on_keypress_ZEE	84	stimuli_distractor_trianglediamonds.svg	stimuli_target_trianglesquares.svg	26	yes	57	0	57
6.6.1	win	2022-12-19	19:03:22	19:07:52	268544	62f20c2e4032c85e3fe9c2cc	201689242	1	main_z	7	main_z	85	stimuli_target_trianglecircles.svg	stimuli_distractor_trianglediamonds.svg	17	yes	44	1	755
6.6.1	win	2022-12-19	19:03:22	19:07:52	268544	62f20c2e4032c85e3fe9c2cc	201689242	1	main_z	7	advance_on_keypress_ZEE	86	stimuli_target_trianglecircles.svg	stimuli_distractor_trianglediamonds.svg	17	yes	57	0	63
6.6.1	win	2022-12-19	19:03:22	19:07:55	271223	62f20c2e4032c85e3fe9c2cc	201689242	1	main_z	7	main_z	87	stimuli_distractor_trianglediamonds.svg	stimuli_distractor_trianglediamonds.svg	34	no	0	1	2000
6.6.1	win	2022-12-19	19:03:22	19:07:55	271223	62f20c2e4032c85e3fe9c2cc	201689242	1	main_z	7	advance_on_keypress_ZEE	88	stimuli_distractor_trianglediamonds.svg	stimuli_distractor_trianglediamonds.svg	34	no	57	0	282
6.6.1	win	2022-12-19	19:03:22	19:07:56	272903	62f20c2e4032c85e3fe9c2cc	201689242	1	main_z	7	main_z	89	stimuli_distractor_diamondtriangles.svg	stimuli_target_squarediamonds.svg	16	yes	44	1	781
6.6.1	win	2022-12-19	19:03:22	19:07:56	272903	62f20c2e4032c85e3fe9c2cc	201689242	1	main_z	7	advance_on_keypress_ZEE	90	stimuli_distractor_diamondtriangles.svg	stimuli_target_squarediamonds.svg	16	yes	57	0	83
6.6.1	win	2022-12-19	19:03:22	19:07:59	275601	62f20c2e4032c85e3fe9c2cc	201689242	1	main_z	7	main_z	91	stimuli_distractor_trianglediamonds.svg	stimuli_target_squaretriangles.svg	11	yes	0	0	2000
6.6.1	win	2022-12-19	19:03:22	19:07:59	275601	62f20c2e4032c85e3fe9c2cc	201689242	1	main_z	7	advance_on_keypress_ZEE	92	stimuli_distractor_trianglediamonds.svg	stimuli_target_squaretriangles.svg	11	yes	57	0	248
6.6.1	win	2022-12-19	19:03:22	19:08:01	277226	62f20c2e4032c85e3fe9c2cc	201689242	1	main_z	7	main_z	93	stimuli_distractor_diamondtriangles.svg	stimuli_target_diamondsquares.svg	32	yes	44	1	738
6.6.1	win	2022-12-19	19:03:22	19:08:01	277226	62f20c2e4032c85e3fe9c2cc	201689242	1	main_z	7	advance_on_keypress_ZEE	94	stimuli_distractor_diamondtriangles.svg	stimuli_target_diamondsquares.svg	32	yes	57	0	79
6.6.1	win	2022-12-19	19:03:22	19:08:02	278663	62f20c2e4032c85e3fe9c2cc	201689242	1	main_z	7	main_z	95	stimuli_distractor_diamondtriangles.svg	stimuli_target_squaretriangles.svg	15	yes	44	1	741
6.6.1	win	2022-12-19	19:03:22	19:08:02	278663	62f20c2e4032c85e3fe9c2cc	201689242	1	main_z	7	advance_on_keypress_ZEE	96	stimuli_distractor_diamondtriangles.svg	stimuli_target_squaretriangles.svg	15	yes	57	0	61
6.6.1	win	2022-12-19	19:03:22	19:08:04	280100	62f20c2e4032c85e3fe9c2cc	201689242	1	main_z	7	main_z	97	stimuli_distractor_trianglediamonds.svg	stimuli_target_circletriangles.svg	9	yes	44	1	759
6.6.1	win	2022-12-19	19:03:22	19:08:04	280100	62f20c2e4032c85e3fe9c2cc	201689242	1	main_z	7	advance_on_keypress_ZEE	98	stimuli_distractor_trianglediamonds.svg	stimuli_target_circletriangles.svg	9	yes	57	0	70
6.6.1	win	2022-12-19	19:03:22	19:08:05	281558	62f20c2e4032c85e3fe9c2cc	201689242	1	main_z	7	main_z	99	stimuli_distractor_diamondtriangles.svg	stimuli_target_trianglesquares.svg	30	yes	44	1	778
6.6.1	win	2022-12-19	19:03:22	19:08:05	281558	62f20c2e4032c85e3fe9c2cc	201689242	1	main_z	7	advance_on_keypress_ZEE	100	stimuli_distractor_diamondtriangles.svg	stimuli_target_trianglesquares.svg	30	yes	57	0	84
6.6.1	win	2022-12-19	19:03:22	19:08:07	283013	62f20c2e4032c85e3fe9c2cc	201689242	1	main_z	7	main_z	101	stimuli_distractor_diamondtriangles.svg	stimuli_target_circlediamonds.svg	14	yes	44	1	751
6.6.1	win	2022-12-19	19:03:22	19:08:07	283013	62f20c2e4032c85e3fe9c2cc	201689242	1	main_z	7	advance_on_keypress_ZEE	102	stimuli_distractor_diamondtriangles.svg	stimuli_target_circlediamonds.svg	14	yes	57	0	77
6.6.1	win	2022-12-19	19:03:22	19:08:08	284463	62f20c2e4032c85e3fe9c2cc	201689242	1	main_z	7	main_z	103	stimuli_distractor_trianglediamonds.svg	stimuli_target_diamondcircles.svg	27	yes	44	1	754
6.6.1	win	2022-12-19	19:03:22	19:08:08	284463	62f20c2e4032c85e3fe9c2cc	201689242	1	main_z	7	advance_on_keypress_ZEE	104	stimuli_distractor_trianglediamonds.svg	stimuli_target_diamondcircles.svg	27	yes	57	0	64
6.6.1	win	2022-12-19	19:03:22	19:08:10	285935	62f20c2e4032c85e3fe9c2cc	201689242	1	main_z	7	main_z	105	stimuli_target_trianglesquares.svg	stimuli_distractor_trianglediamonds.svg	18	yes	44	1	797
6.6.1	win	2022-12-19	19:03:22	19:08:10	285935	62f20c2e4032c85e3fe9c2cc	201689242	1	main_z	7	advance_on_keypress_ZEE	106	stimuli_target_trianglesquares.svg	stimuli_distractor_trianglediamonds.svg	18	yes	57	0	56
6.6.1	win	2022-12-19	19:03:22	19:08:11	287364	62f20c2e4032c85e3fe9c2cc	201689242	1	main_z	7	main_z	107	stimuli_target_trianglesquares.svg	stimuli_distractor_diamondtriangles.svg	22	yes	44	1	756
6.6.1	win	2022-12-19	19:03:22	19:08:11	287364	62f20c2e4032c85e3fe9c2cc	201689242	1	main_z	7	advance_on_keypress_ZEE	108	stimuli_target_trianglesquares.svg	stimuli_distractor_diamondtriangles.svg	22	yes	57	0	73
6.6.1	win	2022-12-19	19:03:22	19:08:12	288800	62f20c2e4032c85e3fe9c2cc	201689242	1	main_z	7	main_z	109	stimuli_distractor_diamondtriangles.svg	stimuli_target_trianglecircles.svg	29	yes	44	1	752
6.6.1	win	2022-12-19	19:03:22	19:08:12	288800	62f20c2e4032c85e3fe9c2cc	201689242	1	main_z	7	advance_on_keypress_ZEE	110	stimuli_distractor_diamondtriangles.svg	stimuli_target_trianglecircles.svg	29	yes	57	0	74
6.6.1	win	2022-12-19	19:03:22	19:08:15	291490	62f20c2e4032c85e3fe9c2cc	201689242	1	main_z	7	main_z	111	stimuli_distractor_diamondtriangles.svg	stimuli_distractor_diamondtriangles.svg	39	no	0	1	2000
6.6.1	win	2022-12-19	19:03:22	19:08:15	291490	62f20c2e4032c85e3fe9c2cc	201689242	1	main_z	7	advance_on_keypress_ZEE	112	stimuli_distractor_diamondtriangles.svg	stimuli_distractor_diamondtriangles.svg	39	no	57	0	568
6.6.1	win	2022-12-19	19:03:22	19:08:17	293510	62f20c2e4032c85e3fe9c2cc	201689242	1	main_z	7	main_z	113	stimuli_distractor_trianglediamonds.svg	stimuli_target_squarediamonds.svg	12	yes	44	1	828
6.6.1	win	2022-12-19	19:03:22	19:08:17	293510	62f20c2e4032c85e3fe9c2cc	201689242	1	main_z	7	advance_on_keypress_ZEE	114	stimuli_distractor_trianglediamonds.svg	stimuli_target_squarediamonds.svg	12	yes	57	0	65
6.6.1	win	2022-12-19	19:03:22	19:08:19	294937	62f20c2e4032c85e3fe9c2cc	201689242	1	main_z	7	main_z	115	stimuli_distractor_diamondtriangles.svg	stimuli_target_circletriangles.svg	13	yes	44	1	749
6.6.1	win	2022-12-19	19:03:22	19:08:19	294937	62f20c2e4032c85e3fe9c2cc	201689242	1	main_z	7	advance_on_keypress_ZEE	116	stimuli_distractor_diamondtriangles.svg	stimuli_target_circletriangles.svg	13	yes	57	0	57
6.6.1	win	2022-12-19	19:03:22	19:08:20	296378	62f20c2e4032c85e3fe9c2cc	201689242	1	main_z	7	main_z	117	stimuli_target_squaretriangles.svg	stimuli_distractor_diamondtriangles.svg	7	yes	44	1	764
6.6.1	win	2022-12-19	19:03:22	19:08:20	296378	62f20c2e4032c85e3fe9c2cc	201689242	1	main_z	7	advance_on_keypress_ZEE	118	stimuli_target_squaretriangles.svg	stimuli_distractor_diamondtriangles.svg	7	yes	57	0	63
6.6.1	win	2022-12-19	19:03:22	19:08:21	297774	62f20c2e4032c85e3fe9c2cc	201689242	1	main_z	7	main_z	119	stimuli_target_squarediamonds.svg	stimuli_distractor_trianglediamonds.svg	4	yes	44	1	723
6.6.1	win	2022-12-19	19:03:22	19:08:21	297774	62f20c2e4032c85e3fe9c2cc	201689242	1	main_z	7	advance_on_keypress_ZEE	120	stimuli_target_squarediamonds.svg	stimuli_distractor_trianglediamonds.svg	4	yes	57	0	56
6.6.1	win	2022-12-19	19:03:22	19:08:24	300452	62f20c2e4032c85e3fe9c2cc	201689242	1	main_z	7	main_z	121	stimuli_distractor_diamondtriangles.svg	stimuli_distractor_diamondtriangles.svg	40	no	0	1	2000
6.6.1	win	2022-12-19	19:03:22	19:08:24	300452	62f20c2e4032c85e3fe9c2cc	201689242	1	main_z	7	advance_on_keypress_ZEE	122	stimuli_distractor_diamondtriangles.svg	stimuli_distractor_diamondtriangles.svg	40	no	57	0	507
6.6.1	win	2022-12-19	19:03:22	19:08:27	303579	62f20c2e4032c85e3fe9c2cc	201689242	1	main_z	7	main_z	123	stimuli_distractor_trianglediamonds.svg	stimuli_distractor_trianglediamonds.svg	33	no	0	1	2000
6.6.1	win	2022-12-19	19:03:22	19:08:27	303579	62f20c2e4032c85e3fe9c2cc	201689242	1	main_z	7	advance_on_keypress_ZEE	124	stimuli_distractor_trianglediamonds.svg	stimuli_distractor_trianglediamonds.svg	33	no	57	0	539
6.6.1	win	2022-12-19	19:03:22	19:08:29	305520	62f20c2e4032c85e3fe9c2cc	201689242	1	main_z	7	main_z	125	stimuli_distractor_trianglediamonds.svg	stimuli_target_trianglecircles.svg	25	yes	44	1	785
6.6.1	win	2022-12-19	19:03:22	19:08:29	305520	62f20c2e4032c85e3fe9c2cc	201689242	1	main_z	7	advance_on_keypress_ZEE	126	stimuli_distractor_trianglediamonds.svg	stimuli_target_trianglecircles.svg	25	yes	57	0	76
6.6.1	win	2022-12-19	19:03:22	19:08:31	306930	62f20c2e4032c85e3fe9c2cc	201689242	1	main_z	7	main_z	127	stimuli_distractor_diamondtriangles.svg	stimuli_target_diamondcircles.svg	31	yes	44	1	723
6.6.1	win	2022-12-19	19:03:22	19:08:31	306930	62f20c2e4032c85e3fe9c2cc	201689242	1	main_z	7	advance_on_keypress_ZEE	128	stimuli_distractor_diamondtriangles.svg	stimuli_target_diamondcircles.svg	31	yes	57	0	72
6.6.1	win	2022-12-19	19:03:22	19:08:32	308371	62f20c2e4032c85e3fe9c2cc	201689242	1	main_z	7	main_z	129	stimuli_target_circlediamonds.svg	stimuli_distractor_trianglediamonds.svg	2	yes	44	1	755
6.6.1	win	2022-12-19	19:03:22	19:08:32	308371	62f20c2e4032c85e3fe9c2cc	201689242	1	main_z	7	advance_on_keypress_ZEE	130	stimuli_target_circlediamonds.svg	stimuli_distractor_trianglediamonds.svg	2	yes	57	0	63
6.6.1	win	2022-12-19	19:03:22	19:08:33	309771	62f20c2e4032c85e3fe9c2cc	201689242	1	main_z	7	main_z	131	stimuli_target_circletriangles.svg	stimuli_distractor_diamondtriangles.svg	5	yes	44	1	698
6.6.1	win	2022-12-19	19:03:22	19:08:33	309771	62f20c2e4032c85e3fe9c2cc	201689242	1	main_z	7	advance_on_keypress_ZEE	132	stimuli_target_circletriangles.svg	stimuli_distractor_diamondtriangles.svg	5	yes	57	0	60
6.6.1	win	2022-12-19	19:03:22	19:08:36	312444	62f20c2e4032c85e3fe9c2cc	201689242	1	main_z	7	main_z	133	stimuli_distractor_diamondtriangles.svg	stimuli_distractor_trianglediamonds.svg	37	no	0	1	2000
6.6.1	win	2022-12-19	19:03:22	19:08:36	312444	62f20c2e4032c85e3fe9c2cc	201689242	1	main_z	7	advance_on_keypress_ZEE	134	stimuli_distractor_diamondtriangles.svg	stimuli_distractor_trianglediamonds.svg	37	no	57	0	480
6.6.1	win	2022-12-19	19:03:22	19:08:39	315546	62f20c2e4032c85e3fe9c2cc	201689242	1	main_z	7	main_z	135	stimuli_distractor_trianglediamonds.svg	stimuli_distractor_diamondtriangles.svg	36	no	0	1	2000
6.6.1	win	2022-12-19	19:03:22	19:08:39	315546	62f20c2e4032c85e3fe9c2cc	201689242	1	main_z	7	advance_on_keypress_ZEE	136	stimuli_distractor_trianglediamonds.svg	stimuli_distractor_diamondtriangles.svg	36	no	57	0	1801
6.6.1	win	2022-12-19	19:03:22	19:08:42	318761	62f20c2e4032c85e3fe9c2cc	201689242	1	main_z	7	main_z	137	stimuli_target_diamondcircles.svg	stimuli_distractor_diamondtriangles.svg	23	yes	44	1	805
6.6.1	win	2022-12-19	19:03:22	19:08:42	318761	62f20c2e4032c85e3fe9c2cc	201689242	1	main_z	7	advance_on_keypress_ZEE	138	stimuli_target_diamondcircles.svg	stimuli_distractor_diamondtriangles.svg	23	yes	57	0	62
6.6.1	win	2022-12-19	19:03:22	19:08:44	320152	62f20c2e4032c85e3fe9c2cc	201689242	1	main_z	7	main_z	139	stimuli_distractor_trianglediamonds.svg	stimuli_target_diamondsquares.svg	28	yes	44	1	713
6.6.1	win	2022-12-19	19:03:22	19:08:44	320152	62f20c2e4032c85e3fe9c2cc	201689242	1	main_z	7	advance_on_keypress_ZEE	140	stimuli_distractor_trianglediamonds.svg	stimuli_target_diamondsquares.svg	28	yes	57	0	53
6.6.1	win	2022-12-19	19:03:22	19:08:45	321567	62f20c2e4032c85e3fe9c2cc	201689242	1	main_z	7	main_z	141	stimuli_target_diamondsquares.svg	stimuli_distractor_trianglediamonds.svg	20	yes	44	1	752
6.6.1	win	2022-12-19	19:03:22	19:08:45	321567	62f20c2e4032c85e3fe9c2cc	201689242	1	main_z	7	advance_on_keypress_ZEE	142	stimuli_target_diamondsquares.svg	stimuli_distractor_trianglediamonds.svg	20	yes	57	0	67
6.6.1	win	2022-12-19	19:03:22	19:08:47	322975	62f20c2e4032c85e3fe9c2cc	201689242	1	main_z	7	main_z	143	stimuli_target_squarediamonds.svg	stimuli_distractor_diamondtriangles.svg	8	yes	44	1	728
6.6.1	win	2022-12-19	19:03:22	19:08:47	322975	62f20c2e4032c85e3fe9c2cc	201689242	1	main_z	7	advance_on_keypress_ZEE	144	stimuli_target_squarediamonds.svg	stimuli_distractor_diamondtriangles.svg	8	yes	57	0	57
6.6.1	win	2022-12-19	19:03:22	19:08:48	324352	62f20c2e4032c85e3fe9c2cc	201689242	1	main_z	7	main_z	145	stimuli_target_trianglecircles.svg	stimuli_distractor_diamondtriangles.svg	21	yes	44	1	705
6.6.1	win	2022-12-19	19:03:22	19:08:48	324352	62f20c2e4032c85e3fe9c2cc	201689242	1	main_z	7	advance_on_keypress_ZEE	146	stimuli_target_trianglecircles.svg	stimuli_distractor_diamondtriangles.svg	21	yes	57	0	58
6.6.1	win	2022-12-19	19:03:22	19:08:49	325775	62f20c2e4032c85e3fe9c2cc	201689242	1	main_z	7	main_z	147	stimuli_target_circlediamonds.svg	stimuli_distractor_diamondtriangles.svg	6	yes	44	1	751
6.6.1	win	2022-12-19	19:03:22	19:08:49	325775	62f20c2e4032c85e3fe9c2cc	201689242	1	main_z	7	advance_on_keypress_ZEE	148	stimuli_target_circlediamonds.svg	stimuli_distractor_diamondtriangles.svg	6	yes	57	0	74
6.6.1	win	2022-12-19	19:03:22	19:08:52	328464	62f20c2e4032c85e3fe9c2cc	201689242	1	main_z	7	main_z	149	stimuli_distractor_diamondtriangles.svg	stimuli_distractor_trianglediamonds.svg	38	no	0	1	2000
6.6.1	win	2022-12-19	19:03:22	19:08:52	328464	62f20c2e4032c85e3fe9c2cc	201689242	1	main_z	7	advance_on_keypress_ZEE	150	stimuli_distractor_diamondtriangles.svg	stimuli_distractor_trianglediamonds.svg	38	no	57	0	349
6.6.1	win	2022-12-19	19:03:22	19:08:54	330179	62f20c2e4032c85e3fe9c2cc	201689242	1	main_z	7	main_z	151	stimuli_distractor_trianglediamonds.svg	stimuli_target_circlediamonds.svg	10	yes	44	1	750
6.6.1	win	2022-12-19	19:03:22	19:08:54	330179	62f20c2e4032c85e3fe9c2cc	201689242	1	main_z	7	advance_on_keypress_ZEE	152	stimuli_distractor_trianglediamonds.svg	stimuli_target_circlediamonds.svg	10	yes	57	0	72
6.6.1	win	2022-12-19	19:03:22	19:08:56	332869	62f20c2e4032c85e3fe9c2cc	201689242	1	main_z	7	main_z	153	stimuli_distractor_trianglediamonds.svg	stimuli_distractor_diamondtriangles.svg	35	no	0	1	2000
6.6.1	win	2022-12-19	19:03:22	19:08:56	332869	62f20c2e4032c85e3fe9c2cc	201689242	1	main_z	7	advance_on_keypress_ZEE	154	stimuli_distractor_trianglediamonds.svg	stimuli_distractor_diamondtriangles.svg	35	no	57	0	351
6.6.1	win	2022-12-19	19:03:22	19:08:58	334600	62f20c2e4032c85e3fe9c2cc	201689242	1	main_z	7	main_z	155	stimuli_target_squaretriangles.svg	stimuli_distractor_trianglediamonds.svg	3	yes	44	1	770
6.6.1	win	2022-12-19	19:03:22	19:08:58	334600	62f20c2e4032c85e3fe9c2cc	201689242	1	main_z	7	advance_on_keypress_ZEE	156	stimuli_target_squaretriangles.svg	stimuli_distractor_trianglediamonds.svg	3	yes	57	0	65
6.6.1	win	2022-12-19	19:03:22	19:09:00	336059	62f20c2e4032c85e3fe9c2cc	201689242	1	main_z	7	main_z	157	stimuli_target_diamondsquares.svg	stimuli_distractor_diamondtriangles.svg	24	yes	44	1	772
6.6.1	win	2022-12-19	19:03:22	19:09:00	336059	62f20c2e4032c85e3fe9c2cc	201689242	1	main_z	7	advance_on_keypress_ZEE	158	stimuli_target_diamondsquares.svg	stimuli_distractor_diamondtriangles.svg	24	yes	57	0	66
6.6.1	win	2022-12-19	19:03:22	19:09:01	337507	62f20c2e4032c85e3fe9c2cc	201689242	1	main_z	7	main_z	159	stimuli_target_circletriangles.svg	stimuli_distractor_trianglediamonds.svg	1	yes	44	1	762
6.6.1	win	2022-12-19	19:03:22	19:09:01	337507	62f20c2e4032c85e3fe9c2cc	201689242	1	main_z	7	advance_on_keypress_ZEE	160	stimuli_target_circletriangles.svg	stimuli_distractor_trianglediamonds.svg	1	yes	57	0	66
6.6.1	win	2022-12-19	19:03:22	19:09:37	373205	62f20c2e4032c85e3fe9c2cc	201689242	1	practice_slash	9	practice_slash	1	stimuli_target_squarediamonds.svg	stimuli_distractor_diamondtriangles.svg	2	yes	53	1	1077
6.6.1	win	2022-12-19	19:03:22	19:09:37	373205	62f20c2e4032c85e3fe9c2cc	201689242	1	practice_slash	9	advance_on_keypress_SLASH	2	stimuli_target_squarediamonds.svg	stimuli_distractor_diamondtriangles.svg	2	yes	57	0	1134
6.6.1	win	2022-12-19	19:03:22	19:09:40	376760	62f20c2e4032c85e3fe9c2cc	201689242	1	practice_slash	9	practice_slash	3	stimuli_distractor_diamondtriangles.svg	stimuli_target_diamondcircles.svg	8	yes	53	1	780
6.6.1	win	2022-12-19	19:03:22	19:09:40	376760	62f20c2e4032c85e3fe9c2cc	201689242	1	practice_slash	9	advance_on_keypress_SLASH	4	stimuli_distractor_diamondtriangles.svg	stimuli_target_diamondcircles.svg	8	yes	57	0	270
6.6.1	win	2022-12-19	19:03:22	19:09:43	379412	62f20c2e4032c85e3fe9c2cc	201689242	1	practice_slash	9	practice_slash	5	stimuli_target_squarediamonds.svg	stimuli_distractor_trianglediamonds.svg	5	yes	53	1	767
6.6.1	win	2022-12-19	19:03:22	19:09:43	379412	62f20c2e4032c85e3fe9c2cc	201689242	1	practice_slash	9	advance_on_keypress_SLASH	6	stimuli_target_squarediamonds.svg	stimuli_distractor_trianglediamonds.svg	5	yes	57	0	258
6.6.1	win	2022-12-19	19:03:22	19:09:46	382046	62f20c2e4032c85e3fe9c2cc	201689242	1	practice_slash	9	practice_slash	7	stimuli_target_diamondsquares.svg	stimuli_distractor_trianglediamonds.svg	6	yes	53	1	753
6.6.1	win	2022-12-19	19:03:22	19:09:46	382046	62f20c2e4032c85e3fe9c2cc	201689242	1	practice_slash	9	advance_on_keypress_SLASH	8	stimuli_target_diamondsquares.svg	stimuli_distractor_trianglediamonds.svg	6	yes	57	0	246
6.6.1	win	2022-12-19	19:03:22	19:09:48	384757	62f20c2e4032c85e3fe9c2cc	201689242	1	practice_slash	9	practice_slash	9	stimuli_target_diamondsquares.svg	stimuli_distractor_diamondtriangles.svg	3	yes	53	1	793
6.6.1	win	2022-12-19	19:03:22	19:09:48	384757	62f20c2e4032c85e3fe9c2cc	201689242	1	practice_slash	9	advance_on_keypress_SLASH	10	stimuli_target_diamondsquares.svg	stimuli_distractor_diamondtriangles.svg	3	yes	57	0	199
6.6.1	win	2022-12-19	19:03:22	19:09:51	387367	62f20c2e4032c85e3fe9c2cc	201689242	1	practice_slash	9	practice_slash	11	stimuli_target_circlediamonds.svg	stimuli_distractor_diamondtriangles.svg	1	yes	53	1	793
6.6.1	win	2022-12-19	19:03:22	19:09:51	387367	62f20c2e4032c85e3fe9c2cc	201689242	1	practice_slash	9	advance_on_keypress_SLASH	12	stimuli_target_circlediamonds.svg	stimuli_distractor_diamondtriangles.svg	1	yes	57	0	236
6.6.1	win	2022-12-19	19:03:22	19:09:54	390040	62f20c2e4032c85e3fe9c2cc	201689242	1	practice_slash	9	practice_slash	13	stimuli_distractor_diamondtriangles.svg	stimuli_target_circletriangles.svg	7	yes	53	1	796
6.6.1	win	2022-12-19	19:03:22	19:09:54	390040	62f20c2e4032c85e3fe9c2cc	201689242	1	practice_slash	9	advance_on_keypress_SLASH	14	stimuli_distractor_diamondtriangles.svg	stimuli_target_circletriangles.svg	7	yes	57	0	224
6.6.1	win	2022-12-19	19:03:22	19:09:56	392700	62f20c2e4032c85e3fe9c2cc	201689242	1	practice_slash	9	practice_slash	15	stimuli_distractor_trianglediamonds.svg	stimuli_target_circlediamonds.svg	10	yes	53	1	820
6.6.1	win	2022-12-19	19:03:22	19:09:56	392700	62f20c2e4032c85e3fe9c2cc	201689242	1	practice_slash	9	advance_on_keypress_SLASH	16	stimuli_distractor_trianglediamonds.svg	stimuli_target_circlediamonds.svg	10	yes	57	0	237
6.6.1	win	2022-12-19	19:03:22	19:09:59	395329	62f20c2e4032c85e3fe9c2cc	201689242	1	practice_slash	9	practice_slash	17	stimuli_distractor_trianglediamonds.svg	stimuli_target_diamondcircles.svg	12	yes	53	1	773
6.6.1	win	2022-12-19	19:03:22	19:09:59	395329	62f20c2e4032c85e3fe9c2cc	201689242	1	practice_slash	9	advance_on_keypress_SLASH	18	stimuli_distractor_trianglediamonds.svg	stimuli_target_diamondcircles.svg	12	yes	57	0	310
6.6.1	win	2022-12-19	19:03:22	19:10:03	399279	62f20c2e4032c85e3fe9c2cc	201689242	1	practice_slash	9	practice_slash	19	stimuli_distractor_diamondtriangles.svg	stimuli_distractor_diamondtriangles.svg	13	no	0	1	2000
6.6.1	win	2022-12-19	19:03:22	19:10:03	399279	62f20c2e4032c85e3fe9c2cc	201689242	1	practice_slash	9	advance_on_keypress_SLASH	20	stimuli_distractor_diamondtriangles.svg	stimuli_distractor_diamondtriangles.svg	13	no	57	0	253
6.6.1	win	2022-12-19	19:03:22	19:10:06	401969	62f20c2e4032c85e3fe9c2cc	201689242	1	practice_slash	9	practice_slash	21	stimuli_target_circlediamonds.svg	stimuli_distractor_trianglediamonds.svg	4	yes	53	1	801
6.6.1	win	2022-12-19	19:03:22	19:10:06	401969	62f20c2e4032c85e3fe9c2cc	201689242	1	practice_slash	9	advance_on_keypress_SLASH	22	stimuli_target_circlediamonds.svg	stimuli_distractor_trianglediamonds.svg	4	yes	57	0	290
6.6.1	win	2022-12-19	19:03:22	19:10:09	405895	62f20c2e4032c85e3fe9c2cc	201689242	1	practice_slash	9	practice_slash	23	stimuli_distractor_diamondtriangles.svg	stimuli_distractor_trianglediamonds.svg	14	no	0	1	2000
6.6.1	win	2022-12-19	19:03:22	19:10:09	405895	62f20c2e4032c85e3fe9c2cc	201689242	1	practice_slash	9	advance_on_keypress_SLASH	24	stimuli_distractor_diamondtriangles.svg	stimuli_distractor_trianglediamonds.svg	14	no	57	0	219
6.6.1	win	2022-12-19	19:03:22	19:10:12	408560	62f20c2e4032c85e3fe9c2cc	201689242	1	practice_slash	9	practice_slash	25	stimuli_distractor_diamondtriangles.svg	stimuli_target_trianglecircles.svg	9	yes	53	1	809
6.6.1	win	2022-12-19	19:03:22	19:10:12	408560	62f20c2e4032c85e3fe9c2cc	201689242	1	practice_slash	9	advance_on_keypress_SLASH	26	stimuli_distractor_diamondtriangles.svg	stimuli_target_trianglecircles.svg	9	yes	57	0	313
6.6.1	win	2022-12-19	19:03:22	19:10:16	412489	62f20c2e4032c85e3fe9c2cc	201689242	1	practice_slash	9	practice_slash	27	stimuli_distractor_trianglediamonds.svg	stimuli_distractor_trianglediamonds.svg	15	no	0	1	2000
6.6.1	win	2022-12-19	19:03:22	19:10:16	412489	62f20c2e4032c85e3fe9c2cc	201689242	1	practice_slash	9	advance_on_keypress_SLASH	28	stimuli_distractor_trianglediamonds.svg	stimuli_distractor_trianglediamonds.svg	15	no	57	0	3664
6.6.1	win	2022-12-19	19:03:22	19:10:23	419767	62f20c2e4032c85e3fe9c2cc	201689242	1	practice_slash	9	practice_slash	29	stimuli_distractor_trianglediamonds.svg	stimuli_distractor_diamondtriangles.svg	16	no	0	1	2000
6.6.1	win	2022-12-19	19:03:22	19:10:23	419767	62f20c2e4032c85e3fe9c2cc	201689242	1	practice_slash	9	advance_on_keypress_SLASH	30	stimuli_distractor_trianglediamonds.svg	stimuli_distractor_diamondtriangles.svg	16	no	57	0	5832
6.6.1	win	2022-12-19	19:03:22	19:10:32	428064	62f20c2e4032c85e3fe9c2cc	201689242	1	practice_slash	9	practice_slash	31	stimuli_distractor_trianglediamonds.svg	stimuli_target_squarediamonds.svg	11	yes	53	1	847
6.6.1	win	2022-12-19	19:03:22	19:10:32	428064	62f20c2e4032c85e3fe9c2cc	201689242	1	practice_slash	9	advance_on_keypress_SLASH	32	stimuli_distractor_trianglediamonds.svg	stimuli_target_squarediamonds.svg	11	yes	57	0	224
6.6.1	win	2022-12-19	19:03:22	19:10:39	435192	62f20c2e4032c85e3fe9c2cc	201689242	1	main_slash	11	main_slash	1	stimuli_distractor_diamondtriangles.svg	stimuli_distractor_trianglediamonds.svg	38	no	0	1	2000
6.6.1	win	2022-12-19	19:03:22	19:10:39	435192	62f20c2e4032c85e3fe9c2cc	201689242	1	main_slash	11	advance_on_keypress_SLASH	2	stimuli_distractor_diamondtriangles.svg	stimuli_distractor_trianglediamonds.svg	38	no	57	0	546
6.6.1	win	2022-12-19	19:03:22	19:10:41	437108	62f20c2e4032c85e3fe9c2cc	201689242	1	main_slash	11	main_slash	3	stimuli_target_squaretriangles.svg	stimuli_distractor_diamondtriangles.svg	7	yes	53	1	749
6.6.1	win	2022-12-19	19:03:22	19:10:41	437108	62f20c2e4032c85e3fe9c2cc	201689242	1	main_slash	11	advance_on_keypress_SLASH	4	stimuli_target_squaretriangles.svg	stimuli_distractor_diamondtriangles.svg	7	yes	57	0	370
6.6.1	win	2022-12-19	19:03:22	19:10:42	438856	62f20c2e4032c85e3fe9c2cc	201689242	1	main_slash	11	main_slash	5	stimuli_distractor_trianglediamonds.svg	stimuli_target_trianglecircles.svg	25	yes	53	1	761
6.6.1	win	2022-12-19	19:03:22	19:10:42	438856	62f20c2e4032c85e3fe9c2cc	201689242	1	main_slash	11	advance_on_keypress_SLASH	6	stimuli_distractor_trianglediamonds.svg	stimuli_target_trianglecircles.svg	25	yes	57	0	340
6.6.1	win	2022-12-19	19:03:22	19:10:44	440579	62f20c2e4032c85e3fe9c2cc	201689242	1	main_slash	11	main_slash	7	stimuli_distractor_diamondtriangles.svg	stimuli_target_trianglesquares.svg	30	yes	53	1	773
6.6.1	win	2022-12-19	19:03:22	19:10:44	440579	62f20c2e4032c85e3fe9c2cc	201689242	1	main_slash	11	advance_on_keypress_SLASH	8	stimuli_distractor_diamondtriangles.svg	stimuli_target_trianglesquares.svg	30	yes	57	0	312
6.6.1	win	2022-12-19	19:03:22	19:10:46	442306	62f20c2e4032c85e3fe9c2cc	201689242	1	main_slash	11	main_slash	9	stimuli_target_trianglesquares.svg	stimuli_distractor_diamondtriangles.svg	22	yes	53	1	804
6.6.1	win	2022-12-19	19:03:22	19:10:46	442306	62f20c2e4032c85e3fe9c2cc	201689242	1	main_slash	11	advance_on_keypress_SLASH	10	stimuli_target_trianglesquares.svg	stimuli_distractor_diamondtriangles.svg	22	yes	57	0	466
6.6.1	win	2022-12-19	19:03:22	19:10:48	444173	62f20c2e4032c85e3fe9c2cc	201689242	1	main_slash	11	main_slash	11	stimuli_distractor_trianglediamonds.svg	stimuli_target_diamondsquares.svg	28	yes	53	1	784
6.6.1	win	2022-12-19	19:03:22	19:10:48	444173	62f20c2e4032c85e3fe9c2cc	201689242	1	main_slash	11	advance_on_keypress_SLASH	12	stimuli_distractor_trianglediamonds.svg	stimuli_target_diamondsquares.svg	28	yes	57	0	374
6.6.1	win	2022-12-19	19:03:22	19:10:51	447159	62f20c2e4032c85e3fe9c2cc	201689242	1	main_slash	11	main_slash	13	stimuli_distractor_trianglediamonds.svg	stimuli_distractor_trianglediamonds.svg	33	no	0	1	2000
6.6.1	win	2022-12-19	19:03:22	19:10:51	447159	62f20c2e4032c85e3fe9c2cc	201689242	1	main_slash	11	advance_on_keypress_SLASH	14	stimuli_distractor_trianglediamonds.svg	stimuli_distractor_trianglediamonds.svg	33	no	57	0	314
6.6.1	win	2022-12-19	19:03:22	19:10:52	448856	62f20c2e4032c85e3fe9c2cc	201689242	1	main_slash	11	main_slash	15	stimuli_target_diamondsquares.svg	stimuli_distractor_diamondtriangles.svg	24	yes	53	1	765
6.6.1	win	2022-12-19	19:03:22	19:10:52	448856	62f20c2e4032c85e3fe9c2cc	201689242	1	main_slash	11	advance_on_keypress_SLASH	16	stimuli_target_diamondsquares.svg	stimuli_distractor_diamondtriangles.svg	24	yes	57	0	233
6.6.1	win	2022-12-19	19:03:22	19:10:55	451706	62f20c2e4032c85e3fe9c2cc	201689242	1	main_slash	11	main_slash	17	stimuli_distractor_diamondtriangles.svg	stimuli_distractor_diamondtriangles.svg	39	no	0	1	2000
6.6.1	win	2022-12-19	19:03:22	19:10:55	451706	62f20c2e4032c85e3fe9c2cc	201689242	1	main_slash	11	advance_on_keypress_SLASH	18	stimuli_distractor_diamondtriangles.svg	stimuli_distractor_diamondtriangles.svg	39	no	57	0	273
6.6.1	win	2022-12-19	19:03:22	19:10:57	453374	62f20c2e4032c85e3fe9c2cc	201689242	1	main_slash	11	main_slash	19	stimuli_target_circletriangles.svg	stimuli_distractor_diamondtriangles.svg	5	yes	53	1	760
6.6.1	win	2022-12-19	19:03:22	19:10:57	453374	62f20c2e4032c85e3fe9c2cc	201689242	1	main_slash	11	advance_on_keypress_SLASH	20	stimuli_target_circletriangles.svg	stimuli_distractor_diamondtriangles.svg	5	yes	57	0	254
6.6.1	win	2022-12-19	19:03:22	19:10:59	455054	62f20c2e4032c85e3fe9c2cc	201689242	1	main_slash	11	main_slash	21	stimuli_target_trianglecircles.svg	stimuli_distractor_diamondtriangles.svg	21	yes	53	1	809
6.6.1	win	2022-12-19	19:03:22	19:10:59	455054	62f20c2e4032c85e3fe9c2cc	201689242	1	main_slash	11	advance_on_keypress_SLASH	22	stimuli_target_trianglecircles.svg	stimuli_distractor_diamondtriangles.svg	21	yes	57	0	136
6.6.1	win	2022-12-19	19:03:22	19:11:00	456594	62f20c2e4032c85e3fe9c2cc	201689242	1	main_slash	11	main_slash	23	stimuli_distractor_trianglediamonds.svg	stimuli_target_circletriangles.svg	9	yes	53	1	764
6.6.1	win	2022-12-19	19:03:22	19:11:00	456594	62f20c2e4032c85e3fe9c2cc	201689242	1	main_slash	11	advance_on_keypress_SLASH	24	stimuli_distractor_trianglediamonds.svg	stimuli_target_circletriangles.svg	9	yes	57	0	144
6.6.1	win	2022-12-19	19:03:22	19:11:02	458066	62f20c2e4032c85e3fe9c2cc	201689242	1	main_slash	11	main_slash	25	stimuli_distractor_trianglediamonds.svg	stimuli_target_squarediamonds.svg	12	yes	53	1	716
6.6.1	win	2022-12-19	19:03:22	19:11:02	458066	62f20c2e4032c85e3fe9c2cc	201689242	1	main_slash	11	advance_on_keypress_SLASH	26	stimuli_distractor_trianglediamonds.svg	stimuli_target_squarediamonds.svg	12	yes	57	0	92
6.6.1	win	2022-12-19	19:03:22	19:11:03	459555	62f20c2e4032c85e3fe9c2cc	201689242	1	main_slash	11	main_slash	27	stimuli_distractor_diamondtriangles.svg	stimuli_target_circlediamonds.svg	14	yes	53	1	780
6.6.1	win	2022-12-19	19:03:22	19:11:03	459555	62f20c2e4032c85e3fe9c2cc	201689242	1	main_slash	11	advance_on_keypress_SLASH	28	stimuli_distractor_diamondtriangles.svg	stimuli_target_circlediamonds.svg	14	yes	57	0	95
6.6.1	win	2022-12-19	19:03:22	19:11:06	462265	62f20c2e4032c85e3fe9c2cc	201689242	1	main_slash	11	main_slash	29	stimuli_distractor_diamondtriangles.svg	stimuli_distractor_diamondtriangles.svg	40	no	0	1	2000
6.6.1	win	2022-12-19	19:03:22	19:11:06	462265	62f20c2e4032c85e3fe9c2cc	201689242	1	main_slash	11	advance_on_keypress_SLASH	30	stimuli_distractor_diamondtriangles.svg	stimuli_distractor_diamondtriangles.svg	40	no	57	0	290
6.6.1	win	2022-12-19	19:03:22	19:11:07	463891	62f20c2e4032c85e3fe9c2cc	201689242	1	main_slash	11	main_slash	31	stimuli_distractor_trianglediamonds.svg	stimuli_target_circlediamonds.svg	10	yes	53	1	721
6.6.1	win	2022-12-19	19:03:22	19:11:07	463891	62f20c2e4032c85e3fe9c2cc	201689242	1	main_slash	11	advance_on_keypress_SLASH	32	stimuli_distractor_trianglediamonds.svg	stimuli_target_circlediamonds.svg	10	yes	57	0	89
6.6.1	win	2022-12-19	19:03:22	19:11:09	465341	62f20c2e4032c85e3fe9c2cc	201689242	1	main_slash	11	main_slash	33	stimuli_distractor_trianglediamonds.svg	stimuli_target_diamondcircles.svg	27	yes	53	1	749
6.6.1	win	2022-12-19	19:03:22	19:11:09	465341	62f20c2e4032c85e3fe9c2cc	201689242	1	main_slash	11	advance_on_keypress_SLASH	34	stimuli_distractor_trianglediamonds.svg	stimuli_target_diamondcircles.svg	27	yes	57	0	64
6.6.1	win	2022-12-19	19:03:22	19:11:10	466743	62f20c2e4032c85e3fe9c2cc	201689242	1	main_slash	11	main_slash	35	stimuli_distractor_diamondtriangles.svg	stimuli_target_diamondcircles.svg	31	yes	53	1	722
6.6.1	win	2022-12-19	19:03:22	19:11:10	466743	62f20c2e4032c85e3fe9c2cc	201689242	1	main_slash	11	advance_on_keypress_SLASH	36	stimuli_distractor_diamondtriangles.svg	stimuli_target_diamondcircles.svg	31	yes	57	0	46
6.6.1	win	2022-12-19	19:03:22	19:11:12	468156	62f20c2e4032c85e3fe9c2cc	201689242	1	main_slash	11	main_slash	37	stimuli_target_trianglecircles.svg	stimuli_distractor_trianglediamonds.svg	17	yes	53	1	750
6.6.1	win	2022-12-19	19:03:22	19:11:12	468156	62f20c2e4032c85e3fe9c2cc	201689242	1	main_slash	11	advance_on_keypress_SLASH	38	stimuli_target_trianglecircles.svg	stimuli_distractor_trianglediamonds.svg	17	yes	57	0	88
6.6.1	win	2022-12-19	19:03:22	19:11:13	469613	62f20c2e4032c85e3fe9c2cc	201689242	1	main_slash	11	main_slash	39	stimuli_distractor_diamondtriangles.svg	stimuli_target_trianglecircles.svg	29	yes	53	1	733
6.6.1	win	2022-12-19	19:03:22	19:11:13	469613	62f20c2e4032c85e3fe9c2cc	201689242	1	main_slash	11	advance_on_keypress_SLASH	40	stimuli_distractor_diamondtriangles.svg	stimuli_target_trianglecircles.svg	29	yes	57	0	78
6.6.1	win	2022-12-19	19:03:22	19:11:15	471003	62f20c2e4032c85e3fe9c2cc	201689242	1	main_slash	11	main_slash	41	stimuli_target_diamondcircles.svg	stimuli_distractor_trianglediamonds.svg	19	yes	53	1	696
6.6.1	win	2022-12-19	19:03:22	19:11:15	471003	62f20c2e4032c85e3fe9c2cc	201689242	1	main_slash	11	advance_on_keypress_SLASH	42	stimuli_target_diamondcircles.svg	stimuli_distractor_trianglediamonds.svg	19	yes	57	0	75
6.6.1	win	2022-12-19	19:03:22	19:11:16	472451	62f20c2e4032c85e3fe9c2cc	201689242	1	main_slash	11	main_slash	43	stimuli_distractor_diamondtriangles.svg	stimuli_target_squaretriangles.svg	15	yes	53	1	756
6.6.1	win	2022-12-19	19:03:22	19:11:16	472451	62f20c2e4032c85e3fe9c2cc	201689242	1	main_slash	11	advance_on_keypress_SLASH	44	stimuli_distractor_diamondtriangles.svg	stimuli_target_squaretriangles.svg	15	yes	57	0	65
6.6.1	win	2022-12-19	19:03:22	19:11:17	473850	62f20c2e4032c85e3fe9c2cc	201689242	1	main_slash	11	main_slash	45	stimuli_target_diamondcircles.svg	stimuli_distractor_diamondtriangles.svg	23	yes	53	1	723
6.6.1	win	2022-12-19	19:03:22	19:11:17	473850	62f20c2e4032c85e3fe9c2cc	201689242	1	main_slash	11	advance_on_keypress_SLASH	46	stimuli_target_diamondcircles.svg	stimuli_distractor_diamondtriangles.svg	23	yes	57	0	64
6.6.1	win	2022-12-19	19:03:22	19:11:19	475279	62f20c2e4032c85e3fe9c2cc	201689242	1	main_slash	11	main_slash	47	stimuli_distractor_diamondtriangles.svg	stimuli_target_circletriangles.svg	13	yes	53	1	753
6.6.1	win	2022-12-19	19:03:22	19:11:19	475279	62f20c2e4032c85e3fe9c2cc	201689242	1	main_slash	11	advance_on_keypress_SLASH	48	stimuli_distractor_diamondtriangles.svg	stimuli_target_circletriangles.svg	13	yes	57	0	71
6.6.1	win	2022-12-19	19:03:22	19:11:22	477959	62f20c2e4032c85e3fe9c2cc	201689242	1	main_slash	11	main_slash	49	stimuli_distractor_trianglediamonds.svg	stimuli_distractor_diamondtriangles.svg	36	no	0	1	2000
6.6.1	win	2022-12-19	19:03:22	19:11:22	477959	62f20c2e4032c85e3fe9c2cc	201689242	1	main_slash	11	advance_on_keypress_SLASH	50	stimuli_distractor_trianglediamonds.svg	stimuli_distractor_diamondtriangles.svg	36	no	57	0	247
6.6.1	win	2022-12-19	19:03:22	19:11:23	479567	62f20c2e4032c85e3fe9c2cc	201689242	1	main_slash	11	main_slash	51	stimuli_target_circletriangles.svg	stimuli_distractor_trianglediamonds.svg	1	yes	53	1	746
6.6.1	win	2022-12-19	19:03:22	19:11:23	479567	62f20c2e4032c85e3fe9c2cc	201689242	1	main_slash	11	advance_on_keypress_SLASH	52	stimuli_target_circletriangles.svg	stimuli_distractor_trianglediamonds.svg	1	yes	57	0	102
6.6.1	win	2022-12-19	19:03:22	19:11:25	480966	62f20c2e4032c85e3fe9c2cc	201689242	1	main_slash	11	main_slash	53	stimuli_target_squarediamonds.svg	stimuli_distractor_diamondtriangles.svg	8	yes	53	1	686
6.6.1	win	2022-12-19	19:03:22	19:11:25	480966	62f20c2e4032c85e3fe9c2cc	201689242	1	main_slash	11	advance_on_keypress_SLASH	54	stimuli_target_squarediamonds.svg	stimuli_distractor_diamondtriangles.svg	8	yes	57	0	80
6.6.1	win	2022-12-19	19:03:22	19:11:27	483656	62f20c2e4032c85e3fe9c2cc	201689242	1	main_slash	11	main_slash	55	stimuli_distractor_trianglediamonds.svg	stimuli_distractor_diamondtriangles.svg	35	no	0	1	2000
6.6.1	win	2022-12-19	19:03:22	19:11:27	483656	62f20c2e4032c85e3fe9c2cc	201689242	1	main_slash	11	advance_on_keypress_SLASH	56	stimuli_distractor_trianglediamonds.svg	stimuli_distractor_diamondtriangles.svg	35	no	57	0	505
6.6.1	win	2022-12-19	19:03:22	19:11:30	486777	62f20c2e4032c85e3fe9c2cc	201689242	1	main_slash	11	main_slash	57	stimuli_distractor_diamondtriangles.svg	stimuli_distractor_trianglediamonds.svg	37	no	0	1	2000
6.6.1	win	2022-12-19	19:03:22	19:11:30	486777	62f20c2e4032c85e3fe9c2cc	201689242	1	main_slash	11	advance_on_keypress_SLASH	58	stimuli_distractor_diamondtriangles.svg	stimuli_distractor_trianglediamonds.svg	37	no	57	0	292
6.6.1	win	2022-12-19	19:03:22	19:11:33	489687	62f20c2e4032c85e3fe9c2cc	201689242	1	main_slash	11	main_slash	59	stimuli_distractor_trianglediamonds.svg	stimuli_distractor_trianglediamonds.svg	34	no	0	1	2000
6.6.1	win	2022-12-19	19:03:22	19:11:33	489687	62f20c2e4032c85e3fe9c2cc	201689242	1	main_slash	11	advance_on_keypress_SLASH	60	stimuli_distractor_trianglediamonds.svg	stimuli_distractor_trianglediamonds.svg	34	no	57	0	229
6.6.1	win	2022-12-19	19:03:22	19:11:35	491298	62f20c2e4032c85e3fe9c2cc	201689242	1	main_slash	11	main_slash	61	stimuli_distractor_trianglediamonds.svg	stimuli_target_squaretriangles.svg	11	yes	53	1	773
6.6.1	win	2022-12-19	19:03:22	19:11:35	491298	62f20c2e4032c85e3fe9c2cc	201689242	1	main_slash	11	advance_on_keypress_SLASH	62	stimuli_distractor_trianglediamonds.svg	stimuli_target_squaretriangles.svg	11	yes	57	0	70
6.6.1	win	2022-12-19	19:03:22	19:11:36	492792	62f20c2e4032c85e3fe9c2cc	201689242	1	main_slash	11	main_slash	63	stimuli_target_diamondsquares.svg	stimuli_distractor_trianglediamonds.svg	20	yes	53	1	808
6.6.1	win	2022-12-19	19:03:22	19:11:36	492792	62f20c2e4032c85e3fe9c2cc	201689242	1	main_slash	11	advance_on_keypress_SLASH	64	stimuli_target_diamondsquares.svg	stimuli_distractor_trianglediamonds.svg	20	yes	57	0	103
6.6.1	win	2022-12-19	19:03:22	19:11:38	494202	62f20c2e4032c85e3fe9c2cc	201689242	1	main_slash	11	main_slash	65	stimuli_target_squaretriangles.svg	stimuli_distractor_trianglediamonds.svg	3	yes	53	1	690
6.6.1	win	2022-12-19	19:03:22	19:11:38	494202	62f20c2e4032c85e3fe9c2cc	201689242	1	main_slash	11	advance_on_keypress_SLASH	66	stimuli_target_squaretriangles.svg	stimuli_distractor_trianglediamonds.svg	3	yes	57	0	60
6.6.1	win	2022-12-19	19:03:22	19:11:39	495573	62f20c2e4032c85e3fe9c2cc	201689242	1	main_slash	11	main_slash	67	stimuli_target_squarediamonds.svg	stimuli_distractor_trianglediamonds.svg	4	yes	53	1	693
6.6.1	win	2022-12-19	19:03:22	19:11:39	495573	62f20c2e4032c85e3fe9c2cc	201689242	1	main_slash	11	advance_on_keypress_SLASH	68	stimuli_target_squarediamonds.svg	stimuli_distractor_trianglediamonds.svg	4	yes	57	0	63
6.6.1	win	2022-12-19	19:03:22	19:11:41	496949	62f20c2e4032c85e3fe9c2cc	201689242	1	main_slash	11	main_slash	69	stimuli_target_circlediamonds.svg	stimuli_distractor_trianglediamonds.svg	2	yes	53	1	697
6.6.1	win	2022-12-19	19:03:22	19:11:41	496949	62f20c2e4032c85e3fe9c2cc	201689242	1	main_slash	11	advance_on_keypress_SLASH	70	stimuli_target_circlediamonds.svg	stimuli_distractor_trianglediamonds.svg	2	yes	57	0	58
6.6.1	win	2022-12-19	19:03:22	19:11:42	498386	62f20c2e4032c85e3fe9c2cc	201689242	1	main_slash	11	main_slash	71	stimuli_target_trianglesquares.svg	stimuli_distractor_trianglediamonds.svg	18	yes	53	1	759
6.6.1	win	2022-12-19	19:03:22	19:11:42	498386	62f20c2e4032c85e3fe9c2cc	201689242	1	main_slash	11	advance_on_keypress_SLASH	72	stimuli_target_trianglesquares.svg	stimuli_distractor_trianglediamonds.svg	18	yes	57	0	75
6.6.1	win	2022-12-19	19:03:22	19:11:43	499793	62f20c2e4032c85e3fe9c2cc	201689242	1	main_slash	11	main_slash	73	stimuli_distractor_diamondtriangles.svg	stimuli_target_diamondsquares.svg	32	yes	53	1	717
6.6.1	win	2022-12-19	19:03:22	19:11:43	499793	62f20c2e4032c85e3fe9c2cc	201689242	1	main_slash	11	advance_on_keypress_SLASH	74	stimuli_distractor_diamondtriangles.svg	stimuli_target_diamondsquares.svg	32	yes	57	0	89
6.6.1	win	2022-12-19	19:03:22	19:11:45	501193	62f20c2e4032c85e3fe9c2cc	201689242	1	main_slash	11	main_slash	75	stimuli_distractor_diamondtriangles.svg	stimuli_target_squarediamonds.svg	16	yes	53	1	695
6.6.1	win	2022-12-19	19:03:22	19:11:45	501193	62f20c2e4032c85e3fe9c2cc	201689242	1	main_slash	11	advance_on_keypress_SLASH	76	stimuli_distractor_diamondtriangles.svg	stimuli_target_squarediamonds.svg	16	yes	57	0	28
6.6.1	win	2022-12-19	19:03:22	19:11:46	502624	62f20c2e4032c85e3fe9c2cc	201689242	1	main_slash	11	main_slash	77	stimuli_target_circlediamonds.svg	stimuli_distractor_diamondtriangles.svg	6	yes	53	1	764
6.6.1	win	2022-12-19	19:03:22	19:11:46	502624	62f20c2e4032c85e3fe9c2cc	201689242	1	main_slash	11	advance_on_keypress_SLASH	78	stimuli_target_circlediamonds.svg	stimuli_distractor_diamondtriangles.svg	6	yes	57	0	48
6.6.1	win	2022-12-19	19:03:22	19:11:48	503990	62f20c2e4032c85e3fe9c2cc	201689242	1	main_slash	11	main_slash	79	stimuli_distractor_trianglediamonds.svg	stimuli_target_trianglesquares.svg	26	yes	53	1	709
6.6.1	win	2022-12-19	19:03:22	19:11:48	503990	62f20c2e4032c85e3fe9c2cc	201689242	1	main_slash	11	advance_on_keypress_SLASH	80	stimuli_distractor_trianglediamonds.svg	stimuli_target_trianglesquares.svg	26	yes	57	0	76
6.6.1	win	2022-12-19	19:03:22	19:11:49	505371	62f20c2e4032c85e3fe9c2cc	201689242	1	main_slash	11	main_slash	81	stimuli_distractor_diamondtriangles.svg	stimuli_target_diamondcircles.svg	31	yes	53	1	688
6.6.1	win	2022-12-19	19:03:22	19:11:49	505371	62f20c2e4032c85e3fe9c2cc	201689242	1	main_slash	11	advance_on_keypress_SLASH	82	stimuli_distractor_diamondtriangles.svg	stimuli_target_diamondcircles.svg	31	yes	57	0	83
6.6.1	win	2022-12-19	19:03:22	19:11:50	506807	62f20c2e4032c85e3fe9c2cc	201689242	1	main_slash	11	main_slash	83	stimuli_target_diamondsquares.svg	stimuli_distractor_diamondtriangles.svg	24	yes	53	1	733
6.6.1	win	2022-12-19	19:03:22	19:11:50	506807	62f20c2e4032c85e3fe9c2cc	201689242	1	main_slash	11	advance_on_keypress_SLASH	84	stimuli_target_diamondsquares.svg	stimuli_distractor_diamondtriangles.svg	24	yes	57	0	80
6.6.1	win	2022-12-19	19:03:22	19:11:53	509498	62f20c2e4032c85e3fe9c2cc	201689242	1	main_slash	11	main_slash	85	stimuli_distractor_diamondtriangles.svg	stimuli_distractor_trianglediamonds.svg	37	no	0	1	2000
6.6.1	win	2022-12-19	19:03:22	19:11:53	509498	62f20c2e4032c85e3fe9c2cc	201689242	1	main_slash	11	advance_on_keypress_SLASH	86	stimuli_distractor_diamondtriangles.svg	stimuli_distractor_trianglediamonds.svg	37	no	57	0	257
6.6.1	win	2022-12-19	19:03:22	19:11:55	511047	62f20c2e4032c85e3fe9c2cc	201689242	1	main_slash	11	main_slash	87	stimuli_target_trianglecircles.svg	stimuli_distractor_diamondtriangles.svg	21	yes	53	1	683
6.6.1	win	2022-12-19	19:03:22	19:11:55	511047	62f20c2e4032c85e3fe9c2cc	201689242	1	main_slash	11	advance_on_keypress_SLASH	88	stimuli_target_trianglecircles.svg	stimuli_distractor_diamondtriangles.svg	21	yes	57	0	66
6.6.1	win	2022-12-19	19:03:22	19:11:56	512437	62f20c2e4032c85e3fe9c2cc	201689242	1	main_slash	11	main_slash	89	stimuli_distractor_diamondtriangles.svg	stimuli_target_squaretriangles.svg	15	yes	53	1	714
6.6.1	win	2022-12-19	19:03:22	19:11:56	512437	62f20c2e4032c85e3fe9c2cc	201689242	1	main_slash	11	advance_on_keypress_SLASH	90	stimuli_distractor_diamondtriangles.svg	stimuli_target_squaretriangles.svg	15	yes	57	0	77
6.6.1	win	2022-12-19	19:03:22	19:11:57	513872	62f20c2e4032c85e3fe9c2cc	201689242	1	main_slash	11	main_slash	91	stimuli_distractor_diamondtriangles.svg	stimuli_target_diamondsquares.svg	32	yes	53	1	742
6.6.1	win	2022-12-19	19:03:22	19:11:57	513872	62f20c2e4032c85e3fe9c2cc	201689242	1	main_slash	11	advance_on_keypress_SLASH	92	stimuli_distractor_diamondtriangles.svg	stimuli_target_diamondsquares.svg	32	yes	57	0	49
6.6.1	win	2022-12-19	19:03:22	19:11:59	515249	62f20c2e4032c85e3fe9c2cc	201689242	1	main_slash	11	main_slash	93	stimuli_target_trianglecircles.svg	stimuli_distractor_trianglediamonds.svg	17	yes	53	1	718
6.6.1	win	2022-12-19	19:03:22	19:11:59	515249	62f20c2e4032c85e3fe9c2cc	201689242	1	main_slash	11	advance_on_keypress_SLASH	94	stimuli_target_trianglecircles.svg	stimuli_distractor_trianglediamonds.svg	17	yes	57	0	43
6.6.1	win	2022-12-19	19:03:22	19:12:00	516625	62f20c2e4032c85e3fe9c2cc	201689242	1	main_slash	11	main_slash	95	stimuli_distractor_trianglediamonds.svg	stimuli_target_diamondsquares.svg	28	yes	53	1	722
6.6.1	win	2022-12-19	19:03:22	19:12:00	516625	62f20c2e4032c85e3fe9c2cc	201689242	1	main_slash	11	advance_on_keypress_SLASH	96	stimuli_distractor_trianglediamonds.svg	stimuli_target_diamondsquares.svg	28	yes	57	0	75
6.6.1	win	2022-12-19	19:03:22	19:12:02	517992	62f20c2e4032c85e3fe9c2cc	201689242	1	main_slash	11	main_slash	97	stimuli_target_trianglesquares.svg	stimuli_distractor_trianglediamonds.svg	18	yes	53	1	676
6.6.1	win	2022-12-19	19:03:22	19:12:02	517992	62f20c2e4032c85e3fe9c2cc	201689242	1	main_slash	11	advance_on_keypress_SLASH	98	stimuli_target_trianglesquares.svg	stimuli_distractor_trianglediamonds.svg	18	yes	57	0	71
6.6.1	win	2022-12-19	19:03:22	19:12:03	519301	62f20c2e4032c85e3fe9c2cc	201689242	1	main_slash	11	main_slash	99	stimuli_distractor_diamondtriangles.svg	stimuli_target_trianglesquares.svg	30	yes	53	1	614
6.6.1	win	2022-12-19	19:03:22	19:12:03	519301	62f20c2e4032c85e3fe9c2cc	201689242	1	main_slash	11	advance_on_keypress_SLASH	100	stimuli_distractor_diamondtriangles.svg	stimuli_target_trianglesquares.svg	30	yes	57	0	58
6.6.1	win	2022-12-19	19:03:22	19:12:04	520606	62f20c2e4032c85e3fe9c2cc	201689242	1	main_slash	11	main_slash	101	stimuli_distractor_trianglediamonds.svg	stimuli_target_diamondcircles.svg	27	yes	53	1	632
6.6.1	win	2022-12-19	19:03:22	19:12:04	520606	62f20c2e4032c85e3fe9c2cc	201689242	1	main_slash	11	advance_on_keypress_SLASH	102	stimuli_distractor_trianglediamonds.svg	stimuli_target_diamondcircles.svg	27	yes	57	0	45
6.6.1	win	2022-12-19	19:03:22	19:12:06	521992	62f20c2e4032c85e3fe9c2cc	201689242	1	main_slash	11	main_slash	103	stimuli_target_squarediamonds.svg	stimuli_distractor_trianglediamonds.svg	4	yes	53	1	725
6.6.1	win	2022-12-19	19:03:22	19:12:06	521992	62f20c2e4032c85e3fe9c2cc	201689242	1	main_slash	11	advance_on_keypress_SLASH	104	stimuli_target_squarediamonds.svg	stimuli_distractor_trianglediamonds.svg	4	yes	57	0	50
6.6.1	win	2022-12-19	19:03:22	19:12:08	524655	62f20c2e4032c85e3fe9c2cc	201689242	1	main_slash	11	main_slash	105	stimuli_distractor_trianglediamonds.svg	stimuli_distractor_diamondtriangles.svg	36	no	0	1	2000
6.6.1	win	2022-12-19	19:03:22	19:12:08	524655	62f20c2e4032c85e3fe9c2cc	201689242	1	main_slash	11	advance_on_keypress_SLASH	106	stimuli_distractor_trianglediamonds.svg	stimuli_distractor_diamondtriangles.svg	36	no	57	0	298
6.6.1	win	2022-12-19	19:03:22	19:12:10	526253	62f20c2e4032c85e3fe9c2cc	201689242	1	main_slash	11	main_slash	107	stimuli_target_diamondcircles.svg	stimuli_distractor_diamondtriangles.svg	23	yes	53	1	690
6.6.1	win	2022-12-19	19:03:22	19:12:10	526253	62f20c2e4032c85e3fe9c2cc	201689242	1	main_slash	11	advance_on_keypress_SLASH	108	stimuli_target_diamondcircles.svg	stimuli_distractor_diamondtriangles.svg	23	yes	57	0	42
6.6.1	win	2022-12-19	19:03:22	19:12:11	527670	62f20c2e4032c85e3fe9c2cc	201689242	1	main_slash	11	main_slash	109	stimuli_target_trianglesquares.svg	stimuli_distractor_diamondtriangles.svg	22	yes	53	1	759
6.6.1	win	2022-12-19	19:03:22	19:12:11	527670	62f20c2e4032c85e3fe9c2cc	201689242	1	main_slash	11	advance_on_keypress_SLASH	110	stimuli_target_trianglesquares.svg	stimuli_distractor_diamondtriangles.svg	22	yes	57	0	61
6.6.1	win	2022-12-19	19:03:22	19:12:14	530343	62f20c2e4032c85e3fe9c2cc	201689242	1	main_slash	11	main_slash	111	stimuli_distractor_diamondtriangles.svg	stimuli_distractor_diamondtriangles.svg	39	no	0	1	2000
6.6.1	win	2022-12-19	19:03:22	19:12:14	530343	62f20c2e4032c85e3fe9c2cc	201689242	1	main_slash	11	advance_on_keypress_SLASH	112	stimuli_distractor_diamondtriangles.svg	stimuli_distractor_diamondtriangles.svg	39	no	57	0	294
6.6.1	win	2022-12-19	19:03:22	19:12:16	531931	62f20c2e4032c85e3fe9c2cc	201689242	1	main_slash	11	main_slash	113	stimuli_target_circlediamonds.svg	stimuli_distractor_diamondtriangles.svg	6	yes	53	1	685
6.6.1	win	2022-12-19	19:03:22	19:12:16	531931	62f20c2e4032c85e3fe9c2cc	201689242	1	main_slash	11	advance_on_keypress_SLASH	114	stimuli_target_circlediamonds.svg	stimuli_distractor_diamondtriangles.svg	6	yes	57	0	76
6.6.1	win	2022-12-19	19:03:22	19:12:17	533335	62f20c2e4032c85e3fe9c2cc	201689242	1	main_slash	11	main_slash	115	stimuli_distractor_trianglediamonds.svg	stimuli_target_trianglecircles.svg	25	yes	53	1	718
6.6.1	win	2022-12-19	19:03:22	19:12:17	533335	62f20c2e4032c85e3fe9c2cc	201689242	1	main_slash	11	advance_on_keypress_SLASH	116	stimuli_distractor_trianglediamonds.svg	stimuli_target_trianglecircles.svg	25	yes	57	0	44
6.6.1	win	2022-12-19	19:03:22	19:12:18	534681	62f20c2e4032c85e3fe9c2cc	201689242	1	main_slash	11	main_slash	117	stimuli_distractor_trianglediamonds.svg	stimuli_target_circlediamonds.svg	10	yes	53	1	692
6.6.1	win	2022-12-19	19:03:22	19:12:18	534681	62f20c2e4032c85e3fe9c2cc	201689242	1	main_slash	11	advance_on_keypress_SLASH	118	stimuli_distractor_trianglediamonds.svg	stimuli_target_circlediamonds.svg	10	yes	57	0	52
6.6.1	win	2022-12-19	19:03:22	19:12:20	536081	62f20c2e4032c85e3fe9c2cc	201689242	1	main_slash	11	main_slash	119	stimuli_target_squarediamonds.svg	stimuli_distractor_diamondtriangles.svg	8	yes	53	1	725
6.6.1	win	2022-12-19	19:03:22	19:12:20	536081	62f20c2e4032c85e3fe9c2cc	201689242	1	main_slash	11	advance_on_keypress_SLASH	120	stimuli_target_squarediamonds.svg	stimuli_distractor_diamondtriangles.svg	8	yes	57	0	24
6.6.1	win	2022-12-19	19:03:22	19:12:21	537498	62f20c2e4032c85e3fe9c2cc	201689242	1	main_slash	11	main_slash	121	stimuli_target_circletriangles.svg	stimuli_distractor_diamondtriangles.svg	5	yes	53	1	751
6.6.1	win	2022-12-19	19:03:22	19:12:21	537498	62f20c2e4032c85e3fe9c2cc	201689242	1	main_slash	11	advance_on_keypress_SLASH	122	stimuli_target_circletriangles.svg	stimuli_distractor_diamondtriangles.svg	5	yes	57	0	39
6.6.1	win	2022-12-19	19:03:22	19:12:23	538966	62f20c2e4032c85e3fe9c2cc	201689242	1	main_slash	11	main_slash	123	stimuli_target_squaretriangles.svg	stimuli_distractor_trianglediamonds.svg	3	yes	53	1	812
6.6.1	win	2022-12-19	19:03:22	19:12:23	538966	62f20c2e4032c85e3fe9c2cc	201689242	1	main_slash	11	advance_on_keypress_SLASH	124	stimuli_target_squaretriangles.svg	stimuli_distractor_trianglediamonds.svg	3	yes	57	0	44
6.6.1	win	2022-12-19	19:03:22	19:12:24	540315	62f20c2e4032c85e3fe9c2cc	201689242	1	main_slash	11	main_slash	125	stimuli_distractor_diamondtriangles.svg	stimuli_target_circletriangles.svg	13	yes	53	1	689
6.6.1	win	2022-12-19	19:03:22	19:12:24	540315	62f20c2e4032c85e3fe9c2cc	201689242	1	main_slash	11	advance_on_keypress_SLASH	126	stimuli_distractor_diamondtriangles.svg	stimuli_target_circletriangles.svg	13	yes	57	0	67
6.6.1	win	2022-12-19	19:03:22	19:12:27	542991	62f20c2e4032c85e3fe9c2cc	201689242	1	main_slash	11	main_slash	127	stimuli_distractor_diamondtriangles.svg	stimuli_distractor_diamondtriangles.svg	40	no	0	1	2000
6.6.1	win	2022-12-19	19:03:22	19:12:27	542991	62f20c2e4032c85e3fe9c2cc	201689242	1	main_slash	11	advance_on_keypress_SLASH	128	stimuli_distractor_diamondtriangles.svg	stimuli_distractor_diamondtriangles.svg	40	no	57	0	4501
6.6.1	win	2022-12-19	19:03:22	19:12:34	550105	62f20c2e4032c85e3fe9c2cc	201689242	1	main_slash	11	main_slash	129	stimuli_distractor_diamondtriangles.svg	stimuli_distractor_trianglediamonds.svg	38	no	0	1	2000
6.6.1	win	2022-12-19	19:03:22	19:12:34	550105	62f20c2e4032c85e3fe9c2cc	201689242	1	main_slash	11	advance_on_keypress_SLASH	130	stimuli_distractor_diamondtriangles.svg	stimuli_distractor_trianglediamonds.svg	38	no	57	0	552
6.6.1	win	2022-12-19	19:03:22	19:12:36	551949	62f20c2e4032c85e3fe9c2cc	201689242	1	main_slash	11	main_slash	131	stimuli_target_squaretriangles.svg	stimuli_distractor_diamondtriangles.svg	7	yes	53	1	682
6.6.1	win	2022-12-19	19:03:22	19:12:36	551949	62f20c2e4032c85e3fe9c2cc	201689242	1	main_slash	11	advance_on_keypress_SLASH	132	stimuli_target_squaretriangles.svg	stimuli_distractor_diamondtriangles.svg	7	yes	57	0	54
6.6.1	win	2022-12-19	19:03:22	19:12:37	553328	62f20c2e4032c85e3fe9c2cc	201689242	1	main_slash	11	main_slash	133	stimuli_distractor_diamondtriangles.svg	stimuli_target_circlediamonds.svg	14	yes	53	1	702
6.6.1	win	2022-12-19	19:03:22	19:12:37	553328	62f20c2e4032c85e3fe9c2cc	201689242	1	main_slash	11	advance_on_keypress_SLASH	134	stimuli_distractor_diamondtriangles.svg	stimuli_target_circlediamonds.svg	14	yes	57	0	29
6.6.1	win	2022-12-19	19:03:22	19:12:38	554721	62f20c2e4032c85e3fe9c2cc	201689242	1	main_slash	11	main_slash	135	stimuli_target_diamondcircles.svg	stimuli_distractor_trianglediamonds.svg	19	yes	53	1	754
6.6.1	win	2022-12-19	19:03:22	19:12:38	554721	62f20c2e4032c85e3fe9c2cc	201689242	1	main_slash	11	advance_on_keypress_SLASH	136	stimuli_target_diamondcircles.svg	stimuli_distractor_trianglediamonds.svg	19	yes	57	0	0
6.6.1	win	2022-12-19	19:03:22	19:12:40	556111	62f20c2e4032c85e3fe9c2cc	201689242	1	main_slash	11	main_slash	137	stimuli_target_circletriangles.svg	stimuli_distractor_trianglediamonds.svg	1	yes	53	1	743
6.6.1	win	2022-12-19	19:03:22	19:12:40	556111	62f20c2e4032c85e3fe9c2cc	201689242	1	main_slash	11	advance_on_keypress_SLASH	138	stimuli_target_circletriangles.svg	stimuli_distractor_trianglediamonds.svg	1	yes	57	0	52
6.6.1	win	2022-12-19	19:03:22	19:12:42	558785	62f20c2e4032c85e3fe9c2cc	201689242	1	main_slash	11	main_slash	139	stimuli_distractor_trianglediamonds.svg	stimuli_distractor_trianglediamonds.svg	33	no	0	1	2000
6.6.1	win	2022-12-19	19:03:22	19:12:42	558785	62f20c2e4032c85e3fe9c2cc	201689242	1	main_slash	11	advance_on_keypress_SLASH	140	stimuli_distractor_trianglediamonds.svg	stimuli_distractor_trianglediamonds.svg	33	no	57	0	7377
6.6.1	win	2022-12-19	19:03:22	19:12:51	567533	62f20c2e4032c85e3fe9c2cc	201689242	1	main_slash	11	main_slash	141	stimuli_distractor_trianglediamonds.svg	stimuli_target_squaretriangles.svg	11	yes	53	1	759
6.6.1	win	2022-12-19	19:03:22	19:12:51	567533	62f20c2e4032c85e3fe9c2cc	201689242	1	main_slash	11	advance_on_keypress_SLASH	142	stimuli_distractor_trianglediamonds.svg	stimuli_target_squaretriangles.svg	11	yes	57	0	46
6.6.1	win	2022-12-19	19:03:22	19:12:52	568899	62f20c2e4032c85e3fe9c2cc	201689242	1	main_slash	11	main_slash	143	stimuli_distractor_trianglediamonds.svg	stimuli_target_trianglesquares.svg	26	yes	53	1	703
6.6.1	win	2022-12-19	19:03:22	19:12:52	568899	62f20c2e4032c85e3fe9c2cc	201689242	1	main_slash	11	advance_on_keypress_SLASH	144	stimuli_distractor_trianglediamonds.svg	stimuli_target_trianglesquares.svg	26	yes	57	0	56
6.6.1	win	2022-12-19	19:03:22	19:12:54	570279	62f20c2e4032c85e3fe9c2cc	201689242	1	main_slash	11	main_slash	145	stimuli_target_diamondsquares.svg	stimuli_distractor_trianglediamonds.svg	20	yes	53	1	714
6.6.1	win	2022-12-19	19:03:22	19:12:54	570279	62f20c2e4032c85e3fe9c2cc	201689242	1	main_slash	11	advance_on_keypress_SLASH	146	stimuli_target_diamondsquares.svg	stimuli_distractor_trianglediamonds.svg	20	yes	57	0	23
6.6.1	win	2022-12-19	19:03:22	19:12:55	571733	62f20c2e4032c85e3fe9c2cc	201689242	1	main_slash	11	main_slash	147	stimuli_distractor_diamondtriangles.svg	stimuli_target_trianglecircles.svg	29	yes	53	1	812
6.6.1	win	2022-12-19	19:03:22	19:12:55	571733	62f20c2e4032c85e3fe9c2cc	201689242	1	main_slash	11	advance_on_keypress_SLASH	148	stimuli_distractor_diamondtriangles.svg	stimuli_target_trianglecircles.svg	29	yes	57	0	43
6.6.1	win	2022-12-19	19:03:22	19:12:57	573115	62f20c2e4032c85e3fe9c2cc	201689242	1	main_slash	11	main_slash	149	stimuli_distractor_diamondtriangles.svg	stimuli_target_squarediamonds.svg	16	yes	53	1	723
6.6.1	win	2022-12-19	19:03:22	19:12:57	573115	62f20c2e4032c85e3fe9c2cc	201689242	1	main_slash	11	advance_on_keypress_SLASH	150	stimuli_distractor_diamondtriangles.svg	stimuli_target_squarediamonds.svg	16	yes	57	0	33
6.6.1	win	2022-12-19	19:03:22	19:12:58	574528	62f20c2e4032c85e3fe9c2cc	201689242	1	main_slash	11	main_slash	151	stimuli_distractor_trianglediamonds.svg	stimuli_target_squarediamonds.svg	12	yes	53	1	762
6.6.1	win	2022-12-19	19:03:22	19:12:58	574528	62f20c2e4032c85e3fe9c2cc	201689242	1	main_slash	11	advance_on_keypress_SLASH	152	stimuli_distractor_trianglediamonds.svg	stimuli_target_squarediamonds.svg	12	yes	57	0	32
6.6.1	win	2022-12-19	19:03:22	19:13:01	577174	62f20c2e4032c85e3fe9c2cc	201689242	1	main_slash	11	main_slash	153	stimuli_distractor_trianglediamonds.svg	stimuli_distractor_diamondtriangles.svg	35	no	0	1	2000
6.6.1	win	2022-12-19	19:03:22	19:13:01	577174	62f20c2e4032c85e3fe9c2cc	201689242	1	main_slash	11	advance_on_keypress_SLASH	154	stimuli_distractor_trianglediamonds.svg	stimuli_distractor_diamondtriangles.svg	35	no	57	0	1138
6.6.1	win	2022-12-19	19:03:22	19:13:03	579661	62f20c2e4032c85e3fe9c2cc	201689242	1	main_slash	11	main_slash	155	stimuli_distractor_trianglediamonds.svg	stimuli_target_circletriangles.svg	9	yes	53	1	733
6.6.1	win	2022-12-19	19:03:22	19:13:03	579661	62f20c2e4032c85e3fe9c2cc	201689242	1	main_slash	11	advance_on_keypress_SLASH	156	stimuli_distractor_trianglediamonds.svg	stimuli_target_circletriangles.svg	9	yes	57	0	79
6.6.1	win	2022-12-19	19:03:22	19:13:06	582356	62f20c2e4032c85e3fe9c2cc	201689242	1	main_slash	11	main_slash	157	stimuli_distractor_trianglediamonds.svg	stimuli_distractor_trianglediamonds.svg	34	no	0	1	2000
6.6.1	win	2022-12-19	19:03:22	19:13:06	582356	62f20c2e4032c85e3fe9c2cc	201689242	1	main_slash	11	advance_on_keypress_SLASH	158	stimuli_distractor_trianglediamonds.svg	stimuli_distractor_trianglediamonds.svg	34	no	57	0	690
6.6.1	win	2022-12-19	19:03:22	19:13:08	584431	62f20c2e4032c85e3fe9c2cc	201689242	1	main_slash	11	main_slash	159	stimuli_target_circlediamonds.svg	stimuli_distractor_trianglediamonds.svg	2	yes	53	1	769
6.6.1	win	2022-12-19	19:03:22	19:13:08	584431	62f20c2e4032c85e3fe9c2cc	201689242	1	main_slash	11	advance_on_keypress_SLASH	160	stimuli_target_circlediamonds.svg	stimuli_distractor_trianglediamonds.svg	2	yes	57	0	76