build	computer.platform	date	time	timestamp	time_elapsed_ms	subject	group	session	blockcode	blocknum	trialcode	trialnum	stimulus_left	stimulus_right	stim_index	target_present	response	correct	latency
6.6.0	mac	2022-12-19	14:53:23	14:55:24	120102	61f2ad10a09e72f23cbaf7aa	501408842	1	practice_z	5	practice_z	1	stimuli_distractor_diamondtriangles.svg	stimuli_target_trianglecircles.svg	9	yes	44	1	463
6.6.0	mac	2022-12-19	14:53:23	14:55:24	120102	61f2ad10a09e72f23cbaf7aa	501408842	1	practice_z	5	advance_on_keypress_ZEE	2	stimuli_distractor_diamondtriangles.svg	stimuli_target_trianglecircles.svg	9	yes	57	0	910
6.6.0	mac	2022-12-19	14:53:23	14:55:27	123551	61f2ad10a09e72f23cbaf7aa	501408842	1	practice_z	5	practice_z	3	stimuli_distractor_trianglediamonds.svg	stimuli_target_squarediamonds.svg	11	yes	44	1	897
6.6.0	mac	2022-12-19	14:53:23	14:55:27	123551	61f2ad10a09e72f23cbaf7aa	501408842	1	practice_z	5	advance_on_keypress_ZEE	4	stimuli_distractor_trianglediamonds.svg	stimuli_target_squarediamonds.svg	11	yes	57	0	788
6.6.0	mac	2022-12-19	14:53:23	14:55:30	126823	61f2ad10a09e72f23cbaf7aa	501408842	1	practice_z	5	practice_z	5	stimuli_target_diamondsquares.svg	stimuli_distractor_trianglediamonds.svg	6	yes	44	1	836
6.6.0	mac	2022-12-19	14:53:23	14:55:30	126823	61f2ad10a09e72f23cbaf7aa	501408842	1	practice_z	5	advance_on_keypress_ZEE	6	stimuli_target_diamondsquares.svg	stimuli_distractor_trianglediamonds.svg	6	yes	57	0	318
6.6.0	mac	2022-12-19	14:53:23	14:55:33	129846	61f2ad10a09e72f23cbaf7aa	501408842	1	practice_z	5	practice_z	7	stimuli_target_circlediamonds.svg	stimuli_distractor_diamondtriangles.svg	1	yes	44	1	1058
6.6.0	mac	2022-12-19	14:53:23	14:55:33	129846	61f2ad10a09e72f23cbaf7aa	501408842	1	practice_z	5	advance_on_keypress_ZEE	8	stimuli_target_circlediamonds.svg	stimuli_distractor_diamondtriangles.svg	1	yes	57	0	392
6.6.0	mac	2022-12-19	14:53:23	14:55:37	133885	61f2ad10a09e72f23cbaf7aa	501408842	1	practice_z	5	practice_z	9	stimuli_distractor_diamondtriangles.svg	stimuli_distractor_trianglediamonds.svg	14	no	0	1	2000
6.6.0	mac	2022-12-19	14:53:23	14:55:37	133885	61f2ad10a09e72f23cbaf7aa	501408842	1	practice_z	5	advance_on_keypress_ZEE	10	stimuli_distractor_diamondtriangles.svg	stimuli_distractor_trianglediamonds.svg	14	no	57	0	415
6.6.0	mac	2022-12-19	14:53:23	14:55:41	137935	61f2ad10a09e72f23cbaf7aa	501408842	1	practice_z	5	practice_z	11	stimuli_distractor_trianglediamonds.svg	stimuli_distractor_trianglediamonds.svg	15	no	0	1	2000
6.6.0	mac	2022-12-19	14:53:23	14:55:41	137935	61f2ad10a09e72f23cbaf7aa	501408842	1	practice_z	5	advance_on_keypress_ZEE	12	stimuli_distractor_trianglediamonds.svg	stimuli_distractor_trianglediamonds.svg	15	no	57	0	245
6.6.0	mac	2022-12-19	14:53:23	14:55:44	140696	61f2ad10a09e72f23cbaf7aa	501408842	1	practice_z	5	practice_z	13	stimuli_distractor_trianglediamonds.svg	stimuli_target_diamondcircles.svg	12	yes	44	1	877
6.6.0	mac	2022-12-19	14:53:23	14:55:44	140696	61f2ad10a09e72f23cbaf7aa	501408842	1	practice_z	5	advance_on_keypress_ZEE	14	stimuli_distractor_trianglediamonds.svg	stimuli_target_diamondcircles.svg	12	yes	57	0	558
6.6.0	mac	2022-12-19	14:53:23	14:55:47	143734	61f2ad10a09e72f23cbaf7aa	501408842	1	practice_z	5	practice_z	15	stimuli_distractor_trianglediamonds.svg	stimuli_target_circlediamonds.svg	10	yes	44	1	832
6.6.0	mac	2022-12-19	14:53:23	14:55:47	143734	61f2ad10a09e72f23cbaf7aa	501408842	1	practice_z	5	advance_on_keypress_ZEE	16	stimuli_distractor_trianglediamonds.svg	stimuli_target_circlediamonds.svg	10	yes	57	0	253
6.6.0	mac	2022-12-19	14:53:23	14:55:50	146399	61f2ad10a09e72f23cbaf7aa	501408842	1	practice_z	5	practice_z	17	stimuli_distractor_diamondtriangles.svg	stimuli_target_circletriangles.svg	7	yes	44	1	762
6.6.0	mac	2022-12-19	14:53:23	14:55:50	146399	61f2ad10a09e72f23cbaf7aa	501408842	1	practice_z	5	advance_on_keypress_ZEE	18	stimuli_distractor_diamondtriangles.svg	stimuli_target_circletriangles.svg	7	yes	57	0	491
6.6.0	mac	2022-12-19	14:53:23	14:55:53	149326	61f2ad10a09e72f23cbaf7aa	501408842	1	practice_z	5	practice_z	19	stimuli_target_circlediamonds.svg	stimuli_distractor_trianglediamonds.svg	4	yes	44	1	790
6.6.0	mac	2022-12-19	14:53:23	14:55:53	149326	61f2ad10a09e72f23cbaf7aa	501408842	1	practice_z	5	advance_on_keypress_ZEE	20	stimuli_target_circlediamonds.svg	stimuli_distractor_trianglediamonds.svg	4	yes	57	0	428
6.6.0	mac	2022-12-19	14:53:23	14:55:57	153388	61f2ad10a09e72f23cbaf7aa	501408842	1	practice_z	5	practice_z	21	stimuli_distractor_diamondtriangles.svg	stimuli_distractor_diamondtriangles.svg	13	no	0	1	2000
6.6.0	mac	2022-12-19	14:53:23	14:55:57	153388	61f2ad10a09e72f23cbaf7aa	501408842	1	practice_z	5	advance_on_keypress_ZEE	22	stimuli_distractor_diamondtriangles.svg	stimuli_distractor_diamondtriangles.svg	13	no	57	0	465
6.6.0	mac	2022-12-19	14:53:23	14:56:00	156236	61f2ad10a09e72f23cbaf7aa	501408842	1	practice_z	5	practice_z	23	stimuli_target_squarediamonds.svg	stimuli_distractor_diamondtriangles.svg	2	yes	44	1	750
6.6.0	mac	2022-12-19	14:53:23	14:56:00	156236	61f2ad10a09e72f23cbaf7aa	501408842	1	practice_z	5	advance_on_keypress_ZEE	24	stimuli_target_squarediamonds.svg	stimuli_distractor_diamondtriangles.svg	2	yes	57	0	722
6.6.0	mac	2022-12-19	14:53:23	14:56:03	159446	61f2ad10a09e72f23cbaf7aa	501408842	1	practice_z	5	practice_z	25	stimuli_distractor_diamondtriangles.svg	stimuli_target_diamondcircles.svg	8	yes	44	1	844
6.6.0	mac	2022-12-19	14:53:23	14:56:03	159446	61f2ad10a09e72f23cbaf7aa	501408842	1	practice_z	5	advance_on_keypress_ZEE	26	stimuli_distractor_diamondtriangles.svg	stimuli_target_diamondcircles.svg	8	yes	57	0	472
6.6.0	mac	2022-12-19	14:53:23	14:56:06	162632	61f2ad10a09e72f23cbaf7aa	501408842	1	practice_z	5	practice_z	27	stimuli_distractor_trianglediamonds.svg	stimuli_distractor_diamondtriangles.svg	16	no	44	0	1060
6.6.0	mac	2022-12-19	14:53:23	14:56:06	162632	61f2ad10a09e72f23cbaf7aa	501408842	1	practice_z	5	advance_on_keypress_ZEE	28	stimuli_distractor_trianglediamonds.svg	stimuli_distractor_diamondtriangles.svg	16	no	57	0	355
6.6.0	mac	2022-12-19	14:53:23	14:56:09	165373	61f2ad10a09e72f23cbaf7aa	501408842	1	practice_z	5	practice_z	29	stimuli_target_diamondsquares.svg	stimuli_distractor_diamondtriangles.svg	3	yes	44	1	753
6.6.0	mac	2022-12-19	14:53:23	14:56:09	165373	61f2ad10a09e72f23cbaf7aa	501408842	1	practice_z	5	advance_on_keypress_ZEE	30	stimuli_target_diamondsquares.svg	stimuli_distractor_diamondtriangles.svg	3	yes	57	0	442
6.6.0	mac	2022-12-19	14:53:23	14:56:12	168198	61f2ad10a09e72f23cbaf7aa	501408842	1	practice_z	5	practice_z	31	stimuli_target_squarediamonds.svg	stimuli_distractor_trianglediamonds.svg	5	yes	44	1	745
6.6.0	mac	2022-12-19	14:53:23	14:56:12	168198	61f2ad10a09e72f23cbaf7aa	501408842	1	practice_z	5	advance_on_keypress_ZEE	32	stimuli_target_squarediamonds.svg	stimuli_distractor_trianglediamonds.svg	5	yes	57	0	481
6.6.0	mac	2022-12-19	14:53:23	14:56:15	171812	61f2ad10a09e72f23cbaf7aa	501408842	1	main_z	7	main_z	1	stimuli_target_circlediamonds.svg	stimuli_distractor_trianglediamonds.svg	2	yes	44	1	527
6.6.0	mac	2022-12-19	14:53:23	14:56:15	171812	61f2ad10a09e72f23cbaf7aa	501408842	1	main_z	7	advance_on_keypress_ZEE	2	stimuli_target_circlediamonds.svg	stimuli_distractor_trianglediamonds.svg	2	yes	57	0	682
6.6.0	mac	2022-12-19	14:53:23	14:56:17	173887	61f2ad10a09e72f23cbaf7aa	501408842	1	main_z	7	main_z	3	stimuli_distractor_diamondtriangles.svg	stimuli_target_diamondsquares.svg	32	yes	44	1	751
6.6.0	mac	2022-12-19	14:53:23	14:56:17	173887	61f2ad10a09e72f23cbaf7aa	501408842	1	main_z	7	advance_on_keypress_ZEE	4	stimuli_distractor_diamondtriangles.svg	stimuli_target_diamondsquares.svg	32	yes	57	0	648
6.6.0	mac	2022-12-19	14:53:23	14:56:19	175838	61f2ad10a09e72f23cbaf7aa	501408842	1	main_z	7	main_z	5	stimuli_target_trianglecircles.svg	stimuli_distractor_trianglediamonds.svg	17	yes	44	1	669
6.6.0	mac	2022-12-19	14:53:23	14:56:19	175838	61f2ad10a09e72f23cbaf7aa	501408842	1	main_z	7	advance_on_keypress_ZEE	6	stimuli_target_trianglecircles.svg	stimuli_distractor_trianglediamonds.svg	17	yes	57	0	474
6.6.0	mac	2022-12-19	14:53:23	14:56:21	177533	61f2ad10a09e72f23cbaf7aa	501408842	1	main_z	7	main_z	7	stimuli_target_squarediamonds.svg	stimuli_distractor_trianglediamonds.svg	4	yes	44	1	579
6.6.0	mac	2022-12-19	14:53:23	14:56:21	177533	61f2ad10a09e72f23cbaf7aa	501408842	1	main_z	7	advance_on_keypress_ZEE	8	stimuli_target_squarediamonds.svg	stimuli_distractor_trianglediamonds.svg	4	yes	57	0	302
6.6.0	mac	2022-12-19	14:53:23	14:56:24	180468	61f2ad10a09e72f23cbaf7aa	501408842	1	main_z	7	main_z	9	stimuli_distractor_trianglediamonds.svg	stimuli_distractor_diamondtriangles.svg	35	no	0	1	2000
6.6.0	mac	2022-12-19	14:53:23	14:56:24	180468	61f2ad10a09e72f23cbaf7aa	501408842	1	main_z	7	advance_on_keypress_ZEE	10	stimuli_distractor_trianglediamonds.svg	stimuli_distractor_diamondtriangles.svg	35	no	57	0	265
6.6.0	mac	2022-12-19	14:53:23	14:56:27	183367	61f2ad10a09e72f23cbaf7aa	501408842	1	main_z	7	main_z	11	stimuli_distractor_diamondtriangles.svg	stimuli_distractor_diamondtriangles.svg	40	no	0	1	2000
6.6.0	mac	2022-12-19	14:53:23	14:56:27	183367	61f2ad10a09e72f23cbaf7aa	501408842	1	main_z	7	advance_on_keypress_ZEE	12	stimuli_distractor_diamondtriangles.svg	stimuli_distractor_diamondtriangles.svg	40	no	57	0	397
6.6.0	mac	2022-12-19	14:53:23	14:56:30	186400	61f2ad10a09e72f23cbaf7aa	501408842	1	main_z	7	main_z	13	stimuli_distractor_diamondtriangles.svg	stimuli_distractor_diamondtriangles.svg	39	no	0	1	2000
6.6.0	mac	2022-12-19	14:53:23	14:56:30	186400	61f2ad10a09e72f23cbaf7aa	501408842	1	main_z	7	advance_on_keypress_ZEE	14	stimuli_distractor_diamondtriangles.svg	stimuli_distractor_diamondtriangles.svg	39	no	57	0	245
6.6.0	mac	2022-12-19	14:53:23	14:56:31	188025	61f2ad10a09e72f23cbaf7aa	501408842	1	main_z	7	main_z	15	stimuli_target_squaretriangles.svg	stimuli_distractor_diamondtriangles.svg	7	yes	44	1	740
6.6.0	mac	2022-12-19	14:53:23	14:56:31	188025	61f2ad10a09e72f23cbaf7aa	501408842	1	main_z	7	advance_on_keypress_ZEE	16	stimuli_target_squaretriangles.svg	stimuli_distractor_diamondtriangles.svg	7	yes	57	0	632
6.6.0	mac	2022-12-19	14:53:23	14:56:34	190126	61f2ad10a09e72f23cbaf7aa	501408842	1	main_z	7	main_z	17	stimuli_target_trianglesquares.svg	stimuli_distractor_trianglediamonds.svg	18	yes	44	1	841
6.6.0	mac	2022-12-19	14:53:23	14:56:34	190126	61f2ad10a09e72f23cbaf7aa	501408842	1	main_z	7	advance_on_keypress_ZEE	18	stimuli_target_trianglesquares.svg	stimuli_distractor_trianglediamonds.svg	18	yes	57	0	478
6.6.0	mac	2022-12-19	14:53:23	14:56:35	191996	61f2ad10a09e72f23cbaf7aa	501408842	1	main_z	7	main_z	19	stimuli_distractor_trianglediamonds.svg	stimuli_target_circlediamonds.svg	10	yes	44	1	745
6.6.0	mac	2022-12-19	14:53:23	14:56:35	191996	61f2ad10a09e72f23cbaf7aa	501408842	1	main_z	7	advance_on_keypress_ZEE	20	stimuli_distractor_trianglediamonds.svg	stimuli_target_circlediamonds.svg	10	yes	57	0	410
6.6.0	mac	2022-12-19	14:53:23	14:56:37	193950	61f2ad10a09e72f23cbaf7aa	501408842	1	main_z	7	main_z	21	stimuli_target_circlediamonds.svg	stimuli_distractor_diamondtriangles.svg	6	yes	44	1	898
6.6.0	mac	2022-12-19	14:53:23	14:56:37	193950	61f2ad10a09e72f23cbaf7aa	501408842	1	main_z	7	advance_on_keypress_ZEE	22	stimuli_target_circlediamonds.svg	stimuli_distractor_diamondtriangles.svg	6	yes	57	0	397
6.6.0	mac	2022-12-19	14:53:23	14:56:39	195613	61f2ad10a09e72f23cbaf7aa	501408842	1	main_z	7	main_z	23	stimuli_distractor_diamondtriangles.svg	stimuli_target_squarediamonds.svg	16	yes	44	1	627
6.6.0	mac	2022-12-19	14:53:23	14:56:39	195613	61f2ad10a09e72f23cbaf7aa	501408842	1	main_z	7	advance_on_keypress_ZEE	24	stimuli_distractor_diamondtriangles.svg	stimuli_target_squarediamonds.svg	16	yes	57	0	307
6.6.0	mac	2022-12-19	14:53:23	14:56:41	197205	61f2ad10a09e72f23cbaf7aa	501408842	1	main_z	7	main_z	25	stimuli_distractor_trianglediamonds.svg	stimuli_target_squaretriangles.svg	11	yes	44	1	654
6.6.0	mac	2022-12-19	14:53:23	14:56:41	197205	61f2ad10a09e72f23cbaf7aa	501408842	1	main_z	7	advance_on_keypress_ZEE	26	stimuli_distractor_trianglediamonds.svg	stimuli_target_squaretriangles.svg	11	yes	57	0	308
6.6.0	mac	2022-12-19	14:53:23	14:56:42	198790	61f2ad10a09e72f23cbaf7aa	501408842	1	main_z	7	main_z	27	stimuli_distractor_trianglediamonds.svg	stimuli_target_squarediamonds.svg	12	yes	44	1	655
6.6.0	mac	2022-12-19	14:53:23	14:56:42	198790	61f2ad10a09e72f23cbaf7aa	501408842	1	main_z	7	advance_on_keypress_ZEE	28	stimuli_distractor_trianglediamonds.svg	stimuli_target_squarediamonds.svg	12	yes	57	0	252
6.6.0	mac	2022-12-19	14:53:23	14:56:44	200345	61f2ad10a09e72f23cbaf7aa	501408842	1	main_z	7	main_z	29	stimuli_distractor_diamondtriangles.svg	stimuli_target_circletriangles.svg	13	yes	44	1	673
6.6.0	mac	2022-12-19	14:53:23	14:56:44	200345	61f2ad10a09e72f23cbaf7aa	501408842	1	main_z	7	advance_on_keypress_ZEE	30	stimuli_distractor_diamondtriangles.svg	stimuli_target_circletriangles.svg	13	yes	57	0	196
6.6.0	mac	2022-12-19	14:53:23	14:56:47	203185	61f2ad10a09e72f23cbaf7aa	501408842	1	main_z	7	main_z	31	stimuli_distractor_diamondtriangles.svg	stimuli_distractor_trianglediamonds.svg	37	no	0	1	2000
6.6.0	mac	2022-12-19	14:53:23	14:56:47	203185	61f2ad10a09e72f23cbaf7aa	501408842	1	main_z	7	advance_on_keypress_ZEE	32	stimuli_distractor_diamondtriangles.svg	stimuli_distractor_trianglediamonds.svg	37	no	57	0	260
6.6.0	mac	2022-12-19	14:53:23	14:56:48	204706	61f2ad10a09e72f23cbaf7aa	501408842	1	main_z	7	main_z	33	stimuli_distractor_diamondtriangles.svg	stimuli_target_trianglesquares.svg	30	yes	44	1	617
6.6.0	mac	2022-12-19	14:53:23	14:56:48	204706	61f2ad10a09e72f23cbaf7aa	501408842	1	main_z	7	advance_on_keypress_ZEE	34	stimuli_distractor_diamondtriangles.svg	stimuli_target_trianglesquares.svg	30	yes	57	0	286
6.6.0	mac	2022-12-19	14:53:23	14:56:51	207617	61f2ad10a09e72f23cbaf7aa	501408842	1	main_z	7	main_z	35	stimuli_distractor_trianglediamonds.svg	stimuli_distractor_trianglediamonds.svg	34	no	0	1	2000
6.6.0	mac	2022-12-19	14:53:23	14:56:51	207617	61f2ad10a09e72f23cbaf7aa	501408842	1	main_z	7	advance_on_keypress_ZEE	36	stimuli_distractor_trianglediamonds.svg	stimuli_distractor_trianglediamonds.svg	34	no	57	0	267
6.6.0	mac	2022-12-19	14:53:23	14:56:53	209158	61f2ad10a09e72f23cbaf7aa	501408842	1	main_z	7	main_z	37	stimuli_target_diamondsquares.svg	stimuli_distractor_trianglediamonds.svg	20	yes	44	1	639
6.6.0	mac	2022-12-19	14:53:23	14:56:53	209158	61f2ad10a09e72f23cbaf7aa	501408842	1	main_z	7	advance_on_keypress_ZEE	38	stimuli_target_diamondsquares.svg	stimuli_distractor_trianglediamonds.svg	20	yes	57	0	284
6.6.0	mac	2022-12-19	14:53:23	14:56:56	212084	61f2ad10a09e72f23cbaf7aa	501408842	1	main_z	7	main_z	39	stimuli_distractor_diamondtriangles.svg	stimuli_distractor_trianglediamonds.svg	38	no	0	1	2000
6.6.0	mac	2022-12-19	14:53:23	14:56:56	212084	61f2ad10a09e72f23cbaf7aa	501408842	1	main_z	7	advance_on_keypress_ZEE	40	stimuli_distractor_diamondtriangles.svg	stimuli_distractor_trianglediamonds.svg	38	no	57	0	408
6.6.0	mac	2022-12-19	14:53:23	14:56:57	213822	61f2ad10a09e72f23cbaf7aa	501408842	1	main_z	7	main_z	41	stimuli_distractor_trianglediamonds.svg	stimuli_target_trianglecircles.svg	25	yes	44	1	687
6.6.0	mac	2022-12-19	14:53:23	14:56:57	213822	61f2ad10a09e72f23cbaf7aa	501408842	1	main_z	7	advance_on_keypress_ZEE	42	stimuli_distractor_trianglediamonds.svg	stimuli_target_trianglecircles.svg	25	yes	57	0	186
6.6.0	mac	2022-12-19	14:53:23	14:56:59	215310	61f2ad10a09e72f23cbaf7aa	501408842	1	main_z	7	main_z	43	stimuli_distractor_trianglediamonds.svg	stimuli_target_circletriangles.svg	9	yes	44	1	675
6.6.0	mac	2022-12-19	14:53:23	14:56:59	215310	61f2ad10a09e72f23cbaf7aa	501408842	1	main_z	7	advance_on_keypress_ZEE	44	stimuli_distractor_trianglediamonds.svg	stimuli_target_circletriangles.svg	9	yes	57	0	150
6.6.0	mac	2022-12-19	14:53:23	14:57:00	216733	61f2ad10a09e72f23cbaf7aa	501408842	1	main_z	7	main_z	45	stimuli_target_diamondcircles.svg	stimuli_distractor_diamondtriangles.svg	23	yes	44	1	631
6.6.0	mac	2022-12-19	14:53:23	14:57:00	216733	61f2ad10a09e72f23cbaf7aa	501408842	1	main_z	7	advance_on_keypress_ZEE	46	stimuli_target_diamondcircles.svg	stimuli_distractor_diamondtriangles.svg	23	yes	57	0	149
6.6.0	mac	2022-12-19	14:53:23	14:57:02	218166	61f2ad10a09e72f23cbaf7aa	501408842	1	main_z	7	main_z	47	stimuli_target_trianglesquares.svg	stimuli_distractor_diamondtriangles.svg	22	yes	44	1	647
6.6.0	mac	2022-12-19	14:53:23	14:57:02	218166	61f2ad10a09e72f23cbaf7aa	501408842	1	main_z	7	advance_on_keypress_ZEE	48	stimuli_target_trianglesquares.svg	stimuli_distractor_diamondtriangles.svg	22	yes	57	0	140
6.6.0	mac	2022-12-19	14:53:23	14:57:04	220934	61f2ad10a09e72f23cbaf7aa	501408842	1	main_z	7	main_z	49	stimuli_distractor_trianglediamonds.svg	stimuli_distractor_trianglediamonds.svg	33	no	0	1	2000
6.6.0	mac	2022-12-19	14:53:23	14:57:04	220934	61f2ad10a09e72f23cbaf7aa	501408842	1	main_z	7	advance_on_keypress_ZEE	50	stimuli_distractor_trianglediamonds.svg	stimuli_distractor_trianglediamonds.svg	33	no	57	0	637
6.6.0	mac	2022-12-19	14:53:23	14:57:06	222838	61f2ad10a09e72f23cbaf7aa	501408842	1	main_z	7	main_z	51	stimuli_distractor_diamondtriangles.svg	stimuli_target_diamondcircles.svg	31	yes	44	1	633
6.6.0	mac	2022-12-19	14:53:23	14:57:06	222838	61f2ad10a09e72f23cbaf7aa	501408842	1	main_z	7	advance_on_keypress_ZEE	52	stimuli_distractor_diamondtriangles.svg	stimuli_target_diamondcircles.svg	31	yes	57	0	114
6.6.0	mac	2022-12-19	14:53:23	14:57:08	224166	61f2ad10a09e72f23cbaf7aa	501408842	1	main_z	7	main_z	53	stimuli_distractor_trianglediamonds.svg	stimuli_target_diamondcircles.svg	27	yes	44	1	581
6.6.0	mac	2022-12-19	14:53:23	14:57:08	224166	61f2ad10a09e72f23cbaf7aa	501408842	1	main_z	7	advance_on_keypress_ZEE	54	stimuli_distractor_trianglediamonds.svg	stimuli_target_diamondcircles.svg	27	yes	57	0	101
6.6.0	mac	2022-12-19	14:53:23	14:57:09	225541	61f2ad10a09e72f23cbaf7aa	501408842	1	main_z	7	main_z	55	stimuli_target_diamondcircles.svg	stimuli_distractor_trianglediamonds.svg	19	yes	44	1	639
6.6.0	mac	2022-12-19	14:53:23	14:57:09	225541	61f2ad10a09e72f23cbaf7aa	501408842	1	main_z	7	advance_on_keypress_ZEE	56	stimuli_target_diamondcircles.svg	stimuli_distractor_trianglediamonds.svg	19	yes	57	0	69
6.6.0	mac	2022-12-19	14:53:23	14:57:10	226912	61f2ad10a09e72f23cbaf7aa	501408842	1	main_z	7	main_z	57	stimuli_distractor_diamondtriangles.svg	stimuli_target_circlediamonds.svg	14	yes	44	1	678
6.6.0	mac	2022-12-19	14:53:23	14:57:10	226912	61f2ad10a09e72f23cbaf7aa	501408842	1	main_z	7	advance_on_keypress_ZEE	58	stimuli_distractor_diamondtriangles.svg	stimuli_target_circlediamonds.svg	14	yes	57	0	45
6.6.0	mac	2022-12-19	14:53:23	14:57:12	228257	61f2ad10a09e72f23cbaf7aa	501408842	1	main_z	7	main_z	59	stimuli_target_squaretriangles.svg	stimuli_distractor_trianglediamonds.svg	3	yes	44	1	649
6.6.0	mac	2022-12-19	14:53:23	14:57:12	228257	61f2ad10a09e72f23cbaf7aa	501408842	1	main_z	7	advance_on_keypress_ZEE	60	stimuli_target_squaretriangles.svg	stimuli_distractor_trianglediamonds.svg	3	yes	57	0	77
6.6.0	mac	2022-12-19	14:53:23	14:57:13	229657	61f2ad10a09e72f23cbaf7aa	501408842	1	main_z	7	main_z	61	stimuli_distractor_trianglediamonds.svg	stimuli_target_diamondsquares.svg	28	yes	44	1	685
6.6.0	mac	2022-12-19	14:53:23	14:57:13	229657	61f2ad10a09e72f23cbaf7aa	501408842	1	main_z	7	advance_on_keypress_ZEE	62	stimuli_distractor_trianglediamonds.svg	stimuli_target_diamondsquares.svg	28	yes	57	0	100
6.6.0	mac	2022-12-19	14:53:23	14:57:15	231460	61f2ad10a09e72f23cbaf7aa	501408842	1	main_z	7	main_z	63	stimuli_target_squarediamonds.svg	stimuli_distractor_diamondtriangles.svg	8	yes	44	1	1076
6.6.0	mac	2022-12-19	14:53:23	14:57:15	231460	61f2ad10a09e72f23cbaf7aa	501408842	1	main_z	7	advance_on_keypress_ZEE	64	stimuli_target_squarediamonds.svg	stimuli_distractor_diamondtriangles.svg	8	yes	57	0	94
6.6.0	mac	2022-12-19	14:53:23	14:57:16	232886	61f2ad10a09e72f23cbaf7aa	501408842	1	main_z	7	main_z	65	stimuli_target_diamondsquares.svg	stimuli_distractor_diamondtriangles.svg	24	yes	44	1	684
6.6.0	mac	2022-12-19	14:53:23	14:57:16	232886	61f2ad10a09e72f23cbaf7aa	501408842	1	main_z	7	advance_on_keypress_ZEE	66	stimuli_target_diamondsquares.svg	stimuli_distractor_diamondtriangles.svg	24	yes	57	0	55
6.6.0	mac	2022-12-19	14:53:23	14:57:18	234342	61f2ad10a09e72f23cbaf7aa	501408842	1	main_z	7	main_z	67	stimuli_target_circletriangles.svg	stimuli_distractor_trianglediamonds.svg	1	yes	44	1	773
6.6.0	mac	2022-12-19	14:53:23	14:57:18	234342	61f2ad10a09e72f23cbaf7aa	501408842	1	main_z	7	advance_on_keypress_ZEE	68	stimuli_target_circletriangles.svg	stimuli_distractor_trianglediamonds.svg	1	yes	57	0	84
6.6.0	mac	2022-12-19	14:53:23	14:57:19	235792	61f2ad10a09e72f23cbaf7aa	501408842	1	main_z	7	main_z	69	stimuli_distractor_trianglediamonds.svg	stimuli_target_trianglesquares.svg	26	yes	44	1	721
6.6.0	mac	2022-12-19	14:53:23	14:57:19	235792	61f2ad10a09e72f23cbaf7aa	501408842	1	main_z	7	advance_on_keypress_ZEE	70	stimuli_distractor_trianglediamonds.svg	stimuli_target_trianglesquares.svg	26	yes	57	0	78
6.6.0	mac	2022-12-19	14:53:23	14:57:22	238500	61f2ad10a09e72f23cbaf7aa	501408842	1	main_z	7	main_z	71	stimuli_distractor_trianglediamonds.svg	stimuli_distractor_diamondtriangles.svg	36	no	0	1	2000
6.6.0	mac	2022-12-19	14:53:23	14:57:22	238500	61f2ad10a09e72f23cbaf7aa	501408842	1	main_z	7	advance_on_keypress_ZEE	72	stimuli_distractor_trianglediamonds.svg	stimuli_distractor_diamondtriangles.svg	36	no	57	0	447
6.6.0	mac	2022-12-19	14:53:23	14:57:24	240342	61f2ad10a09e72f23cbaf7aa	501408842	1	main_z	7	main_z	73	stimuli_distractor_diamondtriangles.svg	stimuli_target_squaretriangles.svg	15	yes	44	1	757
6.6.0	mac	2022-12-19	14:53:23	14:57:24	240342	61f2ad10a09e72f23cbaf7aa	501408842	1	main_z	7	advance_on_keypress_ZEE	74	stimuli_distractor_diamondtriangles.svg	stimuli_target_squaretriangles.svg	15	yes	57	0	28
6.6.0	mac	2022-12-19	14:53:23	14:57:25	241677	61f2ad10a09e72f23cbaf7aa	501408842	1	main_z	7	main_z	75	stimuli_target_circletriangles.svg	stimuli_distractor_diamondtriangles.svg	5	yes	44	1	658
6.6.0	mac	2022-12-19	14:53:23	14:57:25	241677	61f2ad10a09e72f23cbaf7aa	501408842	1	main_z	7	advance_on_keypress_ZEE	76	stimuli_target_circletriangles.svg	stimuli_distractor_diamondtriangles.svg	5	yes	57	0	32
6.6.0	mac	2022-12-19	14:53:23	14:57:26	242953	61f2ad10a09e72f23cbaf7aa	501408842	1	main_z	7	main_z	77	stimuli_distractor_diamondtriangles.svg	stimuli_target_trianglecircles.svg	29	yes	44	1	598
6.6.0	mac	2022-12-19	14:53:23	14:57:26	242953	61f2ad10a09e72f23cbaf7aa	501408842	1	main_z	7	advance_on_keypress_ZEE	78	stimuli_distractor_diamondtriangles.svg	stimuli_target_trianglecircles.svg	29	yes	57	0	39
6.6.0	mac	2022-12-19	14:53:23	14:57:28	244210	61f2ad10a09e72f23cbaf7aa	501408842	1	main_z	7	main_z	79	stimuli_target_trianglecircles.svg	stimuli_distractor_diamondtriangles.svg	21	yes	44	1	591
6.6.0	mac	2022-12-19	14:53:23	14:57:28	244210	61f2ad10a09e72f23cbaf7aa	501408842	1	main_z	7	advance_on_keypress_ZEE	80	stimuli_target_trianglecircles.svg	stimuli_distractor_diamondtriangles.svg	21	yes	57	0	17
6.6.0	mac	2022-12-19	14:53:23	14:57:29	245446	61f2ad10a09e72f23cbaf7aa	501408842	1	main_z	7	main_z	81	stimuli_target_diamondcircles.svg	stimuli_distractor_diamondtriangles.svg	23	yes	44	1	577
6.6.0	mac	2022-12-19	14:53:23	14:57:29	245446	61f2ad10a09e72f23cbaf7aa	501408842	1	main_z	7	advance_on_keypress_ZEE	82	stimuli_target_diamondcircles.svg	stimuli_distractor_diamondtriangles.svg	23	yes	57	0	33
6.6.0	mac	2022-12-19	14:53:23	14:57:30	246718	61f2ad10a09e72f23cbaf7aa	501408842	1	main_z	7	main_z	83	stimuli_target_circlediamonds.svg	stimuli_distractor_trianglediamonds.svg	2	yes	44	1	600
6.6.0	mac	2022-12-19	14:53:23	14:57:30	246718	61f2ad10a09e72f23cbaf7aa	501408842	1	main_z	7	advance_on_keypress_ZEE	84	stimuli_target_circlediamonds.svg	stimuli_distractor_trianglediamonds.svg	2	yes	57	0	7
6.6.0	mac	2022-12-19	14:53:23	14:57:31	247942	61f2ad10a09e72f23cbaf7aa	501408842	1	main_z	7	main_z	85	stimuli_distractor_trianglediamonds.svg	stimuli_target_circletriangles.svg	9	yes	44	1	590
6.6.0	mac	2022-12-19	14:53:23	14:57:31	247942	61f2ad10a09e72f23cbaf7aa	501408842	1	main_z	7	advance_on_keypress_ZEE	86	stimuli_distractor_trianglediamonds.svg	stimuli_target_circletriangles.svg	9	yes	57	0	5
6.6.0	mac	2022-12-19	14:53:23	14:57:33	249272	61f2ad10a09e72f23cbaf7aa	501408842	1	main_z	7	main_z	87	stimuli_distractor_diamondtriangles.svg	stimuli_target_squarediamonds.svg	16	yes	44	1	668
6.6.0	mac	2022-12-19	14:53:23	14:57:33	249272	61f2ad10a09e72f23cbaf7aa	501408842	1	main_z	7	advance_on_keypress_ZEE	88	stimuli_distractor_diamondtriangles.svg	stimuli_target_squarediamonds.svg	16	yes	57	0	0
6.6.0	mac	2022-12-19	14:53:23	14:57:34	250488	61f2ad10a09e72f23cbaf7aa	501408842	1	main_z	7	main_z	89	stimuli_distractor_diamondtriangles.svg	stimuli_target_circlediamonds.svg	14	yes	44	1	567
6.6.0	mac	2022-12-19	14:53:23	14:57:34	250488	61f2ad10a09e72f23cbaf7aa	501408842	1	main_z	7	advance_on_keypress_ZEE	90	stimuli_distractor_diamondtriangles.svg	stimuli_target_circlediamonds.svg	14	yes	57	0	48
6.6.0	mac	2022-12-19	14:53:23	14:57:37	253169	61f2ad10a09e72f23cbaf7aa	501408842	1	main_z	7	main_z	91	stimuli_distractor_trianglediamonds.svg	stimuli_distractor_diamondtriangles.svg	36	no	0	1	2000
6.6.0	mac	2022-12-19	14:53:23	14:57:37	253169	61f2ad10a09e72f23cbaf7aa	501408842	1	main_z	7	advance_on_keypress_ZEE	92	stimuli_distractor_trianglediamonds.svg	stimuli_distractor_diamondtriangles.svg	36	no	57	0	429
6.6.0	mac	2022-12-19	14:53:23	14:57:38	254830	61f2ad10a09e72f23cbaf7aa	501408842	1	main_z	7	main_z	93	stimuli_target_trianglecircles.svg	stimuli_distractor_trianglediamonds.svg	17	yes	44	1	594
6.6.0	mac	2022-12-19	14:53:23	14:57:38	254830	61f2ad10a09e72f23cbaf7aa	501408842	1	main_z	7	advance_on_keypress_ZEE	94	stimuli_target_trianglecircles.svg	stimuli_distractor_trianglediamonds.svg	17	yes	57	0	26
6.6.0	mac	2022-12-19	14:53:23	14:57:39	256053	61f2ad10a09e72f23cbaf7aa	501408842	1	main_z	7	main_z	95	stimuli_distractor_trianglediamonds.svg	stimuli_target_diamondsquares.svg	28	yes	44	1	549
6.6.0	mac	2022-12-19	14:53:23	14:57:39	256053	61f2ad10a09e72f23cbaf7aa	501408842	1	main_z	7	advance_on_keypress_ZEE	96	stimuli_distractor_trianglediamonds.svg	stimuli_target_diamondsquares.svg	28	yes	57	0	35
6.6.0	mac	2022-12-19	14:53:23	14:57:41	257237	61f2ad10a09e72f23cbaf7aa	501408842	1	main_z	7	main_z	97	stimuli_target_trianglesquares.svg	stimuli_distractor_trianglediamonds.svg	18	yes	44	1	519
6.6.0	mac	2022-12-19	14:53:23	14:57:41	257237	61f2ad10a09e72f23cbaf7aa	501408842	1	main_z	7	advance_on_keypress_ZEE	98	stimuli_target_trianglesquares.svg	stimuli_distractor_trianglediamonds.svg	18	yes	57	0	41
6.6.0	mac	2022-12-19	14:53:23	14:57:42	258453	61f2ad10a09e72f23cbaf7aa	501408842	1	main_z	7	main_z	99	stimuli_target_squaretriangles.svg	stimuli_distractor_trianglediamonds.svg	3	yes	44	1	519
6.6.0	mac	2022-12-19	14:53:23	14:57:42	258453	61f2ad10a09e72f23cbaf7aa	501408842	1	main_z	7	advance_on_keypress_ZEE	100	stimuli_target_squaretriangles.svg	stimuli_distractor_trianglediamonds.svg	3	yes	57	0	60
6.6.0	mac	2022-12-19	14:53:23	14:57:43	259614	61f2ad10a09e72f23cbaf7aa	501408842	1	main_z	7	main_z	101	stimuli_distractor_trianglediamonds.svg	stimuli_target_trianglesquares.svg	26	yes	44	1	445
6.6.0	mac	2022-12-19	14:53:23	14:57:43	259614	61f2ad10a09e72f23cbaf7aa	501408842	1	main_z	7	advance_on_keypress_ZEE	102	stimuli_distractor_trianglediamonds.svg	stimuli_target_trianglesquares.svg	26	yes	57	0	51
6.6.0	mac	2022-12-19	14:53:23	14:57:46	262302	61f2ad10a09e72f23cbaf7aa	501408842	1	main_z	7	main_z	103	stimuli_distractor_trianglediamonds.svg	stimuli_distractor_trianglediamonds.svg	33	no	0	1	2000
6.6.0	mac	2022-12-19	14:53:23	14:57:46	262302	61f2ad10a09e72f23cbaf7aa	501408842	1	main_z	7	advance_on_keypress_ZEE	104	stimuli_distractor_trianglediamonds.svg	stimuli_distractor_trianglediamonds.svg	33	no	57	0	319
6.6.0	mac	2022-12-19	14:53:23	14:57:47	263878	61f2ad10a09e72f23cbaf7aa	501408842	1	main_z	7	main_z	105	stimuli_distractor_trianglediamonds.svg	stimuli_target_trianglecircles.svg	25	yes	44	1	626
6.6.0	mac	2022-12-19	14:53:23	14:57:47	263878	61f2ad10a09e72f23cbaf7aa	501408842	1	main_z	7	advance_on_keypress_ZEE	106	stimuli_distractor_trianglediamonds.svg	stimuli_target_trianglecircles.svg	25	yes	57	0	0
6.6.0	mac	2022-12-19	14:53:23	14:57:49	265248	61f2ad10a09e72f23cbaf7aa	501408842	1	main_z	7	main_z	107	stimuli_target_trianglesquares.svg	stimuli_distractor_diamondtriangles.svg	22	yes	44	1	727
6.6.0	mac	2022-12-19	14:53:23	14:57:49	265248	61f2ad10a09e72f23cbaf7aa	501408842	1	main_z	7	advance_on_keypress_ZEE	108	stimuli_target_trianglesquares.svg	stimuli_distractor_diamondtriangles.svg	22	yes	57	0	17
6.6.0	mac	2022-12-19	14:53:23	14:57:50	266542	61f2ad10a09e72f23cbaf7aa	501408842	1	main_z	7	main_z	109	stimuli_distractor_diamondtriangles.svg	stimuli_target_diamondsquares.svg	32	yes	44	1	640
6.6.0	mac	2022-12-19	14:53:23	14:57:50	266542	61f2ad10a09e72f23cbaf7aa	501408842	1	main_z	7	advance_on_keypress_ZEE	110	stimuli_distractor_diamondtriangles.svg	stimuli_target_diamondsquares.svg	32	yes	57	0	21
6.6.0	mac	2022-12-19	14:53:23	14:57:51	267909	61f2ad10a09e72f23cbaf7aa	501408842	1	main_z	7	main_z	111	stimuli_target_squarediamonds.svg	stimuli_distractor_diamondtriangles.svg	8	yes	44	1	708
6.6.0	mac	2022-12-19	14:53:23	14:57:51	267909	61f2ad10a09e72f23cbaf7aa	501408842	1	main_z	7	advance_on_keypress_ZEE	112	stimuli_target_squarediamonds.svg	stimuli_distractor_diamondtriangles.svg	8	yes	57	0	55
6.6.0	mac	2022-12-19	14:53:23	14:57:53	269214	61f2ad10a09e72f23cbaf7aa	501408842	1	main_z	7	main_z	113	stimuli_distractor_diamondtriangles.svg	stimuli_target_diamondcircles.svg	31	yes	44	1	612
6.6.0	mac	2022-12-19	14:53:23	14:57:53	269214	61f2ad10a09e72f23cbaf7aa	501408842	1	main_z	7	advance_on_keypress_ZEE	114	stimuli_distractor_diamondtriangles.svg	stimuli_target_diamondcircles.svg	31	yes	57	0	11
6.6.0	mac	2022-12-19	14:53:23	14:57:54	270510	61f2ad10a09e72f23cbaf7aa	501408842	1	main_z	7	main_z	115	stimuli_distractor_trianglediamonds.svg	stimuli_target_squaretriangles.svg	11	yes	44	1	641
6.6.0	mac	2022-12-19	14:53:23	14:57:54	270510	61f2ad10a09e72f23cbaf7aa	501408842	1	main_z	7	advance_on_keypress_ZEE	116	stimuli_distractor_trianglediamonds.svg	stimuli_target_squaretriangles.svg	11	yes	57	0	14
6.6.0	mac	2022-12-19	14:53:23	14:57:55	271847	61f2ad10a09e72f23cbaf7aa	501408842	1	main_z	7	main_z	117	stimuli_distractor_diamondtriangles.svg	stimuli_target_trianglecircles.svg	29	yes	44	1	677
6.6.0	mac	2022-12-19	14:53:23	14:57:55	271847	61f2ad10a09e72f23cbaf7aa	501408842	1	main_z	7	advance_on_keypress_ZEE	118	stimuli_distractor_diamondtriangles.svg	stimuli_target_trianglecircles.svg	29	yes	57	0	25
6.6.0	mac	2022-12-19	14:53:23	14:57:57	273166	61f2ad10a09e72f23cbaf7aa	501408842	1	main_z	7	main_z	119	stimuli_distractor_diamondtriangles.svg	stimuli_target_trianglesquares.svg	30	yes	44	1	645
6.6.0	mac	2022-12-19	14:53:23	14:57:57	273166	61f2ad10a09e72f23cbaf7aa	501408842	1	main_z	7	advance_on_keypress_ZEE	120	stimuli_distractor_diamondtriangles.svg	stimuli_target_trianglesquares.svg	30	yes	57	0	27
6.6.0	mac	2022-12-19	14:53:23	14:57:58	274495	61f2ad10a09e72f23cbaf7aa	501408842	1	main_z	7	main_z	121	stimuli_target_diamondcircles.svg	stimuli_distractor_trianglediamonds.svg	19	yes	44	1	660
6.6.0	mac	2022-12-19	14:53:23	14:57:58	274495	61f2ad10a09e72f23cbaf7aa	501408842	1	main_z	7	advance_on_keypress_ZEE	122	stimuli_target_diamondcircles.svg	stimuli_distractor_trianglediamonds.svg	19	yes	57	0	4
6.6.0	mac	2022-12-19	14:53:23	14:57:59	275816	61f2ad10a09e72f23cbaf7aa	501408842	1	main_z	7	main_z	123	stimuli_target_circlediamonds.svg	stimuli_distractor_diamondtriangles.svg	6	yes	44	1	664
6.6.0	mac	2022-12-19	14:53:23	14:57:59	275816	61f2ad10a09e72f23cbaf7aa	501408842	1	main_z	7	advance_on_keypress_ZEE	124	stimuli_target_circlediamonds.svg	stimuli_distractor_diamondtriangles.svg	6	yes	57	0	27
6.6.0	mac	2022-12-19	14:53:23	14:58:01	277142	61f2ad10a09e72f23cbaf7aa	501408842	1	main_z	7	main_z	125	stimuli_target_circletriangles.svg	stimuli_distractor_trianglediamonds.svg	1	yes	44	1	657
6.6.0	mac	2022-12-19	14:53:23	14:58:01	277142	61f2ad10a09e72f23cbaf7aa	501408842	1	main_z	7	advance_on_keypress_ZEE	126	stimuli_target_circletriangles.svg	stimuli_distractor_trianglediamonds.svg	1	yes	57	0	6
6.6.0	mac	2022-12-19	14:53:23	14:58:02	278414	61f2ad10a09e72f23cbaf7aa	501408842	1	main_z	7	main_z	127	stimuli_target_squaretriangles.svg	stimuli_distractor_diamondtriangles.svg	7	yes	44	1	629
6.6.0	mac	2022-12-19	14:53:23	14:58:02	278414	61f2ad10a09e72f23cbaf7aa	501408842	1	main_z	7	advance_on_keypress_ZEE	128	stimuli_target_squaretriangles.svg	stimuli_distractor_diamondtriangles.svg	7	yes	57	0	650
6.6.0	mac	2022-12-19	14:53:23	14:58:04	280326	61f2ad10a09e72f23cbaf7aa	501408842	1	main_z	7	main_z	129	stimuli_target_squarediamonds.svg	stimuli_distractor_trianglediamonds.svg	4	yes	44	1	624
6.6.0	mac	2022-12-19	14:53:23	14:58:04	280326	61f2ad10a09e72f23cbaf7aa	501408842	1	main_z	7	advance_on_keypress_ZEE	130	stimuli_target_squarediamonds.svg	stimuli_distractor_trianglediamonds.svg	4	yes	57	0	665
6.6.0	mac	2022-12-19	14:53:23	14:58:07	283635	61f2ad10a09e72f23cbaf7aa	501408842	1	main_z	7	main_z	131	stimuli_distractor_diamondtriangles.svg	stimuli_distractor_diamondtriangles.svg	39	no	0	1	2000
6.6.0	mac	2022-12-19	14:53:23	14:58:07	283635	61f2ad10a09e72f23cbaf7aa	501408842	1	main_z	7	advance_on_keypress_ZEE	132	stimuli_distractor_diamondtriangles.svg	stimuli_distractor_diamondtriangles.svg	39	no	57	0	266
6.6.0	mac	2022-12-19	14:53:23	14:58:09	285183	61f2ad10a09e72f23cbaf7aa	501408842	1	main_z	7	main_z	133	stimuli_distractor_trianglediamonds.svg	stimuli_target_squarediamonds.svg	12	yes	44	1	644
6.6.0	mac	2022-12-19	14:53:23	14:58:09	285183	61f2ad10a09e72f23cbaf7aa	501408842	1	main_z	7	advance_on_keypress_ZEE	134	stimuli_distractor_trianglediamonds.svg	stimuli_target_squarediamonds.svg	12	yes	57	0	17
6.6.0	mac	2022-12-19	14:53:23	14:58:10	286468	61f2ad10a09e72f23cbaf7aa	501408842	1	main_z	7	main_z	135	stimuli_target_diamondsquares.svg	stimuli_distractor_diamondtriangles.svg	24	yes	44	1	635
6.6.0	mac	2022-12-19	14:53:23	14:58:10	286468	61f2ad10a09e72f23cbaf7aa	501408842	1	main_z	7	advance_on_keypress_ZEE	136	stimuli_target_diamondsquares.svg	stimuli_distractor_diamondtriangles.svg	24	yes	57	0	12
6.6.0	mac	2022-12-19	14:53:23	14:58:13	289118	61f2ad10a09e72f23cbaf7aa	501408842	1	main_z	7	main_z	137	stimuli_distractor_diamondtriangles.svg	stimuli_distractor_diamondtriangles.svg	40	no	0	1	2000
6.6.0	mac	2022-12-19	14:53:23	14:58:13	289118	61f2ad10a09e72f23cbaf7aa	501408842	1	main_z	7	advance_on_keypress_ZEE	138	stimuli_distractor_diamondtriangles.svg	stimuli_distractor_diamondtriangles.svg	40	no	57	0	451
6.6.0	mac	2022-12-19	14:53:23	14:58:14	290854	61f2ad10a09e72f23cbaf7aa	501408842	1	main_z	7	main_z	139	stimuli_distractor_diamondtriangles.svg	stimuli_target_squaretriangles.svg	15	yes	44	1	651
6.6.0	mac	2022-12-19	14:53:23	14:58:14	290854	61f2ad10a09e72f23cbaf7aa	501408842	1	main_z	7	advance_on_keypress_ZEE	140	stimuli_distractor_diamondtriangles.svg	stimuli_target_squaretriangles.svg	15	yes	57	0	30
6.6.0	mac	2022-12-19	14:53:23	14:58:17	293518	61f2ad10a09e72f23cbaf7aa	501408842	1	main_z	7	main_z	141	stimuli_distractor_diamondtriangles.svg	stimuli_distractor_trianglediamonds.svg	38	no	0	1	2000
6.6.0	mac	2022-12-19	14:53:23	14:58:17	293518	61f2ad10a09e72f23cbaf7aa	501408842	1	main_z	7	advance_on_keypress_ZEE	142	stimuli_distractor_diamondtriangles.svg	stimuli_distractor_trianglediamonds.svg	38	no	57	0	350
6.6.0	mac	2022-12-19	14:53:23	14:58:19	295335	61f2ad10a09e72f23cbaf7aa	501408842	1	main_z	7	main_z	143	stimuli_distractor_trianglediamonds.svg	stimuli_target_circlediamonds.svg	10	yes	44	1	832
6.6.0	mac	2022-12-19	14:53:23	14:58:19	295335	61f2ad10a09e72f23cbaf7aa	501408842	1	main_z	7	advance_on_keypress_ZEE	144	stimuli_distractor_trianglediamonds.svg	stimuli_target_circlediamonds.svg	10	yes	57	0	53
6.6.0	mac	2022-12-19	14:53:23	14:58:20	296726	61f2ad10a09e72f23cbaf7aa	501408842	1	main_z	7	main_z	145	stimuli_distractor_diamondtriangles.svg	stimuli_target_circletriangles.svg	13	yes	44	1	707
6.6.0	mac	2022-12-19	14:53:23	14:58:20	296726	61f2ad10a09e72f23cbaf7aa	501408842	1	main_z	7	advance_on_keypress_ZEE	146	stimuli_distractor_diamondtriangles.svg	stimuli_target_circletriangles.svg	13	yes	57	0	30
6.6.0	mac	2022-12-19	14:53:23	14:58:23	299400	61f2ad10a09e72f23cbaf7aa	501408842	1	main_z	7	main_z	147	stimuli_distractor_trianglediamonds.svg	stimuli_distractor_diamondtriangles.svg	35	no	0	1	2000
6.6.0	mac	2022-12-19	14:53:23	14:58:23	299400	61f2ad10a09e72f23cbaf7aa	501408842	1	main_z	7	advance_on_keypress_ZEE	148	stimuli_distractor_trianglediamonds.svg	stimuli_distractor_diamondtriangles.svg	35	no	57	0	531
6.6.0	mac	2022-12-19	14:53:23	14:58:25	301376	61f2ad10a09e72f23cbaf7aa	501408842	1	main_z	7	main_z	149	stimuli_target_diamondsquares.svg	stimuli_distractor_trianglediamonds.svg	20	yes	44	1	806
6.6.0	mac	2022-12-19	14:53:23	14:58:25	301376	61f2ad10a09e72f23cbaf7aa	501408842	1	main_z	7	advance_on_keypress_ZEE	150	stimuli_target_diamondsquares.svg	stimuli_distractor_trianglediamonds.svg	20	yes	57	0	12
6.6.0	mac	2022-12-19	14:53:23	14:58:27	304034	61f2ad10a09e72f23cbaf7aa	501408842	1	main_z	7	main_z	151	stimuli_distractor_diamondtriangles.svg	stimuli_distractor_trianglediamonds.svg	37	no	0	1	2000
6.6.0	mac	2022-12-19	14:53:23	14:58:27	304034	61f2ad10a09e72f23cbaf7aa	501408842	1	main_z	7	advance_on_keypress_ZEE	152	stimuli_distractor_diamondtriangles.svg	stimuli_distractor_trianglediamonds.svg	37	no	57	0	370
6.6.0	mac	2022-12-19	14:53:23	14:58:29	305863	61f2ad10a09e72f23cbaf7aa	501408842	1	main_z	7	main_z	153	stimuli_distractor_trianglediamonds.svg	stimuli_target_diamondcircles.svg	27	yes	44	1	827
6.6.0	mac	2022-12-19	14:53:23	14:58:29	305863	61f2ad10a09e72f23cbaf7aa	501408842	1	main_z	7	advance_on_keypress_ZEE	154	stimuli_distractor_trianglediamonds.svg	stimuli_target_diamondcircles.svg	27	yes	57	0	1
6.6.0	mac	2022-12-19	14:53:23	14:58:31	307262	61f2ad10a09e72f23cbaf7aa	501408842	1	main_z	7	main_z	155	stimuli_target_circletriangles.svg	stimuli_distractor_diamondtriangles.svg	5	yes	44	1	743
6.6.0	mac	2022-12-19	14:53:23	14:58:31	307262	61f2ad10a09e72f23cbaf7aa	501408842	1	main_z	7	advance_on_keypress_ZEE	156	stimuli_target_circletriangles.svg	stimuli_distractor_diamondtriangles.svg	5	yes	57	0	57
6.6.0	mac	2022-12-19	14:53:23	14:58:33	309951	61f2ad10a09e72f23cbaf7aa	501408842	1	main_z	7	main_z	157	stimuli_distractor_trianglediamonds.svg	stimuli_distractor_trianglediamonds.svg	34	no	0	1	2000
6.6.0	mac	2022-12-19	14:53:23	14:58:33	309951	61f2ad10a09e72f23cbaf7aa	501408842	1	main_z	7	advance_on_keypress_ZEE	158	stimuli_distractor_trianglediamonds.svg	stimuli_distractor_trianglediamonds.svg	34	no	57	0	359
6.6.0	mac	2022-12-19	14:53:23	14:58:35	311743	61f2ad10a09e72f23cbaf7aa	501408842	1	main_z	7	main_z	159	stimuli_target_trianglecircles.svg	stimuli_distractor_diamondtriangles.svg	21	yes	44	1	790
6.6.0	mac	2022-12-19	14:53:23	14:58:35	311743	61f2ad10a09e72f23cbaf7aa	501408842	1	main_z	7	advance_on_keypress_ZEE	160	stimuli_target_trianglecircles.svg	stimuli_distractor_diamondtriangles.svg	21	yes	57	0	29
6.6.0	mac	2022-12-19	14:53:23	14:58:47	323327	61f2ad10a09e72f23cbaf7aa	501408842	1	practice_slash	9	practice_slash	1	stimuli_target_diamondsquares.svg	stimuli_distractor_diamondtriangles.svg	3	yes	53	1	1090
6.6.0	mac	2022-12-19	14:53:23	14:58:47	323327	61f2ad10a09e72f23cbaf7aa	501408842	1	practice_slash	9	advance_on_keypress_SLASH	2	stimuli_target_diamondsquares.svg	stimuli_distractor_diamondtriangles.svg	3	yes	57	0	473
6.6.0	mac	2022-12-19	14:53:23	14:58:51	327437	61f2ad10a09e72f23cbaf7aa	501408842	1	practice_slash	9	practice_slash	3	stimuli_distractor_trianglediamonds.svg	stimuli_distractor_diamondtriangles.svg	16	no	0	1	2000
6.6.0	mac	2022-12-19	14:53:23	14:58:51	327437	61f2ad10a09e72f23cbaf7aa	501408842	1	practice_slash	9	advance_on_keypress_SLASH	4	stimuli_distractor_trianglediamonds.svg	stimuli_distractor_diamondtriangles.svg	16	no	57	0	435
6.6.0	mac	2022-12-19	14:53:23	14:58:54	330371	61f2ad10a09e72f23cbaf7aa	501408842	1	practice_slash	9	practice_slash	5	stimuli_target_squarediamonds.svg	stimuli_distractor_trianglediamonds.svg	5	yes	53	1	865
6.6.0	mac	2022-12-19	14:53:23	14:58:54	330371	61f2ad10a09e72f23cbaf7aa	501408842	1	practice_slash	9	advance_on_keypress_SLASH	6	stimuli_target_squarediamonds.svg	stimuli_distractor_trianglediamonds.svg	5	yes	57	0	1132
6.6.0	mac	2022-12-19	14:53:23	14:58:57	333984	61f2ad10a09e72f23cbaf7aa	501408842	1	practice_slash	9	practice_slash	7	stimuli_distractor_trianglediamonds.svg	stimuli_target_diamondcircles.svg	12	yes	53	1	848
6.6.0	mac	2022-12-19	14:53:23	14:58:57	333984	61f2ad10a09e72f23cbaf7aa	501408842	1	practice_slash	9	advance_on_keypress_SLASH	8	stimuli_distractor_trianglediamonds.svg	stimuli_target_diamondcircles.svg	12	yes	57	0	804
6.6.0	mac	2022-12-19	14:53:23	14:59:01	337112	61f2ad10a09e72f23cbaf7aa	501408842	1	practice_slash	9	practice_slash	9	stimuli_distractor_diamondtriangles.svg	stimuli_target_diamondcircles.svg	8	yes	53	1	692
6.6.0	mac	2022-12-19	14:53:23	14:59:01	337112	61f2ad10a09e72f23cbaf7aa	501408842	1	practice_slash	9	advance_on_keypress_SLASH	10	stimuli_distractor_diamondtriangles.svg	stimuli_target_diamondcircles.svg	8	yes	57	0	624
6.6.0	mac	2022-12-19	14:53:23	14:59:05	341370	61f2ad10a09e72f23cbaf7aa	501408842	1	practice_slash	9	practice_slash	11	stimuli_distractor_diamondtriangles.svg	stimuli_distractor_trianglediamonds.svg	14	no	0	1	2000
6.6.0	mac	2022-12-19	14:53:23	14:59:05	341370	61f2ad10a09e72f23cbaf7aa	501408842	1	practice_slash	9	advance_on_keypress_SLASH	12	stimuli_distractor_diamondtriangles.svg	stimuli_distractor_trianglediamonds.svg	14	no	57	0	267
6.6.0	mac	2022-12-19	14:53:23	14:59:08	344087	61f2ad10a09e72f23cbaf7aa	501408842	1	practice_slash	9	practice_slash	13	stimuli_target_circlediamonds.svg	stimuli_distractor_trianglediamonds.svg	4	yes	53	1	817
6.6.0	mac	2022-12-19	14:53:23	14:59:08	344087	61f2ad10a09e72f23cbaf7aa	501408842	1	practice_slash	9	advance_on_keypress_SLASH	14	stimuli_target_circlediamonds.svg	stimuli_distractor_trianglediamonds.svg	4	yes	57	0	460
6.6.0	mac	2022-12-19	14:53:23	14:59:10	346896	61f2ad10a09e72f23cbaf7aa	501408842	1	practice_slash	9	practice_slash	15	stimuli_target_squarediamonds.svg	stimuli_distractor_diamondtriangles.svg	2	yes	53	1	709
6.6.0	mac	2022-12-19	14:53:23	14:59:10	346896	61f2ad10a09e72f23cbaf7aa	501408842	1	practice_slash	9	advance_on_keypress_SLASH	16	stimuli_target_squarediamonds.svg	stimuli_distractor_diamondtriangles.svg	2	yes	57	0	368
6.6.0	mac	2022-12-19	14:53:23	14:59:13	349582	61f2ad10a09e72f23cbaf7aa	501408842	1	practice_slash	9	practice_slash	17	stimuli_target_circlediamonds.svg	stimuli_distractor_diamondtriangles.svg	1	yes	53	1	680
6.6.0	mac	2022-12-19	14:53:23	14:59:13	349582	61f2ad10a09e72f23cbaf7aa	501408842	1	practice_slash	9	advance_on_keypress_SLASH	18	stimuli_target_circlediamonds.svg	stimuli_distractor_diamondtriangles.svg	1	yes	57	0	467
6.6.0	mac	2022-12-19	14:53:23	14:59:16	352376	61f2ad10a09e72f23cbaf7aa	501408842	1	practice_slash	9	practice_slash	19	stimuli_target_diamondsquares.svg	stimuli_distractor_trianglediamonds.svg	6	yes	53	1	690
6.6.0	mac	2022-12-19	14:53:23	14:59:16	352376	61f2ad10a09e72f23cbaf7aa	501408842	1	practice_slash	9	advance_on_keypress_SLASH	20	stimuli_target_diamondsquares.svg	stimuli_distractor_trianglediamonds.svg	6	yes	57	0	453
6.6.0	mac	2022-12-19	14:53:23	14:59:19	355143	61f2ad10a09e72f23cbaf7aa	501408842	1	practice_slash	9	practice_slash	21	stimuli_distractor_trianglediamonds.svg	stimuli_target_circlediamonds.svg	10	yes	53	1	673
6.6.0	mac	2022-12-19	14:53:23	14:59:19	355143	61f2ad10a09e72f23cbaf7aa	501408842	1	practice_slash	9	advance_on_keypress_SLASH	22	stimuli_distractor_trianglediamonds.svg	stimuli_target_circlediamonds.svg	10	yes	57	0	446
6.6.0	mac	2022-12-19	14:53:23	14:59:23	359235	61f2ad10a09e72f23cbaf7aa	501408842	1	practice_slash	9	practice_slash	23	stimuli_distractor_diamondtriangles.svg	stimuli_distractor_diamondtriangles.svg	13	no	0	1	2000
6.6.0	mac	2022-12-19	14:53:23	14:59:23	359235	61f2ad10a09e72f23cbaf7aa	501408842	1	practice_slash	9	advance_on_keypress_SLASH	24	stimuli_distractor_diamondtriangles.svg	stimuli_distractor_diamondtriangles.svg	13	no	57	0	363
6.6.0	mac	2022-12-19	14:53:23	14:59:25	361928	61f2ad10a09e72f23cbaf7aa	501408842	1	practice_slash	9	practice_slash	25	stimuli_distractor_diamondtriangles.svg	stimuli_target_circletriangles.svg	7	yes	53	1	692
6.6.0	mac	2022-12-19	14:53:23	14:59:25	361928	61f2ad10a09e72f23cbaf7aa	501408842	1	practice_slash	9	advance_on_keypress_SLASH	26	stimuli_distractor_diamondtriangles.svg	stimuli_target_circletriangles.svg	7	yes	57	0	960
6.6.0	mac	2022-12-19	14:53:23	14:59:29	365538	61f2ad10a09e72f23cbaf7aa	501408842	1	practice_slash	9	practice_slash	27	stimuli_distractor_trianglediamonds.svg	stimuli_target_squarediamonds.svg	11	yes	53	1	1000
6.6.0	mac	2022-12-19	14:53:23	14:59:29	365538	61f2ad10a09e72f23cbaf7aa	501408842	1	practice_slash	9	advance_on_keypress_SLASH	28	stimuli_distractor_trianglediamonds.svg	stimuli_target_squarediamonds.svg	11	yes	57	0	438
6.6.0	mac	2022-12-19	14:53:23	14:59:32	368258	61f2ad10a09e72f23cbaf7aa	501408842	1	practice_slash	9	practice_slash	29	stimuli_distractor_diamondtriangles.svg	stimuli_target_trianglecircles.svg	9	yes	53	1	652
6.6.0	mac	2022-12-19	14:53:23	14:59:32	368258	61f2ad10a09e72f23cbaf7aa	501408842	1	practice_slash	9	advance_on_keypress_SLASH	30	stimuli_distractor_diamondtriangles.svg	stimuli_target_trianglecircles.svg	9	yes	57	0	400
6.6.0	mac	2022-12-19	14:53:23	14:59:36	372285	61f2ad10a09e72f23cbaf7aa	501408842	1	practice_slash	9	practice_slash	31	stimuli_distractor_trianglediamonds.svg	stimuli_distractor_trianglediamonds.svg	15	no	0	1	2000
6.6.0	mac	2022-12-19	14:53:23	14:59:36	372285	61f2ad10a09e72f23cbaf7aa	501408842	1	practice_slash	9	advance_on_keypress_SLASH	32	stimuli_distractor_trianglediamonds.svg	stimuli_distractor_trianglediamonds.svg	15	no	57	0	345
6.6.0	mac	2022-12-19	14:53:23	14:59:39	375679	61f2ad10a09e72f23cbaf7aa	501408842	1	main_slash	11	main_slash	1	stimuli_target_squarediamonds.svg	stimuli_distractor_diamondtriangles.svg	8	yes	53	1	677
6.6.0	mac	2022-12-19	14:53:23	14:59:39	375679	61f2ad10a09e72f23cbaf7aa	501408842	1	main_slash	11	advance_on_keypress_SLASH	2	stimuli_target_squarediamonds.svg	stimuli_distractor_diamondtriangles.svg	8	yes	57	0	713
6.6.0	mac	2022-12-19	14:53:23	14:59:42	379034	61f2ad10a09e72f23cbaf7aa	501408842	1	main_slash	11	main_slash	3	stimuli_distractor_diamondtriangles.svg	stimuli_distractor_diamondtriangles.svg	39	no	0	1	2000
6.6.0	mac	2022-12-19	14:53:23	14:59:42	379034	61f2ad10a09e72f23cbaf7aa	501408842	1	main_slash	11	advance_on_keypress_SLASH	4	stimuli_distractor_diamondtriangles.svg	stimuli_distractor_diamondtriangles.svg	39	no	57	0	258
6.6.0	mac	2022-12-19	14:53:23	14:59:44	380902	61f2ad10a09e72f23cbaf7aa	501408842	1	main_slash	11	main_slash	5	stimuli_target_trianglesquares.svg	stimuli_distractor_diamondtriangles.svg	22	yes	53	1	968
6.6.0	mac	2022-12-19	14:53:23	14:59:44	380902	61f2ad10a09e72f23cbaf7aa	501408842	1	main_slash	11	advance_on_keypress_SLASH	6	stimuli_target_trianglesquares.svg	stimuli_distractor_diamondtriangles.svg	22	yes	57	0	51
6.6.0	mac	2022-12-19	14:53:23	14:59:47	383584	61f2ad10a09e72f23cbaf7aa	501408842	1	main_slash	11	main_slash	7	stimuli_distractor_trianglediamonds.svg	stimuli_distractor_diamondtriangles.svg	36	no	0	1	2000
6.6.0	mac	2022-12-19	14:53:23	14:59:47	383584	61f2ad10a09e72f23cbaf7aa	501408842	1	main_slash	11	advance_on_keypress_SLASH	8	stimuli_distractor_trianglediamonds.svg	stimuli_distractor_diamondtriangles.svg	36	no	57	0	205
6.6.0	mac	2022-12-19	14:53:23	14:59:49	385085	61f2ad10a09e72f23cbaf7aa	501408842	1	main_slash	11	main_slash	9	stimuli_target_circlediamonds.svg	stimuli_distractor_trianglediamonds.svg	2	yes	53	1	667
6.6.0	mac	2022-12-19	14:53:23	14:59:49	385085	61f2ad10a09e72f23cbaf7aa	501408842	1	main_slash	11	advance_on_keypress_SLASH	10	stimuli_target_circlediamonds.svg	stimuli_distractor_trianglediamonds.svg	2	yes	57	0	63
6.6.0	mac	2022-12-19	14:53:23	14:59:50	386558	61f2ad10a09e72f23cbaf7aa	501408842	1	main_slash	11	main_slash	11	stimuli_target_circletriangles.svg	stimuli_distractor_trianglediamonds.svg	1	yes	53	1	773
6.6.0	mac	2022-12-19	14:53:23	14:59:50	386558	61f2ad10a09e72f23cbaf7aa	501408842	1	main_slash	11	advance_on_keypress_SLASH	12	stimuli_target_circletriangles.svg	stimuli_distractor_trianglediamonds.svg	1	yes	57	0	13
6.6.0	mac	2022-12-19	14:53:23	14:59:51	388079	61f2ad10a09e72f23cbaf7aa	501408842	1	main_slash	11	main_slash	13	stimuli_target_trianglecircles.svg	stimuli_distractor_trianglediamonds.svg	17	yes	53	1	860
6.6.0	mac	2022-12-19	14:53:23	14:59:51	388079	61f2ad10a09e72f23cbaf7aa	501408842	1	main_slash	11	advance_on_keypress_SLASH	14	stimuli_target_trianglecircles.svg	stimuli_distractor_trianglediamonds.svg	17	yes	57	0	41
6.6.0	mac	2022-12-19	14:53:23	14:59:53	389415	61f2ad10a09e72f23cbaf7aa	501408842	1	main_slash	11	main_slash	15	stimuli_target_trianglecircles.svg	stimuli_distractor_diamondtriangles.svg	21	yes	53	1	663
6.6.0	mac	2022-12-19	14:53:23	14:59:53	389415	61f2ad10a09e72f23cbaf7aa	501408842	1	main_slash	11	advance_on_keypress_SLASH	16	stimuli_target_trianglecircles.svg	stimuli_distractor_diamondtriangles.svg	21	yes	57	0	19
6.6.0	mac	2022-12-19	14:53:23	14:59:54	390758	61f2ad10a09e72f23cbaf7aa	501408842	1	main_slash	11	main_slash	17	stimuli_target_circlediamonds.svg	stimuli_distractor_diamondtriangles.svg	6	yes	53	1	690
6.6.0	mac	2022-12-19	14:53:23	14:59:54	390758	61f2ad10a09e72f23cbaf7aa	501408842	1	main_slash	11	advance_on_keypress_SLASH	18	stimuli_target_circlediamonds.svg	stimuli_distractor_diamondtriangles.svg	6	yes	57	0	52
6.6.0	mac	2022-12-19	14:53:23	14:59:57	393436	61f2ad10a09e72f23cbaf7aa	501408842	1	main_slash	11	main_slash	19	stimuli_distractor_trianglediamonds.svg	stimuli_distractor_trianglediamonds.svg	34	no	0	1	2000
6.6.0	mac	2022-12-19	14:53:23	14:59:57	393436	61f2ad10a09e72f23cbaf7aa	501408842	1	main_slash	11	advance_on_keypress_SLASH	20	stimuli_distractor_trianglediamonds.svg	stimuli_distractor_trianglediamonds.svg	34	no	57	0	347
6.6.0	mac	2022-12-19	14:53:23	14:59:59	395112	61f2ad10a09e72f23cbaf7aa	501408842	1	main_slash	11	main_slash	21	stimuli_target_circletriangles.svg	stimuli_distractor_diamondtriangles.svg	5	yes	53	1	692
6.6.0	mac	2022-12-19	14:53:23	14:59:59	395112	61f2ad10a09e72f23cbaf7aa	501408842	1	main_slash	11	advance_on_keypress_SLASH	22	stimuli_target_circletriangles.svg	stimuli_distractor_diamondtriangles.svg	5	yes	57	0	31
6.6.0	mac	2022-12-19	14:53:23	15:00:00	396502	61f2ad10a09e72f23cbaf7aa	501408842	1	main_slash	11	main_slash	23	stimuli_distractor_trianglediamonds.svg	stimuli_target_diamondsquares.svg	28	yes	53	1	716
6.6.0	mac	2022-12-19	14:53:23	15:00:00	396502	61f2ad10a09e72f23cbaf7aa	501408842	1	main_slash	11	advance_on_keypress_SLASH	24	stimuli_distractor_trianglediamonds.svg	stimuli_target_diamondsquares.svg	28	yes	57	0	31
6.6.0	mac	2022-12-19	14:53:23	15:00:01	397871	61f2ad10a09e72f23cbaf7aa	501408842	1	main_slash	11	main_slash	25	stimuli_target_diamondsquares.svg	stimuli_distractor_trianglediamonds.svg	20	yes	53	1	702
6.6.0	mac	2022-12-19	14:53:23	15:00:01	397871	61f2ad10a09e72f23cbaf7aa	501408842	1	main_slash	11	advance_on_keypress_SLASH	26	stimuli_target_diamondsquares.svg	stimuli_distractor_trianglediamonds.svg	20	yes	57	0	60
6.6.0	mac	2022-12-19	14:53:23	15:00:03	399224	61f2ad10a09e72f23cbaf7aa	501408842	1	main_slash	11	main_slash	27	stimuli_distractor_trianglediamonds.svg	stimuli_target_diamondcircles.svg	27	yes	53	1	655
6.6.0	mac	2022-12-19	14:53:23	15:00:03	399224	61f2ad10a09e72f23cbaf7aa	501408842	1	main_slash	11	advance_on_keypress_SLASH	28	stimuli_distractor_trianglediamonds.svg	stimuli_target_diamondcircles.svg	27	yes	57	0	40
6.6.0	mac	2022-12-19	14:53:23	15:00:04	400568	61f2ad10a09e72f23cbaf7aa	501408842	1	main_slash	11	main_slash	29	stimuli_target_squaretriangles.svg	stimuli_distractor_trianglediamonds.svg	3	yes	53	1	665
6.6.0	mac	2022-12-19	14:53:23	15:00:04	400568	61f2ad10a09e72f23cbaf7aa	501408842	1	main_slash	11	advance_on_keypress_SLASH	30	stimuli_target_squaretriangles.svg	stimuli_distractor_trianglediamonds.svg	3	yes	57	0	59
6.6.0	mac	2022-12-19	14:53:23	15:00:05	401838	61f2ad10a09e72f23cbaf7aa	501408842	1	main_slash	11	main_slash	31	stimuli_distractor_diamondtriangles.svg	stimuli_target_trianglecircles.svg	29	yes	53	1	571
6.6.0	mac	2022-12-19	14:53:23	15:00:05	401838	61f2ad10a09e72f23cbaf7aa	501408842	1	main_slash	11	advance_on_keypress_SLASH	32	stimuli_distractor_diamondtriangles.svg	stimuli_target_trianglecircles.svg	29	yes	57	0	49
6.6.0	mac	2022-12-19	14:53:23	15:00:07	403088	61f2ad10a09e72f23cbaf7aa	501408842	1	main_slash	11	main_slash	33	stimuli_distractor_trianglediamonds.svg	stimuli_target_trianglecircles.svg	25	yes	53	1	566
6.6.0	mac	2022-12-19	14:53:23	15:00:07	403088	61f2ad10a09e72f23cbaf7aa	501408842	1	main_slash	11	advance_on_keypress_SLASH	34	stimuli_distractor_trianglediamonds.svg	stimuli_target_trianglecircles.svg	25	yes	57	0	37
6.6.0	mac	2022-12-19	14:53:23	15:00:08	404375	61f2ad10a09e72f23cbaf7aa	501408842	1	main_slash	11	main_slash	35	stimuli_distractor_trianglediamonds.svg	stimuli_target_circletriangles.svg	9	yes	53	1	606
6.6.0	mac	2022-12-19	14:53:23	15:00:08	404375	61f2ad10a09e72f23cbaf7aa	501408842	1	main_slash	11	advance_on_keypress_SLASH	36	stimuli_distractor_trianglediamonds.svg	stimuli_target_circletriangles.svg	9	yes	57	0	38
6.6.0	mac	2022-12-19	14:53:23	15:00:10	407051	61f2ad10a09e72f23cbaf7aa	501408842	1	main_slash	11	main_slash	37	stimuli_distractor_trianglediamonds.svg	stimuli_distractor_trianglediamonds.svg	33	no	0	1	2000
6.6.0	mac	2022-12-19	14:53:23	15:00:10	407051	61f2ad10a09e72f23cbaf7aa	501408842	1	main_slash	11	advance_on_keypress_SLASH	38	stimuli_distractor_trianglediamonds.svg	stimuli_distractor_trianglediamonds.svg	33	no	57	0	274
6.6.0	mac	2022-12-19	14:53:23	15:00:12	408631	61f2ad10a09e72f23cbaf7aa	501408842	1	main_slash	11	main_slash	39	stimuli_target_diamondcircles.svg	stimuli_distractor_diamondtriangles.svg	23	yes	53	1	662
6.6.0	mac	2022-12-19	14:53:23	15:00:12	408631	61f2ad10a09e72f23cbaf7aa	501408842	1	main_slash	11	advance_on_keypress_SLASH	40	stimuli_target_diamondcircles.svg	stimuli_distractor_diamondtriangles.svg	23	yes	57	0	42
6.6.0	mac	2022-12-19	14:53:23	15:00:13	409815	61f2ad10a09e72f23cbaf7aa	501408842	1	main_slash	11	main_slash	41	stimuli_distractor_diamondtriangles.svg	stimuli_target_circletriangles.svg	13	yes	53	1	496
6.6.0	mac	2022-12-19	14:53:23	15:00:13	409815	61f2ad10a09e72f23cbaf7aa	501408842	1	main_slash	11	advance_on_keypress_SLASH	42	stimuli_distractor_diamondtriangles.svg	stimuli_target_circletriangles.svg	13	yes	57	0	100
6.6.0	mac	2022-12-19	14:53:23	15:00:15	411106	61f2ad10a09e72f23cbaf7aa	501408842	1	main_slash	11	main_slash	43	stimuli_distractor_trianglediamonds.svg	stimuli_target_trianglesquares.svg	26	yes	53	1	551
6.6.0	mac	2022-12-19	14:53:23	15:00:15	411106	61f2ad10a09e72f23cbaf7aa	501408842	1	main_slash	11	advance_on_keypress_SLASH	44	stimuli_distractor_trianglediamonds.svg	stimuli_target_trianglesquares.svg	26	yes	57	0	30
6.6.0	mac	2022-12-19	14:53:23	15:00:16	412384	61f2ad10a09e72f23cbaf7aa	501408842	1	main_slash	11	main_slash	45	stimuli_target_squarediamonds.svg	stimuli_distractor_trianglediamonds.svg	4	yes	53	1	614
6.6.0	mac	2022-12-19	14:53:23	15:00:16	412384	61f2ad10a09e72f23cbaf7aa	501408842	1	main_slash	11	advance_on_keypress_SLASH	46	stimuli_target_squarediamonds.svg	stimuli_distractor_trianglediamonds.svg	4	yes	57	0	12
6.6.0	mac	2022-12-19	14:53:23	15:00:17	413591	61f2ad10a09e72f23cbaf7aa	501408842	1	main_slash	11	main_slash	47	stimuli_target_diamondcircles.svg	stimuli_distractor_trianglediamonds.svg	19	yes	53	1	555
6.6.0	mac	2022-12-19	14:53:23	15:00:17	413591	61f2ad10a09e72f23cbaf7aa	501408842	1	main_slash	11	advance_on_keypress_SLASH	48	stimuli_target_diamondcircles.svg	stimuli_distractor_trianglediamonds.svg	19	yes	57	0	20
6.6.0	mac	2022-12-19	14:53:23	15:00:18	414842	61f2ad10a09e72f23cbaf7aa	501408842	1	main_slash	11	main_slash	49	stimuli_target_squaretriangles.svg	stimuli_distractor_diamondtriangles.svg	7	yes	53	1	607
6.6.0	mac	2022-12-19	14:53:23	15:00:18	414842	61f2ad10a09e72f23cbaf7aa	501408842	1	main_slash	11	advance_on_keypress_SLASH	50	stimuli_target_squaretriangles.svg	stimuli_distractor_diamondtriangles.svg	7	yes	57	0	15
6.6.0	mac	2022-12-19	14:53:23	15:00:20	416087	61f2ad10a09e72f23cbaf7aa	501408842	1	main_slash	11	main_slash	51	stimuli_distractor_diamondtriangles.svg	stimuli_target_diamondcircles.svg	31	yes	53	1	602
6.6.0	mac	2022-12-19	14:53:23	15:00:20	416087	61f2ad10a09e72f23cbaf7aa	501408842	1	main_slash	11	advance_on_keypress_SLASH	52	stimuli_distractor_diamondtriangles.svg	stimuli_target_diamondcircles.svg	31	yes	57	0	16
6.6.0	mac	2022-12-19	14:53:23	15:00:21	417327	61f2ad10a09e72f23cbaf7aa	501408842	1	main_slash	11	main_slash	53	stimuli_distractor_trianglediamonds.svg	stimuli_target_squaretriangles.svg	11	yes	53	1	591
6.6.0	mac	2022-12-19	14:53:23	15:00:21	417327	61f2ad10a09e72f23cbaf7aa	501408842	1	main_slash	11	advance_on_keypress_SLASH	54	stimuli_distractor_trianglediamonds.svg	stimuli_target_squaretriangles.svg	11	yes	57	0	6
6.6.0	mac	2022-12-19	14:53:23	15:00:22	418559	61f2ad10a09e72f23cbaf7aa	501408842	1	main_slash	11	main_slash	55	stimuli_distractor_trianglediamonds.svg	stimuli_target_squarediamonds.svg	12	yes	53	1	574
6.6.0	mac	2022-12-19	14:53:23	15:00:22	418559	61f2ad10a09e72f23cbaf7aa	501408842	1	main_slash	11	advance_on_keypress_SLASH	56	stimuli_distractor_trianglediamonds.svg	stimuli_target_squarediamonds.svg	12	yes	57	0	22
6.6.0	mac	2022-12-19	14:53:23	15:00:23	419831	61f2ad10a09e72f23cbaf7aa	501408842	1	main_slash	11	main_slash	57	stimuli_target_diamondsquares.svg	stimuli_distractor_diamondtriangles.svg	24	yes	53	1	612
6.6.0	mac	2022-12-19	14:53:23	15:00:23	419831	61f2ad10a09e72f23cbaf7aa	501408842	1	main_slash	11	advance_on_keypress_SLASH	58	stimuli_target_diamondsquares.svg	stimuli_distractor_diamondtriangles.svg	24	yes	57	0	675
6.6.0	mac	2022-12-19	14:53:23	15:00:26	422946	61f2ad10a09e72f23cbaf7aa	501408842	1	main_slash	11	main_slash	59	stimuli_target_trianglesquares.svg	stimuli_distractor_trianglediamonds.svg	18	yes	53	1	1791
6.6.0	mac	2022-12-19	14:53:23	15:00:26	422946	61f2ad10a09e72f23cbaf7aa	501408842	1	main_slash	11	advance_on_keypress_SLASH	60	stimuli_target_trianglesquares.svg	stimuli_distractor_trianglediamonds.svg	18	yes	57	0	686
6.6.0	mac	2022-12-19	14:53:23	15:00:28	424722	61f2ad10a09e72f23cbaf7aa	501408842	1	main_slash	11	main_slash	61	stimuli_distractor_diamondtriangles.svg	stimuli_target_circlediamonds.svg	14	yes	53	1	450
6.6.0	mac	2022-12-19	14:53:23	15:00:28	424722	61f2ad10a09e72f23cbaf7aa	501408842	1	main_slash	11	advance_on_keypress_SLASH	62	stimuli_distractor_diamondtriangles.svg	stimuli_target_circlediamonds.svg	14	yes	57	0	41
6.6.0	mac	2022-12-19	14:53:23	15:00:31	427384	61f2ad10a09e72f23cbaf7aa	501408842	1	main_slash	11	main_slash	63	stimuli_distractor_trianglediamonds.svg	stimuli_distractor_diamondtriangles.svg	35	no	0	1	2000
6.6.0	mac	2022-12-19	14:53:23	15:00:31	427384	61f2ad10a09e72f23cbaf7aa	501408842	1	main_slash	11	advance_on_keypress_SLASH	64	stimuli_distractor_trianglediamonds.svg	stimuli_distractor_diamondtriangles.svg	35	no	57	0	443
6.6.0	mac	2022-12-19	14:53:23	15:00:33	429111	61f2ad10a09e72f23cbaf7aa	501408842	1	main_slash	11	main_slash	65	stimuli_distractor_trianglediamonds.svg	stimuli_target_circlediamonds.svg	10	yes	53	1	640
6.6.0	mac	2022-12-19	14:53:23	15:00:33	429111	61f2ad10a09e72f23cbaf7aa	501408842	1	main_slash	11	advance_on_keypress_SLASH	66	stimuli_distractor_trianglediamonds.svg	stimuli_target_circlediamonds.svg	10	yes	57	0	45
6.6.0	mac	2022-12-19	14:53:23	15:00:34	430471	61f2ad10a09e72f23cbaf7aa	501408842	1	main_slash	11	main_slash	67	stimuli_distractor_diamondtriangles.svg	stimuli_target_trianglesquares.svg	30	yes	53	1	667
6.6.0	mac	2022-12-19	14:53:23	15:00:34	430471	61f2ad10a09e72f23cbaf7aa	501408842	1	main_slash	11	advance_on_keypress_SLASH	68	stimuli_distractor_diamondtriangles.svg	stimuli_target_trianglesquares.svg	30	yes	57	0	26
6.6.0	mac	2022-12-19	14:53:23	15:00:35	431824	61f2ad10a09e72f23cbaf7aa	501408842	1	main_slash	11	main_slash	69	stimuli_distractor_diamondtriangles.svg	stimuli_target_squaretriangles.svg	15	yes	53	1	685
6.6.0	mac	2022-12-19	14:53:23	15:00:35	431824	61f2ad10a09e72f23cbaf7aa	501408842	1	main_slash	11	advance_on_keypress_SLASH	70	stimuli_distractor_diamondtriangles.svg	stimuli_target_squaretriangles.svg	15	yes	57	0	499
6.6.0	mac	2022-12-19	14:53:23	15:00:38	434966	61f2ad10a09e72f23cbaf7aa	501408842	1	main_slash	11	main_slash	71	stimuli_distractor_diamondtriangles.svg	stimuli_distractor_trianglediamonds.svg	37	no	0	1	2000
6.6.0	mac	2022-12-19	14:53:23	15:00:38	434966	61f2ad10a09e72f23cbaf7aa	501408842	1	main_slash	11	advance_on_keypress_SLASH	72	stimuli_distractor_diamondtriangles.svg	stimuli_distractor_trianglediamonds.svg	37	no	57	0	398
6.6.0	mac	2022-12-19	14:53:23	15:00:41	438001	61f2ad10a09e72f23cbaf7aa	501408842	1	main_slash	11	main_slash	73	stimuli_distractor_diamondtriangles.svg	stimuli_distractor_trianglediamonds.svg	38	no	0	1	2000
6.6.0	mac	2022-12-19	14:53:23	15:00:41	438001	61f2ad10a09e72f23cbaf7aa	501408842	1	main_slash	11	advance_on_keypress_SLASH	74	stimuli_distractor_diamondtriangles.svg	stimuli_distractor_trianglediamonds.svg	38	no	57	0	280
6.6.0	mac	2022-12-19	14:53:23	15:00:43	439794	61f2ad10a09e72f23cbaf7aa	501408842	1	main_slash	11	main_slash	75	stimuli_distractor_diamondtriangles.svg	stimuli_target_squarediamonds.svg	16	yes	53	1	875
6.6.0	mac	2022-12-19	14:53:23	15:00:43	439794	61f2ad10a09e72f23cbaf7aa	501408842	1	main_slash	11	advance_on_keypress_SLASH	76	stimuli_distractor_diamondtriangles.svg	stimuli_target_squarediamonds.svg	16	yes	57	0	43
6.6.0	mac	2022-12-19	14:53:23	15:00:46	442484	61f2ad10a09e72f23cbaf7aa	501408842	1	main_slash	11	main_slash	77	stimuli_distractor_diamondtriangles.svg	stimuli_distractor_diamondtriangles.svg	40	no	0	1	2000
6.6.0	mac	2022-12-19	14:53:23	15:00:46	442484	61f2ad10a09e72f23cbaf7aa	501408842	1	main_slash	11	advance_on_keypress_SLASH	78	stimuli_distractor_diamondtriangles.svg	stimuli_distractor_diamondtriangles.svg	40	no	57	0	263
6.6.0	mac	2022-12-19	14:53:23	15:00:48	444184	61f2ad10a09e72f23cbaf7aa	501408842	1	main_slash	11	main_slash	79	stimuli_distractor_diamondtriangles.svg	stimuli_target_diamondsquares.svg	32	yes	53	1	798
6.6.0	mac	2022-12-19	14:53:23	15:00:48	444184	61f2ad10a09e72f23cbaf7aa	501408842	1	main_slash	11	advance_on_keypress_SLASH	80	stimuli_distractor_diamondtriangles.svg	stimuli_target_diamondsquares.svg	32	yes	57	0	53
6.6.0	mac	2022-12-19	14:53:23	15:00:49	445537	61f2ad10a09e72f23cbaf7aa	501408842	1	main_slash	11	main_slash	81	stimuli_target_circletriangles.svg	stimuli_distractor_trianglediamonds.svg	1	yes	53	1	666
6.6.0	mac	2022-12-19	14:53:23	15:00:49	445537	61f2ad10a09e72f23cbaf7aa	501408842	1	main_slash	11	advance_on_keypress_SLASH	82	stimuli_target_circletriangles.svg	stimuli_distractor_trianglediamonds.svg	1	yes	57	0	36
6.6.0	mac	2022-12-19	14:53:23	15:00:50	446863	61f2ad10a09e72f23cbaf7aa	501408842	1	main_slash	11	main_slash	83	stimuli_distractor_trianglediamonds.svg	stimuli_target_diamondcircles.svg	27	yes	53	1	661
6.6.0	mac	2022-12-19	14:53:23	15:00:50	446863	61f2ad10a09e72f23cbaf7aa	501408842	1	main_slash	11	advance_on_keypress_SLASH	84	stimuli_distractor_trianglediamonds.svg	stimuli_target_diamondcircles.svg	27	yes	57	0	24
6.6.0	mac	2022-12-19	14:53:23	15:00:52	448143	61f2ad10a09e72f23cbaf7aa	501408842	1	main_slash	11	main_slash	85	stimuli_target_diamondcircles.svg	stimuli_distractor_diamondtriangles.svg	23	yes	53	1	608
6.6.0	mac	2022-12-19	14:53:23	15:00:52	448143	61f2ad10a09e72f23cbaf7aa	501408842	1	main_slash	11	advance_on_keypress_SLASH	86	stimuli_target_diamondcircles.svg	stimuli_distractor_diamondtriangles.svg	23	yes	57	0	30
6.6.0	mac	2022-12-19	14:53:23	15:00:54	450817	61f2ad10a09e72f23cbaf7aa	501408842	1	main_slash	11	main_slash	87	stimuli_distractor_trianglediamonds.svg	stimuli_distractor_diamondtriangles.svg	36	no	0	1	2000
6.6.0	mac	2022-12-19	14:53:23	15:00:54	450817	61f2ad10a09e72f23cbaf7aa	501408842	1	main_slash	11	advance_on_keypress_SLASH	88	stimuli_distractor_trianglediamonds.svg	stimuli_distractor_diamondtriangles.svg	36	no	57	0	425
6.6.0	mac	2022-12-19	14:53:23	15:00:56	452599	61f2ad10a09e72f23cbaf7aa	501408842	1	main_slash	11	main_slash	89	stimuli_distractor_diamondtriangles.svg	stimuli_target_trianglesquares.svg	30	yes	53	1	713
6.6.0	mac	2022-12-19	14:53:23	15:00:56	452599	61f2ad10a09e72f23cbaf7aa	501408842	1	main_slash	11	advance_on_keypress_SLASH	90	stimuli_distractor_diamondtriangles.svg	stimuli_target_trianglesquares.svg	30	yes	57	0	84
6.6.0	mac	2022-12-19	14:53:23	15:00:57	453959	61f2ad10a09e72f23cbaf7aa	501408842	1	main_slash	11	main_slash	91	stimuli_distractor_trianglediamonds.svg	stimuli_target_diamondsquares.svg	28	yes	53	1	640
6.6.0	mac	2022-12-19	14:53:23	15:00:57	453959	61f2ad10a09e72f23cbaf7aa	501408842	1	main_slash	11	advance_on_keypress_SLASH	92	stimuli_distractor_trianglediamonds.svg	stimuli_target_diamondsquares.svg	28	yes	57	0	46
6.6.0	mac	2022-12-19	14:53:23	15:00:59	455288	61f2ad10a09e72f23cbaf7aa	501408842	1	main_slash	11	main_slash	93	stimuli_distractor_diamondtriangles.svg	stimuli_target_trianglecircles.svg	29	yes	53	1	636
6.6.0	mac	2022-12-19	14:53:23	15:00:59	455288	61f2ad10a09e72f23cbaf7aa	501408842	1	main_slash	11	advance_on_keypress_SLASH	94	stimuli_distractor_diamondtriangles.svg	stimuli_target_trianglecircles.svg	29	yes	57	0	6
6.6.0	mac	2022-12-19	14:53:23	15:01:00	456583	61f2ad10a09e72f23cbaf7aa	501408842	1	main_slash	11	main_slash	95	stimuli_target_circletriangles.svg	stimuli_distractor_diamondtriangles.svg	5	yes	53	1	648
6.6.0	mac	2022-12-19	14:53:23	15:01:00	456583	61f2ad10a09e72f23cbaf7aa	501408842	1	main_slash	11	advance_on_keypress_SLASH	96	stimuli_target_circletriangles.svg	stimuli_distractor_diamondtriangles.svg	5	yes	57	0	45
6.6.0	mac	2022-12-19	14:53:23	15:01:01	457913	61f2ad10a09e72f23cbaf7aa	501408842	1	main_slash	11	main_slash	97	stimuli_distractor_trianglediamonds.svg	stimuli_target_circlediamonds.svg	10	yes	53	1	642
6.6.0	mac	2022-12-19	14:53:23	15:01:01	457913	61f2ad10a09e72f23cbaf7aa	501408842	1	main_slash	11	advance_on_keypress_SLASH	98	stimuli_distractor_trianglediamonds.svg	stimuli_target_circlediamonds.svg	10	yes	57	0	40
6.6.0	mac	2022-12-19	14:53:23	15:01:03	459233	61f2ad10a09e72f23cbaf7aa	501408842	1	main_slash	11	main_slash	99	stimuli_distractor_trianglediamonds.svg	stimuli_target_circletriangles.svg	9	yes	53	1	645
6.6.0	mac	2022-12-19	14:53:23	15:01:03	459233	61f2ad10a09e72f23cbaf7aa	501408842	1	main_slash	11	advance_on_keypress_SLASH	100	stimuli_distractor_trianglediamonds.svg	stimuli_target_circletriangles.svg	9	yes	57	0	52
6.6.0	mac	2022-12-19	14:53:23	15:01:04	460519	61f2ad10a09e72f23cbaf7aa	501408842	1	main_slash	11	main_slash	101	stimuli_distractor_diamondtriangles.svg	stimuli_target_circletriangles.svg	13	yes	53	1	601
6.6.0	mac	2022-12-19	14:53:23	15:01:04	460519	61f2ad10a09e72f23cbaf7aa	501408842	1	main_slash	11	advance_on_keypress_SLASH	102	stimuli_distractor_diamondtriangles.svg	stimuli_target_circletriangles.svg	13	yes	57	0	32
6.6.0	mac	2022-12-19	14:53:23	15:01:05	461793	61f2ad10a09e72f23cbaf7aa	501408842	1	main_slash	11	main_slash	103	stimuli_target_diamondsquares.svg	stimuli_distractor_diamondtriangles.svg	24	yes	53	1	606
6.6.0	mac	2022-12-19	14:53:23	15:01:05	461793	61f2ad10a09e72f23cbaf7aa	501408842	1	main_slash	11	advance_on_keypress_SLASH	104	stimuli_target_diamondsquares.svg	stimuli_distractor_diamondtriangles.svg	24	yes	57	0	36
6.6.0	mac	2022-12-19	14:53:23	15:01:06	463074	61f2ad10a09e72f23cbaf7aa	501408842	1	main_slash	11	main_slash	105	stimuli_target_squaretriangles.svg	stimuli_distractor_diamondtriangles.svg	7	yes	53	1	602
6.6.0	mac	2022-12-19	14:53:23	15:01:06	463074	61f2ad10a09e72f23cbaf7aa	501408842	1	main_slash	11	advance_on_keypress_SLASH	106	stimuli_target_squaretriangles.svg	stimuli_distractor_diamondtriangles.svg	7	yes	57	0	68
6.6.0	mac	2022-12-19	14:53:23	15:01:09	465768	61f2ad10a09e72f23cbaf7aa	501408842	1	main_slash	11	main_slash	107	stimuli_distractor_trianglediamonds.svg	stimuli_distractor_trianglediamonds.svg	33	no	0	1	2000
6.6.0	mac	2022-12-19	14:53:23	15:01:09	465768	61f2ad10a09e72f23cbaf7aa	501408842	1	main_slash	11	advance_on_keypress_SLASH	108	stimuli_distractor_trianglediamonds.svg	stimuli_distractor_trianglediamonds.svg	33	no	57	0	412
6.6.0	mac	2022-12-19	14:53:23	15:01:11	467495	61f2ad10a09e72f23cbaf7aa	501408842	1	main_slash	11	main_slash	109	stimuli_distractor_trianglediamonds.svg	stimuli_target_squaretriangles.svg	11	yes	53	1	676
6.6.0	mac	2022-12-19	14:53:23	15:01:11	467495	61f2ad10a09e72f23cbaf7aa	501408842	1	main_slash	11	advance_on_keypress_SLASH	110	stimuli_distractor_trianglediamonds.svg	stimuli_target_squaretriangles.svg	11	yes	57	0	64
6.6.0	mac	2022-12-19	14:53:23	15:01:14	470201	61f2ad10a09e72f23cbaf7aa	501408842	1	main_slash	11	main_slash	111	stimuli_distractor_trianglediamonds.svg	stimuli_distractor_trianglediamonds.svg	34	no	0	1	2000
6.6.0	mac	2022-12-19	14:53:23	15:01:14	470201	61f2ad10a09e72f23cbaf7aa	501408842	1	main_slash	11	advance_on_keypress_SLASH	112	stimuli_distractor_trianglediamonds.svg	stimuli_distractor_trianglediamonds.svg	34	no	57	0	528
6.6.0	mac	2022-12-19	14:53:23	15:01:15	472066	61f2ad10a09e72f23cbaf7aa	501408842	1	main_slash	11	main_slash	113	stimuli_target_squarediamonds.svg	stimuli_distractor_trianglediamonds.svg	4	yes	53	1	698
6.6.0	mac	2022-12-19	14:53:23	15:01:15	472066	61f2ad10a09e72f23cbaf7aa	501408842	1	main_slash	11	advance_on_keypress_SLASH	114	stimuli_target_squarediamonds.svg	stimuli_distractor_trianglediamonds.svg	4	yes	57	0	50
6.6.0	mac	2022-12-19	14:53:23	15:01:17	473384	61f2ad10a09e72f23cbaf7aa	501408842	1	main_slash	11	main_slash	115	stimuli_distractor_trianglediamonds.svg	stimuli_target_squarediamonds.svg	12	yes	53	1	631
6.6.0	mac	2022-12-19	14:53:23	15:01:17	473384	61f2ad10a09e72f23cbaf7aa	501408842	1	main_slash	11	advance_on_keypress_SLASH	116	stimuli_distractor_trianglediamonds.svg	stimuli_target_squarediamonds.svg	12	yes	57	0	53
6.6.0	mac	2022-12-19	14:53:23	15:01:18	474691	61f2ad10a09e72f23cbaf7aa	501408842	1	main_slash	11	main_slash	117	stimuli_distractor_trianglediamonds.svg	stimuli_target_trianglecircles.svg	25	yes	53	1	618
6.6.0	mac	2022-12-19	14:53:23	15:01:18	474691	61f2ad10a09e72f23cbaf7aa	501408842	1	main_slash	11	advance_on_keypress_SLASH	118	stimuli_distractor_trianglediamonds.svg	stimuli_target_trianglecircles.svg	25	yes	57	0	52
6.6.0	mac	2022-12-19	14:53:23	15:01:19	475911	61f2ad10a09e72f23cbaf7aa	501408842	1	main_slash	11	main_slash	119	stimuli_target_trianglesquares.svg	stimuli_distractor_trianglediamonds.svg	18	yes	53	1	542
6.6.0	mac	2022-12-19	14:53:23	15:01:19	475911	61f2ad10a09e72f23cbaf7aa	501408842	1	main_slash	11	advance_on_keypress_SLASH	120	stimuli_target_trianglesquares.svg	stimuli_distractor_trianglediamonds.svg	18	yes	57	0	64
6.6.0	mac	2022-12-19	14:53:23	15:01:22	478617	61f2ad10a09e72f23cbaf7aa	501408842	1	main_slash	11	main_slash	121	stimuli_distractor_diamondtriangles.svg	stimuli_distractor_diamondtriangles.svg	40	no	0	1	2000
6.6.0	mac	2022-12-19	14:53:23	15:01:22	478617	61f2ad10a09e72f23cbaf7aa	501408842	1	main_slash	11	advance_on_keypress_SLASH	122	stimuli_distractor_diamondtriangles.svg	stimuli_distractor_diamondtriangles.svg	40	no	57	0	260
6.6.0	mac	2022-12-19	14:53:23	15:01:25	481518	61f2ad10a09e72f23cbaf7aa	501408842	1	main_slash	11	main_slash	123	stimuli_distractor_diamondtriangles.svg	stimuli_distractor_diamondtriangles.svg	39	no	0	1	2000
6.6.0	mac	2022-12-19	14:53:23	15:01:25	481518	61f2ad10a09e72f23cbaf7aa	501408842	1	main_slash	11	advance_on_keypress_SLASH	124	stimuli_distractor_diamondtriangles.svg	stimuli_distractor_diamondtriangles.svg	39	no	57	0	240
6.6.0	mac	2022-12-19	14:53:23	15:01:27	483335	61f2ad10a09e72f23cbaf7aa	501408842	1	main_slash	11	main_slash	125	stimuli_distractor_diamondtriangles.svg	stimuli_target_squarediamonds.svg	16	yes	53	1	950
6.6.0	mac	2022-12-19	14:53:23	15:01:27	483335	61f2ad10a09e72f23cbaf7aa	501408842	1	main_slash	11	advance_on_keypress_SLASH	126	stimuli_distractor_diamondtriangles.svg	stimuli_target_squarediamonds.svg	16	yes	57	0	63
6.6.0	mac	2022-12-19	14:53:23	15:01:28	484791	61f2ad10a09e72f23cbaf7aa	501408842	1	main_slash	11	main_slash	127	stimuli_distractor_trianglediamonds.svg	stimuli_target_trianglesquares.svg	26	yes	53	1	756
6.6.0	mac	2022-12-19	14:53:23	15:01:28	484791	61f2ad10a09e72f23cbaf7aa	501408842	1	main_slash	11	advance_on_keypress_SLASH	128	stimuli_distractor_trianglediamonds.svg	stimuli_target_trianglesquares.svg	26	yes	57	0	21
6.6.0	mac	2022-12-19	14:53:23	15:01:30	486238	61f2ad10a09e72f23cbaf7aa	501408842	1	main_slash	11	main_slash	129	stimuli_target_diamondsquares.svg	stimuli_distractor_trianglediamonds.svg	20	yes	53	1	804
6.6.0	mac	2022-12-19	14:53:23	15:01:30	486238	61f2ad10a09e72f23cbaf7aa	501408842	1	main_slash	11	advance_on_keypress_SLASH	130	stimuli_target_diamondsquares.svg	stimuli_distractor_trianglediamonds.svg	20	yes	57	0	47
6.6.0	mac	2022-12-19	14:53:23	15:01:31	487628	61f2ad10a09e72f23cbaf7aa	501408842	1	main_slash	11	main_slash	131	stimuli_target_circlediamonds.svg	stimuli_distractor_diamondtriangles.svg	6	yes	53	1	704
6.6.0	mac	2022-12-19	14:53:23	15:01:31	487628	61f2ad10a09e72f23cbaf7aa	501408842	1	main_slash	11	advance_on_keypress_SLASH	132	stimuli_target_circlediamonds.svg	stimuli_distractor_diamondtriangles.svg	6	yes	57	0	19
6.6.0	mac	2022-12-19	14:53:23	15:01:34	490283	61f2ad10a09e72f23cbaf7aa	501408842	1	main_slash	11	main_slash	133	stimuli_distractor_trianglediamonds.svg	stimuli_distractor_diamondtriangles.svg	35	no	0	1	2000
6.6.0	mac	2022-12-19	14:53:23	15:01:34	490283	61f2ad10a09e72f23cbaf7aa	501408842	1	main_slash	11	advance_on_keypress_SLASH	134	stimuli_distractor_trianglediamonds.svg	stimuli_distractor_diamondtriangles.svg	35	no	57	0	395
6.6.0	mac	2022-12-19	14:53:23	15:01:36	492177	61f2ad10a09e72f23cbaf7aa	501408842	1	main_slash	11	main_slash	135	stimuli_target_trianglecircles.svg	stimuli_distractor_diamondtriangles.svg	21	yes	53	1	859
6.6.0	mac	2022-12-19	14:53:23	15:01:36	492177	61f2ad10a09e72f23cbaf7aa	501408842	1	main_slash	11	advance_on_keypress_SLASH	136	stimuli_target_trianglecircles.svg	stimuli_distractor_diamondtriangles.svg	21	yes	57	0	3
6.6.0	mac	2022-12-19	14:53:23	15:01:37	493504	61f2ad10a09e72f23cbaf7aa	501408842	1	main_slash	11	main_slash	137	stimuli_distractor_diamondtriangles.svg	stimuli_target_diamondcircles.svg	31	yes	53	1	668
6.6.0	mac	2022-12-19	14:53:23	15:01:37	493504	61f2ad10a09e72f23cbaf7aa	501408842	1	main_slash	11	advance_on_keypress_SLASH	138	stimuli_distractor_diamondtriangles.svg	stimuli_target_diamondcircles.svg	31	yes	57	0	19
6.6.0	mac	2022-12-19	14:53:23	15:01:38	494863	61f2ad10a09e72f23cbaf7aa	501408842	1	main_slash	11	main_slash	139	stimuli_target_circlediamonds.svg	stimuli_distractor_trianglediamonds.svg	2	yes	53	1	711
6.6.0	mac	2022-12-19	14:53:23	15:01:38	494863	61f2ad10a09e72f23cbaf7aa	501408842	1	main_slash	11	advance_on_keypress_SLASH	140	stimuli_target_circlediamonds.svg	stimuli_distractor_trianglediamonds.svg	2	yes	57	0	12
6.6.0	mac	2022-12-19	14:53:23	15:01:40	496120	61f2ad10a09e72f23cbaf7aa	501408842	1	main_slash	11	main_slash	141	stimuli_target_diamondcircles.svg	stimuli_distractor_trianglediamonds.svg	19	yes	53	1	600
6.6.0	mac	2022-12-19	14:53:23	15:01:40	496120	61f2ad10a09e72f23cbaf7aa	501408842	1	main_slash	11	advance_on_keypress_SLASH	142	stimuli_target_diamondcircles.svg	stimuli_distractor_trianglediamonds.svg	19	yes	57	0	37
6.6.0	mac	2022-12-19	14:53:23	15:01:41	497391	61f2ad10a09e72f23cbaf7aa	501408842	1	main_slash	11	main_slash	143	stimuli_distractor_diamondtriangles.svg	stimuli_target_circlediamonds.svg	14	yes	53	1	607
6.6.0	mac	2022-12-19	14:53:23	15:01:41	497391	61f2ad10a09e72f23cbaf7aa	501408842	1	main_slash	11	advance_on_keypress_SLASH	144	stimuli_distractor_diamondtriangles.svg	stimuli_target_circlediamonds.svg	14	yes	57	0	52
6.6.0	mac	2022-12-19	14:53:23	15:01:42	498696	61f2ad10a09e72f23cbaf7aa	501408842	1	main_slash	11	main_slash	145	stimuli_target_squarediamonds.svg	stimuli_distractor_diamondtriangles.svg	8	yes	53	1	625
6.6.0	mac	2022-12-19	14:53:23	15:01:42	498696	61f2ad10a09e72f23cbaf7aa	501408842	1	main_slash	11	advance_on_keypress_SLASH	146	stimuli_target_squarediamonds.svg	stimuli_distractor_diamondtriangles.svg	8	yes	57	0	24
6.6.0	mac	2022-12-19	14:53:23	15:01:44	500167	61f2ad10a09e72f23cbaf7aa	501408842	1	main_slash	11	main_slash	147	stimuli_target_trianglesquares.svg	stimuli_distractor_diamondtriangles.svg	22	yes	53	1	815
6.6.0	mac	2022-12-19	14:53:23	15:01:44	500167	61f2ad10a09e72f23cbaf7aa	501408842	1	main_slash	11	advance_on_keypress_SLASH	148	stimuli_target_trianglesquares.svg	stimuli_distractor_diamondtriangles.svg	22	yes	57	0	22
6.6.0	mac	2022-12-19	14:53:23	15:01:45	501503	61f2ad10a09e72f23cbaf7aa	501408842	1	main_slash	11	main_slash	149	stimuli_target_trianglecircles.svg	stimuli_distractor_trianglediamonds.svg	17	yes	53	1	684
6.6.0	mac	2022-12-19	14:53:23	15:01:45	501503	61f2ad10a09e72f23cbaf7aa	501408842	1	main_slash	11	advance_on_keypress_SLASH	150	stimuli_target_trianglecircles.svg	stimuli_distractor_trianglediamonds.svg	17	yes	57	0	64
6.6.0	mac	2022-12-19	14:53:23	15:01:46	502856	61f2ad10a09e72f23cbaf7aa	501408842	1	main_slash	11	main_slash	151	stimuli_target_squaretriangles.svg	stimuli_distractor_trianglediamonds.svg	3	yes	53	1	653
6.6.0	mac	2022-12-19	14:53:23	15:01:46	502856	61f2ad10a09e72f23cbaf7aa	501408842	1	main_slash	11	advance_on_keypress_SLASH	152	stimuli_target_squaretriangles.svg	stimuli_distractor_trianglediamonds.svg	3	yes	57	0	31
6.6.0	mac	2022-12-19	14:53:23	15:01:48	504103	61f2ad10a09e72f23cbaf7aa	501408842	1	main_slash	11	main_slash	153	stimuli_distractor_diamondtriangles.svg	stimuli_target_diamondsquares.svg	32	yes	53	1	585
6.6.0	mac	2022-12-19	14:53:23	15:01:48	504103	61f2ad10a09e72f23cbaf7aa	501408842	1	main_slash	11	advance_on_keypress_SLASH	154	stimuli_distractor_diamondtriangles.svg	stimuli_target_diamondsquares.svg	32	yes	57	0	24
6.6.0	mac	2022-12-19	14:53:23	15:01:50	506767	61f2ad10a09e72f23cbaf7aa	501408842	1	main_slash	11	main_slash	155	stimuli_distractor_diamondtriangles.svg	stimuli_distractor_trianglediamonds.svg	38	no	0	1	2000
6.6.0	mac	2022-12-19	14:53:23	15:01:50	506767	61f2ad10a09e72f23cbaf7aa	501408842	1	main_slash	11	advance_on_keypress_SLASH	156	stimuli_distractor_diamondtriangles.svg	stimuli_distractor_trianglediamonds.svg	38	no	57	0	463
6.6.0	mac	2022-12-19	14:53:23	15:01:53	509870	61f2ad10a09e72f23cbaf7aa	501408842	1	main_slash	11	main_slash	157	stimuli_distractor_diamondtriangles.svg	stimuli_distractor_trianglediamonds.svg	37	no	0	1	2000
6.6.0	mac	2022-12-19	14:53:23	15:01:53	509870	61f2ad10a09e72f23cbaf7aa	501408842	1	main_slash	11	advance_on_keypress_SLASH	158	stimuli_distractor_diamondtriangles.svg	stimuli_distractor_trianglediamonds.svg	37	no	57	0	467
6.6.0	mac	2022-12-19	14:53:23	15:01:55	511848	61f2ad10a09e72f23cbaf7aa	501408842	1	main_slash	11	main_slash	159	stimuli_distractor_diamondtriangles.svg	stimuli_target_squaretriangles.svg	15	yes	53	1	879
6.6.0	mac	2022-12-19	14:53:23	15:01:55	511848	61f2ad10a09e72f23cbaf7aa	501408842	1	main_slash	11	advance_on_keypress_SLASH	160	stimuli_distractor_diamondtriangles.svg	stimuli_target_squaretriangles.svg	15	yes	57	0	18