build	computer.platform	date	time	timestamp	time_elapsed_ms	subject	group	session	blockcode	blocknum	trialcode	trialnum	stimulus_left	stimulus_right	stim_index	target_present	response	correct	latency
6.6.1	win	2023-01-03	10:06:00	10:08:49	165082	5ec49137e7928537488485ea	184623022	1	practice_z	5	practice_z	1	stimuli_distractor_trianglediamonds.svg	stimuli_target_squarediamonds.svg	11	yes	0	0	2000
6.6.1	win	2023-01-03	10:06:00	10:08:49	165082	5ec49137e7928537488485ea	184623022	1	practice_z	5	advance_on_keypress_ZEE	2	stimuli_distractor_trianglediamonds.svg	stimuli_target_squarediamonds.svg	11	yes	57	0	2129
6.6.1	win	2023-01-03	10:06:00	10:08:55	170866	5ec49137e7928537488485ea	184623022	1	practice_z	5	practice_z	3	stimuli_distractor_diamondtriangles.svg	stimuli_distractor_diamondtriangles.svg	13	no	0	1	2000
6.6.1	win	2023-01-03	10:06:00	10:08:55	170866	5ec49137e7928537488485ea	184623022	1	practice_z	5	advance_on_keypress_ZEE	4	stimuli_distractor_diamondtriangles.svg	stimuli_distractor_diamondtriangles.svg	13	no	57	0	1507
6.6.1	win	2023-01-03	10:06:00	10:09:00	176017	5ec49137e7928537488485ea	184623022	1	practice_z	5	practice_z	5	stimuli_distractor_diamondtriangles.svg	stimuli_distractor_trianglediamonds.svg	14	no	0	1	2000
6.6.1	win	2023-01-03	10:06:00	10:09:00	176017	5ec49137e7928537488485ea	184623022	1	practice_z	5	advance_on_keypress_ZEE	6	stimuli_distractor_diamondtriangles.svg	stimuli_distractor_trianglediamonds.svg	14	no	57	0	991
6.6.1	win	2023-01-03	10:06:00	10:09:04	179753	5ec49137e7928537488485ea	184623022	1	practice_z	5	practice_z	7	stimuli_target_diamondsquares.svg	stimuli_distractor_diamondtriangles.svg	3	yes	44	1	1085
6.6.1	win	2023-01-03	10:06:00	10:09:04	179753	5ec49137e7928537488485ea	184623022	1	practice_z	5	advance_on_keypress_ZEE	8	stimuli_target_diamondsquares.svg	stimuli_distractor_diamondtriangles.svg	3	yes	57	0	1007
6.6.1	win	2023-01-03	10:06:00	10:09:09	184401	5ec49137e7928537488485ea	184623022	1	practice_z	5	practice_z	9	stimuli_distractor_trianglediamonds.svg	stimuli_distractor_trianglediamonds.svg	15	no	0	1	2000
6.6.1	win	2023-01-03	10:06:00	10:09:09	184401	5ec49137e7928537488485ea	184623022	1	practice_z	5	advance_on_keypress_ZEE	10	stimuli_distractor_trianglediamonds.svg	stimuli_distractor_trianglediamonds.svg	15	no	57	0	1172
6.6.1	win	2023-01-03	10:06:00	10:09:12	187837	5ec49137e7928537488485ea	184623022	1	practice_z	5	practice_z	11	stimuli_distractor_diamondtriangles.svg	stimuli_target_diamondcircles.svg	8	yes	44	1	619
6.6.1	win	2023-01-03	10:06:00	10:09:12	187837	5ec49137e7928537488485ea	184623022	1	practice_z	5	advance_on_keypress_ZEE	12	stimuli_distractor_diamondtriangles.svg	stimuli_target_diamondcircles.svg	8	yes	57	0	817
6.6.1	win	2023-01-03	10:06:00	10:09:16	191388	5ec49137e7928537488485ea	184623022	1	practice_z	5	practice_z	13	stimuli_distractor_diamondtriangles.svg	stimuli_target_circletriangles.svg	7	yes	44	1	1086
6.6.1	win	2023-01-03	10:06:00	10:09:16	191388	5ec49137e7928537488485ea	184623022	1	practice_z	5	advance_on_keypress_ZEE	14	stimuli_distractor_diamondtriangles.svg	stimuli_target_circletriangles.svg	7	yes	57	0	578
6.6.1	win	2023-01-03	10:06:00	10:09:18	194145	5ec49137e7928537488485ea	184623022	1	practice_z	5	practice_z	15	stimuli_distractor_diamondtriangles.svg	stimuli_target_trianglecircles.svg	9	yes	44	1	527
6.6.1	win	2023-01-03	10:06:00	10:09:18	194145	5ec49137e7928537488485ea	184623022	1	practice_z	5	advance_on_keypress_ZEE	16	stimuli_distractor_diamondtriangles.svg	stimuli_target_trianglecircles.svg	9	yes	57	0	504
6.6.1	win	2023-01-03	10:06:00	10:09:21	196927	5ec49137e7928537488485ea	184623022	1	practice_z	5	practice_z	17	stimuli_target_squarediamonds.svg	stimuli_distractor_diamondtriangles.svg	2	yes	44	1	642
6.6.1	win	2023-01-03	10:06:00	10:09:21	196927	5ec49137e7928537488485ea	184623022	1	practice_z	5	advance_on_keypress_ZEE	18	stimuli_target_squarediamonds.svg	stimuli_distractor_diamondtriangles.svg	2	yes	57	0	449
6.6.1	win	2023-01-03	10:06:00	10:09:25	201019	5ec49137e7928537488485ea	184623022	1	practice_z	5	practice_z	19	stimuli_distractor_trianglediamonds.svg	stimuli_distractor_diamondtriangles.svg	16	no	0	1	2000
6.6.1	win	2023-01-03	10:06:00	10:09:25	201019	5ec49137e7928537488485ea	184623022	1	practice_z	5	advance_on_keypress_ZEE	20	stimuli_distractor_trianglediamonds.svg	stimuli_distractor_diamondtriangles.svg	16	no	57	0	420
6.6.1	win	2023-01-03	10:06:00	10:09:28	203634	5ec49137e7928537488485ea	184623022	1	practice_z	5	practice_z	21	stimuli_target_circlediamonds.svg	stimuli_distractor_diamondtriangles.svg	1	yes	44	1	549
6.6.1	win	2023-01-03	10:06:00	10:09:28	203634	5ec49137e7928537488485ea	184623022	1	practice_z	5	advance_on_keypress_ZEE	22	stimuli_target_circlediamonds.svg	stimuli_distractor_diamondtriangles.svg	1	yes	57	0	504
6.6.1	win	2023-01-03	10:06:00	10:09:31	206338	5ec49137e7928537488485ea	184623022	1	practice_z	5	practice_z	23	stimuli_target_circlediamonds.svg	stimuli_distractor_trianglediamonds.svg	4	yes	44	1	552
6.6.1	win	2023-01-03	10:06:00	10:09:31	206338	5ec49137e7928537488485ea	184623022	1	practice_z	5	advance_on_keypress_ZEE	24	stimuli_target_circlediamonds.svg	stimuli_distractor_trianglediamonds.svg	4	yes	57	0	431
6.6.1	win	2023-01-03	10:06:00	10:09:33	209021	5ec49137e7928537488485ea	184623022	1	practice_z	5	practice_z	25	stimuli_distractor_trianglediamonds.svg	stimuli_target_circlediamonds.svg	10	yes	44	1	601
6.6.1	win	2023-01-03	10:06:00	10:09:33	209021	5ec49137e7928537488485ea	184623022	1	practice_z	5	advance_on_keypress_ZEE	26	stimuli_distractor_trianglediamonds.svg	stimuli_target_circlediamonds.svg	10	yes	57	0	352
6.6.1	win	2023-01-03	10:06:00	10:09:36	211696	5ec49137e7928537488485ea	184623022	1	practice_z	5	practice_z	27	stimuli_target_diamondsquares.svg	stimuli_distractor_trianglediamonds.svg	6	yes	44	1	674
6.6.1	win	2023-01-03	10:06:00	10:09:36	211696	5ec49137e7928537488485ea	184623022	1	practice_z	5	advance_on_keypress_ZEE	28	stimuli_target_diamondsquares.svg	stimuli_distractor_trianglediamonds.svg	6	yes	57	0	338
6.6.1	win	2023-01-03	10:06:00	10:09:39	214443	5ec49137e7928537488485ea	184623022	1	practice_z	5	practice_z	29	stimuli_target_squarediamonds.svg	stimuli_distractor_trianglediamonds.svg	5	yes	44	1	773
6.6.1	win	2023-01-03	10:06:00	10:09:39	214443	5ec49137e7928537488485ea	184623022	1	practice_z	5	advance_on_keypress_ZEE	30	stimuli_target_squarediamonds.svg	stimuli_distractor_trianglediamonds.svg	5	yes	57	0	260
6.6.1	win	2023-01-03	10:06:00	10:09:41	217081	5ec49137e7928537488485ea	184623022	1	practice_z	5	practice_z	31	stimuli_distractor_trianglediamonds.svg	stimuli_target_diamondcircles.svg	12	yes	44	1	726
6.6.1	win	2023-01-03	10:06:00	10:09:41	217081	5ec49137e7928537488485ea	184623022	1	practice_z	5	advance_on_keypress_ZEE	32	stimuli_distractor_trianglediamonds.svg	stimuli_target_diamondcircles.svg	12	yes	57	0	304
6.6.1	win	2023-01-03	10:06:00	10:10:12	247500	5ec49137e7928537488485ea	184623022	1	main_z	7	main_z	1	stimuli_distractor_diamondtriangles.svg	stimuli_target_circletriangles.svg	13	yes	44	1	612
6.6.1	win	2023-01-03	10:06:00	10:10:12	247500	5ec49137e7928537488485ea	184623022	1	main_z	7	advance_on_keypress_ZEE	2	stimuli_distractor_diamondtriangles.svg	stimuli_target_circletriangles.svg	13	yes	57	0	2367
6.6.1	win	2023-01-03	10:06:00	10:10:15	251185	5ec49137e7928537488485ea	184623022	1	main_z	7	main_z	3	stimuli_target_diamondsquares.svg	stimuli_distractor_trianglediamonds.svg	20	yes	44	1	662
6.6.1	win	2023-01-03	10:06:00	10:10:15	251185	5ec49137e7928537488485ea	184623022	1	main_z	7	advance_on_keypress_ZEE	4	stimuli_target_diamondsquares.svg	stimuli_distractor_trianglediamonds.svg	20	yes	57	0	1181
6.6.1	win	2023-01-03	10:06:00	10:10:18	253958	5ec49137e7928537488485ea	184623022	1	main_z	7	main_z	5	stimuli_target_trianglesquares.svg	stimuli_distractor_trianglediamonds.svg	18	yes	44	1	935
6.6.1	win	2023-01-03	10:06:00	10:10:18	253958	5ec49137e7928537488485ea	184623022	1	main_z	7	advance_on_keypress_ZEE	6	stimuli_target_trianglesquares.svg	stimuli_distractor_trianglediamonds.svg	18	yes	57	0	797
6.6.1	win	2023-01-03	10:06:00	10:10:20	255995	5ec49137e7928537488485ea	184623022	1	main_z	7	main_z	7	stimuli_distractor_trianglediamonds.svg	stimuli_target_diamondcircles.svg	27	yes	44	1	590
6.6.1	win	2023-01-03	10:06:00	10:10:20	255995	5ec49137e7928537488485ea	184623022	1	main_z	7	advance_on_keypress_ZEE	8	stimuli_distractor_trianglediamonds.svg	stimuli_target_diamondcircles.svg	27	yes	57	0	797
6.6.1	win	2023-01-03	10:06:00	10:10:22	258118	5ec49137e7928537488485ea	184623022	1	main_z	7	main_z	9	stimuli_target_circletriangles.svg	stimuli_distractor_diamondtriangles.svg	5	yes	44	1	678
6.6.1	win	2023-01-03	10:06:00	10:10:22	258118	5ec49137e7928537488485ea	184623022	1	main_z	7	advance_on_keypress_ZEE	10	stimuli_target_circletriangles.svg	stimuli_distractor_diamondtriangles.svg	5	yes	57	0	812
6.6.1	win	2023-01-03	10:06:00	10:10:24	260230	5ec49137e7928537488485ea	184623022	1	main_z	7	main_z	11	stimuli_distractor_trianglediamonds.svg	stimuli_target_squarediamonds.svg	12	yes	44	1	674
6.6.1	win	2023-01-03	10:06:00	10:10:24	260230	5ec49137e7928537488485ea	184623022	1	main_z	7	advance_on_keypress_ZEE	12	stimuli_distractor_trianglediamonds.svg	stimuli_target_squarediamonds.svg	12	yes	57	0	727
6.6.1	win	2023-01-03	10:06:00	10:10:28	263590	5ec49137e7928537488485ea	184623022	1	main_z	7	main_z	13	stimuli_distractor_diamondtriangles.svg	stimuli_target_squarediamonds.svg	16	yes	0	0	2000
6.6.1	win	2023-01-03	10:06:00	10:10:28	263590	5ec49137e7928537488485ea	184623022	1	main_z	7	advance_on_keypress_ZEE	14	stimuli_distractor_diamondtriangles.svg	stimuli_target_squarediamonds.svg	16	yes	57	0	504
6.6.1	win	2023-01-03	10:06:00	10:10:30	265321	5ec49137e7928537488485ea	184623022	1	main_z	7	main_z	15	stimuli_target_trianglecircles.svg	stimuli_distractor_trianglediamonds.svg	17	yes	44	1	581
6.6.1	win	2023-01-03	10:06:00	10:10:30	265321	5ec49137e7928537488485ea	184623022	1	main_z	7	advance_on_keypress_ZEE	16	stimuli_target_trianglecircles.svg	stimuli_distractor_trianglediamonds.svg	17	yes	57	0	813
6.6.1	win	2023-01-03	10:06:00	10:10:32	267419	5ec49137e7928537488485ea	184623022	1	main_z	7	main_z	17	stimuli_target_squaretriangles.svg	stimuli_distractor_trianglediamonds.svg	3	yes	44	1	630
6.6.1	win	2023-01-03	10:06:00	10:10:32	267419	5ec49137e7928537488485ea	184623022	1	main_z	7	advance_on_keypress_ZEE	18	stimuli_target_squaretriangles.svg	stimuli_distractor_trianglediamonds.svg	3	yes	57	0	764
6.6.1	win	2023-01-03	10:06:00	10:10:34	269496	5ec49137e7928537488485ea	184623022	1	main_z	7	main_z	19	stimuli_target_circlediamonds.svg	stimuli_distractor_diamondtriangles.svg	6	yes	44	1	656
6.6.1	win	2023-01-03	10:06:00	10:10:34	269496	5ec49137e7928537488485ea	184623022	1	main_z	7	advance_on_keypress_ZEE	20	stimuli_target_circlediamonds.svg	stimuli_distractor_diamondtriangles.svg	6	yes	57	0	739
6.6.1	win	2023-01-03	10:06:00	10:10:36	271524	5ec49137e7928537488485ea	184623022	1	main_z	7	main_z	21	stimuli_distractor_diamondtriangles.svg	stimuli_target_diamondcircles.svg	31	yes	44	1	650
6.6.1	win	2023-01-03	10:06:00	10:10:36	271524	5ec49137e7928537488485ea	184623022	1	main_z	7	advance_on_keypress_ZEE	22	stimuli_distractor_diamondtriangles.svg	stimuli_target_diamondcircles.svg	31	yes	57	0	665
6.6.1	win	2023-01-03	10:06:00	10:10:38	273496	5ec49137e7928537488485ea	184623022	1	main_z	7	main_z	23	stimuli_target_trianglecircles.svg	stimuli_distractor_diamondtriangles.svg	21	yes	44	1	655
6.6.1	win	2023-01-03	10:06:00	10:10:38	273496	5ec49137e7928537488485ea	184623022	1	main_z	7	advance_on_keypress_ZEE	24	stimuli_target_trianglecircles.svg	stimuli_distractor_diamondtriangles.svg	21	yes	57	0	664
6.6.1	win	2023-01-03	10:06:00	10:10:40	275562	5ec49137e7928537488485ea	184623022	1	main_z	7	main_z	25	stimuli_target_squaretriangles.svg	stimuli_distractor_diamondtriangles.svg	7	yes	44	1	755
6.6.1	win	2023-01-03	10:06:00	10:10:40	275562	5ec49137e7928537488485ea	184623022	1	main_z	7	advance_on_keypress_ZEE	26	stimuli_target_squaretriangles.svg	stimuli_distractor_diamondtriangles.svg	7	yes	57	0	641
6.6.1	win	2023-01-03	10:06:00	10:10:43	278841	5ec49137e7928537488485ea	184623022	1	main_z	7	main_z	27	stimuli_distractor_diamondtriangles.svg	stimuli_distractor_trianglediamonds.svg	38	no	0	1	2000
6.6.1	win	2023-01-03	10:06:00	10:10:43	278841	5ec49137e7928537488485ea	184623022	1	main_z	7	advance_on_keypress_ZEE	28	stimuli_distractor_diamondtriangles.svg	stimuli_distractor_trianglediamonds.svg	38	no	57	0	295
6.6.1	win	2023-01-03	10:06:00	10:10:46	281775	5ec49137e7928537488485ea	184623022	1	main_z	7	main_z	29	stimuli_distractor_trianglediamonds.svg	stimuli_target_circlediamonds.svg	10	yes	0	0	2000
6.6.1	win	2023-01-03	10:06:00	10:10:46	281775	5ec49137e7928537488485ea	184623022	1	main_z	7	advance_on_keypress_ZEE	30	stimuli_distractor_trianglediamonds.svg	stimuli_target_circlediamonds.svg	10	yes	57	0	285
6.6.1	win	2023-01-03	10:06:00	10:10:48	283534	5ec49137e7928537488485ea	184623022	1	main_z	7	main_z	31	stimuli_distractor_diamondtriangles.svg	stimuli_target_trianglesquares.svg	30	yes	44	1	826
6.6.1	win	2023-01-03	10:06:00	10:10:48	283534	5ec49137e7928537488485ea	184623022	1	main_z	7	advance_on_keypress_ZEE	32	stimuli_distractor_diamondtriangles.svg	stimuli_target_trianglesquares.svg	30	yes	57	0	763
6.6.1	win	2023-01-03	10:06:00	10:10:50	285656	5ec49137e7928537488485ea	184623022	1	main_z	7	main_z	33	stimuli_target_diamondsquares.svg	stimuli_distractor_diamondtriangles.svg	24	yes	44	1	730
6.6.1	win	2023-01-03	10:06:00	10:10:50	285656	5ec49137e7928537488485ea	184623022	1	main_z	7	advance_on_keypress_ZEE	34	stimuli_target_diamondsquares.svg	stimuli_distractor_diamondtriangles.svg	24	yes	57	0	672
6.6.1	win	2023-01-03	10:06:00	10:10:53	288975	5ec49137e7928537488485ea	184623022	1	main_z	7	main_z	35	stimuli_distractor_diamondtriangles.svg	stimuli_distractor_trianglediamonds.svg	37	no	0	1	2000
6.6.1	win	2023-01-03	10:06:00	10:10:53	288975	5ec49137e7928537488485ea	184623022	1	main_z	7	advance_on_keypress_ZEE	36	stimuli_distractor_diamondtriangles.svg	stimuli_distractor_trianglediamonds.svg	37	no	57	0	558
6.6.1	win	2023-01-03	10:06:00	10:10:55	290949	5ec49137e7928537488485ea	184623022	1	main_z	7	main_z	37	stimuli_distractor_diamondtriangles.svg	stimuli_target_trianglecircles.svg	29	yes	44	1	773
6.6.1	win	2023-01-03	10:06:00	10:10:55	290949	5ec49137e7928537488485ea	184623022	1	main_z	7	advance_on_keypress_ZEE	38	stimuli_distractor_diamondtriangles.svg	stimuli_target_trianglecircles.svg	29	yes	57	0	795
6.6.1	win	2023-01-03	10:06:00	10:10:57	293135	5ec49137e7928537488485ea	184623022	1	main_z	7	main_z	39	stimuli_target_diamondcircles.svg	stimuli_distractor_diamondtriangles.svg	23	yes	44	1	759
6.6.1	win	2023-01-03	10:06:00	10:10:57	293135	5ec49137e7928537488485ea	184623022	1	main_z	7	advance_on_keypress_ZEE	40	stimuli_target_diamondcircles.svg	stimuli_distractor_diamondtriangles.svg	23	yes	57	0	558
6.6.1	win	2023-01-03	10:06:00	10:11:01	296326	5ec49137e7928537488485ea	184623022	1	main_z	7	main_z	41	stimuli_distractor_diamondtriangles.svg	stimuli_distractor_diamondtriangles.svg	39	no	0	1	2000
6.6.1	win	2023-01-03	10:06:00	10:11:01	296326	5ec49137e7928537488485ea	184623022	1	main_z	7	advance_on_keypress_ZEE	42	stimuli_distractor_diamondtriangles.svg	stimuli_distractor_diamondtriangles.svg	39	no	57	0	342
6.6.1	win	2023-01-03	10:06:00	10:11:02	297981	5ec49137e7928537488485ea	184623022	1	main_z	7	main_z	43	stimuli_target_squarediamonds.svg	stimuli_distractor_trianglediamonds.svg	4	yes	44	1	671
6.6.1	win	2023-01-03	10:06:00	10:11:02	297981	5ec49137e7928537488485ea	184623022	1	main_z	7	advance_on_keypress_ZEE	44	stimuli_target_squarediamonds.svg	stimuli_distractor_trianglediamonds.svg	4	yes	57	0	529
6.6.1	win	2023-01-03	10:06:00	10:11:04	299878	5ec49137e7928537488485ea	184623022	1	main_z	7	main_z	45	stimuli_target_trianglesquares.svg	stimuli_distractor_diamondtriangles.svg	22	yes	44	1	735
6.6.1	win	2023-01-03	10:06:00	10:11:04	299878	5ec49137e7928537488485ea	184623022	1	main_z	7	advance_on_keypress_ZEE	46	stimuli_target_trianglesquares.svg	stimuli_distractor_diamondtriangles.svg	22	yes	57	0	705
6.6.1	win	2023-01-03	10:06:00	10:11:07	303227	5ec49137e7928537488485ea	184623022	1	main_z	7	main_z	47	stimuli_distractor_trianglediamonds.svg	stimuli_distractor_diamondtriangles.svg	36	no	0	1	2000
6.6.1	win	2023-01-03	10:06:00	10:11:07	303227	5ec49137e7928537488485ea	184623022	1	main_z	7	advance_on_keypress_ZEE	48	stimuli_distractor_trianglediamonds.svg	stimuli_distractor_diamondtriangles.svg	36	no	57	0	274
6.6.1	win	2023-01-03	10:06:00	10:11:09	305004	5ec49137e7928537488485ea	184623022	1	main_z	7	main_z	49	stimuli_distractor_diamondtriangles.svg	stimuli_target_circlediamonds.svg	14	yes	44	1	860
6.6.1	win	2023-01-03	10:06:00	10:11:09	305004	5ec49137e7928537488485ea	184623022	1	main_z	7	advance_on_keypress_ZEE	50	stimuli_distractor_diamondtriangles.svg	stimuli_target_circlediamonds.svg	14	yes	57	0	514
6.6.1	win	2023-01-03	10:06:00	10:11:11	306951	5ec49137e7928537488485ea	184623022	1	main_z	7	main_z	51	stimuli_target_diamondcircles.svg	stimuli_distractor_trianglediamonds.svg	19	yes	44	1	791
6.6.1	win	2023-01-03	10:06:00	10:11:11	306951	5ec49137e7928537488485ea	184623022	1	main_z	7	advance_on_keypress_ZEE	52	stimuli_target_diamondcircles.svg	stimuli_distractor_trianglediamonds.svg	19	yes	57	0	471
6.6.1	win	2023-01-03	10:06:00	10:11:14	310061	5ec49137e7928537488485ea	184623022	1	main_z	7	main_z	53	stimuli_distractor_trianglediamonds.svg	stimuli_distractor_trianglediamonds.svg	33	no	0	1	2000
6.6.1	win	2023-01-03	10:06:00	10:11:14	310061	5ec49137e7928537488485ea	184623022	1	main_z	7	advance_on_keypress_ZEE	54	stimuli_distractor_trianglediamonds.svg	stimuli_distractor_trianglediamonds.svg	33	no	57	0	255
6.6.1	win	2023-01-03	10:06:00	10:11:16	311657	5ec49137e7928537488485ea	184623022	1	main_z	7	main_z	55	stimuli_distractor_trianglediamonds.svg	stimuli_target_circletriangles.svg	9	yes	44	1	696
6.6.1	win	2023-01-03	10:06:00	10:11:16	311657	5ec49137e7928537488485ea	184623022	1	main_z	7	advance_on_keypress_ZEE	56	stimuli_distractor_trianglediamonds.svg	stimuli_target_circletriangles.svg	9	yes	57	0	300
6.6.1	win	2023-01-03	10:06:00	10:11:17	313259	5ec49137e7928537488485ea	184623022	1	main_z	7	main_z	57	stimuli_distractor_trianglediamonds.svg	stimuli_target_diamondsquares.svg	28	yes	44	1	648
6.6.1	win	2023-01-03	10:06:00	10:11:17	313259	5ec49137e7928537488485ea	184623022	1	main_z	7	advance_on_keypress_ZEE	58	stimuli_distractor_trianglediamonds.svg	stimuli_target_diamondsquares.svg	28	yes	57	0	293
6.6.1	win	2023-01-03	10:06:00	10:11:19	314866	5ec49137e7928537488485ea	184623022	1	main_z	7	main_z	59	stimuli_distractor_diamondtriangles.svg	stimuli_target_diamondsquares.svg	32	yes	44	1	671
6.6.1	win	2023-01-03	10:06:00	10:11:19	314866	5ec49137e7928537488485ea	184623022	1	main_z	7	advance_on_keypress_ZEE	60	stimuli_distractor_diamondtriangles.svg	stimuli_target_diamondsquares.svg	32	yes	57	0	243
6.6.1	win	2023-01-03	10:06:00	10:11:21	316483	5ec49137e7928537488485ea	184623022	1	main_z	7	main_z	61	stimuli_distractor_trianglediamonds.svg	stimuli_target_trianglecircles.svg	25	yes	44	1	738
6.6.1	win	2023-01-03	10:06:00	10:11:21	316483	5ec49137e7928537488485ea	184623022	1	main_z	7	advance_on_keypress_ZEE	62	stimuli_distractor_trianglediamonds.svg	stimuli_target_trianglecircles.svg	25	yes	57	0	279
6.6.1	win	2023-01-03	10:06:00	10:11:22	318195	5ec49137e7928537488485ea	184623022	1	main_z	7	main_z	63	stimuli_distractor_trianglediamonds.svg	stimuli_target_squaretriangles.svg	11	yes	44	1	801
6.6.1	win	2023-01-03	10:06:00	10:11:22	318195	5ec49137e7928537488485ea	184623022	1	main_z	7	advance_on_keypress_ZEE	64	stimuli_distractor_trianglediamonds.svg	stimuli_target_squaretriangles.svg	11	yes	57	0	238
6.6.1	win	2023-01-03	10:06:00	10:11:24	319772	5ec49137e7928537488485ea	184623022	1	main_z	7	main_z	65	stimuli_target_circlediamonds.svg	stimuli_distractor_trianglediamonds.svg	2	yes	44	1	693
6.6.1	win	2023-01-03	10:06:00	10:11:24	319772	5ec49137e7928537488485ea	184623022	1	main_z	7	advance_on_keypress_ZEE	66	stimuli_target_circlediamonds.svg	stimuli_distractor_trianglediamonds.svg	2	yes	57	0	218
6.6.1	win	2023-01-03	10:06:00	10:11:26	321379	5ec49137e7928537488485ea	184623022	1	main_z	7	main_z	67	stimuli_target_circletriangles.svg	stimuli_distractor_trianglediamonds.svg	1	yes	44	1	750
6.6.1	win	2023-01-03	10:06:00	10:11:26	321379	5ec49137e7928537488485ea	184623022	1	main_z	7	advance_on_keypress_ZEE	68	stimuli_target_circletriangles.svg	stimuli_distractor_trianglediamonds.svg	1	yes	57	0	158
6.6.1	win	2023-01-03	10:06:00	10:11:28	324179	5ec49137e7928537488485ea	184623022	1	main_z	7	main_z	69	stimuli_distractor_trianglediamonds.svg	stimuli_distractor_diamondtriangles.svg	35	no	0	1	2000
6.6.1	win	2023-01-03	10:06:00	10:11:28	324179	5ec49137e7928537488485ea	184623022	1	main_z	7	advance_on_keypress_ZEE	70	stimuli_distractor_trianglediamonds.svg	stimuli_distractor_diamondtriangles.svg	35	no	57	0	281
6.6.1	win	2023-01-03	10:06:00	10:11:30	325813	5ec49137e7928537488485ea	184623022	1	main_z	7	main_z	71	stimuli_distractor_trianglediamonds.svg	stimuli_target_trianglesquares.svg	26	yes	44	1	700
6.6.1	win	2023-01-03	10:06:00	10:11:30	325813	5ec49137e7928537488485ea	184623022	1	main_z	7	advance_on_keypress_ZEE	72	stimuli_distractor_trianglediamonds.svg	stimuli_target_trianglesquares.svg	26	yes	57	0	265
6.6.1	win	2023-01-03	10:06:00	10:11:32	327491	5ec49137e7928537488485ea	184623022	1	main_z	7	main_z	73	stimuli_target_squarediamonds.svg	stimuli_distractor_diamondtriangles.svg	8	yes	44	1	761
6.6.1	win	2023-01-03	10:06:00	10:11:32	327491	5ec49137e7928537488485ea	184623022	1	main_z	7	advance_on_keypress_ZEE	74	stimuli_target_squarediamonds.svg	stimuli_distractor_diamondtriangles.svg	8	yes	57	0	265
6.6.1	win	2023-01-03	10:06:00	10:11:33	329102	5ec49137e7928537488485ea	184623022	1	main_z	7	main_z	75	stimuli_distractor_diamondtriangles.svg	stimuli_target_squaretriangles.svg	15	yes	44	1	706
6.6.1	win	2023-01-03	10:06:00	10:11:33	329102	5ec49137e7928537488485ea	184623022	1	main_z	7	advance_on_keypress_ZEE	76	stimuli_distractor_diamondtriangles.svg	stimuli_target_squaretriangles.svg	15	yes	57	0	205
6.6.1	win	2023-01-03	10:06:00	10:11:36	331946	5ec49137e7928537488485ea	184623022	1	main_z	7	main_z	77	stimuli_distractor_diamondtriangles.svg	stimuli_distractor_diamondtriangles.svg	40	no	0	1	2000
6.6.1	win	2023-01-03	10:06:00	10:11:36	331946	5ec49137e7928537488485ea	184623022	1	main_z	7	advance_on_keypress_ZEE	78	stimuli_distractor_diamondtriangles.svg	stimuli_distractor_diamondtriangles.svg	40	no	57	0	303
6.6.1	win	2023-01-03	10:06:00	10:11:39	334896	5ec49137e7928537488485ea	184623022	1	main_z	7	main_z	79	stimuli_distractor_trianglediamonds.svg	stimuli_distractor_trianglediamonds.svg	34	no	0	1	2000
6.6.1	win	2023-01-03	10:06:00	10:11:39	334896	5ec49137e7928537488485ea	184623022	1	main_z	7	advance_on_keypress_ZEE	80	stimuli_distractor_trianglediamonds.svg	stimuli_distractor_trianglediamonds.svg	34	no	57	0	791
6.6.1	win	2023-01-03	10:06:00	10:11:41	337156	5ec49137e7928537488485ea	184623022	1	main_z	7	main_z	81	stimuli_distractor_trianglediamonds.svg	stimuli_target_circlediamonds.svg	10	yes	44	1	827
6.6.1	win	2023-01-03	10:06:00	10:11:41	337156	5ec49137e7928537488485ea	184623022	1	main_z	7	advance_on_keypress_ZEE	82	stimuli_distractor_trianglediamonds.svg	stimuli_target_circlediamonds.svg	10	yes	57	0	339
6.6.1	win	2023-01-03	10:06:00	10:11:44	340130	5ec49137e7928537488485ea	184623022	1	main_z	7	main_z	83	stimuli_distractor_diamondtriangles.svg	stimuli_distractor_trianglediamonds.svg	38	no	0	1	2000
6.6.1	win	2023-01-03	10:06:00	10:11:44	340130	5ec49137e7928537488485ea	184623022	1	main_z	7	advance_on_keypress_ZEE	84	stimuli_distractor_diamondtriangles.svg	stimuli_distractor_trianglediamonds.svg	38	no	57	0	780
6.6.1	win	2023-01-03	10:06:00	10:11:47	342748	5ec49137e7928537488485ea	184623022	1	main_z	7	main_z	85	stimuli_target_circletriangles.svg	stimuli_distractor_diamondtriangles.svg	5	yes	44	1	1183
6.6.1	win	2023-01-03	10:06:00	10:11:47	342748	5ec49137e7928537488485ea	184623022	1	main_z	7	advance_on_keypress_ZEE	86	stimuli_target_circletriangles.svg	stimuli_distractor_diamondtriangles.svg	5	yes	57	0	350
6.6.1	win	2023-01-03	10:06:00	10:11:49	344750	5ec49137e7928537488485ea	184623022	1	main_z	7	main_z	87	stimuli_distractor_diamondtriangles.svg	stimuli_target_squaretriangles.svg	15	yes	44	1	1002
6.6.1	win	2023-01-03	10:06:00	10:11:49	344750	5ec49137e7928537488485ea	184623022	1	main_z	7	advance_on_keypress_ZEE	88	stimuli_distractor_diamondtriangles.svg	stimuli_target_squaretriangles.svg	15	yes	57	0	677
6.6.1	win	2023-01-03	10:06:00	10:11:51	346878	5ec49137e7928537488485ea	184623022	1	main_z	7	main_z	89	stimuli_distractor_diamondtriangles.svg	stimuli_target_diamondcircles.svg	31	yes	44	1	815
6.6.1	win	2023-01-03	10:06:00	10:11:51	346878	5ec49137e7928537488485ea	184623022	1	main_z	7	advance_on_keypress_ZEE	90	stimuli_distractor_diamondtriangles.svg	stimuli_target_diamondcircles.svg	31	yes	57	0	360
6.6.1	win	2023-01-03	10:06:00	10:11:53	349205	5ec49137e7928537488485ea	184623022	1	main_z	7	main_z	91	stimuli_target_trianglesquares.svg	stimuli_distractor_diamondtriangles.svg	22	yes	44	1	1325
6.6.1	win	2023-01-03	10:06:00	10:11:53	349205	5ec49137e7928537488485ea	184623022	1	main_z	7	advance_on_keypress_ZEE	92	stimuli_target_trianglesquares.svg	stimuli_distractor_diamondtriangles.svg	22	yes	57	0	502
6.6.1	win	2023-01-03	10:06:00	10:11:57	352348	5ec49137e7928537488485ea	184623022	1	main_z	7	main_z	93	stimuli_distractor_trianglediamonds.svg	stimuli_distractor_trianglediamonds.svg	34	no	0	1	2000
6.6.1	win	2023-01-03	10:06:00	10:11:57	352348	5ec49137e7928537488485ea	184623022	1	main_z	7	advance_on_keypress_ZEE	94	stimuli_distractor_trianglediamonds.svg	stimuli_distractor_trianglediamonds.svg	34	no	57	0	375
6.6.1	win	2023-01-03	10:06:00	10:11:59	354487	5ec49137e7928537488485ea	184623022	1	main_z	7	main_z	95	stimuli_target_diamondsquares.svg	stimuli_distractor_diamondtriangles.svg	24	yes	44	1	1123
6.6.1	win	2023-01-03	10:06:00	10:11:59	354487	5ec49137e7928537488485ea	184623022	1	main_z	7	advance_on_keypress_ZEE	96	stimuli_target_diamondsquares.svg	stimuli_distractor_diamondtriangles.svg	24	yes	57	0	593
6.6.1	win	2023-01-03	10:06:00	10:12:01	356748	5ec49137e7928537488485ea	184623022	1	main_z	7	main_z	97	stimuli_target_circletriangles.svg	stimuli_distractor_trianglediamonds.svg	1	yes	44	1	1034
6.6.1	win	2023-01-03	10:06:00	10:12:01	356748	5ec49137e7928537488485ea	184623022	1	main_z	7	advance_on_keypress_ZEE	98	stimuli_target_circletriangles.svg	stimuli_distractor_trianglediamonds.svg	1	yes	57	0	510
6.6.1	win	2023-01-03	10:06:00	10:12:03	358906	5ec49137e7928537488485ea	184623022	1	main_z	7	main_z	99	stimuli_distractor_trianglediamonds.svg	stimuli_target_squaretriangles.svg	11	yes	44	1	1008
6.6.1	win	2023-01-03	10:06:00	10:12:03	358906	5ec49137e7928537488485ea	184623022	1	main_z	7	advance_on_keypress_ZEE	100	stimuli_distractor_trianglediamonds.svg	stimuli_target_squaretriangles.svg	11	yes	57	0	516
6.6.1	win	2023-01-03	10:06:00	10:12:05	361039	5ec49137e7928537488485ea	184623022	1	main_z	7	main_z	101	stimuli_distractor_trianglediamonds.svg	stimuli_target_diamondsquares.svg	28	yes	44	1	973
6.6.1	win	2023-01-03	10:06:00	10:12:05	361039	5ec49137e7928537488485ea	184623022	1	main_z	7	advance_on_keypress_ZEE	102	stimuli_distractor_trianglediamonds.svg	stimuli_target_diamondsquares.svg	28	yes	57	0	471
6.6.1	win	2023-01-03	10:06:00	10:12:07	363186	5ec49137e7928537488485ea	184623022	1	main_z	7	main_z	103	stimuli_distractor_trianglediamonds.svg	stimuli_target_trianglecircles.svg	25	yes	44	1	1038
6.6.1	win	2023-01-03	10:06:00	10:12:07	363186	5ec49137e7928537488485ea	184623022	1	main_z	7	advance_on_keypress_ZEE	104	stimuli_distractor_trianglediamonds.svg	stimuli_target_trianglecircles.svg	25	yes	57	0	402
6.6.1	win	2023-01-03	10:06:00	10:12:09	365283	5ec49137e7928537488485ea	184623022	1	main_z	7	main_z	105	stimuli_target_squaretriangles.svg	stimuli_distractor_trianglediamonds.svg	3	yes	44	1	1051
6.6.1	win	2023-01-03	10:06:00	10:12:09	365283	5ec49137e7928537488485ea	184623022	1	main_z	7	advance_on_keypress_ZEE	106	stimuli_target_squaretriangles.svg	stimuli_distractor_trianglediamonds.svg	3	yes	57	0	500
6.6.1	win	2023-01-03	10:06:00	10:12:12	367326	5ec49137e7928537488485ea	184623022	1	main_z	7	main_z	107	stimuli_target_squarediamonds.svg	stimuli_distractor_diamondtriangles.svg	8	yes	44	1	893
6.6.1	win	2023-01-03	10:06:00	10:12:12	367326	5ec49137e7928537488485ea	184623022	1	main_z	7	advance_on_keypress_ZEE	108	stimuli_target_squarediamonds.svg	stimuli_distractor_diamondtriangles.svg	8	yes	57	0	311
6.6.1	win	2023-01-03	10:06:00	10:12:13	369243	5ec49137e7928537488485ea	184623022	1	main_z	7	main_z	109	stimuli_target_squaretriangles.svg	stimuli_distractor_diamondtriangles.svg	7	yes	44	1	978
6.6.1	win	2023-01-03	10:06:00	10:12:13	369243	5ec49137e7928537488485ea	184623022	1	main_z	7	advance_on_keypress_ZEE	110	stimuli_target_squaretriangles.svg	stimuli_distractor_diamondtriangles.svg	7	yes	57	0	304
6.6.1	win	2023-01-03	10:06:00	10:12:15	371085	5ec49137e7928537488485ea	184623022	1	main_z	7	main_z	111	stimuli_distractor_diamondtriangles.svg	stimuli_target_circlediamonds.svg	14	yes	44	1	902
6.6.1	win	2023-01-03	10:06:00	10:12:15	371085	5ec49137e7928537488485ea	184623022	1	main_z	7	advance_on_keypress_ZEE	112	stimuli_distractor_diamondtriangles.svg	stimuli_target_circlediamonds.svg	14	yes	57	0	316
6.6.1	win	2023-01-03	10:06:00	10:12:17	372907	5ec49137e7928537488485ea	184623022	1	main_z	7	main_z	113	stimuli_target_trianglecircles.svg	stimuli_distractor_trianglediamonds.svg	17	yes	44	1	858
6.6.1	win	2023-01-03	10:06:00	10:12:17	372907	5ec49137e7928537488485ea	184623022	1	main_z	7	advance_on_keypress_ZEE	114	stimuli_target_trianglecircles.svg	stimuli_distractor_trianglediamonds.svg	17	yes	57	0	326
6.6.1	win	2023-01-03	10:06:00	10:12:19	374700	5ec49137e7928537488485ea	184623022	1	main_z	7	main_z	115	stimuli_distractor_trianglediamonds.svg	stimuli_target_squarediamonds.svg	12	yes	44	1	833
6.6.1	win	2023-01-03	10:06:00	10:12:19	374700	5ec49137e7928537488485ea	184623022	1	main_z	7	advance_on_keypress_ZEE	116	stimuli_distractor_trianglediamonds.svg	stimuli_target_squarediamonds.svg	12	yes	57	0	332
6.6.1	win	2023-01-03	10:06:00	10:12:21	376582	5ec49137e7928537488485ea	184623022	1	main_z	7	main_z	117	stimuli_distractor_trianglediamonds.svg	stimuli_target_trianglesquares.svg	26	yes	44	1	898
6.6.1	win	2023-01-03	10:06:00	10:12:21	376582	5ec49137e7928537488485ea	184623022	1	main_z	7	advance_on_keypress_ZEE	118	stimuli_distractor_trianglediamonds.svg	stimuli_target_trianglesquares.svg	26	yes	57	0	347
6.6.1	win	2023-01-03	10:06:00	10:12:23	378469	5ec49137e7928537488485ea	184623022	1	main_z	7	main_z	119	stimuli_target_diamondcircles.svg	stimuli_distractor_trianglediamonds.svg	19	yes	44	1	885
6.6.1	win	2023-01-03	10:06:00	10:12:23	378469	5ec49137e7928537488485ea	184623022	1	main_z	7	advance_on_keypress_ZEE	120	stimuli_target_diamondcircles.svg	stimuli_distractor_trianglediamonds.svg	19	yes	57	0	310
6.6.1	win	2023-01-03	10:06:00	10:12:25	380326	5ec49137e7928537488485ea	184623022	1	main_z	7	main_z	121	stimuli_distractor_trianglediamonds.svg	stimuli_target_circletriangles.svg	9	yes	44	1	909
6.6.1	win	2023-01-03	10:06:00	10:12:25	380326	5ec49137e7928537488485ea	184623022	1	main_z	7	advance_on_keypress_ZEE	122	stimuli_distractor_trianglediamonds.svg	stimuli_target_circletriangles.svg	9	yes	57	0	318
6.6.1	win	2023-01-03	10:06:00	10:12:27	383284	5ec49137e7928537488485ea	184623022	1	main_z	7	main_z	123	stimuli_distractor_trianglediamonds.svg	stimuli_distractor_trianglediamonds.svg	33	no	0	1	2000
6.6.1	win	2023-01-03	10:06:00	10:12:27	383284	5ec49137e7928537488485ea	184623022	1	main_z	7	advance_on_keypress_ZEE	124	stimuli_distractor_trianglediamonds.svg	stimuli_distractor_trianglediamonds.svg	33	no	57	0	285
6.6.1	win	2023-01-03	10:06:00	10:12:30	386217	5ec49137e7928537488485ea	184623022	1	main_z	7	main_z	125	stimuli_target_squarediamonds.svg	stimuli_distractor_trianglediamonds.svg	4	yes	0	0	2000
6.6.1	win	2023-01-03	10:06:00	10:12:30	386217	5ec49137e7928537488485ea	184623022	1	main_z	7	advance_on_keypress_ZEE	126	stimuli_target_squarediamonds.svg	stimuli_distractor_trianglediamonds.svg	4	yes	57	0	278
6.6.1	win	2023-01-03	10:06:00	10:12:32	388250	5ec49137e7928537488485ea	184623022	1	main_z	7	main_z	127	stimuli_distractor_diamondtriangles.svg	stimuli_target_circletriangles.svg	13	yes	44	1	1115
6.6.1	win	2023-01-03	10:06:00	10:12:32	388250	5ec49137e7928537488485ea	184623022	1	main_z	7	advance_on_keypress_ZEE	128	stimuli_distractor_diamondtriangles.svg	stimuli_target_circletriangles.svg	13	yes	57	0	348
6.6.1	win	2023-01-03	10:06:00	10:12:35	391251	5ec49137e7928537488485ea	184623022	1	main_z	7	main_z	129	stimuli_distractor_trianglediamonds.svg	stimuli_distractor_diamondtriangles.svg	35	no	0	1	2000
6.6.1	win	2023-01-03	10:06:00	10:12:35	391251	5ec49137e7928537488485ea	184623022	1	main_z	7	advance_on_keypress_ZEE	130	stimuli_distractor_trianglediamonds.svg	stimuli_distractor_diamondtriangles.svg	35	no	57	0	260
6.6.1	win	2023-01-03	10:06:00	10:12:38	394152	5ec49137e7928537488485ea	184623022	1	main_z	7	main_z	131	stimuli_distractor_trianglediamonds.svg	stimuli_distractor_diamondtriangles.svg	36	no	0	1	2000
6.6.1	win	2023-01-03	10:06:00	10:12:38	394152	5ec49137e7928537488485ea	184623022	1	main_z	7	advance_on_keypress_ZEE	132	stimuli_distractor_trianglediamonds.svg	stimuli_distractor_diamondtriangles.svg	36	no	57	0	253
6.6.1	win	2023-01-03	10:06:00	10:12:40	396000	5ec49137e7928537488485ea	184623022	1	main_z	7	main_z	133	stimuli_target_trianglecircles.svg	stimuli_distractor_diamondtriangles.svg	21	yes	44	1	948
6.6.1	win	2023-01-03	10:06:00	10:12:40	396000	5ec49137e7928537488485ea	184623022	1	main_z	7	advance_on_keypress_ZEE	134	stimuli_target_trianglecircles.svg	stimuli_distractor_diamondtriangles.svg	21	yes	57	0	361
6.6.1	win	2023-01-03	10:06:00	10:12:43	399002	5ec49137e7928537488485ea	184623022	1	main_z	7	main_z	135	stimuli_distractor_diamondtriangles.svg	stimuli_distractor_diamondtriangles.svg	39	no	0	1	2000
6.6.1	win	2023-01-03	10:06:00	10:12:43	399002	5ec49137e7928537488485ea	184623022	1	main_z	7	advance_on_keypress_ZEE	136	stimuli_distractor_diamondtriangles.svg	stimuli_distractor_diamondtriangles.svg	39	no	57	0	294
6.6.1	win	2023-01-03	10:06:00	10:12:46	401936	5ec49137e7928537488485ea	184623022	1	main_z	7	main_z	137	stimuli_distractor_diamondtriangles.svg	stimuli_distractor_diamondtriangles.svg	40	no	0	1	2000
6.6.1	win	2023-01-03	10:06:00	10:12:46	401936	5ec49137e7928537488485ea	184623022	1	main_z	7	advance_on_keypress_ZEE	138	stimuli_distractor_diamondtriangles.svg	stimuli_distractor_diamondtriangles.svg	40	no	57	0	288
6.6.1	win	2023-01-03	10:06:00	10:12:48	403598	5ec49137e7928537488485ea	184623022	1	main_z	7	main_z	139	stimuli_distractor_diamondtriangles.svg	stimuli_target_diamondsquares.svg	32	yes	44	1	729
6.6.1	win	2023-01-03	10:06:00	10:12:48	403598	5ec49137e7928537488485ea	184623022	1	main_z	7	advance_on_keypress_ZEE	140	stimuli_distractor_diamondtriangles.svg	stimuli_target_diamondsquares.svg	32	yes	57	0	302
6.6.1	win	2023-01-03	10:06:00	10:12:49	405220	5ec49137e7928537488485ea	184623022	1	main_z	7	main_z	141	stimuli_distractor_trianglediamonds.svg	stimuli_target_diamondcircles.svg	27	yes	44	1	667
6.6.1	win	2023-01-03	10:06:00	10:12:49	405220	5ec49137e7928537488485ea	184623022	1	main_z	7	advance_on_keypress_ZEE	142	stimuli_distractor_trianglediamonds.svg	stimuli_target_diamondcircles.svg	27	yes	57	0	208
6.6.1	win	2023-01-03	10:06:00	10:12:51	406682	5ec49137e7928537488485ea	184623022	1	main_z	7	main_z	143	stimuli_distractor_diamondtriangles.svg	stimuli_target_trianglesquares.svg	30	yes	44	1	612
6.6.1	win	2023-01-03	10:06:00	10:12:51	406682	5ec49137e7928537488485ea	184623022	1	main_z	7	advance_on_keypress_ZEE	144	stimuli_distractor_diamondtriangles.svg	stimuli_target_trianglesquares.svg	30	yes	57	0	170
6.6.1	win	2023-01-03	10:06:00	10:12:52	408143	5ec49137e7928537488485ea	184623022	1	main_z	7	main_z	145	stimuli_distractor_diamondtriangles.svg	stimuli_target_trianglecircles.svg	29	yes	44	1	656
6.6.1	win	2023-01-03	10:06:00	10:12:52	408143	5ec49137e7928537488485ea	184623022	1	main_z	7	advance_on_keypress_ZEE	146	stimuli_distractor_diamondtriangles.svg	stimuli_target_trianglecircles.svg	29	yes	57	0	177
6.6.1	win	2023-01-03	10:06:00	10:12:54	409850	5ec49137e7928537488485ea	184623022	1	main_z	7	main_z	147	stimuli_target_circlediamonds.svg	stimuli_distractor_diamondtriangles.svg	6	yes	44	1	897
6.6.1	win	2023-01-03	10:06:00	10:12:54	409850	5ec49137e7928537488485ea	184623022	1	main_z	7	advance_on_keypress_ZEE	148	stimuli_target_circlediamonds.svg	stimuli_distractor_diamondtriangles.svg	6	yes	57	0	225
6.6.1	win	2023-01-03	10:06:00	10:12:57	412720	5ec49137e7928537488485ea	184623022	1	main_z	7	main_z	149	stimuli_distractor_diamondtriangles.svg	stimuli_distractor_trianglediamonds.svg	37	no	0	1	2000
6.6.1	win	2023-01-03	10:06:00	10:12:57	412720	5ec49137e7928537488485ea	184623022	1	main_z	7	advance_on_keypress_ZEE	150	stimuli_distractor_diamondtriangles.svg	stimuli_distractor_trianglediamonds.svg	37	no	57	0	406
6.6.1	win	2023-01-03	10:06:00	10:12:59	414466	5ec49137e7928537488485ea	184623022	1	main_z	7	main_z	151	stimuli_target_trianglesquares.svg	stimuli_distractor_trianglediamonds.svg	18	yes	44	1	695
6.6.1	win	2023-01-03	10:06:00	10:12:59	414466	5ec49137e7928537488485ea	184623022	1	main_z	7	advance_on_keypress_ZEE	152	stimuli_target_trianglesquares.svg	stimuli_distractor_trianglediamonds.svg	18	yes	57	0	266
6.6.1	win	2023-01-03	10:06:00	10:13:00	416088	5ec49137e7928537488485ea	184623022	1	main_z	7	main_z	153	stimuli_target_diamondsquares.svg	stimuli_distractor_trianglediamonds.svg	20	yes	44	1	718
6.6.1	win	2023-01-03	10:06:00	10:13:00	416088	5ec49137e7928537488485ea	184623022	1	main_z	7	advance_on_keypress_ZEE	154	stimuli_target_diamondsquares.svg	stimuli_distractor_trianglediamonds.svg	20	yes	57	0	214
6.6.1	win	2023-01-03	10:06:00	10:13:02	417774	5ec49137e7928537488485ea	184623022	1	main_z	7	main_z	155	stimuli_distractor_diamondtriangles.svg	stimuli_target_squarediamonds.svg	16	yes	44	1	821
6.6.1	win	2023-01-03	10:06:00	10:13:02	417774	5ec49137e7928537488485ea	184623022	1	main_z	7	advance_on_keypress_ZEE	156	stimuli_distractor_diamondtriangles.svg	stimuli_target_squarediamonds.svg	16	yes	57	0	137
6.6.1	win	2023-01-03	10:06:00	10:13:03	419186	5ec49137e7928537488485ea	184623022	1	main_z	7	main_z	157	stimuli_target_diamondcircles.svg	stimuli_distractor_diamondtriangles.svg	23	yes	44	1	631
6.6.1	win	2023-01-03	10:06:00	10:13:03	419186	5ec49137e7928537488485ea	184623022	1	main_z	7	advance_on_keypress_ZEE	158	stimuli_target_diamondcircles.svg	stimuli_distractor_diamondtriangles.svg	23	yes	57	0	241
6.6.1	win	2023-01-03	10:06:00	10:13:05	420858	5ec49137e7928537488485ea	184623022	1	main_z	7	main_z	159	stimuli_target_circlediamonds.svg	stimuli_distractor_trianglediamonds.svg	2	yes	44	1	787
6.6.1	win	2023-01-03	10:06:00	10:13:05	420858	5ec49137e7928537488485ea	184623022	1	main_z	7	advance_on_keypress_ZEE	160	stimuli_target_circlediamonds.svg	stimuli_distractor_trianglediamonds.svg	2	yes	57	0	152
6.6.1	win	2023-01-03	10:06:00	10:13:31	446539	5ec49137e7928537488485ea	184623022	1	practice_slash	9	practice_slash	1	stimuli_target_diamondsquares.svg	stimuli_distractor_trianglediamonds.svg	6	yes	53	1	564
6.6.1	win	2023-01-03	10:06:00	10:13:31	446539	5ec49137e7928537488485ea	184623022	1	practice_slash	9	advance_on_keypress_SLASH	2	stimuli_target_diamondsquares.svg	stimuli_distractor_trianglediamonds.svg	6	yes	57	0	679
6.6.1	win	2023-01-03	10:06:00	10:13:34	449407	5ec49137e7928537488485ea	184623022	1	practice_slash	9	practice_slash	3	stimuli_distractor_diamondtriangles.svg	stimuli_target_trianglecircles.svg	9	yes	53	1	532
6.6.1	win	2023-01-03	10:06:00	10:13:34	449407	5ec49137e7928537488485ea	184623022	1	practice_slash	9	advance_on_keypress_SLASH	4	stimuli_distractor_diamondtriangles.svg	stimuli_target_trianglecircles.svg	9	yes	57	0	349
6.6.1	win	2023-01-03	10:06:00	10:13:38	453409	5ec49137e7928537488485ea	184623022	1	practice_slash	9	practice_slash	5	stimuli_distractor_diamondtriangles.svg	stimuli_distractor_diamondtriangles.svg	13	no	0	1	2000
6.6.1	win	2023-01-03	10:06:00	10:13:38	453409	5ec49137e7928537488485ea	184623022	1	practice_slash	9	advance_on_keypress_SLASH	6	stimuli_distractor_diamondtriangles.svg	stimuli_distractor_diamondtriangles.svg	13	no	57	0	518
6.6.1	win	2023-01-03	10:06:00	10:13:40	456115	5ec49137e7928537488485ea	184623022	1	practice_slash	9	practice_slash	7	stimuli_distractor_trianglediamonds.svg	stimuli_target_diamondcircles.svg	12	yes	53	1	540
6.6.1	win	2023-01-03	10:06:00	10:13:40	456115	5ec49137e7928537488485ea	184623022	1	practice_slash	9	advance_on_keypress_SLASH	8	stimuli_distractor_trianglediamonds.svg	stimuli_target_diamondcircles.svg	12	yes	57	0	516
6.6.1	win	2023-01-03	10:06:00	10:13:44	460276	5ec49137e7928537488485ea	184623022	1	practice_slash	9	practice_slash	9	stimuli_distractor_diamondtriangles.svg	stimuli_distractor_trianglediamonds.svg	14	no	0	1	2000
6.6.1	win	2023-01-03	10:06:00	10:13:44	460276	5ec49137e7928537488485ea	184623022	1	practice_slash	9	advance_on_keypress_SLASH	10	stimuli_distractor_diamondtriangles.svg	stimuli_distractor_trianglediamonds.svg	14	no	57	0	474
6.6.1	win	2023-01-03	10:06:00	10:13:47	462959	5ec49137e7928537488485ea	184623022	1	practice_slash	9	practice_slash	11	stimuli_target_circlediamonds.svg	stimuli_distractor_trianglediamonds.svg	4	yes	53	1	566
6.6.1	win	2023-01-03	10:06:00	10:13:47	462959	5ec49137e7928537488485ea	184623022	1	practice_slash	9	advance_on_keypress_SLASH	12	stimuli_target_circlediamonds.svg	stimuli_distractor_trianglediamonds.svg	4	yes	57	0	449
6.6.1	win	2023-01-03	10:06:00	10:13:50	465712	5ec49137e7928537488485ea	184623022	1	practice_slash	9	practice_slash	13	stimuli_target_squarediamonds.svg	stimuli_distractor_diamondtriangles.svg	2	yes	53	1	652
6.6.1	win	2023-01-03	10:06:00	10:13:50	465712	5ec49137e7928537488485ea	184623022	1	practice_slash	9	advance_on_keypress_SLASH	14	stimuli_target_squarediamonds.svg	stimuli_distractor_diamondtriangles.svg	2	yes	57	0	332
6.6.1	win	2023-01-03	10:06:00	10:13:54	469694	5ec49137e7928537488485ea	184623022	1	practice_slash	9	practice_slash	15	stimuli_distractor_trianglediamonds.svg	stimuli_distractor_trianglediamonds.svg	15	no	0	1	2000
6.6.1	win	2023-01-03	10:06:00	10:13:54	469694	5ec49137e7928537488485ea	184623022	1	practice_slash	9	advance_on_keypress_SLASH	16	stimuli_distractor_trianglediamonds.svg	stimuli_distractor_trianglediamonds.svg	15	no	57	0	408
6.6.1	win	2023-01-03	10:06:00	10:13:58	473744	5ec49137e7928537488485ea	184623022	1	practice_slash	9	practice_slash	17	stimuli_distractor_trianglediamonds.svg	stimuli_distractor_diamondtriangles.svg	16	no	0	1	2000
6.6.1	win	2023-01-03	10:06:00	10:13:58	473744	5ec49137e7928537488485ea	184623022	1	practice_slash	9	advance_on_keypress_SLASH	18	stimuli_distractor_trianglediamonds.svg	stimuli_distractor_diamondtriangles.svg	16	no	57	0	437
6.6.1	win	2023-01-03	10:06:00	10:14:01	476640	5ec49137e7928537488485ea	184623022	1	practice_slash	9	practice_slash	19	stimuli_target_diamondsquares.svg	stimuli_distractor_diamondtriangles.svg	3	yes	53	1	812
6.6.1	win	2023-01-03	10:06:00	10:14:01	476640	5ec49137e7928537488485ea	184623022	1	practice_slash	9	advance_on_keypress_SLASH	20	stimuli_target_diamondsquares.svg	stimuli_distractor_diamondtriangles.svg	3	yes	57	0	495
6.6.1	win	2023-01-03	10:06:00	10:14:04	479469	5ec49137e7928537488485ea	184623022	1	practice_slash	9	practice_slash	21	stimuli_distractor_trianglediamonds.svg	stimuli_target_circlediamonds.svg	10	yes	53	1	674
6.6.1	win	2023-01-03	10:06:00	10:14:04	479469	5ec49137e7928537488485ea	184623022	1	practice_slash	9	advance_on_keypress_SLASH	22	stimuli_distractor_trianglediamonds.svg	stimuli_target_circlediamonds.svg	10	yes	57	0	371
6.6.1	win	2023-01-03	10:06:00	10:14:06	482181	5ec49137e7928537488485ea	184623022	1	practice_slash	9	practice_slash	23	stimuli_distractor_diamondtriangles.svg	stimuli_target_diamondcircles.svg	8	yes	53	1	703
6.6.1	win	2023-01-03	10:06:00	10:14:06	482181	5ec49137e7928537488485ea	184623022	1	practice_slash	9	advance_on_keypress_SLASH	24	stimuli_distractor_diamondtriangles.svg	stimuli_target_diamondcircles.svg	8	yes	57	0	402
6.6.1	win	2023-01-03	10:06:00	10:14:09	484770	5ec49137e7928537488485ea	184623022	1	practice_slash	9	practice_slash	25	stimuli_distractor_trianglediamonds.svg	stimuli_target_squarediamonds.svg	11	yes	53	1	542
6.6.1	win	2023-01-03	10:06:00	10:14:09	484770	5ec49137e7928537488485ea	184623022	1	practice_slash	9	advance_on_keypress_SLASH	26	stimuli_distractor_trianglediamonds.svg	stimuli_target_squarediamonds.svg	11	yes	57	0	367
6.6.1	win	2023-01-03	10:06:00	10:14:12	487352	5ec49137e7928537488485ea	184623022	1	practice_slash	9	practice_slash	27	stimuli_distractor_diamondtriangles.svg	stimuli_target_circletriangles.svg	7	yes	53	1	574
6.6.1	win	2023-01-03	10:06:00	10:14:12	487352	5ec49137e7928537488485ea	184623022	1	practice_slash	9	advance_on_keypress_SLASH	28	stimuli_distractor_diamondtriangles.svg	stimuli_target_circletriangles.svg	7	yes	57	0	350
6.6.1	win	2023-01-03	10:06:00	10:14:14	489931	5ec49137e7928537488485ea	184623022	1	practice_slash	9	practice_slash	29	stimuli_target_squarediamonds.svg	stimuli_distractor_trianglediamonds.svg	5	yes	53	1	585
6.6.1	win	2023-01-03	10:06:00	10:14:14	489931	5ec49137e7928537488485ea	184623022	1	practice_slash	9	advance_on_keypress_SLASH	30	stimuli_target_squarediamonds.svg	stimuli_distractor_trianglediamonds.svg	5	yes	57	0	386
6.6.1	win	2023-01-03	10:06:00	10:14:17	492434	5ec49137e7928537488485ea	184623022	1	practice_slash	9	practice_slash	31	stimuli_target_circlediamonds.svg	stimuli_distractor_diamondtriangles.svg	1	yes	53	1	472
6.6.1	win	2023-01-03	10:06:00	10:14:17	492434	5ec49137e7928537488485ea	184623022	1	practice_slash	9	advance_on_keypress_SLASH	32	stimuli_target_circlediamonds.svg	stimuli_distractor_diamondtriangles.svg	1	yes	57	0	294
6.6.1	win	2023-01-03	10:06:00	10:14:45	521061	5ec49137e7928537488485ea	184623022	1	main_slash	11	main_slash	1	stimuli_distractor_diamondtriangles.svg	stimuli_target_diamondsquares.svg	32	yes	53	1	597
6.6.1	win	2023-01-03	10:06:00	10:14:45	521061	5ec49137e7928537488485ea	184623022	1	main_slash	11	advance_on_keypress_SLASH	2	stimuli_distractor_diamondtriangles.svg	stimuli_target_diamondsquares.svg	32	yes	57	0	867
6.6.1	win	2023-01-03	10:06:00	10:14:47	523154	5ec49137e7928537488485ea	184623022	1	main_slash	11	main_slash	3	stimuli_target_circlediamonds.svg	stimuli_distractor_trianglediamonds.svg	2	yes	53	1	575
6.6.1	win	2023-01-03	10:06:00	10:14:47	523154	5ec49137e7928537488485ea	184623022	1	main_slash	11	advance_on_keypress_SLASH	4	stimuli_target_circlediamonds.svg	stimuli_distractor_trianglediamonds.svg	2	yes	57	0	761
6.6.1	win	2023-01-03	10:06:00	10:14:49	525187	5ec49137e7928537488485ea	184623022	1	main_slash	11	main_slash	5	stimuli_target_trianglesquares.svg	stimuli_distractor_diamondtriangles.svg	22	yes	53	1	641
6.6.1	win	2023-01-03	10:06:00	10:14:49	525187	5ec49137e7928537488485ea	184623022	1	main_slash	11	advance_on_keypress_SLASH	6	stimuli_target_trianglesquares.svg	stimuli_distractor_diamondtriangles.svg	22	yes	57	0	676
6.6.1	win	2023-01-03	10:06:00	10:14:51	527143	5ec49137e7928537488485ea	184623022	1	main_slash	11	main_slash	7	stimuli_target_squarediamonds.svg	stimuli_distractor_diamondtriangles.svg	8	yes	53	1	646
6.6.1	win	2023-01-03	10:06:00	10:14:51	527143	5ec49137e7928537488485ea	184623022	1	main_slash	11	advance_on_keypress_SLASH	8	stimuli_target_squarediamonds.svg	stimuli_distractor_diamondtriangles.svg	8	yes	57	0	604
6.6.1	win	2023-01-03	10:06:00	10:14:53	529095	5ec49137e7928537488485ea	184623022	1	main_slash	11	main_slash	9	stimuli_target_trianglecircles.svg	stimuli_distractor_trianglediamonds.svg	17	yes	53	1	698
6.6.1	win	2023-01-03	10:06:00	10:14:53	529095	5ec49137e7928537488485ea	184623022	1	main_slash	11	advance_on_keypress_SLASH	10	stimuli_target_trianglecircles.svg	stimuli_distractor_trianglediamonds.svg	17	yes	57	0	491
6.6.1	win	2023-01-03	10:06:00	10:14:55	530868	5ec49137e7928537488485ea	184623022	1	main_slash	11	main_slash	11	stimuli_target_circletriangles.svg	stimuli_distractor_diamondtriangles.svg	5	yes	53	1	637
6.6.1	win	2023-01-03	10:06:00	10:14:55	530868	5ec49137e7928537488485ea	184623022	1	main_slash	11	advance_on_keypress_SLASH	12	stimuli_target_circletriangles.svg	stimuli_distractor_diamondtriangles.svg	5	yes	57	0	351
6.6.1	win	2023-01-03	10:06:00	10:14:57	532469	5ec49137e7928537488485ea	184623022	1	main_slash	11	main_slash	13	stimuli_distractor_trianglediamonds.svg	stimuli_target_squaretriangles.svg	11	yes	53	1	605
6.6.1	win	2023-01-03	10:06:00	10:14:57	532469	5ec49137e7928537488485ea	184623022	1	main_slash	11	advance_on_keypress_SLASH	14	stimuli_distractor_trianglediamonds.svg	stimuli_target_squaretriangles.svg	11	yes	57	0	350
6.6.1	win	2023-01-03	10:06:00	10:14:58	534058	5ec49137e7928537488485ea	184623022	1	main_slash	11	main_slash	15	stimuli_target_squaretriangles.svg	stimuli_distractor_diamondtriangles.svg	7	yes	53	1	593
6.6.1	win	2023-01-03	10:06:00	10:14:58	534058	5ec49137e7928537488485ea	184623022	1	main_slash	11	advance_on_keypress_SLASH	16	stimuli_target_squaretriangles.svg	stimuli_distractor_diamondtriangles.svg	7	yes	57	0	357
6.6.1	win	2023-01-03	10:06:00	10:15:00	535612	5ec49137e7928537488485ea	184623022	1	main_slash	11	main_slash	17	stimuli_target_squarediamonds.svg	stimuli_distractor_trianglediamonds.svg	4	yes	53	1	564
6.6.1	win	2023-01-03	10:06:00	10:15:00	535612	5ec49137e7928537488485ea	184623022	1	main_slash	11	advance_on_keypress_SLASH	18	stimuli_target_squarediamonds.svg	stimuli_distractor_trianglediamonds.svg	4	yes	57	0	337
6.6.1	win	2023-01-03	10:06:00	10:15:01	537240	5ec49137e7928537488485ea	184623022	1	main_slash	11	main_slash	19	stimuli_target_trianglesquares.svg	stimuli_distractor_trianglediamonds.svg	18	yes	53	1	642
6.6.1	win	2023-01-03	10:06:00	10:15:01	537240	5ec49137e7928537488485ea	184623022	1	main_slash	11	advance_on_keypress_SLASH	20	stimuli_target_trianglesquares.svg	stimuli_distractor_trianglediamonds.svg	18	yes	57	0	333
6.6.1	win	2023-01-03	10:06:00	10:15:03	538812	5ec49137e7928537488485ea	184623022	1	main_slash	11	main_slash	21	stimuli_target_squaretriangles.svg	stimuli_distractor_trianglediamonds.svg	3	yes	53	1	598
6.6.1	win	2023-01-03	10:06:00	10:15:03	538812	5ec49137e7928537488485ea	184623022	1	main_slash	11	advance_on_keypress_SLASH	22	stimuli_target_squaretriangles.svg	stimuli_distractor_trianglediamonds.svg	3	yes	57	0	294
6.6.1	win	2023-01-03	10:06:00	10:15:05	540314	5ec49137e7928537488485ea	184623022	1	main_slash	11	main_slash	23	stimuli_distractor_trianglediamonds.svg	stimuli_target_diamondsquares.svg	28	yes	53	1	566
6.6.1	win	2023-01-03	10:06:00	10:15:05	540314	5ec49137e7928537488485ea	184623022	1	main_slash	11	advance_on_keypress_SLASH	24	stimuli_distractor_trianglediamonds.svg	stimuli_target_diamondsquares.svg	28	yes	57	0	352
6.6.1	win	2023-01-03	10:06:00	10:15:06	541916	5ec49137e7928537488485ea	184623022	1	main_slash	11	main_slash	25	stimuli_target_diamondsquares.svg	stimuli_distractor_trianglediamonds.svg	20	yes	53	1	600
6.6.1	win	2023-01-03	10:06:00	10:15:06	541916	5ec49137e7928537488485ea	184623022	1	main_slash	11	advance_on_keypress_SLASH	26	stimuli_target_diamondsquares.svg	stimuli_distractor_trianglediamonds.svg	20	yes	57	0	290
6.6.1	win	2023-01-03	10:06:00	10:15:07	543182	5ec49137e7928537488485ea	184623022	1	main_slash	11	main_slash	27	stimuli_distractor_diamondtriangles.svg	stimuli_distractor_diamondtriangles.svg	39	no	53	0	333
6.6.1	win	2023-01-03	10:06:00	10:15:07	543182	5ec49137e7928537488485ea	184623022	1	main_slash	11	advance_on_keypress_SLASH	28	stimuli_distractor_diamondtriangles.svg	stimuli_distractor_diamondtriangles.svg	39	no	57	0	600
6.6.1	win	2023-01-03	10:06:00	10:15:09	544947	5ec49137e7928537488485ea	184623022	1	main_slash	11	main_slash	29	stimuli_distractor_diamondtriangles.svg	stimuli_target_trianglecircles.svg	29	yes	53	1	514
6.6.1	win	2023-01-03	10:06:00	10:15:09	544947	5ec49137e7928537488485ea	184623022	1	main_slash	11	advance_on_keypress_SLASH	30	stimuli_distractor_diamondtriangles.svg	stimuli_target_trianglecircles.svg	29	yes	57	0	319
6.6.1	win	2023-01-03	10:06:00	10:15:11	546671	5ec49137e7928537488485ea	184623022	1	main_slash	11	main_slash	31	stimuli_distractor_trianglediamonds.svg	stimuli_target_circlediamonds.svg	10	yes	53	1	755
6.6.1	win	2023-01-03	10:06:00	10:15:11	546671	5ec49137e7928537488485ea	184623022	1	main_slash	11	advance_on_keypress_SLASH	32	stimuli_distractor_trianglediamonds.svg	stimuli_target_circlediamonds.svg	10	yes	57	0	344
6.6.1	win	2023-01-03	10:06:00	10:15:14	549650	5ec49137e7928537488485ea	184623022	1	main_slash	11	main_slash	33	stimuli_distractor_trianglediamonds.svg	stimuli_distractor_diamondtriangles.svg	35	no	0	1	2000
6.6.1	win	2023-01-03	10:06:00	10:15:14	549650	5ec49137e7928537488485ea	184623022	1	main_slash	11	advance_on_keypress_SLASH	34	stimuli_distractor_trianglediamonds.svg	stimuli_distractor_diamondtriangles.svg	35	no	57	0	310
6.6.1	win	2023-01-03	10:06:00	10:15:17	552599	5ec49137e7928537488485ea	184623022	1	main_slash	11	main_slash	35	stimuli_distractor_trianglediamonds.svg	stimuli_distractor_trianglediamonds.svg	33	no	0	1	2000
6.6.1	win	2023-01-03	10:06:00	10:15:17	552599	5ec49137e7928537488485ea	184623022	1	main_slash	11	advance_on_keypress_SLASH	36	stimuli_distractor_trianglediamonds.svg	stimuli_distractor_trianglediamonds.svg	33	no	57	0	228
6.6.1	win	2023-01-03	10:06:00	10:15:19	554311	5ec49137e7928537488485ea	184623022	1	main_slash	11	main_slash	37	stimuli_distractor_diamondtriangles.svg	stimuli_target_squaretriangles.svg	15	yes	53	1	845
6.6.1	win	2023-01-03	10:06:00	10:15:19	554311	5ec49137e7928537488485ea	184623022	1	main_slash	11	advance_on_keypress_SLASH	38	stimuli_distractor_diamondtriangles.svg	stimuli_target_squaretriangles.svg	15	yes	57	0	464
6.6.1	win	2023-01-03	10:06:00	10:15:20	556168	5ec49137e7928537488485ea	184623022	1	main_slash	11	main_slash	39	stimuli_target_circletriangles.svg	stimuli_distractor_trianglediamonds.svg	1	yes	53	1	751
6.6.1	win	2023-01-03	10:06:00	10:15:20	556168	5ec49137e7928537488485ea	184623022	1	main_slash	11	advance_on_keypress_SLASH	40	stimuli_target_circletriangles.svg	stimuli_distractor_trianglediamonds.svg	1	yes	57	0	284
6.6.1	win	2023-01-03	10:06:00	10:15:23	559101	5ec49137e7928537488485ea	184623022	1	main_slash	11	main_slash	41	stimuli_distractor_diamondtriangles.svg	stimuli_distractor_diamondtriangles.svg	40	no	0	1	2000
6.6.1	win	2023-01-03	10:06:00	10:15:23	559101	5ec49137e7928537488485ea	184623022	1	main_slash	11	advance_on_keypress_SLASH	42	stimuli_distractor_diamondtriangles.svg	stimuli_distractor_diamondtriangles.svg	40	no	57	0	229
6.6.1	win	2023-01-03	10:06:00	10:15:25	560973	5ec49137e7928537488485ea	184623022	1	main_slash	11	main_slash	43	stimuli_distractor_trianglediamonds.svg	stimuli_target_squarediamonds.svg	12	yes	53	1	990
6.6.1	win	2023-01-03	10:06:00	10:15:25	560973	5ec49137e7928537488485ea	184623022	1	main_slash	11	advance_on_keypress_SLASH	44	stimuli_distractor_trianglediamonds.svg	stimuli_target_squarediamonds.svg	12	yes	57	0	446
6.6.1	win	2023-01-03	10:06:00	10:15:27	562710	5ec49137e7928537488485ea	184623022	1	main_slash	11	main_slash	45	stimuli_distractor_diamondtriangles.svg	stimuli_target_circletriangles.svg	13	yes	53	1	644
6.6.1	win	2023-01-03	10:06:00	10:15:27	562710	5ec49137e7928537488485ea	184623022	1	main_slash	11	advance_on_keypress_SLASH	46	stimuli_distractor_diamondtriangles.svg	stimuli_target_circletriangles.svg	13	yes	57	0	310
6.6.1	win	2023-01-03	10:06:00	10:15:28	564292	5ec49137e7928537488485ea	184623022	1	main_slash	11	main_slash	47	stimuli_target_circlediamonds.svg	stimuli_distractor_diamondtriangles.svg	6	yes	53	1	641
6.6.1	win	2023-01-03	10:06:00	10:15:28	564292	5ec49137e7928537488485ea	184623022	1	main_slash	11	advance_on_keypress_SLASH	48	stimuli_target_circlediamonds.svg	stimuli_distractor_diamondtriangles.svg	6	yes	57	0	268
6.6.1	win	2023-01-03	10:06:00	10:15:30	565849	5ec49137e7928537488485ea	184623022	1	main_slash	11	main_slash	49	stimuli_distractor_trianglediamonds.svg	stimuli_target_circletriangles.svg	9	yes	53	1	648
6.6.1	win	2023-01-03	10:06:00	10:15:30	565849	5ec49137e7928537488485ea	184623022	1	main_slash	11	advance_on_keypress_SLASH	50	stimuli_distractor_trianglediamonds.svg	stimuli_target_circletriangles.svg	9	yes	57	0	317
6.6.1	win	2023-01-03	10:06:00	10:15:32	567606	5ec49137e7928537488485ea	184623022	1	main_slash	11	main_slash	51	stimuli_target_diamondcircles.svg	stimuli_distractor_diamondtriangles.svg	23	yes	53	1	789
6.6.1	win	2023-01-03	10:06:00	10:15:32	567606	5ec49137e7928537488485ea	184623022	1	main_slash	11	advance_on_keypress_SLASH	52	stimuli_target_diamondcircles.svg	stimuli_distractor_diamondtriangles.svg	23	yes	57	0	269
6.6.1	win	2023-01-03	10:06:00	10:15:33	569133	5ec49137e7928537488485ea	184623022	1	main_slash	11	main_slash	53	stimuli_target_diamondcircles.svg	stimuli_distractor_trianglediamonds.svg	19	yes	53	1	616
6.6.1	win	2023-01-03	10:06:00	10:15:33	569133	5ec49137e7928537488485ea	184623022	1	main_slash	11	advance_on_keypress_SLASH	54	stimuli_target_diamondcircles.svg	stimuli_distractor_trianglediamonds.svg	19	yes	57	0	312
6.6.1	win	2023-01-03	10:06:00	10:15:35	570730	5ec49137e7928537488485ea	184623022	1	main_slash	11	main_slash	55	stimuli_distractor_trianglediamonds.svg	stimuli_target_diamondcircles.svg	27	yes	53	1	645
6.6.1	win	2023-01-03	10:06:00	10:15:35	570730	5ec49137e7928537488485ea	184623022	1	main_slash	11	advance_on_keypress_SLASH	56	stimuli_distractor_trianglediamonds.svg	stimuli_target_diamondcircles.svg	27	yes	57	0	329
6.6.1	win	2023-01-03	10:06:00	10:15:38	573701	5ec49137e7928537488485ea	184623022	1	main_slash	11	main_slash	57	stimuli_distractor_diamondtriangles.svg	stimuli_distractor_trianglediamonds.svg	37	no	0	1	2000
6.6.1	win	2023-01-03	10:06:00	10:15:38	573701	5ec49137e7928537488485ea	184623022	1	main_slash	11	advance_on_keypress_SLASH	58	stimuli_distractor_diamondtriangles.svg	stimuli_distractor_trianglediamonds.svg	37	no	57	0	305
6.6.1	win	2023-01-03	10:06:00	10:15:41	576652	5ec49137e7928537488485ea	184623022	1	main_slash	11	main_slash	59	stimuli_distractor_trianglediamonds.svg	stimuli_distractor_trianglediamonds.svg	34	no	0	1	2000
6.6.1	win	2023-01-03	10:06:00	10:15:41	576652	5ec49137e7928537488485ea	184623022	1	main_slash	11	advance_on_keypress_SLASH	60	stimuli_distractor_trianglediamonds.svg	stimuli_distractor_trianglediamonds.svg	34	no	57	0	258
6.6.1	win	2023-01-03	10:06:00	10:15:42	578230	5ec49137e7928537488485ea	184623022	1	main_slash	11	main_slash	61	stimuli_distractor_diamondtriangles.svg	stimuli_target_trianglesquares.svg	30	yes	53	1	678
6.6.1	win	2023-01-03	10:06:00	10:15:42	578230	5ec49137e7928537488485ea	184623022	1	main_slash	11	advance_on_keypress_SLASH	62	stimuli_distractor_diamondtriangles.svg	stimuli_target_trianglesquares.svg	30	yes	57	0	268
6.6.1	win	2023-01-03	10:06:00	10:15:45	581135	5ec49137e7928537488485ea	184623022	1	main_slash	11	main_slash	63	stimuli_distractor_trianglediamonds.svg	stimuli_distractor_diamondtriangles.svg	36	no	0	1	2000
6.6.1	win	2023-01-03	10:06:00	10:15:45	581135	5ec49137e7928537488485ea	184623022	1	main_slash	11	advance_on_keypress_SLASH	64	stimuli_distractor_trianglediamonds.svg	stimuli_distractor_diamondtriangles.svg	36	no	57	0	250
6.6.1	win	2023-01-03	10:06:00	10:15:47	582649	5ec49137e7928537488485ea	184623022	1	main_slash	11	main_slash	65	stimuli_distractor_trianglediamonds.svg	stimuli_target_trianglesquares.svg	26	yes	53	1	613
6.6.1	win	2023-01-03	10:06:00	10:15:47	582649	5ec49137e7928537488485ea	184623022	1	main_slash	11	advance_on_keypress_SLASH	66	stimuli_distractor_trianglediamonds.svg	stimuli_target_trianglesquares.svg	26	yes	57	0	255
6.6.1	win	2023-01-03	10:06:00	10:15:48	584075	5ec49137e7928537488485ea	184623022	1	main_slash	11	main_slash	67	stimuli_distractor_trianglediamonds.svg	stimuli_target_trianglecircles.svg	25	yes	53	1	523
6.6.1	win	2023-01-03	10:06:00	10:15:48	584075	5ec49137e7928537488485ea	184623022	1	main_slash	11	advance_on_keypress_SLASH	68	stimuli_distractor_trianglediamonds.svg	stimuli_target_trianglecircles.svg	25	yes	57	0	274
6.6.1	win	2023-01-03	10:06:00	10:15:50	585818	5ec49137e7928537488485ea	184623022	1	main_slash	11	main_slash	69	stimuli_target_diamondsquares.svg	stimuli_distractor_diamondtriangles.svg	24	yes	53	1	832
6.6.1	win	2023-01-03	10:06:00	10:15:50	585818	5ec49137e7928537488485ea	184623022	1	main_slash	11	advance_on_keypress_SLASH	70	stimuli_target_diamondsquares.svg	stimuli_distractor_diamondtriangles.svg	24	yes	57	0	246
6.6.1	win	2023-01-03	10:06:00	10:15:52	587315	5ec49137e7928537488485ea	184623022	1	main_slash	11	main_slash	71	stimuli_distractor_diamondtriangles.svg	stimuli_target_squarediamonds.svg	16	yes	53	1	595
6.6.1	win	2023-01-03	10:06:00	10:15:52	587315	5ec49137e7928537488485ea	184623022	1	main_slash	11	advance_on_keypress_SLASH	72	stimuli_distractor_diamondtriangles.svg	stimuli_target_squarediamonds.svg	16	yes	57	0	294
6.6.1	win	2023-01-03	10:06:00	10:15:53	588796	5ec49137e7928537488485ea	184623022	1	main_slash	11	main_slash	73	stimuli_distractor_diamondtriangles.svg	stimuli_target_diamondcircles.svg	31	yes	53	1	543
6.6.1	win	2023-01-03	10:06:00	10:15:53	588796	5ec49137e7928537488485ea	184623022	1	main_slash	11	advance_on_keypress_SLASH	74	stimuli_distractor_diamondtriangles.svg	stimuli_target_diamondcircles.svg	31	yes	57	0	294
6.6.1	win	2023-01-03	10:06:00	10:15:56	591719	5ec49137e7928537488485ea	184623022	1	main_slash	11	main_slash	75	stimuli_distractor_diamondtriangles.svg	stimuli_distractor_trianglediamonds.svg	38	no	0	1	2000
6.6.1	win	2023-01-03	10:06:00	10:15:56	591719	5ec49137e7928537488485ea	184623022	1	main_slash	11	advance_on_keypress_SLASH	76	stimuli_distractor_diamondtriangles.svg	stimuli_distractor_trianglediamonds.svg	38	no	57	0	413
6.6.1	win	2023-01-03	10:06:00	10:15:58	593397	5ec49137e7928537488485ea	184623022	1	main_slash	11	main_slash	77	stimuli_distractor_diamondtriangles.svg	stimuli_target_circlediamonds.svg	14	yes	53	1	609
6.6.1	win	2023-01-03	10:06:00	10:15:58	593397	5ec49137e7928537488485ea	184623022	1	main_slash	11	advance_on_keypress_SLASH	78	stimuli_distractor_diamondtriangles.svg	stimuli_target_circlediamonds.svg	14	yes	57	0	288
6.6.1	win	2023-01-03	10:06:00	10:15:59	595055	5ec49137e7928537488485ea	184623022	1	main_slash	11	main_slash	79	stimuli_target_trianglecircles.svg	stimuli_distractor_diamondtriangles.svg	21	yes	53	1	734
6.6.1	win	2023-01-03	10:06:00	10:15:59	595055	5ec49137e7928537488485ea	184623022	1	main_slash	11	advance_on_keypress_SLASH	80	stimuli_target_trianglecircles.svg	stimuli_distractor_diamondtriangles.svg	21	yes	57	0	165
6.6.1	win	2023-01-03	10:06:00	10:16:01	596620	5ec49137e7928537488485ea	184623022	1	main_slash	11	main_slash	81	stimuli_distractor_diamondtriangles.svg	stimuli_target_squaretriangles.svg	15	yes	53	1	750
6.6.1	win	2023-01-03	10:06:00	10:16:01	596620	5ec49137e7928537488485ea	184623022	1	main_slash	11	advance_on_keypress_SLASH	82	stimuli_distractor_diamondtriangles.svg	stimuli_target_squaretriangles.svg	15	yes	57	0	264
6.6.1	win	2023-01-03	10:06:00	10:16:02	598243	5ec49137e7928537488485ea	184623022	1	main_slash	11	main_slash	83	stimuli_distractor_diamondtriangles.svg	stimuli_target_circletriangles.svg	13	yes	53	1	705
6.6.1	win	2023-01-03	10:06:00	10:16:02	598243	5ec49137e7928537488485ea	184623022	1	main_slash	11	advance_on_keypress_SLASH	84	stimuli_distractor_diamondtriangles.svg	stimuli_target_circletriangles.svg	13	yes	57	0	319
6.6.1	win	2023-01-03	10:06:00	10:16:04	599954	5ec49137e7928537488485ea	184623022	1	main_slash	11	main_slash	85	stimuli_target_squaretriangles.svg	stimuli_distractor_trianglediamonds.svg	3	yes	53	1	751
6.6.1	win	2023-01-03	10:06:00	10:16:04	599954	5ec49137e7928537488485ea	184623022	1	main_slash	11	advance_on_keypress_SLASH	86	stimuli_target_squaretriangles.svg	stimuli_distractor_trianglediamonds.svg	3	yes	57	0	339
6.6.1	win	2023-01-03	10:06:00	10:16:06	601626	5ec49137e7928537488485ea	184623022	1	main_slash	11	main_slash	87	stimuli_distractor_trianglediamonds.svg	stimuli_target_circletriangles.svg	9	yes	53	1	688
6.6.1	win	2023-01-03	10:06:00	10:16:06	601626	5ec49137e7928537488485ea	184623022	1	main_slash	11	advance_on_keypress_SLASH	88	stimuli_distractor_trianglediamonds.svg	stimuli_target_circletriangles.svg	9	yes	57	0	304
6.6.1	win	2023-01-03	10:06:00	10:16:07	603234	5ec49137e7928537488485ea	184623022	1	main_slash	11	main_slash	89	stimuli_target_diamondcircles.svg	stimuli_distractor_diamondtriangles.svg	23	yes	53	1	664
6.6.1	win	2023-01-03	10:06:00	10:16:07	603234	5ec49137e7928537488485ea	184623022	1	main_slash	11	advance_on_keypress_SLASH	90	stimuli_target_diamondcircles.svg	stimuli_distractor_diamondtriangles.svg	23	yes	57	0	218
6.6.1	win	2023-01-03	10:06:00	10:16:09	604700	5ec49137e7928537488485ea	184623022	1	main_slash	11	main_slash	91	stimuli_target_circlediamonds.svg	stimuli_distractor_trianglediamonds.svg	2	yes	53	1	596
6.6.1	win	2023-01-03	10:06:00	10:16:09	604700	5ec49137e7928537488485ea	184623022	1	main_slash	11	advance_on_keypress_SLASH	92	stimuli_target_circlediamonds.svg	stimuli_distractor_trianglediamonds.svg	2	yes	57	0	239
6.6.1	win	2023-01-03	10:06:00	10:16:12	607588	5ec49137e7928537488485ea	184623022	1	main_slash	11	main_slash	93	stimuli_distractor_trianglediamonds.svg	stimuli_distractor_trianglediamonds.svg	33	no	0	1	2000
6.6.1	win	2023-01-03	10:06:00	10:16:12	607588	5ec49137e7928537488485ea	184623022	1	main_slash	11	advance_on_keypress_SLASH	94	stimuli_distractor_trianglediamonds.svg	stimuli_distractor_trianglediamonds.svg	33	no	57	0	1144
6.6.1	win	2023-01-03	10:06:00	10:16:16	611371	5ec49137e7928537488485ea	184623022	1	main_slash	11	main_slash	95	stimuli_distractor_trianglediamonds.svg	stimuli_target_squarediamonds.svg	12	yes	0	0	2000
6.6.1	win	2023-01-03	10:06:00	10:16:16	611371	5ec49137e7928537488485ea	184623022	1	main_slash	11	advance_on_keypress_SLASH	96	stimuli_distractor_trianglediamonds.svg	stimuli_target_squarediamonds.svg	12	yes	57	0	289
6.6.1	win	2023-01-03	10:06:00	10:16:17	612925	5ec49137e7928537488485ea	184623022	1	main_slash	11	main_slash	97	stimuli_distractor_trianglediamonds.svg	stimuli_target_circlediamonds.svg	10	yes	53	1	619
6.6.1	win	2023-01-03	10:06:00	10:16:17	612925	5ec49137e7928537488485ea	184623022	1	main_slash	11	advance_on_keypress_SLASH	98	stimuli_distractor_trianglediamonds.svg	stimuli_target_circlediamonds.svg	10	yes	57	0	317
6.6.1	win	2023-01-03	10:06:00	10:16:19	614507	5ec49137e7928537488485ea	184623022	1	main_slash	11	main_slash	99	stimuli_distractor_trianglediamonds.svg	stimuli_target_diamondcircles.svg	27	yes	53	1	618
6.6.1	win	2023-01-03	10:06:00	10:16:19	614507	5ec49137e7928537488485ea	184623022	1	main_slash	11	advance_on_keypress_SLASH	100	stimuli_distractor_trianglediamonds.svg	stimuli_target_diamondcircles.svg	27	yes	57	0	264
6.6.1	win	2023-01-03	10:06:00	10:16:22	617422	5ec49137e7928537488485ea	184623022	1	main_slash	11	main_slash	101	stimuli_distractor_diamondtriangles.svg	stimuli_distractor_trianglediamonds.svg	38	no	0	1	2000
6.6.1	win	2023-01-03	10:06:00	10:16:22	617422	5ec49137e7928537488485ea	184623022	1	main_slash	11	advance_on_keypress_SLASH	102	stimuli_distractor_diamondtriangles.svg	stimuli_distractor_trianglediamonds.svg	38	no	57	0	392
6.6.1	win	2023-01-03	10:06:00	10:16:25	620456	5ec49137e7928537488485ea	184623022	1	main_slash	11	main_slash	103	stimuli_distractor_trianglediamonds.svg	stimuli_distractor_diamondtriangles.svg	35	no	0	1	2000
6.6.1	win	2023-01-03	10:06:00	10:16:25	620456	5ec49137e7928537488485ea	184623022	1	main_slash	11	advance_on_keypress_SLASH	104	stimuli_distractor_trianglediamonds.svg	stimuli_distractor_diamondtriangles.svg	35	no	57	0	245
6.6.1	win	2023-01-03	10:06:00	10:16:28	623339	5ec49137e7928537488485ea	184623022	1	main_slash	11	main_slash	105	stimuli_distractor_trianglediamonds.svg	stimuli_distractor_diamondtriangles.svg	36	no	0	1	2000
6.6.1	win	2023-01-03	10:06:00	10:16:28	623339	5ec49137e7928537488485ea	184623022	1	main_slash	11	advance_on_keypress_SLASH	106	stimuli_distractor_trianglediamonds.svg	stimuli_distractor_diamondtriangles.svg	36	no	57	0	216
6.6.1	win	2023-01-03	10:06:00	10:16:29	624748	5ec49137e7928537488485ea	184623022	1	main_slash	11	main_slash	107	stimuli_distractor_diamondtriangles.svg	stimuli_target_diamondcircles.svg	31	yes	53	1	543
6.6.1	win	2023-01-03	10:06:00	10:16:29	624748	5ec49137e7928537488485ea	184623022	1	main_slash	11	advance_on_keypress_SLASH	108	stimuli_distractor_diamondtriangles.svg	stimuli_target_diamondcircles.svg	31	yes	57	0	422
6.6.1	win	2023-01-03	10:06:00	10:16:31	626565	5ec49137e7928537488485ea	184623022	1	main_slash	11	main_slash	109	stimuli_target_diamondsquares.svg	stimuli_distractor_trianglediamonds.svg	20	yes	53	1	758
6.6.1	win	2023-01-03	10:06:00	10:16:31	626565	5ec49137e7928537488485ea	184623022	1	main_slash	11	advance_on_keypress_SLASH	110	stimuli_target_diamondsquares.svg	stimuli_distractor_trianglediamonds.svg	20	yes	57	0	232
6.6.1	win	2023-01-03	10:06:00	10:16:32	628012	5ec49137e7928537488485ea	184623022	1	main_slash	11	main_slash	111	stimuli_target_trianglecircles.svg	stimuli_distractor_diamondtriangles.svg	21	yes	53	1	572
6.6.1	win	2023-01-03	10:06:00	10:16:32	628012	5ec49137e7928537488485ea	184623022	1	main_slash	11	advance_on_keypress_SLASH	112	stimuli_target_trianglecircles.svg	stimuli_distractor_diamondtriangles.svg	21	yes	57	0	203
6.6.1	win	2023-01-03	10:06:00	10:16:34	629468	5ec49137e7928537488485ea	184623022	1	main_slash	11	main_slash	113	stimuli_target_squarediamonds.svg	stimuli_distractor_trianglediamonds.svg	4	yes	53	1	612
6.6.1	win	2023-01-03	10:06:00	10:16:34	629468	5ec49137e7928537488485ea	184623022	1	main_slash	11	advance_on_keypress_SLASH	114	stimuli_target_squarediamonds.svg	stimuli_distractor_trianglediamonds.svg	4	yes	57	0	225
6.6.1	win	2023-01-03	10:06:00	10:16:35	630864	5ec49137e7928537488485ea	184623022	1	main_slash	11	main_slash	115	stimuli_distractor_trianglediamonds.svg	stimuli_target_squaretriangles.svg	11	yes	53	1	541
6.6.1	win	2023-01-03	10:06:00	10:16:35	630864	5ec49137e7928537488485ea	184623022	1	main_slash	11	advance_on_keypress_SLASH	116	stimuli_distractor_trianglediamonds.svg	stimuli_target_squaretriangles.svg	11	yes	57	0	221
6.6.1	win	2023-01-03	10:06:00	10:16:36	632242	5ec49137e7928537488485ea	184623022	1	main_slash	11	main_slash	117	stimuli_distractor_diamondtriangles.svg	stimuli_target_trianglecircles.svg	29	yes	53	1	519
6.6.1	win	2023-01-03	10:06:00	10:16:36	632242	5ec49137e7928537488485ea	184623022	1	main_slash	11	advance_on_keypress_SLASH	118	stimuli_distractor_diamondtriangles.svg	stimuli_target_trianglecircles.svg	29	yes	57	0	196
6.6.1	win	2023-01-03	10:06:00	10:16:38	633748	5ec49137e7928537488485ea	184623022	1	main_slash	11	main_slash	119	stimuli_distractor_trianglediamonds.svg	stimuli_target_trianglesquares.svg	26	yes	53	1	675
6.6.1	win	2023-01-03	10:06:00	10:16:38	633748	5ec49137e7928537488485ea	184623022	1	main_slash	11	advance_on_keypress_SLASH	120	stimuli_distractor_trianglediamonds.svg	stimuli_target_trianglesquares.svg	26	yes	57	0	131
6.6.1	win	2023-01-03	10:06:00	10:16:39	635161	5ec49137e7928537488485ea	184623022	1	main_slash	11	main_slash	121	stimuli_target_diamondsquares.svg	stimuli_distractor_diamondtriangles.svg	24	yes	53	1	637
6.6.1	win	2023-01-03	10:06:00	10:16:39	635161	5ec49137e7928537488485ea	184623022	1	main_slash	11	advance_on_keypress_SLASH	122	stimuli_target_diamondsquares.svg	stimuli_distractor_diamondtriangles.svg	24	yes	57	0	187
6.6.1	win	2023-01-03	10:06:00	10:16:42	637990	5ec49137e7928537488485ea	184623022	1	main_slash	11	main_slash	123	stimuli_distractor_diamondtriangles.svg	stimuli_distractor_diamondtriangles.svg	40	no	0	1	2000
6.6.1	win	2023-01-03	10:06:00	10:16:42	637990	5ec49137e7928537488485ea	184623022	1	main_slash	11	advance_on_keypress_SLASH	124	stimuli_distractor_diamondtriangles.svg	stimuli_distractor_diamondtriangles.svg	40	no	57	0	1504
6.6.1	win	2023-01-03	10:06:00	10:16:45	640773	5ec49137e7928537488485ea	184623022	1	main_slash	11	main_slash	125	stimuli_target_trianglesquares.svg	stimuli_distractor_diamondtriangles.svg	22	yes	53	1	632
6.6.1	win	2023-01-03	10:06:00	10:16:45	640773	5ec49137e7928537488485ea	184623022	1	main_slash	11	advance_on_keypress_SLASH	126	stimuli_target_trianglesquares.svg	stimuli_distractor_diamondtriangles.svg	22	yes	57	0	227
6.6.1	win	2023-01-03	10:06:00	10:16:46	642204	5ec49137e7928537488485ea	184623022	1	main_slash	11	main_slash	127	stimuli_target_circlediamonds.svg	stimuli_distractor_diamondtriangles.svg	6	yes	53	1	564
6.6.1	win	2023-01-03	10:06:00	10:16:46	642204	5ec49137e7928537488485ea	184623022	1	main_slash	11	advance_on_keypress_SLASH	128	stimuli_target_circlediamonds.svg	stimuli_distractor_diamondtriangles.svg	6	yes	57	0	204
6.6.1	win	2023-01-03	10:06:00	10:16:49	645057	5ec49137e7928537488485ea	184623022	1	main_slash	11	main_slash	129	stimuli_distractor_diamondtriangles.svg	stimuli_distractor_trianglediamonds.svg	37	no	0	1	2000
6.6.1	win	2023-01-03	10:06:00	10:16:49	645057	5ec49137e7928537488485ea	184623022	1	main_slash	11	advance_on_keypress_SLASH	130	stimuli_distractor_diamondtriangles.svg	stimuli_distractor_trianglediamonds.svg	37	no	57	0	262
6.6.1	win	2023-01-03	10:06:00	10:16:51	646493	5ec49137e7928537488485ea	184623022	1	main_slash	11	main_slash	131	stimuli_distractor_trianglediamonds.svg	stimuli_target_trianglecircles.svg	25	yes	53	1	536
6.6.1	win	2023-01-03	10:06:00	10:16:51	646493	5ec49137e7928537488485ea	184623022	1	main_slash	11	advance_on_keypress_SLASH	132	stimuli_distractor_trianglediamonds.svg	stimuli_target_trianglecircles.svg	25	yes	57	0	240
6.6.1	win	2023-01-03	10:06:00	10:16:54	649375	5ec49137e7928537488485ea	184623022	1	main_slash	11	main_slash	133	stimuli_distractor_trianglediamonds.svg	stimuli_distractor_trianglediamonds.svg	34	no	0	1	2000
6.6.1	win	2023-01-03	10:06:00	10:16:54	649375	5ec49137e7928537488485ea	184623022	1	main_slash	11	advance_on_keypress_SLASH	134	stimuli_distractor_trianglediamonds.svg	stimuli_distractor_trianglediamonds.svg	34	no	57	0	285
6.6.1	win	2023-01-03	10:06:00	10:16:55	651009	5ec49137e7928537488485ea	184623022	1	main_slash	11	main_slash	135	stimuli_target_circletriangles.svg	stimuli_distractor_trianglediamonds.svg	1	yes	53	1	700
6.6.1	win	2023-01-03	10:06:00	10:16:55	651009	5ec49137e7928537488485ea	184623022	1	main_slash	11	advance_on_keypress_SLASH	136	stimuli_target_circletriangles.svg	stimuli_distractor_trianglediamonds.svg	1	yes	57	0	228
6.6.1	win	2023-01-03	10:06:00	10:16:57	652350	5ec49137e7928537488485ea	184623022	1	main_slash	11	main_slash	137	stimuli_distractor_trianglediamonds.svg	stimuli_target_diamondsquares.svg	28	yes	53	1	474
6.6.1	win	2023-01-03	10:06:00	10:16:57	652350	5ec49137e7928537488485ea	184623022	1	main_slash	11	advance_on_keypress_SLASH	138	stimuli_distractor_trianglediamonds.svg	stimuli_target_diamondsquares.svg	28	yes	57	0	191
6.6.1	win	2023-01-03	10:06:00	10:16:58	653807	5ec49137e7928537488485ea	184623022	1	main_slash	11	main_slash	139	stimuli_target_squarediamonds.svg	stimuli_distractor_diamondtriangles.svg	8	yes	53	1	631
6.6.1	win	2023-01-03	10:06:00	10:16:58	653807	5ec49137e7928537488485ea	184623022	1	main_slash	11	advance_on_keypress_SLASH	140	stimuli_target_squarediamonds.svg	stimuli_distractor_diamondtriangles.svg	8	yes	57	0	351
6.6.1	win	2023-01-03	10:06:00	10:16:59	655262	5ec49137e7928537488485ea	184623022	1	main_slash	11	main_slash	141	stimuli_distractor_diamondtriangles.svg	stimuli_target_trianglesquares.svg	30	yes	53	1	455
6.6.1	win	2023-01-03	10:06:00	10:16:59	655262	5ec49137e7928537488485ea	184623022	1	main_slash	11	advance_on_keypress_SLASH	142	stimuli_distractor_diamondtriangles.svg	stimuli_target_trianglesquares.svg	30	yes	57	0	158
6.6.1	win	2023-01-03	10:06:00	10:17:01	656575	5ec49137e7928537488485ea	184623022	1	main_slash	11	main_slash	143	stimuli_target_squaretriangles.svg	stimuli_distractor_diamondtriangles.svg	7	yes	53	1	503
6.6.1	win	2023-01-03	10:06:00	10:17:01	656575	5ec49137e7928537488485ea	184623022	1	main_slash	11	advance_on_keypress_SLASH	144	stimuli_target_squaretriangles.svg	stimuli_distractor_diamondtriangles.svg	7	yes	57	0	178
6.6.1	win	2023-01-03	10:06:00	10:17:02	657881	5ec49137e7928537488485ea	184623022	1	main_slash	11	main_slash	145	stimuli_target_trianglecircles.svg	stimuli_distractor_trianglediamonds.svg	17	yes	53	1	489
6.6.1	win	2023-01-03	10:06:00	10:17:02	657881	5ec49137e7928537488485ea	184623022	1	main_slash	11	advance_on_keypress_SLASH	146	stimuli_target_trianglecircles.svg	stimuli_distractor_trianglediamonds.svg	17	yes	57	0	219
6.6.1	win	2023-01-03	10:06:00	10:17:03	659178	5ec49137e7928537488485ea	184623022	1	main_slash	11	main_slash	147	stimuli_target_trianglesquares.svg	stimuli_distractor_trianglediamonds.svg	18	yes	53	1	435
6.6.1	win	2023-01-03	10:06:00	10:17:03	659178	5ec49137e7928537488485ea	184623022	1	main_slash	11	advance_on_keypress_SLASH	148	stimuli_target_trianglesquares.svg	stimuli_distractor_trianglediamonds.svg	18	yes	57	0	225
6.6.1	win	2023-01-03	10:06:00	10:17:05	660476	5ec49137e7928537488485ea	184623022	1	main_slash	11	main_slash	149	stimuli_distractor_diamondtriangles.svg	stimuli_target_circlediamonds.svg	14	yes	53	1	433
6.6.1	win	2023-01-03	10:06:00	10:17:05	660476	5ec49137e7928537488485ea	184623022	1	main_slash	11	advance_on_keypress_SLASH	150	stimuli_distractor_diamondtriangles.svg	stimuli_target_circlediamonds.svg	14	yes	57	0	222
6.6.1	win	2023-01-03	10:06:00	10:17:06	661731	5ec49137e7928537488485ea	184623022	1	main_slash	11	main_slash	151	stimuli_target_circletriangles.svg	stimuli_distractor_diamondtriangles.svg	5	yes	53	1	390
6.6.1	win	2023-01-03	10:06:00	10:17:06	661731	5ec49137e7928537488485ea	184623022	1	main_slash	11	advance_on_keypress_SLASH	152	stimuli_target_circletriangles.svg	stimuli_distractor_diamondtriangles.svg	5	yes	57	0	219
6.6.1	win	2023-01-03	10:06:00	10:17:08	663373	5ec49137e7928537488485ea	184623022	1	main_slash	11	main_slash	153	stimuli_distractor_diamondtriangles.svg	stimuli_target_squarediamonds.svg	16	yes	53	1	780
6.6.1	win	2023-01-03	10:06:00	10:17:08	663373	5ec49137e7928537488485ea	184623022	1	main_slash	11	advance_on_keypress_SLASH	154	stimuli_distractor_diamondtriangles.svg	stimuli_target_squarediamonds.svg	16	yes	57	0	141
6.6.1	win	2023-01-03	10:06:00	10:17:09	664600	5ec49137e7928537488485ea	184623022	1	main_slash	11	main_slash	155	stimuli_distractor_diamondtriangles.svg	stimuli_target_diamondsquares.svg	32	yes	53	1	441
6.6.1	win	2023-01-03	10:06:00	10:17:09	664600	5ec49137e7928537488485ea	184623022	1	main_slash	11	advance_on_keypress_SLASH	156	stimuli_distractor_diamondtriangles.svg	stimuli_target_diamondsquares.svg	32	yes	57	0	180
6.6.1	win	2023-01-03	10:06:00	10:17:12	667426	5ec49137e7928537488485ea	184623022	1	main_slash	11	main_slash	157	stimuli_distractor_diamondtriangles.svg	stimuli_distractor_diamondtriangles.svg	39	no	0	1	2000
6.6.1	win	2023-01-03	10:06:00	10:17:12	667426	5ec49137e7928537488485ea	184623022	1	main_slash	11	advance_on_keypress_SLASH	158	stimuli_distractor_diamondtriangles.svg	stimuli_distractor_diamondtriangles.svg	39	no	57	0	1166
6.6.1	win	2023-01-03	10:06:00	10:17:14	669706	5ec49137e7928537488485ea	184623022	1	main_slash	11	main_slash	159	stimuli_target_diamondcircles.svg	stimuli_distractor_trianglediamonds.svg	19	yes	53	1	462
6.6.1	win	2023-01-03	10:06:00	10:17:14	669706	5ec49137e7928537488485ea	184623022	1	main_slash	11	advance_on_keypress_SLASH	160	stimuli_target_diamondcircles.svg	stimuli_distractor_trianglediamonds.svg	19	yes	57	0	270