build	computer.platform	date	time	timestamp	time_elapsed_ms	subject	group	session	blockcode	blocknum	trialcode	trialnum	stimulus_left	stimulus_right	stim_index	target_present	response	correct	latency
6.6.1	win	2022-12-14	13:53:02	13:56:18	193551	57d714de813eb30001825ac4	421403109	1	practice_slash	5	practice_slash	1	stimuli_target_circlediamonds.svg	stimuli_distractor_trianglediamonds.svg	4	yes	53	1	806
6.6.1	win	2022-12-14	13:53:02	13:56:18	193551	57d714de813eb30001825ac4	421403109	1	practice_slash	5	advance_on_keypress_SLASH	2	stimuli_target_circlediamonds.svg	stimuli_distractor_trianglediamonds.svg	4	yes	57	0	1559
6.6.1	win	2022-12-14	13:53:02	13:56:23	198777	57d714de813eb30001825ac4	421403109	1	practice_slash	5	practice_slash	3	stimuli_distractor_trianglediamonds.svg	stimuli_distractor_trianglediamonds.svg	15	no	0	1	2000
6.6.1	win	2022-12-14	13:53:02	13:56:23	198777	57d714de813eb30001825ac4	421403109	1	practice_slash	5	advance_on_keypress_SLASH	4	stimuli_distractor_trianglediamonds.svg	stimuli_distractor_trianglediamonds.svg	15	no	57	0	872
6.6.1	win	2022-12-14	13:53:02	13:56:26	202027	57d714de813eb30001825ac4	421403109	1	practice_slash	5	practice_slash	5	stimuli_target_circlediamonds.svg	stimuli_distractor_diamondtriangles.svg	1	yes	53	1	735
6.6.1	win	2022-12-14	13:53:02	13:56:26	202027	57d714de813eb30001825ac4	421403109	1	practice_slash	5	advance_on_keypress_SLASH	6	stimuli_target_circlediamonds.svg	stimuli_distractor_diamondtriangles.svg	1	yes	57	0	897
6.6.1	win	2022-12-14	13:53:02	13:56:31	206576	57d714de813eb30001825ac4	421403109	1	practice_slash	5	practice_slash	7	stimuli_distractor_trianglediamonds.svg	stimuli_distractor_diamondtriangles.svg	16	no	0	1	2000
6.6.1	win	2022-12-14	13:53:02	13:56:31	206576	57d714de813eb30001825ac4	421403109	1	practice_slash	5	advance_on_keypress_SLASH	8	stimuli_distractor_trianglediamonds.svg	stimuli_distractor_diamondtriangles.svg	16	no	57	0	826
6.6.1	win	2022-12-14	13:53:02	13:56:35	211056	57d714de813eb30001825ac4	421403109	1	practice_slash	5	practice_slash	9	stimuli_distractor_diamondtriangles.svg	stimuli_distractor_trianglediamonds.svg	14	no	0	1	2000
6.6.1	win	2022-12-14	13:53:02	13:56:35	211056	57d714de813eb30001825ac4	421403109	1	practice_slash	5	advance_on_keypress_SLASH	10	stimuli_distractor_diamondtriangles.svg	stimuli_distractor_trianglediamonds.svg	14	no	57	0	809
6.6.1	win	2022-12-14	13:53:02	13:56:40	215522	57d714de813eb30001825ac4	421403109	1	practice_slash	5	practice_slash	11	stimuli_distractor_diamondtriangles.svg	stimuli_target_circletriangles.svg	7	yes	0	0	2000
6.6.1	win	2022-12-14	13:53:02	13:56:40	215522	57d714de813eb30001825ac4	421403109	1	practice_slash	5	advance_on_keypress_SLASH	12	stimuli_distractor_diamondtriangles.svg	stimuli_target_circletriangles.svg	7	yes	57	0	849
6.6.1	win	2022-12-14	13:53:02	13:56:44	220020	57d714de813eb30001825ac4	421403109	1	practice_slash	5	practice_slash	13	stimuli_target_diamondsquares.svg	stimuli_distractor_trianglediamonds.svg	6	yes	0	0	2000
6.6.1	win	2022-12-14	13:53:02	13:56:44	220020	57d714de813eb30001825ac4	421403109	1	practice_slash	5	advance_on_keypress_SLASH	14	stimuli_target_diamondsquares.svg	stimuli_distractor_trianglediamonds.svg	6	yes	57	0	507
6.6.1	win	2022-12-14	13:53:02	13:56:48	223607	57d714de813eb30001825ac4	421403109	1	practice_slash	5	practice_slash	15	stimuli_distractor_trianglediamonds.svg	stimuli_target_diamondcircles.svg	12	yes	53	1	1421
6.6.1	win	2022-12-14	13:53:02	13:56:48	223607	57d714de813eb30001825ac4	421403109	1	practice_slash	5	advance_on_keypress_SLASH	16	stimuli_distractor_trianglediamonds.svg	stimuli_target_diamondcircles.svg	12	yes	57	0	641
6.6.1	win	2022-12-14	13:53:02	13:56:52	227885	57d714de813eb30001825ac4	421403109	1	practice_slash	5	practice_slash	17	stimuli_distractor_diamondtriangles.svg	stimuli_distractor_diamondtriangles.svg	13	no	0	1	2000
6.6.1	win	2022-12-14	13:53:02	13:56:52	227885	57d714de813eb30001825ac4	421403109	1	practice_slash	5	advance_on_keypress_SLASH	18	stimuli_distractor_diamondtriangles.svg	stimuli_distractor_diamondtriangles.svg	13	no	57	0	410
6.6.1	win	2022-12-14	13:53:02	13:56:54	230345	57d714de813eb30001825ac4	421403109	1	practice_slash	5	practice_slash	19	stimuli_distractor_trianglediamonds.svg	stimuli_target_circlediamonds.svg	10	yes	53	1	395
6.6.1	win	2022-12-14	13:53:02	13:56:54	230345	57d714de813eb30001825ac4	421403109	1	practice_slash	5	advance_on_keypress_SLASH	20	stimuli_distractor_trianglediamonds.svg	stimuli_target_circlediamonds.svg	10	yes	57	0	646
6.6.1	win	2022-12-14	13:53:02	13:56:57	233382	57d714de813eb30001825ac4	421403109	1	practice_slash	5	practice_slash	21	stimuli_target_squarediamonds.svg	stimuli_distractor_trianglediamonds.svg	5	yes	53	1	733
6.6.1	win	2022-12-14	13:53:02	13:56:57	233382	57d714de813eb30001825ac4	421403109	1	practice_slash	5	advance_on_keypress_SLASH	22	stimuli_target_squarediamonds.svg	stimuli_distractor_trianglediamonds.svg	5	yes	57	0	596
6.6.1	win	2022-12-14	13:53:02	13:57:00	236147	57d714de813eb30001825ac4	421403109	1	practice_slash	5	practice_slash	23	stimuli_distractor_diamondtriangles.svg	stimuli_target_trianglecircles.svg	9	yes	53	1	510
6.6.1	win	2022-12-14	13:53:02	13:57:00	236147	57d714de813eb30001825ac4	421403109	1	practice_slash	5	advance_on_keypress_SLASH	24	stimuli_distractor_diamondtriangles.svg	stimuli_target_trianglecircles.svg	9	yes	57	0	585
6.6.1	win	2022-12-14	13:53:02	13:57:04	240382	57d714de813eb30001825ac4	421403109	1	practice_slash	5	practice_slash	25	stimuli_target_diamondsquares.svg	stimuli_distractor_diamondtriangles.svg	3	yes	0	0	2000
6.6.1	win	2022-12-14	13:53:02	13:57:04	240382	57d714de813eb30001825ac4	421403109	1	practice_slash	5	advance_on_keypress_SLASH	26	stimuli_target_diamondsquares.svg	stimuli_distractor_diamondtriangles.svg	3	yes	57	0	604
6.6.1	win	2022-12-14	13:53:02	13:57:07	243361	57d714de813eb30001825ac4	421403109	1	practice_slash	5	practice_slash	27	stimuli_distractor_diamondtriangles.svg	stimuli_target_diamondcircles.svg	8	yes	53	1	730
6.6.1	win	2022-12-14	13:53:02	13:57:07	243361	57d714de813eb30001825ac4	421403109	1	practice_slash	5	advance_on_keypress_SLASH	28	stimuli_distractor_diamondtriangles.svg	stimuli_target_diamondcircles.svg	8	yes	57	0	501
6.6.1	win	2022-12-14	13:53:02	13:57:10	246327	57d714de813eb30001825ac4	421403109	1	practice_slash	5	practice_slash	29	stimuli_target_squarediamonds.svg	stimuli_distractor_diamondtriangles.svg	2	yes	53	1	815
6.6.1	win	2022-12-14	13:53:02	13:57:10	246327	57d714de813eb30001825ac4	421403109	1	practice_slash	5	advance_on_keypress_SLASH	30	stimuli_target_squarediamonds.svg	stimuli_distractor_diamondtriangles.svg	2	yes	57	0	96
6.6.1	win	2022-12-14	13:53:02	13:57:13	248610	57d714de813eb30001825ac4	421403109	1	practice_slash	5	practice_slash	31	stimuli_distractor_trianglediamonds.svg	stimuli_target_squarediamonds.svg	11	yes	53	1	531
6.6.1	win	2022-12-14	13:53:02	13:57:13	248610	57d714de813eb30001825ac4	421403109	1	practice_slash	5	advance_on_keypress_SLASH	32	stimuli_distractor_trianglediamonds.svg	stimuli_target_squarediamonds.svg	11	yes	57	0	355
6.6.1	win	2022-12-14	13:53:02	13:57:26	262088	57d714de813eb30001825ac4	421403109	1	main_slash	7	main_slash	1	stimuli_distractor_trianglediamonds.svg	stimuli_target_diamondcircles.svg	27	yes	53	1	882
6.6.1	win	2022-12-14	13:53:02	13:57:26	262088	57d714de813eb30001825ac4	421403109	1	main_slash	7	advance_on_keypress_SLASH	2	stimuli_distractor_trianglediamonds.svg	stimuli_target_diamondcircles.svg	27	yes	57	0	855
6.6.1	win	2022-12-14	13:53:02	13:57:28	264281	57d714de813eb30001825ac4	421403109	1	main_slash	7	main_slash	3	stimuli_distractor_trianglediamonds.svg	stimuli_target_circletriangles.svg	9	yes	53	1	693
6.6.1	win	2022-12-14	13:53:02	13:57:28	264281	57d714de813eb30001825ac4	421403109	1	main_slash	7	advance_on_keypress_SLASH	4	stimuli_distractor_trianglediamonds.svg	stimuli_target_circletriangles.svg	9	yes	57	0	619
6.6.1	win	2022-12-14	13:53:02	13:57:31	266495	57d714de813eb30001825ac4	421403109	1	main_slash	7	main_slash	5	stimuli_target_trianglecircles.svg	stimuli_distractor_trianglediamonds.svg	17	yes	53	1	958
6.6.1	win	2022-12-14	13:53:02	13:57:31	266495	57d714de813eb30001825ac4	421403109	1	main_slash	7	advance_on_keypress_SLASH	6	stimuli_target_trianglecircles.svg	stimuli_distractor_trianglediamonds.svg	17	yes	57	0	663
6.6.1	win	2022-12-14	13:53:02	13:57:34	269803	57d714de813eb30001825ac4	421403109	1	main_slash	7	main_slash	7	stimuli_distractor_diamondtriangles.svg	stimuli_distractor_diamondtriangles.svg	39	no	0	1	2000
6.6.1	win	2022-12-14	13:53:02	13:57:34	269803	57d714de813eb30001825ac4	421403109	1	main_slash	7	advance_on_keypress_SLASH	8	stimuli_distractor_diamondtriangles.svg	stimuli_distractor_diamondtriangles.svg	39	no	57	0	596
6.6.1	win	2022-12-14	13:53:02	13:57:36	271685	57d714de813eb30001825ac4	421403109	1	main_slash	7	main_slash	9	stimuli_distractor_trianglediamonds.svg	stimuli_target_squarediamonds.svg	12	yes	53	1	632
6.6.1	win	2022-12-14	13:53:02	13:57:36	271685	57d714de813eb30001825ac4	421403109	1	main_slash	7	advance_on_keypress_SLASH	10	stimuli_distractor_trianglediamonds.svg	stimuli_target_squarediamonds.svg	12	yes	57	0	845
6.6.1	win	2022-12-14	13:53:02	13:57:38	273918	57d714de813eb30001825ac4	421403109	1	main_slash	7	main_slash	11	stimuli_target_diamondcircles.svg	stimuli_distractor_diamondtriangles.svg	23	yes	53	1	732
6.6.1	win	2022-12-14	13:53:02	13:57:38	273918	57d714de813eb30001825ac4	421403109	1	main_slash	7	advance_on_keypress_SLASH	12	stimuli_target_diamondcircles.svg	stimuli_distractor_diamondtriangles.svg	23	yes	57	0	612
6.6.1	win	2022-12-14	13:53:02	13:57:40	275986	57d714de813eb30001825ac4	421403109	1	main_slash	7	main_slash	13	stimuli_distractor_diamondtriangles.svg	stimuli_target_diamondsquares.svg	32	yes	53	1	801
6.6.1	win	2022-12-14	13:53:02	13:57:40	275986	57d714de813eb30001825ac4	421403109	1	main_slash	7	advance_on_keypress_SLASH	14	stimuli_distractor_diamondtriangles.svg	stimuli_target_diamondsquares.svg	32	yes	57	0	598
6.6.1	win	2022-12-14	13:53:02	13:57:42	277887	57d714de813eb30001825ac4	421403109	1	main_slash	7	main_slash	15	stimuli_distractor_trianglediamonds.svg	stimuli_target_trianglecircles.svg	25	yes	53	1	653
6.6.1	win	2022-12-14	13:53:02	13:57:42	277887	57d714de813eb30001825ac4	421403109	1	main_slash	7	advance_on_keypress_SLASH	16	stimuli_distractor_trianglediamonds.svg	stimuli_target_trianglecircles.svg	25	yes	57	0	564
6.6.1	win	2022-12-14	13:53:02	13:57:44	279732	57d714de813eb30001825ac4	421403109	1	main_slash	7	main_slash	17	stimuli_distractor_diamondtriangles.svg	stimuli_target_trianglecircles.svg	29	yes	53	1	631
6.6.1	win	2022-12-14	13:53:02	13:57:44	279732	57d714de813eb30001825ac4	421403109	1	main_slash	7	advance_on_keypress_SLASH	18	stimuli_distractor_diamondtriangles.svg	stimuli_target_trianglecircles.svg	29	yes	57	0	609
6.6.1	win	2022-12-14	13:53:02	13:57:47	282999	57d714de813eb30001825ac4	421403109	1	main_slash	7	main_slash	19	stimuli_distractor_trianglediamonds.svg	stimuli_target_squaretriangles.svg	11	yes	0	0	2000
6.6.1	win	2022-12-14	13:53:02	13:57:47	282999	57d714de813eb30001825ac4	421403109	1	main_slash	7	advance_on_keypress_SLASH	20	stimuli_distractor_trianglediamonds.svg	stimuli_target_squaretriangles.svg	11	yes	57	0	497
6.6.1	win	2022-12-14	13:53:02	13:57:49	284957	57d714de813eb30001825ac4	421403109	1	main_slash	7	main_slash	21	stimuli_target_circlediamonds.svg	stimuli_distractor_diamondtriangles.svg	6	yes	53	1	809
6.6.1	win	2022-12-14	13:53:02	13:57:49	284957	57d714de813eb30001825ac4	421403109	1	main_slash	7	advance_on_keypress_SLASH	22	stimuli_target_circlediamonds.svg	stimuli_distractor_diamondtriangles.svg	6	yes	57	0	712
6.6.1	win	2022-12-14	13:53:02	13:57:51	287256	57d714de813eb30001825ac4	421403109	1	main_slash	7	main_slash	23	stimuli_distractor_trianglediamonds.svg	stimuli_target_trianglesquares.svg	26	yes	53	1	941
6.6.1	win	2022-12-14	13:53:02	13:57:51	287256	57d714de813eb30001825ac4	421403109	1	main_slash	7	advance_on_keypress_SLASH	24	stimuli_distractor_trianglediamonds.svg	stimuli_target_trianglesquares.svg	26	yes	57	0	619
6.6.1	win	2022-12-14	13:53:02	13:57:53	289239	57d714de813eb30001825ac4	421403109	1	main_slash	7	main_slash	25	stimuli_distractor_trianglediamonds.svg	stimuli_target_circlediamonds.svg	10	yes	53	1	725
6.6.1	win	2022-12-14	13:53:02	13:57:53	289239	57d714de813eb30001825ac4	421403109	1	main_slash	7	advance_on_keypress_SLASH	26	stimuli_distractor_trianglediamonds.svg	stimuli_target_circlediamonds.svg	10	yes	57	0	638
6.6.1	win	2022-12-14	13:53:02	13:57:57	292514	57d714de813eb30001825ac4	421403109	1	main_slash	7	main_slash	27	stimuli_distractor_diamondtriangles.svg	stimuli_distractor_trianglediamonds.svg	38	no	0	1	2000
6.6.1	win	2022-12-14	13:53:02	13:57:57	292514	57d714de813eb30001825ac4	421403109	1	main_slash	7	advance_on_keypress_SLASH	28	stimuli_distractor_diamondtriangles.svg	stimuli_distractor_trianglediamonds.svg	38	no	57	0	471
6.6.1	win	2022-12-14	13:53:02	13:58:00	295629	57d714de813eb30001825ac4	421403109	1	main_slash	7	main_slash	29	stimuli_distractor_trianglediamonds.svg	stimuli_distractor_trianglediamonds.svg	34	no	0	1	2000
6.6.1	win	2022-12-14	13:53:02	13:58:00	295629	57d714de813eb30001825ac4	421403109	1	main_slash	7	advance_on_keypress_SLASH	30	stimuli_distractor_trianglediamonds.svg	stimuli_distractor_trianglediamonds.svg	34	no	57	0	1083
6.6.1	win	2022-12-14	13:53:02	13:58:02	297959	57d714de813eb30001825ac4	421403109	1	main_slash	7	main_slash	31	stimuli_target_circletriangles.svg	stimuli_distractor_trianglediamonds.svg	1	yes	53	1	597
6.6.1	win	2022-12-14	13:53:02	13:58:02	297959	57d714de813eb30001825ac4	421403109	1	main_slash	7	advance_on_keypress_SLASH	32	stimuli_target_circletriangles.svg	stimuli_distractor_trianglediamonds.svg	1	yes	57	0	554
6.6.1	win	2022-12-14	13:53:02	13:58:04	299742	57d714de813eb30001825ac4	421403109	1	main_slash	7	main_slash	33	stimuli_distractor_trianglediamonds.svg	stimuli_target_diamondsquares.svg	28	yes	53	1	581
6.6.1	win	2022-12-14	13:53:02	13:58:04	299742	57d714de813eb30001825ac4	421403109	1	main_slash	7	advance_on_keypress_SLASH	34	stimuli_distractor_trianglediamonds.svg	stimuli_target_diamondsquares.svg	28	yes	57	0	626
6.6.1	win	2022-12-14	13:53:02	13:58:06	301617	57d714de813eb30001825ac4	421403109	1	main_slash	7	main_slash	35	stimuli_distractor_trianglediamonds.svg	stimuli_distractor_diamondtriangles.svg	35	no	53	0	607
6.6.1	win	2022-12-14	13:53:02	13:58:06	301617	57d714de813eb30001825ac4	421403109	1	main_slash	7	advance_on_keypress_SLASH	36	stimuli_distractor_trianglediamonds.svg	stimuli_distractor_diamondtriangles.svg	35	no	57	0	633
6.6.1	win	2022-12-14	13:53:02	13:58:08	303863	57d714de813eb30001825ac4	421403109	1	main_slash	7	main_slash	37	stimuli_target_diamondsquares.svg	stimuli_distractor_trianglediamonds.svg	20	yes	53	1	969
6.6.1	win	2022-12-14	13:53:02	13:58:08	303863	57d714de813eb30001825ac4	421403109	1	main_slash	7	advance_on_keypress_SLASH	38	stimuli_target_diamondsquares.svg	stimuli_distractor_trianglediamonds.svg	20	yes	57	0	593
6.6.1	win	2022-12-14	13:53:02	13:58:10	305648	57d714de813eb30001825ac4	421403109	1	main_slash	7	main_slash	39	stimuli_distractor_diamondtriangles.svg	stimuli_target_circlediamonds.svg	14	yes	53	1	539
6.6.1	win	2022-12-14	13:53:02	13:58:10	305648	57d714de813eb30001825ac4	421403109	1	main_slash	7	advance_on_keypress_SLASH	40	stimuli_distractor_diamondtriangles.svg	stimuli_target_circlediamonds.svg	14	yes	57	0	511
6.6.1	win	2022-12-14	13:53:02	13:58:12	307593	57d714de813eb30001825ac4	421403109	1	main_slash	7	main_slash	41	stimuli_target_squaretriangles.svg	stimuli_distractor_trianglediamonds.svg	3	yes	53	1	785
6.6.1	win	2022-12-14	13:53:02	13:58:12	307593	57d714de813eb30001825ac4	421403109	1	main_slash	7	advance_on_keypress_SLASH	42	stimuli_target_squaretriangles.svg	stimuli_distractor_trianglediamonds.svg	3	yes	57	0	543
6.6.1	win	2022-12-14	13:53:02	13:58:14	309951	57d714de813eb30001825ac4	421403109	1	main_slash	7	main_slash	43	stimuli_target_diamondsquares.svg	stimuli_distractor_diamondtriangles.svg	24	yes	53	1	1160
6.6.1	win	2022-12-14	13:53:02	13:58:14	309951	57d714de813eb30001825ac4	421403109	1	main_slash	7	advance_on_keypress_SLASH	44	stimuli_target_diamondsquares.svg	stimuli_distractor_diamondtriangles.svg	24	yes	57	0	561
6.6.1	win	2022-12-14	13:53:02	13:58:16	311831	57d714de813eb30001825ac4	421403109	1	main_slash	7	main_slash	45	stimuli_distractor_diamondtriangles.svg	stimuli_target_trianglesquares.svg	30	yes	53	1	657
6.6.1	win	2022-12-14	13:53:02	13:58:16	311831	57d714de813eb30001825ac4	421403109	1	main_slash	7	advance_on_keypress_SLASH	46	stimuli_distractor_diamondtriangles.svg	stimuli_target_trianglesquares.svg	30	yes	57	0	513
6.6.1	win	2022-12-14	13:53:02	13:58:18	313597	57d714de813eb30001825ac4	421403109	1	main_slash	7	main_slash	47	stimuli_target_trianglesquares.svg	stimuli_distractor_diamondtriangles.svg	22	yes	53	1	607
6.6.1	win	2022-12-14	13:53:02	13:58:18	313597	57d714de813eb30001825ac4	421403109	1	main_slash	7	advance_on_keypress_SLASH	48	stimuli_target_trianglesquares.svg	stimuli_distractor_diamondtriangles.svg	22	yes	57	0	489
6.6.1	win	2022-12-14	13:53:02	13:58:21	316723	57d714de813eb30001825ac4	421403109	1	main_slash	7	main_slash	49	stimuli_distractor_diamondtriangles.svg	stimuli_target_squaretriangles.svg	15	yes	0	0	2000
6.6.1	win	2022-12-14	13:53:02	13:58:21	316723	57d714de813eb30001825ac4	421403109	1	main_slash	7	advance_on_keypress_SLASH	50	stimuli_distractor_diamondtriangles.svg	stimuli_target_squaretriangles.svg	15	yes	57	0	505
6.6.1	win	2022-12-14	13:53:02	13:58:23	318454	57d714de813eb30001825ac4	421403109	1	main_slash	7	main_slash	51	stimuli_target_squarediamonds.svg	stimuli_distractor_trianglediamonds.svg	4	yes	53	1	583
6.6.1	win	2022-12-14	13:53:02	13:58:23	318454	57d714de813eb30001825ac4	421403109	1	main_slash	7	advance_on_keypress_SLASH	52	stimuli_target_squarediamonds.svg	stimuli_distractor_trianglediamonds.svg	4	yes	57	0	565
6.6.1	win	2022-12-14	13:53:02	13:58:24	320286	57d714de813eb30001825ac4	421403109	1	main_slash	7	main_slash	53	stimuli_target_squarediamonds.svg	stimuli_distractor_diamondtriangles.svg	8	yes	53	1	615
6.6.1	win	2022-12-14	13:53:02	13:58:24	320286	57d714de813eb30001825ac4	421403109	1	main_slash	7	advance_on_keypress_SLASH	54	stimuli_target_squarediamonds.svg	stimuli_distractor_diamondtriangles.svg	8	yes	57	0	459
6.6.1	win	2022-12-14	13:53:02	13:58:27	322858	57d714de813eb30001825ac4	421403109	1	main_slash	7	main_slash	55	stimuli_target_trianglecircles.svg	stimuli_distractor_diamondtriangles.svg	21	yes	53	1	1470
6.6.1	win	2022-12-14	13:53:02	13:58:27	322858	57d714de813eb30001825ac4	421403109	1	main_slash	7	advance_on_keypress_SLASH	56	stimuli_target_trianglecircles.svg	stimuli_distractor_diamondtriangles.svg	21	yes	57	0	539
6.6.1	win	2022-12-14	13:53:02	13:58:29	325138	57d714de813eb30001825ac4	421403109	1	main_slash	7	main_slash	57	stimuli_target_circlediamonds.svg	stimuli_distractor_trianglediamonds.svg	2	yes	53	1	1101
6.6.1	win	2022-12-14	13:53:02	13:58:29	325138	57d714de813eb30001825ac4	421403109	1	main_slash	7	advance_on_keypress_SLASH	58	stimuli_target_circlediamonds.svg	stimuli_distractor_trianglediamonds.svg	2	yes	57	0	427
6.6.1	win	2022-12-14	13:53:02	13:58:31	326901	57d714de813eb30001825ac4	421403109	1	main_slash	7	main_slash	59	stimuli_target_squaretriangles.svg	stimuli_distractor_diamondtriangles.svg	7	yes	53	1	697
6.6.1	win	2022-12-14	13:53:02	13:58:31	326901	57d714de813eb30001825ac4	421403109	1	main_slash	7	advance_on_keypress_SLASH	60	stimuli_target_squaretriangles.svg	stimuli_distractor_diamondtriangles.svg	7	yes	57	0	436
6.6.1	win	2022-12-14	13:53:02	13:58:33	328598	57d714de813eb30001825ac4	421403109	1	main_slash	7	main_slash	61	stimuli_distractor_diamondtriangles.svg	stimuli_target_circletriangles.svg	13	yes	53	1	613
6.6.1	win	2022-12-14	13:53:02	13:58:33	328598	57d714de813eb30001825ac4	421403109	1	main_slash	7	advance_on_keypress_SLASH	62	stimuli_distractor_diamondtriangles.svg	stimuli_target_circletriangles.svg	13	yes	57	0	434
6.6.1	win	2022-12-14	13:53:02	13:58:36	331685	57d714de813eb30001825ac4	421403109	1	main_slash	7	main_slash	63	stimuli_distractor_diamondtriangles.svg	stimuli_distractor_trianglediamonds.svg	37	no	0	1	2000
6.6.1	win	2022-12-14	13:53:02	13:58:36	331685	57d714de813eb30001825ac4	421403109	1	main_slash	7	advance_on_keypress_SLASH	64	stimuli_distractor_diamondtriangles.svg	stimuli_distractor_trianglediamonds.svg	37	no	57	0	423
6.6.1	win	2022-12-14	13:53:02	13:58:38	333493	57d714de813eb30001825ac4	421403109	1	main_slash	7	main_slash	65	stimuli_distractor_diamondtriangles.svg	stimuli_target_diamondcircles.svg	31	yes	53	1	742
6.6.1	win	2022-12-14	13:53:02	13:58:38	333493	57d714de813eb30001825ac4	421403109	1	main_slash	7	advance_on_keypress_SLASH	66	stimuli_distractor_diamondtriangles.svg	stimuli_target_diamondcircles.svg	31	yes	57	0	492
6.6.1	win	2022-12-14	13:53:02	13:58:40	335931	57d714de813eb30001825ac4	421403109	1	main_slash	7	main_slash	67	stimuli_distractor_diamondtriangles.svg	stimuli_target_squarediamonds.svg	16	yes	53	1	1314
6.6.1	win	2022-12-14	13:53:02	13:58:40	335931	57d714de813eb30001825ac4	421403109	1	main_slash	7	advance_on_keypress_SLASH	68	stimuli_distractor_diamondtriangles.svg	stimuli_target_squarediamonds.svg	16	yes	57	0	470
6.6.1	win	2022-12-14	13:53:02	13:58:43	339050	57d714de813eb30001825ac4	421403109	1	main_slash	7	main_slash	69	stimuli_distractor_trianglediamonds.svg	stimuli_distractor_diamondtriangles.svg	36	no	0	1	2000
6.6.1	win	2022-12-14	13:53:02	13:58:43	339050	57d714de813eb30001825ac4	421403109	1	main_slash	7	advance_on_keypress_SLASH	70	stimuli_distractor_trianglediamonds.svg	stimuli_distractor_diamondtriangles.svg	36	no	57	0	397
6.6.1	win	2022-12-14	13:53:02	13:58:46	342099	57d714de813eb30001825ac4	421403109	1	main_slash	7	main_slash	71	stimuli_target_trianglesquares.svg	stimuli_distractor_trianglediamonds.svg	18	yes	0	0	2000
6.6.1	win	2022-12-14	13:53:02	13:58:46	342099	57d714de813eb30001825ac4	421403109	1	main_slash	7	advance_on_keypress_SLASH	72	stimuli_target_trianglesquares.svg	stimuli_distractor_trianglediamonds.svg	18	yes	57	0	772
6.6.1	win	2022-12-14	13:53:02	13:58:50	345515	57d714de813eb30001825ac4	421403109	1	main_slash	7	main_slash	73	stimuli_distractor_trianglediamonds.svg	stimuli_distractor_trianglediamonds.svg	33	no	0	1	2000
6.6.1	win	2022-12-14	13:53:02	13:58:50	345515	57d714de813eb30001825ac4	421403109	1	main_slash	7	advance_on_keypress_SLASH	74	stimuli_distractor_trianglediamonds.svg	stimuli_distractor_trianglediamonds.svg	33	no	57	0	1019
6.6.1	win	2022-12-14	13:53:02	13:58:52	347934	57d714de813eb30001825ac4	421403109	1	main_slash	7	main_slash	75	stimuli_target_diamondcircles.svg	stimuli_distractor_trianglediamonds.svg	19	yes	53	1	754
6.6.1	win	2022-12-14	13:53:02	13:58:52	347934	57d714de813eb30001825ac4	421403109	1	main_slash	7	advance_on_keypress_SLASH	76	stimuli_target_diamondcircles.svg	stimuli_distractor_trianglediamonds.svg	19	yes	57	0	469
6.6.1	win	2022-12-14	13:53:02	13:58:55	351047	57d714de813eb30001825ac4	421403109	1	main_slash	7	main_slash	77	stimuli_distractor_diamondtriangles.svg	stimuli_distractor_diamondtriangles.svg	40	no	0	1	2000
6.6.1	win	2022-12-14	13:53:02	13:58:55	351047	57d714de813eb30001825ac4	421403109	1	main_slash	7	advance_on_keypress_SLASH	78	stimuli_distractor_diamondtriangles.svg	stimuli_distractor_diamondtriangles.svg	40	no	57	0	415
6.6.1	win	2022-12-14	13:53:02	13:58:57	352972	57d714de813eb30001825ac4	421403109	1	main_slash	7	main_slash	79	stimuli_target_circletriangles.svg	stimuli_distractor_diamondtriangles.svg	5	yes	53	1	860
6.6.1	win	2022-12-14	13:53:02	13:58:57	352972	57d714de813eb30001825ac4	421403109	1	main_slash	7	advance_on_keypress_SLASH	80	stimuli_target_circletriangles.svg	stimuli_distractor_diamondtriangles.svg	5	yes	57	0	427
6.6.1	win	2022-12-14	13:53:02	13:59:00	356045	57d714de813eb30001825ac4	421403109	1	main_slash	7	main_slash	81	stimuli_distractor_trianglediamonds.svg	stimuli_distractor_trianglediamonds.svg	33	no	0	1	2000
6.6.1	win	2022-12-14	13:53:02	13:59:00	356045	57d714de813eb30001825ac4	421403109	1	main_slash	7	advance_on_keypress_SLASH	82	stimuli_distractor_trianglediamonds.svg	stimuli_distractor_trianglediamonds.svg	33	no	57	0	363
6.6.1	win	2022-12-14	13:53:02	13:59:03	359061	57d714de813eb30001825ac4	421403109	1	main_slash	7	main_slash	83	stimuli_distractor_diamondtriangles.svg	stimuli_distractor_diamondtriangles.svg	39	no	0	1	2000
6.6.1	win	2022-12-14	13:53:02	13:59:03	359061	57d714de813eb30001825ac4	421403109	1	main_slash	7	advance_on_keypress_SLASH	84	stimuli_distractor_diamondtriangles.svg	stimuli_distractor_diamondtriangles.svg	39	no	57	0	386
6.6.1	win	2022-12-14	13:53:02	13:59:05	360701	57d714de813eb30001825ac4	421403109	1	main_slash	7	main_slash	85	stimuli_distractor_trianglediamonds.svg	stimuli_target_squaretriangles.svg	11	yes	53	1	609
6.6.1	win	2022-12-14	13:53:02	13:59:05	360701	57d714de813eb30001825ac4	421403109	1	main_slash	7	advance_on_keypress_SLASH	86	stimuli_distractor_trianglediamonds.svg	stimuli_target_squaretriangles.svg	11	yes	57	0	443
6.6.1	win	2022-12-14	13:53:02	13:59:07	362613	57d714de813eb30001825ac4	421403109	1	main_slash	7	main_slash	87	stimuli_distractor_trianglediamonds.svg	stimuli_target_diamondsquares.svg	28	yes	53	1	838
6.6.1	win	2022-12-14	13:53:02	13:59:07	362613	57d714de813eb30001825ac4	421403109	1	main_slash	7	advance_on_keypress_SLASH	88	stimuli_distractor_trianglediamonds.svg	stimuli_target_diamondsquares.svg	28	yes	57	0	492
6.6.1	win	2022-12-14	13:53:02	13:59:09	364490	57d714de813eb30001825ac4	421403109	1	main_slash	7	main_slash	89	stimuli_target_squarediamonds.svg	stimuli_distractor_diamondtriangles.svg	8	yes	53	1	731
6.6.1	win	2022-12-14	13:53:02	13:59:09	364490	57d714de813eb30001825ac4	421403109	1	main_slash	7	advance_on_keypress_SLASH	90	stimuli_target_squarediamonds.svg	stimuli_distractor_diamondtriangles.svg	8	yes	57	0	476
6.6.1	win	2022-12-14	13:53:02	13:59:10	366412	57d714de813eb30001825ac4	421403109	1	main_slash	7	main_slash	91	stimuli_target_squaretriangles.svg	stimuli_distractor_diamondtriangles.svg	7	yes	53	1	804
6.6.1	win	2022-12-14	13:53:02	13:59:10	366412	57d714de813eb30001825ac4	421403109	1	main_slash	7	advance_on_keypress_SLASH	92	stimuli_target_squaretriangles.svg	stimuli_distractor_diamondtriangles.svg	7	yes	57	0	696
6.6.1	win	2022-12-14	13:53:02	13:59:14	369758	57d714de813eb30001825ac4	421403109	1	main_slash	7	main_slash	93	stimuli_target_diamondsquares.svg	stimuli_distractor_trianglediamonds.svg	20	yes	0	0	2000
6.6.1	win	2022-12-14	13:53:02	13:59:14	369758	57d714de813eb30001825ac4	421403109	1	main_slash	7	advance_on_keypress_SLASH	94	stimuli_target_diamondsquares.svg	stimuli_distractor_trianglediamonds.svg	20	yes	57	0	1232
6.6.1	win	2022-12-14	13:53:02	13:59:16	372317	57d714de813eb30001825ac4	421403109	1	main_slash	7	main_slash	95	stimuli_distractor_trianglediamonds.svg	stimuli_target_diamondcircles.svg	27	yes	53	1	677
6.6.1	win	2022-12-14	13:53:02	13:59:16	372317	57d714de813eb30001825ac4	421403109	1	main_slash	7	advance_on_keypress_SLASH	96	stimuli_distractor_trianglediamonds.svg	stimuli_target_diamondcircles.svg	27	yes	57	0	629
6.6.1	win	2022-12-14	13:53:02	13:59:18	374199	57d714de813eb30001825ac4	421403109	1	main_slash	7	main_slash	97	stimuli_distractor_diamondtriangles.svg	stimuli_target_trianglecircles.svg	29	yes	53	1	593
6.6.1	win	2022-12-14	13:53:02	13:59:18	374199	57d714de813eb30001825ac4	421403109	1	main_slash	7	advance_on_keypress_SLASH	98	stimuli_distractor_diamondtriangles.svg	stimuli_target_trianglecircles.svg	29	yes	57	0	706
6.6.1	win	2022-12-14	13:53:02	13:59:20	376054	57d714de813eb30001825ac4	421403109	1	main_slash	7	main_slash	99	stimuli_target_trianglecircles.svg	stimuli_distractor_trianglediamonds.svg	17	yes	53	1	515
6.6.1	win	2022-12-14	13:53:02	13:59:20	376054	57d714de813eb30001825ac4	421403109	1	main_slash	7	advance_on_keypress_SLASH	100	stimuli_target_trianglecircles.svg	stimuli_distractor_trianglediamonds.svg	17	yes	57	0	853
6.6.1	win	2022-12-14	13:53:02	13:59:22	378163	57d714de813eb30001825ac4	421403109	1	main_slash	7	main_slash	101	stimuli_target_diamondsquares.svg	stimuli_distractor_diamondtriangles.svg	24	yes	53	1	608
6.6.1	win	2022-12-14	13:53:02	13:59:22	378163	57d714de813eb30001825ac4	421403109	1	main_slash	7	advance_on_keypress_SLASH	102	stimuli_target_diamondsquares.svg	stimuli_distractor_diamondtriangles.svg	24	yes	57	0	571
6.6.1	win	2022-12-14	13:53:02	13:59:24	379918	57d714de813eb30001825ac4	421403109	1	main_slash	7	main_slash	103	stimuli_distractor_diamondtriangles.svg	stimuli_target_diamondsquares.svg	32	yes	53	1	547
6.6.1	win	2022-12-14	13:53:02	13:59:24	379918	57d714de813eb30001825ac4	421403109	1	main_slash	7	advance_on_keypress_SLASH	104	stimuli_distractor_diamondtriangles.svg	stimuli_target_diamondsquares.svg	32	yes	57	0	541
6.6.1	win	2022-12-14	13:53:02	13:59:27	383104	57d714de813eb30001825ac4	421403109	1	main_slash	7	main_slash	105	stimuli_distractor_diamondtriangles.svg	stimuli_distractor_diamondtriangles.svg	40	no	0	1	2000
6.6.1	win	2022-12-14	13:53:02	13:59:27	383104	57d714de813eb30001825ac4	421403109	1	main_slash	7	advance_on_keypress_SLASH	106	stimuli_distractor_diamondtriangles.svg	stimuli_distractor_diamondtriangles.svg	40	no	57	0	598
6.6.1	win	2022-12-14	13:53:02	13:59:29	384828	57d714de813eb30001825ac4	421403109	1	main_slash	7	main_slash	107	stimuli_distractor_trianglediamonds.svg	stimuli_target_circlediamonds.svg	10	yes	53	1	476
6.6.1	win	2022-12-14	13:53:02	13:59:29	384828	57d714de813eb30001825ac4	421403109	1	main_slash	7	advance_on_keypress_SLASH	108	stimuli_distractor_trianglediamonds.svg	stimuli_target_circlediamonds.svg	10	yes	57	0	834
6.6.1	win	2022-12-14	13:53:02	13:59:31	386684	57d714de813eb30001825ac4	421403109	1	main_slash	7	main_slash	109	stimuli_target_circletriangles.svg	stimuli_distractor_diamondtriangles.svg	5	yes	53	1	371
6.6.1	win	2022-12-14	13:53:02	13:59:31	386684	57d714de813eb30001825ac4	421403109	1	main_slash	7	advance_on_keypress_SLASH	110	stimuli_target_circletriangles.svg	stimuli_distractor_diamondtriangles.svg	5	yes	57	0	764
6.6.1	win	2022-12-14	13:53:02	13:59:33	388483	57d714de813eb30001825ac4	421403109	1	main_slash	7	main_slash	111	stimuli_target_diamondcircles.svg	stimuli_distractor_trianglediamonds.svg	19	yes	53	1	371
6.6.1	win	2022-12-14	13:53:02	13:59:33	388483	57d714de813eb30001825ac4	421403109	1	main_slash	7	advance_on_keypress_SLASH	112	stimuli_target_diamondcircles.svg	stimuli_distractor_trianglediamonds.svg	19	yes	57	0	874
6.6.1	win	2022-12-14	13:53:02	13:59:35	390569	57d714de813eb30001825ac4	421403109	1	main_slash	7	main_slash	113	stimuli_target_trianglesquares.svg	stimuli_distractor_diamondtriangles.svg	22	yes	53	1	569
6.6.1	win	2022-12-14	13:53:02	13:59:35	390569	57d714de813eb30001825ac4	421403109	1	main_slash	7	advance_on_keypress_SLASH	114	stimuli_target_trianglesquares.svg	stimuli_distractor_diamondtriangles.svg	22	yes	57	0	897
6.6.1	win	2022-12-14	13:53:02	13:59:37	392512	57d714de813eb30001825ac4	421403109	1	main_slash	7	main_slash	115	stimuli_distractor_trianglediamonds.svg	stimuli_target_trianglesquares.svg	26	yes	53	1	395
6.6.1	win	2022-12-14	13:53:02	13:59:37	392512	57d714de813eb30001825ac4	421403109	1	main_slash	7	advance_on_keypress_SLASH	116	stimuli_distractor_trianglediamonds.svg	stimuli_target_trianglesquares.svg	26	yes	57	0	695
6.6.1	win	2022-12-14	13:53:02	13:59:38	394308	57d714de813eb30001825ac4	421403109	1	main_slash	7	main_slash	117	stimuli_target_circlediamonds.svg	stimuli_distractor_trianglediamonds.svg	2	yes	53	1	442
6.6.1	win	2022-12-14	13:53:02	13:59:38	394308	57d714de813eb30001825ac4	421403109	1	main_slash	7	advance_on_keypress_SLASH	118	stimuli_target_circlediamonds.svg	stimuli_distractor_trianglediamonds.svg	2	yes	57	0	1926
6.6.1	win	2022-12-14	13:53:02	13:59:41	397387	57d714de813eb30001825ac4	421403109	1	main_slash	7	main_slash	119	stimuli_target_trianglesquares.svg	stimuli_distractor_trianglediamonds.svg	18	yes	53	1	521
6.6.1	win	2022-12-14	13:53:02	13:59:41	397387	57d714de813eb30001825ac4	421403109	1	main_slash	7	advance_on_keypress_SLASH	120	stimuli_target_trianglesquares.svg	stimuli_distractor_trianglediamonds.svg	18	yes	57	0	1680
6.6.1	win	2022-12-14	13:53:02	13:59:46	401715	57d714de813eb30001825ac4	421403109	1	main_slash	7	main_slash	121	stimuli_distractor_trianglediamonds.svg	stimuli_distractor_diamondtriangles.svg	36	no	0	1	2000
6.6.1	win	2022-12-14	13:53:02	13:59:46	401715	57d714de813eb30001825ac4	421403109	1	main_slash	7	advance_on_keypress_SLASH	122	stimuli_distractor_trianglediamonds.svg	stimuli_distractor_diamondtriangles.svg	36	no	57	0	626
6.6.1	win	2022-12-14	13:53:02	13:59:48	403496	57d714de813eb30001825ac4	421403109	1	main_slash	7	main_slash	123	stimuli_target_squarediamonds.svg	stimuli_distractor_trianglediamonds.svg	4	yes	53	1	499
6.6.1	win	2022-12-14	13:53:02	13:59:48	403496	57d714de813eb30001825ac4	421403109	1	main_slash	7	advance_on_keypress_SLASH	124	stimuli_target_squarediamonds.svg	stimuli_distractor_trianglediamonds.svg	4	yes	57	0	809
6.6.1	win	2022-12-14	13:53:02	13:59:51	406963	57d714de813eb30001825ac4	421403109	1	main_slash	7	main_slash	125	stimuli_distractor_diamondtriangles.svg	stimuli_distractor_trianglediamonds.svg	37	no	0	1	2000
6.6.1	win	2022-12-14	13:53:02	13:59:51	406963	57d714de813eb30001825ac4	421403109	1	main_slash	7	advance_on_keypress_SLASH	126	stimuli_distractor_diamondtriangles.svg	stimuli_distractor_trianglediamonds.svg	37	no	57	0	1498
6.6.1	win	2022-12-14	13:53:02	13:59:54	409601	57d714de813eb30001825ac4	421403109	1	main_slash	7	main_slash	127	stimuli_distractor_diamondtriangles.svg	stimuli_target_trianglesquares.svg	30	yes	53	1	489
6.6.1	win	2022-12-14	13:53:02	13:59:54	409601	57d714de813eb30001825ac4	421403109	1	main_slash	7	advance_on_keypress_SLASH	128	stimuli_distractor_diamondtriangles.svg	stimuli_target_trianglesquares.svg	30	yes	57	0	578
6.6.1	win	2022-12-14	13:53:02	13:59:55	411215	57d714de813eb30001825ac4	421403109	1	main_slash	7	main_slash	129	stimuli_distractor_trianglediamonds.svg	stimuli_target_squarediamonds.svg	12	yes	53	1	386
6.6.1	win	2022-12-14	13:53:02	13:59:55	411215	57d714de813eb30001825ac4	421403109	1	main_slash	7	advance_on_keypress_SLASH	130	stimuli_distractor_trianglediamonds.svg	stimuli_target_squarediamonds.svg	12	yes	57	0	741
6.6.1	win	2022-12-14	13:53:02	13:59:57	412942	57d714de813eb30001825ac4	421403109	1	main_slash	7	main_slash	131	stimuli_distractor_diamondtriangles.svg	stimuli_target_diamondcircles.svg	31	yes	53	1	347
6.6.1	win	2022-12-14	13:53:02	13:59:57	412942	57d714de813eb30001825ac4	421403109	1	main_slash	7	advance_on_keypress_SLASH	132	stimuli_distractor_diamondtriangles.svg	stimuli_target_diamondcircles.svg	31	yes	57	0	976
6.6.1	win	2022-12-14	13:53:02	13:59:59	415038	57d714de813eb30001825ac4	421403109	1	main_slash	7	main_slash	133	stimuli_target_circlediamonds.svg	stimuli_distractor_diamondtriangles.svg	6	yes	53	1	477
6.6.1	win	2022-12-14	13:53:02	13:59:59	415038	57d714de813eb30001825ac4	421403109	1	main_slash	7	advance_on_keypress_SLASH	134	stimuli_target_circlediamonds.svg	stimuli_distractor_diamondtriangles.svg	6	yes	57	0	644
6.6.1	win	2022-12-14	13:53:02	14:00:01	416942	57d714de813eb30001825ac4	421403109	1	main_slash	7	main_slash	135	stimuli_distractor_diamondtriangles.svg	stimuli_target_squarediamonds.svg	16	yes	53	1	616
6.6.1	win	2022-12-14	13:53:02	14:00:01	416942	57d714de813eb30001825ac4	421403109	1	main_slash	7	advance_on_keypress_SLASH	136	stimuli_distractor_diamondtriangles.svg	stimuli_target_squarediamonds.svg	16	yes	57	0	526
6.6.1	win	2022-12-14	13:53:02	14:00:03	418545	57d714de813eb30001825ac4	421403109	1	main_slash	7	main_slash	137	stimuli_distractor_trianglediamonds.svg	stimuli_target_trianglecircles.svg	25	yes	53	1	419
6.6.1	win	2022-12-14	13:53:02	14:00:03	418545	57d714de813eb30001825ac4	421403109	1	main_slash	7	advance_on_keypress_SLASH	138	stimuli_distractor_trianglediamonds.svg	stimuli_target_trianglecircles.svg	25	yes	57	0	739
6.6.1	win	2022-12-14	13:53:02	14:00:04	420264	57d714de813eb30001825ac4	421403109	1	main_slash	7	main_slash	139	stimuli_target_diamondcircles.svg	stimuli_distractor_diamondtriangles.svg	23	yes	53	1	338
6.6.1	win	2022-12-14	13:53:02	14:00:04	420264	57d714de813eb30001825ac4	421403109	1	main_slash	7	advance_on_keypress_SLASH	140	stimuli_target_diamondcircles.svg	stimuli_distractor_diamondtriangles.svg	23	yes	57	0	586
6.6.1	win	2022-12-14	13:53:02	14:00:06	421874	57d714de813eb30001825ac4	421403109	1	main_slash	7	main_slash	141	stimuli_target_trianglecircles.svg	stimuli_distractor_diamondtriangles.svg	21	yes	53	1	367
6.6.1	win	2022-12-14	13:53:02	14:00:06	421874	57d714de813eb30001825ac4	421403109	1	main_slash	7	advance_on_keypress_SLASH	142	stimuli_target_trianglecircles.svg	stimuli_distractor_diamondtriangles.svg	21	yes	57	0	656
6.6.1	win	2022-12-14	13:53:02	14:00:08	423496	57d714de813eb30001825ac4	421403109	1	main_slash	7	main_slash	143	stimuli_distractor_trianglediamonds.svg	stimuli_distractor_trianglediamonds.svg	34	no	53	0	321
6.6.1	win	2022-12-14	13:53:02	14:00:08	423496	57d714de813eb30001825ac4	421403109	1	main_slash	7	advance_on_keypress_SLASH	144	stimuli_distractor_trianglediamonds.svg	stimuli_distractor_trianglediamonds.svg	34	no	57	0	4301
6.6.1	win	2022-12-14	13:53:02	14:00:13	428956	57d714de813eb30001825ac4	421403109	1	main_slash	7	main_slash	145	stimuli_distractor_diamondtriangles.svg	stimuli_target_circlediamonds.svg	14	yes	53	1	508
6.6.1	win	2022-12-14	13:53:02	14:00:13	428956	57d714de813eb30001825ac4	421403109	1	main_slash	7	advance_on_keypress_SLASH	146	stimuli_distractor_diamondtriangles.svg	stimuli_target_circlediamonds.svg	14	yes	57	0	651
6.6.1	win	2022-12-14	13:53:02	14:00:15	430609	57d714de813eb30001825ac4	421403109	1	main_slash	7	main_slash	147	stimuli_target_circletriangles.svg	stimuli_distractor_trianglediamonds.svg	1	yes	53	1	353
6.6.1	win	2022-12-14	13:53:02	14:00:15	430609	57d714de813eb30001825ac4	421403109	1	main_slash	7	advance_on_keypress_SLASH	148	stimuli_target_circletriangles.svg	stimuli_distractor_trianglediamonds.svg	1	yes	57	0	695
6.6.1	win	2022-12-14	13:53:02	14:00:16	432378	57d714de813eb30001825ac4	421403109	1	main_slash	7	main_slash	149	stimuli_distractor_diamondtriangles.svg	stimuli_target_circletriangles.svg	13	yes	53	1	422
6.6.1	win	2022-12-14	13:53:02	14:00:16	432378	57d714de813eb30001825ac4	421403109	1	main_slash	7	advance_on_keypress_SLASH	150	stimuli_distractor_diamondtriangles.svg	stimuli_target_circletriangles.svg	13	yes	57	0	1273
6.6.1	win	2022-12-14	13:53:02	14:00:20	436289	57d714de813eb30001825ac4	421403109	1	main_slash	7	main_slash	151	stimuli_distractor_trianglediamonds.svg	stimuli_distractor_diamondtriangles.svg	35	no	0	1	2000
6.6.1	win	2022-12-14	13:53:02	14:00:20	436289	57d714de813eb30001825ac4	421403109	1	main_slash	7	advance_on_keypress_SLASH	152	stimuli_distractor_trianglediamonds.svg	stimuli_distractor_diamondtriangles.svg	35	no	57	0	622
6.6.1	win	2022-12-14	13:53:02	14:00:22	437979	57d714de813eb30001825ac4	421403109	1	main_slash	7	main_slash	153	stimuli_distractor_trianglediamonds.svg	stimuli_target_circletriangles.svg	9	yes	53	1	425
6.6.1	win	2022-12-14	13:53:02	14:00:22	437979	57d714de813eb30001825ac4	421403109	1	main_slash	7	advance_on_keypress_SLASH	154	stimuli_distractor_trianglediamonds.svg	stimuli_target_circletriangles.svg	9	yes	57	0	625
6.6.1	win	2022-12-14	13:53:02	14:00:24	439829	57d714de813eb30001825ac4	421403109	1	main_slash	7	main_slash	155	stimuli_distractor_diamondtriangles.svg	stimuli_target_squaretriangles.svg	15	yes	53	1	593
6.6.1	win	2022-12-14	13:53:02	14:00:24	439829	57d714de813eb30001825ac4	421403109	1	main_slash	7	advance_on_keypress_SLASH	156	stimuli_distractor_diamondtriangles.svg	stimuli_target_squaretriangles.svg	15	yes	57	0	611
6.6.1	win	2022-12-14	13:53:02	14:00:27	443086	57d714de813eb30001825ac4	421403109	1	main_slash	7	main_slash	157	stimuli_distractor_diamondtriangles.svg	stimuli_distractor_trianglediamonds.svg	38	no	0	1	2000
6.6.1	win	2022-12-14	13:53:02	14:00:27	443086	57d714de813eb30001825ac4	421403109	1	main_slash	7	advance_on_keypress_SLASH	158	stimuli_distractor_diamondtriangles.svg	stimuli_distractor_trianglediamonds.svg	38	no	57	0	5352
6.6.1	win	2022-12-14	13:53:02	14:00:34	449553	57d714de813eb30001825ac4	421403109	1	main_slash	7	main_slash	159	stimuli_target_squaretriangles.svg	stimuli_distractor_trianglediamonds.svg	3	yes	53	1	470
6.6.1	win	2022-12-14	13:53:02	14:00:34	449553	57d714de813eb30001825ac4	421403109	1	main_slash	7	advance_on_keypress_SLASH	160	stimuli_target_squaretriangles.svg	stimuli_distractor_trianglediamonds.svg	3	yes	57	0	705
6.6.1	win	2022-12-14	13:53:02	14:01:05	480645	57d714de813eb30001825ac4	421403109	1	practice_z	9	practice_z	1	stimuli_distractor_trianglediamonds.svg	stimuli_distractor_trianglediamonds.svg	15	no	0	1	2000
6.6.1	win	2022-12-14	13:53:02	14:01:05	480645	57d714de813eb30001825ac4	421403109	1	practice_z	9	advance_on_keypress_ZEE	2	stimuli_distractor_trianglediamonds.svg	stimuli_distractor_trianglediamonds.svg	15	no	57	0	1594
6.6.1	win	2022-12-14	13:53:02	14:01:08	484309	57d714de813eb30001825ac4	421403109	1	practice_z	9	practice_z	3	stimuli_target_squarediamonds.svg	stimuli_distractor_trianglediamonds.svg	5	yes	44	1	416
6.6.1	win	2022-12-14	13:53:02	14:01:08	484309	57d714de813eb30001825ac4	421403109	1	practice_z	9	advance_on_keypress_ZEE	4	stimuli_target_squarediamonds.svg	stimuli_distractor_trianglediamonds.svg	5	yes	57	0	1569
6.6.1	win	2022-12-14	13:53:02	14:01:14	489525	57d714de813eb30001825ac4	421403109	1	practice_z	9	practice_z	5	stimuli_distractor_diamondtriangles.svg	stimuli_distractor_trianglediamonds.svg	14	no	0	1	2000
6.6.1	win	2022-12-14	13:53:02	14:01:14	489525	57d714de813eb30001825ac4	421403109	1	practice_z	9	advance_on_keypress_ZEE	6	stimuli_distractor_diamondtriangles.svg	stimuli_distractor_trianglediamonds.svg	14	no	57	0	1173
6.6.1	win	2022-12-14	13:53:02	14:01:17	493330	57d714de813eb30001825ac4	421403109	1	practice_z	9	practice_z	7	stimuli_distractor_diamondtriangles.svg	stimuli_target_circletriangles.svg	7	yes	44	1	991
6.6.1	win	2022-12-14	13:53:02	14:01:17	493330	57d714de813eb30001825ac4	421403109	1	practice_z	9	advance_on_keypress_ZEE	8	stimuli_distractor_diamondtriangles.svg	stimuli_target_circletriangles.svg	7	yes	57	0	665
6.6.1	win	2022-12-14	13:53:02	14:01:20	496197	57d714de813eb30001825ac4	421403109	1	practice_z	9	practice_z	9	stimuli_target_squarediamonds.svg	stimuli_distractor_diamondtriangles.svg	2	yes	44	1	557
6.6.1	win	2022-12-14	13:53:02	14:01:20	496197	57d714de813eb30001825ac4	421403109	1	practice_z	9	advance_on_keypress_ZEE	10	stimuli_target_squarediamonds.svg	stimuli_distractor_diamondtriangles.svg	2	yes	57	0	538
6.6.1	win	2022-12-14	13:53:02	14:01:23	498989	57d714de813eb30001825ac4	421403109	1	practice_z	9	practice_z	11	stimuli_target_diamondsquares.svg	stimuli_distractor_diamondtriangles.svg	3	yes	44	1	600
6.6.1	win	2022-12-14	13:53:02	14:01:23	498989	57d714de813eb30001825ac4	421403109	1	practice_z	9	advance_on_keypress_ZEE	12	stimuli_target_diamondsquares.svg	stimuli_distractor_diamondtriangles.svg	3	yes	57	0	625
6.6.1	win	2022-12-14	13:53:02	14:01:26	501811	57d714de813eb30001825ac4	421403109	1	practice_z	9	practice_z	13	stimuli_distractor_trianglediamonds.svg	stimuli_target_circlediamonds.svg	10	yes	44	1	540
6.6.1	win	2022-12-14	13:53:02	14:01:26	501811	57d714de813eb30001825ac4	421403109	1	practice_z	9	advance_on_keypress_ZEE	14	stimuli_distractor_trianglediamonds.svg	stimuli_target_circlediamonds.svg	10	yes	57	0	645
6.6.1	win	2022-12-14	13:53:02	14:01:29	505004	57d714de813eb30001825ac4	421403109	1	practice_z	9	practice_z	15	stimuli_distractor_diamondtriangles.svg	stimuli_target_trianglecircles.svg	9	yes	44	1	884
6.6.1	win	2022-12-14	13:53:02	14:01:29	505004	57d714de813eb30001825ac4	421403109	1	practice_z	9	advance_on_keypress_ZEE	16	stimuli_distractor_diamondtriangles.svg	stimuli_target_trianglecircles.svg	9	yes	57	0	499
6.6.1	win	2022-12-14	13:53:02	14:01:32	507699	57d714de813eb30001825ac4	421403109	1	practice_z	9	practice_z	17	stimuli_target_circlediamonds.svg	stimuli_distractor_diamondtriangles.svg	1	yes	44	1	545
6.6.1	win	2022-12-14	13:53:02	14:01:32	507699	57d714de813eb30001825ac4	421403109	1	practice_z	9	advance_on_keypress_ZEE	18	stimuli_target_circlediamonds.svg	stimuli_distractor_diamondtriangles.svg	1	yes	57	0	695
6.6.1	win	2022-12-14	13:53:02	14:01:35	510542	57d714de813eb30001825ac4	421403109	1	practice_z	9	practice_z	19	stimuli_distractor_trianglediamonds.svg	stimuli_target_squarediamonds.svg	11	yes	44	1	489
6.6.1	win	2022-12-14	13:53:02	14:01:35	510542	57d714de813eb30001825ac4	421403109	1	practice_z	9	advance_on_keypress_ZEE	20	stimuli_distractor_trianglediamonds.svg	stimuli_target_squarediamonds.svg	11	yes	57	0	616
6.6.1	win	2022-12-14	13:53:02	14:01:37	513343	57d714de813eb30001825ac4	421403109	1	practice_z	9	practice_z	21	stimuli_distractor_trianglediamonds.svg	stimuli_target_diamondcircles.svg	12	yes	44	1	542
6.6.1	win	2022-12-14	13:53:02	14:01:37	513343	57d714de813eb30001825ac4	421403109	1	practice_z	9	advance_on_keypress_ZEE	22	stimuli_distractor_trianglediamonds.svg	stimuli_target_diamondcircles.svg	12	yes	57	0	243
6.6.1	win	2022-12-14	13:53:02	14:01:40	515802	57d714de813eb30001825ac4	421403109	1	practice_z	9	practice_z	23	stimuli_target_circlediamonds.svg	stimuli_distractor_trianglediamonds.svg	4	yes	44	1	551
6.6.1	win	2022-12-14	13:53:02	14:01:40	515802	57d714de813eb30001825ac4	421403109	1	practice_z	9	advance_on_keypress_ZEE	24	stimuli_target_circlediamonds.svg	stimuli_distractor_trianglediamonds.svg	4	yes	57	0	527
6.6.1	win	2022-12-14	13:53:02	14:01:43	519023	57d714de813eb30001825ac4	421403109	1	practice_z	9	practice_z	25	stimuli_target_diamondsquares.svg	stimuli_distractor_trianglediamonds.svg	6	yes	44	1	1040
6.6.1	win	2022-12-14	13:53:02	14:01:43	519023	57d714de813eb30001825ac4	421403109	1	practice_z	9	advance_on_keypress_ZEE	26	stimuli_target_diamondsquares.svg	stimuli_distractor_trianglediamonds.svg	6	yes	57	0	717
6.6.1	win	2022-12-14	13:53:02	14:01:46	521998	57d714de813eb30001825ac4	421403109	1	practice_z	9	practice_z	27	stimuli_distractor_diamondtriangles.svg	stimuli_target_diamondcircles.svg	8	yes	44	1	617
6.6.1	win	2022-12-14	13:53:02	14:01:46	521998	57d714de813eb30001825ac4	421403109	1	practice_z	9	advance_on_keypress_ZEE	28	stimuli_distractor_diamondtriangles.svg	stimuli_target_diamondcircles.svg	8	yes	57	0	1127
6.6.1	win	2022-12-14	13:53:02	14:01:51	526781	57d714de813eb30001825ac4	421403109	1	practice_z	9	practice_z	29	stimuli_distractor_trianglediamonds.svg	stimuli_distractor_diamondtriangles.svg	16	no	0	1	2000
6.6.1	win	2022-12-14	13:53:02	14:01:51	526781	57d714de813eb30001825ac4	421403109	1	practice_z	9	advance_on_keypress_ZEE	30	stimuli_distractor_trianglediamonds.svg	stimuli_distractor_diamondtriangles.svg	16	no	57	0	608
6.6.1	win	2022-12-14	13:53:02	14:01:55	531046	57d714de813eb30001825ac4	421403109	1	practice_z	9	practice_z	31	stimuli_distractor_diamondtriangles.svg	stimuli_distractor_diamondtriangles.svg	13	no	0	1	2000
6.6.1	win	2022-12-14	13:53:02	14:01:55	531046	57d714de813eb30001825ac4	421403109	1	practice_z	9	advance_on_keypress_ZEE	32	stimuli_distractor_diamondtriangles.svg	stimuli_distractor_diamondtriangles.svg	13	no	57	0	451
6.6.1	win	2022-12-14	13:53:02	14:03:22	618319	57d714de813eb30001825ac4	421403109	1	main_z	11	main_z	1	stimuli_target_squaretriangles.svg	stimuli_distractor_trianglediamonds.svg	3	yes	44	1	567
6.6.1	win	2022-12-14	13:53:02	14:03:22	618319	57d714de813eb30001825ac4	421403109	1	main_z	11	advance_on_keypress_ZEE	2	stimuli_target_squaretriangles.svg	stimuli_distractor_trianglediamonds.svg	3	yes	57	0	619
6.6.1	win	2022-12-14	13:53:02	14:03:24	619918	57d714de813eb30001825ac4	421403109	1	main_z	11	main_z	3	stimuli_distractor_trianglediamonds.svg	stimuli_target_squaretriangles.svg	11	yes	44	1	335
6.6.1	win	2022-12-14	13:53:02	14:03:24	619918	57d714de813eb30001825ac4	421403109	1	main_z	11	advance_on_keypress_ZEE	4	stimuli_distractor_trianglediamonds.svg	stimuli_target_squaretriangles.svg	11	yes	57	0	738
6.6.1	win	2022-12-14	13:53:02	14:03:26	621710	57d714de813eb30001825ac4	421403109	1	main_z	11	main_z	5	stimuli_target_diamondcircles.svg	stimuli_distractor_trianglediamonds.svg	19	yes	44	1	410
6.6.1	win	2022-12-14	13:53:02	14:03:26	621710	57d714de813eb30001825ac4	421403109	1	main_z	11	advance_on_keypress_ZEE	6	stimuli_target_diamondcircles.svg	stimuli_distractor_trianglediamonds.svg	19	yes	57	0	658
6.6.1	win	2022-12-14	13:53:02	14:03:29	624999	57d714de813eb30001825ac4	421403109	1	main_z	11	main_z	7	stimuli_distractor_diamondtriangles.svg	stimuli_distractor_diamondtriangles.svg	39	no	0	1	2000
6.6.1	win	2022-12-14	13:53:02	14:03:29	624999	57d714de813eb30001825ac4	421403109	1	main_z	11	advance_on_keypress_ZEE	8	stimuli_distractor_diamondtriangles.svg	stimuli_distractor_diamondtriangles.svg	39	no	57	0	446
6.6.1	win	2022-12-14	13:53:02	14:03:31	626892	57d714de813eb30001825ac4	421403109	1	main_z	11	main_z	9	stimuli_target_diamondsquares.svg	stimuli_distractor_diamondtriangles.svg	24	yes	44	1	793
6.6.1	win	2022-12-14	13:53:02	14:03:31	626892	57d714de813eb30001825ac4	421403109	1	main_z	11	advance_on_keypress_ZEE	10	stimuli_target_diamondsquares.svg	stimuli_distractor_diamondtriangles.svg	24	yes	57	0	519
6.6.1	win	2022-12-14	13:53:02	14:03:33	628476	57d714de813eb30001825ac4	421403109	1	main_z	11	main_z	11	stimuli_distractor_trianglediamonds.svg	stimuli_target_circlediamonds.svg	10	yes	44	1	411
6.6.1	win	2022-12-14	13:53:02	14:03:33	628476	57d714de813eb30001825ac4	421403109	1	main_z	11	advance_on_keypress_ZEE	12	stimuli_distractor_trianglediamonds.svg	stimuli_target_circlediamonds.svg	10	yes	57	0	502
6.6.1	win	2022-12-14	13:53:02	14:03:36	631631	57d714de813eb30001825ac4	421403109	1	main_z	11	main_z	13	stimuli_distractor_trianglediamonds.svg	stimuli_distractor_trianglediamonds.svg	33	no	0	1	2000
6.6.1	win	2022-12-14	13:53:02	14:03:36	631631	57d714de813eb30001825ac4	421403109	1	main_z	11	advance_on_keypress_ZEE	14	stimuli_distractor_trianglediamonds.svg	stimuli_distractor_trianglediamonds.svg	33	no	57	0	450
6.6.1	win	2022-12-14	13:53:02	14:03:37	633384	57d714de813eb30001825ac4	421403109	1	main_z	11	main_z	15	stimuli_target_circletriangles.svg	stimuli_distractor_diamondtriangles.svg	5	yes	44	1	654
6.6.1	win	2022-12-14	13:53:02	14:03:37	633384	57d714de813eb30001825ac4	421403109	1	main_z	11	advance_on_keypress_ZEE	16	stimuli_target_circletriangles.svg	stimuli_distractor_diamondtriangles.svg	5	yes	57	0	3199
6.6.1	win	2022-12-14	13:53:02	14:03:42	637862	57d714de813eb30001825ac4	421403109	1	main_z	11	main_z	17	stimuli_target_diamondsquares.svg	stimuli_distractor_trianglediamonds.svg	20	yes	44	1	634
6.6.1	win	2022-12-14	13:53:02	14:03:42	637862	57d714de813eb30001825ac4	421403109	1	main_z	11	advance_on_keypress_ZEE	18	stimuli_target_diamondsquares.svg	stimuli_distractor_trianglediamonds.svg	20	yes	57	0	463
6.6.1	win	2022-12-14	13:53:02	14:03:45	640978	57d714de813eb30001825ac4	421403109	1	main_z	11	main_z	19	stimuli_distractor_diamondtriangles.svg	stimuli_distractor_trianglediamonds.svg	37	no	0	1	2000
6.6.1	win	2022-12-14	13:53:02	14:03:45	640978	57d714de813eb30001825ac4	421403109	1	main_z	11	advance_on_keypress_ZEE	20	stimuli_distractor_diamondtriangles.svg	stimuli_distractor_trianglediamonds.svg	37	no	57	0	358
6.6.1	win	2022-12-14	13:53:02	14:03:46	642421	57d714de813eb30001825ac4	421403109	1	main_z	11	main_z	21	stimuli_distractor_diamondtriangles.svg	stimuli_target_circletriangles.svg	13	yes	44	1	444
6.6.1	win	2022-12-14	13:53:02	14:03:46	642421	57d714de813eb30001825ac4	421403109	1	main_z	11	advance_on_keypress_ZEE	22	stimuli_distractor_diamondtriangles.svg	stimuli_target_circletriangles.svg	13	yes	57	0	465
6.6.1	win	2022-12-14	13:53:02	14:03:48	644107	57d714de813eb30001825ac4	421403109	1	main_z	11	main_z	23	stimuli_target_squaretriangles.svg	stimuli_distractor_diamondtriangles.svg	7	yes	44	1	563
6.6.1	win	2022-12-14	13:53:02	14:03:48	644107	57d714de813eb30001825ac4	421403109	1	main_z	11	advance_on_keypress_ZEE	24	stimuli_target_squaretriangles.svg	stimuli_distractor_diamondtriangles.svg	7	yes	57	0	540
6.6.1	win	2022-12-14	13:53:02	14:03:51	647293	57d714de813eb30001825ac4	421403109	1	main_z	11	main_z	25	stimuli_distractor_diamondtriangles.svg	stimuli_distractor_trianglediamonds.svg	38	no	0	1	2000
6.6.1	win	2022-12-14	13:53:02	14:03:51	647293	57d714de813eb30001825ac4	421403109	1	main_z	11	advance_on_keypress_ZEE	26	stimuli_distractor_diamondtriangles.svg	stimuli_distractor_trianglediamonds.svg	38	no	57	0	564
6.6.1	win	2022-12-14	13:53:02	14:03:53	649052	57d714de813eb30001825ac4	421403109	1	main_z	11	main_z	27	stimuli_target_circletriangles.svg	stimuli_distractor_trianglediamonds.svg	1	yes	44	1	543
6.6.1	win	2022-12-14	13:53:02	14:03:53	649052	57d714de813eb30001825ac4	421403109	1	main_z	11	advance_on_keypress_ZEE	28	stimuli_target_circletriangles.svg	stimuli_distractor_trianglediamonds.svg	1	yes	57	0	938
6.6.1	win	2022-12-14	13:53:02	14:03:55	651023	57d714de813eb30001825ac4	421403109	1	main_z	11	main_z	29	stimuli_distractor_trianglediamonds.svg	stimuli_target_diamondcircles.svg	27	yes	44	1	374
6.6.1	win	2022-12-14	13:53:02	14:03:55	651023	57d714de813eb30001825ac4	421403109	1	main_z	11	advance_on_keypress_ZEE	30	stimuli_distractor_trianglediamonds.svg	stimuli_target_diamondcircles.svg	27	yes	57	0	656
6.6.1	win	2022-12-14	13:53:02	14:03:57	652707	57d714de813eb30001825ac4	421403109	1	main_z	11	main_z	31	stimuli_distractor_diamondtriangles.svg	stimuli_target_circlediamonds.svg	14	yes	44	1	382
6.6.1	win	2022-12-14	13:53:02	14:03:57	652707	57d714de813eb30001825ac4	421403109	1	main_z	11	advance_on_keypress_ZEE	32	stimuli_distractor_diamondtriangles.svg	stimuli_target_circlediamonds.svg	14	yes	57	0	554
6.6.1	win	2022-12-14	13:53:02	14:04:00	655907	57d714de813eb30001825ac4	421403109	1	main_z	11	main_z	33	stimuli_distractor_diamondtriangles.svg	stimuli_distractor_diamondtriangles.svg	40	no	0	1	2000
6.6.1	win	2022-12-14	13:53:02	14:04:00	655907	57d714de813eb30001825ac4	421403109	1	main_z	11	advance_on_keypress_ZEE	34	stimuli_distractor_diamondtriangles.svg	stimuli_distractor_diamondtriangles.svg	40	no	57	0	1238
6.6.1	win	2022-12-14	13:53:02	14:04:02	658278	57d714de813eb30001825ac4	421403109	1	main_z	11	main_z	35	stimuli_target_diamondcircles.svg	stimuli_distractor_diamondtriangles.svg	23	yes	44	1	489
6.6.1	win	2022-12-14	13:53:02	14:04:02	658278	57d714de813eb30001825ac4	421403109	1	main_z	11	advance_on_keypress_ZEE	36	stimuli_target_diamondcircles.svg	stimuli_distractor_diamondtriangles.svg	23	yes	57	0	497
6.6.1	win	2022-12-14	13:53:02	14:04:04	659848	57d714de813eb30001825ac4	421403109	1	main_z	11	main_z	37	stimuli_distractor_trianglediamonds.svg	stimuli_target_trianglesquares.svg	26	yes	44	1	425
6.6.1	win	2022-12-14	13:53:02	14:04:04	659848	57d714de813eb30001825ac4	421403109	1	main_z	11	advance_on_keypress_ZEE	38	stimuli_distractor_trianglediamonds.svg	stimuli_target_trianglesquares.svg	26	yes	57	0	844
6.6.1	win	2022-12-14	13:53:02	14:04:06	661750	57d714de813eb30001825ac4	421403109	1	main_z	11	main_z	39	stimuli_distractor_diamondtriangles.svg	stimuli_target_diamondcircles.svg	31	yes	44	1	411
6.6.1	win	2022-12-14	13:53:02	14:04:06	661750	57d714de813eb30001825ac4	421403109	1	main_z	11	advance_on_keypress_ZEE	40	stimuli_distractor_diamondtriangles.svg	stimuli_target_diamondcircles.svg	31	yes	57	0	544
6.6.1	win	2022-12-14	13:53:02	14:04:09	664954	57d714de813eb30001825ac4	421403109	1	main_z	11	main_z	41	stimuli_distractor_trianglediamonds.svg	stimuli_distractor_diamondtriangles.svg	36	no	0	1	2000
6.6.1	win	2022-12-14	13:53:02	14:04:09	664954	57d714de813eb30001825ac4	421403109	1	main_z	11	advance_on_keypress_ZEE	42	stimuli_distractor_trianglediamonds.svg	stimuli_distractor_diamondtriangles.svg	36	no	57	0	1118
6.6.1	win	2022-12-14	13:53:02	14:04:13	668720	57d714de813eb30001825ac4	421403109	1	main_z	11	main_z	43	stimuli_distractor_trianglediamonds.svg	stimuli_distractor_diamondtriangles.svg	35	no	0	1	2000
6.6.1	win	2022-12-14	13:53:02	14:04:13	668720	57d714de813eb30001825ac4	421403109	1	main_z	11	advance_on_keypress_ZEE	44	stimuli_distractor_trianglediamonds.svg	stimuli_distractor_diamondtriangles.svg	35	no	57	0	509
6.6.1	win	2022-12-14	13:53:02	14:04:14	670305	57d714de813eb30001825ac4	421403109	1	main_z	11	main_z	45	stimuli_target_squarediamonds.svg	stimuli_distractor_diamondtriangles.svg	8	yes	44	1	437
6.6.1	win	2022-12-14	13:53:02	14:04:14	670305	57d714de813eb30001825ac4	421403109	1	main_z	11	advance_on_keypress_ZEE	46	stimuli_target_squarediamonds.svg	stimuli_distractor_diamondtriangles.svg	8	yes	57	0	728
6.6.1	win	2022-12-14	13:53:02	14:04:16	672205	57d714de813eb30001825ac4	421403109	1	main_z	11	main_z	47	stimuli_target_squarediamonds.svg	stimuli_distractor_trianglediamonds.svg	4	yes	44	1	519
6.6.1	win	2022-12-14	13:53:02	14:04:16	672205	57d714de813eb30001825ac4	421403109	1	main_z	11	advance_on_keypress_ZEE	48	stimuli_target_squarediamonds.svg	stimuli_distractor_trianglediamonds.svg	4	yes	57	0	512
6.6.1	win	2022-12-14	13:53:02	14:04:18	674022	57d714de813eb30001825ac4	421403109	1	main_z	11	main_z	49	stimuli_distractor_trianglediamonds.svg	stimuli_target_trianglecircles.svg	25	yes	44	1	654
6.6.1	win	2022-12-14	13:53:02	14:04:18	674022	57d714de813eb30001825ac4	421403109	1	main_z	11	advance_on_keypress_ZEE	50	stimuli_distractor_trianglediamonds.svg	stimuli_target_trianglecircles.svg	25	yes	57	0	507
6.6.1	win	2022-12-14	13:53:02	14:04:20	675570	57d714de813eb30001825ac4	421403109	1	main_z	11	main_z	51	stimuli_distractor_diamondtriangles.svg	stimuli_target_trianglesquares.svg	30	yes	44	1	402
6.6.1	win	2022-12-14	13:53:02	14:04:20	675570	57d714de813eb30001825ac4	421403109	1	main_z	11	advance_on_keypress_ZEE	52	stimuli_distractor_diamondtriangles.svg	stimuli_target_trianglesquares.svg	30	yes	57	0	744
6.6.1	win	2022-12-14	13:53:02	14:04:21	677396	57d714de813eb30001825ac4	421403109	1	main_z	11	main_z	53	stimuli_target_trianglecircles.svg	stimuli_distractor_diamondtriangles.svg	21	yes	44	1	430
6.6.1	win	2022-12-14	13:53:02	14:04:21	677396	57d714de813eb30001825ac4	421403109	1	main_z	11	advance_on_keypress_ZEE	54	stimuli_target_trianglecircles.svg	stimuli_distractor_diamondtriangles.svg	21	yes	57	0	498
6.6.1	win	2022-12-14	13:53:02	14:04:23	678988	57d714de813eb30001825ac4	421403109	1	main_z	11	main_z	55	stimuli_target_trianglecircles.svg	stimuli_distractor_trianglediamonds.svg	17	yes	44	1	438
6.6.1	win	2022-12-14	13:53:02	14:04:23	678988	57d714de813eb30001825ac4	421403109	1	main_z	11	advance_on_keypress_ZEE	56	stimuli_target_trianglecircles.svg	stimuli_distractor_trianglediamonds.svg	17	yes	57	0	442
6.6.1	win	2022-12-14	13:53:02	14:04:25	680513	57d714de813eb30001825ac4	421403109	1	main_z	11	main_z	57	stimuli_target_trianglesquares.svg	stimuli_distractor_diamondtriangles.svg	22	yes	44	1	429
6.6.1	win	2022-12-14	13:53:02	14:04:25	680513	57d714de813eb30001825ac4	421403109	1	main_z	11	advance_on_keypress_ZEE	58	stimuli_target_trianglesquares.svg	stimuli_distractor_diamondtriangles.svg	22	yes	57	0	650
6.6.1	win	2022-12-14	13:53:02	14:04:26	682132	57d714de813eb30001825ac4	421403109	1	main_z	11	main_z	59	stimuli_distractor_diamondtriangles.svg	stimuli_target_trianglecircles.svg	29	yes	44	1	316
6.6.1	win	2022-12-14	13:53:02	14:04:26	682132	57d714de813eb30001825ac4	421403109	1	main_z	11	advance_on_keypress_ZEE	60	stimuli_distractor_diamondtriangles.svg	stimuli_target_trianglecircles.svg	29	yes	57	0	648
6.6.1	win	2022-12-14	13:53:02	14:04:28	683814	57d714de813eb30001825ac4	421403109	1	main_z	11	main_z	61	stimuli_distractor_diamondtriangles.svg	stimuli_target_diamondsquares.svg	32	yes	44	1	377
6.6.1	win	2022-12-14	13:53:02	14:04:28	683814	57d714de813eb30001825ac4	421403109	1	main_z	11	advance_on_keypress_ZEE	62	stimuli_distractor_diamondtriangles.svg	stimuli_target_diamondsquares.svg	32	yes	57	0	852
6.6.1	win	2022-12-14	13:53:02	14:04:30	685681	57d714de813eb30001825ac4	421403109	1	main_z	11	main_z	63	stimuli_distractor_trianglediamonds.svg	stimuli_target_squarediamonds.svg	12	yes	44	1	366
6.6.1	win	2022-12-14	13:53:02	14:04:30	685681	57d714de813eb30001825ac4	421403109	1	main_z	11	advance_on_keypress_ZEE	64	stimuli_distractor_trianglediamonds.svg	stimuli_target_squarediamonds.svg	12	yes	57	0	1376
6.6.1	win	2022-12-14	13:53:02	14:04:32	688101	57d714de813eb30001825ac4	421403109	1	main_z	11	main_z	65	stimuli_distractor_diamondtriangles.svg	stimuli_target_squarediamonds.svg	16	yes	44	1	403
6.6.1	win	2022-12-14	13:53:02	14:04:32	688101	57d714de813eb30001825ac4	421403109	1	main_z	11	advance_on_keypress_ZEE	66	stimuli_distractor_diamondtriangles.svg	stimuli_target_squarediamonds.svg	16	yes	57	0	883
6.6.1	win	2022-12-14	13:53:02	14:04:34	690019	57d714de813eb30001825ac4	421403109	1	main_z	11	main_z	67	stimuli_target_circlediamonds.svg	stimuli_distractor_trianglediamonds.svg	2	yes	44	1	389
6.6.1	win	2022-12-14	13:53:02	14:04:34	690019	57d714de813eb30001825ac4	421403109	1	main_z	11	advance_on_keypress_ZEE	68	stimuli_target_circlediamonds.svg	stimuli_distractor_trianglediamonds.svg	2	yes	57	0	615
6.6.1	win	2022-12-14	13:53:02	14:04:36	691661	57d714de813eb30001825ac4	421403109	1	main_z	11	main_z	69	stimuli_distractor_trianglediamonds.svg	stimuli_target_diamondsquares.svg	28	yes	44	1	370
6.6.1	win	2022-12-14	13:53:02	14:04:36	691661	57d714de813eb30001825ac4	421403109	1	main_z	11	advance_on_keypress_ZEE	70	stimuli_distractor_trianglediamonds.svg	stimuli_target_diamondsquares.svg	28	yes	57	0	824
6.6.1	win	2022-12-14	13:53:02	14:04:39	695129	57d714de813eb30001825ac4	421403109	1	main_z	11	main_z	71	stimuli_distractor_trianglediamonds.svg	stimuli_distractor_trianglediamonds.svg	34	no	0	1	2000
6.6.1	win	2022-12-14	13:53:02	14:04:39	695129	57d714de813eb30001825ac4	421403109	1	main_z	11	advance_on_keypress_ZEE	72	stimuli_distractor_trianglediamonds.svg	stimuli_distractor_trianglediamonds.svg	34	no	57	0	662
6.6.1	win	2022-12-14	13:53:02	14:04:41	697352	57d714de813eb30001825ac4	421403109	1	main_z	11	main_z	73	stimuli_distractor_diamondtriangles.svg	stimuli_target_squaretriangles.svg	15	yes	44	1	907
6.6.1	win	2022-12-14	13:53:02	14:04:41	697352	57d714de813eb30001825ac4	421403109	1	main_z	11	advance_on_keypress_ZEE	74	stimuli_distractor_diamondtriangles.svg	stimuli_target_squaretriangles.svg	15	yes	57	0	501
6.6.1	win	2022-12-14	13:53:02	14:04:43	699061	57d714de813eb30001825ac4	421403109	1	main_z	11	main_z	75	stimuli_target_circlediamonds.svg	stimuli_distractor_diamondtriangles.svg	6	yes	44	1	567
6.6.1	win	2022-12-14	13:53:02	14:04:43	699061	57d714de813eb30001825ac4	421403109	1	main_z	11	advance_on_keypress_ZEE	76	stimuli_target_circlediamonds.svg	stimuli_distractor_diamondtriangles.svg	6	yes	57	0	1935
6.6.1	win	2022-12-14	13:53:02	14:04:46	702075	57d714de813eb30001825ac4	421403109	1	main_z	11	main_z	77	stimuli_target_trianglesquares.svg	stimuli_distractor_trianglediamonds.svg	18	yes	44	1	431
6.6.1	win	2022-12-14	13:53:02	14:04:46	702075	57d714de813eb30001825ac4	421403109	1	main_z	11	advance_on_keypress_ZEE	78	stimuli_target_trianglesquares.svg	stimuli_distractor_trianglediamonds.svg	18	yes	57	0	661
6.6.1	win	2022-12-14	13:53:02	14:04:48	703808	57d714de813eb30001825ac4	421403109	1	main_z	11	main_z	79	stimuli_distractor_trianglediamonds.svg	stimuli_target_circletriangles.svg	9	yes	44	1	415
6.6.1	win	2022-12-14	13:53:02	14:04:48	703808	57d714de813eb30001825ac4	421403109	1	main_z	11	advance_on_keypress_ZEE	80	stimuli_distractor_trianglediamonds.svg	stimuli_target_circletriangles.svg	9	yes	57	0	648
6.6.1	win	2022-12-14	13:53:02	14:04:51	707109	57d714de813eb30001825ac4	421403109	1	main_z	11	main_z	81	stimuli_distractor_trianglediamonds.svg	stimuli_distractor_diamondtriangles.svg	36	no	0	1	2000
6.6.1	win	2022-12-14	13:53:02	14:04:51	707109	57d714de813eb30001825ac4	421403109	1	main_z	11	advance_on_keypress_ZEE	82	stimuli_distractor_trianglediamonds.svg	stimuli_distractor_diamondtriangles.svg	36	no	57	0	437
6.6.1	win	2022-12-14	13:53:02	14:04:53	708583	57d714de813eb30001825ac4	421403109	1	main_z	11	main_z	83	stimuli_distractor_diamondtriangles.svg	stimuli_target_squaretriangles.svg	15	yes	44	1	391
6.6.1	win	2022-12-14	13:53:02	14:04:53	708583	57d714de813eb30001825ac4	421403109	1	main_z	11	advance_on_keypress_ZEE	84	stimuli_distractor_diamondtriangles.svg	stimuli_target_squaretriangles.svg	15	yes	57	0	527
6.6.1	win	2022-12-14	13:53:02	14:04:56	711757	57d714de813eb30001825ac4	421403109	1	main_z	11	main_z	85	stimuli_distractor_trianglediamonds.svg	stimuli_distractor_diamondtriangles.svg	35	no	0	1	2000
6.6.1	win	2022-12-14	13:53:02	14:04:56	711757	57d714de813eb30001825ac4	421403109	1	main_z	11	advance_on_keypress_ZEE	86	stimuli_distractor_trianglediamonds.svg	stimuli_distractor_diamondtriangles.svg	35	no	57	0	751
6.6.1	win	2022-12-14	13:53:02	14:04:58	713545	57d714de813eb30001825ac4	421403109	1	main_z	11	main_z	87	stimuli_target_circlediamonds.svg	stimuli_distractor_trianglediamonds.svg	2	yes	44	1	388
6.6.1	win	2022-12-14	13:53:02	14:04:58	713545	57d714de813eb30001825ac4	421403109	1	main_z	11	advance_on_keypress_ZEE	88	stimuli_target_circlediamonds.svg	stimuli_distractor_trianglediamonds.svg	2	yes	57	0	562
6.6.1	win	2022-12-14	13:53:02	14:04:59	715254	57d714de813eb30001825ac4	421403109	1	main_z	11	main_z	89	stimuli_distractor_diamondtriangles.svg	stimuli_target_trianglesquares.svg	30	yes	44	1	499
6.6.1	win	2022-12-14	13:53:02	14:04:59	715254	57d714de813eb30001825ac4	421403109	1	main_z	11	advance_on_keypress_ZEE	90	stimuli_distractor_diamondtriangles.svg	stimuli_target_trianglesquares.svg	30	yes	57	0	552
6.6.1	win	2022-12-14	13:53:02	14:05:01	716872	57d714de813eb30001825ac4	421403109	1	main_z	11	main_z	91	stimuli_target_diamondcircles.svg	stimuli_distractor_trianglediamonds.svg	19	yes	44	1	416
6.6.1	win	2022-12-14	13:53:02	14:05:01	716872	57d714de813eb30001825ac4	421403109	1	main_z	11	advance_on_keypress_ZEE	92	stimuli_target_diamondcircles.svg	stimuli_distractor_trianglediamonds.svg	19	yes	57	0	578
6.6.1	win	2022-12-14	13:53:02	14:05:03	718486	57d714de813eb30001825ac4	421403109	1	main_z	11	main_z	93	stimuli_distractor_trianglediamonds.svg	stimuli_target_diamondsquares.svg	28	yes	44	1	379
6.6.1	win	2022-12-14	13:53:02	14:05:03	718486	57d714de813eb30001825ac4	421403109	1	main_z	11	advance_on_keypress_ZEE	94	stimuli_distractor_trianglediamonds.svg	stimuli_target_diamondsquares.svg	28	yes	57	0	343
6.6.1	win	2022-12-14	13:53:02	14:05:04	719835	57d714de813eb30001825ac4	421403109	1	main_z	11	main_z	95	stimuli_target_squaretriangles.svg	stimuli_distractor_diamondtriangles.svg	7	yes	44	1	346
6.6.1	win	2022-12-14	13:53:02	14:05:04	719835	57d714de813eb30001825ac4	421403109	1	main_z	11	advance_on_keypress_ZEE	96	stimuli_target_squaretriangles.svg	stimuli_distractor_diamondtriangles.svg	7	yes	57	0	455
6.6.1	win	2022-12-14	13:53:02	14:05:06	721616	57d714de813eb30001825ac4	421403109	1	main_z	11	main_z	97	stimuli_distractor_diamondtriangles.svg	stimuli_target_diamondsquares.svg	32	yes	44	1	678
6.6.1	win	2022-12-14	13:53:02	14:05:06	721616	57d714de813eb30001825ac4	421403109	1	main_z	11	advance_on_keypress_ZEE	98	stimuli_distractor_diamondtriangles.svg	stimuli_target_diamondsquares.svg	32	yes	57	0	401
6.6.1	win	2022-12-14	13:53:02	14:05:07	723079	57d714de813eb30001825ac4	421403109	1	main_z	11	main_z	99	stimuli_distractor_trianglediamonds.svg	stimuli_distractor_trianglediamonds.svg	33	no	44	0	408
6.6.1	win	2022-12-14	13:53:02	14:05:07	723079	57d714de813eb30001825ac4	421403109	1	main_z	11	advance_on_keypress_ZEE	100	stimuli_distractor_trianglediamonds.svg	stimuli_distractor_trianglediamonds.svg	33	no	57	0	1281
6.6.1	win	2022-12-14	13:53:02	14:05:10	725634	57d714de813eb30001825ac4	421403109	1	main_z	11	main_z	101	stimuli_target_trianglecircles.svg	stimuli_distractor_diamondtriangles.svg	21	yes	44	1	631
6.6.1	win	2022-12-14	13:53:02	14:05:10	725634	57d714de813eb30001825ac4	421403109	1	main_z	11	advance_on_keypress_ZEE	102	stimuli_target_trianglecircles.svg	stimuli_distractor_diamondtriangles.svg	21	yes	57	0	979
6.6.1	win	2022-12-14	13:53:02	14:05:13	729269	57d714de813eb30001825ac4	421403109	1	main_z	11	main_z	103	stimuli_distractor_diamondtriangles.svg	stimuli_distractor_diamondtriangles.svg	39	no	0	1	2000
6.6.1	win	2022-12-14	13:53:02	14:05:13	729269	57d714de813eb30001825ac4	421403109	1	main_z	11	advance_on_keypress_ZEE	104	stimuli_distractor_diamondtriangles.svg	stimuli_distractor_diamondtriangles.svg	39	no	57	0	433
6.6.1	win	2022-12-14	13:53:02	14:05:15	730699	57d714de813eb30001825ac4	421403109	1	main_z	11	main_z	105	stimuli_distractor_trianglediamonds.svg	stimuli_target_circletriangles.svg	9	yes	44	1	348
6.6.1	win	2022-12-14	13:53:02	14:05:15	730699	57d714de813eb30001825ac4	421403109	1	main_z	11	advance_on_keypress_ZEE	106	stimuli_distractor_trianglediamonds.svg	stimuli_target_circletriangles.svg	9	yes	57	0	603
6.6.1	win	2022-12-14	13:53:02	14:05:16	732404	57d714de813eb30001825ac4	421403109	1	main_z	11	main_z	107	stimuli_target_diamondsquares.svg	stimuli_distractor_diamondtriangles.svg	24	yes	44	1	453
6.6.1	win	2022-12-14	13:53:02	14:05:16	732404	57d714de813eb30001825ac4	421403109	1	main_z	11	advance_on_keypress_ZEE	108	stimuli_target_diamondsquares.svg	stimuli_distractor_diamondtriangles.svg	24	yes	57	0	499
6.6.1	win	2022-12-14	13:53:02	14:05:19	734491	57d714de813eb30001825ac4	421403109	1	main_z	11	main_z	109	stimuli_distractor_trianglediamonds.svg	stimuli_target_squarediamonds.svg	12	yes	44	1	940
6.6.1	win	2022-12-14	13:53:02	14:05:19	734491	57d714de813eb30001825ac4	421403109	1	main_z	11	advance_on_keypress_ZEE	110	stimuli_distractor_trianglediamonds.svg	stimuli_target_squarediamonds.svg	12	yes	57	0	531
6.6.1	win	2022-12-14	13:53:02	14:05:22	737667	57d714de813eb30001825ac4	421403109	1	main_z	11	main_z	111	stimuli_distractor_trianglediamonds.svg	stimuli_distractor_trianglediamonds.svg	34	no	0	1	2000
6.6.1	win	2022-12-14	13:53:02	14:05:22	737667	57d714de813eb30001825ac4	421403109	1	main_z	11	advance_on_keypress_ZEE	112	stimuli_distractor_trianglediamonds.svg	stimuli_distractor_trianglediamonds.svg	34	no	57	0	656
6.6.1	win	2022-12-14	13:53:02	14:05:23	739347	57d714de813eb30001825ac4	421403109	1	main_z	11	main_z	113	stimuli_distractor_trianglediamonds.svg	stimuli_target_trianglesquares.svg	26	yes	44	1	378
6.6.1	win	2022-12-14	13:53:02	14:05:23	739347	57d714de813eb30001825ac4	421403109	1	main_z	11	advance_on_keypress_ZEE	114	stimuli_distractor_trianglediamonds.svg	stimuli_target_trianglesquares.svg	26	yes	57	0	489
6.6.1	win	2022-12-14	13:53:02	14:05:25	741034	57d714de813eb30001825ac4	421403109	1	main_z	11	main_z	115	stimuli_distractor_diamondtriangles.svg	stimuli_target_squarediamonds.svg	16	yes	44	1	552
6.6.1	win	2022-12-14	13:53:02	14:05:25	741034	57d714de813eb30001825ac4	421403109	1	main_z	11	advance_on_keypress_ZEE	116	stimuli_distractor_diamondtriangles.svg	stimuli_target_squarediamonds.svg	16	yes	57	0	497
6.6.1	win	2022-12-14	13:53:02	14:05:27	742634	57d714de813eb30001825ac4	421403109	1	main_z	11	main_z	117	stimuli_target_trianglesquares.svg	stimuli_distractor_diamondtriangles.svg	22	yes	44	1	452
6.6.1	win	2022-12-14	13:53:02	14:05:27	742634	57d714de813eb30001825ac4	421403109	1	main_z	11	advance_on_keypress_ZEE	118	stimuli_target_trianglesquares.svg	stimuli_distractor_diamondtriangles.svg	22	yes	57	0	603
6.6.1	win	2022-12-14	13:53:02	14:05:30	745881	57d714de813eb30001825ac4	421403109	1	main_z	11	main_z	119	stimuli_distractor_diamondtriangles.svg	stimuli_distractor_trianglediamonds.svg	37	no	0	1	2000
6.6.1	win	2022-12-14	13:53:02	14:05:30	745881	57d714de813eb30001825ac4	421403109	1	main_z	11	advance_on_keypress_ZEE	120	stimuli_distractor_diamondtriangles.svg	stimuli_distractor_trianglediamonds.svg	37	no	57	0	432
6.6.1	win	2022-12-14	13:53:02	14:05:31	747431	57d714de813eb30001825ac4	421403109	1	main_z	11	main_z	121	stimuli_distractor_trianglediamonds.svg	stimuli_target_diamondcircles.svg	27	yes	44	1	468
6.6.1	win	2022-12-14	13:53:02	14:05:31	747431	57d714de813eb30001825ac4	421403109	1	main_z	11	advance_on_keypress_ZEE	122	stimuli_distractor_trianglediamonds.svg	stimuli_target_diamondcircles.svg	27	yes	57	0	486
6.6.1	win	2022-12-14	13:53:02	14:05:33	749121	57d714de813eb30001825ac4	421403109	1	main_z	11	main_z	123	stimuli_distractor_diamondtriangles.svg	stimuli_target_circletriangles.svg	13	yes	44	1	559
6.6.1	win	2022-12-14	13:53:02	14:05:33	749121	57d714de813eb30001825ac4	421403109	1	main_z	11	advance_on_keypress_ZEE	124	stimuli_distractor_diamondtriangles.svg	stimuli_target_circletriangles.svg	13	yes	57	0	496
6.6.1	win	2022-12-14	13:53:02	14:05:35	750603	57d714de813eb30001825ac4	421403109	1	main_z	11	main_z	125	stimuli_distractor_diamondtriangles.svg	stimuli_target_diamondcircles.svg	31	yes	44	1	340
6.6.1	win	2022-12-14	13:53:02	14:05:35	750603	57d714de813eb30001825ac4	421403109	1	main_z	11	advance_on_keypress_ZEE	126	stimuli_distractor_diamondtriangles.svg	stimuli_target_diamondcircles.svg	31	yes	57	0	449
6.6.1	win	2022-12-14	13:53:02	14:05:36	752089	57d714de813eb30001825ac4	421403109	1	main_z	11	main_z	127	stimuli_target_trianglesquares.svg	stimuli_distractor_trianglediamonds.svg	18	yes	44	1	393
6.6.1	win	2022-12-14	13:53:02	14:05:36	752089	57d714de813eb30001825ac4	421403109	1	main_z	11	advance_on_keypress_ZEE	128	stimuli_target_trianglesquares.svg	stimuli_distractor_trianglediamonds.svg	18	yes	57	0	1166
6.6.1	win	2022-12-14	13:53:02	14:05:38	754307	57d714de813eb30001825ac4	421403109	1	main_z	11	main_z	129	stimuli_distractor_trianglediamonds.svg	stimuli_target_circlediamonds.svg	10	yes	44	1	396
6.6.1	win	2022-12-14	13:53:02	14:05:38	754307	57d714de813eb30001825ac4	421403109	1	main_z	11	advance_on_keypress_ZEE	130	stimuli_distractor_trianglediamonds.svg	stimuli_target_circlediamonds.svg	10	yes	57	0	722
6.6.1	win	2022-12-14	13:53:02	14:05:42	757677	57d714de813eb30001825ac4	421403109	1	main_z	11	main_z	131	stimuli_distractor_diamondtriangles.svg	stimuli_distractor_diamondtriangles.svg	40	no	0	1	2000
6.6.1	win	2022-12-14	13:53:02	14:05:42	757677	57d714de813eb30001825ac4	421403109	1	main_z	11	advance_on_keypress_ZEE	132	stimuli_distractor_diamondtriangles.svg	stimuli_distractor_diamondtriangles.svg	40	no	57	0	473
6.6.1	win	2022-12-14	13:53:02	14:05:43	759219	57d714de813eb30001825ac4	421403109	1	main_z	11	main_z	133	stimuli_target_squaretriangles.svg	stimuli_distractor_trianglediamonds.svg	3	yes	44	1	426
6.6.1	win	2022-12-14	13:53:02	14:05:43	759219	57d714de813eb30001825ac4	421403109	1	main_z	11	advance_on_keypress_ZEE	134	stimuli_target_squaretriangles.svg	stimuli_distractor_trianglediamonds.svg	3	yes	57	0	494
6.6.1	win	2022-12-14	13:53:02	14:05:46	761942	57d714de813eb30001825ac4	421403109	1	main_z	11	main_z	135	stimuli_distractor_trianglediamonds.svg	stimuli_target_squaretriangles.svg	11	yes	44	1	1583
6.6.1	win	2022-12-14	13:53:02	14:05:46	761942	57d714de813eb30001825ac4	421403109	1	main_z	11	advance_on_keypress_ZEE	136	stimuli_distractor_trianglediamonds.svg	stimuli_target_squaretriangles.svg	11	yes	57	0	614
6.6.1	win	2022-12-14	13:53:02	14:05:48	763647	57d714de813eb30001825ac4	421403109	1	main_z	11	main_z	137	stimuli_target_trianglecircles.svg	stimuli_distractor_trianglediamonds.svg	17	yes	44	1	438
6.6.1	win	2022-12-14	13:53:02	14:05:48	763647	57d714de813eb30001825ac4	421403109	1	main_z	11	advance_on_keypress_ZEE	138	stimuli_target_trianglecircles.svg	stimuli_distractor_trianglediamonds.svg	17	yes	57	0	587
6.6.1	win	2022-12-14	13:53:02	14:05:50	765479	57d714de813eb30001825ac4	421403109	1	main_z	11	main_z	139	stimuli_target_circletriangles.svg	stimuli_distractor_diamondtriangles.svg	5	yes	44	1	604
6.6.1	win	2022-12-14	13:53:02	14:05:50	765479	57d714de813eb30001825ac4	421403109	1	main_z	11	advance_on_keypress_ZEE	140	stimuli_target_circletriangles.svg	stimuli_distractor_diamondtriangles.svg	5	yes	57	0	566
6.6.1	win	2022-12-14	13:53:02	14:05:51	766998	57d714de813eb30001825ac4	421403109	1	main_z	11	main_z	141	stimuli_target_circlediamonds.svg	stimuli_distractor_diamondtriangles.svg	6	yes	44	1	308
6.6.1	win	2022-12-14	13:53:02	14:05:51	766998	57d714de813eb30001825ac4	421403109	1	main_z	11	advance_on_keypress_ZEE	142	stimuli_target_circlediamonds.svg	stimuli_distractor_diamondtriangles.svg	6	yes	57	0	559
6.6.1	win	2022-12-14	13:53:02	14:05:53	768604	57d714de813eb30001825ac4	421403109	1	main_z	11	main_z	143	stimuli_target_circletriangles.svg	stimuli_distractor_trianglediamonds.svg	1	yes	44	1	397
6.6.1	win	2022-12-14	13:53:02	14:05:53	768604	57d714de813eb30001825ac4	421403109	1	main_z	11	advance_on_keypress_ZEE	144	stimuli_target_circletriangles.svg	stimuli_distractor_trianglediamonds.svg	1	yes	57	0	615
6.6.1	win	2022-12-14	13:53:02	14:05:54	770230	57d714de813eb30001825ac4	421403109	1	main_z	11	main_z	145	stimuli_distractor_diamondtriangles.svg	stimuli_distractor_trianglediamonds.svg	38	no	44	0	357
6.6.1	win	2022-12-14	13:53:02	14:05:54	770230	57d714de813eb30001825ac4	421403109	1	main_z	11	advance_on_keypress_ZEE	146	stimuli_distractor_diamondtriangles.svg	stimuli_distractor_trianglediamonds.svg	38	no	57	0	1955
6.6.1	win	2022-12-14	13:53:02	14:05:57	773337	57d714de813eb30001825ac4	421403109	1	main_z	11	main_z	147	stimuli_target_squarediamonds.svg	stimuli_distractor_diamondtriangles.svg	8	yes	44	1	510
6.6.1	win	2022-12-14	13:53:02	14:05:57	773337	57d714de813eb30001825ac4	421403109	1	main_z	11	advance_on_keypress_ZEE	148	stimuli_target_squarediamonds.svg	stimuli_distractor_diamondtriangles.svg	8	yes	57	0	486
6.6.1	win	2022-12-14	13:53:02	14:06:01	776472	57d714de813eb30001825ac4	421403109	1	main_z	11	main_z	149	stimuli_target_diamondsquares.svg	stimuli_distractor_trianglediamonds.svg	20	yes	0	0	2000
6.6.1	win	2022-12-14	13:53:02	14:06:01	776472	57d714de813eb30001825ac4	421403109	1	main_z	11	advance_on_keypress_ZEE	150	stimuli_target_diamondsquares.svg	stimuli_distractor_trianglediamonds.svg	20	yes	57	0	806
6.6.1	win	2022-12-14	13:53:02	14:06:02	778303	57d714de813eb30001825ac4	421403109	1	main_z	11	main_z	151	stimuli_distractor_trianglediamonds.svg	stimuli_target_trianglecircles.svg	25	yes	44	1	375
6.6.1	win	2022-12-14	13:53:02	14:06:02	778303	57d714de813eb30001825ac4	421403109	1	main_z	11	advance_on_keypress_ZEE	152	stimuli_distractor_trianglediamonds.svg	stimuli_target_trianglecircles.svg	25	yes	57	0	411
6.6.1	win	2022-12-14	13:53:02	14:06:04	779759	57d714de813eb30001825ac4	421403109	1	main_z	11	main_z	153	stimuli_target_squarediamonds.svg	stimuli_distractor_trianglediamonds.svg	4	yes	44	1	389
6.6.1	win	2022-12-14	13:53:02	14:06:04	779759	57d714de813eb30001825ac4	421403109	1	main_z	11	advance_on_keypress_ZEE	154	stimuli_target_squarediamonds.svg	stimuli_distractor_trianglediamonds.svg	4	yes	57	0	485
6.6.1	win	2022-12-14	13:53:02	14:06:05	781325	57d714de813eb30001825ac4	421403109	1	main_z	11	main_z	155	stimuli_distractor_diamondtriangles.svg	stimuli_target_circlediamonds.svg	14	yes	44	1	438
6.6.1	win	2022-12-14	13:53:02	14:06:05	781325	57d714de813eb30001825ac4	421403109	1	main_z	11	advance_on_keypress_ZEE	156	stimuli_distractor_diamondtriangles.svg	stimuli_target_circlediamonds.svg	14	yes	57	0	800
6.6.1	win	2022-12-14	13:53:02	14:06:08	783503	57d714de813eb30001825ac4	421403109	1	main_z	11	main_z	157	stimuli_target_diamondcircles.svg	stimuli_distractor_diamondtriangles.svg	23	yes	44	1	733
6.6.1	win	2022-12-14	13:53:02	14:06:08	783503	57d714de813eb30001825ac4	421403109	1	main_z	11	advance_on_keypress_ZEE	158	stimuli_target_diamondcircles.svg	stimuli_distractor_diamondtriangles.svg	23	yes	57	0	534
6.6.1	win	2022-12-14	13:53:02	14:06:09	785210	57d714de813eb30001825ac4	421403109	1	main_z	11	main_z	159	stimuli_distractor_diamondtriangles.svg	stimuli_target_trianglecircles.svg	29	yes	44	1	524
6.6.1	win	2022-12-14	13:53:02	14:06:09	785210	57d714de813eb30001825ac4	421403109	1	main_z	11	advance_on_keypress_ZEE	160	stimuli_distractor_diamondtriangles.svg	stimuli_target_trianglecircles.svg	29	yes	57	0	565