build	computer.platform	date	time	timestamp	time_elapsed_ms	subject	group	session	blockcode	blocknum	trialcode	trialnum	stimulus_left	stimulus_right	stim_index	target_present	response	correct	latency
6.6.1	win	2022-12-14	22:00:31	22:09:12	520441	6091ebb375f9f6e9e1acaef8	908835313	1	practice_slash	5	practice_slash	1	stimuli_target_squarediamonds.svg	stimuli_distractor_trianglediamonds.svg	5	yes	53	1	694
6.6.1	win	2022-12-14	22:00:31	22:09:12	520441	6091ebb375f9f6e9e1acaef8	908835313	1	practice_slash	5	advance_on_keypress_SLASH	2	stimuli_target_squarediamonds.svg	stimuli_distractor_trianglediamonds.svg	5	yes	57	0	2912
6.6.1	win	2022-12-14	22:00:31	22:09:19	527013	6091ebb375f9f6e9e1acaef8	908835313	1	practice_slash	5	practice_slash	3	stimuli_target_diamondsquares.svg	stimuli_distractor_diamondtriangles.svg	3	yes	0	0	2000
6.6.1	win	2022-12-14	22:00:31	22:09:19	527013	6091ebb375f9f6e9e1acaef8	908835313	1	practice_slash	5	advance_on_keypress_SLASH	4	stimuli_target_diamondsquares.svg	stimuli_distractor_diamondtriangles.svg	3	yes	57	0	4252
6.6.1	win	2022-12-14	22:00:31	22:09:27	534913	6091ebb375f9f6e9e1acaef8	908835313	1	practice_slash	5	practice_slash	5	stimuli_distractor_trianglediamonds.svg	stimuli_distractor_trianglediamonds.svg	15	no	0	1	2000
6.6.1	win	2022-12-14	22:00:31	22:09:27	534913	6091ebb375f9f6e9e1acaef8	908835313	1	practice_slash	5	advance_on_keypress_SLASH	6	stimuli_distractor_trianglediamonds.svg	stimuli_distractor_trianglediamonds.svg	15	no	57	0	619
6.6.1	win	2022-12-14	22:00:31	22:09:30	538030	6091ebb375f9f6e9e1acaef8	908835313	1	practice_slash	5	practice_slash	7	stimuli_target_squarediamonds.svg	stimuli_distractor_diamondtriangles.svg	2	yes	53	1	849
6.6.1	win	2022-12-14	22:00:31	22:09:30	538030	6091ebb375f9f6e9e1acaef8	908835313	1	practice_slash	5	advance_on_keypress_SLASH	8	stimuli_target_squarediamonds.svg	stimuli_distractor_diamondtriangles.svg	2	yes	57	0	339
6.6.1	win	2022-12-14	22:00:31	22:09:34	542031	6091ebb375f9f6e9e1acaef8	908835313	1	practice_slash	5	practice_slash	9	stimuli_distractor_diamondtriangles.svg	stimuli_distractor_diamondtriangles.svg	13	no	0	1	2000
6.6.1	win	2022-12-14	22:00:31	22:09:34	542031	6091ebb375f9f6e9e1acaef8	908835313	1	practice_slash	5	advance_on_keypress_SLASH	10	stimuli_distractor_diamondtriangles.svg	stimuli_distractor_diamondtriangles.svg	13	no	57	0	612
6.6.1	win	2022-12-14	22:00:31	22:09:37	544856	6091ebb375f9f6e9e1acaef8	908835313	1	practice_slash	5	practice_slash	11	stimuli_target_circlediamonds.svg	stimuli_distractor_diamondtriangles.svg	1	yes	53	1	559
6.6.1	win	2022-12-14	22:00:31	22:09:37	544856	6091ebb375f9f6e9e1acaef8	908835313	1	practice_slash	5	advance_on_keypress_SLASH	12	stimuli_target_circlediamonds.svg	stimuli_distractor_diamondtriangles.svg	1	yes	57	0	487
6.6.1	win	2022-12-14	22:00:31	22:09:40	547612	6091ebb375f9f6e9e1acaef8	908835313	1	practice_slash	5	practice_slash	13	stimuli_distractor_trianglediamonds.svg	stimuli_target_circlediamonds.svg	10	yes	53	1	615
6.6.1	win	2022-12-14	22:00:31	22:09:40	547612	6091ebb375f9f6e9e1acaef8	908835313	1	practice_slash	5	advance_on_keypress_SLASH	14	stimuli_distractor_trianglediamonds.svg	stimuli_target_circlediamonds.svg	10	yes	57	0	360
6.6.1	win	2022-12-14	22:00:31	22:09:43	550702	6091ebb375f9f6e9e1acaef8	908835313	1	practice_slash	5	practice_slash	15	stimuli_distractor_trianglediamonds.svg	stimuli_target_diamondcircles.svg	12	yes	53	1	1071
6.6.1	win	2022-12-14	22:00:31	22:09:43	550702	6091ebb375f9f6e9e1acaef8	908835313	1	practice_slash	5	advance_on_keypress_SLASH	16	stimuli_distractor_trianglediamonds.svg	stimuli_target_diamondcircles.svg	12	yes	57	0	573
6.6.1	win	2022-12-14	22:00:31	22:09:47	554931	6091ebb375f9f6e9e1acaef8	908835313	1	practice_slash	5	practice_slash	17	stimuli_distractor_diamondtriangles.svg	stimuli_distractor_trianglediamonds.svg	14	no	0	1	2000
6.6.1	win	2022-12-14	22:00:31	22:09:47	554931	6091ebb375f9f6e9e1acaef8	908835313	1	practice_slash	5	advance_on_keypress_SLASH	18	stimuli_distractor_diamondtriangles.svg	stimuli_distractor_trianglediamonds.svg	14	no	57	0	191
6.6.1	win	2022-12-14	22:00:31	22:09:50	557729	6091ebb375f9f6e9e1acaef8	908835313	1	practice_slash	5	practice_slash	19	stimuli_distractor_trianglediamonds.svg	stimuli_target_squarediamonds.svg	11	yes	53	1	949
6.6.1	win	2022-12-14	22:00:31	22:09:50	557729	6091ebb375f9f6e9e1acaef8	908835313	1	practice_slash	5	advance_on_keypress_SLASH	20	stimuli_distractor_trianglediamonds.svg	stimuli_target_squarediamonds.svg	11	yes	57	0	349
6.6.1	win	2022-12-14	22:00:31	22:09:53	560850	6091ebb375f9f6e9e1acaef8	908835313	1	practice_slash	5	practice_slash	21	stimuli_distractor_diamondtriangles.svg	stimuli_target_diamondcircles.svg	8	yes	53	1	1117
6.6.1	win	2022-12-14	22:00:31	22:09:53	560850	6091ebb375f9f6e9e1acaef8	908835313	1	practice_slash	5	advance_on_keypress_SLASH	22	stimuli_distractor_diamondtriangles.svg	stimuli_target_diamondcircles.svg	8	yes	57	0	454
6.6.1	win	2022-12-14	22:00:31	22:09:57	564567	6091ebb375f9f6e9e1acaef8	908835313	1	practice_slash	5	practice_slash	23	stimuli_distractor_diamondtriangles.svg	stimuli_target_trianglecircles.svg	9	yes	53	1	1602
6.6.1	win	2022-12-14	22:00:31	22:09:57	564567	6091ebb375f9f6e9e1acaef8	908835313	1	practice_slash	5	advance_on_keypress_SLASH	24	stimuli_distractor_diamondtriangles.svg	stimuli_target_trianglecircles.svg	9	yes	57	0	741
6.6.1	win	2022-12-14	22:00:31	22:10:01	568964	6091ebb375f9f6e9e1acaef8	908835313	1	practice_slash	5	practice_slash	25	stimuli_distractor_trianglediamonds.svg	stimuli_distractor_diamondtriangles.svg	16	no	0	1	2000
6.6.1	win	2022-12-14	22:00:31	22:10:01	568964	6091ebb375f9f6e9e1acaef8	908835313	1	practice_slash	5	advance_on_keypress_SLASH	26	stimuli_distractor_trianglediamonds.svg	stimuli_distractor_diamondtriangles.svg	16	no	57	0	422
6.6.1	win	2022-12-14	22:00:31	22:10:04	571971	6091ebb375f9f6e9e1acaef8	908835313	1	practice_slash	5	practice_slash	27	stimuli_distractor_diamondtriangles.svg	stimuli_target_circletriangles.svg	7	yes	53	1	923
6.6.1	win	2022-12-14	22:00:31	22:10:04	571971	6091ebb375f9f6e9e1acaef8	908835313	1	practice_slash	5	advance_on_keypress_SLASH	28	stimuli_distractor_diamondtriangles.svg	stimuli_target_circletriangles.svg	7	yes	57	0	1672
6.6.1	win	2022-12-14	22:00:31	22:10:08	576377	6091ebb375f9f6e9e1acaef8	908835313	1	practice_slash	5	practice_slash	29	stimuli_target_circlediamonds.svg	stimuli_distractor_trianglediamonds.svg	4	yes	53	1	1063
6.6.1	win	2022-12-14	22:00:31	22:10:08	576377	6091ebb375f9f6e9e1acaef8	908835313	1	practice_slash	5	advance_on_keypress_SLASH	30	stimuli_target_circlediamonds.svg	stimuli_distractor_trianglediamonds.svg	4	yes	57	0	411
6.6.1	win	2022-12-14	22:00:31	22:10:12	580447	6091ebb375f9f6e9e1acaef8	908835313	1	practice_slash	5	practice_slash	31	stimuli_target_diamondsquares.svg	stimuli_distractor_trianglediamonds.svg	6	yes	0	0	2000
6.6.1	win	2022-12-14	22:00:31	22:10:12	580447	6091ebb375f9f6e9e1acaef8	908835313	1	practice_slash	5	advance_on_keypress_SLASH	32	stimuli_target_diamondsquares.svg	stimuli_distractor_trianglediamonds.svg	6	yes	57	0	8595
6.6.1	win	2022-12-14	22:00:31	22:10:27	594498	6091ebb375f9f6e9e1acaef8	908835313	1	main_slash	7	main_slash	1	stimuli_target_circlediamonds.svg	stimuli_distractor_diamondtriangles.svg	6	yes	53	1	1137
6.6.1	win	2022-12-14	22:00:31	22:10:27	594498	6091ebb375f9f6e9e1acaef8	908835313	1	main_slash	7	advance_on_keypress_SLASH	2	stimuli_target_circlediamonds.svg	stimuli_distractor_diamondtriangles.svg	6	yes	57	0	2528
6.6.1	win	2022-12-14	22:00:31	22:10:31	598811	6091ebb375f9f6e9e1acaef8	908835313	1	main_slash	7	main_slash	3	stimuli_distractor_diamondtriangles.svg	stimuli_target_diamondsquares.svg	32	yes	53	1	1135
6.6.1	win	2022-12-14	22:00:31	22:10:31	598811	6091ebb375f9f6e9e1acaef8	908835313	1	main_slash	7	advance_on_keypress_SLASH	4	stimuli_distractor_diamondtriangles.svg	stimuli_target_diamondsquares.svg	32	yes	57	0	660
6.6.1	win	2022-12-14	22:00:31	22:10:34	602127	6091ebb375f9f6e9e1acaef8	908835313	1	main_slash	7	main_slash	5	stimuli_target_trianglecircles.svg	stimuli_distractor_trianglediamonds.svg	17	yes	0	0	2000
6.6.1	win	2022-12-14	22:00:31	22:10:34	602127	6091ebb375f9f6e9e1acaef8	908835313	1	main_slash	7	advance_on_keypress_SLASH	6	stimuli_target_trianglecircles.svg	stimuli_distractor_trianglediamonds.svg	17	yes	57	0	440
6.6.1	win	2022-12-14	22:00:31	22:10:37	605210	6091ebb375f9f6e9e1acaef8	908835313	1	main_slash	7	main_slash	7	stimuli_target_diamondcircles.svg	stimuli_distractor_diamondtriangles.svg	23	yes	0	0	2000
6.6.1	win	2022-12-14	22:00:31	22:10:37	605210	6091ebb375f9f6e9e1acaef8	908835313	1	main_slash	7	advance_on_keypress_SLASH	8	stimuli_target_diamondcircles.svg	stimuli_distractor_diamondtriangles.svg	23	yes	57	0	347
6.6.1	win	2022-12-14	22:00:31	22:10:39	607068	6091ebb375f9f6e9e1acaef8	908835313	1	main_slash	7	main_slash	9	stimuli_distractor_diamondtriangles.svg	stimuli_target_squarediamonds.svg	16	yes	53	1	858
6.6.1	win	2022-12-14	22:00:31	22:10:39	607068	6091ebb375f9f6e9e1acaef8	908835313	1	main_slash	7	advance_on_keypress_SLASH	10	stimuli_distractor_diamondtriangles.svg	stimuli_target_squarediamonds.svg	16	yes	57	0	506
6.6.1	win	2022-12-14	22:00:31	22:10:41	609088	6091ebb375f9f6e9e1acaef8	908835313	1	main_slash	7	main_slash	11	stimuli_distractor_trianglediamonds.svg	stimuli_target_diamondcircles.svg	27	yes	53	1	878
6.6.1	win	2022-12-14	22:00:31	22:10:41	609088	6091ebb375f9f6e9e1acaef8	908835313	1	main_slash	7	advance_on_keypress_SLASH	12	stimuli_distractor_trianglediamonds.svg	stimuli_target_diamondcircles.svg	27	yes	57	0	414
6.6.1	win	2022-12-14	22:00:31	22:10:43	611029	6091ebb375f9f6e9e1acaef8	908835313	1	main_slash	7	main_slash	13	stimuli_target_squaretriangles.svg	stimuli_distractor_diamondtriangles.svg	7	yes	53	1	869
6.6.1	win	2022-12-14	22:00:31	22:10:43	611029	6091ebb375f9f6e9e1acaef8	908835313	1	main_slash	7	advance_on_keypress_SLASH	14	stimuli_target_squaretriangles.svg	stimuli_distractor_diamondtriangles.svg	7	yes	57	0	415
6.6.1	win	2022-12-14	22:00:31	22:10:46	614093	6091ebb375f9f6e9e1acaef8	908835313	1	main_slash	7	main_slash	15	stimuli_distractor_trianglediamonds.svg	stimuli_distractor_diamondtriangles.svg	36	no	0	1	2000
6.6.1	win	2022-12-14	22:00:31	22:10:46	614093	6091ebb375f9f6e9e1acaef8	908835313	1	main_slash	7	advance_on_keypress_SLASH	16	stimuli_distractor_trianglediamonds.svg	stimuli_distractor_diamondtriangles.svg	36	no	57	0	368
6.6.1	win	2022-12-14	22:00:31	22:10:48	615876	6091ebb375f9f6e9e1acaef8	908835313	1	main_slash	7	main_slash	17	stimuli_target_squaretriangles.svg	stimuli_distractor_trianglediamonds.svg	3	yes	53	1	767
6.6.1	win	2022-12-14	22:00:31	22:10:48	615876	6091ebb375f9f6e9e1acaef8	908835313	1	main_slash	7	advance_on_keypress_SLASH	18	stimuli_target_squaretriangles.svg	stimuli_distractor_trianglediamonds.svg	3	yes	57	0	344
6.6.1	win	2022-12-14	22:00:31	22:10:50	617689	6091ebb375f9f6e9e1acaef8	908835313	1	main_slash	7	main_slash	19	stimuli_target_circletriangles.svg	stimuli_distractor_trianglediamonds.svg	1	yes	53	1	813
6.6.1	win	2022-12-14	22:00:31	22:10:50	617689	6091ebb375f9f6e9e1acaef8	908835313	1	main_slash	7	advance_on_keypress_SLASH	20	stimuli_target_circletriangles.svg	stimuli_distractor_trianglediamonds.svg	1	yes	57	0	341
6.6.1	win	2022-12-14	22:00:31	22:10:53	620676	6091ebb375f9f6e9e1acaef8	908835313	1	main_slash	7	main_slash	21	stimuli_distractor_trianglediamonds.svg	stimuli_distractor_trianglediamonds.svg	34	no	0	1	2000
6.6.1	win	2022-12-14	22:00:31	22:10:53	620676	6091ebb375f9f6e9e1acaef8	908835313	1	main_slash	7	advance_on_keypress_SLASH	22	stimuli_distractor_trianglediamonds.svg	stimuli_distractor_trianglediamonds.svg	34	no	57	0	511
6.6.1	win	2022-12-14	22:00:31	22:10:56	623843	6091ebb375f9f6e9e1acaef8	908835313	1	main_slash	7	main_slash	23	stimuli_distractor_trianglediamonds.svg	stimuli_distractor_trianglediamonds.svg	33	no	0	1	2000
6.6.1	win	2022-12-14	22:00:31	22:10:56	623843	6091ebb375f9f6e9e1acaef8	908835313	1	main_slash	7	advance_on_keypress_SLASH	24	stimuli_distractor_trianglediamonds.svg	stimuli_distractor_trianglediamonds.svg	33	no	57	0	359
6.6.1	win	2022-12-14	22:00:31	22:10:58	625664	6091ebb375f9f6e9e1acaef8	908835313	1	main_slash	7	main_slash	25	stimuli_target_circletriangles.svg	stimuli_distractor_diamondtriangles.svg	5	yes	53	1	804
6.6.1	win	2022-12-14	22:00:31	22:10:58	625664	6091ebb375f9f6e9e1acaef8	908835313	1	main_slash	7	advance_on_keypress_SLASH	26	stimuli_target_circletriangles.svg	stimuli_distractor_diamondtriangles.svg	5	yes	57	0	303
6.6.1	win	2022-12-14	22:00:31	22:10:59	627419	6091ebb375f9f6e9e1acaef8	908835313	1	main_slash	7	main_slash	27	stimuli_distractor_trianglediamonds.svg	stimuli_target_circletriangles.svg	9	yes	53	1	809
6.6.1	win	2022-12-14	22:00:31	22:10:59	627419	6091ebb375f9f6e9e1acaef8	908835313	1	main_slash	7	advance_on_keypress_SLASH	28	stimuli_distractor_trianglediamonds.svg	stimuli_target_circletriangles.svg	9	yes	57	0	355
6.6.1	win	2022-12-14	22:00:31	22:11:01	629203	6091ebb375f9f6e9e1acaef8	908835313	1	main_slash	7	main_slash	29	stimuli_target_trianglesquares.svg	stimuli_distractor_diamondtriangles.svg	22	yes	53	1	794
6.6.1	win	2022-12-14	22:00:31	22:11:01	629203	6091ebb375f9f6e9e1acaef8	908835313	1	main_slash	7	advance_on_keypress_SLASH	30	stimuli_target_trianglesquares.svg	stimuli_distractor_diamondtriangles.svg	22	yes	57	0	354
6.6.1	win	2022-12-14	22:00:31	22:11:03	631040	6091ebb375f9f6e9e1acaef8	908835313	1	main_slash	7	main_slash	31	stimuli_distractor_diamondtriangles.svg	stimuli_target_trianglesquares.svg	30	yes	53	1	846
6.6.1	win	2022-12-14	22:00:31	22:11:03	631040	6091ebb375f9f6e9e1acaef8	908835313	1	main_slash	7	advance_on_keypress_SLASH	32	stimuli_distractor_diamondtriangles.svg	stimuli_target_trianglesquares.svg	30	yes	57	0	299
6.6.1	win	2022-12-14	22:00:31	22:11:05	632778	6091ebb375f9f6e9e1acaef8	908835313	1	main_slash	7	main_slash	33	stimuli_distractor_diamondtriangles.svg	stimuli_target_circlediamonds.svg	14	yes	53	1	785
6.6.1	win	2022-12-14	22:00:31	22:11:05	632778	6091ebb375f9f6e9e1acaef8	908835313	1	main_slash	7	advance_on_keypress_SLASH	34	stimuli_distractor_diamondtriangles.svg	stimuli_target_circlediamonds.svg	14	yes	57	0	283
6.6.1	win	2022-12-14	22:00:31	22:11:07	634545	6091ebb375f9f6e9e1acaef8	908835313	1	main_slash	7	main_slash	35	stimuli_distractor_diamondtriangles.svg	stimuli_target_diamondcircles.svg	31	yes	53	1	836
6.6.1	win	2022-12-14	22:00:31	22:11:07	634545	6091ebb375f9f6e9e1acaef8	908835313	1	main_slash	7	advance_on_keypress_SLASH	36	stimuli_distractor_diamondtriangles.svg	stimuli_target_diamondcircles.svg	31	yes	57	0	300
6.6.1	win	2022-12-14	22:00:31	22:11:08	636447	6091ebb375f9f6e9e1acaef8	908835313	1	main_slash	7	main_slash	37	stimuli_target_diamondsquares.svg	stimuli_distractor_diamondtriangles.svg	24	yes	53	1	953
6.6.1	win	2022-12-14	22:00:31	22:11:08	636447	6091ebb375f9f6e9e1acaef8	908835313	1	main_slash	7	advance_on_keypress_SLASH	38	stimuli_target_diamondsquares.svg	stimuli_distractor_diamondtriangles.svg	24	yes	57	0	380
6.6.1	win	2022-12-14	22:00:31	22:11:11	638648	6091ebb375f9f6e9e1acaef8	908835313	1	main_slash	7	main_slash	39	stimuli_distractor_trianglediamonds.svg	stimuli_target_squarediamonds.svg	12	yes	53	1	1172
6.6.1	win	2022-12-14	22:00:31	22:11:11	638648	6091ebb375f9f6e9e1acaef8	908835313	1	main_slash	7	advance_on_keypress_SLASH	40	stimuli_distractor_trianglediamonds.svg	stimuli_target_squarediamonds.svg	12	yes	57	0	382
6.6.1	win	2022-12-14	22:00:31	22:11:14	641675	6091ebb375f9f6e9e1acaef8	908835313	1	main_slash	7	main_slash	41	stimuli_distractor_diamondtriangles.svg	stimuli_distractor_diamondtriangles.svg	39	no	0	1	2000
6.6.1	win	2022-12-14	22:00:31	22:11:14	641675	6091ebb375f9f6e9e1acaef8	908835313	1	main_slash	7	advance_on_keypress_SLASH	42	stimuli_distractor_diamondtriangles.svg	stimuli_distractor_diamondtriangles.svg	39	no	57	0	671
6.6.1	win	2022-12-14	22:00:31	22:11:17	644992	6091ebb375f9f6e9e1acaef8	908835313	1	main_slash	7	main_slash	43	stimuli_target_trianglecircles.svg	stimuli_distractor_diamondtriangles.svg	21	yes	0	0	2000
6.6.1	win	2022-12-14	22:00:31	22:11:17	644992	6091ebb375f9f6e9e1acaef8	908835313	1	main_slash	7	advance_on_keypress_SLASH	44	stimuli_target_trianglecircles.svg	stimuli_distractor_diamondtriangles.svg	21	yes	57	0	755
6.6.1	win	2022-12-14	22:00:31	22:11:19	647101	6091ebb375f9f6e9e1acaef8	908835313	1	main_slash	7	main_slash	45	stimuli_distractor_diamondtriangles.svg	stimuli_target_circletriangles.svg	13	yes	53	1	708
6.6.1	win	2022-12-14	22:00:31	22:11:19	647101	6091ebb375f9f6e9e1acaef8	908835313	1	main_slash	7	advance_on_keypress_SLASH	46	stimuli_distractor_diamondtriangles.svg	stimuli_target_circletriangles.svg	13	yes	57	0	327
6.6.1	win	2022-12-14	22:00:31	22:11:21	648948	6091ebb375f9f6e9e1acaef8	908835313	1	main_slash	7	main_slash	47	stimuli_distractor_trianglediamonds.svg	stimuli_target_diamondsquares.svg	28	yes	53	1	872
6.6.1	win	2022-12-14	22:00:31	22:11:21	648948	6091ebb375f9f6e9e1acaef8	908835313	1	main_slash	7	advance_on_keypress_SLASH	48	stimuli_distractor_trianglediamonds.svg	stimuli_target_diamondsquares.svg	28	yes	57	0	369
6.6.1	win	2022-12-14	22:00:31	22:11:23	650724	6091ebb375f9f6e9e1acaef8	908835313	1	main_slash	7	main_slash	49	stimuli_target_circlediamonds.svg	stimuli_distractor_trianglediamonds.svg	2	yes	53	1	765
6.6.1	win	2022-12-14	22:00:31	22:11:23	650724	6091ebb375f9f6e9e1acaef8	908835313	1	main_slash	7	advance_on_keypress_SLASH	50	stimuli_target_circlediamonds.svg	stimuli_distractor_trianglediamonds.svg	2	yes	57	0	265
6.6.1	win	2022-12-14	22:00:31	22:11:24	652354	6091ebb375f9f6e9e1acaef8	908835313	1	main_slash	7	main_slash	51	stimuli_target_squarediamonds.svg	stimuli_distractor_diamondtriangles.svg	8	yes	53	1	711
6.6.1	win	2022-12-14	22:00:31	22:11:24	652354	6091ebb375f9f6e9e1acaef8	908835313	1	main_slash	7	advance_on_keypress_SLASH	52	stimuli_target_squarediamonds.svg	stimuli_distractor_diamondtriangles.svg	8	yes	57	0	403
6.6.1	win	2022-12-14	22:00:31	22:11:26	654109	6091ebb375f9f6e9e1acaef8	908835313	1	main_slash	7	main_slash	53	stimuli_target_squarediamonds.svg	stimuli_distractor_trianglediamonds.svg	4	yes	53	1	699
6.6.1	win	2022-12-14	22:00:31	22:11:26	654109	6091ebb375f9f6e9e1acaef8	908835313	1	main_slash	7	advance_on_keypress_SLASH	54	stimuli_target_squarediamonds.svg	stimuli_distractor_trianglediamonds.svg	4	yes	57	0	302
6.6.1	win	2022-12-14	22:00:31	22:11:28	655778	6091ebb375f9f6e9e1acaef8	908835313	1	main_slash	7	main_slash	55	stimuli_distractor_trianglediamonds.svg	stimuli_target_squaretriangles.svg	11	yes	53	1	719
6.6.1	win	2022-12-14	22:00:31	22:11:28	655778	6091ebb375f9f6e9e1acaef8	908835313	1	main_slash	7	advance_on_keypress_SLASH	56	stimuli_distractor_trianglediamonds.svg	stimuli_target_squaretriangles.svg	11	yes	57	0	317
6.6.1	win	2022-12-14	22:00:31	22:11:31	658743	6091ebb375f9f6e9e1acaef8	908835313	1	main_slash	7	main_slash	57	stimuli_distractor_diamondtriangles.svg	stimuli_distractor_trianglediamonds.svg	38	no	0	1	2000
6.6.1	win	2022-12-14	22:00:31	22:11:31	658743	6091ebb375f9f6e9e1acaef8	908835313	1	main_slash	7	advance_on_keypress_SLASH	58	stimuli_distractor_diamondtriangles.svg	stimuli_distractor_trianglediamonds.svg	38	no	57	0	459
6.6.1	win	2022-12-14	22:00:31	22:11:33	660545	6091ebb375f9f6e9e1acaef8	908835313	1	main_slash	7	main_slash	59	stimuli_distractor_trianglediamonds.svg	stimuli_target_circlediamonds.svg	10	yes	53	1	702
6.6.1	win	2022-12-14	22:00:31	22:11:33	660545	6091ebb375f9f6e9e1acaef8	908835313	1	main_slash	7	advance_on_keypress_SLASH	60	stimuli_distractor_trianglediamonds.svg	stimuli_target_circlediamonds.svg	10	yes	57	0	284
6.6.1	win	2022-12-14	22:00:31	22:11:36	663476	6091ebb375f9f6e9e1acaef8	908835313	1	main_slash	7	main_slash	61	stimuli_distractor_diamondtriangles.svg	stimuli_distractor_trianglediamonds.svg	37	no	0	1	2000
6.6.1	win	2022-12-14	22:00:31	22:11:36	663476	6091ebb375f9f6e9e1acaef8	908835313	1	main_slash	7	advance_on_keypress_SLASH	62	stimuli_distractor_diamondtriangles.svg	stimuli_distractor_trianglediamonds.svg	37	no	57	0	315
6.6.1	win	2022-12-14	22:00:31	22:11:38	666443	6091ebb375f9f6e9e1acaef8	908835313	1	main_slash	7	main_slash	63	stimuli_target_diamondcircles.svg	stimuli_distractor_trianglediamonds.svg	19	yes	0	0	2000
6.6.1	win	2022-12-14	22:00:31	22:11:38	666443	6091ebb375f9f6e9e1acaef8	908835313	1	main_slash	7	advance_on_keypress_SLASH	64	stimuli_target_diamondcircles.svg	stimuli_distractor_trianglediamonds.svg	19	yes	57	0	402
6.6.1	win	2022-12-14	22:00:31	22:11:41	668451	6091ebb375f9f6e9e1acaef8	908835313	1	main_slash	7	main_slash	65	stimuli_distractor_trianglediamonds.svg	stimuli_target_trianglecircles.svg	25	yes	53	1	959
6.6.1	win	2022-12-14	22:00:31	22:11:41	668451	6091ebb375f9f6e9e1acaef8	908835313	1	main_slash	7	advance_on_keypress_SLASH	66	stimuli_distractor_trianglediamonds.svg	stimuli_target_trianglecircles.svg	25	yes	57	0	444
6.6.1	win	2022-12-14	22:00:31	22:11:44	671543	6091ebb375f9f6e9e1acaef8	908835313	1	main_slash	7	main_slash	67	stimuli_distractor_diamondtriangles.svg	stimuli_distractor_diamondtriangles.svg	40	no	0	1	2000
6.6.1	win	2022-12-14	22:00:31	22:11:44	671543	6091ebb375f9f6e9e1acaef8	908835313	1	main_slash	7	advance_on_keypress_SLASH	68	stimuli_distractor_diamondtriangles.svg	stimuli_distractor_diamondtriangles.svg	40	no	57	0	369
6.6.1	win	2022-12-14	22:00:31	22:11:46	673462	6091ebb375f9f6e9e1acaef8	908835313	1	main_slash	7	main_slash	69	stimuli_distractor_trianglediamonds.svg	stimuli_target_trianglesquares.svg	26	yes	53	1	902
6.6.1	win	2022-12-14	22:00:31	22:11:46	673462	6091ebb375f9f6e9e1acaef8	908835313	1	main_slash	7	advance_on_keypress_SLASH	70	stimuli_distractor_trianglediamonds.svg	stimuli_target_trianglesquares.svg	26	yes	57	0	425
6.6.1	win	2022-12-14	22:00:31	22:11:47	675444	6091ebb375f9f6e9e1acaef8	908835313	1	main_slash	7	main_slash	71	stimuli_target_trianglesquares.svg	stimuli_distractor_trianglediamonds.svg	18	yes	53	1	917
6.6.1	win	2022-12-14	22:00:31	22:11:47	675444	6091ebb375f9f6e9e1acaef8	908835313	1	main_slash	7	advance_on_keypress_SLASH	72	stimuli_target_trianglesquares.svg	stimuli_distractor_trianglediamonds.svg	18	yes	57	0	440
6.6.1	win	2022-12-14	22:00:31	22:11:51	678526	6091ebb375f9f6e9e1acaef8	908835313	1	main_slash	7	main_slash	73	stimuli_distractor_trianglediamonds.svg	stimuli_distractor_diamondtriangles.svg	35	no	0	1	2000
6.6.1	win	2022-12-14	22:00:31	22:11:51	678526	6091ebb375f9f6e9e1acaef8	908835313	1	main_slash	7	advance_on_keypress_SLASH	74	stimuli_distractor_trianglediamonds.svg	stimuli_distractor_diamondtriangles.svg	35	no	57	0	604
6.6.1	win	2022-12-14	22:00:31	22:11:54	681776	6091ebb375f9f6e9e1acaef8	908835313	1	main_slash	7	main_slash	75	stimuli_target_diamondsquares.svg	stimuli_distractor_trianglediamonds.svg	20	yes	0	0	2000
6.6.1	win	2022-12-14	22:00:31	22:11:54	681776	6091ebb375f9f6e9e1acaef8	908835313	1	main_slash	7	advance_on_keypress_SLASH	76	stimuli_target_diamondsquares.svg	stimuli_distractor_trianglediamonds.svg	20	yes	57	0	516
6.6.1	win	2022-12-14	22:00:31	22:11:56	683779	6091ebb375f9f6e9e1acaef8	908835313	1	main_slash	7	main_slash	77	stimuli_distractor_diamondtriangles.svg	stimuli_target_squaretriangles.svg	15	yes	53	1	837
6.6.1	win	2022-12-14	22:00:31	22:11:56	683779	6091ebb375f9f6e9e1acaef8	908835313	1	main_slash	7	advance_on_keypress_SLASH	78	stimuli_distractor_diamondtriangles.svg	stimuli_target_squaretriangles.svg	15	yes	57	0	442
6.6.1	win	2022-12-14	22:00:31	22:11:58	685844	6091ebb375f9f6e9e1acaef8	908835313	1	main_slash	7	main_slash	79	stimuli_distractor_diamondtriangles.svg	stimuli_target_trianglecircles.svg	29	yes	53	1	984
6.6.1	win	2022-12-14	22:00:31	22:11:58	685844	6091ebb375f9f6e9e1acaef8	908835313	1	main_slash	7	advance_on_keypress_SLASH	80	stimuli_distractor_diamondtriangles.svg	stimuli_target_trianglecircles.svg	29	yes	57	0	415
6.6.1	win	2022-12-14	22:00:31	22:12:01	688909	6091ebb375f9f6e9e1acaef8	908835313	1	main_slash	7	main_slash	81	stimuli_distractor_diamondtriangles.svg	stimuli_target_diamondcircles.svg	31	yes	0	0	2000
6.6.1	win	2022-12-14	22:00:31	22:12:01	688909	6091ebb375f9f6e9e1acaef8	908835313	1	main_slash	7	advance_on_keypress_SLASH	82	stimuli_distractor_diamondtriangles.svg	stimuli_target_diamondcircles.svg	31	yes	57	0	1717
6.6.1	win	2022-12-14	22:00:31	22:12:04	692061	6091ebb375f9f6e9e1acaef8	908835313	1	main_slash	7	main_slash	83	stimuli_target_squarediamonds.svg	stimuli_distractor_trianglediamonds.svg	4	yes	53	1	784
6.6.1	win	2022-12-14	22:00:31	22:12:04	692061	6091ebb375f9f6e9e1acaef8	908835313	1	main_slash	7	advance_on_keypress_SLASH	84	stimuli_target_squarediamonds.svg	stimuli_distractor_trianglediamonds.svg	4	yes	57	0	564
6.6.1	win	2022-12-14	22:00:31	22:12:06	693916	6091ebb375f9f6e9e1acaef8	908835313	1	main_slash	7	main_slash	85	stimuli_target_circlediamonds.svg	stimuli_distractor_trianglediamonds.svg	2	yes	53	1	639
6.6.1	win	2022-12-14	22:00:31	22:12:06	693916	6091ebb375f9f6e9e1acaef8	908835313	1	main_slash	7	advance_on_keypress_SLASH	86	stimuli_target_circlediamonds.svg	stimuli_distractor_trianglediamonds.svg	2	yes	57	0	377
6.6.1	win	2022-12-14	22:00:31	22:12:08	695679	6091ebb375f9f6e9e1acaef8	908835313	1	main_slash	7	main_slash	87	stimuli_target_squarediamonds.svg	stimuli_distractor_diamondtriangles.svg	8	yes	53	1	736
6.6.1	win	2022-12-14	22:00:31	22:12:08	695679	6091ebb375f9f6e9e1acaef8	908835313	1	main_slash	7	advance_on_keypress_SLASH	88	stimuli_target_squarediamonds.svg	stimuli_distractor_diamondtriangles.svg	8	yes	57	0	332
6.6.1	win	2022-12-14	22:00:31	22:12:10	697502	6091ebb375f9f6e9e1acaef8	908835313	1	main_slash	7	main_slash	89	stimuli_distractor_diamondtriangles.svg	stimuli_target_squarediamonds.svg	16	yes	53	1	842
6.6.1	win	2022-12-14	22:00:31	22:12:10	697502	6091ebb375f9f6e9e1acaef8	908835313	1	main_slash	7	advance_on_keypress_SLASH	90	stimuli_distractor_diamondtriangles.svg	stimuli_target_squarediamonds.svg	16	yes	57	0	309
6.6.1	win	2022-12-14	22:00:31	22:12:12	699492	6091ebb375f9f6e9e1acaef8	908835313	1	main_slash	7	main_slash	91	stimuli_target_trianglecircles.svg	stimuli_distractor_diamondtriangles.svg	21	yes	53	1	1049
6.6.1	win	2022-12-14	22:00:31	22:12:12	699492	6091ebb375f9f6e9e1acaef8	908835313	1	main_slash	7	advance_on_keypress_SLASH	92	stimuli_target_trianglecircles.svg	stimuli_distractor_diamondtriangles.svg	21	yes	57	0	383
6.6.1	win	2022-12-14	22:00:31	22:12:14	701683	6091ebb375f9f6e9e1acaef8	908835313	1	main_slash	7	main_slash	93	stimuli_target_diamondcircles.svg	stimuli_distractor_diamondtriangles.svg	23	yes	53	1	1158
6.6.1	win	2022-12-14	22:00:31	22:12:14	701683	6091ebb375f9f6e9e1acaef8	908835313	1	main_slash	7	advance_on_keypress_SLASH	94	stimuli_target_diamondcircles.svg	stimuli_distractor_diamondtriangles.svg	23	yes	57	0	335
6.6.1	win	2022-12-14	22:00:31	22:12:17	704658	6091ebb375f9f6e9e1acaef8	908835313	1	main_slash	7	main_slash	95	stimuli_distractor_diamondtriangles.svg	stimuli_distractor_trianglediamonds.svg	37	no	0	1	2000
6.6.1	win	2022-12-14	22:00:31	22:12:17	704658	6091ebb375f9f6e9e1acaef8	908835313	1	main_slash	7	advance_on_keypress_SLASH	96	stimuli_distractor_diamondtriangles.svg	stimuli_distractor_trianglediamonds.svg	37	no	57	0	357
6.6.1	win	2022-12-14	22:00:31	22:12:19	706469	6091ebb375f9f6e9e1acaef8	908835313	1	main_slash	7	main_slash	97	stimuli_target_squaretriangles.svg	stimuli_distractor_trianglediamonds.svg	3	yes	53	1	811
6.6.1	win	2022-12-14	22:00:31	22:12:19	706469	6091ebb375f9f6e9e1acaef8	908835313	1	main_slash	7	advance_on_keypress_SLASH	98	stimuli_target_squaretriangles.svg	stimuli_distractor_trianglediamonds.svg	3	yes	57	0	279
6.6.1	win	2022-12-14	22:00:31	22:12:21	709409	6091ebb375f9f6e9e1acaef8	908835313	1	main_slash	7	main_slash	99	stimuli_distractor_diamondtriangles.svg	stimuli_distractor_diamondtriangles.svg	40	no	0	1	2000
6.6.1	win	2022-12-14	22:00:31	22:12:21	709409	6091ebb375f9f6e9e1acaef8	908835313	1	main_slash	7	advance_on_keypress_SLASH	100	stimuli_distractor_diamondtriangles.svg	stimuli_distractor_diamondtriangles.svg	40	no	57	0	422
6.6.1	win	2022-12-14	22:00:31	22:12:23	711361	6091ebb375f9f6e9e1acaef8	908835313	1	main_slash	7	main_slash	101	stimuli_distractor_diamondtriangles.svg	stimuli_target_trianglesquares.svg	30	yes	53	1	885
6.6.1	win	2022-12-14	22:00:31	22:12:23	711361	6091ebb375f9f6e9e1acaef8	908835313	1	main_slash	7	advance_on_keypress_SLASH	102	stimuli_distractor_diamondtriangles.svg	stimuli_target_trianglesquares.svg	30	yes	57	0	4698
6.6.1	win	2022-12-14	22:00:31	22:12:30	717573	6091ebb375f9f6e9e1acaef8	908835313	1	main_slash	7	main_slash	103	stimuli_distractor_trianglediamonds.svg	stimuli_target_trianglecircles.svg	25	yes	53	1	863
6.6.1	win	2022-12-14	22:00:31	22:12:30	717573	6091ebb375f9f6e9e1acaef8	908835313	1	main_slash	7	advance_on_keypress_SLASH	104	stimuli_distractor_trianglediamonds.svg	stimuli_target_trianglecircles.svg	25	yes	57	0	326
6.6.1	win	2022-12-14	22:00:31	22:12:31	719397	6091ebb375f9f6e9e1acaef8	908835313	1	main_slash	7	main_slash	105	stimuli_target_trianglecircles.svg	stimuli_distractor_trianglediamonds.svg	17	yes	53	1	837
6.6.1	win	2022-12-14	22:00:31	22:12:31	719397	6091ebb375f9f6e9e1acaef8	908835313	1	main_slash	7	advance_on_keypress_SLASH	106	stimuli_target_trianglecircles.svg	stimuli_distractor_trianglediamonds.svg	17	yes	57	0	276
6.6.1	win	2022-12-14	22:00:31	22:12:33	721093	6091ebb375f9f6e9e1acaef8	908835313	1	main_slash	7	main_slash	107	stimuli_distractor_trianglediamonds.svg	stimuli_target_circletriangles.svg	9	yes	53	1	768
6.6.1	win	2022-12-14	22:00:31	22:12:33	721093	6091ebb375f9f6e9e1acaef8	908835313	1	main_slash	7	advance_on_keypress_SLASH	108	stimuli_distractor_trianglediamonds.svg	stimuli_target_circletriangles.svg	9	yes	57	0	242
6.6.1	win	2022-12-14	22:00:31	22:12:36	723976	6091ebb375f9f6e9e1acaef8	908835313	1	main_slash	7	main_slash	109	stimuli_distractor_trianglediamonds.svg	stimuli_distractor_diamondtriangles.svg	35	no	0	1	2000
6.6.1	win	2022-12-14	22:00:31	22:12:36	723976	6091ebb375f9f6e9e1acaef8	908835313	1	main_slash	7	advance_on_keypress_SLASH	110	stimuli_distractor_trianglediamonds.svg	stimuli_distractor_diamondtriangles.svg	35	no	57	0	512
6.6.1	win	2022-12-14	22:00:31	22:12:38	725788	6091ebb375f9f6e9e1acaef8	908835313	1	main_slash	7	main_slash	111	stimuli_distractor_diamondtriangles.svg	stimuli_target_circletriangles.svg	13	yes	53	1	645
6.6.1	win	2022-12-14	22:00:31	22:12:38	725788	6091ebb375f9f6e9e1acaef8	908835313	1	main_slash	7	advance_on_keypress_SLASH	112	stimuli_distractor_diamondtriangles.svg	stimuli_target_circletriangles.svg	13	yes	57	0	329
6.6.1	win	2022-12-14	22:00:31	22:12:40	727487	6091ebb375f9f6e9e1acaef8	908835313	1	main_slash	7	main_slash	113	stimuli_distractor_diamondtriangles.svg	stimuli_target_trianglecircles.svg	29	yes	53	1	712
6.6.1	win	2022-12-14	22:00:31	22:12:40	727487	6091ebb375f9f6e9e1acaef8	908835313	1	main_slash	7	advance_on_keypress_SLASH	114	stimuli_distractor_diamondtriangles.svg	stimuli_target_trianglecircles.svg	29	yes	57	0	281
6.6.1	win	2022-12-14	22:00:31	22:12:41	729439	6091ebb375f9f6e9e1acaef8	908835313	1	main_slash	7	main_slash	115	stimuli_distractor_trianglediamonds.svg	stimuli_target_diamondsquares.svg	28	yes	53	1	1013
6.6.1	win	2022-12-14	22:00:31	22:12:41	729439	6091ebb375f9f6e9e1acaef8	908835313	1	main_slash	7	advance_on_keypress_SLASH	116	stimuli_distractor_trianglediamonds.svg	stimuli_target_diamondsquares.svg	28	yes	57	0	1374
6.6.1	win	2022-12-14	22:00:31	22:12:44	732200	6091ebb375f9f6e9e1acaef8	908835313	1	main_slash	7	main_slash	117	stimuli_target_circlediamonds.svg	stimuli_distractor_diamondtriangles.svg	6	yes	53	1	741
6.6.1	win	2022-12-14	22:00:31	22:12:44	732200	6091ebb375f9f6e9e1acaef8	908835313	1	main_slash	7	advance_on_keypress_SLASH	118	stimuli_target_circlediamonds.svg	stimuli_distractor_diamondtriangles.svg	6	yes	57	0	346
6.6.1	win	2022-12-14	22:00:31	22:12:46	733978	6091ebb375f9f6e9e1acaef8	908835313	1	main_slash	7	main_slash	119	stimuli_distractor_trianglediamonds.svg	stimuli_target_squarediamonds.svg	12	yes	53	1	786
6.6.1	win	2022-12-14	22:00:31	22:12:46	733978	6091ebb375f9f6e9e1acaef8	908835313	1	main_slash	7	advance_on_keypress_SLASH	120	stimuli_distractor_trianglediamonds.svg	stimuli_target_squarediamonds.svg	12	yes	57	0	280
6.6.1	win	2022-12-14	22:00:31	22:12:49	736909	6091ebb375f9f6e9e1acaef8	908835313	1	main_slash	7	main_slash	121	stimuli_distractor_diamondtriangles.svg	stimuli_distractor_diamondtriangles.svg	39	no	0	1	2000
6.6.1	win	2022-12-14	22:00:31	22:12:49	736909	6091ebb375f9f6e9e1acaef8	908835313	1	main_slash	7	advance_on_keypress_SLASH	122	stimuli_distractor_diamondtriangles.svg	stimuli_distractor_diamondtriangles.svg	39	no	57	0	563
6.6.1	win	2022-12-14	22:00:31	22:12:51	738919	6091ebb375f9f6e9e1acaef8	908835313	1	main_slash	7	main_slash	123	stimuli_distractor_diamondtriangles.svg	stimuli_target_diamondsquares.svg	32	yes	53	1	793
6.6.1	win	2022-12-14	22:00:31	22:12:51	738919	6091ebb375f9f6e9e1acaef8	908835313	1	main_slash	7	advance_on_keypress_SLASH	124	stimuli_distractor_diamondtriangles.svg	stimuli_target_diamondsquares.svg	32	yes	57	0	357
6.6.1	win	2022-12-14	22:00:31	22:12:53	740729	6091ebb375f9f6e9e1acaef8	908835313	1	main_slash	7	main_slash	125	stimuli_distractor_diamondtriangles.svg	stimuli_target_squaretriangles.svg	15	yes	53	1	820
6.6.1	win	2022-12-14	22:00:31	22:12:53	740729	6091ebb375f9f6e9e1acaef8	908835313	1	main_slash	7	advance_on_keypress_SLASH	126	stimuli_distractor_diamondtriangles.svg	stimuli_target_squaretriangles.svg	15	yes	57	0	331
6.6.1	win	2022-12-14	22:00:31	22:12:55	742507	6091ebb375f9f6e9e1acaef8	908835313	1	main_slash	7	main_slash	127	stimuli_distractor_trianglediamonds.svg	stimuli_target_squaretriangles.svg	11	yes	53	1	798
6.6.1	win	2022-12-14	22:00:31	22:12:55	742507	6091ebb375f9f6e9e1acaef8	908835313	1	main_slash	7	advance_on_keypress_SLASH	128	stimuli_distractor_trianglediamonds.svg	stimuli_target_squaretriangles.svg	11	yes	57	0	313
6.6.1	win	2022-12-14	22:00:31	22:12:56	744220	6091ebb375f9f6e9e1acaef8	908835313	1	main_slash	7	main_slash	129	stimuli_target_circletriangles.svg	stimuli_distractor_trianglediamonds.svg	1	yes	53	1	744
6.6.1	win	2022-12-14	22:00:31	22:12:56	744220	6091ebb375f9f6e9e1acaef8	908835313	1	main_slash	7	advance_on_keypress_SLASH	130	stimuli_target_circletriangles.svg	stimuli_distractor_trianglediamonds.svg	1	yes	57	0	315
6.6.1	win	2022-12-14	22:00:31	22:12:58	745918	6091ebb375f9f6e9e1acaef8	908835313	1	main_slash	7	main_slash	131	stimuli_target_circletriangles.svg	stimuli_distractor_diamondtriangles.svg	5	yes	53	1	725
6.6.1	win	2022-12-14	22:00:31	22:12:58	745918	6091ebb375f9f6e9e1acaef8	908835313	1	main_slash	7	advance_on_keypress_SLASH	132	stimuli_target_circletriangles.svg	stimuli_distractor_diamondtriangles.svg	5	yes	57	0	3947
6.6.1	win	2022-12-14	22:00:31	22:13:03	751179	6091ebb375f9f6e9e1acaef8	908835313	1	main_slash	7	main_slash	133	stimuli_distractor_diamondtriangles.svg	stimuli_target_circlediamonds.svg	14	yes	53	1	669
6.6.1	win	2022-12-14	22:00:31	22:13:03	751179	6091ebb375f9f6e9e1acaef8	908835313	1	main_slash	7	advance_on_keypress_SLASH	134	stimuli_distractor_diamondtriangles.svg	stimuli_target_circlediamonds.svg	14	yes	57	0	386
6.6.1	win	2022-12-14	22:00:31	22:13:06	754209	6091ebb375f9f6e9e1acaef8	908835313	1	main_slash	7	main_slash	135	stimuli_distractor_trianglediamonds.svg	stimuli_distractor_trianglediamonds.svg	33	no	0	1	2000
6.6.1	win	2022-12-14	22:00:31	22:13:06	754209	6091ebb375f9f6e9e1acaef8	908835313	1	main_slash	7	advance_on_keypress_SLASH	136	stimuli_distractor_trianglediamonds.svg	stimuli_distractor_trianglediamonds.svg	33	no	57	0	370
6.6.1	win	2022-12-14	22:00:31	22:13:08	755956	6091ebb375f9f6e9e1acaef8	908835313	1	main_slash	7	main_slash	137	stimuli_distractor_trianglediamonds.svg	stimuli_target_trianglesquares.svg	26	yes	53	1	730
6.6.1	win	2022-12-14	22:00:31	22:13:08	755956	6091ebb375f9f6e9e1acaef8	908835313	1	main_slash	7	advance_on_keypress_SLASH	138	stimuli_distractor_trianglediamonds.svg	stimuli_target_trianglesquares.svg	26	yes	57	0	298
6.6.1	win	2022-12-14	22:00:31	22:13:11	758533	6091ebb375f9f6e9e1acaef8	908835313	1	main_slash	7	main_slash	139	stimuli_target_diamondsquares.svg	stimuli_distractor_trianglediamonds.svg	20	yes	53	1	1624
6.6.1	win	2022-12-14	22:00:31	22:13:11	758533	6091ebb375f9f6e9e1acaef8	908835313	1	main_slash	7	advance_on_keypress_SLASH	140	stimuli_target_diamondsquares.svg	stimuli_distractor_trianglediamonds.svg	20	yes	57	0	783
6.6.1	win	2022-12-14	22:00:31	22:13:13	760783	6091ebb375f9f6e9e1acaef8	908835313	1	main_slash	7	main_slash	141	stimuli_target_diamondsquares.svg	stimuli_distractor_diamondtriangles.svg	24	yes	53	1	824
6.6.1	win	2022-12-14	22:00:31	22:13:13	760783	6091ebb375f9f6e9e1acaef8	908835313	1	main_slash	7	advance_on_keypress_SLASH	142	stimuli_target_diamondsquares.svg	stimuli_distractor_diamondtriangles.svg	24	yes	57	0	1465
6.6.1	win	2022-12-14	22:00:31	22:13:16	763672	6091ebb375f9f6e9e1acaef8	908835313	1	main_slash	7	main_slash	143	stimuli_target_diamondcircles.svg	stimuli_distractor_trianglediamonds.svg	19	yes	53	1	781
6.6.1	win	2022-12-14	22:00:31	22:13:16	763672	6091ebb375f9f6e9e1acaef8	908835313	1	main_slash	7	advance_on_keypress_SLASH	144	stimuli_target_diamondcircles.svg	stimuli_distractor_trianglediamonds.svg	19	yes	57	0	230
6.6.1	win	2022-12-14	22:00:31	22:13:17	765390	6091ebb375f9f6e9e1acaef8	908835313	1	main_slash	7	main_slash	145	stimuli_target_trianglesquares.svg	stimuli_distractor_diamondtriangles.svg	22	yes	53	1	831
6.6.1	win	2022-12-14	22:00:31	22:13:17	765390	6091ebb375f9f6e9e1acaef8	908835313	1	main_slash	7	advance_on_keypress_SLASH	146	stimuli_target_trianglesquares.svg	stimuli_distractor_diamondtriangles.svg	22	yes	57	0	346
6.6.1	win	2022-12-14	22:00:31	22:13:20	768392	6091ebb375f9f6e9e1acaef8	908835313	1	main_slash	7	main_slash	147	stimuli_distractor_trianglediamonds.svg	stimuli_distractor_diamondtriangles.svg	36	no	0	1	2000
6.6.1	win	2022-12-14	22:00:31	22:13:20	768392	6091ebb375f9f6e9e1acaef8	908835313	1	main_slash	7	advance_on_keypress_SLASH	148	stimuli_distractor_trianglediamonds.svg	stimuli_distractor_diamondtriangles.svg	36	no	57	0	438
6.6.1	win	2022-12-14	22:00:31	22:13:22	770225	6091ebb375f9f6e9e1acaef8	908835313	1	main_slash	7	main_slash	149	stimuli_distractor_trianglediamonds.svg	stimuli_target_circlediamonds.svg	10	yes	53	1	749
6.6.1	win	2022-12-14	22:00:31	22:13:22	770225	6091ebb375f9f6e9e1acaef8	908835313	1	main_slash	7	advance_on_keypress_SLASH	150	stimuli_distractor_trianglediamonds.svg	stimuli_target_circlediamonds.svg	10	yes	57	0	216
6.6.1	win	2022-12-14	22:00:31	22:13:24	771849	6091ebb375f9f6e9e1acaef8	908835313	1	main_slash	7	main_slash	151	stimuli_distractor_trianglediamonds.svg	stimuli_target_diamondcircles.svg	27	yes	53	1	757
6.6.1	win	2022-12-14	22:00:31	22:13:24	771849	6091ebb375f9f6e9e1acaef8	908835313	1	main_slash	7	advance_on_keypress_SLASH	152	stimuli_distractor_trianglediamonds.svg	stimuli_target_diamondcircles.svg	27	yes	57	0	209
6.6.1	win	2022-12-14	22:00:31	22:13:26	773617	6091ebb375f9f6e9e1acaef8	908835313	1	main_slash	7	main_slash	153	stimuli_target_trianglesquares.svg	stimuli_distractor_trianglediamonds.svg	18	yes	53	1	925
6.6.1	win	2022-12-14	22:00:31	22:13:26	773617	6091ebb375f9f6e9e1acaef8	908835313	1	main_slash	7	advance_on_keypress_SLASH	154	stimuli_target_trianglesquares.svg	stimuli_distractor_trianglediamonds.svg	18	yes	57	0	228
6.6.1	win	2022-12-14	22:00:31	22:13:27	775240	6091ebb375f9f6e9e1acaef8	908835313	1	main_slash	7	main_slash	155	stimuli_target_squaretriangles.svg	stimuli_distractor_diamondtriangles.svg	7	yes	53	1	747
6.6.1	win	2022-12-14	22:00:31	22:13:27	775240	6091ebb375f9f6e9e1acaef8	908835313	1	main_slash	7	advance_on_keypress_SLASH	156	stimuli_target_squaretriangles.svg	stimuli_distractor_diamondtriangles.svg	7	yes	57	0	205
6.6.1	win	2022-12-14	22:00:31	22:13:30	778092	6091ebb375f9f6e9e1acaef8	908835313	1	main_slash	7	main_slash	157	stimuli_distractor_trianglediamonds.svg	stimuli_distractor_trianglediamonds.svg	34	no	0	1	2000
6.6.1	win	2022-12-14	22:00:31	22:13:30	778092	6091ebb375f9f6e9e1acaef8	908835313	1	main_slash	7	advance_on_keypress_SLASH	158	stimuli_distractor_trianglediamonds.svg	stimuli_distractor_trianglediamonds.svg	34	no	57	0	7225
6.6.1	win	2022-12-14	22:00:31	22:13:40	787959	6091ebb375f9f6e9e1acaef8	908835313	1	main_slash	7	main_slash	159	stimuli_distractor_diamondtriangles.svg	stimuli_distractor_trianglediamonds.svg	38	no	0	1	2000
6.6.1	win	2022-12-14	22:00:31	22:13:40	787959	6091ebb375f9f6e9e1acaef8	908835313	1	main_slash	7	advance_on_keypress_SLASH	160	stimuli_distractor_diamondtriangles.svg	stimuli_distractor_trianglediamonds.svg	38	no	57	0	396
6.6.1	win	2022-12-14	22:00:31	22:14:00	807978	6091ebb375f9f6e9e1acaef8	908835313	1	practice_z	9	practice_z	1	stimuli_target_circlediamonds.svg	stimuli_distractor_trianglediamonds.svg	4	yes	44	1	581
6.6.1	win	2022-12-14	22:00:31	22:14:00	807978	6091ebb375f9f6e9e1acaef8	908835313	1	practice_z	9	advance_on_keypress_ZEE	2	stimuli_target_circlediamonds.svg	stimuli_distractor_trianglediamonds.svg	4	yes	57	0	406
6.6.1	win	2022-12-14	22:00:31	22:14:04	812046	6091ebb375f9f6e9e1acaef8	908835313	1	practice_z	9	practice_z	3	stimuli_distractor_trianglediamonds.svg	stimuli_distractor_trianglediamonds.svg	15	no	0	1	2000
6.6.1	win	2022-12-14	22:00:31	22:14:04	812046	6091ebb375f9f6e9e1acaef8	908835313	1	practice_z	9	advance_on_keypress_ZEE	4	stimuli_distractor_trianglediamonds.svg	stimuli_distractor_trianglediamonds.svg	15	no	57	0	371
6.6.1	win	2022-12-14	22:00:31	22:14:07	814574	6091ebb375f9f6e9e1acaef8	908835313	1	practice_z	9	practice_z	5	stimuli_distractor_trianglediamonds.svg	stimuli_target_circlediamonds.svg	10	yes	44	1	509
6.6.1	win	2022-12-14	22:00:31	22:14:07	814574	6091ebb375f9f6e9e1acaef8	908835313	1	practice_z	9	advance_on_keypress_ZEE	6	stimuli_distractor_trianglediamonds.svg	stimuli_target_circlediamonds.svg	10	yes	57	0	396
6.6.1	win	2022-12-14	22:00:31	22:14:11	818629	6091ebb375f9f6e9e1acaef8	908835313	1	practice_z	9	practice_z	7	stimuli_distractor_diamondtriangles.svg	stimuli_distractor_trianglediamonds.svg	14	no	0	1	2000
6.6.1	win	2022-12-14	22:00:31	22:14:11	818629	6091ebb375f9f6e9e1acaef8	908835313	1	practice_z	9	advance_on_keypress_ZEE	8	stimuli_distractor_diamondtriangles.svg	stimuli_distractor_trianglediamonds.svg	14	no	57	0	549
6.6.1	win	2022-12-14	22:00:31	22:14:14	821582	6091ebb375f9f6e9e1acaef8	908835313	1	practice_z	9	practice_z	9	stimuli_target_circlediamonds.svg	stimuli_distractor_diamondtriangles.svg	1	yes	44	1	753
6.6.1	win	2022-12-14	22:00:31	22:14:14	821582	6091ebb375f9f6e9e1acaef8	908835313	1	practice_z	9	advance_on_keypress_ZEE	10	stimuli_target_circlediamonds.svg	stimuli_distractor_diamondtriangles.svg	1	yes	57	0	324
6.6.1	win	2022-12-14	22:00:31	22:14:16	824184	6091ebb375f9f6e9e1acaef8	908835313	1	practice_z	9	practice_z	11	stimuli_target_squarediamonds.svg	stimuli_distractor_diamondtriangles.svg	2	yes	44	1	622
6.6.1	win	2022-12-14	22:00:31	22:14:16	824184	6091ebb375f9f6e9e1acaef8	908835313	1	practice_z	9	advance_on_keypress_ZEE	12	stimuli_target_squarediamonds.svg	stimuli_distractor_diamondtriangles.svg	2	yes	57	0	25
6.6.1	win	2022-12-14	22:00:31	22:14:19	826519	6091ebb375f9f6e9e1acaef8	908835313	1	practice_z	9	practice_z	13	stimuli_distractor_diamondtriangles.svg	stimuli_target_circletriangles.svg	7	yes	44	1	655
6.6.1	win	2022-12-14	22:00:31	22:14:19	826519	6091ebb375f9f6e9e1acaef8	908835313	1	practice_z	9	advance_on_keypress_ZEE	14	stimuli_distractor_diamondtriangles.svg	stimuli_target_circletriangles.svg	7	yes	57	0	369
6.6.1	win	2022-12-14	22:00:31	22:14:23	830544	6091ebb375f9f6e9e1acaef8	908835313	1	practice_z	9	practice_z	15	stimuli_distractor_diamondtriangles.svg	stimuli_distractor_diamondtriangles.svg	13	no	0	1	2000
6.6.1	win	2022-12-14	22:00:31	22:14:23	830544	6091ebb375f9f6e9e1acaef8	908835313	1	practice_z	9	advance_on_keypress_ZEE	16	stimuli_distractor_diamondtriangles.svg	stimuli_distractor_diamondtriangles.svg	13	no	57	0	543
6.6.1	win	2022-12-14	22:00:31	22:14:27	834745	6091ebb375f9f6e9e1acaef8	908835313	1	practice_z	9	practice_z	17	stimuli_distractor_trianglediamonds.svg	stimuli_distractor_diamondtriangles.svg	16	no	0	1	2000
6.6.1	win	2022-12-14	22:00:31	22:14:27	834745	6091ebb375f9f6e9e1acaef8	908835313	1	practice_z	9	advance_on_keypress_ZEE	18	stimuli_distractor_trianglediamonds.svg	stimuli_distractor_diamondtriangles.svg	16	no	57	0	314
6.6.1	win	2022-12-14	22:00:31	22:14:30	837894	6091ebb375f9f6e9e1acaef8	908835313	1	practice_z	9	practice_z	19	stimuli_target_diamondsquares.svg	stimuli_distractor_diamondtriangles.svg	3	yes	44	1	1181
6.6.1	win	2022-12-14	22:00:31	22:14:30	837894	6091ebb375f9f6e9e1acaef8	908835313	1	practice_z	9	advance_on_keypress_ZEE	20	stimuli_target_diamondsquares.svg	stimuli_distractor_diamondtriangles.svg	3	yes	57	0	441
6.6.1	win	2022-12-14	22:00:31	22:14:33	841016	6091ebb375f9f6e9e1acaef8	908835313	1	practice_z	9	practice_z	21	stimuli_distractor_diamondtriangles.svg	stimuli_target_trianglecircles.svg	9	yes	44	1	1020
6.6.1	win	2022-12-14	22:00:31	22:14:33	841016	6091ebb375f9f6e9e1acaef8	908835313	1	practice_z	9	advance_on_keypress_ZEE	22	stimuli_distractor_diamondtriangles.svg	stimuli_target_trianglecircles.svg	9	yes	57	0	122
6.6.1	win	2022-12-14	22:00:31	22:14:36	843885	6091ebb375f9f6e9e1acaef8	908835313	1	practice_z	9	practice_z	23	stimuli_target_diamondsquares.svg	stimuli_distractor_trianglediamonds.svg	6	yes	44	1	1090
6.6.1	win	2022-12-14	22:00:31	22:14:36	843885	6091ebb375f9f6e9e1acaef8	908835313	1	practice_z	9	advance_on_keypress_ZEE	24	stimuli_target_diamondsquares.svg	stimuli_distractor_trianglediamonds.svg	6	yes	57	0	278
6.6.1	win	2022-12-14	22:00:31	22:14:39	846682	6091ebb375f9f6e9e1acaef8	908835313	1	practice_z	9	practice_z	25	stimuli_target_squarediamonds.svg	stimuli_distractor_trianglediamonds.svg	5	yes	44	1	853
6.6.1	win	2022-12-14	22:00:31	22:14:39	846682	6091ebb375f9f6e9e1acaef8	908835313	1	practice_z	9	advance_on_keypress_ZEE	26	stimuli_target_squarediamonds.svg	stimuli_distractor_trianglediamonds.svg	5	yes	57	0	406
6.6.1	win	2022-12-14	22:00:31	22:14:42	849464	6091ebb375f9f6e9e1acaef8	908835313	1	practice_z	9	practice_z	27	stimuli_distractor_diamondtriangles.svg	stimuli_target_diamondcircles.svg	8	yes	44	1	717
6.6.1	win	2022-12-14	22:00:31	22:14:42	849464	6091ebb375f9f6e9e1acaef8	908835313	1	practice_z	9	advance_on_keypress_ZEE	28	stimuli_distractor_diamondtriangles.svg	stimuli_target_diamondcircles.svg	8	yes	57	0	183
6.6.1	win	2022-12-14	22:00:31	22:14:44	852165	6091ebb375f9f6e9e1acaef8	908835313	1	practice_z	9	practice_z	29	stimuli_distractor_trianglediamonds.svg	stimuli_target_diamondcircles.svg	12	yes	44	1	870
6.6.1	win	2022-12-14	22:00:31	22:14:44	852165	6091ebb375f9f6e9e1acaef8	908835313	1	practice_z	9	advance_on_keypress_ZEE	30	stimuli_distractor_trianglediamonds.svg	stimuli_target_diamondcircles.svg	12	yes	57	0	376
6.6.1	win	2022-12-14	22:00:31	22:14:47	854989	6091ebb375f9f6e9e1acaef8	908835313	1	practice_z	9	practice_z	31	stimuli_distractor_trianglediamonds.svg	stimuli_target_squarediamonds.svg	11	yes	44	1	793
6.6.1	win	2022-12-14	22:00:31	22:14:47	854989	6091ebb375f9f6e9e1acaef8	908835313	1	practice_z	9	advance_on_keypress_ZEE	32	stimuli_distractor_trianglediamonds.svg	stimuli_target_squarediamonds.svg	11	yes	57	0	475
6.6.1	win	2022-12-14	22:00:31	22:14:52	859668	6091ebb375f9f6e9e1acaef8	908835313	1	main_z	11	main_z	1	stimuli_target_diamondcircles.svg	stimuli_distractor_diamondtriangles.svg	23	yes	44	1	843
6.6.1	win	2022-12-14	22:00:31	22:14:52	859668	6091ebb375f9f6e9e1acaef8	908835313	1	main_z	11	advance_on_keypress_ZEE	2	stimuli_target_diamondcircles.svg	stimuli_distractor_diamondtriangles.svg	23	yes	57	0	474
6.6.1	win	2022-12-14	22:00:31	22:14:54	861624	6091ebb375f9f6e9e1acaef8	908835313	1	main_z	11	main_z	3	stimuli_target_trianglesquares.svg	stimuli_distractor_diamondtriangles.svg	22	yes	44	1	832
6.6.1	win	2022-12-14	22:00:31	22:14:54	861624	6091ebb375f9f6e9e1acaef8	908835313	1	main_z	11	advance_on_keypress_ZEE	4	stimuli_target_trianglesquares.svg	stimuli_distractor_diamondtriangles.svg	22	yes	57	0	392
6.6.1	win	2022-12-14	22:00:31	22:14:56	863556	6091ebb375f9f6e9e1acaef8	908835313	1	main_z	11	main_z	5	stimuli_target_diamondcircles.svg	stimuli_distractor_trianglediamonds.svg	19	yes	44	1	898
6.6.1	win	2022-12-14	22:00:31	22:14:56	863556	6091ebb375f9f6e9e1acaef8	908835313	1	main_z	11	advance_on_keypress_ZEE	6	stimuli_target_diamondcircles.svg	stimuli_distractor_trianglediamonds.svg	19	yes	57	0	232
6.6.1	win	2022-12-14	22:00:31	22:14:57	865164	6091ebb375f9f6e9e1acaef8	908835313	1	main_z	11	main_z	7	stimuli_target_squaretriangles.svg	stimuli_distractor_diamondtriangles.svg	7	yes	44	1	721
6.6.1	win	2022-12-14	22:00:31	22:14:57	865164	6091ebb375f9f6e9e1acaef8	908835313	1	main_z	11	advance_on_keypress_ZEE	8	stimuli_target_squaretriangles.svg	stimuli_distractor_diamondtriangles.svg	7	yes	57	0	326
6.6.1	win	2022-12-14	22:00:31	22:14:59	866873	6091ebb375f9f6e9e1acaef8	908835313	1	main_z	11	main_z	9	stimuli_distractor_diamondtriangles.svg	stimuli_target_diamondcircles.svg	31	yes	44	1	748
6.6.1	win	2022-12-14	22:00:31	22:14:59	866873	6091ebb375f9f6e9e1acaef8	908835313	1	main_z	11	advance_on_keypress_ZEE	10	stimuli_distractor_diamondtriangles.svg	stimuli_target_diamondcircles.svg	31	yes	57	0	217
6.6.1	win	2022-12-14	22:00:31	22:15:01	868519	6091ebb375f9f6e9e1acaef8	908835313	1	main_z	11	main_z	11	stimuli_distractor_diamondtriangles.svg	stimuli_target_squarediamonds.svg	16	yes	44	1	777
6.6.1	win	2022-12-14	22:00:31	22:15:01	868519	6091ebb375f9f6e9e1acaef8	908835313	1	main_z	11	advance_on_keypress_ZEE	12	stimuli_distractor_diamondtriangles.svg	stimuli_target_squarediamonds.svg	16	yes	57	0	354
6.6.1	win	2022-12-14	22:00:31	22:15:02	870289	6091ebb375f9f6e9e1acaef8	908835313	1	main_z	11	main_z	13	stimuli_target_trianglesquares.svg	stimuli_distractor_trianglediamonds.svg	18	yes	44	1	764
6.6.1	win	2022-12-14	22:00:31	22:15:02	870289	6091ebb375f9f6e9e1acaef8	908835313	1	main_z	11	advance_on_keypress_ZEE	14	stimuli_target_trianglesquares.svg	stimuli_distractor_trianglediamonds.svg	18	yes	57	0	174
6.6.1	win	2022-12-14	22:00:31	22:15:04	872436	6091ebb375f9f6e9e1acaef8	908835313	1	main_z	11	main_z	15	stimuli_target_trianglecircles.svg	stimuli_distractor_diamondtriangles.svg	21	yes	44	1	1328
6.6.1	win	2022-12-14	22:00:31	22:15:04	872436	6091ebb375f9f6e9e1acaef8	908835313	1	main_z	11	advance_on_keypress_ZEE	16	stimuli_target_trianglecircles.svg	stimuli_distractor_diamondtriangles.svg	21	yes	57	0	370
6.6.1	win	2022-12-14	22:00:31	22:15:08	875458	6091ebb375f9f6e9e1acaef8	908835313	1	main_z	11	main_z	17	stimuli_distractor_trianglediamonds.svg	stimuli_distractor_diamondtriangles.svg	35	no	0	1	2000
6.6.1	win	2022-12-14	22:00:31	22:15:08	875458	6091ebb375f9f6e9e1acaef8	908835313	1	main_z	11	advance_on_keypress_ZEE	18	stimuli_distractor_trianglediamonds.svg	stimuli_distractor_diamondtriangles.svg	35	no	57	0	987
6.6.1	win	2022-12-14	22:00:31	22:15:10	877732	6091ebb375f9f6e9e1acaef8	908835313	1	main_z	11	main_z	19	stimuli_target_squaretriangles.svg	stimuli_distractor_trianglediamonds.svg	3	yes	44	1	641
6.6.1	win	2022-12-14	22:00:31	22:15:10	877732	6091ebb375f9f6e9e1acaef8	908835313	1	main_z	11	advance_on_keypress_ZEE	20	stimuli_target_squaretriangles.svg	stimuli_distractor_trianglediamonds.svg	3	yes	57	0	493
6.6.1	win	2022-12-14	22:00:31	22:15:12	879507	6091ebb375f9f6e9e1acaef8	908835313	1	main_z	11	main_z	21	stimuli_target_circlediamonds.svg	stimuli_distractor_diamondtriangles.svg	6	yes	44	1	632
6.6.1	win	2022-12-14	22:00:31	22:15:12	879507	6091ebb375f9f6e9e1acaef8	908835313	1	main_z	11	advance_on_keypress_ZEE	22	stimuli_target_circlediamonds.svg	stimuli_distractor_diamondtriangles.svg	6	yes	57	0	234
6.6.1	win	2022-12-14	22:00:31	22:15:14	881770	6091ebb375f9f6e9e1acaef8	908835313	1	main_z	11	main_z	23	stimuli_distractor_trianglediamonds.svg	stimuli_target_squarediamonds.svg	12	yes	44	1	1380
6.6.1	win	2022-12-14	22:00:31	22:15:14	881770	6091ebb375f9f6e9e1acaef8	908835313	1	main_z	11	advance_on_keypress_ZEE	24	stimuli_distractor_trianglediamonds.svg	stimuli_target_squarediamonds.svg	12	yes	57	0	419
6.6.1	win	2022-12-14	22:00:31	22:15:17	884840	6091ebb375f9f6e9e1acaef8	908835313	1	main_z	11	main_z	25	stimuli_distractor_diamondtriangles.svg	stimuli_distractor_diamondtriangles.svg	39	no	0	1	2000
6.6.1	win	2022-12-14	22:00:31	22:15:17	884840	6091ebb375f9f6e9e1acaef8	908835313	1	main_z	11	advance_on_keypress_ZEE	26	stimuli_distractor_diamondtriangles.svg	stimuli_distractor_diamondtriangles.svg	39	no	57	0	372
6.6.1	win	2022-12-14	22:00:31	22:15:19	886686	6091ebb375f9f6e9e1acaef8	908835313	1	main_z	11	main_z	27	stimuli_target_diamondsquares.svg	stimuli_distractor_diamondtriangles.svg	24	yes	44	1	829
6.6.1	win	2022-12-14	22:00:31	22:15:19	886686	6091ebb375f9f6e9e1acaef8	908835313	1	main_z	11	advance_on_keypress_ZEE	28	stimuli_target_diamondsquares.svg	stimuli_distractor_diamondtriangles.svg	24	yes	57	0	279
6.6.1	win	2022-12-14	22:00:31	22:15:22	889624	6091ebb375f9f6e9e1acaef8	908835313	1	main_z	11	main_z	29	stimuli_distractor_trianglediamonds.svg	stimuli_target_diamondcircles.svg	27	yes	0	0	2000
6.6.1	win	2022-12-14	22:00:31	22:15:22	889624	6091ebb375f9f6e9e1acaef8	908835313	1	main_z	11	advance_on_keypress_ZEE	30	stimuli_distractor_trianglediamonds.svg	stimuli_target_diamondcircles.svg	27	yes	57	0	477
6.6.1	win	2022-12-14	22:00:31	22:15:25	892757	6091ebb375f9f6e9e1acaef8	908835313	1	main_z	11	main_z	31	stimuli_distractor_diamondtriangles.svg	stimuli_distractor_diamondtriangles.svg	40	no	0	1	2000
6.6.1	win	2022-12-14	22:00:31	22:15:25	892757	6091ebb375f9f6e9e1acaef8	908835313	1	main_z	11	advance_on_keypress_ZEE	32	stimuli_distractor_diamondtriangles.svg	stimuli_distractor_diamondtriangles.svg	40	no	57	0	407
6.6.1	win	2022-12-14	22:00:31	22:15:27	894609	6091ebb375f9f6e9e1acaef8	908835313	1	main_z	11	main_z	33	stimuli_target_circletriangles.svg	stimuli_distractor_trianglediamonds.svg	1	yes	44	1	802
6.6.1	win	2022-12-14	22:00:31	22:15:27	894609	6091ebb375f9f6e9e1acaef8	908835313	1	main_z	11	advance_on_keypress_ZEE	34	stimuli_target_circletriangles.svg	stimuli_distractor_trianglediamonds.svg	1	yes	57	0	131
6.6.1	win	2022-12-14	22:00:31	22:15:28	896113	6091ebb375f9f6e9e1acaef8	908835313	1	main_z	11	main_z	35	stimuli_distractor_trianglediamonds.svg	stimuli_target_squaretriangles.svg	11	yes	44	1	721
6.6.1	win	2022-12-14	22:00:31	22:15:28	896113	6091ebb375f9f6e9e1acaef8	908835313	1	main_z	11	advance_on_keypress_ZEE	36	stimuli_distractor_trianglediamonds.svg	stimuli_target_squaretriangles.svg	11	yes	57	0	173
6.6.1	win	2022-12-14	22:00:31	22:15:30	898053	6091ebb375f9f6e9e1acaef8	908835313	1	main_z	11	main_z	37	stimuli_distractor_diamondtriangles.svg	stimuli_target_circlediamonds.svg	14	yes	44	1	1128
6.6.1	win	2022-12-14	22:00:31	22:15:30	898053	6091ebb375f9f6e9e1acaef8	908835313	1	main_z	11	advance_on_keypress_ZEE	38	stimuli_distractor_diamondtriangles.svg	stimuli_target_circlediamonds.svg	14	yes	57	0	150
6.6.1	win	2022-12-14	22:00:31	22:15:33	900858	6091ebb375f9f6e9e1acaef8	908835313	1	main_z	11	main_z	39	stimuli_target_trianglecircles.svg	stimuli_distractor_trianglediamonds.svg	17	yes	0	0	2000
6.6.1	win	2022-12-14	22:00:31	22:15:33	900858	6091ebb375f9f6e9e1acaef8	908835313	1	main_z	11	advance_on_keypress_ZEE	40	stimuli_target_trianglecircles.svg	stimuli_distractor_trianglediamonds.svg	17	yes	57	0	315
6.6.1	win	2022-12-14	22:00:31	22:15:36	903824	6091ebb375f9f6e9e1acaef8	908835313	1	main_z	11	main_z	41	stimuli_distractor_diamondtriangles.svg	stimuli_distractor_trianglediamonds.svg	38	no	0	1	2000
6.6.1	win	2022-12-14	22:00:31	22:15:36	903824	6091ebb375f9f6e9e1acaef8	908835313	1	main_z	11	advance_on_keypress_ZEE	42	stimuli_distractor_diamondtriangles.svg	stimuli_distractor_trianglediamonds.svg	38	no	57	0	615
6.6.1	win	2022-12-14	22:00:31	22:15:38	905784	6091ebb375f9f6e9e1acaef8	908835313	1	main_z	11	main_z	43	stimuli_target_squarediamonds.svg	stimuli_distractor_trianglediamonds.svg	4	yes	44	1	693
6.6.1	win	2022-12-14	22:00:31	22:15:38	905784	6091ebb375f9f6e9e1acaef8	908835313	1	main_z	11	advance_on_keypress_ZEE	44	stimuli_target_squarediamonds.svg	stimuli_distractor_trianglediamonds.svg	4	yes	57	0	116
6.6.1	win	2022-12-14	22:00:31	22:15:39	907345	6091ebb375f9f6e9e1acaef8	908835313	1	main_z	11	main_z	45	stimuli_distractor_trianglediamonds.svg	stimuli_target_diamondsquares.svg	28	yes	44	1	787
6.6.1	win	2022-12-14	22:00:31	22:15:39	907345	6091ebb375f9f6e9e1acaef8	908835313	1	main_z	11	advance_on_keypress_ZEE	46	stimuli_distractor_trianglediamonds.svg	stimuli_target_diamondsquares.svg	28	yes	57	0	82
6.6.1	win	2022-12-14	22:00:31	22:15:41	908859	6091ebb375f9f6e9e1acaef8	908835313	1	main_z	11	main_z	47	stimuli_distractor_diamondtriangles.svg	stimuli_target_trianglesquares.svg	30	yes	44	1	784
6.6.1	win	2022-12-14	22:00:31	22:15:41	908859	6091ebb375f9f6e9e1acaef8	908835313	1	main_z	11	advance_on_keypress_ZEE	48	stimuli_distractor_diamondtriangles.svg	stimuli_target_trianglesquares.svg	30	yes	57	0	95
6.6.1	win	2022-12-14	22:00:31	22:15:44	911608	6091ebb375f9f6e9e1acaef8	908835313	1	main_z	11	main_z	49	stimuli_distractor_diamondtriangles.svg	stimuli_distractor_trianglediamonds.svg	37	no	0	1	2000
6.6.1	win	2022-12-14	22:00:31	22:15:44	911608	6091ebb375f9f6e9e1acaef8	908835313	1	main_z	11	advance_on_keypress_ZEE	50	stimuli_distractor_diamondtriangles.svg	stimuli_distractor_trianglediamonds.svg	37	no	57	0	394
6.6.1	win	2022-12-14	22:00:31	22:15:46	913600	6091ebb375f9f6e9e1acaef8	908835313	1	main_z	11	main_z	51	stimuli_distractor_diamondtriangles.svg	stimuli_target_squaretriangles.svg	15	yes	44	1	942
6.6.1	win	2022-12-14	22:00:31	22:15:46	913600	6091ebb375f9f6e9e1acaef8	908835313	1	main_z	11	advance_on_keypress_ZEE	52	stimuli_distractor_diamondtriangles.svg	stimuli_target_squaretriangles.svg	15	yes	57	0	527
6.6.1	win	2022-12-14	22:00:31	22:15:48	915733	6091ebb375f9f6e9e1acaef8	908835313	1	main_z	11	main_z	53	stimuli_target_diamondsquares.svg	stimuli_distractor_trianglediamonds.svg	20	yes	44	1	958
6.6.1	win	2022-12-14	22:00:31	22:15:48	915733	6091ebb375f9f6e9e1acaef8	908835313	1	main_z	11	advance_on_keypress_ZEE	54	stimuli_target_diamondsquares.svg	stimuli_distractor_trianglediamonds.svg	20	yes	57	0	151
6.6.1	win	2022-12-14	22:00:31	22:15:49	917247	6091ebb375f9f6e9e1acaef8	908835313	1	main_z	11	main_z	55	stimuli_distractor_diamondtriangles.svg	stimuli_target_circletriangles.svg	13	yes	44	1	722
6.6.1	win	2022-12-14	22:00:31	22:15:49	917247	6091ebb375f9f6e9e1acaef8	908835313	1	main_z	11	advance_on_keypress_ZEE	56	stimuli_distractor_diamondtriangles.svg	stimuli_target_circletriangles.svg	13	yes	57	0	161
6.6.1	win	2022-12-14	22:00:31	22:15:51	918932	6091ebb375f9f6e9e1acaef8	908835313	1	main_z	11	main_z	57	stimuli_distractor_trianglediamonds.svg	stimuli_target_trianglesquares.svg	26	yes	44	1	873
6.6.1	win	2022-12-14	22:00:31	22:15:51	918932	6091ebb375f9f6e9e1acaef8	908835313	1	main_z	11	advance_on_keypress_ZEE	58	stimuli_distractor_trianglediamonds.svg	stimuli_target_trianglesquares.svg	26	yes	57	0	116
6.6.1	win	2022-12-14	22:00:31	22:15:53	920545	6091ebb375f9f6e9e1acaef8	908835313	1	main_z	11	main_z	59	stimuli_target_squarediamonds.svg	stimuli_distractor_diamondtriangles.svg	8	yes	44	1	854
6.6.1	win	2022-12-14	22:00:31	22:15:53	920545	6091ebb375f9f6e9e1acaef8	908835313	1	main_z	11	advance_on_keypress_ZEE	60	stimuli_target_squarediamonds.svg	stimuli_distractor_diamondtriangles.svg	8	yes	57	0	111
6.6.1	win	2022-12-14	22:00:31	22:15:54	922167	6091ebb375f9f6e9e1acaef8	908835313	1	main_z	11	main_z	61	stimuli_target_circlediamonds.svg	stimuli_distractor_trianglediamonds.svg	2	yes	44	1	859
6.6.1	win	2022-12-14	22:00:31	22:15:54	922167	6091ebb375f9f6e9e1acaef8	908835313	1	main_z	11	advance_on_keypress_ZEE	62	stimuli_target_circlediamonds.svg	stimuli_distractor_trianglediamonds.svg	2	yes	57	0	169
6.6.1	win	2022-12-14	22:00:31	22:15:56	923856	6091ebb375f9f6e9e1acaef8	908835313	1	main_z	11	main_z	63	stimuli_distractor_diamondtriangles.svg	stimuli_target_trianglecircles.svg	29	yes	44	1	882
6.6.1	win	2022-12-14	22:00:31	22:15:56	923856	6091ebb375f9f6e9e1acaef8	908835313	1	main_z	11	advance_on_keypress_ZEE	64	stimuli_distractor_diamondtriangles.svg	stimuli_target_trianglecircles.svg	29	yes	57	0	218
6.6.1	win	2022-12-14	22:00:31	22:15:58	925514	6091ebb375f9f6e9e1acaef8	908835313	1	main_z	11	main_z	65	stimuli_distractor_diamondtriangles.svg	stimuli_target_diamondsquares.svg	32	yes	44	1	790
6.6.1	win	2022-12-14	22:00:31	22:15:58	925514	6091ebb375f9f6e9e1acaef8	908835313	1	main_z	11	advance_on_keypress_ZEE	66	stimuli_distractor_diamondtriangles.svg	stimuli_target_diamondsquares.svg	32	yes	57	0	209
6.6.1	win	2022-12-14	22:00:31	22:15:59	927042	6091ebb375f9f6e9e1acaef8	908835313	1	main_z	11	main_z	67	stimuli_distractor_trianglediamonds.svg	stimuli_target_circlediamonds.svg	10	yes	44	1	684
6.6.1	win	2022-12-14	22:00:31	22:15:59	927042	6091ebb375f9f6e9e1acaef8	908835313	1	main_z	11	advance_on_keypress_ZEE	68	stimuli_distractor_trianglediamonds.svg	stimuli_target_circlediamonds.svg	10	yes	57	0	417
6.6.1	win	2022-12-14	22:00:31	22:16:02	930107	6091ebb375f9f6e9e1acaef8	908835313	1	main_z	11	main_z	69	stimuli_distractor_trianglediamonds.svg	stimuli_distractor_trianglediamonds.svg	33	no	0	1	2000
6.6.1	win	2022-12-14	22:00:31	22:16:02	930107	6091ebb375f9f6e9e1acaef8	908835313	1	main_z	11	advance_on_keypress_ZEE	70	stimuli_distractor_trianglediamonds.svg	stimuli_distractor_trianglediamonds.svg	33	no	57	0	594
6.6.1	win	2022-12-14	22:00:31	22:16:04	932062	6091ebb375f9f6e9e1acaef8	908835313	1	main_z	11	main_z	71	stimuli_distractor_trianglediamonds.svg	stimuli_target_circletriangles.svg	9	yes	44	1	705
6.6.1	win	2022-12-14	22:00:31	22:16:04	932062	6091ebb375f9f6e9e1acaef8	908835313	1	main_z	11	advance_on_keypress_ZEE	72	stimuli_distractor_trianglediamonds.svg	stimuli_target_circletriangles.svg	9	yes	57	0	177
6.6.1	win	2022-12-14	22:00:31	22:16:06	933734	6091ebb375f9f6e9e1acaef8	908835313	1	main_z	11	main_z	73	stimuli_distractor_trianglediamonds.svg	stimuli_target_trianglecircles.svg	25	yes	44	1	843
6.6.1	win	2022-12-14	22:00:31	22:16:06	933734	6091ebb375f9f6e9e1acaef8	908835313	1	main_z	11	advance_on_keypress_ZEE	74	stimuli_distractor_trianglediamonds.svg	stimuli_target_trianglecircles.svg	25	yes	57	0	138
6.6.1	win	2022-12-14	22:00:31	22:16:08	935822	6091ebb375f9f6e9e1acaef8	908835313	1	main_z	11	main_z	75	stimuli_target_circletriangles.svg	stimuli_distractor_diamondtriangles.svg	5	yes	44	1	1297
6.6.1	win	2022-12-14	22:00:31	22:16:08	935822	6091ebb375f9f6e9e1acaef8	908835313	1	main_z	11	advance_on_keypress_ZEE	76	stimuli_target_circletriangles.svg	stimuli_distractor_diamondtriangles.svg	5	yes	57	0	342
6.6.1	win	2022-12-14	22:00:31	22:16:11	938808	6091ebb375f9f6e9e1acaef8	908835313	1	main_z	11	main_z	77	stimuli_distractor_trianglediamonds.svg	stimuli_distractor_diamondtriangles.svg	36	no	0	1	2000
6.6.1	win	2022-12-14	22:00:31	22:16:11	938808	6091ebb375f9f6e9e1acaef8	908835313	1	main_z	11	advance_on_keypress_ZEE	78	stimuli_distractor_trianglediamonds.svg	stimuli_distractor_diamondtriangles.svg	36	no	57	0	1026
6.6.1	win	2022-12-14	22:00:31	22:16:15	942491	6091ebb375f9f6e9e1acaef8	908835313	1	main_z	11	main_z	79	stimuli_distractor_trianglediamonds.svg	stimuli_distractor_trianglediamonds.svg	34	no	0	1	2000
6.6.1	win	2022-12-14	22:00:31	22:16:15	942491	6091ebb375f9f6e9e1acaef8	908835313	1	main_z	11	advance_on_keypress_ZEE	80	stimuli_distractor_trianglediamonds.svg	stimuli_distractor_trianglediamonds.svg	34	no	57	0	154
6.6.1	win	2022-12-14	22:00:31	22:16:16	944154	6091ebb375f9f6e9e1acaef8	908835313	1	main_z	11	main_z	81	stimuli_target_squarediamonds.svg	stimuli_distractor_diamondtriangles.svg	8	yes	44	1	864
6.6.1	win	2022-12-14	22:00:31	22:16:16	944154	6091ebb375f9f6e9e1acaef8	908835313	1	main_z	11	advance_on_keypress_ZEE	82	stimuli_target_squarediamonds.svg	stimuli_distractor_diamondtriangles.svg	8	yes	57	0	141
6.6.1	win	2022-12-14	22:00:31	22:16:19	946956	6091ebb375f9f6e9e1acaef8	908835313	1	main_z	11	main_z	83	stimuli_distractor_diamondtriangles.svg	stimuli_distractor_trianglediamonds.svg	37	no	0	1	2000
6.6.1	win	2022-12-14	22:00:31	22:16:19	946956	6091ebb375f9f6e9e1acaef8	908835313	1	main_z	11	advance_on_keypress_ZEE	84	stimuli_distractor_diamondtriangles.svg	stimuli_distractor_trianglediamonds.svg	37	no	57	0	370
6.6.1	win	2022-12-14	22:00:31	22:16:22	949973	6091ebb375f9f6e9e1acaef8	908835313	1	main_z	11	main_z	85	stimuli_distractor_diamondtriangles.svg	stimuli_distractor_diamondtriangles.svg	40	no	0	1	2000
6.6.1	win	2022-12-14	22:00:31	22:16:22	949973	6091ebb375f9f6e9e1acaef8	908835313	1	main_z	11	advance_on_keypress_ZEE	86	stimuli_distractor_diamondtriangles.svg	stimuli_distractor_diamondtriangles.svg	40	no	57	0	379
6.6.1	win	2022-12-14	22:00:31	22:16:25	953007	6091ebb375f9f6e9e1acaef8	908835313	1	main_z	11	main_z	87	stimuli_distractor_diamondtriangles.svg	stimuli_distractor_diamondtriangles.svg	39	no	0	1	2000
6.6.1	win	2022-12-14	22:00:31	22:16:25	953007	6091ebb375f9f6e9e1acaef8	908835313	1	main_z	11	advance_on_keypress_ZEE	88	stimuli_distractor_diamondtriangles.svg	stimuli_distractor_diamondtriangles.svg	39	no	57	0	399
6.6.1	win	2022-12-14	22:00:31	22:16:27	955133	6091ebb375f9f6e9e1acaef8	908835313	1	main_z	11	main_z	89	stimuli_distractor_trianglediamonds.svg	stimuli_target_trianglecircles.svg	25	yes	44	1	1075
6.6.1	win	2022-12-14	22:00:31	22:16:27	955133	6091ebb375f9f6e9e1acaef8	908835313	1	main_z	11	advance_on_keypress_ZEE	90	stimuli_distractor_trianglediamonds.svg	stimuli_target_trianglecircles.svg	25	yes	57	0	179
6.6.1	win	2022-12-14	22:00:31	22:16:29	956837	6091ebb375f9f6e9e1acaef8	908835313	1	main_z	11	main_z	91	stimuli_target_squaretriangles.svg	stimuli_distractor_diamondtriangles.svg	7	yes	44	1	879
6.6.1	win	2022-12-14	22:00:31	22:16:29	956837	6091ebb375f9f6e9e1acaef8	908835313	1	main_z	11	advance_on_keypress_ZEE	92	stimuli_target_squaretriangles.svg	stimuli_distractor_diamondtriangles.svg	7	yes	57	0	107
6.6.1	win	2022-12-14	22:00:31	22:16:31	958589	6091ebb375f9f6e9e1acaef8	908835313	1	main_z	11	main_z	93	stimuli_target_squarediamonds.svg	stimuli_distractor_trianglediamonds.svg	4	yes	44	1	999
6.6.1	win	2022-12-14	22:00:31	22:16:31	958589	6091ebb375f9f6e9e1acaef8	908835313	1	main_z	11	advance_on_keypress_ZEE	94	stimuli_target_squarediamonds.svg	stimuli_distractor_trianglediamonds.svg	4	yes	57	0	152
6.6.1	win	2022-12-14	22:00:31	22:16:33	961390	6091ebb375f9f6e9e1acaef8	908835313	1	main_z	11	main_z	95	stimuli_distractor_diamondtriangles.svg	stimuli_distractor_trianglediamonds.svg	38	no	0	1	2000
6.6.1	win	2022-12-14	22:00:31	22:16:33	961390	6091ebb375f9f6e9e1acaef8	908835313	1	main_z	11	advance_on_keypress_ZEE	96	stimuli_distractor_diamondtriangles.svg	stimuli_distractor_trianglediamonds.svg	38	no	57	0	519
6.6.1	win	2022-12-14	22:00:31	22:16:36	963548	6091ebb375f9f6e9e1acaef8	908835313	1	main_z	11	main_z	97	stimuli_target_trianglecircles.svg	stimuli_distractor_trianglediamonds.svg	17	yes	44	1	991
6.6.1	win	2022-12-14	22:00:31	22:16:36	963548	6091ebb375f9f6e9e1acaef8	908835313	1	main_z	11	advance_on_keypress_ZEE	98	stimuli_target_trianglecircles.svg	stimuli_distractor_trianglediamonds.svg	17	yes	57	0	148
6.6.1	win	2022-12-14	22:00:31	22:16:37	965329	6091ebb375f9f6e9e1acaef8	908835313	1	main_z	11	main_z	99	stimuli_distractor_diamondtriangles.svg	stimuli_target_squarediamonds.svg	16	yes	44	1	988
6.6.1	win	2022-12-14	22:00:31	22:16:37	965329	6091ebb375f9f6e9e1acaef8	908835313	1	main_z	11	advance_on_keypress_ZEE	100	stimuli_distractor_diamondtriangles.svg	stimuli_target_squarediamonds.svg	16	yes	57	0	96
6.6.1	win	2022-12-14	22:00:31	22:16:39	966956	6091ebb375f9f6e9e1acaef8	908835313	1	main_z	11	main_z	101	stimuli_target_trianglesquares.svg	stimuli_distractor_diamondtriangles.svg	22	yes	44	1	883
6.6.1	win	2022-12-14	22:00:31	22:16:39	966956	6091ebb375f9f6e9e1acaef8	908835313	1	main_z	11	advance_on_keypress_ZEE	102	stimuli_target_trianglesquares.svg	stimuli_distractor_diamondtriangles.svg	22	yes	57	0	106
6.6.1	win	2022-12-14	22:00:31	22:16:41	968699	6091ebb375f9f6e9e1acaef8	908835313	1	main_z	11	main_z	103	stimuli_target_circletriangles.svg	stimuli_distractor_trianglediamonds.svg	1	yes	44	1	991
6.6.1	win	2022-12-14	22:00:31	22:16:41	968699	6091ebb375f9f6e9e1acaef8	908835313	1	main_z	11	advance_on_keypress_ZEE	104	stimuli_target_circletriangles.svg	stimuli_distractor_trianglediamonds.svg	1	yes	57	0	144
6.6.1	win	2022-12-14	22:00:31	22:16:42	970418	6091ebb375f9f6e9e1acaef8	908835313	1	main_z	11	main_z	105	stimuli_distractor_diamondtriangles.svg	stimuli_target_squaretriangles.svg	15	yes	44	1	928
6.6.1	win	2022-12-14	22:00:31	22:16:42	970418	6091ebb375f9f6e9e1acaef8	908835313	1	main_z	11	advance_on_keypress_ZEE	106	stimuli_distractor_diamondtriangles.svg	stimuli_target_squaretriangles.svg	15	yes	57	0	162
6.6.1	win	2022-12-14	22:00:31	22:16:45	973241	6091ebb375f9f6e9e1acaef8	908835313	1	main_z	11	main_z	107	stimuli_distractor_trianglediamonds.svg	stimuli_distractor_diamondtriangles.svg	35	no	0	1	2000
6.6.1	win	2022-12-14	22:00:31	22:16:45	973241	6091ebb375f9f6e9e1acaef8	908835313	1	main_z	11	advance_on_keypress_ZEE	108	stimuli_distractor_trianglediamonds.svg	stimuli_distractor_diamondtriangles.svg	35	no	57	0	396
6.6.1	win	2022-12-14	22:00:31	22:16:47	975236	6091ebb375f9f6e9e1acaef8	908835313	1	main_z	11	main_z	109	stimuli_target_diamondcircles.svg	stimuli_distractor_diamondtriangles.svg	23	yes	44	1	946
6.6.1	win	2022-12-14	22:00:31	22:16:47	975236	6091ebb375f9f6e9e1acaef8	908835313	1	main_z	11	advance_on_keypress_ZEE	110	stimuli_target_diamondcircles.svg	stimuli_distractor_diamondtriangles.svg	23	yes	57	0	152
6.6.1	win	2022-12-14	22:00:31	22:16:49	976995	6091ebb375f9f6e9e1acaef8	908835313	1	main_z	11	main_z	111	stimuli_target_diamondsquares.svg	stimuli_distractor_trianglediamonds.svg	20	yes	44	1	954
6.6.1	win	2022-12-14	22:00:31	22:16:49	976995	6091ebb375f9f6e9e1acaef8	908835313	1	main_z	11	advance_on_keypress_ZEE	112	stimuli_target_diamondsquares.svg	stimuli_distractor_trianglediamonds.svg	20	yes	57	0	130
6.6.1	win	2022-12-14	22:00:31	22:16:51	978660	6091ebb375f9f6e9e1acaef8	908835313	1	main_z	11	main_z	113	stimuli_distractor_trianglediamonds.svg	stimuli_target_circlediamonds.svg	10	yes	44	1	886
6.6.1	win	2022-12-14	22:00:31	22:16:51	978660	6091ebb375f9f6e9e1acaef8	908835313	1	main_z	11	advance_on_keypress_ZEE	114	stimuli_distractor_trianglediamonds.svg	stimuli_target_circlediamonds.svg	10	yes	57	0	128
6.6.1	win	2022-12-14	22:00:31	22:16:52	980404	6091ebb375f9f6e9e1acaef8	908835313	1	main_z	11	main_z	115	stimuli_distractor_trianglediamonds.svg	stimuli_target_squaretriangles.svg	11	yes	44	1	963
6.6.1	win	2022-12-14	22:00:31	22:16:52	980404	6091ebb375f9f6e9e1acaef8	908835313	1	main_z	11	advance_on_keypress_ZEE	116	stimuli_distractor_trianglediamonds.svg	stimuli_target_squaretriangles.svg	11	yes	57	0	88
6.6.1	win	2022-12-14	22:00:31	22:16:54	981983	6091ebb375f9f6e9e1acaef8	908835313	1	main_z	11	main_z	117	stimuli_distractor_trianglediamonds.svg	stimuli_target_circletriangles.svg	9	yes	44	1	843
6.6.1	win	2022-12-14	22:00:31	22:16:54	981983	6091ebb375f9f6e9e1acaef8	908835313	1	main_z	11	advance_on_keypress_ZEE	118	stimuli_distractor_trianglediamonds.svg	stimuli_target_circletriangles.svg	9	yes	57	0	134
6.6.1	win	2022-12-14	22:00:31	22:16:56	983581	6091ebb375f9f6e9e1acaef8	908835313	1	main_z	11	main_z	119	stimuli_target_squaretriangles.svg	stimuli_distractor_trianglediamonds.svg	3	yes	44	1	823
6.6.1	win	2022-12-14	22:00:31	22:16:56	983581	6091ebb375f9f6e9e1acaef8	908835313	1	main_z	11	advance_on_keypress_ZEE	120	stimuli_target_squaretriangles.svg	stimuli_distractor_trianglediamonds.svg	3	yes	57	0	147
6.6.1	win	2022-12-14	22:00:31	22:16:57	985216	6091ebb375f9f6e9e1acaef8	908835313	1	main_z	11	main_z	121	stimuli_distractor_diamondtriangles.svg	stimuli_target_trianglesquares.svg	30	yes	44	1	841
6.6.1	win	2022-12-14	22:00:31	22:16:57	985216	6091ebb375f9f6e9e1acaef8	908835313	1	main_z	11	advance_on_keypress_ZEE	122	stimuli_distractor_diamondtriangles.svg	stimuli_target_trianglesquares.svg	30	yes	57	0	121
6.6.1	win	2022-12-14	22:00:31	22:16:59	986998	6091ebb375f9f6e9e1acaef8	908835313	1	main_z	11	main_z	123	stimuli_target_circletriangles.svg	stimuli_distractor_diamondtriangles.svg	5	yes	44	1	1024
6.6.1	win	2022-12-14	22:00:31	22:16:59	986998	6091ebb375f9f6e9e1acaef8	908835313	1	main_z	11	advance_on_keypress_ZEE	124	stimuli_target_circletriangles.svg	stimuli_distractor_diamondtriangles.svg	5	yes	57	0	67
6.6.1	win	2022-12-14	22:00:31	22:17:01	988859	6091ebb375f9f6e9e1acaef8	908835313	1	main_z	11	main_z	125	stimuli_distractor_trianglediamonds.svg	stimuli_target_diamondcircles.svg	27	yes	44	1	1153
6.6.1	win	2022-12-14	22:00:31	22:17:01	988859	6091ebb375f9f6e9e1acaef8	908835313	1	main_z	11	advance_on_keypress_ZEE	126	stimuli_distractor_trianglediamonds.svg	stimuli_target_diamondcircles.svg	27	yes	57	0	206
6.6.1	win	2022-12-14	22:00:31	22:17:04	991707	6091ebb375f9f6e9e1acaef8	908835313	1	main_z	11	main_z	127	stimuli_distractor_trianglediamonds.svg	stimuli_distractor_trianglediamonds.svg	34	no	0	1	2000
6.6.1	win	2022-12-14	22:00:31	22:17:04	991707	6091ebb375f9f6e9e1acaef8	908835313	1	main_z	11	advance_on_keypress_ZEE	128	stimuli_distractor_trianglediamonds.svg	stimuli_distractor_trianglediamonds.svg	34	no	57	0	553
6.6.1	win	2022-12-14	22:00:31	22:17:06	993932	6091ebb375f9f6e9e1acaef8	908835313	1	main_z	11	main_z	129	stimuli_target_diamondcircles.svg	stimuli_distractor_trianglediamonds.svg	19	yes	44	1	1025
6.6.1	win	2022-12-14	22:00:31	22:17:06	993932	6091ebb375f9f6e9e1acaef8	908835313	1	main_z	11	advance_on_keypress_ZEE	130	stimuli_target_diamondcircles.svg	stimuli_distractor_trianglediamonds.svg	19	yes	57	0	135
6.6.1	win	2022-12-14	22:00:31	22:17:08	995782	6091ebb375f9f6e9e1acaef8	908835313	1	main_z	11	main_z	131	stimuli_target_trianglecircles.svg	stimuli_distractor_diamondtriangles.svg	21	yes	44	1	1075
6.6.1	win	2022-12-14	22:00:31	22:17:08	995782	6091ebb375f9f6e9e1acaef8	908835313	1	main_z	11	advance_on_keypress_ZEE	132	stimuli_target_trianglecircles.svg	stimuli_distractor_diamondtriangles.svg	21	yes	57	0	152
6.6.1	win	2022-12-14	22:00:31	22:17:10	997561	6091ebb375f9f6e9e1acaef8	908835313	1	main_z	11	main_z	133	stimuli_distractor_trianglediamonds.svg	stimuli_target_trianglesquares.svg	26	yes	44	1	988
6.6.1	win	2022-12-14	22:00:31	22:17:10	997561	6091ebb375f9f6e9e1acaef8	908835313	1	main_z	11	advance_on_keypress_ZEE	134	stimuli_distractor_trianglediamonds.svg	stimuli_target_trianglesquares.svg	26	yes	57	0	161
6.6.1	win	2022-12-14	22:00:31	22:17:11	999287	6091ebb375f9f6e9e1acaef8	908835313	1	main_z	11	main_z	135	stimuli_target_circlediamonds.svg	stimuli_distractor_trianglediamonds.svg	2	yes	44	1	913
6.6.1	win	2022-12-14	22:00:31	22:17:11	999287	6091ebb375f9f6e9e1acaef8	908835313	1	main_z	11	advance_on_keypress_ZEE	136	stimuli_target_circlediamonds.svg	stimuli_distractor_trianglediamonds.svg	2	yes	57	0	122
6.6.1	win	2022-12-14	22:00:31	22:17:13	1000975	6091ebb375f9f6e9e1acaef8	908835313	1	main_z	11	main_z	137	stimuli_target_diamondsquares.svg	stimuli_distractor_diamondtriangles.svg	24	yes	44	1	918
6.6.1	win	2022-12-14	22:00:31	22:17:13	1000975	6091ebb375f9f6e9e1acaef8	908835313	1	main_z	11	advance_on_keypress_ZEE	138	stimuli_target_diamondsquares.svg	stimuli_distractor_diamondtriangles.svg	24	yes	57	0	141
6.6.1	win	2022-12-14	22:00:31	22:17:15	1002525	6091ebb375f9f6e9e1acaef8	908835313	1	main_z	11	main_z	139	stimuli_distractor_diamondtriangles.svg	stimuli_target_trianglecircles.svg	29	yes	44	1	767
6.6.1	win	2022-12-14	22:00:31	22:17:15	1002525	6091ebb375f9f6e9e1acaef8	908835313	1	main_z	11	advance_on_keypress_ZEE	140	stimuli_distractor_diamondtriangles.svg	stimuli_target_trianglecircles.svg	29	yes	57	0	124
6.6.1	win	2022-12-14	22:00:31	22:17:16	1004036	6091ebb375f9f6e9e1acaef8	908835313	1	main_z	11	main_z	141	stimuli_distractor_diamondtriangles.svg	stimuli_target_circletriangles.svg	13	yes	44	1	746
6.6.1	win	2022-12-14	22:00:31	22:17:16	1004036	6091ebb375f9f6e9e1acaef8	908835313	1	main_z	11	advance_on_keypress_ZEE	142	stimuli_distractor_diamondtriangles.svg	stimuli_target_circletriangles.svg	13	yes	57	0	169
6.6.1	win	2022-12-14	22:00:31	22:17:18	1005637	6091ebb375f9f6e9e1acaef8	908835313	1	main_z	11	main_z	143	stimuli_distractor_diamondtriangles.svg	stimuli_target_diamondsquares.svg	32	yes	44	1	781
6.6.1	win	2022-12-14	22:00:31	22:17:18	1005637	6091ebb375f9f6e9e1acaef8	908835313	1	main_z	11	advance_on_keypress_ZEE	144	stimuli_distractor_diamondtriangles.svg	stimuli_target_diamondsquares.svg	32	yes	57	0	184
6.6.1	win	2022-12-14	22:00:31	22:17:19	1007333	6091ebb375f9f6e9e1acaef8	908835313	1	main_z	11	main_z	145	stimuli_target_circlediamonds.svg	stimuli_distractor_diamondtriangles.svg	6	yes	44	1	860
6.6.1	win	2022-12-14	22:00:31	22:17:19	1007333	6091ebb375f9f6e9e1acaef8	908835313	1	main_z	11	advance_on_keypress_ZEE	146	stimuli_target_circlediamonds.svg	stimuli_distractor_diamondtriangles.svg	6	yes	57	0	165
6.6.1	win	2022-12-14	22:00:31	22:17:21	1008876	6091ebb375f9f6e9e1acaef8	908835313	1	main_z	11	main_z	147	stimuli_distractor_trianglediamonds.svg	stimuli_target_squarediamonds.svg	12	yes	44	1	720
6.6.1	win	2022-12-14	22:00:31	22:17:21	1008876	6091ebb375f9f6e9e1acaef8	908835313	1	main_z	11	advance_on_keypress_ZEE	148	stimuli_distractor_trianglediamonds.svg	stimuli_target_squarediamonds.svg	12	yes	57	0	361
6.6.1	win	2022-12-14	22:00:31	22:17:23	1010644	6091ebb375f9f6e9e1acaef8	908835313	1	main_z	11	main_z	149	stimuli_distractor_trianglediamonds.svg	stimuli_target_diamondsquares.svg	28	yes	44	1	753
6.6.1	win	2022-12-14	22:00:31	22:17:23	1010644	6091ebb375f9f6e9e1acaef8	908835313	1	main_z	11	advance_on_keypress_ZEE	150	stimuli_distractor_trianglediamonds.svg	stimuli_target_diamondsquares.svg	28	yes	57	0	206
6.6.1	win	2022-12-14	22:00:31	22:17:24	1012339	6091ebb375f9f6e9e1acaef8	908835313	1	main_z	11	main_z	151	stimuli_distractor_diamondtriangles.svg	stimuli_target_diamondcircles.svg	31	yes	44	1	849
6.6.1	win	2022-12-14	22:00:31	22:17:24	1012339	6091ebb375f9f6e9e1acaef8	908835313	1	main_z	11	advance_on_keypress_ZEE	152	stimuli_distractor_diamondtriangles.svg	stimuli_target_diamondcircles.svg	31	yes	57	0	187
6.6.1	win	2022-12-14	22:00:31	22:17:27	1015173	6091ebb375f9f6e9e1acaef8	908835313	1	main_z	11	main_z	153	stimuli_distractor_trianglediamonds.svg	stimuli_distractor_diamondtriangles.svg	36	no	0	1	2000
6.6.1	win	2022-12-14	22:00:31	22:17:27	1015173	6091ebb375f9f6e9e1acaef8	908835313	1	main_z	11	advance_on_keypress_ZEE	154	stimuli_distractor_trianglediamonds.svg	stimuli_distractor_diamondtriangles.svg	36	no	57	0	2888
6.6.1	win	2022-12-14	22:00:31	22:17:32	1019461	6091ebb375f9f6e9e1acaef8	908835313	1	main_z	11	main_z	155	stimuli_distractor_diamondtriangles.svg	stimuli_target_circlediamonds.svg	14	yes	44	1	755
6.6.1	win	2022-12-14	22:00:31	22:17:32	1019461	6091ebb375f9f6e9e1acaef8	908835313	1	main_z	11	advance_on_keypress_ZEE	156	stimuli_distractor_diamondtriangles.svg	stimuli_target_circlediamonds.svg	14	yes	57	0	193
6.6.1	win	2022-12-14	22:00:31	22:17:34	1022307	6091ebb375f9f6e9e1acaef8	908835313	1	main_z	11	main_z	157	stimuli_distractor_trianglediamonds.svg	stimuli_distractor_trianglediamonds.svg	33	no	0	1	2000
6.6.1	win	2022-12-14	22:00:31	22:17:34	1022307	6091ebb375f9f6e9e1acaef8	908835313	1	main_z	11	advance_on_keypress_ZEE	158	stimuli_distractor_trianglediamonds.svg	stimuli_distractor_trianglediamonds.svg	33	no	57	0	132
6.6.1	win	2022-12-14	22:00:31	22:17:36	1024163	6091ebb375f9f6e9e1acaef8	908835313	1	main_z	11	main_z	159	stimuli_target_trianglesquares.svg	stimuli_distractor_trianglediamonds.svg	18	yes	44	1	1074
6.6.1	win	2022-12-14	22:00:31	22:17:36	1024163	6091ebb375f9f6e9e1acaef8	908835313	1	main_z	11	advance_on_keypress_ZEE	160	stimuli_target_trianglesquares.svg	stimuli_distractor_trianglediamonds.svg	18	yes	57	0	160