build	computer.platform	date	time	timestamp	time_elapsed_ms	subject	group	session	blockcode	blocknum	trialcode	trialnum	stimulus_left	stimulus_right	stim_index	target_present	response	correct	latency
6.6.1	win	2022-12-14	18:48:07	18:53:03	292704	5cab7cc86d3a6e001519d9e9	518999427	1	practice_slash	5	practice_slash	1	stimuli_distractor_trianglediamonds.svg	stimuli_distractor_diamondtriangles.svg	16	no	0	1	2000
6.6.1	win	2022-12-14	18:48:07	18:53:03	292704	5cab7cc86d3a6e001519d9e9	518999427	1	practice_slash	5	advance_on_keypress_SLASH	2	stimuli_distractor_trianglediamonds.svg	stimuli_distractor_diamondtriangles.svg	16	no	57	0	808
6.6.1	win	2022-12-14	18:48:07	18:53:06	296185	5cab7cc86d3a6e001519d9e9	518999427	1	practice_slash	5	practice_slash	3	stimuli_target_diamondsquares.svg	stimuli_distractor_diamondtriangles.svg	3	yes	53	1	1014
6.6.1	win	2022-12-14	18:48:07	18:53:06	296185	5cab7cc86d3a6e001519d9e9	518999427	1	practice_slash	5	advance_on_keypress_SLASH	4	stimuli_target_diamondsquares.svg	stimuli_distractor_diamondtriangles.svg	3	yes	57	0	597
6.6.1	win	2022-12-14	18:48:07	18:53:09	299256	5cab7cc86d3a6e001519d9e9	518999427	1	practice_slash	5	practice_slash	5	stimuli_target_squarediamonds.svg	stimuli_distractor_diamondtriangles.svg	2	yes	53	1	820
6.6.1	win	2022-12-14	18:48:07	18:53:09	299256	5cab7cc86d3a6e001519d9e9	518999427	1	practice_slash	5	advance_on_keypress_SLASH	6	stimuli_target_squarediamonds.svg	stimuli_distractor_diamondtriangles.svg	2	yes	57	0	483
6.6.1	win	2022-12-14	18:48:07	18:53:12	302280	5cab7cc86d3a6e001519d9e9	518999427	1	practice_slash	5	practice_slash	7	stimuli_target_diamondsquares.svg	stimuli_distractor_trianglediamonds.svg	6	yes	53	1	894
6.6.1	win	2022-12-14	18:48:07	18:53:12	302280	5cab7cc86d3a6e001519d9e9	518999427	1	practice_slash	5	advance_on_keypress_SLASH	8	stimuli_target_diamondsquares.svg	stimuli_distractor_trianglediamonds.svg	6	yes	57	0	545
6.6.1	win	2022-12-14	18:48:07	18:53:16	306486	5cab7cc86d3a6e001519d9e9	518999427	1	practice_slash	5	practice_slash	9	stimuli_distractor_diamondtriangles.svg	stimuli_distractor_diamondtriangles.svg	13	no	0	1	2000
6.6.1	win	2022-12-14	18:48:07	18:53:16	306486	5cab7cc86d3a6e001519d9e9	518999427	1	practice_slash	5	advance_on_keypress_SLASH	10	stimuli_distractor_diamondtriangles.svg	stimuli_distractor_diamondtriangles.svg	13	no	57	0	402
6.6.1	win	2022-12-14	18:48:07	18:53:20	309848	5cab7cc86d3a6e001519d9e9	518999427	1	practice_slash	5	practice_slash	11	stimuli_distractor_trianglediamonds.svg	stimuli_target_diamondcircles.svg	12	yes	53	1	1312
6.6.1	win	2022-12-14	18:48:07	18:53:20	309848	5cab7cc86d3a6e001519d9e9	518999427	1	practice_slash	5	advance_on_keypress_SLASH	12	stimuli_distractor_trianglediamonds.svg	stimuli_target_diamondcircles.svg	12	yes	57	0	371
6.6.1	win	2022-12-14	18:48:07	18:53:23	312992	5cab7cc86d3a6e001519d9e9	518999427	1	practice_slash	5	practice_slash	13	stimuli_target_squarediamonds.svg	stimuli_distractor_trianglediamonds.svg	5	yes	53	1	1123
6.6.1	win	2022-12-14	18:48:07	18:53:23	312992	5cab7cc86d3a6e001519d9e9	518999427	1	practice_slash	5	advance_on_keypress_SLASH	14	stimuli_target_squarediamonds.svg	stimuli_distractor_trianglediamonds.svg	5	yes	57	0	1509
6.6.1	win	2022-12-14	18:48:07	18:53:27	317168	5cab7cc86d3a6e001519d9e9	518999427	1	practice_slash	5	practice_slash	15	stimuli_target_circlediamonds.svg	stimuli_distractor_diamondtriangles.svg	1	yes	53	1	999
6.6.1	win	2022-12-14	18:48:07	18:53:27	317168	5cab7cc86d3a6e001519d9e9	518999427	1	practice_slash	5	advance_on_keypress_SLASH	16	stimuli_target_circlediamonds.svg	stimuli_distractor_diamondtriangles.svg	1	yes	57	0	439
6.6.1	win	2022-12-14	18:48:07	18:53:30	320480	5cab7cc86d3a6e001519d9e9	518999427	1	practice_slash	5	practice_slash	17	stimuli_target_circlediamonds.svg	stimuli_distractor_trianglediamonds.svg	4	yes	53	1	1228
6.6.1	win	2022-12-14	18:48:07	18:53:30	320480	5cab7cc86d3a6e001519d9e9	518999427	1	practice_slash	5	advance_on_keypress_SLASH	18	stimuli_target_circlediamonds.svg	stimuli_distractor_trianglediamonds.svg	4	yes	57	0	354
6.6.1	win	2022-12-14	18:48:07	18:53:33	323544	5cab7cc86d3a6e001519d9e9	518999427	1	practice_slash	5	practice_slash	19	stimuli_distractor_trianglediamonds.svg	stimuli_distractor_trianglediamonds.svg	15	no	53	0	1059
6.6.1	win	2022-12-14	18:48:07	18:53:33	323544	5cab7cc86d3a6e001519d9e9	518999427	1	practice_slash	5	advance_on_keypress_SLASH	20	stimuli_distractor_trianglediamonds.svg	stimuli_distractor_trianglediamonds.svg	15	no	57	0	320
6.6.1	win	2022-12-14	18:48:07	18:53:36	326305	5cab7cc86d3a6e001519d9e9	518999427	1	practice_slash	5	practice_slash	21	stimuli_distractor_trianglediamonds.svg	stimuli_target_squarediamonds.svg	11	yes	53	1	786
6.6.1	win	2022-12-14	18:48:07	18:53:36	326305	5cab7cc86d3a6e001519d9e9	518999427	1	practice_slash	5	advance_on_keypress_SLASH	22	stimuli_distractor_trianglediamonds.svg	stimuli_target_squarediamonds.svg	11	yes	57	0	386
6.6.1	win	2022-12-14	18:48:07	18:53:40	330338	5cab7cc86d3a6e001519d9e9	518999427	1	practice_slash	5	practice_slash	23	stimuli_distractor_diamondtriangles.svg	stimuli_target_circletriangles.svg	7	yes	0	0	2000
6.6.1	win	2022-12-14	18:48:07	18:53:40	330338	5cab7cc86d3a6e001519d9e9	518999427	1	practice_slash	5	advance_on_keypress_SLASH	24	stimuli_distractor_diamondtriangles.svg	stimuli_target_circletriangles.svg	7	yes	57	0	345
6.6.1	win	2022-12-14	18:48:07	18:53:44	334337	5cab7cc86d3a6e001519d9e9	518999427	1	practice_slash	5	practice_slash	25	stimuli_distractor_diamondtriangles.svg	stimuli_distractor_trianglediamonds.svg	14	no	0	1	2000
6.6.1	win	2022-12-14	18:48:07	18:53:44	334337	5cab7cc86d3a6e001519d9e9	518999427	1	practice_slash	5	advance_on_keypress_SLASH	26	stimuli_distractor_diamondtriangles.svg	stimuli_distractor_trianglediamonds.svg	14	no	57	0	313
6.6.1	win	2022-12-14	18:48:07	18:53:47	337155	5cab7cc86d3a6e001519d9e9	518999427	1	practice_slash	5	practice_slash	27	stimuli_distractor_trianglediamonds.svg	stimuli_target_circlediamonds.svg	10	yes	53	1	851
6.6.1	win	2022-12-14	18:48:07	18:53:47	337155	5cab7cc86d3a6e001519d9e9	518999427	1	practice_slash	5	advance_on_keypress_SLASH	28	stimuli_distractor_trianglediamonds.svg	stimuli_target_circlediamonds.svg	10	yes	57	0	257
6.6.1	win	2022-12-14	18:48:07	18:53:50	340394	5cab7cc86d3a6e001519d9e9	518999427	1	practice_slash	5	practice_slash	29	stimuli_distractor_diamondtriangles.svg	stimuli_target_trianglecircles.svg	9	yes	53	1	1325
6.6.1	win	2022-12-14	18:48:07	18:53:50	340394	5cab7cc86d3a6e001519d9e9	518999427	1	practice_slash	5	advance_on_keypress_SLASH	30	stimuli_distractor_diamondtriangles.svg	stimuli_target_trianglecircles.svg	9	yes	57	0	343
6.6.1	win	2022-12-14	18:48:07	18:53:54	343610	5cab7cc86d3a6e001519d9e9	518999427	1	practice_slash	5	practice_slash	31	stimuli_distractor_diamondtriangles.svg	stimuli_target_diamondcircles.svg	8	yes	53	1	1208
6.6.1	win	2022-12-14	18:48:07	18:53:54	343610	5cab7cc86d3a6e001519d9e9	518999427	1	practice_slash	5	advance_on_keypress_SLASH	32	stimuli_distractor_diamondtriangles.svg	stimuli_target_diamondcircles.svg	8	yes	57	0	326
6.6.1	win	2022-12-14	18:48:07	18:54:03	352808	5cab7cc86d3a6e001519d9e9	518999427	1	main_slash	7	main_slash	1	stimuli_target_circlediamonds.svg	stimuli_distractor_diamondtriangles.svg	6	yes	53	1	675
6.6.1	win	2022-12-14	18:48:07	18:54:03	352808	5cab7cc86d3a6e001519d9e9	518999427	1	main_slash	7	advance_on_keypress_SLASH	2	stimuli_target_circlediamonds.svg	stimuli_distractor_diamondtriangles.svg	6	yes	57	0	975
6.6.1	win	2022-12-14	18:48:07	18:54:05	355224	5cab7cc86d3a6e001519d9e9	518999427	1	main_slash	7	main_slash	3	stimuli_target_squarediamonds.svg	stimuli_distractor_diamondtriangles.svg	8	yes	53	1	791
6.6.1	win	2022-12-14	18:48:07	18:54:05	355224	5cab7cc86d3a6e001519d9e9	518999427	1	main_slash	7	advance_on_keypress_SLASH	4	stimuli_target_squarediamonds.svg	stimuli_distractor_diamondtriangles.svg	8	yes	57	0	654
6.6.1	win	2022-12-14	18:48:07	18:54:07	357472	5cab7cc86d3a6e001519d9e9	518999427	1	main_slash	7	main_slash	5	stimuli_target_trianglesquares.svg	stimuli_distractor_trianglediamonds.svg	18	yes	53	1	939
6.6.1	win	2022-12-14	18:48:07	18:54:07	357472	5cab7cc86d3a6e001519d9e9	518999427	1	main_slash	7	advance_on_keypress_SLASH	6	stimuli_target_trianglesquares.svg	stimuli_distractor_trianglediamonds.svg	18	yes	57	0	660
6.6.1	win	2022-12-14	18:48:07	18:54:10	359816	5cab7cc86d3a6e001519d9e9	518999427	1	main_slash	7	main_slash	7	stimuli_distractor_trianglediamonds.svg	stimuli_distractor_trianglediamonds.svg	33	no	53	0	1033
6.6.1	win	2022-12-14	18:48:07	18:54:10	359816	5cab7cc86d3a6e001519d9e9	518999427	1	main_slash	7	advance_on_keypress_SLASH	8	stimuli_distractor_trianglediamonds.svg	stimuli_distractor_trianglediamonds.svg	33	no	57	0	1111
6.6.1	win	2022-12-14	18:48:07	18:54:12	362432	5cab7cc86d3a6e001519d9e9	518999427	1	main_slash	7	main_slash	9	stimuli_distractor_trianglediamonds.svg	stimuli_target_trianglesquares.svg	26	yes	53	1	866
6.6.1	win	2022-12-14	18:48:07	18:54:12	362432	5cab7cc86d3a6e001519d9e9	518999427	1	main_slash	7	advance_on_keypress_SLASH	10	stimuli_distractor_trianglediamonds.svg	stimuli_target_trianglesquares.svg	26	yes	57	0	815
6.6.1	win	2022-12-14	18:48:07	18:54:15	365032	5cab7cc86d3a6e001519d9e9	518999427	1	main_slash	7	main_slash	11	stimuli_distractor_diamondtriangles.svg	stimuli_target_trianglecircles.svg	29	yes	53	1	1133
6.6.1	win	2022-12-14	18:48:07	18:54:15	365032	5cab7cc86d3a6e001519d9e9	518999427	1	main_slash	7	advance_on_keypress_SLASH	12	stimuli_distractor_diamondtriangles.svg	stimuli_target_trianglecircles.svg	29	yes	57	0	607
6.6.1	win	2022-12-14	18:48:07	18:54:17	367096	5cab7cc86d3a6e001519d9e9	518999427	1	main_slash	7	main_slash	13	stimuli_target_diamondsquares.svg	stimuli_distractor_diamondtriangles.svg	24	yes	53	1	814
6.6.1	win	2022-12-14	18:48:07	18:54:17	367096	5cab7cc86d3a6e001519d9e9	518999427	1	main_slash	7	advance_on_keypress_SLASH	14	stimuli_target_diamondsquares.svg	stimuli_distractor_diamondtriangles.svg	24	yes	57	0	692
6.6.1	win	2022-12-14	18:48:07	18:54:19	369272	5cab7cc86d3a6e001519d9e9	518999427	1	main_slash	7	main_slash	15	stimuli_distractor_trianglediamonds.svg	stimuli_target_circletriangles.svg	9	yes	53	1	840
6.6.1	win	2022-12-14	18:48:07	18:54:19	369272	5cab7cc86d3a6e001519d9e9	518999427	1	main_slash	7	advance_on_keypress_SLASH	16	stimuli_distractor_trianglediamonds.svg	stimuli_target_circletriangles.svg	9	yes	57	0	525
6.6.1	win	2022-12-14	18:48:07	18:54:21	371392	5cab7cc86d3a6e001519d9e9	518999427	1	main_slash	7	main_slash	17	stimuli_distractor_trianglediamonds.svg	stimuli_target_trianglecircles.svg	25	yes	53	1	943
6.6.1	win	2022-12-14	18:48:07	18:54:21	371392	5cab7cc86d3a6e001519d9e9	518999427	1	main_slash	7	advance_on_keypress_SLASH	18	stimuli_distractor_trianglediamonds.svg	stimuli_target_trianglecircles.svg	25	yes	57	0	489
6.6.1	win	2022-12-14	18:48:07	18:54:23	373288	5cab7cc86d3a6e001519d9e9	518999427	1	main_slash	7	main_slash	19	stimuli_distractor_diamondtriangles.svg	stimuli_target_squarediamonds.svg	16	yes	53	1	756
6.6.1	win	2022-12-14	18:48:07	18:54:23	373288	5cab7cc86d3a6e001519d9e9	518999427	1	main_slash	7	advance_on_keypress_SLASH	20	stimuli_distractor_diamondtriangles.svg	stimuli_target_squarediamonds.svg	16	yes	57	0	653
6.6.1	win	2022-12-14	18:48:07	18:54:25	375392	5cab7cc86d3a6e001519d9e9	518999427	1	main_slash	7	main_slash	21	stimuli_distractor_trianglediamonds.svg	stimuli_target_squarediamonds.svg	12	yes	53	1	793
6.6.1	win	2022-12-14	18:48:07	18:54:25	375392	5cab7cc86d3a6e001519d9e9	518999427	1	main_slash	7	advance_on_keypress_SLASH	22	stimuli_distractor_trianglediamonds.svg	stimuli_target_squarediamonds.svg	12	yes	57	0	657
6.6.1	win	2022-12-14	18:48:07	18:54:29	378699	5cab7cc86d3a6e001519d9e9	518999427	1	main_slash	7	main_slash	23	stimuli_distractor_trianglediamonds.svg	stimuli_distractor_diamondtriangles.svg	36	no	0	1	2000
6.6.1	win	2022-12-14	18:48:07	18:54:29	378699	5cab7cc86d3a6e001519d9e9	518999427	1	main_slash	7	advance_on_keypress_SLASH	24	stimuli_distractor_trianglediamonds.svg	stimuli_distractor_diamondtriangles.svg	36	no	57	0	525
6.6.1	win	2022-12-14	18:48:07	18:54:31	381384	5cab7cc86d3a6e001519d9e9	518999427	1	main_slash	7	main_slash	25	stimuli_distractor_trianglediamonds.svg	stimuli_distractor_trianglediamonds.svg	34	no	53	0	1519
6.6.1	win	2022-12-14	18:48:07	18:54:31	381384	5cab7cc86d3a6e001519d9e9	518999427	1	main_slash	7	advance_on_keypress_SLASH	26	stimuli_distractor_trianglediamonds.svg	stimuli_distractor_trianglediamonds.svg	34	no	57	0	634
6.6.1	win	2022-12-14	18:48:07	18:54:34	383608	5cab7cc86d3a6e001519d9e9	518999427	1	main_slash	7	main_slash	27	stimuli_distractor_diamondtriangles.svg	stimuli_target_circletriangles.svg	13	yes	53	1	943
6.6.1	win	2022-12-14	18:48:07	18:54:34	383608	5cab7cc86d3a6e001519d9e9	518999427	1	main_slash	7	advance_on_keypress_SLASH	28	stimuli_distractor_diamondtriangles.svg	stimuli_target_circletriangles.svg	13	yes	57	0	681
6.6.1	win	2022-12-14	18:48:07	18:54:36	386313	5cab7cc86d3a6e001519d9e9	518999427	1	main_slash	7	main_slash	29	stimuli_distractor_diamondtriangles.svg	stimuli_distractor_trianglediamonds.svg	37	no	53	0	1364
6.6.1	win	2022-12-14	18:48:07	18:54:36	386313	5cab7cc86d3a6e001519d9e9	518999427	1	main_slash	7	advance_on_keypress_SLASH	30	stimuli_distractor_diamondtriangles.svg	stimuli_distractor_trianglediamonds.svg	37	no	57	0	541
6.6.1	win	2022-12-14	18:48:07	18:54:38	388441	5cab7cc86d3a6e001519d9e9	518999427	1	main_slash	7	main_slash	31	stimuli_target_circletriangles.svg	stimuli_distractor_trianglediamonds.svg	1	yes	53	1	942
6.6.1	win	2022-12-14	18:48:07	18:54:38	388441	5cab7cc86d3a6e001519d9e9	518999427	1	main_slash	7	advance_on_keypress_SLASH	32	stimuli_target_circletriangles.svg	stimuli_distractor_trianglediamonds.svg	1	yes	57	0	552
6.6.1	win	2022-12-14	18:48:07	18:54:41	390689	5cab7cc86d3a6e001519d9e9	518999427	1	main_slash	7	main_slash	33	stimuli_target_diamondsquares.svg	stimuli_distractor_trianglediamonds.svg	20	yes	53	1	1040
6.6.1	win	2022-12-14	18:48:07	18:54:41	390689	5cab7cc86d3a6e001519d9e9	518999427	1	main_slash	7	advance_on_keypress_SLASH	34	stimuli_target_diamondsquares.svg	stimuli_distractor_trianglediamonds.svg	20	yes	57	0	558
6.6.1	win	2022-12-14	18:48:07	18:54:43	393345	5cab7cc86d3a6e001519d9e9	518999427	1	main_slash	7	main_slash	35	stimuli_distractor_diamondtriangles.svg	stimuli_target_circlediamonds.svg	14	yes	53	1	1446
6.6.1	win	2022-12-14	18:48:07	18:54:43	393345	5cab7cc86d3a6e001519d9e9	518999427	1	main_slash	7	advance_on_keypress_SLASH	36	stimuli_distractor_diamondtriangles.svg	stimuli_target_circlediamonds.svg	14	yes	57	0	452
6.6.1	win	2022-12-14	18:48:07	18:54:45	395377	5cab7cc86d3a6e001519d9e9	518999427	1	main_slash	7	main_slash	37	stimuli_target_trianglecircles.svg	stimuli_distractor_diamondtriangles.svg	21	yes	53	1	928
6.6.1	win	2022-12-14	18:48:07	18:54:45	395377	5cab7cc86d3a6e001519d9e9	518999427	1	main_slash	7	advance_on_keypress_SLASH	38	stimuli_target_trianglecircles.svg	stimuli_distractor_diamondtriangles.svg	21	yes	57	0	555
6.6.1	win	2022-12-14	18:48:07	18:54:47	397520	5cab7cc86d3a6e001519d9e9	518999427	1	main_slash	7	main_slash	39	stimuli_distractor_diamondtriangles.svg	stimuli_target_trianglesquares.svg	30	yes	53	1	939
6.6.1	win	2022-12-14	18:48:07	18:54:47	397520	5cab7cc86d3a6e001519d9e9	518999427	1	main_slash	7	advance_on_keypress_SLASH	40	stimuli_distractor_diamondtriangles.svg	stimuli_target_trianglesquares.svg	30	yes	57	0	421
6.6.1	win	2022-12-14	18:48:07	18:54:49	399417	5cab7cc86d3a6e001519d9e9	518999427	1	main_slash	7	main_slash	41	stimuli_target_squaretriangles.svg	stimuli_distractor_trianglediamonds.svg	3	yes	53	1	819
6.6.1	win	2022-12-14	18:48:07	18:54:49	399417	5cab7cc86d3a6e001519d9e9	518999427	1	main_slash	7	advance_on_keypress_SLASH	42	stimuli_target_squaretriangles.svg	stimuli_distractor_trianglediamonds.svg	3	yes	57	0	409
6.6.1	win	2022-12-14	18:48:07	18:54:51	401185	5cab7cc86d3a6e001519d9e9	518999427	1	main_slash	7	main_slash	43	stimuli_target_diamondcircles.svg	stimuli_distractor_diamondtriangles.svg	23	yes	53	1	720
6.6.1	win	2022-12-14	18:48:07	18:54:51	401185	5cab7cc86d3a6e001519d9e9	518999427	1	main_slash	7	advance_on_keypress_SLASH	44	stimuli_target_diamondcircles.svg	stimuli_distractor_diamondtriangles.svg	23	yes	57	0	475
6.6.1	win	2022-12-14	18:48:07	18:54:53	403121	5cab7cc86d3a6e001519d9e9	518999427	1	main_slash	7	main_slash	45	stimuli_target_trianglesquares.svg	stimuli_distractor_diamondtriangles.svg	22	yes	53	1	823
6.6.1	win	2022-12-14	18:48:07	18:54:53	403121	5cab7cc86d3a6e001519d9e9	518999427	1	main_slash	7	advance_on_keypress_SLASH	46	stimuli_target_trianglesquares.svg	stimuli_distractor_diamondtriangles.svg	22	yes	57	0	413
6.6.1	win	2022-12-14	18:48:07	18:54:56	406182	5cab7cc86d3a6e001519d9e9	518999427	1	main_slash	7	main_slash	47	stimuli_distractor_diamondtriangles.svg	stimuli_distractor_diamondtriangles.svg	40	no	0	1	2000
6.6.1	win	2022-12-14	18:48:07	18:54:56	406182	5cab7cc86d3a6e001519d9e9	518999427	1	main_slash	7	advance_on_keypress_SLASH	48	stimuli_distractor_diamondtriangles.svg	stimuli_distractor_diamondtriangles.svg	40	no	57	0	347
6.6.1	win	2022-12-14	18:48:07	18:54:58	407953	5cab7cc86d3a6e001519d9e9	518999427	1	main_slash	7	main_slash	49	stimuli_target_circlediamonds.svg	stimuli_distractor_trianglediamonds.svg	2	yes	53	1	772
6.6.1	win	2022-12-14	18:48:07	18:54:58	407953	5cab7cc86d3a6e001519d9e9	518999427	1	main_slash	7	advance_on_keypress_SLASH	50	stimuli_target_circlediamonds.svg	stimuli_distractor_trianglediamonds.svg	2	yes	57	0	428
6.6.1	win	2022-12-14	18:48:07	18:55:00	409712	5cab7cc86d3a6e001519d9e9	518999427	1	main_slash	7	main_slash	51	stimuli_distractor_trianglediamonds.svg	stimuli_target_circlediamonds.svg	10	yes	53	1	682
6.6.1	win	2022-12-14	18:48:07	18:55:00	409712	5cab7cc86d3a6e001519d9e9	518999427	1	main_slash	7	advance_on_keypress_SLASH	52	stimuli_distractor_trianglediamonds.svg	stimuli_target_circlediamonds.svg	10	yes	57	0	510
6.6.1	win	2022-12-14	18:48:07	18:55:02	411593	5cab7cc86d3a6e001519d9e9	518999427	1	main_slash	7	main_slash	53	stimuli_distractor_diamondtriangles.svg	stimuli_target_diamondsquares.svg	32	yes	53	1	729
6.6.1	win	2022-12-14	18:48:07	18:55:02	411593	5cab7cc86d3a6e001519d9e9	518999427	1	main_slash	7	advance_on_keypress_SLASH	54	stimuli_distractor_diamondtriangles.svg	stimuli_target_diamondsquares.svg	32	yes	57	0	499
6.6.1	win	2022-12-14	18:48:07	18:55:03	413529	5cab7cc86d3a6e001519d9e9	518999427	1	main_slash	7	main_slash	55	stimuli_target_trianglecircles.svg	stimuli_distractor_trianglediamonds.svg	17	yes	53	1	782
6.6.1	win	2022-12-14	18:48:07	18:55:03	413529	5cab7cc86d3a6e001519d9e9	518999427	1	main_slash	7	advance_on_keypress_SLASH	56	stimuli_target_trianglecircles.svg	stimuli_distractor_trianglediamonds.svg	17	yes	57	0	494
6.6.1	win	2022-12-14	18:48:07	18:55:05	415512	5cab7cc86d3a6e001519d9e9	518999427	1	main_slash	7	main_slash	57	stimuli_target_squarediamonds.svg	stimuli_distractor_trianglediamonds.svg	4	yes	53	1	849
6.6.1	win	2022-12-14	18:48:07	18:55:05	415512	5cab7cc86d3a6e001519d9e9	518999427	1	main_slash	7	advance_on_keypress_SLASH	58	stimuli_target_squarediamonds.svg	stimuli_distractor_trianglediamonds.svg	4	yes	57	0	350
6.6.1	win	2022-12-14	18:48:07	18:55:08	418515	5cab7cc86d3a6e001519d9e9	518999427	1	main_slash	7	main_slash	59	stimuli_distractor_trianglediamonds.svg	stimuli_distractor_diamondtriangles.svg	35	no	0	1	2000
6.6.1	win	2022-12-14	18:48:07	18:55:08	418515	5cab7cc86d3a6e001519d9e9	518999427	1	main_slash	7	advance_on_keypress_SLASH	60	stimuli_distractor_trianglediamonds.svg	stimuli_distractor_diamondtriangles.svg	35	no	57	0	415
6.6.1	win	2022-12-14	18:48:07	18:55:10	420417	5cab7cc86d3a6e001519d9e9	518999427	1	main_slash	7	main_slash	61	stimuli_distractor_trianglediamonds.svg	stimuli_target_squaretriangles.svg	11	yes	53	1	837
6.6.1	win	2022-12-14	18:48:07	18:55:10	420417	5cab7cc86d3a6e001519d9e9	518999427	1	main_slash	7	advance_on_keypress_SLASH	62	stimuli_distractor_trianglediamonds.svg	stimuli_target_squaretriangles.svg	11	yes	57	0	483
6.6.1	win	2022-12-14	18:48:07	18:55:12	422298	5cab7cc86d3a6e001519d9e9	518999427	1	main_slash	7	main_slash	63	stimuli_target_diamondcircles.svg	stimuli_distractor_trianglediamonds.svg	19	yes	53	1	750
6.6.1	win	2022-12-14	18:48:07	18:55:12	422298	5cab7cc86d3a6e001519d9e9	518999427	1	main_slash	7	advance_on_keypress_SLASH	64	stimuli_target_diamondcircles.svg	stimuli_distractor_trianglediamonds.svg	19	yes	57	0	359
6.6.1	win	2022-12-14	18:48:07	18:55:14	424153	5cab7cc86d3a6e001519d9e9	518999427	1	main_slash	7	main_slash	65	stimuli_distractor_diamondtriangles.svg	stimuli_distractor_trianglediamonds.svg	38	no	53	0	856
6.6.1	win	2022-12-14	18:48:07	18:55:14	424153	5cab7cc86d3a6e001519d9e9	518999427	1	main_slash	7	advance_on_keypress_SLASH	66	stimuli_distractor_diamondtriangles.svg	stimuli_distractor_trianglediamonds.svg	38	no	57	0	357
6.6.1	win	2022-12-14	18:48:07	18:55:17	427165	5cab7cc86d3a6e001519d9e9	518999427	1	main_slash	7	main_slash	67	stimuli_distractor_diamondtriangles.svg	stimuli_distractor_diamondtriangles.svg	39	no	0	1	2000
6.6.1	win	2022-12-14	18:48:07	18:55:17	427165	5cab7cc86d3a6e001519d9e9	518999427	1	main_slash	7	advance_on_keypress_SLASH	68	stimuli_distractor_diamondtriangles.svg	stimuli_distractor_diamondtriangles.svg	39	no	57	0	301
6.6.1	win	2022-12-14	18:48:07	18:55:19	428856	5cab7cc86d3a6e001519d9e9	518999427	1	main_slash	7	main_slash	69	stimuli_target_squaretriangles.svg	stimuli_distractor_diamondtriangles.svg	7	yes	53	1	744
6.6.1	win	2022-12-14	18:48:07	18:55:19	428856	5cab7cc86d3a6e001519d9e9	518999427	1	main_slash	7	advance_on_keypress_SLASH	70	stimuli_target_squaretriangles.svg	stimuli_distractor_diamondtriangles.svg	7	yes	57	0	401
6.6.1	win	2022-12-14	18:48:07	18:55:21	430608	5cab7cc86d3a6e001519d9e9	518999427	1	main_slash	7	main_slash	71	stimuli_distractor_diamondtriangles.svg	stimuli_target_diamondcircles.svg	31	yes	53	1	696
6.6.1	win	2022-12-14	18:48:07	18:55:21	430608	5cab7cc86d3a6e001519d9e9	518999427	1	main_slash	7	advance_on_keypress_SLASH	72	stimuli_distractor_diamondtriangles.svg	stimuli_target_diamondcircles.svg	31	yes	57	0	323
6.6.1	win	2022-12-14	18:48:07	18:55:22	432201	5cab7cc86d3a6e001519d9e9	518999427	1	main_slash	7	main_slash	73	stimuli_distractor_trianglediamonds.svg	stimuli_target_diamondcircles.svg	27	yes	53	1	621
6.6.1	win	2022-12-14	18:48:07	18:55:22	432201	5cab7cc86d3a6e001519d9e9	518999427	1	main_slash	7	advance_on_keypress_SLASH	74	stimuli_distractor_trianglediamonds.svg	stimuli_target_diamondcircles.svg	27	yes	57	0	339
6.6.1	win	2022-12-14	18:48:07	18:55:24	433865	5cab7cc86d3a6e001519d9e9	518999427	1	main_slash	7	main_slash	75	stimuli_target_circletriangles.svg	stimuli_distractor_diamondtriangles.svg	5	yes	53	1	669
6.6.1	win	2022-12-14	18:48:07	18:55:24	433865	5cab7cc86d3a6e001519d9e9	518999427	1	main_slash	7	advance_on_keypress_SLASH	76	stimuli_target_circletriangles.svg	stimuli_distractor_diamondtriangles.svg	5	yes	57	0	257
6.6.1	win	2022-12-14	18:48:07	18:55:25	435440	5cab7cc86d3a6e001519d9e9	518999427	1	main_slash	7	main_slash	77	stimuli_distractor_diamondtriangles.svg	stimuli_target_squaretriangles.svg	15	yes	53	1	678
6.6.1	win	2022-12-14	18:48:07	18:55:25	435440	5cab7cc86d3a6e001519d9e9	518999427	1	main_slash	7	advance_on_keypress_SLASH	78	stimuli_distractor_diamondtriangles.svg	stimuli_target_squaretriangles.svg	15	yes	57	0	258
6.6.1	win	2022-12-14	18:48:07	18:55:27	437185	5cab7cc86d3a6e001519d9e9	518999427	1	main_slash	7	main_slash	79	stimuli_distractor_trianglediamonds.svg	stimuli_target_diamondsquares.svg	28	yes	53	1	839
6.6.1	win	2022-12-14	18:48:07	18:55:27	437185	5cab7cc86d3a6e001519d9e9	518999427	1	main_slash	7	advance_on_keypress_SLASH	80	stimuli_distractor_trianglediamonds.svg	stimuli_target_diamondsquares.svg	28	yes	57	0	268
6.6.1	win	2022-12-14	18:48:07	18:55:29	438753	5cab7cc86d3a6e001519d9e9	518999427	1	main_slash	7	main_slash	81	stimuli_distractor_trianglediamonds.svg	stimuli_target_trianglecircles.svg	25	yes	53	1	640
6.6.1	win	2022-12-14	18:48:07	18:55:29	438753	5cab7cc86d3a6e001519d9e9	518999427	1	main_slash	7	advance_on_keypress_SLASH	82	stimuli_distractor_trianglediamonds.svg	stimuli_target_trianglecircles.svg	25	yes	57	0	286
6.6.1	win	2022-12-14	18:48:07	18:55:30	440377	5cab7cc86d3a6e001519d9e9	518999427	1	main_slash	7	main_slash	83	stimuli_target_circletriangles.svg	stimuli_distractor_trianglediamonds.svg	1	yes	53	1	681
6.6.1	win	2022-12-14	18:48:07	18:55:30	440377	5cab7cc86d3a6e001519d9e9	518999427	1	main_slash	7	advance_on_keypress_SLASH	84	stimuli_target_circletriangles.svg	stimuli_distractor_trianglediamonds.svg	1	yes	57	0	197
6.6.1	win	2022-12-14	18:48:07	18:55:33	443230	5cab7cc86d3a6e001519d9e9	518999427	1	main_slash	7	main_slash	85	stimuli_distractor_diamondtriangles.svg	stimuli_distractor_diamondtriangles.svg	40	no	0	1	2000
6.6.1	win	2022-12-14	18:48:07	18:55:33	443230	5cab7cc86d3a6e001519d9e9	518999427	1	main_slash	7	advance_on_keypress_SLASH	86	stimuli_distractor_diamondtriangles.svg	stimuli_distractor_diamondtriangles.svg	40	no	57	0	315
6.6.1	win	2022-12-14	18:48:07	18:55:35	444897	5cab7cc86d3a6e001519d9e9	518999427	1	main_slash	7	main_slash	87	stimuli_target_squarediamonds.svg	stimuli_distractor_diamondtriangles.svg	8	yes	53	1	701
6.6.1	win	2022-12-14	18:48:07	18:55:35	444897	5cab7cc86d3a6e001519d9e9	518999427	1	main_slash	7	advance_on_keypress_SLASH	88	stimuli_target_squarediamonds.svg	stimuli_distractor_diamondtriangles.svg	8	yes	57	0	313
6.6.1	win	2022-12-14	18:48:07	18:55:38	447847	5cab7cc86d3a6e001519d9e9	518999427	1	main_slash	7	main_slash	89	stimuli_distractor_diamondtriangles.svg	stimuli_distractor_diamondtriangles.svg	39	no	0	1	2000
6.6.1	win	2022-12-14	18:48:07	18:55:38	447847	5cab7cc86d3a6e001519d9e9	518999427	1	main_slash	7	advance_on_keypress_SLASH	90	stimuli_distractor_diamondtriangles.svg	stimuli_distractor_diamondtriangles.svg	39	no	57	0	379
6.6.1	win	2022-12-14	18:48:07	18:55:41	450863	5cab7cc86d3a6e001519d9e9	518999427	1	main_slash	7	main_slash	91	stimuli_distractor_trianglediamonds.svg	stimuli_distractor_trianglediamonds.svg	33	no	0	1	2000
6.6.1	win	2022-12-14	18:48:07	18:55:41	450863	5cab7cc86d3a6e001519d9e9	518999427	1	main_slash	7	advance_on_keypress_SLASH	92	stimuli_distractor_trianglediamonds.svg	stimuli_distractor_trianglediamonds.svg	33	no	57	0	330
6.6.1	win	2022-12-14	18:48:07	18:55:43	452665	5cab7cc86d3a6e001519d9e9	518999427	1	main_slash	7	main_slash	93	stimuli_distractor_diamondtriangles.svg	stimuli_target_squaretriangles.svg	15	yes	53	1	820
6.6.1	win	2022-12-14	18:48:07	18:55:43	452665	5cab7cc86d3a6e001519d9e9	518999427	1	main_slash	7	advance_on_keypress_SLASH	94	stimuli_distractor_diamondtriangles.svg	stimuli_target_squaretriangles.svg	15	yes	57	0	602
6.6.1	win	2022-12-14	18:48:07	18:55:45	454824	5cab7cc86d3a6e001519d9e9	518999427	1	main_slash	7	main_slash	95	stimuli_target_diamondsquares.svg	stimuli_distractor_trianglediamonds.svg	20	yes	53	1	913
6.6.1	win	2022-12-14	18:48:07	18:55:45	454824	5cab7cc86d3a6e001519d9e9	518999427	1	main_slash	7	advance_on_keypress_SLASH	96	stimuli_target_diamondsquares.svg	stimuli_distractor_trianglediamonds.svg	20	yes	57	0	388
6.6.1	win	2022-12-14	18:48:07	18:55:47	456657	5cab7cc86d3a6e001519d9e9	518999427	1	main_slash	7	main_slash	97	stimuli_distractor_trianglediamonds.svg	stimuli_target_diamondsquares.svg	28	yes	53	1	795
6.6.1	win	2022-12-14	18:48:07	18:55:47	456657	5cab7cc86d3a6e001519d9e9	518999427	1	main_slash	7	advance_on_keypress_SLASH	98	stimuli_distractor_trianglediamonds.svg	stimuli_target_diamondsquares.svg	28	yes	57	0	243
6.6.1	win	2022-12-14	18:48:07	18:55:49	458746	5cab7cc86d3a6e001519d9e9	518999427	1	main_slash	7	main_slash	99	stimuli_distractor_diamondtriangles.svg	stimuli_target_diamondcircles.svg	31	yes	53	1	1200
6.6.1	win	2022-12-14	18:48:07	18:55:49	458746	5cab7cc86d3a6e001519d9e9	518999427	1	main_slash	7	advance_on_keypress_SLASH	100	stimuli_distractor_diamondtriangles.svg	stimuli_target_diamondcircles.svg	31	yes	57	0	278
6.6.1	win	2022-12-14	18:48:07	18:55:50	460417	5cab7cc86d3a6e001519d9e9	518999427	1	main_slash	7	main_slash	101	stimuli_distractor_trianglediamonds.svg	stimuli_target_circlediamonds.svg	10	yes	53	1	755
6.6.1	win	2022-12-14	18:48:07	18:55:50	460417	5cab7cc86d3a6e001519d9e9	518999427	1	main_slash	7	advance_on_keypress_SLASH	102	stimuli_distractor_trianglediamonds.svg	stimuli_target_circlediamonds.svg	10	yes	57	0	268
6.6.1	win	2022-12-14	18:48:07	18:55:52	462113	5cab7cc86d3a6e001519d9e9	518999427	1	main_slash	7	main_slash	103	stimuli_target_trianglecircles.svg	stimuli_distractor_diamondtriangles.svg	21	yes	53	1	768
6.6.1	win	2022-12-14	18:48:07	18:55:52	462113	5cab7cc86d3a6e001519d9e9	518999427	1	main_slash	7	advance_on_keypress_SLASH	104	stimuli_target_trianglecircles.svg	stimuli_distractor_diamondtriangles.svg	21	yes	57	0	289
6.6.1	win	2022-12-14	18:48:07	18:55:55	465046	5cab7cc86d3a6e001519d9e9	518999427	1	main_slash	7	main_slash	105	stimuli_distractor_diamondtriangles.svg	stimuli_distractor_trianglediamonds.svg	37	no	0	1	2000
6.6.1	win	2022-12-14	18:48:07	18:55:55	465046	5cab7cc86d3a6e001519d9e9	518999427	1	main_slash	7	advance_on_keypress_SLASH	106	stimuli_distractor_diamondtriangles.svg	stimuli_distractor_trianglediamonds.svg	37	no	57	0	332
6.6.1	win	2022-12-14	18:48:07	18:55:57	466881	5cab7cc86d3a6e001519d9e9	518999427	1	main_slash	7	main_slash	107	stimuli_target_trianglesquares.svg	stimuli_distractor_trianglediamonds.svg	18	yes	53	1	853
6.6.1	win	2022-12-14	18:48:07	18:55:57	466881	5cab7cc86d3a6e001519d9e9	518999427	1	main_slash	7	advance_on_keypress_SLASH	108	stimuli_target_trianglesquares.svg	stimuli_distractor_trianglediamonds.svg	18	yes	57	0	259
6.6.1	win	2022-12-14	18:48:07	18:55:58	468546	5cab7cc86d3a6e001519d9e9	518999427	1	main_slash	7	main_slash	109	stimuli_target_circlediamonds.svg	stimuli_distractor_trianglediamonds.svg	2	yes	53	1	767
6.6.1	win	2022-12-14	18:48:07	18:55:58	468546	5cab7cc86d3a6e001519d9e9	518999427	1	main_slash	7	advance_on_keypress_SLASH	110	stimuli_target_circlediamonds.svg	stimuli_distractor_trianglediamonds.svg	2	yes	57	0	255
6.6.1	win	2022-12-14	18:48:07	18:56:00	470121	5cab7cc86d3a6e001519d9e9	518999427	1	main_slash	7	main_slash	111	stimuli_target_circletriangles.svg	stimuli_distractor_diamondtriangles.svg	5	yes	53	1	677
6.6.1	win	2022-12-14	18:48:07	18:56:00	470121	5cab7cc86d3a6e001519d9e9	518999427	1	main_slash	7	advance_on_keypress_SLASH	112	stimuli_target_circletriangles.svg	stimuli_distractor_diamondtriangles.svg	5	yes	57	0	345
6.6.1	win	2022-12-14	18:48:07	18:56:02	471816	5cab7cc86d3a6e001519d9e9	518999427	1	main_slash	7	main_slash	113	stimuli_target_squaretriangles.svg	stimuli_distractor_trianglediamonds.svg	3	yes	53	1	706
6.6.1	win	2022-12-14	18:48:07	18:56:02	471816	5cab7cc86d3a6e001519d9e9	518999427	1	main_slash	7	advance_on_keypress_SLASH	114	stimuli_target_squaretriangles.svg	stimuli_distractor_trianglediamonds.svg	3	yes	57	0	221
6.6.1	win	2022-12-14	18:48:07	18:56:04	474440	5cab7cc86d3a6e001519d9e9	518999427	1	main_slash	7	main_slash	115	stimuli_distractor_trianglediamonds.svg	stimuli_distractor_diamondtriangles.svg	35	no	53	0	1747
6.6.1	win	2022-12-14	18:48:07	18:56:04	474440	5cab7cc86d3a6e001519d9e9	518999427	1	main_slash	7	advance_on_keypress_SLASH	116	stimuli_distractor_trianglediamonds.svg	stimuli_distractor_diamondtriangles.svg	35	no	57	0	332
6.6.1	win	2022-12-14	18:48:07	18:56:06	476273	5cab7cc86d3a6e001519d9e9	518999427	1	main_slash	7	main_slash	117	stimuli_distractor_trianglediamonds.svg	stimuli_target_trianglesquares.svg	26	yes	53	1	846
6.6.1	win	2022-12-14	18:48:07	18:56:06	476273	5cab7cc86d3a6e001519d9e9	518999427	1	main_slash	7	advance_on_keypress_SLASH	118	stimuli_distractor_trianglediamonds.svg	stimuli_target_trianglesquares.svg	26	yes	57	0	362
6.6.1	win	2022-12-14	18:48:07	18:56:08	478008	5cab7cc86d3a6e001519d9e9	518999427	1	main_slash	7	main_slash	119	stimuli_distractor_diamondtriangles.svg	stimuli_target_trianglecircles.svg	29	yes	53	1	732
6.6.1	win	2022-12-14	18:48:07	18:56:08	478008	5cab7cc86d3a6e001519d9e9	518999427	1	main_slash	7	advance_on_keypress_SLASH	120	stimuli_distractor_diamondtriangles.svg	stimuli_target_trianglecircles.svg	29	yes	57	0	294
6.6.1	win	2022-12-14	18:48:07	18:56:11	480945	5cab7cc86d3a6e001519d9e9	518999427	1	main_slash	7	main_slash	121	stimuli_distractor_diamondtriangles.svg	stimuli_distractor_trianglediamonds.svg	38	no	0	1	2000
6.6.1	win	2022-12-14	18:48:07	18:56:11	480945	5cab7cc86d3a6e001519d9e9	518999427	1	main_slash	7	advance_on_keypress_SLASH	122	stimuli_distractor_diamondtriangles.svg	stimuli_distractor_trianglediamonds.svg	38	no	57	0	321
6.6.1	win	2022-12-14	18:48:07	18:56:14	483912	5cab7cc86d3a6e001519d9e9	518999427	1	main_slash	7	main_slash	123	stimuli_distractor_trianglediamonds.svg	stimuli_distractor_diamondtriangles.svg	36	no	0	1	2000
6.6.1	win	2022-12-14	18:48:07	18:56:14	483912	5cab7cc86d3a6e001519d9e9	518999427	1	main_slash	7	advance_on_keypress_SLASH	124	stimuli_distractor_trianglediamonds.svg	stimuli_distractor_diamondtriangles.svg	36	no	57	0	338
6.6.1	win	2022-12-14	18:48:07	18:56:16	485864	5cab7cc86d3a6e001519d9e9	518999427	1	main_slash	7	main_slash	125	stimuli_target_trianglesquares.svg	stimuli_distractor_diamondtriangles.svg	22	yes	53	1	971
6.6.1	win	2022-12-14	18:48:07	18:56:16	485864	5cab7cc86d3a6e001519d9e9	518999427	1	main_slash	7	advance_on_keypress_SLASH	126	stimuli_target_trianglesquares.svg	stimuli_distractor_diamondtriangles.svg	22	yes	57	0	412
6.6.1	win	2022-12-14	18:48:07	18:56:18	487578	5cab7cc86d3a6e001519d9e9	518999427	1	main_slash	7	main_slash	127	stimuli_target_diamondcircles.svg	stimuli_distractor_trianglediamonds.svg	19	yes	53	1	667
6.6.1	win	2022-12-14	18:48:07	18:56:18	487578	5cab7cc86d3a6e001519d9e9	518999427	1	main_slash	7	advance_on_keypress_SLASH	128	stimuli_target_diamondcircles.svg	stimuli_distractor_trianglediamonds.svg	19	yes	57	0	328
6.6.1	win	2022-12-14	18:48:07	18:56:19	489424	5cab7cc86d3a6e001519d9e9	518999427	1	main_slash	7	main_slash	129	stimuli_target_diamondsquares.svg	stimuli_distractor_diamondtriangles.svg	24	yes	53	1	882
6.6.1	win	2022-12-14	18:48:07	18:56:19	489424	5cab7cc86d3a6e001519d9e9	518999427	1	main_slash	7	advance_on_keypress_SLASH	130	stimuli_target_diamondsquares.svg	stimuli_distractor_diamondtriangles.svg	24	yes	57	0	238
6.6.1	win	2022-12-14	18:48:07	18:56:21	490920	5cab7cc86d3a6e001519d9e9	518999427	1	main_slash	7	main_slash	131	stimuli_target_trianglecircles.svg	stimuli_distractor_trianglediamonds.svg	17	yes	53	1	611
6.6.1	win	2022-12-14	18:48:07	18:56:21	490920	5cab7cc86d3a6e001519d9e9	518999427	1	main_slash	7	advance_on_keypress_SLASH	132	stimuli_target_trianglecircles.svg	stimuli_distractor_trianglediamonds.svg	17	yes	57	0	306
6.6.1	win	2022-12-14	18:48:07	18:56:22	492488	5cab7cc86d3a6e001519d9e9	518999427	1	main_slash	7	main_slash	133	stimuli_distractor_diamondtriangles.svg	stimuli_target_trianglesquares.svg	30	yes	53	1	613
6.6.1	win	2022-12-14	18:48:07	18:56:22	492488	5cab7cc86d3a6e001519d9e9	518999427	1	main_slash	7	advance_on_keypress_SLASH	134	stimuli_distractor_diamondtriangles.svg	stimuli_target_trianglesquares.svg	30	yes	57	0	275
6.6.1	win	2022-12-14	18:48:07	18:56:24	494129	5cab7cc86d3a6e001519d9e9	518999427	1	main_slash	7	main_slash	135	stimuli_target_diamondcircles.svg	stimuli_distractor_diamondtriangles.svg	23	yes	53	1	719
6.6.1	win	2022-12-14	18:48:07	18:56:24	494129	5cab7cc86d3a6e001519d9e9	518999427	1	main_slash	7	advance_on_keypress_SLASH	136	stimuli_target_diamondcircles.svg	stimuli_distractor_diamondtriangles.svg	23	yes	57	0	226
6.6.1	win	2022-12-14	18:48:07	18:56:26	495721	5cab7cc86d3a6e001519d9e9	518999427	1	main_slash	7	main_slash	137	stimuli_distractor_diamondtriangles.svg	stimuli_target_circletriangles.svg	13	yes	53	1	728
6.6.1	win	2022-12-14	18:48:07	18:56:26	495721	5cab7cc86d3a6e001519d9e9	518999427	1	main_slash	7	advance_on_keypress_SLASH	138	stimuli_distractor_diamondtriangles.svg	stimuli_target_circletriangles.svg	13	yes	57	0	266
6.6.1	win	2022-12-14	18:48:07	18:56:27	497368	5cab7cc86d3a6e001519d9e9	518999427	1	main_slash	7	main_slash	139	stimuli_distractor_trianglediamonds.svg	stimuli_target_squarediamonds.svg	12	yes	53	1	726
6.6.1	win	2022-12-14	18:48:07	18:56:27	497368	5cab7cc86d3a6e001519d9e9	518999427	1	main_slash	7	advance_on_keypress_SLASH	140	stimuli_distractor_trianglediamonds.svg	stimuli_target_squarediamonds.svg	12	yes	57	0	240
6.6.1	win	2022-12-14	18:48:07	18:56:29	498952	5cab7cc86d3a6e001519d9e9	518999427	1	main_slash	7	main_slash	141	stimuli_distractor_trianglediamonds.svg	stimuli_target_squaretriangles.svg	11	yes	53	1	693
6.6.1	win	2022-12-14	18:48:07	18:56:29	498952	5cab7cc86d3a6e001519d9e9	518999427	1	main_slash	7	advance_on_keypress_SLASH	142	stimuli_distractor_trianglediamonds.svg	stimuli_target_squaretriangles.svg	11	yes	57	0	264
6.6.1	win	2022-12-14	18:48:07	18:56:31	500665	5cab7cc86d3a6e001519d9e9	518999427	1	main_slash	7	main_slash	143	stimuli_distractor_trianglediamonds.svg	stimuli_distractor_trianglediamonds.svg	34	no	53	0	789
6.6.1	win	2022-12-14	18:48:07	18:56:31	500665	5cab7cc86d3a6e001519d9e9	518999427	1	main_slash	7	advance_on_keypress_SLASH	144	stimuli_distractor_trianglediamonds.svg	stimuli_distractor_trianglediamonds.svg	34	no	57	0	260
6.6.1	win	2022-12-14	18:48:07	18:56:32	502280	5cab7cc86d3a6e001519d9e9	518999427	1	main_slash	7	main_slash	145	stimuli_target_squarediamonds.svg	stimuli_distractor_trianglediamonds.svg	4	yes	53	1	705
6.6.1	win	2022-12-14	18:48:07	18:56:32	502280	5cab7cc86d3a6e001519d9e9	518999427	1	main_slash	7	advance_on_keypress_SLASH	146	stimuli_target_squarediamonds.svg	stimuli_distractor_trianglediamonds.svg	4	yes	57	0	260
6.6.1	win	2022-12-14	18:48:07	18:56:34	503857	5cab7cc86d3a6e001519d9e9	518999427	1	main_slash	7	main_slash	147	stimuli_distractor_diamondtriangles.svg	stimuli_target_diamondsquares.svg	32	yes	53	1	665
6.6.1	win	2022-12-14	18:48:07	18:56:34	503857	5cab7cc86d3a6e001519d9e9	518999427	1	main_slash	7	advance_on_keypress_SLASH	148	stimuli_distractor_diamondtriangles.svg	stimuli_target_diamondsquares.svg	32	yes	57	0	236
6.6.1	win	2022-12-14	18:48:07	18:56:35	505425	5cab7cc86d3a6e001519d9e9	518999427	1	main_slash	7	main_slash	149	stimuli_distractor_trianglediamonds.svg	stimuli_target_diamondcircles.svg	27	yes	53	1	683
6.6.1	win	2022-12-14	18:48:07	18:56:35	505425	5cab7cc86d3a6e001519d9e9	518999427	1	main_slash	7	advance_on_keypress_SLASH	150	stimuli_distractor_trianglediamonds.svg	stimuli_target_diamondcircles.svg	27	yes	57	0	199
6.6.1	win	2022-12-14	18:48:07	18:56:37	506960	5cab7cc86d3a6e001519d9e9	518999427	1	main_slash	7	main_slash	151	stimuli_distractor_diamondtriangles.svg	stimuli_target_circlediamonds.svg	14	yes	53	1	684
6.6.1	win	2022-12-14	18:48:07	18:56:37	506960	5cab7cc86d3a6e001519d9e9	518999427	1	main_slash	7	advance_on_keypress_SLASH	152	stimuli_distractor_diamondtriangles.svg	stimuli_target_circlediamonds.svg	14	yes	57	0	256
6.6.1	win	2022-12-14	18:48:07	18:56:38	508552	5cab7cc86d3a6e001519d9e9	518999427	1	main_slash	7	main_slash	153	stimuli_distractor_diamondtriangles.svg	stimuli_target_squarediamonds.svg	16	yes	53	1	694
6.6.1	win	2022-12-14	18:48:07	18:56:38	508552	5cab7cc86d3a6e001519d9e9	518999427	1	main_slash	7	advance_on_keypress_SLASH	154	stimuli_distractor_diamondtriangles.svg	stimuli_target_squarediamonds.svg	16	yes	57	0	257
6.6.1	win	2022-12-14	18:48:07	18:56:40	510200	5cab7cc86d3a6e001519d9e9	518999427	1	main_slash	7	main_slash	155	stimuli_target_squaretriangles.svg	stimuli_distractor_diamondtriangles.svg	7	yes	53	1	742
6.6.1	win	2022-12-14	18:48:07	18:56:40	510200	5cab7cc86d3a6e001519d9e9	518999427	1	main_slash	7	advance_on_keypress_SLASH	156	stimuli_target_squaretriangles.svg	stimuli_distractor_diamondtriangles.svg	7	yes	57	0	207
6.6.1	win	2022-12-14	18:48:07	18:56:42	511784	5cab7cc86d3a6e001519d9e9	518999427	1	main_slash	7	main_slash	157	stimuli_distractor_trianglediamonds.svg	stimuli_target_circletriangles.svg	9	yes	53	1	726
6.6.1	win	2022-12-14	18:48:07	18:56:42	511784	5cab7cc86d3a6e001519d9e9	518999427	1	main_slash	7	advance_on_keypress_SLASH	158	stimuli_distractor_trianglediamonds.svg	stimuli_target_circletriangles.svg	9	yes	57	0	232
6.6.1	win	2022-12-14	18:48:07	18:56:43	513377	5cab7cc86d3a6e001519d9e9	518999427	1	main_slash	7	main_slash	159	stimuli_target_circlediamonds.svg	stimuli_distractor_diamondtriangles.svg	6	yes	53	1	702
6.6.1	win	2022-12-14	18:48:07	18:56:43	513377	5cab7cc86d3a6e001519d9e9	518999427	1	main_slash	7	advance_on_keypress_SLASH	160	stimuli_target_circlediamonds.svg	stimuli_distractor_diamondtriangles.svg	6	yes	57	0	233
6.6.1	win	2022-12-14	18:48:07	18:57:06	535937	5cab7cc86d3a6e001519d9e9	518999427	1	practice_z	9	practice_z	1	stimuli_distractor_trianglediamonds.svg	stimuli_target_diamondcircles.svg	12	yes	44	1	747
6.6.1	win	2022-12-14	18:48:07	18:57:06	535937	5cab7cc86d3a6e001519d9e9	518999427	1	practice_z	9	advance_on_keypress_ZEE	2	stimuli_distractor_trianglediamonds.svg	stimuli_target_diamondcircles.svg	12	yes	57	0	620
6.6.1	win	2022-12-14	18:48:07	18:57:09	538984	5cab7cc86d3a6e001519d9e9	518999427	1	practice_z	9	practice_z	3	stimuli_distractor_diamondtriangles.svg	stimuli_target_circletriangles.svg	7	yes	44	1	778
6.6.1	win	2022-12-14	18:48:07	18:57:09	538984	5cab7cc86d3a6e001519d9e9	518999427	1	practice_z	9	advance_on_keypress_ZEE	4	stimuli_distractor_diamondtriangles.svg	stimuli_target_circletriangles.svg	7	yes	57	0	417
6.6.1	win	2022-12-14	18:48:07	18:57:12	541720	5cab7cc86d3a6e001519d9e9	518999427	1	practice_z	9	practice_z	5	stimuli_distractor_diamondtriangles.svg	stimuli_target_diamondcircles.svg	8	yes	44	1	664
6.6.1	win	2022-12-14	18:48:07	18:57:12	541720	5cab7cc86d3a6e001519d9e9	518999427	1	practice_z	9	advance_on_keypress_ZEE	6	stimuli_distractor_diamondtriangles.svg	stimuli_target_diamondcircles.svg	8	yes	57	0	333
6.6.1	win	2022-12-14	18:48:07	18:57:14	544416	5cab7cc86d3a6e001519d9e9	518999427	1	practice_z	9	practice_z	7	stimuli_distractor_trianglediamonds.svg	stimuli_distractor_diamondtriangles.svg	16	no	44	0	710
6.6.1	win	2022-12-14	18:48:07	18:57:14	544416	5cab7cc86d3a6e001519d9e9	518999427	1	practice_z	9	advance_on_keypress_ZEE	8	stimuli_distractor_trianglediamonds.svg	stimuli_distractor_diamondtriangles.svg	16	no	57	0	256
6.6.1	win	2022-12-14	18:48:07	18:57:17	547063	5cab7cc86d3a6e001519d9e9	518999427	1	practice_z	9	practice_z	9	stimuli_distractor_trianglediamonds.svg	stimuli_target_squarediamonds.svg	11	yes	44	1	742
6.6.1	win	2022-12-14	18:48:07	18:57:17	547063	5cab7cc86d3a6e001519d9e9	518999427	1	practice_z	9	advance_on_keypress_ZEE	10	stimuli_distractor_trianglediamonds.svg	stimuli_target_squarediamonds.svg	11	yes	57	0	191
6.6.1	win	2022-12-14	18:48:07	18:57:21	550906	5cab7cc86d3a6e001519d9e9	518999427	1	practice_z	9	practice_z	11	stimuli_distractor_trianglediamonds.svg	stimuli_distractor_trianglediamonds.svg	15	no	0	1	2000
6.6.1	win	2022-12-14	18:48:07	18:57:21	550906	5cab7cc86d3a6e001519d9e9	518999427	1	practice_z	9	advance_on_keypress_ZEE	12	stimuli_distractor_trianglediamonds.svg	stimuli_distractor_trianglediamonds.svg	15	no	57	0	142
6.6.1	win	2022-12-14	18:48:07	18:57:23	553464	5cab7cc86d3a6e001519d9e9	518999427	1	practice_z	9	practice_z	13	stimuli_target_circlediamonds.svg	stimuli_distractor_diamondtriangles.svg	1	yes	44	1	775
6.6.1	win	2022-12-14	18:48:07	18:57:23	553464	5cab7cc86d3a6e001519d9e9	518999427	1	practice_z	9	advance_on_keypress_ZEE	14	stimuli_target_circlediamonds.svg	stimuli_distractor_diamondtriangles.svg	1	yes	57	0	407
6.6.1	win	2022-12-14	18:48:07	18:57:26	556280	5cab7cc86d3a6e001519d9e9	518999427	1	practice_z	9	practice_z	15	stimuli_target_diamondsquares.svg	stimuli_distractor_trianglediamonds.svg	6	yes	44	1	758
6.6.1	win	2022-12-14	18:48:07	18:57:26	556280	5cab7cc86d3a6e001519d9e9	518999427	1	practice_z	9	advance_on_keypress_ZEE	16	stimuli_target_diamondsquares.svg	stimuli_distractor_trianglediamonds.svg	6	yes	57	0	271
6.6.1	win	2022-12-14	18:48:07	18:57:29	558984	5cab7cc86d3a6e001519d9e9	518999427	1	practice_z	9	practice_z	17	stimuli_distractor_diamondtriangles.svg	stimuli_distractor_trianglediamonds.svg	14	no	44	0	779
6.6.1	win	2022-12-14	18:48:07	18:57:29	558984	5cab7cc86d3a6e001519d9e9	518999427	1	practice_z	9	advance_on_keypress_ZEE	18	stimuli_distractor_diamondtriangles.svg	stimuli_distractor_trianglediamonds.svg	14	no	57	0	458
6.6.1	win	2022-12-14	18:48:07	18:57:32	561825	5cab7cc86d3a6e001519d9e9	518999427	1	practice_z	9	practice_z	19	stimuli_target_circlediamonds.svg	stimuli_distractor_trianglediamonds.svg	4	yes	44	1	736
6.6.1	win	2022-12-14	18:48:07	18:57:32	561825	5cab7cc86d3a6e001519d9e9	518999427	1	practice_z	9	advance_on_keypress_ZEE	20	stimuli_target_circlediamonds.svg	stimuli_distractor_trianglediamonds.svg	4	yes	57	0	313
6.6.1	win	2022-12-14	18:48:07	18:57:35	564601	5cab7cc86d3a6e001519d9e9	518999427	1	practice_z	9	practice_z	21	stimuli_distractor_trianglediamonds.svg	stimuli_target_circlediamonds.svg	10	yes	44	1	811
6.6.1	win	2022-12-14	18:48:07	18:57:35	564601	5cab7cc86d3a6e001519d9e9	518999427	1	practice_z	9	advance_on_keypress_ZEE	22	stimuli_distractor_trianglediamonds.svg	stimuli_target_circlediamonds.svg	10	yes	57	0	451
6.6.1	win	2022-12-14	18:48:07	18:57:37	567482	5cab7cc86d3a6e001519d9e9	518999427	1	practice_z	9	practice_z	23	stimuli_distractor_diamondtriangles.svg	stimuli_target_trianglecircles.svg	9	yes	44	1	775
6.6.1	win	2022-12-14	18:48:07	18:57:37	567482	5cab7cc86d3a6e001519d9e9	518999427	1	practice_z	9	advance_on_keypress_ZEE	24	stimuli_distractor_diamondtriangles.svg	stimuli_target_trianglecircles.svg	9	yes	57	0	423
6.6.1	win	2022-12-14	18:48:07	18:57:40	570449	5cab7cc86d3a6e001519d9e9	518999427	1	practice_z	9	practice_z	25	stimuli_target_diamondsquares.svg	stimuli_distractor_diamondtriangles.svg	3	yes	44	1	894
6.6.1	win	2022-12-14	18:48:07	18:57:40	570449	5cab7cc86d3a6e001519d9e9	518999427	1	practice_z	9	advance_on_keypress_ZEE	26	stimuli_target_diamondsquares.svg	stimuli_distractor_diamondtriangles.svg	3	yes	57	0	505
6.6.1	win	2022-12-14	18:48:07	18:57:43	573417	5cab7cc86d3a6e001519d9e9	518999427	1	practice_z	9	practice_z	27	stimuli_target_squarediamonds.svg	stimuli_distractor_diamondtriangles.svg	2	yes	44	1	811
6.6.1	win	2022-12-14	18:48:07	18:57:43	573417	5cab7cc86d3a6e001519d9e9	518999427	1	practice_z	9	advance_on_keypress_ZEE	28	stimuli_target_squarediamonds.svg	stimuli_distractor_diamondtriangles.svg	2	yes	57	0	426
6.6.1	win	2022-12-14	18:48:07	18:57:47	577490	5cab7cc86d3a6e001519d9e9	518999427	1	practice_z	9	practice_z	29	stimuli_distractor_diamondtriangles.svg	stimuli_distractor_diamondtriangles.svg	13	no	0	1	2000
6.6.1	win	2022-12-14	18:48:07	18:57:47	577490	5cab7cc86d3a6e001519d9e9	518999427	1	practice_z	9	advance_on_keypress_ZEE	30	stimuli_distractor_diamondtriangles.svg	stimuli_distractor_diamondtriangles.svg	13	no	57	0	511
6.6.1	win	2022-12-14	18:48:07	18:57:50	580394	5cab7cc86d3a6e001519d9e9	518999427	1	practice_z	9	practice_z	31	stimuli_target_squarediamonds.svg	stimuli_distractor_trianglediamonds.svg	5	yes	44	1	737
6.6.1	win	2022-12-14	18:48:07	18:57:50	580394	5cab7cc86d3a6e001519d9e9	518999427	1	practice_z	9	advance_on_keypress_ZEE	32	stimuli_target_squarediamonds.svg	stimuli_distractor_trianglediamonds.svg	5	yes	57	0	267
6.6.1	win	2022-12-14	18:48:07	18:57:57	587368	5cab7cc86d3a6e001519d9e9	518999427	1	main_z	11	main_z	1	stimuli_distractor_diamondtriangles.svg	stimuli_target_diamondcircles.svg	31	yes	44	1	1165
6.6.1	win	2022-12-14	18:48:07	18:57:57	587368	5cab7cc86d3a6e001519d9e9	518999427	1	main_z	11	advance_on_keypress_ZEE	2	stimuli_distractor_diamondtriangles.svg	stimuli_target_diamondcircles.svg	31	yes	57	0	500
6.6.1	win	2022-12-14	18:48:07	18:57:59	589343	5cab7cc86d3a6e001519d9e9	518999427	1	main_z	11	main_z	3	stimuli_target_diamondsquares.svg	stimuli_distractor_diamondtriangles.svg	24	yes	44	1	824
6.6.1	win	2022-12-14	18:48:07	18:57:59	589343	5cab7cc86d3a6e001519d9e9	518999427	1	main_z	11	advance_on_keypress_ZEE	4	stimuli_target_diamondsquares.svg	stimuli_distractor_diamondtriangles.svg	24	yes	57	0	477
6.6.1	win	2022-12-14	18:48:07	18:58:01	591248	5cab7cc86d3a6e001519d9e9	518999427	1	main_z	11	main_z	5	stimuli_target_diamondcircles.svg	stimuli_distractor_diamondtriangles.svg	23	yes	44	1	778
6.6.1	win	2022-12-14	18:48:07	18:58:01	591248	5cab7cc86d3a6e001519d9e9	518999427	1	main_z	11	advance_on_keypress_ZEE	6	stimuli_target_diamondcircles.svg	stimuli_distractor_diamondtriangles.svg	23	yes	57	0	377
6.6.1	win	2022-12-14	18:48:07	18:58:03	593015	5cab7cc86d3a6e001519d9e9	518999427	1	main_z	11	main_z	7	stimuli_distractor_diamondtriangles.svg	stimuli_target_squaretriangles.svg	15	yes	44	1	745
6.6.1	win	2022-12-14	18:48:07	18:58:03	593015	5cab7cc86d3a6e001519d9e9	518999427	1	main_z	11	advance_on_keypress_ZEE	8	stimuli_distractor_diamondtriangles.svg	stimuli_target_squaretriangles.svg	15	yes	57	0	355
6.6.1	win	2022-12-14	18:48:07	18:58:06	596020	5cab7cc86d3a6e001519d9e9	518999427	1	main_z	11	main_z	9	stimuli_distractor_diamondtriangles.svg	stimuli_distractor_trianglediamonds.svg	38	no	0	1	2000
6.6.1	win	2022-12-14	18:48:07	18:58:06	596020	5cab7cc86d3a6e001519d9e9	518999427	1	main_z	11	advance_on_keypress_ZEE	10	stimuli_distractor_diamondtriangles.svg	stimuli_distractor_trianglediamonds.svg	38	no	57	0	379
6.6.1	win	2022-12-14	18:48:07	18:58:08	597792	5cab7cc86d3a6e001519d9e9	518999427	1	main_z	11	main_z	11	stimuli_distractor_trianglediamonds.svg	stimuli_target_squarediamonds.svg	12	yes	44	1	756
6.6.1	win	2022-12-14	18:48:07	18:58:08	597792	5cab7cc86d3a6e001519d9e9	518999427	1	main_z	11	advance_on_keypress_ZEE	12	stimuli_distractor_trianglediamonds.svg	stimuli_target_squarediamonds.svg	12	yes	57	0	716
6.6.1	win	2022-12-14	18:48:07	18:58:10	599911	5cab7cc86d3a6e001519d9e9	518999427	1	main_z	11	main_z	13	stimuli_distractor_trianglediamonds.svg	stimuli_target_squaretriangles.svg	11	yes	44	1	759
6.6.1	win	2022-12-14	18:48:07	18:58:10	599911	5cab7cc86d3a6e001519d9e9	518999427	1	main_z	11	advance_on_keypress_ZEE	14	stimuli_distractor_trianglediamonds.svg	stimuli_target_squaretriangles.svg	11	yes	57	0	527
6.6.1	win	2022-12-14	18:48:07	18:58:12	602056	5cab7cc86d3a6e001519d9e9	518999427	1	main_z	11	main_z	15	stimuli_distractor_diamondtriangles.svg	stimuli_target_circlediamonds.svg	14	yes	44	1	970
6.6.1	win	2022-12-14	18:48:07	18:58:12	602056	5cab7cc86d3a6e001519d9e9	518999427	1	main_z	11	advance_on_keypress_ZEE	16	stimuli_distractor_diamondtriangles.svg	stimuli_target_circlediamonds.svg	14	yes	57	0	355
6.6.1	win	2022-12-14	18:48:07	18:58:14	603847	5cab7cc86d3a6e001519d9e9	518999427	1	main_z	11	main_z	17	stimuli_target_circletriangles.svg	stimuli_distractor_trianglediamonds.svg	1	yes	44	1	794
6.6.1	win	2022-12-14	18:48:07	18:58:14	603847	5cab7cc86d3a6e001519d9e9	518999427	1	main_z	11	advance_on_keypress_ZEE	18	stimuli_target_circletriangles.svg	stimuli_distractor_trianglediamonds.svg	1	yes	57	0	322
6.6.1	win	2022-12-14	18:48:07	18:58:16	605608	5cab7cc86d3a6e001519d9e9	518999427	1	main_z	11	main_z	19	stimuli_target_circletriangles.svg	stimuli_distractor_diamondtriangles.svg	5	yes	44	1	789
6.6.1	win	2022-12-14	18:48:07	18:58:16	605608	5cab7cc86d3a6e001519d9e9	518999427	1	main_z	11	advance_on_keypress_ZEE	20	stimuli_target_circletriangles.svg	stimuli_distractor_diamondtriangles.svg	5	yes	57	0	332
6.6.1	win	2022-12-14	18:48:07	18:58:17	607327	5cab7cc86d3a6e001519d9e9	518999427	1	main_z	11	main_z	21	stimuli_distractor_trianglediamonds.svg	stimuli_target_circlediamonds.svg	10	yes	44	1	741
6.6.1	win	2022-12-14	18:48:07	18:58:17	607327	5cab7cc86d3a6e001519d9e9	518999427	1	main_z	11	advance_on_keypress_ZEE	22	stimuli_distractor_trianglediamonds.svg	stimuli_target_circlediamonds.svg	10	yes	57	0	319
6.6.1	win	2022-12-14	18:48:07	18:58:19	609160	5cab7cc86d3a6e001519d9e9	518999427	1	main_z	11	main_z	23	stimuli_target_squaretriangles.svg	stimuli_distractor_diamondtriangles.svg	7	yes	44	1	858
6.6.1	win	2022-12-14	18:48:07	18:58:19	609160	5cab7cc86d3a6e001519d9e9	518999427	1	main_z	11	advance_on_keypress_ZEE	24	stimuli_target_squaretriangles.svg	stimuli_distractor_diamondtriangles.svg	7	yes	57	0	294
6.6.1	win	2022-12-14	18:48:07	18:58:21	611032	5cab7cc86d3a6e001519d9e9	518999427	1	main_z	11	main_z	25	stimuli_distractor_trianglediamonds.svg	stimuli_target_diamondcircles.svg	27	yes	44	1	930
6.6.1	win	2022-12-14	18:48:07	18:58:21	611032	5cab7cc86d3a6e001519d9e9	518999427	1	main_z	11	advance_on_keypress_ZEE	26	stimuli_distractor_trianglediamonds.svg	stimuli_target_diamondcircles.svg	27	yes	57	0	283
6.6.1	win	2022-12-14	18:48:07	18:58:23	612647	5cab7cc86d3a6e001519d9e9	518999427	1	main_z	11	main_z	27	stimuli_distractor_diamondtriangles.svg	stimuli_target_squarediamonds.svg	16	yes	44	1	679
6.6.1	win	2022-12-14	18:48:07	18:58:23	612647	5cab7cc86d3a6e001519d9e9	518999427	1	main_z	11	advance_on_keypress_ZEE	28	stimuli_distractor_diamondtriangles.svg	stimuli_target_squarediamonds.svg	16	yes	57	0	315
6.6.1	win	2022-12-14	18:48:07	18:58:24	614536	5cab7cc86d3a6e001519d9e9	518999427	1	main_z	11	main_z	29	stimuli_target_diamondcircles.svg	stimuli_distractor_trianglediamonds.svg	19	yes	44	1	917
6.6.1	win	2022-12-14	18:48:07	18:58:24	614536	5cab7cc86d3a6e001519d9e9	518999427	1	main_z	11	advance_on_keypress_ZEE	30	stimuli_target_diamondcircles.svg	stimuli_distractor_trianglediamonds.svg	19	yes	57	0	247
6.6.1	win	2022-12-14	18:48:07	18:58:26	616167	5cab7cc86d3a6e001519d9e9	518999427	1	main_z	11	main_z	31	stimuli_distractor_trianglediamonds.svg	stimuli_target_trianglesquares.svg	26	yes	44	1	732
6.6.1	win	2022-12-14	18:48:07	18:58:26	616167	5cab7cc86d3a6e001519d9e9	518999427	1	main_z	11	advance_on_keypress_ZEE	32	stimuli_distractor_trianglediamonds.svg	stimuli_target_trianglesquares.svg	26	yes	57	0	270
6.6.1	win	2022-12-14	18:48:07	18:58:28	617975	5cab7cc86d3a6e001519d9e9	518999427	1	main_z	11	main_z	33	stimuli_distractor_diamondtriangles.svg	stimuli_target_trianglesquares.svg	30	yes	44	1	890
6.6.1	win	2022-12-14	18:48:07	18:58:28	617975	5cab7cc86d3a6e001519d9e9	518999427	1	main_z	11	advance_on_keypress_ZEE	34	stimuli_distractor_diamondtriangles.svg	stimuli_target_trianglesquares.svg	30	yes	57	0	277
6.6.1	win	2022-12-14	18:48:07	18:58:30	619584	5cab7cc86d3a6e001519d9e9	518999427	1	main_z	11	main_z	35	stimuli_target_squaretriangles.svg	stimuli_distractor_trianglediamonds.svg	3	yes	44	1	682
6.6.1	win	2022-12-14	18:48:07	18:58:30	619584	5cab7cc86d3a6e001519d9e9	518999427	1	main_z	11	advance_on_keypress_ZEE	36	stimuli_target_squaretriangles.svg	stimuli_distractor_trianglediamonds.svg	3	yes	57	0	285
6.6.1	win	2022-12-14	18:48:07	18:58:32	622519	5cab7cc86d3a6e001519d9e9	518999427	1	main_z	11	main_z	37	stimuli_distractor_diamondtriangles.svg	stimuli_distractor_trianglediamonds.svg	37	no	0	1	2000
6.6.1	win	2022-12-14	18:48:07	18:58:32	622519	5cab7cc86d3a6e001519d9e9	518999427	1	main_z	11	advance_on_keypress_ZEE	38	stimuli_distractor_diamondtriangles.svg	stimuli_distractor_trianglediamonds.svg	37	no	57	0	288
6.6.1	win	2022-12-14	18:48:07	18:58:35	625454	5cab7cc86d3a6e001519d9e9	518999427	1	main_z	11	main_z	39	stimuli_distractor_trianglediamonds.svg	stimuli_distractor_trianglediamonds.svg	34	no	0	1	2000
6.6.1	win	2022-12-14	18:48:07	18:58:35	625454	5cab7cc86d3a6e001519d9e9	518999427	1	main_z	11	advance_on_keypress_ZEE	40	stimuli_distractor_trianglediamonds.svg	stimuli_distractor_trianglediamonds.svg	34	no	57	0	403
6.6.1	win	2022-12-14	18:48:07	18:58:37	627440	5cab7cc86d3a6e001519d9e9	518999427	1	main_z	11	main_z	41	stimuli_target_trianglesquares.svg	stimuli_distractor_trianglediamonds.svg	18	yes	44	1	938
6.6.1	win	2022-12-14	18:48:07	18:58:37	627440	5cab7cc86d3a6e001519d9e9	518999427	1	main_z	11	advance_on_keypress_ZEE	42	stimuli_target_trianglesquares.svg	stimuli_distractor_trianglediamonds.svg	18	yes	57	0	364
6.6.1	win	2022-12-14	18:48:07	18:58:39	629200	5cab7cc86d3a6e001519d9e9	518999427	1	main_z	11	main_z	43	stimuli_distractor_trianglediamonds.svg	stimuli_target_trianglecircles.svg	25	yes	44	1	749
6.6.1	win	2022-12-14	18:48:07	18:58:39	629200	5cab7cc86d3a6e001519d9e9	518999427	1	main_z	11	advance_on_keypress_ZEE	44	stimuli_distractor_trianglediamonds.svg	stimuli_target_trianglecircles.svg	25	yes	57	0	253
6.6.1	win	2022-12-14	18:48:07	18:58:41	631216	5cab7cc86d3a6e001519d9e9	518999427	1	main_z	11	main_z	45	stimuli_distractor_trianglediamonds.svg	stimuli_target_diamondsquares.svg	28	yes	44	1	1114
6.6.1	win	2022-12-14	18:48:07	18:58:41	631216	5cab7cc86d3a6e001519d9e9	518999427	1	main_z	11	advance_on_keypress_ZEE	46	stimuli_distractor_trianglediamonds.svg	stimuli_target_diamondsquares.svg	28	yes	57	0	381
6.6.1	win	2022-12-14	18:48:07	18:58:43	632960	5cab7cc86d3a6e001519d9e9	518999427	1	main_z	11	main_z	47	stimuli_target_circlediamonds.svg	stimuli_distractor_trianglediamonds.svg	2	yes	44	1	708
6.6.1	win	2022-12-14	18:48:07	18:58:43	632960	5cab7cc86d3a6e001519d9e9	518999427	1	main_z	11	advance_on_keypress_ZEE	48	stimuli_target_circlediamonds.svg	stimuli_distractor_trianglediamonds.svg	2	yes	57	0	247
6.6.1	win	2022-12-14	18:48:07	18:58:46	635870	5cab7cc86d3a6e001519d9e9	518999427	1	main_z	11	main_z	49	stimuli_distractor_diamondtriangles.svg	stimuli_distractor_diamondtriangles.svg	39	no	0	1	2000
6.6.1	win	2022-12-14	18:48:07	18:58:46	635870	5cab7cc86d3a6e001519d9e9	518999427	1	main_z	11	advance_on_keypress_ZEE	50	stimuli_distractor_diamondtriangles.svg	stimuli_distractor_diamondtriangles.svg	39	no	57	0	339
6.6.1	win	2022-12-14	18:48:07	18:58:49	638853	5cab7cc86d3a6e001519d9e9	518999427	1	main_z	11	main_z	51	stimuli_distractor_diamondtriangles.svg	stimuli_target_diamondsquares.svg	32	yes	0	0	2000
6.6.1	win	2022-12-14	18:48:07	18:58:49	638853	5cab7cc86d3a6e001519d9e9	518999427	1	main_z	11	advance_on_keypress_ZEE	52	stimuli_distractor_diamondtriangles.svg	stimuli_target_diamondsquares.svg	32	yes	57	0	516
6.6.1	win	2022-12-14	18:48:07	18:58:52	642019	5cab7cc86d3a6e001519d9e9	518999427	1	main_z	11	main_z	53	stimuli_distractor_trianglediamonds.svg	stimuli_distractor_diamondtriangles.svg	35	no	0	1	2000
6.6.1	win	2022-12-14	18:48:07	18:58:52	642019	5cab7cc86d3a6e001519d9e9	518999427	1	main_z	11	advance_on_keypress_ZEE	54	stimuli_distractor_trianglediamonds.svg	stimuli_distractor_diamondtriangles.svg	35	no	57	0	373
6.6.1	win	2022-12-14	18:48:07	18:58:54	643856	5cab7cc86d3a6e001519d9e9	518999427	1	main_z	11	main_z	55	stimuli_target_squarediamonds.svg	stimuli_distractor_trianglediamonds.svg	4	yes	44	1	821
6.6.1	win	2022-12-14	18:48:07	18:58:54	643856	5cab7cc86d3a6e001519d9e9	518999427	1	main_z	11	advance_on_keypress_ZEE	56	stimuli_target_squarediamonds.svg	stimuli_distractor_trianglediamonds.svg	4	yes	57	0	484
6.6.1	win	2022-12-14	18:48:07	18:58:56	645888	5cab7cc86d3a6e001519d9e9	518999427	1	main_z	11	main_z	57	stimuli_target_trianglecircles.svg	stimuli_distractor_trianglediamonds.svg	17	yes	44	1	904
6.6.1	win	2022-12-14	18:48:07	18:58:56	645888	5cab7cc86d3a6e001519d9e9	518999427	1	main_z	11	advance_on_keypress_ZEE	58	stimuli_target_trianglecircles.svg	stimuli_distractor_trianglediamonds.svg	17	yes	57	0	307
6.6.1	win	2022-12-14	18:48:07	18:58:58	647712	5cab7cc86d3a6e001519d9e9	518999427	1	main_z	11	main_z	59	stimuli_distractor_trianglediamonds.svg	stimuli_target_circletriangles.svg	9	yes	44	1	878
6.6.1	win	2022-12-14	18:48:07	18:58:58	647712	5cab7cc86d3a6e001519d9e9	518999427	1	main_z	11	advance_on_keypress_ZEE	60	stimuli_distractor_trianglediamonds.svg	stimuli_target_circletriangles.svg	9	yes	57	0	218
6.6.1	win	2022-12-14	18:48:07	18:59:00	649681	5cab7cc86d3a6e001519d9e9	518999427	1	main_z	11	main_z	61	stimuli_distractor_diamondtriangles.svg	stimuli_target_trianglecircles.svg	29	yes	44	1	1097
6.6.1	win	2022-12-14	18:48:07	18:59:00	649681	5cab7cc86d3a6e001519d9e9	518999427	1	main_z	11	advance_on_keypress_ZEE	62	stimuli_distractor_diamondtriangles.svg	stimuli_target_trianglecircles.svg	29	yes	57	0	211
6.6.1	win	2022-12-14	18:48:07	18:59:02	652535	5cab7cc86d3a6e001519d9e9	518999427	1	main_z	11	main_z	63	stimuli_distractor_diamondtriangles.svg	stimuli_distractor_diamondtriangles.svg	40	no	0	1	2000
6.6.1	win	2022-12-14	18:48:07	18:59:02	652535	5cab7cc86d3a6e001519d9e9	518999427	1	main_z	11	advance_on_keypress_ZEE	64	stimuli_distractor_diamondtriangles.svg	stimuli_distractor_diamondtriangles.svg	40	no	57	0	353
6.6.1	win	2022-12-14	18:48:07	18:59:05	655535	5cab7cc86d3a6e001519d9e9	518999427	1	main_z	11	main_z	65	stimuli_distractor_trianglediamonds.svg	stimuli_distractor_trianglediamonds.svg	33	no	0	1	2000
6.6.1	win	2022-12-14	18:48:07	18:59:05	655535	5cab7cc86d3a6e001519d9e9	518999427	1	main_z	11	advance_on_keypress_ZEE	66	stimuli_distractor_trianglediamonds.svg	stimuli_distractor_trianglediamonds.svg	33	no	57	0	353
6.6.1	win	2022-12-14	18:48:07	18:59:07	657304	5cab7cc86d3a6e001519d9e9	518999427	1	main_z	11	main_z	67	stimuli_target_trianglecircles.svg	stimuli_distractor_diamondtriangles.svg	21	yes	44	1	770
6.6.1	win	2022-12-14	18:48:07	18:59:07	657304	5cab7cc86d3a6e001519d9e9	518999427	1	main_z	11	advance_on_keypress_ZEE	68	stimuli_target_trianglecircles.svg	stimuli_distractor_diamondtriangles.svg	21	yes	57	0	339
6.6.1	win	2022-12-14	18:48:07	18:59:09	659312	5cab7cc86d3a6e001519d9e9	518999427	1	main_z	11	main_z	69	stimuli_target_squarediamonds.svg	stimuli_distractor_diamondtriangles.svg	8	yes	44	1	1029
6.6.1	win	2022-12-14	18:48:07	18:59:09	659312	5cab7cc86d3a6e001519d9e9	518999427	1	main_z	11	advance_on_keypress_ZEE	70	stimuli_target_squarediamonds.svg	stimuli_distractor_diamondtriangles.svg	8	yes	57	0	266
6.6.1	win	2022-12-14	18:48:07	18:59:12	662235	5cab7cc86d3a6e001519d9e9	518999427	1	main_z	11	main_z	71	stimuli_distractor_trianglediamonds.svg	stimuli_distractor_diamondtriangles.svg	36	no	0	1	2000
6.6.1	win	2022-12-14	18:48:07	18:59:12	662235	5cab7cc86d3a6e001519d9e9	518999427	1	main_z	11	advance_on_keypress_ZEE	72	stimuli_distractor_trianglediamonds.svg	stimuli_distractor_diamondtriangles.svg	36	no	57	0	294
6.6.1	win	2022-12-14	18:48:07	18:59:14	663952	5cab7cc86d3a6e001519d9e9	518999427	1	main_z	11	main_z	73	stimuli_target_diamondsquares.svg	stimuli_distractor_trianglediamonds.svg	20	yes	44	1	786
6.6.1	win	2022-12-14	18:48:07	18:59:14	663952	5cab7cc86d3a6e001519d9e9	518999427	1	main_z	11	advance_on_keypress_ZEE	74	stimuli_target_diamondsquares.svg	stimuli_distractor_trianglediamonds.svg	20	yes	57	0	329
6.6.1	win	2022-12-14	18:48:07	18:59:16	665656	5cab7cc86d3a6e001519d9e9	518999427	1	main_z	11	main_z	75	stimuli_target_trianglesquares.svg	stimuli_distractor_diamondtriangles.svg	22	yes	44	1	740
6.6.1	win	2022-12-14	18:48:07	18:59:16	665656	5cab7cc86d3a6e001519d9e9	518999427	1	main_z	11	advance_on_keypress_ZEE	76	stimuli_target_trianglesquares.svg	stimuli_distractor_diamondtriangles.svg	22	yes	57	0	269
6.6.1	win	2022-12-14	18:48:07	18:59:17	667352	5cab7cc86d3a6e001519d9e9	518999427	1	main_z	11	main_z	77	stimuli_target_circlediamonds.svg	stimuli_distractor_diamondtriangles.svg	6	yes	44	1	769
6.6.1	win	2022-12-14	18:48:07	18:59:17	667352	5cab7cc86d3a6e001519d9e9	518999427	1	main_z	11	advance_on_keypress_ZEE	78	stimuli_target_circlediamonds.svg	stimuli_distractor_diamondtriangles.svg	6	yes	57	0	225
6.6.1	win	2022-12-14	18:48:07	18:59:19	669176	5cab7cc86d3a6e001519d9e9	518999427	1	main_z	11	main_z	79	stimuli_distractor_diamondtriangles.svg	stimuli_target_circletriangles.svg	13	yes	44	1	959
6.6.1	win	2022-12-14	18:48:07	18:59:19	669176	5cab7cc86d3a6e001519d9e9	518999427	1	main_z	11	advance_on_keypress_ZEE	80	stimuli_distractor_diamondtriangles.svg	stimuli_target_circletriangles.svg	13	yes	57	0	248
6.6.1	win	2022-12-14	18:48:07	18:59:21	671104	5cab7cc86d3a6e001519d9e9	518999427	1	main_z	11	main_z	81	stimuli_distractor_trianglediamonds.svg	stimuli_target_trianglesquares.svg	26	yes	44	1	1021
6.6.1	win	2022-12-14	18:48:07	18:59:21	671104	5cab7cc86d3a6e001519d9e9	518999427	1	main_z	11	advance_on_keypress_ZEE	82	stimuli_distractor_trianglediamonds.svg	stimuli_target_trianglesquares.svg	26	yes	57	0	236
6.6.1	win	2022-12-14	18:48:07	18:59:24	673984	5cab7cc86d3a6e001519d9e9	518999427	1	main_z	11	main_z	83	stimuli_distractor_diamondtriangles.svg	stimuli_distractor_diamondtriangles.svg	40	no	0	1	2000
6.6.1	win	2022-12-14	18:48:07	18:59:24	673984	5cab7cc86d3a6e001519d9e9	518999427	1	main_z	11	advance_on_keypress_ZEE	84	stimuli_distractor_diamondtriangles.svg	stimuli_distractor_diamondtriangles.svg	40	no	57	0	321
6.6.1	win	2022-12-14	18:48:07	18:59:26	675656	5cab7cc86d3a6e001519d9e9	518999427	1	main_z	11	main_z	85	stimuli_target_trianglecircles.svg	stimuli_distractor_diamondtriangles.svg	21	yes	44	1	707
6.6.1	win	2022-12-14	18:48:07	18:59:26	675656	5cab7cc86d3a6e001519d9e9	518999427	1	main_z	11	advance_on_keypress_ZEE	86	stimuli_target_trianglecircles.svg	stimuli_distractor_diamondtriangles.svg	21	yes	57	0	237
6.6.1	win	2022-12-14	18:48:07	18:59:27	677256	5cab7cc86d3a6e001519d9e9	518999427	1	main_z	11	main_z	87	stimuli_target_diamondsquares.svg	stimuli_distractor_diamondtriangles.svg	24	yes	44	1	707
6.6.1	win	2022-12-14	18:48:07	18:59:27	677256	5cab7cc86d3a6e001519d9e9	518999427	1	main_z	11	advance_on_keypress_ZEE	88	stimuli_target_diamondsquares.svg	stimuli_distractor_diamondtriangles.svg	24	yes	57	0	285
6.6.1	win	2022-12-14	18:48:07	18:59:30	680201	5cab7cc86d3a6e001519d9e9	518999427	1	main_z	11	main_z	89	stimuli_distractor_trianglediamonds.svg	stimuli_distractor_trianglediamonds.svg	33	no	0	1	2000
6.6.1	win	2022-12-14	18:48:07	18:59:30	680201	5cab7cc86d3a6e001519d9e9	518999427	1	main_z	11	advance_on_keypress_ZEE	90	stimuli_distractor_trianglediamonds.svg	stimuli_distractor_trianglediamonds.svg	33	no	57	0	328
6.6.1	win	2022-12-14	18:48:07	18:59:32	681912	5cab7cc86d3a6e001519d9e9	518999427	1	main_z	11	main_z	91	stimuli_distractor_diamondtriangles.svg	stimuli_target_squarediamonds.svg	16	yes	44	1	746
6.6.1	win	2022-12-14	18:48:07	18:59:32	681912	5cab7cc86d3a6e001519d9e9	518999427	1	main_z	11	advance_on_keypress_ZEE	92	stimuli_distractor_diamondtriangles.svg	stimuli_target_squarediamonds.svg	16	yes	57	0	260
6.6.1	win	2022-12-14	18:48:07	18:59:33	683528	5cab7cc86d3a6e001519d9e9	518999427	1	main_z	11	main_z	93	stimuli_distractor_trianglediamonds.svg	stimuli_target_squaretriangles.svg	11	yes	44	1	712
6.6.1	win	2022-12-14	18:48:07	18:59:33	683528	5cab7cc86d3a6e001519d9e9	518999427	1	main_z	11	advance_on_keypress_ZEE	94	stimuli_distractor_trianglediamonds.svg	stimuli_target_squaretriangles.svg	11	yes	57	0	259
6.6.1	win	2022-12-14	18:48:07	18:59:35	685152	5cab7cc86d3a6e001519d9e9	518999427	1	main_z	11	main_z	95	stimuli_distractor_diamondtriangles.svg	stimuli_target_trianglecircles.svg	29	yes	44	1	720
6.6.1	win	2022-12-14	18:48:07	18:59:35	685152	5cab7cc86d3a6e001519d9e9	518999427	1	main_z	11	advance_on_keypress_ZEE	96	stimuli_distractor_diamondtriangles.svg	stimuli_target_trianglecircles.svg	29	yes	57	0	234
6.6.1	win	2022-12-14	18:48:07	18:59:38	688033	5cab7cc86d3a6e001519d9e9	518999427	1	main_z	11	main_z	97	stimuli_distractor_trianglediamonds.svg	stimuli_distractor_diamondtriangles.svg	35	no	0	1	2000
6.6.1	win	2022-12-14	18:48:07	18:59:38	688033	5cab7cc86d3a6e001519d9e9	518999427	1	main_z	11	advance_on_keypress_ZEE	98	stimuli_distractor_trianglediamonds.svg	stimuli_distractor_diamondtriangles.svg	35	no	57	0	631
6.6.1	win	2022-12-14	18:48:07	18:59:40	690136	5cab7cc86d3a6e001519d9e9	518999427	1	main_z	11	main_z	99	stimuli_target_trianglecircles.svg	stimuli_distractor_trianglediamonds.svg	17	yes	44	1	821
6.6.1	win	2022-12-14	18:48:07	18:59:40	690136	5cab7cc86d3a6e001519d9e9	518999427	1	main_z	11	advance_on_keypress_ZEE	100	stimuli_target_trianglecircles.svg	stimuli_distractor_trianglediamonds.svg	17	yes	57	0	235
6.6.1	win	2022-12-14	18:48:07	18:59:42	691768	5cab7cc86d3a6e001519d9e9	518999427	1	main_z	11	main_z	101	stimuli_target_circletriangles.svg	stimuli_distractor_trianglediamonds.svg	1	yes	44	1	753
6.6.1	win	2022-12-14	18:48:07	18:59:42	691768	5cab7cc86d3a6e001519d9e9	518999427	1	main_z	11	advance_on_keypress_ZEE	102	stimuli_target_circletriangles.svg	stimuli_distractor_trianglediamonds.svg	1	yes	57	0	234
6.6.1	win	2022-12-14	18:48:07	18:59:43	693488	5cab7cc86d3a6e001519d9e9	518999427	1	main_z	11	main_z	103	stimuli_distractor_diamondtriangles.svg	stimuli_target_trianglesquares.svg	30	yes	44	1	839
6.6.1	win	2022-12-14	18:48:07	18:59:43	693488	5cab7cc86d3a6e001519d9e9	518999427	1	main_z	11	advance_on_keypress_ZEE	104	stimuli_distractor_diamondtriangles.svg	stimuli_target_trianglesquares.svg	30	yes	57	0	229
6.6.1	win	2022-12-14	18:48:07	18:59:45	695152	5cab7cc86d3a6e001519d9e9	518999427	1	main_z	11	main_z	105	stimuli_target_circlediamonds.svg	stimuli_distractor_trianglediamonds.svg	2	yes	44	1	787
6.6.1	win	2022-12-14	18:48:07	18:59:45	695152	5cab7cc86d3a6e001519d9e9	518999427	1	main_z	11	advance_on_keypress_ZEE	106	stimuli_target_circlediamonds.svg	stimuli_distractor_trianglediamonds.svg	2	yes	57	0	243
6.6.1	win	2022-12-14	18:48:07	18:59:48	698033	5cab7cc86d3a6e001519d9e9	518999427	1	main_z	11	main_z	107	stimuli_distractor_diamondtriangles.svg	stimuli_distractor_diamondtriangles.svg	39	no	0	1	2000
6.6.1	win	2022-12-14	18:48:07	18:59:48	698033	5cab7cc86d3a6e001519d9e9	518999427	1	main_z	11	advance_on_keypress_ZEE	108	stimuli_distractor_diamondtriangles.svg	stimuli_distractor_diamondtriangles.svg	39	no	57	0	352
6.6.1	win	2022-12-14	18:48:07	18:59:50	699728	5cab7cc86d3a6e001519d9e9	518999427	1	main_z	11	main_z	109	stimuli_target_circlediamonds.svg	stimuli_distractor_diamondtriangles.svg	6	yes	44	1	697
6.6.1	win	2022-12-14	18:48:07	18:59:50	699728	5cab7cc86d3a6e001519d9e9	518999427	1	main_z	11	advance_on_keypress_ZEE	110	stimuli_target_circlediamonds.svg	stimuli_distractor_diamondtriangles.svg	6	yes	57	0	308
6.6.1	win	2022-12-14	18:48:07	18:59:51	701392	5cab7cc86d3a6e001519d9e9	518999427	1	main_z	11	main_z	111	stimuli_target_squarediamonds.svg	stimuli_distractor_trianglediamonds.svg	4	yes	44	1	711
6.6.1	win	2022-12-14	18:48:07	18:59:51	701392	5cab7cc86d3a6e001519d9e9	518999427	1	main_z	11	advance_on_keypress_ZEE	112	stimuli_target_squarediamonds.svg	stimuli_distractor_trianglediamonds.svg	4	yes	57	0	321
6.6.1	win	2022-12-14	18:48:07	18:59:53	703136	5cab7cc86d3a6e001519d9e9	518999427	1	main_z	11	main_z	113	stimuli_target_diamondcircles.svg	stimuli_distractor_diamondtriangles.svg	23	yes	44	1	771
6.6.1	win	2022-12-14	18:48:07	18:59:53	703136	5cab7cc86d3a6e001519d9e9	518999427	1	main_z	11	advance_on_keypress_ZEE	114	stimuli_target_diamondcircles.svg	stimuli_distractor_diamondtriangles.svg	23	yes	57	0	228
6.6.1	win	2022-12-14	18:48:07	18:59:55	704760	5cab7cc86d3a6e001519d9e9	518999427	1	main_z	11	main_z	115	stimuli_distractor_trianglediamonds.svg	stimuli_target_circlediamonds.svg	10	yes	44	1	762
6.6.1	win	2022-12-14	18:48:07	18:59:55	704760	5cab7cc86d3a6e001519d9e9	518999427	1	main_z	11	advance_on_keypress_ZEE	116	stimuli_distractor_trianglediamonds.svg	stimuli_target_circlediamonds.svg	10	yes	57	0	259
6.6.1	win	2022-12-14	18:48:07	18:59:56	706400	5cab7cc86d3a6e001519d9e9	518999427	1	main_z	11	main_z	117	stimuli_target_trianglesquares.svg	stimuli_distractor_trianglediamonds.svg	18	yes	44	1	736
6.6.1	win	2022-12-14	18:48:07	18:59:56	706400	5cab7cc86d3a6e001519d9e9	518999427	1	main_z	11	advance_on_keypress_ZEE	118	stimuli_target_trianglesquares.svg	stimuli_distractor_trianglediamonds.svg	18	yes	57	0	218
6.6.1	win	2022-12-14	18:48:07	18:59:58	708024	5cab7cc86d3a6e001519d9e9	518999427	1	main_z	11	main_z	119	stimuli_target_squaretriangles.svg	stimuli_distractor_diamondtriangles.svg	7	yes	44	1	760
6.6.1	win	2022-12-14	18:48:07	18:59:58	708024	5cab7cc86d3a6e001519d9e9	518999427	1	main_z	11	advance_on_keypress_ZEE	120	stimuli_target_squaretriangles.svg	stimuli_distractor_diamondtriangles.svg	7	yes	57	0	232
6.6.1	win	2022-12-14	18:48:07	19:00:00	709649	5cab7cc86d3a6e001519d9e9	518999427	1	main_z	11	main_z	121	stimuli_target_diamondcircles.svg	stimuli_distractor_trianglediamonds.svg	19	yes	44	1	734
6.6.1	win	2022-12-14	18:48:07	19:00:00	709649	5cab7cc86d3a6e001519d9e9	518999427	1	main_z	11	advance_on_keypress_ZEE	122	stimuli_target_diamondcircles.svg	stimuli_distractor_trianglediamonds.svg	19	yes	57	0	272
6.6.1	win	2022-12-14	18:48:07	19:00:01	711328	5cab7cc86d3a6e001519d9e9	518999427	1	main_z	11	main_z	123	stimuli_target_squarediamonds.svg	stimuli_distractor_diamondtriangles.svg	8	yes	44	1	764
6.6.1	win	2022-12-14	18:48:07	19:00:01	711328	5cab7cc86d3a6e001519d9e9	518999427	1	main_z	11	advance_on_keypress_ZEE	124	stimuli_target_squarediamonds.svg	stimuli_distractor_diamondtriangles.svg	8	yes	57	0	261
6.6.1	win	2022-12-14	18:48:07	19:00:03	712968	5cab7cc86d3a6e001519d9e9	518999427	1	main_z	11	main_z	125	stimuli_distractor_diamondtriangles.svg	stimuli_target_diamondcircles.svg	31	yes	44	1	737
6.6.1	win	2022-12-14	18:48:07	19:00:03	712968	5cab7cc86d3a6e001519d9e9	518999427	1	main_z	11	advance_on_keypress_ZEE	126	stimuli_distractor_diamondtriangles.svg	stimuli_target_diamondcircles.svg	31	yes	57	0	227
6.6.1	win	2022-12-14	18:48:07	19:00:05	714608	5cab7cc86d3a6e001519d9e9	518999427	1	main_z	11	main_z	127	stimuli_distractor_diamondtriangles.svg	stimuli_target_squaretriangles.svg	15	yes	44	1	777
6.6.1	win	2022-12-14	18:48:07	19:00:05	714608	5cab7cc86d3a6e001519d9e9	518999427	1	main_z	11	advance_on_keypress_ZEE	128	stimuli_distractor_diamondtriangles.svg	stimuli_target_squaretriangles.svg	15	yes	57	0	225
6.6.1	win	2022-12-14	18:48:07	19:00:06	716272	5cab7cc86d3a6e001519d9e9	518999427	1	main_z	11	main_z	129	stimuli_distractor_trianglediamonds.svg	stimuli_target_diamondsquares.svg	28	yes	44	1	791
6.6.1	win	2022-12-14	18:48:07	19:00:06	716272	5cab7cc86d3a6e001519d9e9	518999427	1	main_z	11	advance_on_keypress_ZEE	130	stimuli_distractor_trianglediamonds.svg	stimuli_target_diamondsquares.svg	28	yes	57	0	239
6.6.1	win	2022-12-14	18:48:07	19:00:08	717920	5cab7cc86d3a6e001519d9e9	518999427	1	main_z	11	main_z	131	stimuli_distractor_diamondtriangles.svg	stimuli_target_circletriangles.svg	13	yes	44	1	756
6.6.1	win	2022-12-14	18:48:07	19:00:08	717920	5cab7cc86d3a6e001519d9e9	518999427	1	main_z	11	advance_on_keypress_ZEE	132	stimuli_distractor_diamondtriangles.svg	stimuli_target_circletriangles.svg	13	yes	57	0	221
6.6.1	win	2022-12-14	18:48:07	19:00:10	719592	5cab7cc86d3a6e001519d9e9	518999427	1	main_z	11	main_z	133	stimuli_target_trianglesquares.svg	stimuli_distractor_diamondtriangles.svg	22	yes	44	1	795
6.6.1	win	2022-12-14	18:48:07	19:00:10	719592	5cab7cc86d3a6e001519d9e9	518999427	1	main_z	11	advance_on_keypress_ZEE	134	stimuli_target_trianglesquares.svg	stimuli_distractor_diamondtriangles.svg	22	yes	57	0	242
6.6.1	win	2022-12-14	18:48:07	19:00:11	721208	5cab7cc86d3a6e001519d9e9	518999427	1	main_z	11	main_z	135	stimuli_distractor_trianglediamonds.svg	stimuli_target_diamondcircles.svg	27	yes	44	1	728
6.6.1	win	2022-12-14	18:48:07	19:00:11	721208	5cab7cc86d3a6e001519d9e9	518999427	1	main_z	11	advance_on_keypress_ZEE	136	stimuli_distractor_trianglediamonds.svg	stimuli_target_diamondcircles.svg	27	yes	57	0	226
6.6.1	win	2022-12-14	18:48:07	19:00:13	722848	5cab7cc86d3a6e001519d9e9	518999427	1	main_z	11	main_z	137	stimuli_distractor_diamondtriangles.svg	stimuli_distractor_trianglediamonds.svg	37	no	44	0	768
6.6.1	win	2022-12-14	18:48:07	19:00:13	722848	5cab7cc86d3a6e001519d9e9	518999427	1	main_z	11	advance_on_keypress_ZEE	138	stimuli_distractor_diamondtriangles.svg	stimuli_distractor_trianglediamonds.svg	37	no	57	0	249
6.6.1	win	2022-12-14	18:48:07	19:00:15	724704	5cab7cc86d3a6e001519d9e9	518999427	1	main_z	11	main_z	139	stimuli_distractor_diamondtriangles.svg	stimuli_target_diamondsquares.svg	32	yes	44	1	957
6.6.1	win	2022-12-14	18:48:07	19:00:15	724704	5cab7cc86d3a6e001519d9e9	518999427	1	main_z	11	advance_on_keypress_ZEE	140	stimuli_distractor_diamondtriangles.svg	stimuli_target_diamondsquares.svg	32	yes	57	0	254
6.6.1	win	2022-12-14	18:48:07	19:00:16	726408	5cab7cc86d3a6e001519d9e9	518999427	1	main_z	11	main_z	141	stimuli_distractor_trianglediamonds.svg	stimuli_target_squarediamonds.svg	12	yes	44	1	795
6.6.1	win	2022-12-14	18:48:07	19:00:16	726408	5cab7cc86d3a6e001519d9e9	518999427	1	main_z	11	advance_on_keypress_ZEE	142	stimuli_distractor_trianglediamonds.svg	stimuli_target_squarediamonds.svg	12	yes	57	0	234
6.6.1	win	2022-12-14	18:48:07	19:00:19	729298	5cab7cc86d3a6e001519d9e9	518999427	1	main_z	11	main_z	143	stimuli_distractor_trianglediamonds.svg	stimuli_distractor_trianglediamonds.svg	34	no	0	1	2000
6.6.1	win	2022-12-14	18:48:07	19:00:19	729298	5cab7cc86d3a6e001519d9e9	518999427	1	main_z	11	advance_on_keypress_ZEE	144	stimuli_distractor_trianglediamonds.svg	stimuli_distractor_trianglediamonds.svg	34	no	57	0	335
6.6.1	win	2022-12-14	18:48:07	19:00:21	731008	5cab7cc86d3a6e001519d9e9	518999427	1	main_z	11	main_z	145	stimuli_distractor_diamondtriangles.svg	stimuli_target_circlediamonds.svg	14	yes	44	1	728
6.6.1	win	2022-12-14	18:48:07	19:00:21	731008	5cab7cc86d3a6e001519d9e9	518999427	1	main_z	11	advance_on_keypress_ZEE	146	stimuli_distractor_diamondtriangles.svg	stimuli_target_circlediamonds.svg	14	yes	57	0	234
6.6.1	win	2022-12-14	18:48:07	19:00:23	732713	5cab7cc86d3a6e001519d9e9	518999427	1	main_z	11	main_z	147	stimuli_distractor_trianglediamonds.svg	stimuli_target_trianglecircles.svg	25	yes	44	1	816
6.6.1	win	2022-12-14	18:48:07	19:00:23	732713	5cab7cc86d3a6e001519d9e9	518999427	1	main_z	11	advance_on_keypress_ZEE	148	stimuli_distractor_trianglediamonds.svg	stimuli_target_trianglecircles.svg	25	yes	57	0	238
6.6.1	win	2022-12-14	18:48:07	19:00:26	735597	5cab7cc86d3a6e001519d9e9	518999427	1	main_z	11	main_z	149	stimuli_distractor_diamondtriangles.svg	stimuli_distractor_trianglediamonds.svg	38	no	0	1	2000
6.6.1	win	2022-12-14	18:48:07	19:00:26	735597	5cab7cc86d3a6e001519d9e9	518999427	1	main_z	11	advance_on_keypress_ZEE	150	stimuli_distractor_diamondtriangles.svg	stimuli_distractor_trianglediamonds.svg	38	no	57	0	323
6.6.1	win	2022-12-14	18:48:07	19:00:27	737288	5cab7cc86d3a6e001519d9e9	518999427	1	main_z	11	main_z	151	stimuli_distractor_trianglediamonds.svg	stimuli_target_circletriangles.svg	9	yes	44	1	725
6.6.1	win	2022-12-14	18:48:07	19:00:27	737288	5cab7cc86d3a6e001519d9e9	518999427	1	main_z	11	advance_on_keypress_ZEE	152	stimuli_distractor_trianglediamonds.svg	stimuli_target_circletriangles.svg	9	yes	57	0	295
6.6.1	win	2022-12-14	18:48:07	19:00:29	738968	5cab7cc86d3a6e001519d9e9	518999427	1	main_z	11	main_z	153	stimuli_target_squaretriangles.svg	stimuli_distractor_trianglediamonds.svg	3	yes	44	1	739
6.6.1	win	2022-12-14	18:48:07	19:00:29	738968	5cab7cc86d3a6e001519d9e9	518999427	1	main_z	11	advance_on_keypress_ZEE	154	stimuli_target_squaretriangles.svg	stimuli_distractor_trianglediamonds.svg	3	yes	57	0	260
6.6.1	win	2022-12-14	18:48:07	19:00:32	741880	5cab7cc86d3a6e001519d9e9	518999427	1	main_z	11	main_z	155	stimuli_distractor_trianglediamonds.svg	stimuli_distractor_diamondtriangles.svg	36	no	0	1	2000
6.6.1	win	2022-12-14	18:48:07	19:00:32	741880	5cab7cc86d3a6e001519d9e9	518999427	1	main_z	11	advance_on_keypress_ZEE	156	stimuli_distractor_trianglediamonds.svg	stimuli_distractor_diamondtriangles.svg	36	no	57	0	368
6.6.1	win	2022-12-14	18:48:07	19:00:34	743729	5cab7cc86d3a6e001519d9e9	518999427	1	main_z	11	main_z	157	stimuli_target_circletriangles.svg	stimuli_distractor_diamondtriangles.svg	5	yes	44	1	832
6.6.1	win	2022-12-14	18:48:07	19:00:34	743729	5cab7cc86d3a6e001519d9e9	518999427	1	main_z	11	advance_on_keypress_ZEE	158	stimuli_target_circletriangles.svg	stimuli_distractor_diamondtriangles.svg	5	yes	57	0	254
6.6.1	win	2022-12-14	18:48:07	19:00:35	745424	5cab7cc86d3a6e001519d9e9	518999427	1	main_z	11	main_z	159	stimuli_target_diamondsquares.svg	stimuli_distractor_trianglediamonds.svg	20	yes	44	1	795
6.6.1	win	2022-12-14	18:48:07	19:00:35	745424	5cab7cc86d3a6e001519d9e9	518999427	1	main_z	11	advance_on_keypress_ZEE	160	stimuli_target_diamondsquares.svg	stimuli_distractor_trianglediamonds.svg	20	yes	57	0	395