build	computer.platform	date	time	timestamp	time_elapsed_ms	subject	group	session	blockcode	blocknum	trialcode	trialnum	stimulus_left	stimulus_right	stim_index	target_present	response	correct	latency
6.6.1	win	2022-12-19	14:17:20	14:20:38	196912	5decaac46e09cf3792805023	728597603	1	practice_slash	5	practice_slash	1	stimuli_target_circlediamonds.svg	stimuli_distractor_diamondtriangles.svg	1	yes	53	1	586
6.6.1	win	2022-12-19	14:17:20	14:20:38	196912	5decaac46e09cf3792805023	728597603	1	practice_slash	5	advance_on_keypress_SLASH	2	stimuli_target_circlediamonds.svg	stimuli_distractor_diamondtriangles.svg	1	yes	57	0	741
6.6.1	win	2022-12-19	14:17:20	14:20:41	200192	5decaac46e09cf3792805023	728597603	1	practice_slash	5	practice_slash	3	stimuli_target_squarediamonds.svg	stimuli_distractor_trianglediamonds.svg	5	yes	53	1	885
6.6.1	win	2022-12-19	14:17:20	14:20:41	200192	5decaac46e09cf3792805023	728597603	1	practice_slash	5	advance_on_keypress_SLASH	4	stimuli_target_squarediamonds.svg	stimuli_distractor_trianglediamonds.svg	5	yes	57	0	806
6.6.1	win	2022-12-19	14:17:20	14:20:46	204638	5decaac46e09cf3792805023	728597603	1	practice_slash	5	practice_slash	5	stimuli_distractor_diamondtriangles.svg	stimuli_target_trianglecircles.svg	9	yes	0	0	2000
6.6.1	win	2022-12-19	14:17:20	14:20:46	204638	5decaac46e09cf3792805023	728597603	1	practice_slash	5	advance_on_keypress_SLASH	6	stimuli_distractor_diamondtriangles.svg	stimuli_target_trianglecircles.svg	9	yes	57	0	1250
6.6.1	win	2022-12-19	14:17:20	14:20:50	208443	5decaac46e09cf3792805023	728597603	1	practice_slash	5	practice_slash	7	stimuli_target_circlediamonds.svg	stimuli_distractor_trianglediamonds.svg	4	yes	53	1	908
6.6.1	win	2022-12-19	14:17:20	14:20:50	208443	5decaac46e09cf3792805023	728597603	1	practice_slash	5	advance_on_keypress_SLASH	8	stimuli_target_circlediamonds.svg	stimuli_distractor_trianglediamonds.svg	4	yes	57	0	454
6.6.1	win	2022-12-19	14:17:20	14:20:53	211421	5decaac46e09cf3792805023	728597603	1	practice_slash	5	practice_slash	9	stimuli_target_squarediamonds.svg	stimuli_distractor_diamondtriangles.svg	2	yes	53	1	872
6.6.1	win	2022-12-19	14:17:20	14:20:53	211421	5decaac46e09cf3792805023	728597603	1	practice_slash	5	advance_on_keypress_SLASH	10	stimuli_target_squarediamonds.svg	stimuli_distractor_diamondtriangles.svg	2	yes	57	0	421
6.6.1	win	2022-12-19	14:17:20	14:20:57	215479	5decaac46e09cf3792805023	728597603	1	practice_slash	5	practice_slash	11	stimuli_target_diamondsquares.svg	stimuli_distractor_trianglediamonds.svg	6	yes	0	0	2000
6.6.1	win	2022-12-19	14:17:20	14:20:57	215479	5decaac46e09cf3792805023	728597603	1	practice_slash	5	advance_on_keypress_SLASH	12	stimuli_target_diamondsquares.svg	stimuli_distractor_trianglediamonds.svg	6	yes	57	0	1723
6.6.1	win	2022-12-19	14:17:20	14:21:01	219647	5decaac46e09cf3792805023	728597603	1	practice_slash	5	practice_slash	13	stimuli_distractor_trianglediamonds.svg	stimuli_target_diamondcircles.svg	12	yes	53	1	805
6.6.1	win	2022-12-19	14:17:20	14:21:01	219647	5decaac46e09cf3792805023	728597603	1	practice_slash	5	advance_on_keypress_SLASH	14	stimuli_distractor_trianglediamonds.svg	stimuli_target_diamondcircles.svg	12	yes	57	0	536
6.6.1	win	2022-12-19	14:17:20	14:21:04	222745	5decaac46e09cf3792805023	728597603	1	practice_slash	5	practice_slash	15	stimuli_distractor_trianglediamonds.svg	stimuli_target_circlediamonds.svg	10	yes	53	1	922
6.6.1	win	2022-12-19	14:17:20	14:21:04	222745	5decaac46e09cf3792805023	728597603	1	practice_slash	5	advance_on_keypress_SLASH	16	stimuli_distractor_trianglediamonds.svg	stimuli_target_circlediamonds.svg	10	yes	57	0	426
6.6.1	win	2022-12-19	14:17:20	14:21:07	225722	5decaac46e09cf3792805023	728597603	1	practice_slash	5	practice_slash	17	stimuli_distractor_trianglediamonds.svg	stimuli_target_squarediamonds.svg	11	yes	53	1	918
6.6.1	win	2022-12-19	14:17:20	14:21:07	225722	5decaac46e09cf3792805023	728597603	1	practice_slash	5	advance_on_keypress_SLASH	18	stimuli_distractor_trianglediamonds.svg	stimuli_target_squarediamonds.svg	11	yes	57	0	411
6.6.1	win	2022-12-19	14:17:20	14:21:11	229784	5decaac46e09cf3792805023	728597603	1	practice_slash	5	practice_slash	19	stimuli_distractor_diamondtriangles.svg	stimuli_distractor_diamondtriangles.svg	13	no	0	1	2000
6.6.1	win	2022-12-19	14:17:20	14:21:11	229784	5decaac46e09cf3792805023	728597603	1	practice_slash	5	advance_on_keypress_SLASH	20	stimuli_distractor_diamondtriangles.svg	stimuli_distractor_diamondtriangles.svg	13	no	57	0	415
6.6.1	win	2022-12-19	14:17:20	14:21:14	233074	5decaac46e09cf3792805023	728597603	1	practice_slash	5	practice_slash	21	stimuli_target_diamondsquares.svg	stimuli_distractor_diamondtriangles.svg	3	yes	53	1	1227
6.6.1	win	2022-12-19	14:17:20	14:21:14	233074	5decaac46e09cf3792805023	728597603	1	practice_slash	5	advance_on_keypress_SLASH	22	stimuli_target_diamondsquares.svg	stimuli_distractor_diamondtriangles.svg	3	yes	57	0	437
6.6.1	win	2022-12-19	14:17:20	14:21:17	236101	5decaac46e09cf3792805023	728597603	1	practice_slash	5	practice_slash	23	stimuli_distractor_diamondtriangles.svg	stimuli_target_diamondcircles.svg	8	yes	53	1	940
6.6.1	win	2022-12-19	14:17:20	14:21:17	236101	5decaac46e09cf3792805023	728597603	1	practice_slash	5	advance_on_keypress_SLASH	24	stimuli_distractor_diamondtriangles.svg	stimuli_target_diamondcircles.svg	8	yes	57	0	491
6.6.1	win	2022-12-19	14:17:20	14:21:20	239042	5decaac46e09cf3792805023	728597603	1	practice_slash	5	practice_slash	25	stimuli_distractor_diamondtriangles.svg	stimuli_target_circletriangles.svg	7	yes	53	1	817
6.6.1	win	2022-12-19	14:17:20	14:21:20	239042	5decaac46e09cf3792805023	728597603	1	practice_slash	5	advance_on_keypress_SLASH	26	stimuli_distractor_diamondtriangles.svg	stimuli_target_circletriangles.svg	7	yes	57	0	405
6.6.1	win	2022-12-19	14:17:20	14:21:24	243090	5decaac46e09cf3792805023	728597603	1	practice_slash	5	practice_slash	27	stimuli_distractor_diamondtriangles.svg	stimuli_distractor_trianglediamonds.svg	14	no	0	1	2000
6.6.1	win	2022-12-19	14:17:20	14:21:24	243090	5decaac46e09cf3792805023	728597603	1	practice_slash	5	advance_on_keypress_SLASH	28	stimuli_distractor_diamondtriangles.svg	stimuli_distractor_trianglediamonds.svg	14	no	57	0	377
6.6.1	win	2022-12-19	14:17:20	14:21:28	247103	5decaac46e09cf3792805023	728597603	1	practice_slash	5	practice_slash	29	stimuli_distractor_trianglediamonds.svg	stimuli_distractor_trianglediamonds.svg	15	no	0	1	2000
6.6.1	win	2022-12-19	14:17:20	14:21:28	247103	5decaac46e09cf3792805023	728597603	1	practice_slash	5	advance_on_keypress_SLASH	30	stimuli_distractor_trianglediamonds.svg	stimuli_distractor_trianglediamonds.svg	15	no	57	0	404
6.6.1	win	2022-12-19	14:17:20	14:21:32	251150	5decaac46e09cf3792805023	728597603	1	practice_slash	5	practice_slash	31	stimuli_distractor_trianglediamonds.svg	stimuli_distractor_diamondtriangles.svg	16	no	0	1	2000
6.6.1	win	2022-12-19	14:17:20	14:21:32	251150	5decaac46e09cf3792805023	728597603	1	practice_slash	5	advance_on_keypress_SLASH	32	stimuli_distractor_trianglediamonds.svg	stimuli_distractor_diamondtriangles.svg	16	no	57	0	375
6.6.1	win	2022-12-19	14:17:20	14:21:40	258624	5decaac46e09cf3792805023	728597603	1	main_slash	7	main_slash	1	stimuli_distractor_diamondtriangles.svg	stimuli_distractor_diamondtriangles.svg	40	no	0	1	2000
6.6.1	win	2022-12-19	14:17:20	14:21:40	258624	5decaac46e09cf3792805023	728597603	1	main_slash	7	advance_on_keypress_SLASH	2	stimuli_distractor_diamondtriangles.svg	stimuli_distractor_diamondtriangles.svg	40	no	57	0	744
6.6.1	win	2022-12-19	14:17:20	14:21:42	260783	5decaac46e09cf3792805023	728597603	1	main_slash	7	main_slash	3	stimuli_distractor_trianglediamonds.svg	stimuli_target_diamondcircles.svg	27	yes	53	1	779
6.6.1	win	2022-12-19	14:17:20	14:21:42	260783	5decaac46e09cf3792805023	728597603	1	main_slash	7	advance_on_keypress_SLASH	4	stimuli_distractor_trianglediamonds.svg	stimuli_target_diamondcircles.svg	27	yes	57	0	1072
6.6.1	win	2022-12-19	14:17:20	14:21:46	264502	5decaac46e09cf3792805023	728597603	1	main_slash	7	main_slash	5	stimuli_distractor_diamondtriangles.svg	stimuli_distractor_diamondtriangles.svg	39	no	0	1	2000
6.6.1	win	2022-12-19	14:17:20	14:21:46	264502	5decaac46e09cf3792805023	728597603	1	main_slash	7	advance_on_keypress_SLASH	6	stimuli_distractor_diamondtriangles.svg	stimuli_distractor_diamondtriangles.svg	39	no	57	0	399
6.6.1	win	2022-12-19	14:17:20	14:21:48	266400	5decaac46e09cf3792805023	728597603	1	main_slash	7	main_slash	7	stimuli_target_diamondcircles.svg	stimuli_distractor_diamondtriangles.svg	23	yes	53	1	850
6.6.1	win	2022-12-19	14:17:20	14:21:48	266400	5decaac46e09cf3792805023	728597603	1	main_slash	7	advance_on_keypress_SLASH	8	stimuli_target_diamondcircles.svg	stimuli_distractor_diamondtriangles.svg	23	yes	57	0	743
6.6.1	win	2022-12-19	14:17:20	14:21:51	269782	5decaac46e09cf3792805023	728597603	1	main_slash	7	main_slash	9	stimuli_distractor_trianglediamonds.svg	stimuli_distractor_trianglediamonds.svg	34	no	0	1	2000
6.6.1	win	2022-12-19	14:17:20	14:21:51	269782	5decaac46e09cf3792805023	728597603	1	main_slash	7	advance_on_keypress_SLASH	10	stimuli_distractor_trianglediamonds.svg	stimuli_distractor_trianglediamonds.svg	34	no	57	0	448
6.6.1	win	2022-12-19	14:17:20	14:21:53	271733	5decaac46e09cf3792805023	728597603	1	main_slash	7	main_slash	11	stimuli_target_diamondsquares.svg	stimuli_distractor_trianglediamonds.svg	20	yes	53	1	854
6.6.1	win	2022-12-19	14:17:20	14:21:53	271733	5decaac46e09cf3792805023	728597603	1	main_slash	7	advance_on_keypress_SLASH	12	stimuli_target_diamondsquares.svg	stimuli_distractor_trianglediamonds.svg	20	yes	57	0	660
6.6.1	win	2022-12-19	14:17:20	14:21:55	273649	5decaac46e09cf3792805023	728597603	1	main_slash	7	main_slash	13	stimuli_distractor_trianglediamonds.svg	stimuli_target_trianglesquares.svg	26	yes	53	1	622
6.6.1	win	2022-12-19	14:17:20	14:21:55	273649	5decaac46e09cf3792805023	728597603	1	main_slash	7	advance_on_keypress_SLASH	14	stimuli_distractor_trianglediamonds.svg	stimuli_target_trianglesquares.svg	26	yes	57	0	790
6.6.1	win	2022-12-19	14:17:20	14:21:57	275601	5decaac46e09cf3792805023	728597603	1	main_slash	7	main_slash	15	stimuli_target_trianglecircles.svg	stimuli_distractor_diamondtriangles.svg	21	yes	53	1	526
6.6.1	win	2022-12-19	14:17:20	14:21:57	275601	5decaac46e09cf3792805023	728597603	1	main_slash	7	advance_on_keypress_SLASH	16	stimuli_target_trianglecircles.svg	stimuli_distractor_diamondtriangles.svg	21	yes	57	0	617
6.6.1	win	2022-12-19	14:17:20	14:21:59	277660	5decaac46e09cf3792805023	728597603	1	main_slash	7	main_slash	17	stimuli_distractor_trianglediamonds.svg	stimuli_target_circletriangles.svg	9	yes	53	1	803
6.6.1	win	2022-12-19	14:17:20	14:21:59	277660	5decaac46e09cf3792805023	728597603	1	main_slash	7	advance_on_keypress_SLASH	18	stimuli_distractor_trianglediamonds.svg	stimuli_target_circletriangles.svg	9	yes	57	0	537
6.6.1	win	2022-12-19	14:17:20	14:22:01	279681	5decaac46e09cf3792805023	728597603	1	main_slash	7	main_slash	19	stimuli_target_diamondsquares.svg	stimuli_distractor_diamondtriangles.svg	24	yes	53	1	841
6.6.1	win	2022-12-19	14:17:20	14:22:01	279681	5decaac46e09cf3792805023	728597603	1	main_slash	7	advance_on_keypress_SLASH	20	stimuli_target_diamondsquares.svg	stimuli_distractor_diamondtriangles.svg	24	yes	57	0	515
6.6.1	win	2022-12-19	14:17:20	14:22:03	281481	5decaac46e09cf3792805023	728597603	1	main_slash	7	main_slash	21	stimuli_distractor_diamondtriangles.svg	stimuli_target_diamondcircles.svg	31	yes	53	1	644
6.6.1	win	2022-12-19	14:17:20	14:22:03	281481	5decaac46e09cf3792805023	728597603	1	main_slash	7	advance_on_keypress_SLASH	22	stimuli_distractor_diamondtriangles.svg	stimuli_target_diamondcircles.svg	31	yes	57	0	476
6.6.1	win	2022-12-19	14:17:20	14:22:04	283281	5decaac46e09cf3792805023	728597603	1	main_slash	7	main_slash	23	stimuli_distractor_diamondtriangles.svg	stimuli_target_squarediamonds.svg	16	yes	53	1	694
6.6.1	win	2022-12-19	14:17:20	14:22:04	283281	5decaac46e09cf3792805023	728597603	1	main_slash	7	advance_on_keypress_SLASH	24	stimuli_distractor_diamondtriangles.svg	stimuli_target_squarediamonds.svg	16	yes	57	0	392
6.6.1	win	2022-12-19	14:17:20	14:22:06	285198	5decaac46e09cf3792805023	728597603	1	main_slash	7	main_slash	25	stimuli_distractor_trianglediamonds.svg	stimuli_target_squaretriangles.svg	11	yes	53	1	880
6.6.1	win	2022-12-19	14:17:20	14:22:06	285198	5decaac46e09cf3792805023	728597603	1	main_slash	7	advance_on_keypress_SLASH	26	stimuli_distractor_trianglediamonds.svg	stimuli_target_squaretriangles.svg	11	yes	57	0	368
6.6.1	win	2022-12-19	14:17:20	14:22:08	287036	5decaac46e09cf3792805023	728597603	1	main_slash	7	main_slash	27	stimuli_target_squaretriangles.svg	stimuli_distractor_trianglediamonds.svg	3	yes	53	1	820
6.6.1	win	2022-12-19	14:17:20	14:22:08	287036	5decaac46e09cf3792805023	728597603	1	main_slash	7	advance_on_keypress_SLASH	28	stimuli_target_squaretriangles.svg	stimuli_distractor_trianglediamonds.svg	3	yes	57	0	420
6.6.1	win	2022-12-19	14:17:20	14:22:10	288607	5decaac46e09cf3792805023	728597603	1	main_slash	7	main_slash	29	stimuli_target_squarediamonds.svg	stimuli_distractor_diamondtriangles.svg	8	yes	53	1	509
6.6.1	win	2022-12-19	14:17:20	14:22:10	288607	5decaac46e09cf3792805023	728597603	1	main_slash	7	advance_on_keypress_SLASH	30	stimuli_target_squarediamonds.svg	stimuli_distractor_diamondtriangles.svg	8	yes	57	0	616
6.6.1	win	2022-12-19	14:17:20	14:22:13	291863	5decaac46e09cf3792805023	728597603	1	main_slash	7	main_slash	31	stimuli_distractor_trianglediamonds.svg	stimuli_distractor_trianglediamonds.svg	33	no	0	1	2000
6.6.1	win	2022-12-19	14:17:20	14:22:13	291863	5decaac46e09cf3792805023	728597603	1	main_slash	7	advance_on_keypress_SLASH	32	stimuli_distractor_trianglediamonds.svg	stimuli_distractor_trianglediamonds.svg	33	no	57	0	446
6.6.1	win	2022-12-19	14:17:20	14:22:15	293747	5decaac46e09cf3792805023	728597603	1	main_slash	7	main_slash	33	stimuli_distractor_diamondtriangles.svg	stimuli_target_trianglesquares.svg	30	yes	53	1	785
6.6.1	win	2022-12-19	14:17:20	14:22:15	293747	5decaac46e09cf3792805023	728597603	1	main_slash	7	advance_on_keypress_SLASH	34	stimuli_distractor_diamondtriangles.svg	stimuli_target_trianglesquares.svg	30	yes	57	0	639
6.6.1	win	2022-12-19	14:17:20	14:22:17	295706	5decaac46e09cf3792805023	728597603	1	main_slash	7	main_slash	35	stimuli_distractor_diamondtriangles.svg	stimuli_target_circletriangles.svg	13	yes	53	1	681
6.6.1	win	2022-12-19	14:17:20	14:22:17	295706	5decaac46e09cf3792805023	728597603	1	main_slash	7	advance_on_keypress_SLASH	36	stimuli_distractor_diamondtriangles.svg	stimuli_target_circletriangles.svg	13	yes	57	0	421
6.6.1	win	2022-12-19	14:17:20	14:22:20	298774	5decaac46e09cf3792805023	728597603	1	main_slash	7	main_slash	37	stimuli_distractor_diamondtriangles.svg	stimuli_distractor_trianglediamonds.svg	38	no	0	1	2000
6.6.1	win	2022-12-19	14:17:20	14:22:20	298774	5decaac46e09cf3792805023	728597603	1	main_slash	7	advance_on_keypress_SLASH	38	stimuli_distractor_diamondtriangles.svg	stimuli_distractor_trianglediamonds.svg	38	no	57	0	395
6.6.1	win	2022-12-19	14:17:20	14:22:22	300433	5decaac46e09cf3792805023	728597603	1	main_slash	7	main_slash	39	stimuli_target_trianglecircles.svg	stimuli_distractor_trianglediamonds.svg	17	yes	53	1	628
6.6.1	win	2022-12-19	14:17:20	14:22:22	300433	5decaac46e09cf3792805023	728597603	1	main_slash	7	advance_on_keypress_SLASH	40	stimuli_target_trianglecircles.svg	stimuli_distractor_trianglediamonds.svg	17	yes	57	0	541
6.6.1	win	2022-12-19	14:17:20	14:22:24	302430	5decaac46e09cf3792805023	728597603	1	main_slash	7	main_slash	41	stimuli_target_circletriangles.svg	stimuli_distractor_trianglediamonds.svg	1	yes	53	1	810
6.6.1	win	2022-12-19	14:17:20	14:22:24	302430	5decaac46e09cf3792805023	728597603	1	main_slash	7	advance_on_keypress_SLASH	42	stimuli_target_circletriangles.svg	stimuli_distractor_trianglediamonds.svg	1	yes	57	0	607
6.6.1	win	2022-12-19	14:17:20	14:22:27	305668	5decaac46e09cf3792805023	728597603	1	main_slash	7	main_slash	43	stimuli_distractor_diamondtriangles.svg	stimuli_distractor_trianglediamonds.svg	37	no	0	1	2000
6.6.1	win	2022-12-19	14:17:20	14:22:27	305668	5decaac46e09cf3792805023	728597603	1	main_slash	7	advance_on_keypress_SLASH	44	stimuli_distractor_diamondtriangles.svg	stimuli_distractor_trianglediamonds.svg	37	no	57	0	415
6.6.1	win	2022-12-19	14:17:20	14:22:29	307433	5decaac46e09cf3792805023	728597603	1	main_slash	7	main_slash	45	stimuli_distractor_trianglediamonds.svg	stimuli_target_circlediamonds.svg	10	yes	53	1	700
6.6.1	win	2022-12-19	14:17:20	14:22:29	307433	5decaac46e09cf3792805023	728597603	1	main_slash	7	advance_on_keypress_SLASH	46	stimuli_distractor_trianglediamonds.svg	stimuli_target_circlediamonds.svg	10	yes	57	0	478
6.6.1	win	2022-12-19	14:17:20	14:22:31	309423	5decaac46e09cf3792805023	728597603	1	main_slash	7	main_slash	47	stimuli_target_diamondcircles.svg	stimuli_distractor_trianglediamonds.svg	19	yes	53	1	875
6.6.1	win	2022-12-19	14:17:20	14:22:31	309423	5decaac46e09cf3792805023	728597603	1	main_slash	7	advance_on_keypress_SLASH	48	stimuli_target_diamondcircles.svg	stimuli_distractor_trianglediamonds.svg	19	yes	57	0	566
6.6.1	win	2022-12-19	14:17:20	14:22:33	311456	5decaac46e09cf3792805023	728597603	1	main_slash	7	main_slash	49	stimuli_distractor_diamondtriangles.svg	stimuli_target_trianglecircles.svg	29	yes	53	1	827
6.6.1	win	2022-12-19	14:17:20	14:22:33	311456	5decaac46e09cf3792805023	728597603	1	main_slash	7	advance_on_keypress_SLASH	50	stimuli_distractor_diamondtriangles.svg	stimuli_target_trianglecircles.svg	29	yes	57	0	1054
6.6.1	win	2022-12-19	14:17:20	14:22:35	314027	5decaac46e09cf3792805023	728597603	1	main_slash	7	main_slash	51	stimuli_target_circlediamonds.svg	stimuli_distractor_diamondtriangles.svg	6	yes	53	1	883
6.6.1	win	2022-12-19	14:17:20	14:22:35	314027	5decaac46e09cf3792805023	728597603	1	main_slash	7	advance_on_keypress_SLASH	52	stimuli_target_circlediamonds.svg	stimuli_distractor_diamondtriangles.svg	6	yes	57	0	502
6.6.1	win	2022-12-19	14:17:20	14:22:37	316102	5decaac46e09cf3792805023	728597603	1	main_slash	7	main_slash	53	stimuli_distractor_diamondtriangles.svg	stimuli_target_diamondsquares.svg	32	yes	53	1	926
6.6.1	win	2022-12-19	14:17:20	14:22:37	316102	5decaac46e09cf3792805023	728597603	1	main_slash	7	advance_on_keypress_SLASH	54	stimuli_distractor_diamondtriangles.svg	stimuli_target_diamondsquares.svg	32	yes	57	0	491
6.6.1	win	2022-12-19	14:17:20	14:22:40	319224	5decaac46e09cf3792805023	728597603	1	main_slash	7	main_slash	55	stimuli_distractor_trianglediamonds.svg	stimuli_distractor_diamondtriangles.svg	35	no	0	1	2000
6.6.1	win	2022-12-19	14:17:20	14:22:40	319224	5decaac46e09cf3792805023	728597603	1	main_slash	7	advance_on_keypress_SLASH	56	stimuli_distractor_trianglediamonds.svg	stimuli_distractor_diamondtriangles.svg	35	no	57	0	463
6.6.1	win	2022-12-19	14:17:20	14:22:42	321155	5decaac46e09cf3792805023	728597603	1	main_slash	7	main_slash	57	stimuli_distractor_diamondtriangles.svg	stimuli_target_squaretriangles.svg	15	yes	53	1	816
6.6.1	win	2022-12-19	14:17:20	14:22:42	321155	5decaac46e09cf3792805023	728597603	1	main_slash	7	advance_on_keypress_SLASH	58	stimuli_distractor_diamondtriangles.svg	stimuli_target_squaretriangles.svg	15	yes	57	0	686
6.6.1	win	2022-12-19	14:17:20	14:22:44	323168	5decaac46e09cf3792805023	728597603	1	main_slash	7	main_slash	59	stimuli_target_squarediamonds.svg	stimuli_distractor_trianglediamonds.svg	4	yes	53	1	682
6.6.1	win	2022-12-19	14:17:20	14:22:44	323168	5decaac46e09cf3792805023	728597603	1	main_slash	7	advance_on_keypress_SLASH	60	stimuli_target_squarediamonds.svg	stimuli_distractor_trianglediamonds.svg	4	yes	57	0	501
6.6.1	win	2022-12-19	14:17:20	14:22:46	325137	5decaac46e09cf3792805023	728597603	1	main_slash	7	main_slash	61	stimuli_distractor_trianglediamonds.svg	stimuli_target_squarediamonds.svg	12	yes	53	1	819
6.6.1	win	2022-12-19	14:17:20	14:22:46	325137	5decaac46e09cf3792805023	728597603	1	main_slash	7	advance_on_keypress_SLASH	62	stimuli_distractor_trianglediamonds.svg	stimuli_target_squarediamonds.svg	12	yes	57	0	605
6.6.1	win	2022-12-19	14:17:20	14:22:48	327179	5decaac46e09cf3792805023	728597603	1	main_slash	7	main_slash	63	stimuli_distractor_diamondtriangles.svg	stimuli_target_circlediamonds.svg	14	yes	53	1	796
6.6.1	win	2022-12-19	14:17:20	14:22:48	327179	5decaac46e09cf3792805023	728597603	1	main_slash	7	advance_on_keypress_SLASH	64	stimuli_distractor_diamondtriangles.svg	stimuli_target_circlediamonds.svg	14	yes	57	0	483
6.6.1	win	2022-12-19	14:17:20	14:22:51	330315	5decaac46e09cf3792805023	728597603	1	main_slash	7	main_slash	65	stimuli_distractor_trianglediamonds.svg	stimuli_distractor_diamondtriangles.svg	36	no	0	1	2000
6.6.1	win	2022-12-19	14:17:20	14:22:51	330315	5decaac46e09cf3792805023	728597603	1	main_slash	7	advance_on_keypress_SLASH	66	stimuli_distractor_trianglediamonds.svg	stimuli_distractor_diamondtriangles.svg	36	no	57	0	438
6.6.1	win	2022-12-19	14:17:20	14:22:53	332150	5decaac46e09cf3792805023	728597603	1	main_slash	7	main_slash	67	stimuli_target_circletriangles.svg	stimuli_distractor_diamondtriangles.svg	5	yes	53	1	754
6.6.1	win	2022-12-19	14:17:20	14:22:53	332150	5decaac46e09cf3792805023	728597603	1	main_slash	7	advance_on_keypress_SLASH	68	stimuli_target_circletriangles.svg	stimuli_distractor_diamondtriangles.svg	5	yes	57	0	475
6.6.1	win	2022-12-19	14:17:20	14:22:56	335261	5decaac46e09cf3792805023	728597603	1	main_slash	7	main_slash	69	stimuli_target_squaretriangles.svg	stimuli_distractor_diamondtriangles.svg	7	yes	0	0	2000
6.6.1	win	2022-12-19	14:17:20	14:22:56	335261	5decaac46e09cf3792805023	728597603	1	main_slash	7	advance_on_keypress_SLASH	70	stimuli_target_squaretriangles.svg	stimuli_distractor_diamondtriangles.svg	7	yes	57	0	395
6.6.1	win	2022-12-19	14:17:20	14:22:59	337566	5decaac46e09cf3792805023	728597603	1	main_slash	7	main_slash	71	stimuli_target_trianglesquares.svg	stimuli_distractor_trianglediamonds.svg	18	yes	53	1	1274
6.6.1	win	2022-12-19	14:17:20	14:22:59	337566	5decaac46e09cf3792805023	728597603	1	main_slash	7	advance_on_keypress_SLASH	72	stimuli_target_trianglesquares.svg	stimuli_distractor_trianglediamonds.svg	18	yes	57	0	462
6.6.1	win	2022-12-19	14:17:20	14:23:01	339584	5decaac46e09cf3792805023	728597603	1	main_slash	7	main_slash	73	stimuli_distractor_trianglediamonds.svg	stimuli_target_diamondsquares.svg	28	yes	53	1	911
6.6.1	win	2022-12-19	14:17:20	14:23:01	339584	5decaac46e09cf3792805023	728597603	1	main_slash	7	advance_on_keypress_SLASH	74	stimuli_distractor_trianglediamonds.svg	stimuli_target_diamondsquares.svg	28	yes	57	0	417
6.6.1	win	2022-12-19	14:17:20	14:23:03	342003	5decaac46e09cf3792805023	728597603	1	main_slash	7	main_slash	75	stimuli_target_circlediamonds.svg	stimuli_distractor_trianglediamonds.svg	2	yes	53	1	1348
6.6.1	win	2022-12-19	14:17:20	14:23:03	342003	5decaac46e09cf3792805023	728597603	1	main_slash	7	advance_on_keypress_SLASH	76	stimuli_target_circlediamonds.svg	stimuli_distractor_trianglediamonds.svg	2	yes	57	0	428
6.6.1	win	2022-12-19	14:17:20	14:23:05	343941	5decaac46e09cf3792805023	728597603	1	main_slash	7	main_slash	77	stimuli_distractor_trianglediamonds.svg	stimuli_target_trianglecircles.svg	25	yes	53	1	871
6.6.1	win	2022-12-19	14:17:20	14:23:05	343941	5decaac46e09cf3792805023	728597603	1	main_slash	7	advance_on_keypress_SLASH	78	stimuli_distractor_trianglediamonds.svg	stimuli_target_trianglecircles.svg	25	yes	57	0	417
6.6.1	win	2022-12-19	14:17:20	14:23:07	345902	5decaac46e09cf3792805023	728597603	1	main_slash	7	main_slash	79	stimuli_target_trianglesquares.svg	stimuli_distractor_diamondtriangles.svg	22	yes	53	1	901
6.6.1	win	2022-12-19	14:17:20	14:23:07	345902	5decaac46e09cf3792805023	728597603	1	main_slash	7	advance_on_keypress_SLASH	80	stimuli_target_trianglesquares.svg	stimuli_distractor_diamondtriangles.svg	22	yes	57	0	398
6.6.1	win	2022-12-19	14:17:20	14:23:09	347957	5decaac46e09cf3792805023	728597603	1	main_slash	7	main_slash	81	stimuli_target_squaretriangles.svg	stimuli_distractor_trianglediamonds.svg	3	yes	53	1	1007
6.6.1	win	2022-12-19	14:17:20	14:23:09	347957	5decaac46e09cf3792805023	728597603	1	main_slash	7	advance_on_keypress_SLASH	82	stimuli_target_squaretriangles.svg	stimuli_distractor_trianglediamonds.svg	3	yes	57	0	492
6.6.1	win	2022-12-19	14:17:20	14:23:12	351081	5decaac46e09cf3792805023	728597603	1	main_slash	7	main_slash	83	stimuli_distractor_trianglediamonds.svg	stimuli_distractor_trianglediamonds.svg	34	no	0	1	2000
6.6.1	win	2022-12-19	14:17:20	14:23:12	351081	5decaac46e09cf3792805023	728597603	1	main_slash	7	advance_on_keypress_SLASH	84	stimuli_distractor_trianglediamonds.svg	stimuli_distractor_trianglediamonds.svg	34	no	57	0	406
6.6.1	win	2022-12-19	14:17:20	14:23:15	354129	5decaac46e09cf3792805023	728597603	1	main_slash	7	main_slash	85	stimuli_distractor_trianglediamonds.svg	stimuli_distractor_trianglediamonds.svg	33	no	0	1	2000
6.6.1	win	2022-12-19	14:17:20	14:23:15	354129	5decaac46e09cf3792805023	728597603	1	main_slash	7	advance_on_keypress_SLASH	86	stimuli_distractor_trianglediamonds.svg	stimuli_distractor_trianglediamonds.svg	33	no	57	0	342
6.6.1	win	2022-12-19	14:17:20	14:23:17	355964	5decaac46e09cf3792805023	728597603	1	main_slash	7	main_slash	87	stimuli_target_diamondsquares.svg	stimuli_distractor_diamondtriangles.svg	24	yes	53	1	854
6.6.1	win	2022-12-19	14:17:20	14:23:17	355964	5decaac46e09cf3792805023	728597603	1	main_slash	7	advance_on_keypress_SLASH	88	stimuli_target_diamondsquares.svg	stimuli_distractor_diamondtriangles.svg	24	yes	57	0	427
6.6.1	win	2022-12-19	14:17:20	14:23:19	357912	5decaac46e09cf3792805023	728597603	1	main_slash	7	main_slash	89	stimuli_distractor_trianglediamonds.svg	stimuli_target_diamondsquares.svg	28	yes	53	1	887
6.6.1	win	2022-12-19	14:17:20	14:23:19	357912	5decaac46e09cf3792805023	728597603	1	main_slash	7	advance_on_keypress_SLASH	90	stimuli_distractor_trianglediamonds.svg	stimuli_target_diamondsquares.svg	28	yes	57	0	417
6.6.1	win	2022-12-19	14:17:20	14:23:21	359816	5decaac46e09cf3792805023	728597603	1	main_slash	7	main_slash	91	stimuli_distractor_trianglediamonds.svg	stimuli_target_circletriangles.svg	9	yes	53	1	842
6.6.1	win	2022-12-19	14:17:20	14:23:21	359816	5decaac46e09cf3792805023	728597603	1	main_slash	7	advance_on_keypress_SLASH	92	stimuli_distractor_trianglediamonds.svg	stimuli_target_circletriangles.svg	9	yes	57	0	350
6.6.1	win	2022-12-19	14:17:20	14:23:23	361982	5decaac46e09cf3792805023	728597603	1	main_slash	7	main_slash	93	stimuli_distractor_trianglediamonds.svg	stimuli_target_diamondcircles.svg	27	yes	53	1	1177
6.6.1	win	2022-12-19	14:17:20	14:23:23	361982	5decaac46e09cf3792805023	728597603	1	main_slash	7	advance_on_keypress_SLASH	94	stimuli_distractor_trianglediamonds.svg	stimuli_target_diamondcircles.svg	27	yes	57	0	391
6.6.1	win	2022-12-19	14:17:20	14:23:25	363875	5decaac46e09cf3792805023	728597603	1	main_slash	7	main_slash	95	stimuli_target_trianglecircles.svg	stimuli_distractor_trianglediamonds.svg	17	yes	53	1	872
6.6.1	win	2022-12-19	14:17:20	14:23:25	363875	5decaac46e09cf3792805023	728597603	1	main_slash	7	advance_on_keypress_SLASH	96	stimuli_target_trianglecircles.svg	stimuli_distractor_trianglediamonds.svg	17	yes	57	0	345
6.6.1	win	2022-12-19	14:17:20	14:23:27	366050	5decaac46e09cf3792805023	728597603	1	main_slash	7	main_slash	97	stimuli_distractor_diamondtriangles.svg	stimuli_target_circletriangles.svg	13	yes	53	1	1197
6.6.1	win	2022-12-19	14:17:20	14:23:27	366050	5decaac46e09cf3792805023	728597603	1	main_slash	7	advance_on_keypress_SLASH	98	stimuli_distractor_diamondtriangles.svg	stimuli_target_circletriangles.svg	13	yes	57	0	372
6.6.1	win	2022-12-19	14:17:20	14:23:30	369066	5decaac46e09cf3792805023	728597603	1	main_slash	7	main_slash	99	stimuli_distractor_diamondtriangles.svg	stimuli_target_trianglecircles.svg	29	yes	0	0	2000
6.6.1	win	2022-12-19	14:17:20	14:23:30	369066	5decaac46e09cf3792805023	728597603	1	main_slash	7	advance_on_keypress_SLASH	100	stimuli_distractor_diamondtriangles.svg	stimuli_target_trianglecircles.svg	29	yes	57	0	388
6.6.1	win	2022-12-19	14:17:20	14:23:32	371227	5decaac46e09cf3792805023	728597603	1	main_slash	7	main_slash	101	stimuli_distractor_trianglediamonds.svg	stimuli_target_squaretriangles.svg	11	yes	53	1	1130
6.6.1	win	2022-12-19	14:17:20	14:23:32	371227	5decaac46e09cf3792805023	728597603	1	main_slash	7	advance_on_keypress_SLASH	102	stimuli_distractor_trianglediamonds.svg	stimuli_target_squaretriangles.svg	11	yes	57	0	386
6.6.1	win	2022-12-19	14:17:20	14:23:34	373045	5decaac46e09cf3792805023	728597603	1	main_slash	7	main_slash	103	stimuli_target_circlediamonds.svg	stimuli_distractor_trianglediamonds.svg	2	yes	53	1	782
6.6.1	win	2022-12-19	14:17:20	14:23:34	373045	5decaac46e09cf3792805023	728597603	1	main_slash	7	advance_on_keypress_SLASH	104	stimuli_target_circlediamonds.svg	stimuli_distractor_trianglediamonds.svg	2	yes	57	0	375
6.6.1	win	2022-12-19	14:17:20	14:23:36	374912	5decaac46e09cf3792805023	728597603	1	main_slash	7	main_slash	105	stimuli_target_squaretriangles.svg	stimuli_distractor_diamondtriangles.svg	7	yes	53	1	850
6.6.1	win	2022-12-19	14:17:20	14:23:36	374912	5decaac46e09cf3792805023	728597603	1	main_slash	7	advance_on_keypress_SLASH	106	stimuli_target_squaretriangles.svg	stimuli_distractor_diamondtriangles.svg	7	yes	57	0	356
6.6.1	win	2022-12-19	14:17:20	14:23:39	377909	5decaac46e09cf3792805023	728597603	1	main_slash	7	main_slash	107	stimuli_distractor_diamondtriangles.svg	stimuli_distractor_trianglediamonds.svg	38	no	0	1	2000
6.6.1	win	2022-12-19	14:17:20	14:23:39	377909	5decaac46e09cf3792805023	728597603	1	main_slash	7	advance_on_keypress_SLASH	108	stimuli_distractor_diamondtriangles.svg	stimuli_distractor_trianglediamonds.svg	38	no	57	0	398
6.6.1	win	2022-12-19	14:17:20	14:23:41	379683	5decaac46e09cf3792805023	728597603	1	main_slash	7	main_slash	109	stimuli_distractor_diamondtriangles.svg	stimuli_target_squarediamonds.svg	16	yes	53	1	726
6.6.1	win	2022-12-19	14:17:20	14:23:41	379683	5decaac46e09cf3792805023	728597603	1	main_slash	7	advance_on_keypress_SLASH	110	stimuli_distractor_diamondtriangles.svg	stimuli_target_squarediamonds.svg	16	yes	57	0	375
6.6.1	win	2022-12-19	14:17:20	14:23:42	381359	5decaac46e09cf3792805023	728597603	1	main_slash	7	main_slash	111	stimuli_distractor_diamondtriangles.svg	stimuli_target_squaretriangles.svg	15	yes	53	1	670
6.6.1	win	2022-12-19	14:17:20	14:23:42	381359	5decaac46e09cf3792805023	728597603	1	main_slash	7	advance_on_keypress_SLASH	112	stimuli_distractor_diamondtriangles.svg	stimuli_target_squaretriangles.svg	15	yes	57	0	368
6.6.1	win	2022-12-19	14:17:20	14:23:44	383133	5decaac46e09cf3792805023	728597603	1	main_slash	7	main_slash	113	stimuli_target_squarediamonds.svg	stimuli_distractor_trianglediamonds.svg	4	yes	53	1	762
6.6.1	win	2022-12-19	14:17:20	14:23:44	383133	5decaac46e09cf3792805023	728597603	1	main_slash	7	advance_on_keypress_SLASH	114	stimuli_target_squarediamonds.svg	stimuli_distractor_trianglediamonds.svg	4	yes	57	0	348
6.6.1	win	2022-12-19	14:17:20	14:23:46	384891	5decaac46e09cf3792805023	728597603	1	main_slash	7	main_slash	115	stimuli_target_circletriangles.svg	stimuli_distractor_diamondtriangles.svg	5	yes	53	1	755
6.6.1	win	2022-12-19	14:17:20	14:23:46	384891	5decaac46e09cf3792805023	728597603	1	main_slash	7	advance_on_keypress_SLASH	116	stimuli_target_circletriangles.svg	stimuli_distractor_diamondtriangles.svg	5	yes	57	0	406
6.6.1	win	2022-12-19	14:17:20	14:23:48	387066	5decaac46e09cf3792805023	728597603	1	main_slash	7	main_slash	117	stimuli_target_diamondcircles.svg	stimuli_distractor_diamondtriangles.svg	23	yes	53	1	1132
6.6.1	win	2022-12-19	14:17:20	14:23:48	387066	5decaac46e09cf3792805023	728597603	1	main_slash	7	advance_on_keypress_SLASH	118	stimuli_target_diamondcircles.svg	stimuli_distractor_diamondtriangles.svg	23	yes	57	0	328
6.6.1	win	2022-12-19	14:17:20	14:23:50	388800	5decaac46e09cf3792805023	728597603	1	main_slash	7	main_slash	119	stimuli_distractor_diamondtriangles.svg	stimuli_target_trianglesquares.svg	30	yes	53	1	767
6.6.1	win	2022-12-19	14:17:20	14:23:50	388800	5decaac46e09cf3792805023	728597603	1	main_slash	7	advance_on_keypress_SLASH	120	stimuli_distractor_diamondtriangles.svg	stimuli_target_trianglesquares.svg	30	yes	57	0	356
6.6.1	win	2022-12-19	14:17:20	14:23:52	390645	5decaac46e09cf3792805023	728597603	1	main_slash	7	main_slash	121	stimuli_target_circlediamonds.svg	stimuli_distractor_diamondtriangles.svg	6	yes	53	1	847
6.6.1	win	2022-12-19	14:17:20	14:23:52	390645	5decaac46e09cf3792805023	728597603	1	main_slash	7	advance_on_keypress_SLASH	122	stimuli_target_circlediamonds.svg	stimuli_distractor_diamondtriangles.svg	6	yes	57	0	374
6.6.1	win	2022-12-19	14:17:20	14:23:54	392550	5decaac46e09cf3792805023	728597603	1	main_slash	7	main_slash	123	stimuli_distractor_diamondtriangles.svg	stimuli_target_circlediamonds.svg	14	yes	53	1	887
6.6.1	win	2022-12-19	14:17:20	14:23:54	392550	5decaac46e09cf3792805023	728597603	1	main_slash	7	advance_on_keypress_SLASH	124	stimuli_distractor_diamondtriangles.svg	stimuli_target_circlediamonds.svg	14	yes	57	0	337
6.6.1	win	2022-12-19	14:17:20	14:23:55	394343	5decaac46e09cf3792805023	728597603	1	main_slash	7	main_slash	125	stimuli_target_circletriangles.svg	stimuli_distractor_trianglediamonds.svg	1	yes	53	1	814
6.6.1	win	2022-12-19	14:17:20	14:23:55	394343	5decaac46e09cf3792805023	728597603	1	main_slash	7	advance_on_keypress_SLASH	126	stimuli_target_circletriangles.svg	stimuli_distractor_trianglediamonds.svg	1	yes	57	0	331
6.6.1	win	2022-12-19	14:17:20	14:23:57	396214	5decaac46e09cf3792805023	728597603	1	main_slash	7	main_slash	127	stimuli_target_diamondcircles.svg	stimuli_distractor_trianglediamonds.svg	19	yes	53	1	887
6.6.1	win	2022-12-19	14:17:20	14:23:57	396214	5decaac46e09cf3792805023	728597603	1	main_slash	7	advance_on_keypress_SLASH	128	stimuli_target_diamondcircles.svg	stimuli_distractor_trianglediamonds.svg	19	yes	57	0	322
6.6.1	win	2022-12-19	14:17:20	14:23:59	398078	5decaac46e09cf3792805023	728597603	1	main_slash	7	main_slash	129	stimuli_distractor_trianglediamonds.svg	stimuli_target_trianglecircles.svg	25	yes	53	1	903
6.6.1	win	2022-12-19	14:17:20	14:23:59	398078	5decaac46e09cf3792805023	728597603	1	main_slash	7	advance_on_keypress_SLASH	130	stimuli_distractor_trianglediamonds.svg	stimuli_target_trianglecircles.svg	25	yes	57	0	374
6.6.1	win	2022-12-19	14:17:20	14:24:01	399955	5decaac46e09cf3792805023	728597603	1	main_slash	7	main_slash	131	stimuli_distractor_trianglediamonds.svg	stimuli_target_circlediamonds.svg	10	yes	53	1	865
6.6.1	win	2022-12-19	14:17:20	14:24:01	399955	5decaac46e09cf3792805023	728597603	1	main_slash	7	advance_on_keypress_SLASH	132	stimuli_distractor_trianglediamonds.svg	stimuli_target_circlediamonds.svg	10	yes	57	0	292
6.6.1	win	2022-12-19	14:17:20	14:24:03	401832	5decaac46e09cf3792805023	728597603	1	main_slash	7	main_slash	133	stimuli_target_diamondsquares.svg	stimuli_distractor_trianglediamonds.svg	20	yes	53	1	942
6.6.1	win	2022-12-19	14:17:20	14:24:03	401832	5decaac46e09cf3792805023	728597603	1	main_slash	7	advance_on_keypress_SLASH	134	stimuli_target_diamondsquares.svg	stimuli_distractor_trianglediamonds.svg	20	yes	57	0	321
6.6.1	win	2022-12-19	14:17:20	14:24:05	403692	5decaac46e09cf3792805023	728597603	1	main_slash	7	main_slash	135	stimuli_distractor_diamondtriangles.svg	stimuli_target_diamondsquares.svg	32	yes	53	1	905
6.6.1	win	2022-12-19	14:17:20	14:24:05	403692	5decaac46e09cf3792805023	728597603	1	main_slash	7	advance_on_keypress_SLASH	136	stimuli_distractor_diamondtriangles.svg	stimuli_target_diamondsquares.svg	32	yes	57	0	350
6.6.1	win	2022-12-19	14:17:20	14:24:07	405560	5decaac46e09cf3792805023	728597603	1	main_slash	7	main_slash	137	stimuli_distractor_trianglediamonds.svg	stimuli_target_trianglesquares.svg	26	yes	53	1	874
6.6.1	win	2022-12-19	14:17:20	14:24:07	405560	5decaac46e09cf3792805023	728597603	1	main_slash	7	advance_on_keypress_SLASH	138	stimuli_distractor_trianglediamonds.svg	stimuli_target_trianglesquares.svg	26	yes	57	0	334
6.6.1	win	2022-12-19	14:17:20	14:24:10	408534	5decaac46e09cf3792805023	728597603	1	main_slash	7	main_slash	139	stimuli_distractor_diamondtriangles.svg	stimuli_distractor_diamondtriangles.svg	40	no	0	1	2000
6.6.1	win	2022-12-19	14:17:20	14:24:10	408534	5decaac46e09cf3792805023	728597603	1	main_slash	7	advance_on_keypress_SLASH	140	stimuli_distractor_diamondtriangles.svg	stimuli_distractor_diamondtriangles.svg	40	no	57	0	429
6.6.1	win	2022-12-19	14:17:20	14:24:12	410424	5decaac46e09cf3792805023	728597603	1	main_slash	7	main_slash	141	stimuli_target_trianglecircles.svg	stimuli_distractor_diamondtriangles.svg	21	yes	53	1	809
6.6.1	win	2022-12-19	14:17:20	14:24:12	410424	5decaac46e09cf3792805023	728597603	1	main_slash	7	advance_on_keypress_SLASH	142	stimuli_target_trianglecircles.svg	stimuli_distractor_diamondtriangles.svg	21	yes	57	0	333
6.6.1	win	2022-12-19	14:17:20	14:24:13	412300	5decaac46e09cf3792805023	728597603	1	main_slash	7	main_slash	143	stimuli_target_trianglesquares.svg	stimuli_distractor_trianglediamonds.svg	18	yes	53	1	903
6.6.1	win	2022-12-19	14:17:20	14:24:13	412300	5decaac46e09cf3792805023	728597603	1	main_slash	7	advance_on_keypress_SLASH	144	stimuli_target_trianglesquares.svg	stimuli_distractor_trianglediamonds.svg	18	yes	57	0	302
6.6.1	win	2022-12-19	14:17:20	14:24:16	414664	5decaac46e09cf3792805023	728597603	1	main_slash	7	main_slash	145	stimuli_distractor_trianglediamonds.svg	stimuli_target_squarediamonds.svg	12	yes	53	1	1419
6.6.1	win	2022-12-19	14:17:20	14:24:16	414664	5decaac46e09cf3792805023	728597603	1	main_slash	7	advance_on_keypress_SLASH	146	stimuli_distractor_trianglediamonds.svg	stimuli_target_squarediamonds.svg	12	yes	57	0	316
6.6.1	win	2022-12-19	14:17:20	14:24:19	417627	5decaac46e09cf3792805023	728597603	1	main_slash	7	main_slash	147	stimuli_distractor_diamondtriangles.svg	stimuli_distractor_diamondtriangles.svg	39	no	0	1	2000
6.6.1	win	2022-12-19	14:17:20	14:24:19	417627	5decaac46e09cf3792805023	728597603	1	main_slash	7	advance_on_keypress_SLASH	148	stimuli_distractor_diamondtriangles.svg	stimuli_distractor_diamondtriangles.svg	39	no	57	0	1243
6.6.1	win	2022-12-19	14:17:20	14:24:21	420206	5decaac46e09cf3792805023	728597603	1	main_slash	7	main_slash	149	stimuli_distractor_diamondtriangles.svg	stimuli_target_diamondcircles.svg	31	yes	53	1	698
6.6.1	win	2022-12-19	14:17:20	14:24:21	420206	5decaac46e09cf3792805023	728597603	1	main_slash	7	advance_on_keypress_SLASH	150	stimuli_distractor_diamondtriangles.svg	stimuli_target_diamondcircles.svg	31	yes	57	0	343
6.6.1	win	2022-12-19	14:17:20	14:24:24	423189	5decaac46e09cf3792805023	728597603	1	main_slash	7	main_slash	151	stimuli_distractor_trianglediamonds.svg	stimuli_distractor_diamondtriangles.svg	35	no	0	1	2000
6.6.1	win	2022-12-19	14:17:20	14:24:24	423189	5decaac46e09cf3792805023	728597603	1	main_slash	7	advance_on_keypress_SLASH	152	stimuli_distractor_trianglediamonds.svg	stimuli_distractor_diamondtriangles.svg	35	no	57	0	403
6.6.1	win	2022-12-19	14:17:20	14:24:27	426236	5decaac46e09cf3792805023	728597603	1	main_slash	7	main_slash	153	stimuli_distractor_diamondtriangles.svg	stimuli_distractor_trianglediamonds.svg	37	no	0	1	2000
6.6.1	win	2022-12-19	14:17:20	14:24:27	426236	5decaac46e09cf3792805023	728597603	1	main_slash	7	advance_on_keypress_SLASH	154	stimuli_distractor_diamondtriangles.svg	stimuli_distractor_trianglediamonds.svg	37	no	57	0	967
6.6.1	win	2022-12-19	14:17:20	14:24:30	428840	5decaac46e09cf3792805023	728597603	1	main_slash	7	main_slash	155	stimuli_target_trianglesquares.svg	stimuli_distractor_diamondtriangles.svg	22	yes	53	1	989
6.6.1	win	2022-12-19	14:17:20	14:24:30	428840	5decaac46e09cf3792805023	728597603	1	main_slash	7	advance_on_keypress_SLASH	156	stimuli_target_trianglesquares.svg	stimuli_distractor_diamondtriangles.svg	22	yes	57	0	597
6.6.1	win	2022-12-19	14:17:20	14:24:32	431339	5decaac46e09cf3792805023	728597603	1	main_slash	7	main_slash	157	stimuli_target_squarediamonds.svg	stimuli_distractor_diamondtriangles.svg	8	yes	53	1	1258
6.6.1	win	2022-12-19	14:17:20	14:24:32	431339	5decaac46e09cf3792805023	728597603	1	main_slash	7	advance_on_keypress_SLASH	158	stimuli_target_squarediamonds.svg	stimuli_distractor_diamondtriangles.svg	8	yes	57	0	457
6.6.1	win	2022-12-19	14:17:20	14:24:36	434430	5decaac46e09cf3792805023	728597603	1	main_slash	7	main_slash	159	stimuli_distractor_trianglediamonds.svg	stimuli_distractor_diamondtriangles.svg	36	no	0	1	2000
6.6.1	win	2022-12-19	14:17:20	14:24:36	434430	5decaac46e09cf3792805023	728597603	1	main_slash	7	advance_on_keypress_SLASH	160	stimuli_distractor_trianglediamonds.svg	stimuli_distractor_diamondtriangles.svg	36	no	57	0	504
6.6.1	win	2022-12-19	14:17:20	14:24:49	448361	5decaac46e09cf3792805023	728597603	1	practice_z	9	practice_z	1	stimuli_distractor_trianglediamonds.svg	stimuli_target_circlediamonds.svg	10	yes	44	1	424
6.6.1	win	2022-12-19	14:17:20	14:24:49	448361	5decaac46e09cf3792805023	728597603	1	practice_z	9	advance_on_keypress_ZEE	2	stimuli_distractor_trianglediamonds.svg	stimuli_target_circlediamonds.svg	10	yes	57	0	1135
6.6.1	win	2022-12-19	14:17:20	14:24:53	452119	5decaac46e09cf3792805023	728597603	1	practice_z	9	practice_z	3	stimuli_target_diamondsquares.svg	stimuli_distractor_trianglediamonds.svg	6	yes	44	1	968
6.6.1	win	2022-12-19	14:17:20	14:24:53	452119	5decaac46e09cf3792805023	728597603	1	practice_z	9	advance_on_keypress_ZEE	4	stimuli_target_diamondsquares.svg	stimuli_distractor_trianglediamonds.svg	6	yes	57	0	373
6.6.1	win	2022-12-19	14:17:20	14:24:56	454833	5decaac46e09cf3792805023	728597603	1	practice_z	9	practice_z	5	stimuli_distractor_trianglediamonds.svg	stimuli_target_squarediamonds.svg	11	yes	44	1	702
6.6.1	win	2022-12-19	14:17:20	14:24:56	454833	5decaac46e09cf3792805023	728597603	1	practice_z	9	advance_on_keypress_ZEE	6	stimuli_distractor_trianglediamonds.svg	stimuli_target_squarediamonds.svg	11	yes	57	0	480
6.6.1	win	2022-12-19	14:17:20	14:24:59	457606	5decaac46e09cf3792805023	728597603	1	practice_z	9	practice_z	7	stimuli_target_circlediamonds.svg	stimuli_distractor_trianglediamonds.svg	4	yes	44	1	644
6.6.1	win	2022-12-19	14:17:20	14:24:59	457606	5decaac46e09cf3792805023	728597603	1	practice_z	9	advance_on_keypress_ZEE	8	stimuli_target_circlediamonds.svg	stimuli_distractor_trianglediamonds.svg	4	yes	57	0	394
6.6.1	win	2022-12-19	14:17:20	14:25:03	461660	5decaac46e09cf3792805023	728597603	1	practice_z	9	practice_z	9	stimuli_distractor_diamondtriangles.svg	stimuli_distractor_diamondtriangles.svg	13	no	0	1	2000
6.6.1	win	2022-12-19	14:17:20	14:25:03	461660	5decaac46e09cf3792805023	728597603	1	practice_z	9	advance_on_keypress_ZEE	10	stimuli_distractor_diamondtriangles.svg	stimuli_distractor_diamondtriangles.svg	13	no	57	0	527
6.6.1	win	2022-12-19	14:17:20	14:25:06	464607	5decaac46e09cf3792805023	728597603	1	practice_z	9	practice_z	11	stimuli_target_circlediamonds.svg	stimuli_distractor_diamondtriangles.svg	1	yes	44	1	784
6.6.1	win	2022-12-19	14:17:20	14:25:06	464607	5decaac46e09cf3792805023	728597603	1	practice_z	9	advance_on_keypress_ZEE	12	stimuli_target_circlediamonds.svg	stimuli_distractor_diamondtriangles.svg	1	yes	57	0	386
6.6.1	win	2022-12-19	14:17:20	14:25:10	468638	5decaac46e09cf3792805023	728597603	1	practice_z	9	practice_z	13	stimuli_distractor_trianglediamonds.svg	stimuli_distractor_trianglediamonds.svg	15	no	0	1	2000
6.6.1	win	2022-12-19	14:17:20	14:25:10	468638	5decaac46e09cf3792805023	728597603	1	practice_z	9	advance_on_keypress_ZEE	14	stimuli_distractor_trianglediamonds.svg	stimuli_distractor_trianglediamonds.svg	15	no	57	0	398
6.6.1	win	2022-12-19	14:17:20	14:25:13	471535	5decaac46e09cf3792805023	728597603	1	practice_z	9	practice_z	15	stimuli_target_squarediamonds.svg	stimuli_distractor_diamondtriangles.svg	2	yes	44	1	851
6.6.1	win	2022-12-19	14:17:20	14:25:13	471535	5decaac46e09cf3792805023	728597603	1	practice_z	9	advance_on_keypress_ZEE	16	stimuli_target_squarediamonds.svg	stimuli_distractor_diamondtriangles.svg	2	yes	57	0	407
6.6.1	win	2022-12-19	14:17:20	14:25:17	475582	5decaac46e09cf3792805023	728597603	1	practice_z	9	practice_z	17	stimuli_target_diamondsquares.svg	stimuli_distractor_diamondtriangles.svg	3	yes	0	0	2000
6.6.1	win	2022-12-19	14:17:20	14:25:17	475582	5decaac46e09cf3792805023	728597603	1	practice_z	9	advance_on_keypress_ZEE	18	stimuli_target_diamondsquares.svg	stimuli_distractor_diamondtriangles.svg	3	yes	57	0	428
6.6.1	win	2022-12-19	14:17:20	14:25:20	478497	5decaac46e09cf3792805023	728597603	1	practice_z	9	practice_z	19	stimuli_distractor_diamondtriangles.svg	stimuli_target_trianglecircles.svg	9	yes	44	1	835
6.6.1	win	2022-12-19	14:17:20	14:25:20	478497	5decaac46e09cf3792805023	728597603	1	practice_z	9	advance_on_keypress_ZEE	20	stimuli_distractor_diamondtriangles.svg	stimuli_target_trianglecircles.svg	9	yes	57	0	401
6.6.1	win	2022-12-19	14:17:20	14:25:24	482543	5decaac46e09cf3792805023	728597603	1	practice_z	9	practice_z	21	stimuli_distractor_trianglediamonds.svg	stimuli_distractor_diamondtriangles.svg	16	no	0	1	2000
6.6.1	win	2022-12-19	14:17:20	14:25:24	482543	5decaac46e09cf3792805023	728597603	1	practice_z	9	advance_on_keypress_ZEE	22	stimuli_distractor_trianglediamonds.svg	stimuli_distractor_diamondtriangles.svg	16	no	57	0	517
6.6.1	win	2022-12-19	14:17:20	14:25:28	486706	5decaac46e09cf3792805023	728597603	1	practice_z	9	practice_z	23	stimuli_distractor_diamondtriangles.svg	stimuli_distractor_trianglediamonds.svg	14	no	0	1	2000
6.6.1	win	2022-12-19	14:17:20	14:25:28	486706	5decaac46e09cf3792805023	728597603	1	practice_z	9	advance_on_keypress_ZEE	24	stimuli_distractor_diamondtriangles.svg	stimuli_distractor_trianglediamonds.svg	14	no	57	0	414
6.6.1	win	2022-12-19	14:17:20	14:25:31	489520	5decaac46e09cf3792805023	728597603	1	practice_z	9	practice_z	25	stimuli_target_squarediamonds.svg	stimuli_distractor_trianglediamonds.svg	5	yes	44	1	750
6.6.1	win	2022-12-19	14:17:20	14:25:31	489520	5decaac46e09cf3792805023	728597603	1	practice_z	9	advance_on_keypress_ZEE	26	stimuli_target_squarediamonds.svg	stimuli_distractor_trianglediamonds.svg	5	yes	57	0	490
6.6.1	win	2022-12-19	14:17:20	14:25:34	492568	5decaac46e09cf3792805023	728597603	1	practice_z	9	practice_z	27	stimuli_distractor_trianglediamonds.svg	stimuli_target_diamondcircles.svg	12	yes	44	1	917
6.6.1	win	2022-12-19	14:17:20	14:25:34	492568	5decaac46e09cf3792805023	728597603	1	practice_z	9	advance_on_keypress_ZEE	28	stimuli_distractor_trianglediamonds.svg	stimuli_target_diamondcircles.svg	12	yes	57	0	433
6.6.1	win	2022-12-19	14:17:20	14:25:37	495467	5decaac46e09cf3792805023	728597603	1	practice_z	9	practice_z	29	stimuli_distractor_diamondtriangles.svg	stimuli_target_circletriangles.svg	7	yes	44	1	819
6.6.1	win	2022-12-19	14:17:20	14:25:37	495467	5decaac46e09cf3792805023	728597603	1	practice_z	9	advance_on_keypress_ZEE	30	stimuli_distractor_diamondtriangles.svg	stimuli_target_circletriangles.svg	7	yes	57	0	390
6.6.1	win	2022-12-19	14:17:20	14:25:39	498336	5decaac46e09cf3792805023	728597603	1	practice_z	9	practice_z	31	stimuli_distractor_diamondtriangles.svg	stimuli_target_diamondcircles.svg	8	yes	44	1	839
6.6.1	win	2022-12-19	14:17:20	14:25:39	498336	5decaac46e09cf3792805023	728597603	1	practice_z	9	advance_on_keypress_ZEE	32	stimuli_distractor_diamondtriangles.svg	stimuli_target_diamondcircles.svg	8	yes	57	0	387
6.6.1	win	2022-12-19	14:17:20	14:25:43	502271	5decaac46e09cf3792805023	728597603	1	main_z	11	main_z	1	stimuli_distractor_trianglediamonds.svg	stimuli_target_trianglesquares.svg	26	yes	44	1	765
6.6.1	win	2022-12-19	14:17:20	14:25:43	502271	5decaac46e09cf3792805023	728597603	1	main_z	11	advance_on_keypress_ZEE	2	stimuli_distractor_trianglediamonds.svg	stimuli_target_trianglesquares.svg	26	yes	57	0	629
6.6.1	win	2022-12-19	14:17:20	14:25:45	504220	5decaac46e09cf3792805023	728597603	1	main_z	11	main_z	3	stimuli_distractor_trianglediamonds.svg	stimuli_target_diamondcircles.svg	27	yes	44	1	665
6.6.1	win	2022-12-19	14:17:20	14:25:45	504220	5decaac46e09cf3792805023	728597603	1	main_z	11	advance_on_keypress_ZEE	4	stimuli_distractor_trianglediamonds.svg	stimuli_target_diamondcircles.svg	27	yes	57	0	662
6.6.1	win	2022-12-19	14:17:20	14:25:48	506516	5decaac46e09cf3792805023	728597603	1	main_z	11	main_z	5	stimuli_target_squaretriangles.svg	stimuli_distractor_diamondtriangles.svg	7	yes	44	1	979
6.6.1	win	2022-12-19	14:17:20	14:25:48	506516	5decaac46e09cf3792805023	728597603	1	main_z	11	advance_on_keypress_ZEE	6	stimuli_target_squaretriangles.svg	stimuli_distractor_diamondtriangles.svg	7	yes	57	0	527
6.6.1	win	2022-12-19	14:17:20	14:25:50	508593	5decaac46e09cf3792805023	728597603	1	main_z	11	main_z	7	stimuli_target_diamondcircles.svg	stimuli_distractor_diamondtriangles.svg	23	yes	44	1	909
6.6.1	win	2022-12-19	14:17:20	14:25:50	508593	5decaac46e09cf3792805023	728597603	1	main_z	11	advance_on_keypress_ZEE	8	stimuli_target_diamondcircles.svg	stimuli_distractor_diamondtriangles.svg	23	yes	57	0	393
6.6.1	win	2022-12-19	14:17:20	14:25:52	510471	5decaac46e09cf3792805023	728597603	1	main_z	11	main_z	9	stimuli_distractor_diamondtriangles.svg	stimuli_target_diamondsquares.svg	32	yes	44	1	855
6.6.1	win	2022-12-19	14:17:20	14:25:52	510471	5decaac46e09cf3792805023	728597603	1	main_z	11	advance_on_keypress_ZEE	10	stimuli_distractor_diamondtriangles.svg	stimuli_target_diamondsquares.svg	32	yes	57	0	431
6.6.1	win	2022-12-19	14:17:20	14:25:53	512227	5decaac46e09cf3792805023	728597603	1	main_z	11	main_z	11	stimuli_target_diamondsquares.svg	stimuli_distractor_diamondtriangles.svg	24	yes	44	1	679
6.6.1	win	2022-12-19	14:17:20	14:25:53	512227	5decaac46e09cf3792805023	728597603	1	main_z	11	advance_on_keypress_ZEE	12	stimuli_target_diamondsquares.svg	stimuli_distractor_diamondtriangles.svg	24	yes	57	0	439
6.6.1	win	2022-12-19	14:17:20	14:25:55	514256	5decaac46e09cf3792805023	728597603	1	main_z	11	main_z	13	stimuli_distractor_trianglediamonds.svg	stimuli_target_squaretriangles.svg	11	yes	44	1	942
6.6.1	win	2022-12-19	14:17:20	14:25:55	514256	5decaac46e09cf3792805023	728597603	1	main_z	11	advance_on_keypress_ZEE	14	stimuli_distractor_trianglediamonds.svg	stimuli_target_squaretriangles.svg	11	yes	57	0	430
6.6.1	win	2022-12-19	14:17:20	14:25:57	516271	5decaac46e09cf3792805023	728597603	1	main_z	11	main_z	15	stimuli_distractor_diamondtriangles.svg	stimuli_target_circlediamonds.svg	14	yes	44	1	943
6.6.1	win	2022-12-19	14:17:20	14:25:57	516271	5decaac46e09cf3792805023	728597603	1	main_z	11	advance_on_keypress_ZEE	16	stimuli_distractor_diamondtriangles.svg	stimuli_target_circlediamonds.svg	14	yes	57	0	342
6.6.1	win	2022-12-19	14:17:20	14:25:59	518233	5decaac46e09cf3792805023	728597603	1	main_z	11	main_z	17	stimuli_distractor_trianglediamonds.svg	stimuli_target_circlediamonds.svg	10	yes	44	1	990
6.6.1	win	2022-12-19	14:17:20	14:25:59	518233	5decaac46e09cf3792805023	728597603	1	main_z	11	advance_on_keypress_ZEE	18	stimuli_distractor_trianglediamonds.svg	stimuli_target_circlediamonds.svg	10	yes	57	0	393
6.6.1	win	2022-12-19	14:17:20	14:26:02	521258	5decaac46e09cf3792805023	728597603	1	main_z	11	main_z	19	stimuli_distractor_trianglediamonds.svg	stimuli_distractor_trianglediamonds.svg	34	no	0	1	2000
6.6.1	win	2022-12-19	14:17:20	14:26:02	521258	5decaac46e09cf3792805023	728597603	1	main_z	11	advance_on_keypress_ZEE	20	stimuli_distractor_trianglediamonds.svg	stimuli_distractor_trianglediamonds.svg	34	no	57	0	391
6.6.1	win	2022-12-19	14:17:20	14:26:04	523188	5decaac46e09cf3792805023	728597603	1	main_z	11	main_z	21	stimuli_distractor_diamondtriangles.svg	stimuli_target_squarediamonds.svg	16	yes	44	1	899
6.6.1	win	2022-12-19	14:17:20	14:26:04	523188	5decaac46e09cf3792805023	728597603	1	main_z	11	advance_on_keypress_ZEE	22	stimuli_distractor_diamondtriangles.svg	stimuli_target_squarediamonds.svg	16	yes	57	0	357
6.6.1	win	2022-12-19	14:17:20	14:26:06	525095	5decaac46e09cf3792805023	728597603	1	main_z	11	main_z	23	stimuli_distractor_diamondtriangles.svg	stimuli_target_diamondcircles.svg	31	yes	44	1	907
6.6.1	win	2022-12-19	14:17:20	14:26:06	525095	5decaac46e09cf3792805023	728597603	1	main_z	11	advance_on_keypress_ZEE	24	stimuli_distractor_diamondtriangles.svg	stimuli_target_diamondcircles.svg	31	yes	57	0	404
6.6.1	win	2022-12-19	14:17:20	14:26:09	528136	5decaac46e09cf3792805023	728597603	1	main_z	11	main_z	25	stimuli_distractor_diamondtriangles.svg	stimuli_distractor_trianglediamonds.svg	37	no	0	1	2000
6.6.1	win	2022-12-19	14:17:20	14:26:09	528136	5decaac46e09cf3792805023	728597603	1	main_z	11	advance_on_keypress_ZEE	26	stimuli_distractor_diamondtriangles.svg	stimuli_distractor_trianglediamonds.svg	37	no	57	0	358
6.6.1	win	2022-12-19	14:17:20	14:26:11	530029	5decaac46e09cf3792805023	728597603	1	main_z	11	main_z	27	stimuli_distractor_diamondtriangles.svg	stimuli_target_circletriangles.svg	13	yes	44	1	896
6.6.1	win	2022-12-19	14:17:20	14:26:11	530029	5decaac46e09cf3792805023	728597603	1	main_z	11	advance_on_keypress_ZEE	28	stimuli_distractor_diamondtriangles.svg	stimuli_target_circletriangles.svg	13	yes	57	0	346
6.6.1	win	2022-12-19	14:17:20	14:26:13	531812	5decaac46e09cf3792805023	728597603	1	main_z	11	main_z	29	stimuli_distractor_diamondtriangles.svg	stimuli_target_squaretriangles.svg	15	yes	44	1	780
6.6.1	win	2022-12-19	14:17:20	14:26:13	531812	5decaac46e09cf3792805023	728597603	1	main_z	11	advance_on_keypress_ZEE	30	stimuli_distractor_diamondtriangles.svg	stimuli_target_squaretriangles.svg	15	yes	57	0	418
6.6.1	win	2022-12-19	14:17:20	14:26:15	533874	5decaac46e09cf3792805023	728597603	1	main_z	11	main_z	31	stimuli_distractor_trianglediamonds.svg	stimuli_target_circletriangles.svg	9	yes	44	1	994
6.6.1	win	2022-12-19	14:17:20	14:26:15	533874	5decaac46e09cf3792805023	728597603	1	main_z	11	advance_on_keypress_ZEE	32	stimuli_distractor_trianglediamonds.svg	stimuli_target_circletriangles.svg	9	yes	57	0	391
6.6.1	win	2022-12-19	14:17:20	14:26:17	535778	5decaac46e09cf3792805023	728597603	1	main_z	11	main_z	33	stimuli_target_circletriangles.svg	stimuli_distractor_trianglediamonds.svg	1	yes	44	1	866
6.6.1	win	2022-12-19	14:17:20	14:26:17	535778	5decaac46e09cf3792805023	728597603	1	main_z	11	advance_on_keypress_ZEE	34	stimuli_target_circletriangles.svg	stimuli_distractor_trianglediamonds.svg	1	yes	57	0	413
6.6.1	win	2022-12-19	14:17:20	14:26:20	538844	5decaac46e09cf3792805023	728597603	1	main_z	11	main_z	35	stimuli_distractor_trianglediamonds.svg	stimuli_distractor_diamondtriangles.svg	36	no	0	1	2000
6.6.1	win	2022-12-19	14:17:20	14:26:20	538844	5decaac46e09cf3792805023	728597603	1	main_z	11	advance_on_keypress_ZEE	36	stimuli_distractor_trianglediamonds.svg	stimuli_distractor_diamondtriangles.svg	36	no	57	0	382
6.6.1	win	2022-12-19	14:17:20	14:26:23	541875	5decaac46e09cf3792805023	728597603	1	main_z	11	main_z	37	stimuli_distractor_diamondtriangles.svg	stimuli_distractor_trianglediamonds.svg	38	no	0	1	2000
6.6.1	win	2022-12-19	14:17:20	14:26:23	541875	5decaac46e09cf3792805023	728597603	1	main_z	11	advance_on_keypress_ZEE	38	stimuli_distractor_diamondtriangles.svg	stimuli_distractor_trianglediamonds.svg	38	no	57	0	414
6.6.1	win	2022-12-19	14:17:20	14:26:25	543827	5decaac46e09cf3792805023	728597603	1	main_z	11	main_z	39	stimuli_target_trianglesquares.svg	stimuli_distractor_diamondtriangles.svg	22	yes	44	1	887
6.6.1	win	2022-12-19	14:17:20	14:26:25	543827	5decaac46e09cf3792805023	728597603	1	main_z	11	advance_on_keypress_ZEE	40	stimuli_target_trianglesquares.svg	stimuli_distractor_diamondtriangles.svg	22	yes	57	0	405
6.6.1	win	2022-12-19	14:17:20	14:26:27	545700	5decaac46e09cf3792805023	728597603	1	main_z	11	main_z	41	stimuli_target_squaretriangles.svg	stimuli_distractor_trianglediamonds.svg	3	yes	44	1	829
6.6.1	win	2022-12-19	14:17:20	14:26:27	545700	5decaac46e09cf3792805023	728597603	1	main_z	11	advance_on_keypress_ZEE	42	stimuli_target_squaretriangles.svg	stimuli_distractor_trianglediamonds.svg	3	yes	57	0	410
6.6.1	win	2022-12-19	14:17:20	14:26:29	547578	5decaac46e09cf3792805023	728597603	1	main_z	11	main_z	43	stimuli_distractor_trianglediamonds.svg	stimuli_target_trianglecircles.svg	25	yes	44	1	826
6.6.1	win	2022-12-19	14:17:20	14:26:29	547578	5decaac46e09cf3792805023	728597603	1	main_z	11	advance_on_keypress_ZEE	44	stimuli_distractor_trianglediamonds.svg	stimuli_target_trianglecircles.svg	25	yes	57	0	362
6.6.1	win	2022-12-19	14:17:20	14:26:31	549483	5decaac46e09cf3792805023	728597603	1	main_z	11	main_z	45	stimuli_target_circlediamonds.svg	stimuli_distractor_diamondtriangles.svg	6	yes	44	1	899
6.6.1	win	2022-12-19	14:17:20	14:26:31	549483	5decaac46e09cf3792805023	728597603	1	main_z	11	advance_on_keypress_ZEE	46	stimuli_target_circlediamonds.svg	stimuli_distractor_diamondtriangles.svg	6	yes	57	0	354
6.6.1	win	2022-12-19	14:17:20	14:26:32	551306	5decaac46e09cf3792805023	728597603	1	main_z	11	main_z	47	stimuli_distractor_trianglediamonds.svg	stimuli_target_squarediamonds.svg	12	yes	44	1	823
6.6.1	win	2022-12-19	14:17:20	14:26:32	551306	5decaac46e09cf3792805023	728597603	1	main_z	11	advance_on_keypress_ZEE	48	stimuli_distractor_trianglediamonds.svg	stimuli_target_squarediamonds.svg	12	yes	57	0	430
6.6.1	win	2022-12-19	14:17:20	14:26:34	553048	5decaac46e09cf3792805023	728597603	1	main_z	11	main_z	49	stimuli_target_circletriangles.svg	stimuli_distractor_diamondtriangles.svg	5	yes	44	1	667
6.6.1	win	2022-12-19	14:17:20	14:26:34	553048	5decaac46e09cf3792805023	728597603	1	main_z	11	advance_on_keypress_ZEE	50	stimuli_target_circletriangles.svg	stimuli_distractor_diamondtriangles.svg	5	yes	57	0	440
6.6.1	win	2022-12-19	14:17:20	14:26:36	555052	5decaac46e09cf3792805023	728597603	1	main_z	11	main_z	51	stimuli_target_trianglesquares.svg	stimuli_distractor_trianglediamonds.svg	18	yes	44	1	922
6.6.1	win	2022-12-19	14:17:20	14:26:36	555052	5decaac46e09cf3792805023	728597603	1	main_z	11	advance_on_keypress_ZEE	52	stimuli_target_trianglesquares.svg	stimuli_distractor_trianglediamonds.svg	18	yes	57	0	326
6.6.1	win	2022-12-19	14:17:20	14:26:39	558012	5decaac46e09cf3792805023	728597603	1	main_z	11	main_z	53	stimuli_distractor_trianglediamonds.svg	stimuli_distractor_trianglediamonds.svg	33	no	0	1	2000
6.6.1	win	2022-12-19	14:17:20	14:26:39	558012	5decaac46e09cf3792805023	728597603	1	main_z	11	advance_on_keypress_ZEE	54	stimuli_distractor_trianglediamonds.svg	stimuli_distractor_trianglediamonds.svg	33	no	57	0	362
6.6.1	win	2022-12-19	14:17:20	14:26:42	561009	5decaac46e09cf3792805023	728597603	1	main_z	11	main_z	55	stimuli_distractor_trianglediamonds.svg	stimuli_distractor_diamondtriangles.svg	35	no	0	1	2000
6.6.1	win	2022-12-19	14:17:20	14:26:42	561009	5decaac46e09cf3792805023	728597603	1	main_z	11	advance_on_keypress_ZEE	56	stimuli_distractor_trianglediamonds.svg	stimuli_distractor_diamondtriangles.svg	35	no	57	0	327
6.6.1	win	2022-12-19	14:17:20	14:26:44	562877	5decaac46e09cf3792805023	728597603	1	main_z	11	main_z	57	stimuli_target_squarediamonds.svg	stimuli_distractor_diamondtriangles.svg	8	yes	44	1	887
6.6.1	win	2022-12-19	14:17:20	14:26:44	562877	5decaac46e09cf3792805023	728597603	1	main_z	11	advance_on_keypress_ZEE	58	stimuli_target_squarediamonds.svg	stimuli_distractor_diamondtriangles.svg	8	yes	57	0	407
6.6.1	win	2022-12-19	14:17:20	14:26:47	565400	5decaac46e09cf3792805023	728597603	1	main_z	11	main_z	59	stimuli_distractor_trianglediamonds.svg	stimuli_target_diamondsquares.svg	28	yes	44	1	1478
6.6.1	win	2022-12-19	14:17:20	14:26:47	565400	5decaac46e09cf3792805023	728597603	1	main_z	11	advance_on_keypress_ZEE	60	stimuli_distractor_trianglediamonds.svg	stimuli_target_diamondsquares.svg	28	yes	57	0	365
6.6.1	win	2022-12-19	14:17:20	14:26:48	567210	5decaac46e09cf3792805023	728597603	1	main_z	11	main_z	61	stimuli_target_diamondsquares.svg	stimuli_distractor_trianglediamonds.svg	20	yes	44	1	790
6.6.1	win	2022-12-19	14:17:20	14:26:48	567210	5decaac46e09cf3792805023	728597603	1	main_z	11	advance_on_keypress_ZEE	62	stimuli_target_diamondsquares.svg	stimuli_distractor_trianglediamonds.svg	20	yes	57	0	368
6.6.1	win	2022-12-19	14:17:20	14:26:50	569236	5decaac46e09cf3792805023	728597603	1	main_z	11	main_z	63	stimuli_target_squarediamonds.svg	stimuli_distractor_trianglediamonds.svg	4	yes	44	1	1017
6.6.1	win	2022-12-19	14:17:20	14:26:50	569236	5decaac46e09cf3792805023	728597603	1	main_z	11	advance_on_keypress_ZEE	64	stimuli_target_squarediamonds.svg	stimuli_distractor_trianglediamonds.svg	4	yes	57	0	339
6.6.1	win	2022-12-19	14:17:20	14:26:53	572217	5decaac46e09cf3792805023	728597603	1	main_z	11	main_z	65	stimuli_distractor_diamondtriangles.svg	stimuli_distractor_diamondtriangles.svg	39	no	0	1	2000
6.6.1	win	2022-12-19	14:17:20	14:26:53	572217	5decaac46e09cf3792805023	728597603	1	main_z	11	advance_on_keypress_ZEE	66	stimuli_distractor_diamondtriangles.svg	stimuli_distractor_diamondtriangles.svg	39	no	57	0	421
6.6.1	win	2022-12-19	14:17:20	14:26:55	574110	5decaac46e09cf3792805023	728597603	1	main_z	11	main_z	67	stimuli_target_trianglecircles.svg	stimuli_distractor_trianglediamonds.svg	17	yes	44	1	829
6.6.1	win	2022-12-19	14:17:20	14:26:55	574110	5decaac46e09cf3792805023	728597603	1	main_z	11	advance_on_keypress_ZEE	68	stimuli_target_trianglecircles.svg	stimuli_distractor_trianglediamonds.svg	17	yes	57	0	377
6.6.1	win	2022-12-19	14:17:20	14:26:58	577129	5decaac46e09cf3792805023	728597603	1	main_z	11	main_z	69	stimuli_distractor_diamondtriangles.svg	stimuli_distractor_diamondtriangles.svg	40	no	0	1	2000
6.6.1	win	2022-12-19	14:17:20	14:26:58	577129	5decaac46e09cf3792805023	728597603	1	main_z	11	advance_on_keypress_ZEE	70	stimuli_distractor_diamondtriangles.svg	stimuli_distractor_diamondtriangles.svg	40	no	57	0	436
6.6.1	win	2022-12-19	14:17:20	14:27:00	578836	5decaac46e09cf3792805023	728597603	1	main_z	11	main_z	71	stimuli_distractor_diamondtriangles.svg	stimuli_target_trianglecircles.svg	29	yes	44	1	626
6.6.1	win	2022-12-19	14:17:20	14:27:00	578836	5decaac46e09cf3792805023	728597603	1	main_z	11	advance_on_keypress_ZEE	72	stimuli_distractor_diamondtriangles.svg	stimuli_target_trianglecircles.svg	29	yes	57	0	421
6.6.1	win	2022-12-19	14:17:20	14:27:02	581217	5decaac46e09cf3792805023	728597603	1	main_z	11	main_z	73	stimuli_target_circlediamonds.svg	stimuli_distractor_trianglediamonds.svg	2	yes	44	1	1325
6.6.1	win	2022-12-19	14:17:20	14:27:02	581217	5decaac46e09cf3792805023	728597603	1	main_z	11	advance_on_keypress_ZEE	74	stimuli_target_circlediamonds.svg	stimuli_distractor_trianglediamonds.svg	2	yes	57	0	358
6.6.1	win	2022-12-19	14:17:20	14:27:04	582979	5decaac46e09cf3792805023	728597603	1	main_z	11	main_z	75	stimuli_distractor_diamondtriangles.svg	stimuli_target_trianglesquares.svg	30	yes	44	1	772
6.6.1	win	2022-12-19	14:17:20	14:27:04	582979	5decaac46e09cf3792805023	728597603	1	main_z	11	advance_on_keypress_ZEE	76	stimuli_distractor_diamondtriangles.svg	stimuli_target_trianglesquares.svg	30	yes	57	0	380
6.6.1	win	2022-12-19	14:17:20	14:27:06	584868	5decaac46e09cf3792805023	728597603	1	main_z	11	main_z	77	stimuli_target_trianglecircles.svg	stimuli_distractor_diamondtriangles.svg	21	yes	44	1	863
6.6.1	win	2022-12-19	14:17:20	14:27:06	584868	5decaac46e09cf3792805023	728597603	1	main_z	11	advance_on_keypress_ZEE	78	stimuli_target_trianglecircles.svg	stimuli_distractor_diamondtriangles.svg	21	yes	57	0	355
6.6.1	win	2022-12-19	14:17:20	14:27:08	586703	5decaac46e09cf3792805023	728597603	1	main_z	11	main_z	79	stimuli_target_diamondcircles.svg	stimuli_distractor_trianglediamonds.svg	19	yes	44	1	833
6.6.1	win	2022-12-19	14:17:20	14:27:08	586703	5decaac46e09cf3792805023	728597603	1	main_z	11	advance_on_keypress_ZEE	80	stimuli_target_diamondcircles.svg	stimuli_distractor_trianglediamonds.svg	19	yes	57	0	493
6.6.1	win	2022-12-19	14:17:20	14:27:10	588588	5decaac46e09cf3792805023	728597603	1	main_z	11	main_z	81	stimuli_distractor_diamondtriangles.svg	stimuli_target_circlediamonds.svg	14	yes	44	1	753
6.6.1	win	2022-12-19	14:17:20	14:27:10	588588	5decaac46e09cf3792805023	728597603	1	main_z	11	advance_on_keypress_ZEE	82	stimuli_distractor_diamondtriangles.svg	stimuli_target_circlediamonds.svg	14	yes	57	0	320
6.6.1	win	2022-12-19	14:17:20	14:27:11	590176	5decaac46e09cf3792805023	728597603	1	main_z	11	main_z	83	stimuli_distractor_diamondtriangles.svg	stimuli_target_trianglecircles.svg	29	yes	44	1	625
6.6.1	win	2022-12-19	14:17:20	14:27:11	590176	5decaac46e09cf3792805023	728597603	1	main_z	11	advance_on_keypress_ZEE	84	stimuli_distractor_diamondtriangles.svg	stimuli_target_trianglecircles.svg	29	yes	57	0	478
6.6.1	win	2022-12-19	14:17:20	14:27:13	592168	5decaac46e09cf3792805023	728597603	1	main_z	11	main_z	85	stimuli_target_squarediamonds.svg	stimuli_distractor_trianglediamonds.svg	4	yes	44	1	869
6.6.1	win	2022-12-19	14:17:20	14:27:13	592168	5decaac46e09cf3792805023	728597603	1	main_z	11	advance_on_keypress_ZEE	86	stimuli_target_squarediamonds.svg	stimuli_distractor_trianglediamonds.svg	4	yes	57	0	366
6.6.1	win	2022-12-19	14:17:20	14:27:15	593690	5decaac46e09cf3792805023	728597603	1	main_z	11	main_z	87	stimuli_target_trianglesquares.svg	stimuli_distractor_diamondtriangles.svg	22	yes	44	1	509
6.6.1	win	2022-12-19	14:17:20	14:27:15	593690	5decaac46e09cf3792805023	728597603	1	main_z	11	advance_on_keypress_ZEE	88	stimuli_target_trianglesquares.svg	stimuli_distractor_diamondtriangles.svg	22	yes	57	0	443
6.6.1	win	2022-12-19	14:17:20	14:27:17	595548	5decaac46e09cf3792805023	728597603	1	main_z	11	main_z	89	stimuli_target_trianglesquares.svg	stimuli_distractor_trianglediamonds.svg	18	yes	44	1	785
6.6.1	win	2022-12-19	14:17:20	14:27:17	595548	5decaac46e09cf3792805023	728597603	1	main_z	11	advance_on_keypress_ZEE	90	stimuli_target_trianglesquares.svg	stimuli_distractor_trianglediamonds.svg	18	yes	57	0	446
6.6.1	win	2022-12-19	14:17:20	14:27:19	597529	5decaac46e09cf3792805023	728597603	1	main_z	11	main_z	91	stimuli_target_diamondsquares.svg	stimuli_distractor_diamondtriangles.svg	24	yes	44	1	884
6.6.1	win	2022-12-19	14:17:20	14:27:19	597529	5decaac46e09cf3792805023	728597603	1	main_z	11	advance_on_keypress_ZEE	92	stimuli_target_diamondsquares.svg	stimuli_distractor_diamondtriangles.svg	24	yes	57	0	901
6.6.1	win	2022-12-19	14:17:20	14:27:22	601076	5decaac46e09cf3792805023	728597603	1	main_z	11	main_z	93	stimuli_distractor_trianglediamonds.svg	stimuli_distractor_trianglediamonds.svg	34	no	0	1	2000
6.6.1	win	2022-12-19	14:17:20	14:27:22	601076	5decaac46e09cf3792805023	728597603	1	main_z	11	advance_on_keypress_ZEE	94	stimuli_distractor_trianglediamonds.svg	stimuli_distractor_trianglediamonds.svg	34	no	57	0	416
6.6.1	win	2022-12-19	14:17:20	14:27:25	604140	5decaac46e09cf3792805023	728597603	1	main_z	11	main_z	95	stimuli_distractor_diamondtriangles.svg	stimuli_distractor_diamondtriangles.svg	39	no	0	1	2000
6.6.1	win	2022-12-19	14:17:20	14:27:25	604140	5decaac46e09cf3792805023	728597603	1	main_z	11	advance_on_keypress_ZEE	96	stimuli_distractor_diamondtriangles.svg	stimuli_distractor_diamondtriangles.svg	39	no	57	0	371
6.6.1	win	2022-12-19	14:17:20	14:27:27	606002	5decaac46e09cf3792805023	728597603	1	main_z	11	main_z	97	stimuli_target_trianglecircles.svg	stimuli_distractor_diamondtriangles.svg	21	yes	44	1	847
6.6.1	win	2022-12-19	14:17:20	14:27:27	606002	5decaac46e09cf3792805023	728597603	1	main_z	11	advance_on_keypress_ZEE	98	stimuli_target_trianglecircles.svg	stimuli_distractor_diamondtriangles.svg	21	yes	57	0	331
6.6.1	win	2022-12-19	14:17:20	14:27:29	607787	5decaac46e09cf3792805023	728597603	1	main_z	11	main_z	99	stimuli_target_diamondcircles.svg	stimuli_distractor_diamondtriangles.svg	23	yes	44	1	801
6.6.1	win	2022-12-19	14:17:20	14:27:29	607787	5decaac46e09cf3792805023	728597603	1	main_z	11	advance_on_keypress_ZEE	100	stimuli_target_diamondcircles.svg	stimuli_distractor_diamondtriangles.svg	23	yes	57	0	321
6.6.1	win	2022-12-19	14:17:20	14:27:31	609547	5decaac46e09cf3792805023	728597603	1	main_z	11	main_z	101	stimuli_distractor_diamondtriangles.svg	stimuli_target_diamondsquares.svg	32	yes	44	1	795
6.6.1	win	2022-12-19	14:17:20	14:27:31	609547	5decaac46e09cf3792805023	728597603	1	main_z	11	advance_on_keypress_ZEE	102	stimuli_distractor_diamondtriangles.svg	stimuli_target_diamondsquares.svg	32	yes	57	0	302
6.6.1	win	2022-12-19	14:17:20	14:27:32	611348	5decaac46e09cf3792805023	728597603	1	main_z	11	main_z	103	stimuli_distractor_diamondtriangles.svg	stimuli_target_trianglesquares.svg	30	yes	44	1	848
6.6.1	win	2022-12-19	14:17:20	14:27:32	611348	5decaac46e09cf3792805023	728597603	1	main_z	11	advance_on_keypress_ZEE	104	stimuli_distractor_diamondtriangles.svg	stimuli_target_trianglesquares.svg	30	yes	57	0	392
6.6.1	win	2022-12-19	14:17:20	14:27:35	613470	5decaac46e09cf3792805023	728597603	1	main_z	11	main_z	105	stimuli_distractor_diamondtriangles.svg	stimuli_distractor_trianglediamonds.svg	37	no	44	0	1088
6.6.1	win	2022-12-19	14:17:20	14:27:35	613470	5decaac46e09cf3792805023	728597603	1	main_z	11	advance_on_keypress_ZEE	106	stimuli_distractor_diamondtriangles.svg	stimuli_distractor_trianglediamonds.svg	37	no	57	0	359
6.6.1	win	2022-12-19	14:17:20	14:27:37	615445	5decaac46e09cf3792805023	728597603	1	main_z	11	main_z	107	stimuli_target_circletriangles.svg	stimuli_distractor_trianglediamonds.svg	1	yes	44	1	981
6.6.1	win	2022-12-19	14:17:20	14:27:37	615445	5decaac46e09cf3792805023	728597603	1	main_z	11	advance_on_keypress_ZEE	108	stimuli_target_circletriangles.svg	stimuli_distractor_trianglediamonds.svg	1	yes	57	0	314
6.6.1	win	2022-12-19	14:17:20	14:27:38	617236	5decaac46e09cf3792805023	728597603	1	main_z	11	main_z	109	stimuli_target_squarediamonds.svg	stimuli_distractor_diamondtriangles.svg	8	yes	44	1	824
6.6.1	win	2022-12-19	14:17:20	14:27:38	617236	5decaac46e09cf3792805023	728597603	1	main_z	11	advance_on_keypress_ZEE	110	stimuli_target_squarediamonds.svg	stimuli_distractor_diamondtriangles.svg	8	yes	57	0	334
6.6.1	win	2022-12-19	14:17:20	14:27:40	619070	5decaac46e09cf3792805023	728597603	1	main_z	11	main_z	111	stimuli_distractor_trianglediamonds.svg	stimuli_target_circletriangles.svg	9	yes	44	1	859
6.6.1	win	2022-12-19	14:17:20	14:27:40	619070	5decaac46e09cf3792805023	728597603	1	main_z	11	advance_on_keypress_ZEE	112	stimuli_distractor_trianglediamonds.svg	stimuli_target_circletriangles.svg	9	yes	57	0	240
6.6.1	win	2022-12-19	14:17:20	14:27:42	620602	5decaac46e09cf3792805023	728597603	1	main_z	11	main_z	113	stimuli_target_circlediamonds.svg	stimuli_distractor_diamondtriangles.svg	6	yes	44	1	660
6.6.1	win	2022-12-19	14:17:20	14:27:42	620602	5decaac46e09cf3792805023	728597603	1	main_z	11	advance_on_keypress_ZEE	114	stimuli_target_circlediamonds.svg	stimuli_distractor_diamondtriangles.svg	6	yes	57	0	372
6.6.1	win	2022-12-19	14:17:20	14:27:44	622475	5decaac46e09cf3792805023	728597603	1	main_z	11	main_z	115	stimuli_distractor_diamondtriangles.svg	stimuli_target_squaretriangles.svg	15	yes	44	1	866
6.6.1	win	2022-12-19	14:17:20	14:27:44	622475	5decaac46e09cf3792805023	728597603	1	main_z	11	advance_on_keypress_ZEE	116	stimuli_distractor_diamondtriangles.svg	stimuli_target_squaretriangles.svg	15	yes	57	0	351
6.6.1	win	2022-12-19	14:17:20	14:27:45	624208	5decaac46e09cf3792805023	728597603	1	main_z	11	main_z	117	stimuli_target_diamondcircles.svg	stimuli_distractor_trianglediamonds.svg	19	yes	44	1	735
6.6.1	win	2022-12-19	14:17:20	14:27:45	624208	5decaac46e09cf3792805023	728597603	1	main_z	11	advance_on_keypress_ZEE	118	stimuli_target_diamondcircles.svg	stimuli_distractor_trianglediamonds.svg	19	yes	57	0	364
6.6.1	win	2022-12-19	14:17:20	14:27:47	626194	5decaac46e09cf3792805023	728597603	1	main_z	11	main_z	119	stimuli_target_diamondsquares.svg	stimuli_distractor_trianglediamonds.svg	20	yes	44	1	973
6.6.1	win	2022-12-19	14:17:20	14:27:47	626194	5decaac46e09cf3792805023	728597603	1	main_z	11	advance_on_keypress_ZEE	120	stimuli_target_diamondsquares.svg	stimuli_distractor_trianglediamonds.svg	20	yes	57	0	359
6.6.1	win	2022-12-19	14:17:20	14:27:50	629187	5decaac46e09cf3792805023	728597603	1	main_z	11	main_z	121	stimuli_distractor_diamondtriangles.svg	stimuli_distractor_diamondtriangles.svg	40	no	0	1	2000
6.6.1	win	2022-12-19	14:17:20	14:27:50	629187	5decaac46e09cf3792805023	728597603	1	main_z	11	advance_on_keypress_ZEE	122	stimuli_distractor_diamondtriangles.svg	stimuli_distractor_diamondtriangles.svg	40	no	57	0	414
6.6.1	win	2022-12-19	14:17:20	14:27:52	631177	5decaac46e09cf3792805023	728597603	1	main_z	11	main_z	123	stimuli_target_circletriangles.svg	stimuli_distractor_diamondtriangles.svg	5	yes	44	1	926
6.6.1	win	2022-12-19	14:17:20	14:27:52	631177	5decaac46e09cf3792805023	728597603	1	main_z	11	advance_on_keypress_ZEE	124	stimuli_target_circletriangles.svg	stimuli_distractor_diamondtriangles.svg	5	yes	57	0	400
6.6.1	win	2022-12-19	14:17:20	14:27:54	633187	5decaac46e09cf3792805023	728597603	1	main_z	11	main_z	125	stimuli_distractor_trianglediamonds.svg	stimuli_target_trianglesquares.svg	26	yes	44	1	970
6.6.1	win	2022-12-19	14:17:20	14:27:54	633187	5decaac46e09cf3792805023	728597603	1	main_z	11	advance_on_keypress_ZEE	126	stimuli_distractor_trianglediamonds.svg	stimuli_target_trianglesquares.svg	26	yes	57	0	314
6.6.1	win	2022-12-19	14:17:20	14:27:56	635011	5decaac46e09cf3792805023	728597603	1	main_z	11	main_z	127	stimuli_distractor_diamondtriangles.svg	stimuli_target_circletriangles.svg	13	yes	44	1	864
6.6.1	win	2022-12-19	14:17:20	14:27:56	635011	5decaac46e09cf3792805023	728597603	1	main_z	11	advance_on_keypress_ZEE	128	stimuli_distractor_diamondtriangles.svg	stimuli_target_circletriangles.svg	13	yes	57	0	386
6.6.1	win	2022-12-19	14:17:20	14:27:58	636788	5decaac46e09cf3792805023	728597603	1	main_z	11	main_z	129	stimuli_target_trianglecircles.svg	stimuli_distractor_trianglediamonds.svg	17	yes	44	1	741
6.6.1	win	2022-12-19	14:17:20	14:27:58	636788	5decaac46e09cf3792805023	728597603	1	main_z	11	advance_on_keypress_ZEE	130	stimuli_target_trianglecircles.svg	stimuli_distractor_trianglediamonds.svg	17	yes	57	0	377
6.6.1	win	2022-12-19	14:17:20	14:28:01	639795	5decaac46e09cf3792805023	728597603	1	main_z	11	main_z	131	stimuli_distractor_trianglediamonds.svg	stimuli_distractor_diamondtriangles.svg	35	no	0	1	2000
6.6.1	win	2022-12-19	14:17:20	14:28:01	639795	5decaac46e09cf3792805023	728597603	1	main_z	11	advance_on_keypress_ZEE	132	stimuli_distractor_trianglediamonds.svg	stimuli_distractor_diamondtriangles.svg	35	no	57	0	558
6.6.1	win	2022-12-19	14:17:20	14:28:03	641851	5decaac46e09cf3792805023	728597603	1	main_z	11	main_z	133	stimuli_distractor_trianglediamonds.svg	stimuli_target_circlediamonds.svg	10	yes	44	1	859
6.6.1	win	2022-12-19	14:17:20	14:28:03	641851	5decaac46e09cf3792805023	728597603	1	main_z	11	advance_on_keypress_ZEE	134	stimuli_distractor_trianglediamonds.svg	stimuli_target_circlediamonds.svg	10	yes	57	0	462
6.6.1	win	2022-12-19	14:17:20	14:28:05	644130	5decaac46e09cf3792805023	728597603	1	main_z	11	main_z	135	stimuli_distractor_trianglediamonds.svg	stimuli_target_diamondcircles.svg	27	yes	44	1	1190
6.6.1	win	2022-12-19	14:17:20	14:28:05	644130	5decaac46e09cf3792805023	728597603	1	main_z	11	advance_on_keypress_ZEE	136	stimuli_distractor_trianglediamonds.svg	stimuli_target_diamondcircles.svg	27	yes	57	0	563
6.6.1	win	2022-12-19	14:17:20	14:28:07	646266	5decaac46e09cf3792805023	728597603	1	main_z	11	main_z	137	stimuli_target_squaretriangles.svg	stimuli_distractor_trianglediamonds.svg	3	yes	44	1	928
6.6.1	win	2022-12-19	14:17:20	14:28:07	646266	5decaac46e09cf3792805023	728597603	1	main_z	11	advance_on_keypress_ZEE	138	stimuli_target_squaretriangles.svg	stimuli_distractor_trianglediamonds.svg	3	yes	57	0	368
6.6.1	win	2022-12-19	14:17:20	14:28:10	649287	5decaac46e09cf3792805023	728597603	1	main_z	11	main_z	139	stimuli_distractor_trianglediamonds.svg	stimuli_distractor_diamondtriangles.svg	36	no	0	1	2000
6.6.1	win	2022-12-19	14:17:20	14:28:10	649287	5decaac46e09cf3792805023	728597603	1	main_z	11	advance_on_keypress_ZEE	140	stimuli_distractor_trianglediamonds.svg	stimuli_distractor_diamondtriangles.svg	36	no	57	0	433
6.6.1	win	2022-12-19	14:17:20	14:28:13	652368	5decaac46e09cf3792805023	728597603	1	main_z	11	main_z	141	stimuli_distractor_trianglediamonds.svg	stimuli_distractor_trianglediamonds.svg	33	no	0	1	2000
6.6.1	win	2022-12-19	14:17:20	14:28:13	652368	5decaac46e09cf3792805023	728597603	1	main_z	11	advance_on_keypress_ZEE	142	stimuli_distractor_trianglediamonds.svg	stimuli_distractor_trianglediamonds.svg	33	no	57	0	379
6.6.1	win	2022-12-19	14:17:20	14:28:15	654337	5decaac46e09cf3792805023	728597603	1	main_z	11	main_z	143	stimuli_distractor_trianglediamonds.svg	stimuli_target_squarediamonds.svg	12	yes	44	1	939
6.6.1	win	2022-12-19	14:17:20	14:28:15	654337	5decaac46e09cf3792805023	728597603	1	main_z	11	advance_on_keypress_ZEE	144	stimuli_distractor_trianglediamonds.svg	stimuli_target_squarediamonds.svg	12	yes	57	0	456
6.6.1	win	2022-12-19	14:17:20	14:28:19	657430	5decaac46e09cf3792805023	728597603	1	main_z	11	main_z	145	stimuli_distractor_diamondtriangles.svg	stimuli_distractor_trianglediamonds.svg	38	no	0	1	2000
6.6.1	win	2022-12-19	14:17:20	14:28:19	657430	5decaac46e09cf3792805023	728597603	1	main_z	11	advance_on_keypress_ZEE	146	stimuli_distractor_diamondtriangles.svg	stimuli_distractor_trianglediamonds.svg	38	no	57	0	319
6.6.1	win	2022-12-19	14:17:20	14:28:20	659198	5decaac46e09cf3792805023	728597603	1	main_z	11	main_z	147	stimuli_distractor_trianglediamonds.svg	stimuli_target_trianglecircles.svg	25	yes	44	1	804
6.6.1	win	2022-12-19	14:17:20	14:28:20	659198	5decaac46e09cf3792805023	728597603	1	main_z	11	advance_on_keypress_ZEE	148	stimuli_distractor_trianglediamonds.svg	stimuli_target_trianglecircles.svg	25	yes	57	0	413
6.6.1	win	2022-12-19	14:17:20	14:28:22	661219	5decaac46e09cf3792805023	728597603	1	main_z	11	main_z	149	stimuli_distractor_trianglediamonds.svg	stimuli_target_diamondsquares.svg	28	yes	44	1	960
6.6.1	win	2022-12-19	14:17:20	14:28:22	661219	5decaac46e09cf3792805023	728597603	1	main_z	11	advance_on_keypress_ZEE	150	stimuli_distractor_trianglediamonds.svg	stimuli_target_diamondsquares.svg	28	yes	57	0	407
6.6.1	win	2022-12-19	14:17:20	14:28:24	663138	5decaac46e09cf3792805023	728597603	1	main_z	11	main_z	151	stimuli_distractor_diamondtriangles.svg	stimuli_target_diamondcircles.svg	31	yes	44	1	880
6.6.1	win	2022-12-19	14:17:20	14:28:24	663138	5decaac46e09cf3792805023	728597603	1	main_z	11	advance_on_keypress_ZEE	152	stimuli_distractor_diamondtriangles.svg	stimuli_target_diamondcircles.svg	31	yes	57	0	442
6.6.1	win	2022-12-19	14:17:20	14:28:26	665062	5decaac46e09cf3792805023	728597603	1	main_z	11	main_z	153	stimuli_target_squaretriangles.svg	stimuli_distractor_diamondtriangles.svg	7	yes	44	1	838
6.6.1	win	2022-12-19	14:17:20	14:28:26	665062	5decaac46e09cf3792805023	728597603	1	main_z	11	advance_on_keypress_ZEE	154	stimuli_target_squaretriangles.svg	stimuli_distractor_diamondtriangles.svg	7	yes	57	0	318
6.6.1	win	2022-12-19	14:17:20	14:28:28	666881	5decaac46e09cf3792805023	728597603	1	main_z	11	main_z	155	stimuli_target_circlediamonds.svg	stimuli_distractor_trianglediamonds.svg	2	yes	44	1	860
6.6.1	win	2022-12-19	14:17:20	14:28:28	666881	5decaac46e09cf3792805023	728597603	1	main_z	11	advance_on_keypress_ZEE	156	stimuli_target_circlediamonds.svg	stimuli_distractor_trianglediamonds.svg	2	yes	57	0	310
6.6.1	win	2022-12-19	14:17:20	14:28:30	668504	5decaac46e09cf3792805023	728597603	1	main_z	11	main_z	157	stimuli_distractor_trianglediamonds.svg	stimuli_target_squaretriangles.svg	11	yes	44	1	684
6.6.1	win	2022-12-19	14:17:20	14:28:30	668504	5decaac46e09cf3792805023	728597603	1	main_z	11	advance_on_keypress_ZEE	158	stimuli_distractor_trianglediamonds.svg	stimuli_target_squaretriangles.svg	11	yes	57	0	337
6.6.1	win	2022-12-19	14:17:20	14:28:31	670159	5decaac46e09cf3792805023	728597603	1	main_z	11	main_z	159	stimuli_distractor_diamondtriangles.svg	stimuli_target_squarediamonds.svg	16	yes	44	1	674
6.6.1	win	2022-12-19	14:17:20	14:28:31	670159	5decaac46e09cf3792805023	728597603	1	main_z	11	advance_on_keypress_ZEE	160	stimuli_distractor_diamondtriangles.svg	stimuli_target_squarediamonds.svg	16	yes	57	0	997