build	computer.platform	date	time	timestamp	time_elapsed_ms	subject	group	session	blockcode	blocknum	trialcode	trialnum	stimulus_left	stimulus_right	stim_index	target_present	response	correct	latency
6.6.1	win	2023-01-01	22:46:01	22:48:47	164381	5e63f502ff4913000ce60513	574056946	1	practice_z	5	practice_z	1	stimuli_distractor_diamondtriangles.svg	stimuli_target_circletriangles.svg	7	yes	0	0	2000
6.6.1	win	2023-01-01	22:46:01	22:48:47	164381	5e63f502ff4913000ce60513	574056946	1	practice_z	5	advance_on_keypress_ZEE	2	stimuli_distractor_diamondtriangles.svg	stimuli_target_circletriangles.svg	7	yes	57	0	1387
6.6.1	win	2023-01-01	22:46:01	22:48:51	168619	5e63f502ff4913000ce60513	574056946	1	practice_z	5	practice_z	3	stimuli_target_diamondsquares.svg	stimuli_distractor_diamondtriangles.svg	3	yes	44	1	1217
6.6.1	win	2023-01-01	22:46:01	22:48:51	168619	5e63f502ff4913000ce60513	574056946	1	practice_z	5	advance_on_keypress_ZEE	4	stimuli_target_diamondsquares.svg	stimuli_distractor_diamondtriangles.svg	3	yes	57	0	2467
6.6.1	win	2023-01-01	22:46:01	22:48:56	173684	5e63f502ff4913000ce60513	574056946	1	practice_z	5	practice_z	5	stimuli_target_squarediamonds.svg	stimuli_distractor_trianglediamonds.svg	5	yes	44	1	960
6.6.1	win	2023-01-01	22:46:01	22:48:56	173684	5e63f502ff4913000ce60513	574056946	1	practice_z	5	advance_on_keypress_ZEE	6	stimuli_target_squarediamonds.svg	stimuli_distractor_trianglediamonds.svg	5	yes	57	0	542
6.6.1	win	2023-01-01	22:46:01	22:49:00	177855	5e63f502ff4913000ce60513	574056946	1	practice_z	5	practice_z	7	stimuli_distractor_trianglediamonds.svg	stimuli_distractor_diamondtriangles.svg	16	no	0	1	2000
6.6.1	win	2023-01-01	22:46:01	22:49:00	177855	5e63f502ff4913000ce60513	574056946	1	practice_z	5	advance_on_keypress_ZEE	8	stimuli_distractor_trianglediamonds.svg	stimuli_distractor_diamondtriangles.svg	16	no	57	0	459
6.6.1	win	2023-01-01	22:46:01	22:49:03	180795	5e63f502ff4913000ce60513	574056946	1	practice_z	5	practice_z	9	stimuli_distractor_trianglediamonds.svg	stimuli_target_squarediamonds.svg	11	yes	44	1	851
6.6.1	win	2023-01-01	22:46:01	22:49:03	180795	5e63f502ff4913000ce60513	574056946	1	practice_z	5	advance_on_keypress_ZEE	10	stimuli_distractor_trianglediamonds.svg	stimuli_target_squarediamonds.svg	11	yes	57	0	838
6.6.1	win	2023-01-01	22:46:01	22:49:07	184076	5e63f502ff4913000ce60513	574056946	1	practice_z	5	practice_z	11	stimuli_target_circlediamonds.svg	stimuli_distractor_diamondtriangles.svg	1	yes	44	1	810
6.6.1	win	2023-01-01	22:46:01	22:49:07	184076	5e63f502ff4913000ce60513	574056946	1	practice_z	5	advance_on_keypress_ZEE	12	stimuli_target_circlediamonds.svg	stimuli_distractor_diamondtriangles.svg	1	yes	57	0	390
6.6.1	win	2023-01-01	22:46:01	22:49:10	187107	5e63f502ff4913000ce60513	574056946	1	practice_z	5	practice_z	13	stimuli_distractor_diamondtriangles.svg	stimuli_target_diamondcircles.svg	8	yes	44	1	1012
6.6.1	win	2023-01-01	22:46:01	22:49:10	187107	5e63f502ff4913000ce60513	574056946	1	practice_z	5	advance_on_keypress_ZEE	14	stimuli_distractor_diamondtriangles.svg	stimuli_target_diamondcircles.svg	8	yes	57	0	495
6.6.1	win	2023-01-01	22:46:01	22:49:14	191238	5e63f502ff4913000ce60513	574056946	1	practice_z	5	practice_z	15	stimuli_target_diamondsquares.svg	stimuli_distractor_trianglediamonds.svg	6	yes	0	0	2000
6.6.1	win	2023-01-01	22:46:01	22:49:14	191238	5e63f502ff4913000ce60513	574056946	1	practice_z	5	advance_on_keypress_ZEE	16	stimuli_target_diamondsquares.svg	stimuli_distractor_trianglediamonds.svg	6	yes	57	0	388
6.6.1	win	2023-01-01	22:46:01	22:49:17	194219	5e63f502ff4913000ce60513	574056946	1	practice_z	5	practice_z	17	stimuli_distractor_diamondtriangles.svg	stimuli_target_trianglecircles.svg	9	yes	44	1	962
6.6.1	win	2023-01-01	22:46:01	22:49:17	194219	5e63f502ff4913000ce60513	574056946	1	practice_z	5	advance_on_keypress_ZEE	18	stimuli_distractor_diamondtriangles.svg	stimuli_target_trianglecircles.svg	9	yes	57	0	400
6.6.1	win	2023-01-01	22:46:01	22:49:20	197059	5e63f502ff4913000ce60513	574056946	1	practice_z	5	practice_z	19	stimuli_distractor_trianglediamonds.svg	stimuli_target_diamondcircles.svg	12	yes	44	1	812
6.6.1	win	2023-01-01	22:46:01	22:49:20	197059	5e63f502ff4913000ce60513	574056946	1	practice_z	5	advance_on_keypress_ZEE	20	stimuli_distractor_trianglediamonds.svg	stimuli_target_diamondcircles.svg	12	yes	57	0	391
6.6.1	win	2023-01-01	22:46:01	22:49:24	201079	5e63f502ff4913000ce60513	574056946	1	practice_z	5	practice_z	21	stimuli_distractor_diamondtriangles.svg	stimuli_distractor_trianglediamonds.svg	14	no	0	1	2000
6.6.1	win	2023-01-01	22:46:01	22:49:24	201079	5e63f502ff4913000ce60513	574056946	1	practice_z	5	advance_on_keypress_ZEE	22	stimuli_distractor_diamondtriangles.svg	stimuli_distractor_trianglediamonds.svg	14	no	57	0	283
6.6.1	win	2023-01-01	22:46:01	22:49:28	204988	5e63f502ff4913000ce60513	574056946	1	practice_z	5	practice_z	23	stimuli_distractor_trianglediamonds.svg	stimuli_distractor_trianglediamonds.svg	15	no	0	1	2000
6.6.1	win	2023-01-01	22:46:01	22:49:28	204988	5e63f502ff4913000ce60513	574056946	1	practice_z	5	advance_on_keypress_ZEE	24	stimuli_distractor_trianglediamonds.svg	stimuli_distractor_trianglediamonds.svg	15	no	57	0	276
6.6.1	win	2023-01-01	22:46:01	22:49:31	208900	5e63f502ff4913000ce60513	574056946	1	practice_z	5	practice_z	25	stimuli_distractor_diamondtriangles.svg	stimuli_distractor_diamondtriangles.svg	13	no	0	1	2000
6.6.1	win	2023-01-01	22:46:01	22:49:31	208900	5e63f502ff4913000ce60513	574056946	1	practice_z	5	advance_on_keypress_ZEE	26	stimuli_distractor_diamondtriangles.svg	stimuli_distractor_diamondtriangles.svg	13	no	57	0	389
6.6.1	win	2023-01-01	22:46:01	22:49:34	211698	5e63f502ff4913000ce60513	574056946	1	practice_z	5	practice_z	27	stimuli_target_squarediamonds.svg	stimuli_distractor_diamondtriangles.svg	2	yes	44	1	779
6.6.1	win	2023-01-01	22:46:01	22:49:34	211698	5e63f502ff4913000ce60513	574056946	1	practice_z	5	advance_on_keypress_ZEE	28	stimuli_target_squarediamonds.svg	stimuli_distractor_diamondtriangles.svg	2	yes	57	0	501
6.6.1	win	2023-01-01	22:46:01	22:49:37	214603	5e63f502ff4913000ce60513	574056946	1	practice_z	5	practice_z	29	stimuli_target_circlediamonds.svg	stimuli_distractor_trianglediamonds.svg	4	yes	44	1	773
6.6.1	win	2023-01-01	22:46:01	22:49:37	214603	5e63f502ff4913000ce60513	574056946	1	practice_z	5	advance_on_keypress_ZEE	30	stimuli_target_circlediamonds.svg	stimuli_distractor_trianglediamonds.svg	4	yes	57	0	344
6.6.1	win	2023-01-01	22:46:01	22:49:40	217315	5e63f502ff4913000ce60513	574056946	1	practice_z	5	practice_z	31	stimuli_distractor_trianglediamonds.svg	stimuli_target_circlediamonds.svg	10	yes	44	1	734
6.6.1	win	2023-01-01	22:46:01	22:49:40	217315	5e63f502ff4913000ce60513	574056946	1	practice_z	5	advance_on_keypress_ZEE	32	stimuli_distractor_trianglediamonds.svg	stimuli_target_circlediamonds.svg	10	yes	57	0	418
6.6.1	win	2023-01-01	22:46:01	22:49:45	222572	5e63f502ff4913000ce60513	574056946	1	main_z	7	main_z	1	stimuli_distractor_trianglediamonds.svg	stimuli_target_squaretriangles.svg	11	yes	44	1	589
6.6.1	win	2023-01-01	22:46:01	22:49:45	222572	5e63f502ff4913000ce60513	574056946	1	main_z	7	advance_on_keypress_ZEE	2	stimuli_distractor_trianglediamonds.svg	stimuli_target_squaretriangles.svg	11	yes	57	0	997
6.6.1	win	2023-01-01	22:46:01	22:49:49	226191	5e63f502ff4913000ce60513	574056946	1	main_z	7	main_z	3	stimuli_distractor_trianglediamonds.svg	stimuli_distractor_trianglediamonds.svg	33	no	0	1	2000
6.6.1	win	2023-01-01	22:46:01	22:49:49	226191	5e63f502ff4913000ce60513	574056946	1	main_z	7	advance_on_keypress_ZEE	4	stimuli_distractor_trianglediamonds.svg	stimuli_distractor_trianglediamonds.svg	33	no	57	0	712
6.6.1	win	2023-01-01	22:46:01	22:49:51	228226	5e63f502ff4913000ce60513	574056946	1	main_z	7	main_z	5	stimuli_distractor_diamondtriangles.svg	stimuli_target_circlediamonds.svg	14	yes	44	1	694
6.6.1	win	2023-01-01	22:46:01	22:49:51	228226	5e63f502ff4913000ce60513	574056946	1	main_z	7	advance_on_keypress_ZEE	6	stimuli_distractor_diamondtriangles.svg	stimuli_target_circlediamonds.svg	14	yes	57	0	898
6.6.1	win	2023-01-01	22:46:01	22:49:53	230444	5e63f502ff4913000ce60513	574056946	1	main_z	7	main_z	7	stimuli_distractor_diamondtriangles.svg	stimuli_target_squarediamonds.svg	16	yes	44	1	689
6.6.1	win	2023-01-01	22:46:01	22:49:53	230444	5e63f502ff4913000ce60513	574056946	1	main_z	7	advance_on_keypress_ZEE	8	stimuli_distractor_diamondtriangles.svg	stimuli_target_squarediamonds.svg	16	yes	57	0	549
6.6.1	win	2023-01-01	22:46:01	22:49:55	232338	5e63f502ff4913000ce60513	574056946	1	main_z	7	main_z	9	stimuli_distractor_trianglediamonds.svg	stimuli_target_squarediamonds.svg	12	yes	44	1	715
6.6.1	win	2023-01-01	22:46:01	22:49:55	232338	5e63f502ff4913000ce60513	574056946	1	main_z	7	advance_on_keypress_ZEE	10	stimuli_distractor_trianglediamonds.svg	stimuli_target_squarediamonds.svg	12	yes	57	0	611
6.6.1	win	2023-01-01	22:46:01	22:49:57	234266	5e63f502ff4913000ce60513	574056946	1	main_z	7	main_z	11	stimuli_distractor_diamondtriangles.svg	stimuli_target_trianglecircles.svg	29	yes	44	1	693
6.6.1	win	2023-01-01	22:46:01	22:49:57	234266	5e63f502ff4913000ce60513	574056946	1	main_z	7	advance_on_keypress_ZEE	12	stimuli_distractor_diamondtriangles.svg	stimuli_target_trianglecircles.svg	29	yes	57	0	480
6.6.1	win	2023-01-01	22:46:01	22:49:59	236298	5e63f502ff4913000ce60513	574056946	1	main_z	7	main_z	13	stimuli_distractor_trianglediamonds.svg	stimuli_target_diamondcircles.svg	27	yes	44	1	924
6.6.1	win	2023-01-01	22:46:01	22:49:59	236298	5e63f502ff4913000ce60513	574056946	1	main_z	7	advance_on_keypress_ZEE	14	stimuli_distractor_trianglediamonds.svg	stimuli_target_diamondcircles.svg	27	yes	57	0	442
6.6.1	win	2023-01-01	22:46:01	22:50:01	238162	5e63f502ff4913000ce60513	574056946	1	main_z	7	main_z	15	stimuli_distractor_trianglediamonds.svg	stimuli_target_diamondsquares.svg	28	yes	44	1	798
6.6.1	win	2023-01-01	22:46:01	22:50:01	238162	5e63f502ff4913000ce60513	574056946	1	main_z	7	advance_on_keypress_ZEE	16	stimuli_distractor_trianglediamonds.svg	stimuli_target_diamondsquares.svg	28	yes	57	0	508
6.6.1	win	2023-01-01	22:46:01	22:50:03	239995	5e63f502ff4913000ce60513	574056946	1	main_z	7	main_z	17	stimuli_target_squarediamonds.svg	stimuli_distractor_diamondtriangles.svg	8	yes	44	1	690
6.6.1	win	2023-01-01	22:46:01	22:50:03	239995	5e63f502ff4913000ce60513	574056946	1	main_z	7	advance_on_keypress_ZEE	18	stimuli_target_squarediamonds.svg	stimuli_distractor_diamondtriangles.svg	8	yes	57	0	301
6.6.1	win	2023-01-01	22:46:01	22:50:04	241659	5e63f502ff4913000ce60513	574056946	1	main_z	7	main_z	19	stimuli_target_circletriangles.svg	stimuli_distractor_diamondtriangles.svg	5	yes	44	1	733
6.6.1	win	2023-01-01	22:46:01	22:50:04	241659	5e63f502ff4913000ce60513	574056946	1	main_z	7	advance_on_keypress_ZEE	20	stimuli_target_circletriangles.svg	stimuli_distractor_diamondtriangles.svg	5	yes	57	0	265
6.6.1	win	2023-01-01	22:46:01	22:50:07	244545	5e63f502ff4913000ce60513	574056946	1	main_z	7	main_z	21	stimuli_distractor_trianglediamonds.svg	stimuli_distractor_diamondtriangles.svg	35	no	0	1	2000
6.6.1	win	2023-01-01	22:46:01	22:50:07	244545	5e63f502ff4913000ce60513	574056946	1	main_z	7	advance_on_keypress_ZEE	22	stimuli_distractor_trianglediamonds.svg	stimuli_distractor_diamondtriangles.svg	35	no	57	0	423
6.6.1	win	2023-01-01	22:46:01	22:50:10	247597	5e63f502ff4913000ce60513	574056946	1	main_z	7	main_z	23	stimuli_distractor_trianglediamonds.svg	stimuli_distractor_diamondtriangles.svg	36	no	0	1	2000
6.6.1	win	2023-01-01	22:46:01	22:50:10	247597	5e63f502ff4913000ce60513	574056946	1	main_z	7	advance_on_keypress_ZEE	24	stimuli_distractor_trianglediamonds.svg	stimuli_distractor_diamondtriangles.svg	36	no	57	0	260
6.6.1	win	2023-01-01	22:46:01	22:50:12	249130	5e63f502ff4913000ce60513	574056946	1	main_z	7	main_z	25	stimuli_target_circlediamonds.svg	stimuli_distractor_diamondtriangles.svg	6	yes	44	1	644
6.6.1	win	2023-01-01	22:46:01	22:50:12	249130	5e63f502ff4913000ce60513	574056946	1	main_z	7	advance_on_keypress_ZEE	26	stimuli_target_circlediamonds.svg	stimuli_distractor_diamondtriangles.svg	6	yes	57	0	434
6.6.1	win	2023-01-01	22:46:01	22:50:15	252186	5e63f502ff4913000ce60513	574056946	1	main_z	7	main_z	27	stimuli_distractor_diamondtriangles.svg	stimuli_distractor_trianglediamonds.svg	37	no	0	1	2000
6.6.1	win	2023-01-01	22:46:01	22:50:15	252186	5e63f502ff4913000ce60513	574056946	1	main_z	7	advance_on_keypress_ZEE	28	stimuli_distractor_diamondtriangles.svg	stimuli_distractor_trianglediamonds.svg	37	no	57	0	277
6.6.1	win	2023-01-01	22:46:01	22:50:16	253730	5e63f502ff4913000ce60513	574056946	1	main_z	7	main_z	29	stimuli_target_squaretriangles.svg	stimuli_distractor_trianglediamonds.svg	3	yes	44	1	633
6.6.1	win	2023-01-01	22:46:01	22:50:16	253730	5e63f502ff4913000ce60513	574056946	1	main_z	7	advance_on_keypress_ZEE	30	stimuli_target_squaretriangles.svg	stimuli_distractor_trianglediamonds.svg	3	yes	57	0	353
6.6.1	win	2023-01-01	22:46:01	22:50:19	256707	5e63f502ff4913000ce60513	574056946	1	main_z	7	main_z	31	stimuli_distractor_diamondtriangles.svg	stimuli_distractor_trianglediamonds.svg	38	no	0	1	2000
6.6.1	win	2023-01-01	22:46:01	22:50:19	256707	5e63f502ff4913000ce60513	574056946	1	main_z	7	advance_on_keypress_ZEE	32	stimuli_distractor_diamondtriangles.svg	stimuli_distractor_trianglediamonds.svg	38	no	57	0	316
6.6.1	win	2023-01-01	22:46:01	22:50:22	259647	5e63f502ff4913000ce60513	574056946	1	main_z	7	main_z	33	stimuli_distractor_trianglediamonds.svg	stimuli_distractor_trianglediamonds.svg	34	no	0	1	2000
6.6.1	win	2023-01-01	22:46:01	22:50:22	259647	5e63f502ff4913000ce60513	574056946	1	main_z	7	advance_on_keypress_ZEE	34	stimuli_distractor_trianglediamonds.svg	stimuli_distractor_trianglediamonds.svg	34	no	57	0	256
6.6.1	win	2023-01-01	22:46:01	22:50:24	261146	5e63f502ff4913000ce60513	574056946	1	main_z	7	main_z	35	stimuli_distractor_trianglediamonds.svg	stimuli_target_circlediamonds.svg	10	yes	44	1	618
6.6.1	win	2023-01-01	22:46:01	22:50:24	261146	5e63f502ff4913000ce60513	574056946	1	main_z	7	advance_on_keypress_ZEE	36	stimuli_distractor_trianglediamonds.svg	stimuli_target_circlediamonds.svg	10	yes	57	0	387
6.6.1	win	2023-01-01	22:46:01	22:50:26	262962	5e63f502ff4913000ce60513	574056946	1	main_z	7	main_z	37	stimuli_target_circletriangles.svg	stimuli_distractor_trianglediamonds.svg	1	yes	44	1	793
6.6.1	win	2023-01-01	22:46:01	22:50:26	262962	5e63f502ff4913000ce60513	574056946	1	main_z	7	advance_on_keypress_ZEE	38	stimuli_target_circletriangles.svg	stimuli_distractor_trianglediamonds.svg	1	yes	57	0	433
6.6.1	win	2023-01-01	22:46:01	22:50:28	264994	5e63f502ff4913000ce60513	574056946	1	main_z	7	main_z	39	stimuli_distractor_trianglediamonds.svg	stimuli_target_trianglecircles.svg	25	yes	44	1	975
6.6.1	win	2023-01-01	22:46:01	22:50:28	264994	5e63f502ff4913000ce60513	574056946	1	main_z	7	advance_on_keypress_ZEE	40	stimuli_distractor_trianglediamonds.svg	stimuli_target_trianglecircles.svg	25	yes	57	0	507
6.6.1	win	2023-01-01	22:46:01	22:50:31	268119	5e63f502ff4913000ce60513	574056946	1	main_z	7	main_z	41	stimuli_distractor_diamondtriangles.svg	stimuli_distractor_diamondtriangles.svg	39	no	0	1	2000
6.6.1	win	2023-01-01	22:46:01	22:50:31	268119	5e63f502ff4913000ce60513	574056946	1	main_z	7	advance_on_keypress_ZEE	42	stimuli_distractor_diamondtriangles.svg	stimuli_distractor_diamondtriangles.svg	39	no	57	0	248
6.6.1	win	2023-01-01	22:46:01	22:50:32	269706	5e63f502ff4913000ce60513	574056946	1	main_z	7	main_z	43	stimuli_distractor_diamondtriangles.svg	stimuli_target_diamondcircles.svg	31	yes	44	1	706
6.6.1	win	2023-01-01	22:46:01	22:50:32	269706	5e63f502ff4913000ce60513	574056946	1	main_z	7	advance_on_keypress_ZEE	44	stimuli_distractor_diamondtriangles.svg	stimuli_target_diamondcircles.svg	31	yes	57	0	284
6.6.1	win	2023-01-01	22:46:01	22:50:34	271354	5e63f502ff4913000ce60513	574056946	1	main_z	7	main_z	45	stimuli_target_squarediamonds.svg	stimuli_distractor_trianglediamonds.svg	4	yes	44	1	744
6.6.1	win	2023-01-01	22:46:01	22:50:34	271354	5e63f502ff4913000ce60513	574056946	1	main_z	7	advance_on_keypress_ZEE	46	stimuli_target_squarediamonds.svg	stimuli_distractor_trianglediamonds.svg	4	yes	57	0	290
6.6.1	win	2023-01-01	22:46:01	22:50:35	272892	5e63f502ff4913000ce60513	574056946	1	main_z	7	main_z	47	stimuli_target_circlediamonds.svg	stimuli_distractor_trianglediamonds.svg	2	yes	44	1	620
6.6.1	win	2023-01-01	22:46:01	22:50:35	272892	5e63f502ff4913000ce60513	574056946	1	main_z	7	advance_on_keypress_ZEE	48	stimuli_target_circlediamonds.svg	stimuli_distractor_trianglediamonds.svg	2	yes	57	0	269
6.6.1	win	2023-01-01	22:46:01	22:50:37	274612	5e63f502ff4913000ce60513	574056946	1	main_z	7	main_z	49	stimuli_distractor_diamondtriangles.svg	stimuli_target_diamondsquares.svg	32	yes	44	1	819
6.6.1	win	2023-01-01	22:46:01	22:50:37	274612	5e63f502ff4913000ce60513	574056946	1	main_z	7	advance_on_keypress_ZEE	50	stimuli_distractor_diamondtriangles.svg	stimuli_target_diamondsquares.svg	32	yes	57	0	325
6.6.1	win	2023-01-01	22:46:01	22:50:39	276338	5e63f502ff4913000ce60513	574056946	1	main_z	7	main_z	51	stimuli_target_trianglecircles.svg	stimuli_distractor_trianglediamonds.svg	17	yes	44	1	777
6.6.1	win	2023-01-01	22:46:01	22:50:39	276338	5e63f502ff4913000ce60513	574056946	1	main_z	7	advance_on_keypress_ZEE	52	stimuli_target_trianglecircles.svg	stimuli_distractor_trianglediamonds.svg	17	yes	57	0	253
6.6.1	win	2023-01-01	22:46:01	22:50:42	279211	5e63f502ff4913000ce60513	574056946	1	main_z	7	main_z	53	stimuli_target_trianglesquares.svg	stimuli_distractor_diamondtriangles.svg	22	yes	0	0	2000
6.6.1	win	2023-01-01	22:46:01	22:50:42	279211	5e63f502ff4913000ce60513	574056946	1	main_z	7	advance_on_keypress_ZEE	54	stimuli_target_trianglesquares.svg	stimuli_distractor_diamondtriangles.svg	22	yes	57	0	332
6.6.1	win	2023-01-01	22:46:01	22:50:43	280883	5e63f502ff4913000ce60513	574056946	1	main_z	7	main_z	55	stimuli_target_diamondsquares.svg	stimuli_distractor_diamondtriangles.svg	24	yes	44	1	710
6.6.1	win	2023-01-01	22:46:01	22:50:43	280883	5e63f502ff4913000ce60513	574056946	1	main_z	7	advance_on_keypress_ZEE	56	stimuli_target_diamondsquares.svg	stimuli_distractor_diamondtriangles.svg	24	yes	57	0	254
6.6.1	win	2023-01-01	22:46:01	22:50:45	282667	5e63f502ff4913000ce60513	574056946	1	main_z	7	main_z	57	stimuli_target_squaretriangles.svg	stimuli_distractor_diamondtriangles.svg	7	yes	44	1	904
6.6.1	win	2023-01-01	22:46:01	22:50:45	282667	5e63f502ff4913000ce60513	574056946	1	main_z	7	advance_on_keypress_ZEE	58	stimuli_target_squaretriangles.svg	stimuli_distractor_diamondtriangles.svg	7	yes	57	0	266
6.6.1	win	2023-01-01	22:46:01	22:50:48	285552	5e63f502ff4913000ce60513	574056946	1	main_z	7	main_z	59	stimuli_distractor_diamondtriangles.svg	stimuli_distractor_diamondtriangles.svg	40	no	0	1	2000
6.6.1	win	2023-01-01	22:46:01	22:50:48	285552	5e63f502ff4913000ce60513	574056946	1	main_z	7	advance_on_keypress_ZEE	60	stimuli_distractor_diamondtriangles.svg	stimuli_distractor_diamondtriangles.svg	40	no	57	0	255
6.6.1	win	2023-01-01	22:46:01	22:50:50	287098	5e63f502ff4913000ce60513	574056946	1	main_z	7	main_z	61	stimuli_distractor_diamondtriangles.svg	stimuli_target_circletriangles.svg	13	yes	44	1	665
6.6.1	win	2023-01-01	22:46:01	22:50:50	287098	5e63f502ff4913000ce60513	574056946	1	main_z	7	advance_on_keypress_ZEE	62	stimuli_distractor_diamondtriangles.svg	stimuli_target_circletriangles.svg	13	yes	57	0	283
6.6.1	win	2023-01-01	22:46:01	22:50:51	288858	5e63f502ff4913000ce60513	574056946	1	main_z	7	main_z	63	stimuli_distractor_trianglediamonds.svg	stimuli_target_circletriangles.svg	9	yes	44	1	855
6.6.1	win	2023-01-01	22:46:01	22:50:51	288858	5e63f502ff4913000ce60513	574056946	1	main_z	7	advance_on_keypress_ZEE	64	stimuli_distractor_trianglediamonds.svg	stimuli_target_circletriangles.svg	9	yes	57	0	258
6.6.1	win	2023-01-01	22:46:01	22:50:53	290666	5e63f502ff4913000ce60513	574056946	1	main_z	7	main_z	65	stimuli_distractor_trianglediamonds.svg	stimuli_target_trianglesquares.svg	26	yes	44	1	922
6.6.1	win	2023-01-01	22:46:01	22:50:53	290666	5e63f502ff4913000ce60513	574056946	1	main_z	7	advance_on_keypress_ZEE	66	stimuli_distractor_trianglediamonds.svg	stimuli_target_trianglesquares.svg	26	yes	57	0	248
6.6.1	win	2023-01-01	22:46:01	22:50:55	292386	5e63f502ff4913000ce60513	574056946	1	main_z	7	main_z	67	stimuli_target_diamondcircles.svg	stimuli_distractor_diamondtriangles.svg	23	yes	44	1	842
6.6.1	win	2023-01-01	22:46:01	22:50:55	292386	5e63f502ff4913000ce60513	574056946	1	main_z	7	advance_on_keypress_ZEE	68	stimuli_target_diamondcircles.svg	stimuli_distractor_diamondtriangles.svg	23	yes	57	0	256
6.6.1	win	2023-01-01	22:46:01	22:50:57	294162	5e63f502ff4913000ce60513	574056946	1	main_z	7	main_z	69	stimuli_target_trianglesquares.svg	stimuli_distractor_trianglediamonds.svg	18	yes	44	1	898
6.6.1	win	2023-01-01	22:46:01	22:50:57	294162	5e63f502ff4913000ce60513	574056946	1	main_z	7	advance_on_keypress_ZEE	70	stimuli_target_trianglesquares.svg	stimuli_distractor_trianglediamonds.svg	18	yes	57	0	221
6.6.1	win	2023-01-01	22:46:01	22:50:58	295778	5e63f502ff4913000ce60513	574056946	1	main_z	7	main_z	71	stimuli_distractor_diamondtriangles.svg	stimuli_target_trianglesquares.svg	30	yes	44	1	773
6.6.1	win	2023-01-01	22:46:01	22:50:58	295778	5e63f502ff4913000ce60513	574056946	1	main_z	7	advance_on_keypress_ZEE	72	stimuli_distractor_diamondtriangles.svg	stimuli_target_trianglesquares.svg	30	yes	57	0	193
6.6.1	win	2023-01-01	22:46:01	22:51:00	297394	5e63f502ff4913000ce60513	574056946	1	main_z	7	main_z	73	stimuli_target_trianglecircles.svg	stimuli_distractor_diamondtriangles.svg	21	yes	44	1	799
6.6.1	win	2023-01-01	22:46:01	22:51:00	297394	5e63f502ff4913000ce60513	574056946	1	main_z	7	advance_on_keypress_ZEE	74	stimuli_target_trianglecircles.svg	stimuli_distractor_diamondtriangles.svg	21	yes	57	0	213
6.6.1	win	2023-01-01	22:46:01	22:51:02	299107	5e63f502ff4913000ce60513	574056946	1	main_z	7	main_z	75	stimuli_target_diamondcircles.svg	stimuli_distractor_trianglediamonds.svg	19	yes	44	1	871
6.6.1	win	2023-01-01	22:46:01	22:51:02	299107	5e63f502ff4913000ce60513	574056946	1	main_z	7	advance_on_keypress_ZEE	76	stimuli_target_diamondcircles.svg	stimuli_distractor_trianglediamonds.svg	19	yes	57	0	206
6.6.1	win	2023-01-01	22:46:01	22:51:04	301290	5e63f502ff4913000ce60513	574056946	1	main_z	7	main_z	77	stimuli_distractor_diamondtriangles.svg	stimuli_target_squaretriangles.svg	15	yes	44	1	1354
6.6.1	win	2023-01-01	22:46:01	22:51:04	301290	5e63f502ff4913000ce60513	574056946	1	main_z	7	advance_on_keypress_ZEE	78	stimuli_distractor_diamondtriangles.svg	stimuli_target_squaretriangles.svg	15	yes	57	0	234
6.6.1	win	2023-01-01	22:46:01	22:51:06	302978	5e63f502ff4913000ce60513	574056946	1	main_z	7	main_z	79	stimuli_target_diamondsquares.svg	stimuli_distractor_trianglediamonds.svg	20	yes	44	1	832
6.6.1	win	2023-01-01	22:46:01	22:51:06	302978	5e63f502ff4913000ce60513	574056946	1	main_z	7	advance_on_keypress_ZEE	80	stimuli_target_diamondsquares.svg	stimuli_distractor_trianglediamonds.svg	20	yes	57	0	232
6.6.1	win	2023-01-01	22:46:01	22:51:07	304587	5e63f502ff4913000ce60513	574056946	1	main_z	7	main_z	81	stimuli_target_trianglesquares.svg	stimuli_distractor_trianglediamonds.svg	18	yes	44	1	750
6.6.1	win	2023-01-01	22:46:01	22:51:07	304587	5e63f502ff4913000ce60513	574056946	1	main_z	7	advance_on_keypress_ZEE	82	stimuli_target_trianglesquares.svg	stimuli_distractor_trianglediamonds.svg	18	yes	57	0	213
6.6.1	win	2023-01-01	22:46:01	22:51:09	306146	5e63f502ff4913000ce60513	574056946	1	main_z	7	main_z	83	stimuli_distractor_trianglediamonds.svg	stimuli_target_trianglecircles.svg	25	yes	44	1	719
6.6.1	win	2023-01-01	22:46:01	22:51:09	306146	5e63f502ff4913000ce60513	574056946	1	main_z	7	advance_on_keypress_ZEE	84	stimuli_distractor_trianglediamonds.svg	stimuli_target_trianglecircles.svg	25	yes	57	0	189
6.6.1	win	2023-01-01	22:46:01	22:51:11	308010	5e63f502ff4913000ce60513	574056946	1	main_z	7	main_z	85	stimuli_distractor_trianglediamonds.svg	stimuli_distractor_trianglediamonds.svg	34	no	44	0	1043
6.6.1	win	2023-01-01	22:46:01	22:51:11	308010	5e63f502ff4913000ce60513	574056946	1	main_z	7	advance_on_keypress_ZEE	86	stimuli_distractor_trianglediamonds.svg	stimuli_distractor_trianglediamonds.svg	34	no	57	0	249
6.6.1	win	2023-01-01	22:46:01	22:51:12	309628	5e63f502ff4913000ce60513	574056946	1	main_z	7	main_z	87	stimuli_distractor_trianglediamonds.svg	stimuli_target_diamondcircles.svg	27	yes	44	1	739
6.6.1	win	2023-01-01	22:46:01	22:51:12	309628	5e63f502ff4913000ce60513	574056946	1	main_z	7	advance_on_keypress_ZEE	88	stimuli_distractor_trianglediamonds.svg	stimuli_target_diamondcircles.svg	27	yes	57	0	189
6.6.1	win	2023-01-01	22:46:01	22:51:14	311242	5e63f502ff4913000ce60513	574056946	1	main_z	7	main_z	89	stimuli_target_squaretriangles.svg	stimuli_distractor_diamondtriangles.svg	7	yes	44	1	794
6.6.1	win	2023-01-01	22:46:01	22:51:14	311242	5e63f502ff4913000ce60513	574056946	1	main_z	7	advance_on_keypress_ZEE	90	stimuli_target_squaretriangles.svg	stimuli_distractor_diamondtriangles.svg	7	yes	57	0	210
6.6.1	win	2023-01-01	22:46:01	22:51:15	312802	5e63f502ff4913000ce60513	574056946	1	main_z	7	main_z	91	stimuli_distractor_diamondtriangles.svg	stimuli_target_trianglecircles.svg	29	yes	44	1	724
6.6.1	win	2023-01-01	22:46:01	22:51:15	312802	5e63f502ff4913000ce60513	574056946	1	main_z	7	advance_on_keypress_ZEE	92	stimuli_distractor_diamondtriangles.svg	stimuli_target_trianglecircles.svg	29	yes	57	0	194
6.6.1	win	2023-01-01	22:46:01	22:51:17	314586	5e63f502ff4913000ce60513	574056946	1	main_z	7	main_z	93	stimuli_distractor_diamondtriangles.svg	stimuli_target_trianglesquares.svg	30	yes	44	1	969
6.6.1	win	2023-01-01	22:46:01	22:51:17	314586	5e63f502ff4913000ce60513	574056946	1	main_z	7	advance_on_keypress_ZEE	94	stimuli_distractor_diamondtriangles.svg	stimuli_target_trianglesquares.svg	30	yes	57	0	212
6.6.1	win	2023-01-01	22:46:01	22:51:20	317430	5e63f502ff4913000ce60513	574056946	1	main_z	7	main_z	95	stimuli_distractor_diamondtriangles.svg	stimuli_distractor_trianglediamonds.svg	38	no	0	1	2000
6.6.1	win	2023-01-01	22:46:01	22:51:20	317430	5e63f502ff4913000ce60513	574056946	1	main_z	7	advance_on_keypress_ZEE	96	stimuli_distractor_diamondtriangles.svg	stimuli_distractor_trianglediamonds.svg	38	no	57	0	403
6.6.1	win	2023-01-01	22:46:01	22:51:22	319186	5e63f502ff4913000ce60513	574056946	1	main_z	7	main_z	97	stimuli_target_squarediamonds.svg	stimuli_distractor_trianglediamonds.svg	4	yes	44	1	727
6.6.1	win	2023-01-01	22:46:01	22:51:22	319186	5e63f502ff4913000ce60513	574056946	1	main_z	7	advance_on_keypress_ZEE	98	stimuli_target_squarediamonds.svg	stimuli_distractor_trianglediamonds.svg	4	yes	57	0	213
6.6.1	win	2023-01-01	22:46:01	22:51:25	322019	5e63f502ff4913000ce60513	574056946	1	main_z	7	main_z	99	stimuli_distractor_diamondtriangles.svg	stimuli_target_squarediamonds.svg	16	yes	0	0	2000
6.6.1	win	2023-01-01	22:46:01	22:51:25	322019	5e63f502ff4913000ce60513	574056946	1	main_z	7	advance_on_keypress_ZEE	100	stimuli_distractor_diamondtriangles.svg	stimuli_target_squarediamonds.svg	16	yes	57	0	284
6.6.1	win	2023-01-01	22:46:01	22:51:26	323786	5e63f502ff4913000ce60513	574056946	1	main_z	7	main_z	101	stimuli_distractor_trianglediamonds.svg	stimuli_target_circletriangles.svg	9	yes	44	1	856
6.6.1	win	2023-01-01	22:46:01	22:51:26	323786	5e63f502ff4913000ce60513	574056946	1	main_z	7	advance_on_keypress_ZEE	102	stimuli_distractor_trianglediamonds.svg	stimuli_target_circletriangles.svg	9	yes	57	0	308
6.6.1	win	2023-01-01	22:46:01	22:51:29	326720	5e63f502ff4913000ce60513	574056946	1	main_z	7	main_z	103	stimuli_target_trianglecircles.svg	stimuli_distractor_diamondtriangles.svg	21	yes	0	0	2000
6.6.1	win	2023-01-01	22:46:01	22:51:29	326720	5e63f502ff4913000ce60513	574056946	1	main_z	7	advance_on_keypress_ZEE	104	stimuli_target_trianglecircles.svg	stimuli_distractor_diamondtriangles.svg	21	yes	57	0	367
6.6.1	win	2023-01-01	22:46:01	22:51:31	328826	5e63f502ff4913000ce60513	574056946	1	main_z	7	main_z	105	stimuli_distractor_diamondtriangles.svg	stimuli_target_circletriangles.svg	13	yes	44	1	1105
6.6.1	win	2023-01-01	22:46:01	22:51:31	328826	5e63f502ff4913000ce60513	574056946	1	main_z	7	advance_on_keypress_ZEE	106	stimuli_distractor_diamondtriangles.svg	stimuli_target_circletriangles.svg	13	yes	57	0	235
6.6.1	win	2023-01-01	22:46:01	22:51:33	330498	5e63f502ff4913000ce60513	574056946	1	main_z	7	main_z	107	stimuli_target_circletriangles.svg	stimuli_distractor_trianglediamonds.svg	1	yes	44	1	817
6.6.1	win	2023-01-01	22:46:01	22:51:33	330498	5e63f502ff4913000ce60513	574056946	1	main_z	7	advance_on_keypress_ZEE	108	stimuli_target_circletriangles.svg	stimuli_distractor_trianglediamonds.svg	1	yes	57	0	229
6.6.1	win	2023-01-01	22:46:01	22:51:35	332362	5e63f502ff4913000ce60513	574056946	1	main_z	7	main_z	109	stimuli_target_diamondsquares.svg	stimuli_distractor_diamondtriangles.svg	24	yes	44	1	1011
6.6.1	win	2023-01-01	22:46:01	22:51:35	332362	5e63f502ff4913000ce60513	574056946	1	main_z	7	advance_on_keypress_ZEE	110	stimuli_target_diamondsquares.svg	stimuli_distractor_diamondtriangles.svg	24	yes	57	0	246
6.6.1	win	2023-01-01	22:46:01	22:51:37	333994	5e63f502ff4913000ce60513	574056946	1	main_z	7	main_z	111	stimuli_target_circlediamonds.svg	stimuli_distractor_trianglediamonds.svg	2	yes	44	1	762
6.6.1	win	2023-01-01	22:46:01	22:51:37	333994	5e63f502ff4913000ce60513	574056946	1	main_z	7	advance_on_keypress_ZEE	112	stimuli_target_circlediamonds.svg	stimuli_distractor_trianglediamonds.svg	2	yes	57	0	176
6.6.1	win	2023-01-01	22:46:01	22:51:38	335730	5e63f502ff4913000ce60513	574056946	1	main_z	7	main_z	113	stimuli_distractor_trianglediamonds.svg	stimuli_target_squarediamonds.svg	12	yes	44	1	938
6.6.1	win	2023-01-01	22:46:01	22:51:38	335730	5e63f502ff4913000ce60513	574056946	1	main_z	7	advance_on_keypress_ZEE	114	stimuli_distractor_trianglediamonds.svg	stimuli_target_squarediamonds.svg	12	yes	57	0	196
6.6.1	win	2023-01-01	22:46:01	22:51:41	338554	5e63f502ff4913000ce60513	574056946	1	main_z	7	main_z	115	stimuli_distractor_diamondtriangles.svg	stimuli_distractor_diamondtriangles.svg	40	no	0	1	2000
6.6.1	win	2023-01-01	22:46:01	22:51:41	338554	5e63f502ff4913000ce60513	574056946	1	main_z	7	advance_on_keypress_ZEE	116	stimuli_distractor_diamondtriangles.svg	stimuli_distractor_diamondtriangles.svg	40	no	57	0	263
6.6.1	win	2023-01-01	22:46:01	22:51:43	340090	5e63f502ff4913000ce60513	574056946	1	main_z	7	main_z	117	stimuli_distractor_trianglediamonds.svg	stimuli_target_squaretriangles.svg	11	yes	44	1	647
6.6.1	win	2023-01-01	22:46:01	22:51:43	340090	5e63f502ff4913000ce60513	574056946	1	main_z	7	advance_on_keypress_ZEE	118	stimuli_distractor_trianglediamonds.svg	stimuli_target_squaretriangles.svg	11	yes	57	0	277
6.6.1	win	2023-01-01	22:46:01	22:51:46	342985	5e63f502ff4913000ce60513	574056946	1	main_z	7	main_z	119	stimuli_distractor_trianglediamonds.svg	stimuli_distractor_trianglediamonds.svg	33	no	0	1	2000
6.6.1	win	2023-01-01	22:46:01	22:51:46	342985	5e63f502ff4913000ce60513	574056946	1	main_z	7	advance_on_keypress_ZEE	120	stimuli_distractor_trianglediamonds.svg	stimuli_distractor_trianglediamonds.svg	33	no	57	0	256
6.6.1	win	2023-01-01	22:46:01	22:51:48	345865	5e63f502ff4913000ce60513	574056946	1	main_z	7	main_z	121	stimuli_distractor_diamondtriangles.svg	stimuli_distractor_diamondtriangles.svg	39	no	0	1	2000
6.6.1	win	2023-01-01	22:46:01	22:51:48	345865	5e63f502ff4913000ce60513	574056946	1	main_z	7	advance_on_keypress_ZEE	122	stimuli_distractor_diamondtriangles.svg	stimuli_distractor_diamondtriangles.svg	39	no	57	0	312
6.6.1	win	2023-01-01	22:46:01	22:51:51	348804	5e63f502ff4913000ce60513	574056946	1	main_z	7	main_z	123	stimuli_distractor_trianglediamonds.svg	stimuli_distractor_diamondtriangles.svg	36	no	0	1	2000
6.6.1	win	2023-01-01	22:46:01	22:51:51	348804	5e63f502ff4913000ce60513	574056946	1	main_z	7	advance_on_keypress_ZEE	124	stimuli_distractor_trianglediamonds.svg	stimuli_distractor_diamondtriangles.svg	36	no	57	0	211
6.6.1	win	2023-01-01	22:46:01	22:51:53	350482	5e63f502ff4913000ce60513	574056946	1	main_z	7	main_z	125	stimuli_target_trianglesquares.svg	stimuli_distractor_diamondtriangles.svg	22	yes	44	1	837
6.6.1	win	2023-01-01	22:46:01	22:51:53	350482	5e63f502ff4913000ce60513	574056946	1	main_z	7	advance_on_keypress_ZEE	126	stimuli_target_trianglesquares.svg	stimuli_distractor_diamondtriangles.svg	22	yes	57	0	213
6.6.1	win	2023-01-01	22:46:01	22:51:55	352154	5e63f502ff4913000ce60513	574056946	1	main_z	7	main_z	127	stimuli_distractor_diamondtriangles.svg	stimuli_target_diamondsquares.svg	32	yes	44	1	839
6.6.1	win	2023-01-01	22:46:01	22:51:55	352154	5e63f502ff4913000ce60513	574056946	1	main_z	7	advance_on_keypress_ZEE	128	stimuli_distractor_diamondtriangles.svg	stimuli_target_diamondsquares.svg	32	yes	57	0	165
6.6.1	win	2023-01-01	22:46:01	22:51:57	353987	5e63f502ff4913000ce60513	574056946	1	main_z	7	main_z	129	stimuli_distractor_trianglediamonds.svg	stimuli_distractor_diamondtriangles.svg	35	no	44	0	1041
6.6.1	win	2023-01-01	22:46:01	22:51:57	353987	5e63f502ff4913000ce60513	574056946	1	main_z	7	advance_on_keypress_ZEE	130	stimuli_distractor_trianglediamonds.svg	stimuli_distractor_diamondtriangles.svg	35	no	57	0	286
6.6.1	win	2023-01-01	22:46:01	22:51:58	355746	5e63f502ff4913000ce60513	574056946	1	main_z	7	main_z	131	stimuli_target_diamondcircles.svg	stimuli_distractor_diamondtriangles.svg	23	yes	44	1	850
6.6.1	win	2023-01-01	22:46:01	22:51:58	355746	5e63f502ff4913000ce60513	574056946	1	main_z	7	advance_on_keypress_ZEE	132	stimuli_target_diamondcircles.svg	stimuli_distractor_diamondtriangles.svg	23	yes	57	0	238
6.6.1	win	2023-01-01	22:46:01	22:52:00	357428	5e63f502ff4913000ce60513	574056946	1	main_z	7	main_z	133	stimuli_target_circletriangles.svg	stimuli_distractor_diamondtriangles.svg	5	yes	44	1	810
6.6.1	win	2023-01-01	22:46:01	22:52:00	357428	5e63f502ff4913000ce60513	574056946	1	main_z	7	advance_on_keypress_ZEE	134	stimuli_target_circletriangles.svg	stimuli_distractor_diamondtriangles.svg	5	yes	57	0	198
6.6.1	win	2023-01-01	22:46:01	22:52:02	359098	5e63f502ff4913000ce60513	574056946	1	main_z	7	main_z	135	stimuli_distractor_diamondtriangles.svg	stimuli_target_diamondcircles.svg	31	yes	44	1	842
6.6.1	win	2023-01-01	22:46:01	22:52:02	359098	5e63f502ff4913000ce60513	574056946	1	main_z	7	advance_on_keypress_ZEE	136	stimuli_distractor_diamondtriangles.svg	stimuli_target_diamondcircles.svg	31	yes	57	0	223
6.6.1	win	2023-01-01	22:46:01	22:52:03	360786	5e63f502ff4913000ce60513	574056946	1	main_z	7	main_z	137	stimuli_distractor_trianglediamonds.svg	stimuli_target_diamondsquares.svg	28	yes	44	1	839
6.6.1	win	2023-01-01	22:46:01	22:52:03	360786	5e63f502ff4913000ce60513	574056946	1	main_z	7	advance_on_keypress_ZEE	138	stimuli_distractor_trianglediamonds.svg	stimuli_target_diamondsquares.svg	28	yes	57	0	189
6.6.1	win	2023-01-01	22:46:01	22:52:05	362514	5e63f502ff4913000ce60513	574056946	1	main_z	7	main_z	139	stimuli_distractor_trianglediamonds.svg	stimuli_target_circlediamonds.svg	10	yes	44	1	907
6.6.1	win	2023-01-01	22:46:01	22:52:05	362514	5e63f502ff4913000ce60513	574056946	1	main_z	7	advance_on_keypress_ZEE	140	stimuli_distractor_trianglediamonds.svg	stimuli_target_circlediamonds.svg	10	yes	57	0	189
6.6.1	win	2023-01-01	22:46:01	22:52:08	365327	5e63f502ff4913000ce60513	574056946	1	main_z	7	main_z	141	stimuli_distractor_diamondtriangles.svg	stimuli_distractor_trianglediamonds.svg	37	no	0	1	2000
6.6.1	win	2023-01-01	22:46:01	22:52:08	365327	5e63f502ff4913000ce60513	574056946	1	main_z	7	advance_on_keypress_ZEE	142	stimuli_distractor_diamondtriangles.svg	stimuli_distractor_trianglediamonds.svg	37	no	57	0	776
6.6.1	win	2023-01-01	22:46:01	22:52:10	367586	5e63f502ff4913000ce60513	574056946	1	main_z	7	main_z	143	stimuli_distractor_trianglediamonds.svg	stimuli_target_trianglesquares.svg	26	yes	44	1	858
6.6.1	win	2023-01-01	22:46:01	22:52:10	367586	5e63f502ff4913000ce60513	574056946	1	main_z	7	advance_on_keypress_ZEE	144	stimuli_distractor_trianglediamonds.svg	stimuli_target_trianglesquares.svg	26	yes	57	0	180
6.6.1	win	2023-01-01	22:46:01	22:52:12	369859	5e63f502ff4913000ce60513	574056946	1	main_z	7	main_z	145	stimuli_target_squaretriangles.svg	stimuli_distractor_trianglediamonds.svg	3	yes	44	1	1460
6.6.1	win	2023-01-01	22:46:01	22:52:12	369859	5e63f502ff4913000ce60513	574056946	1	main_z	7	advance_on_keypress_ZEE	146	stimuli_target_squaretriangles.svg	stimuli_distractor_trianglediamonds.svg	3	yes	57	0	261
6.6.1	win	2023-01-01	22:46:01	22:52:14	371722	5e63f502ff4913000ce60513	574056946	1	main_z	7	main_z	147	stimuli_target_trianglecircles.svg	stimuli_distractor_trianglediamonds.svg	17	yes	44	1	973
6.6.1	win	2023-01-01	22:46:01	22:52:14	371722	5e63f502ff4913000ce60513	574056946	1	main_z	7	advance_on_keypress_ZEE	148	stimuli_target_trianglecircles.svg	stimuli_distractor_trianglediamonds.svg	17	yes	57	0	193
6.6.1	win	2023-01-01	22:46:01	22:52:16	373522	5e63f502ff4913000ce60513	574056946	1	main_z	7	main_z	149	stimuli_distractor_diamondtriangles.svg	stimuli_target_squaretriangles.svg	15	yes	44	1	983
6.6.1	win	2023-01-01	22:46:01	22:52:16	373522	5e63f502ff4913000ce60513	574056946	1	main_z	7	advance_on_keypress_ZEE	150	stimuli_distractor_diamondtriangles.svg	stimuli_target_squaretriangles.svg	15	yes	57	0	177
6.6.1	win	2023-01-01	22:46:01	22:52:19	376329	5e63f502ff4913000ce60513	574056946	1	main_z	7	main_z	151	stimuli_target_diamondsquares.svg	stimuli_distractor_trianglediamonds.svg	20	yes	0	0	2000
6.6.1	win	2023-01-01	22:46:01	22:52:19	376329	5e63f502ff4913000ce60513	574056946	1	main_z	7	advance_on_keypress_ZEE	152	stimuli_target_diamondsquares.svg	stimuli_distractor_trianglediamonds.svg	20	yes	57	0	358
6.6.1	win	2023-01-01	22:46:01	22:52:21	378195	5e63f502ff4913000ce60513	574056946	1	main_z	7	main_z	153	stimuli_target_circlediamonds.svg	stimuli_distractor_diamondtriangles.svg	6	yes	44	1	874
6.6.1	win	2023-01-01	22:46:01	22:52:21	378195	5e63f502ff4913000ce60513	574056946	1	main_z	7	advance_on_keypress_ZEE	154	stimuli_target_circlediamonds.svg	stimuli_distractor_diamondtriangles.svg	6	yes	57	0	154
6.6.1	win	2023-01-01	22:46:01	22:52:22	379818	5e63f502ff4913000ce60513	574056946	1	main_z	7	main_z	155	stimuli_target_squarediamonds.svg	stimuli_distractor_diamondtriangles.svg	8	yes	44	1	848
6.6.1	win	2023-01-01	22:46:01	22:52:22	379818	5e63f502ff4913000ce60513	574056946	1	main_z	7	advance_on_keypress_ZEE	156	stimuli_target_squarediamonds.svg	stimuli_distractor_diamondtriangles.svg	8	yes	57	0	188
6.6.1	win	2023-01-01	22:46:01	22:52:24	381714	5e63f502ff4913000ce60513	574056946	1	main_z	7	main_z	157	stimuli_target_diamondcircles.svg	stimuli_distractor_trianglediamonds.svg	19	yes	44	1	1073
6.6.1	win	2023-01-01	22:46:01	22:52:24	381714	5e63f502ff4913000ce60513	574056946	1	main_z	7	advance_on_keypress_ZEE	158	stimuli_target_diamondcircles.svg	stimuli_distractor_trianglediamonds.svg	19	yes	57	0	145
6.6.1	win	2023-01-01	22:46:01	22:52:26	383642	5e63f502ff4913000ce60513	574056946	1	main_z	7	main_z	159	stimuli_distractor_diamondtriangles.svg	stimuli_target_circlediamonds.svg	14	yes	44	1	1161
6.6.1	win	2023-01-01	22:46:01	22:52:26	383642	5e63f502ff4913000ce60513	574056946	1	main_z	7	advance_on_keypress_ZEE	160	stimuli_distractor_diamondtriangles.svg	stimuli_target_circlediamonds.svg	14	yes	57	0	199
6.6.1	win	2023-01-01	22:46:01	22:52:43	400836	5e63f502ff4913000ce60513	574056946	1	practice_slash	9	practice_slash	1	stimuli_target_squarediamonds.svg	stimuli_distractor_trianglediamonds.svg	5	yes	53	1	580
6.6.1	win	2023-01-01	22:46:01	22:52:43	400836	5e63f502ff4913000ce60513	574056946	1	practice_slash	9	advance_on_keypress_SLASH	2	stimuli_target_squarediamonds.svg	stimuli_distractor_trianglediamonds.svg	5	yes	57	0	502
6.6.1	win	2023-01-01	22:46:01	22:52:48	404966	5e63f502ff4913000ce60513	574056946	1	practice_slash	9	practice_slash	3	stimuli_distractor_trianglediamonds.svg	stimuli_distractor_trianglediamonds.svg	15	no	0	1	2000
6.6.1	win	2023-01-01	22:46:01	22:52:48	404966	5e63f502ff4913000ce60513	574056946	1	practice_slash	9	advance_on_keypress_SLASH	4	stimuli_distractor_trianglediamonds.svg	stimuli_distractor_trianglediamonds.svg	15	no	57	0	267
6.6.1	win	2023-01-01	22:46:01	22:52:51	408866	5e63f502ff4913000ce60513	574056946	1	practice_slash	9	practice_slash	5	stimuli_distractor_diamondtriangles.svg	stimuli_distractor_diamondtriangles.svg	13	no	0	1	2000
6.6.1	win	2023-01-01	22:46:01	22:52:51	408866	5e63f502ff4913000ce60513	574056946	1	practice_slash	9	advance_on_keypress_SLASH	6	stimuli_distractor_diamondtriangles.svg	stimuli_distractor_diamondtriangles.svg	13	no	57	0	286
6.6.1	win	2023-01-01	22:46:01	22:52:54	411572	5e63f502ff4913000ce60513	574056946	1	practice_slash	9	practice_slash	7	stimuli_distractor_trianglediamonds.svg	stimuli_target_circlediamonds.svg	10	yes	53	1	784
6.6.1	win	2023-01-01	22:46:01	22:52:54	411572	5e63f502ff4913000ce60513	574056946	1	practice_slash	9	advance_on_keypress_SLASH	8	stimuli_distractor_trianglediamonds.svg	stimuli_target_circlediamonds.svg	10	yes	57	0	434
6.6.1	win	2023-01-01	22:46:01	22:52:57	414363	5e63f502ff4913000ce60513	574056946	1	practice_slash	9	practice_slash	9	stimuli_distractor_diamondtriangles.svg	stimuli_target_circletriangles.svg	7	yes	53	1	726
6.6.1	win	2023-01-01	22:46:01	22:52:57	414363	5e63f502ff4913000ce60513	574056946	1	practice_slash	9	advance_on_keypress_SLASH	10	stimuli_distractor_diamondtriangles.svg	stimuli_target_circletriangles.svg	7	yes	57	0	427
6.6.1	win	2023-01-01	22:46:01	22:53:01	418418	5e63f502ff4913000ce60513	574056946	1	practice_slash	9	practice_slash	11	stimuli_distractor_diamondtriangles.svg	stimuli_distractor_trianglediamonds.svg	14	no	0	1	2000
6.6.1	win	2023-01-01	22:46:01	22:53:01	418418	5e63f502ff4913000ce60513	574056946	1	practice_slash	9	advance_on_keypress_SLASH	12	stimuli_distractor_diamondtriangles.svg	stimuli_distractor_trianglediamonds.svg	14	no	57	0	430
6.6.1	win	2023-01-01	22:46:01	22:53:04	421299	5e63f502ff4913000ce60513	574056946	1	practice_slash	9	practice_slash	13	stimuli_target_circlediamonds.svg	stimuli_distractor_trianglediamonds.svg	4	yes	53	1	820
6.6.1	win	2023-01-01	22:46:01	22:53:04	421299	5e63f502ff4913000ce60513	574056946	1	practice_slash	9	advance_on_keypress_SLASH	14	stimuli_target_circlediamonds.svg	stimuli_distractor_trianglediamonds.svg	4	yes	57	0	366
6.6.1	win	2023-01-01	22:46:01	22:53:07	424155	5e63f502ff4913000ce60513	574056946	1	practice_slash	9	practice_slash	15	stimuli_target_squarediamonds.svg	stimuli_distractor_diamondtriangles.svg	2	yes	53	1	856
6.6.1	win	2023-01-01	22:46:01	22:53:07	424155	5e63f502ff4913000ce60513	574056946	1	practice_slash	9	advance_on_keypress_SLASH	16	stimuli_target_squarediamonds.svg	stimuli_distractor_diamondtriangles.svg	2	yes	57	0	475
6.6.1	win	2023-01-01	22:46:01	22:53:10	427635	5e63f502ff4913000ce60513	574056946	1	practice_slash	9	practice_slash	17	stimuli_target_diamondsquares.svg	stimuli_distractor_trianglediamonds.svg	6	yes	53	1	1375
6.6.1	win	2023-01-01	22:46:01	22:53:10	427635	5e63f502ff4913000ce60513	574056946	1	practice_slash	9	advance_on_keypress_SLASH	18	stimuli_target_diamondsquares.svg	stimuli_distractor_trianglediamonds.svg	6	yes	57	0	459
6.6.1	win	2023-01-01	22:46:01	22:53:14	431051	5e63f502ff4913000ce60513	574056946	1	practice_slash	9	practice_slash	19	stimuli_distractor_trianglediamonds.svg	stimuli_target_squarediamonds.svg	11	yes	53	1	1331
6.6.1	win	2023-01-01	22:46:01	22:53:14	431051	5e63f502ff4913000ce60513	574056946	1	practice_slash	9	advance_on_keypress_SLASH	20	stimuli_distractor_trianglediamonds.svg	stimuli_target_squarediamonds.svg	11	yes	57	0	646
6.6.1	win	2023-01-01	22:46:01	22:53:17	434173	5e63f502ff4913000ce60513	574056946	1	practice_slash	9	practice_slash	21	stimuli_distractor_diamondtriangles.svg	stimuli_target_diamondcircles.svg	8	yes	53	1	840
6.6.1	win	2023-01-01	22:46:01	22:53:17	434173	5e63f502ff4913000ce60513	574056946	1	practice_slash	9	advance_on_keypress_SLASH	22	stimuli_distractor_diamondtriangles.svg	stimuli_target_diamondcircles.svg	8	yes	57	0	269
6.6.1	win	2023-01-01	22:46:01	22:53:20	436956	5e63f502ff4913000ce60513	574056946	1	practice_slash	9	practice_slash	23	stimuli_target_diamondsquares.svg	stimuli_distractor_diamondtriangles.svg	3	yes	53	1	883
6.6.1	win	2023-01-01	22:46:01	22:53:20	436956	5e63f502ff4913000ce60513	574056946	1	practice_slash	9	advance_on_keypress_SLASH	24	stimuli_target_diamondsquares.svg	stimuli_distractor_diamondtriangles.svg	3	yes	57	0	305
6.6.1	win	2023-01-01	22:46:01	22:53:23	440892	5e63f502ff4913000ce60513	574056946	1	practice_slash	9	practice_slash	25	stimuli_distractor_trianglediamonds.svg	stimuli_distractor_diamondtriangles.svg	16	no	0	1	2000
6.6.1	win	2023-01-01	22:46:01	22:53:23	440892	5e63f502ff4913000ce60513	574056946	1	practice_slash	9	advance_on_keypress_SLASH	26	stimuli_distractor_trianglediamonds.svg	stimuli_distractor_diamondtriangles.svg	16	no	57	0	428
6.6.1	win	2023-01-01	22:46:01	22:53:26	443834	5e63f502ff4913000ce60513	574056946	1	practice_slash	9	practice_slash	27	stimuli_distractor_diamondtriangles.svg	stimuli_target_trianglecircles.svg	9	yes	53	1	882
6.6.1	win	2023-01-01	22:46:01	22:53:26	443834	5e63f502ff4913000ce60513	574056946	1	practice_slash	9	advance_on_keypress_SLASH	28	stimuli_distractor_diamondtriangles.svg	stimuli_target_trianglecircles.svg	9	yes	57	0	416
6.6.1	win	2023-01-01	22:46:01	22:53:29	446635	5e63f502ff4913000ce60513	574056946	1	practice_slash	9	practice_slash	29	stimuli_target_circlediamonds.svg	stimuli_distractor_diamondtriangles.svg	1	yes	53	1	752
6.6.1	win	2023-01-01	22:46:01	22:53:29	446635	5e63f502ff4913000ce60513	574056946	1	practice_slash	9	advance_on_keypress_SLASH	30	stimuli_target_circlediamonds.svg	stimuli_distractor_diamondtriangles.svg	1	yes	57	0	359
6.6.1	win	2023-01-01	22:46:01	22:53:32	449476	5e63f502ff4913000ce60513	574056946	1	practice_slash	9	practice_slash	31	stimuli_distractor_trianglediamonds.svg	stimuli_target_diamondcircles.svg	12	yes	53	1	851
6.6.1	win	2023-01-01	22:46:01	22:53:32	449476	5e63f502ff4913000ce60513	574056946	1	practice_slash	9	advance_on_keypress_SLASH	32	stimuli_distractor_trianglediamonds.svg	stimuli_target_diamondcircles.svg	12	yes	57	0	383
6.6.1	win	2023-01-01	22:46:01	22:53:38	455924	5e63f502ff4913000ce60513	574056946	1	main_slash	11	main_slash	1	stimuli_distractor_trianglediamonds.svg	stimuli_distractor_diamondtriangles.svg	36	no	0	1	2000
6.6.1	win	2023-01-01	22:46:01	22:53:38	455924	5e63f502ff4913000ce60513	574056946	1	main_slash	11	advance_on_keypress_SLASH	2	stimuli_distractor_trianglediamonds.svg	stimuli_distractor_diamondtriangles.svg	36	no	57	0	531
6.6.1	win	2023-01-01	22:46:01	22:53:40	457746	5e63f502ff4913000ce60513	574056946	1	main_slash	11	main_slash	3	stimuli_distractor_trianglediamonds.svg	stimuli_target_trianglecircles.svg	25	yes	53	1	662
6.6.1	win	2023-01-01	22:46:01	22:53:40	457746	5e63f502ff4913000ce60513	574056946	1	main_slash	11	advance_on_keypress_SLASH	4	stimuli_distractor_trianglediamonds.svg	stimuli_target_trianglecircles.svg	25	yes	57	0	599
6.6.1	win	2023-01-01	22:46:01	22:53:42	459676	5e63f502ff4913000ce60513	574056946	1	main_slash	11	main_slash	5	stimuli_target_circletriangles.svg	stimuli_distractor_diamondtriangles.svg	5	yes	53	1	699
6.6.1	win	2023-01-01	22:46:01	22:53:42	459676	5e63f502ff4913000ce60513	574056946	1	main_slash	11	advance_on_keypress_SLASH	6	stimuli_target_circletriangles.svg	stimuli_distractor_diamondtriangles.svg	5	yes	57	0	309
6.6.1	win	2023-01-01	22:46:01	22:53:44	461436	5e63f502ff4913000ce60513	574056946	1	main_slash	11	main_slash	7	stimuli_distractor_trianglediamonds.svg	stimuli_target_squarediamonds.svg	12	yes	53	1	819
6.6.1	win	2023-01-01	22:46:01	22:53:44	461436	5e63f502ff4913000ce60513	574056946	1	main_slash	11	advance_on_keypress_SLASH	8	stimuli_distractor_trianglediamonds.svg	stimuli_target_squarediamonds.svg	12	yes	57	0	228
6.6.1	win	2023-01-01	22:46:01	22:53:46	463058	5e63f502ff4913000ce60513	574056946	1	main_slash	11	main_slash	9	stimuli_distractor_diamondtriangles.svg	stimuli_target_trianglecircles.svg	29	yes	53	1	762
6.6.1	win	2023-01-01	22:46:01	22:53:46	463058	5e63f502ff4913000ce60513	574056946	1	main_slash	11	advance_on_keypress_SLASH	10	stimuli_distractor_diamondtriangles.svg	stimuli_target_trianglecircles.svg	29	yes	57	0	408
6.6.1	win	2023-01-01	22:46:01	22:53:47	464787	5e63f502ff4913000ce60513	574056946	1	main_slash	11	main_slash	11	stimuli_target_trianglesquares.svg	stimuli_distractor_trianglediamonds.svg	18	yes	53	1	690
6.6.1	win	2023-01-01	22:46:01	22:53:47	464787	5e63f502ff4913000ce60513	574056946	1	main_slash	11	advance_on_keypress_SLASH	12	stimuli_target_trianglesquares.svg	stimuli_distractor_trianglediamonds.svg	18	yes	57	0	254
6.6.1	win	2023-01-01	22:46:01	22:53:50	467666	5e63f502ff4913000ce60513	574056946	1	main_slash	11	main_slash	13	stimuli_distractor_diamondtriangles.svg	stimuli_distractor_trianglediamonds.svg	37	no	0	1	2000
6.6.1	win	2023-01-01	22:46:01	22:53:50	467666	5e63f502ff4913000ce60513	574056946	1	main_slash	11	advance_on_keypress_SLASH	14	stimuli_distractor_diamondtriangles.svg	stimuli_distractor_trianglediamonds.svg	37	no	57	0	285
6.6.1	win	2023-01-01	22:46:01	22:53:52	469570	5e63f502ff4913000ce60513	574056946	1	main_slash	11	main_slash	15	stimuli_target_circlediamonds.svg	stimuli_distractor_trianglediamonds.svg	2	yes	53	1	993
6.6.1	win	2023-01-01	22:46:01	22:53:52	469570	5e63f502ff4913000ce60513	574056946	1	main_slash	11	advance_on_keypress_SLASH	16	stimuli_target_circlediamonds.svg	stimuli_distractor_trianglediamonds.svg	2	yes	57	0	305
6.6.1	win	2023-01-01	22:46:01	22:53:55	472497	5e63f502ff4913000ce60513	574056946	1	main_slash	11	main_slash	17	stimuli_target_diamondsquares.svg	stimuli_distractor_trianglediamonds.svg	20	yes	0	0	2000
6.6.1	win	2023-01-01	22:46:01	22:53:55	472497	5e63f502ff4913000ce60513	574056946	1	main_slash	11	advance_on_keypress_SLASH	18	stimuli_target_diamondsquares.svg	stimuli_distractor_trianglediamonds.svg	20	yes	57	0	438
6.6.1	win	2023-01-01	22:46:01	22:53:57	474386	5e63f502ff4913000ce60513	574056946	1	main_slash	11	main_slash	19	stimuli_distractor_diamondtriangles.svg	stimuli_target_squarediamonds.svg	16	yes	53	1	819
6.6.1	win	2023-01-01	22:46:01	22:53:57	474386	5e63f502ff4913000ce60513	574056946	1	main_slash	11	advance_on_keypress_SLASH	20	stimuli_distractor_diamondtriangles.svg	stimuli_target_squarediamonds.svg	16	yes	57	0	268
6.6.1	win	2023-01-01	22:46:01	22:53:59	476186	5e63f502ff4913000ce60513	574056946	1	main_slash	11	main_slash	21	stimuli_target_squaretriangles.svg	stimuli_distractor_trianglediamonds.svg	3	yes	53	1	898
6.6.1	win	2023-01-01	22:46:01	22:53:59	476186	5e63f502ff4913000ce60513	574056946	1	main_slash	11	advance_on_keypress_SLASH	22	stimuli_target_squaretriangles.svg	stimuli_distractor_trianglediamonds.svg	3	yes	57	0	228
6.6.1	win	2023-01-01	22:46:01	22:54:02	479048	5e63f502ff4913000ce60513	574056946	1	main_slash	11	main_slash	23	stimuli_distractor_diamondtriangles.svg	stimuli_distractor_trianglediamonds.svg	38	no	0	1	2000
6.6.1	win	2023-01-01	22:46:01	22:54:02	479048	5e63f502ff4913000ce60513	574056946	1	main_slash	11	advance_on_keypress_SLASH	24	stimuli_distractor_diamondtriangles.svg	stimuli_distractor_trianglediamonds.svg	38	no	57	0	327
6.6.1	win	2023-01-01	22:46:01	22:54:03	480730	5e63f502ff4913000ce60513	574056946	1	main_slash	11	main_slash	25	stimuli_distractor_diamondtriangles.svg	stimuli_target_circletriangles.svg	13	yes	53	1	721
6.6.1	win	2023-01-01	22:46:01	22:54:03	480730	5e63f502ff4913000ce60513	574056946	1	main_slash	11	advance_on_keypress_SLASH	26	stimuli_distractor_diamondtriangles.svg	stimuli_target_circletriangles.svg	13	yes	57	0	263
6.6.1	win	2023-01-01	22:46:01	22:54:05	482586	5e63f502ff4913000ce60513	574056946	1	main_slash	11	main_slash	27	stimuli_distractor_trianglediamonds.svg	stimuli_target_diamondsquares.svg	28	yes	53	1	967
6.6.1	win	2023-01-01	22:46:01	22:54:05	482586	5e63f502ff4913000ce60513	574056946	1	main_slash	11	advance_on_keypress_SLASH	28	stimuli_distractor_trianglediamonds.svg	stimuli_target_diamondsquares.svg	28	yes	57	0	237
6.6.1	win	2023-01-01	22:46:01	22:54:08	485439	5e63f502ff4913000ce60513	574056946	1	main_slash	11	main_slash	29	stimuli_distractor_diamondtriangles.svg	stimuli_distractor_diamondtriangles.svg	40	no	0	1	2000
6.6.1	win	2023-01-01	22:46:01	22:54:08	485439	5e63f502ff4913000ce60513	574056946	1	main_slash	11	advance_on_keypress_SLASH	30	stimuli_distractor_diamondtriangles.svg	stimuli_distractor_diamondtriangles.svg	40	no	57	0	265
6.6.1	win	2023-01-01	22:46:01	22:54:11	488332	5e63f502ff4913000ce60513	574056946	1	main_slash	11	main_slash	31	stimuli_distractor_diamondtriangles.svg	stimuli_distractor_diamondtriangles.svg	39	no	0	1	2000
6.6.1	win	2023-01-01	22:46:01	22:54:11	488332	5e63f502ff4913000ce60513	574056946	1	main_slash	11	advance_on_keypress_SLASH	32	stimuli_distractor_diamondtriangles.svg	stimuli_distractor_diamondtriangles.svg	39	no	57	0	262
6.6.1	win	2023-01-01	22:46:01	22:54:12	489932	5e63f502ff4913000ce60513	574056946	1	main_slash	11	main_slash	33	stimuli_target_squaretriangles.svg	stimuli_distractor_diamondtriangles.svg	7	yes	53	1	709
6.6.1	win	2023-01-01	22:46:01	22:54:12	489932	5e63f502ff4913000ce60513	574056946	1	main_slash	11	advance_on_keypress_SLASH	34	stimuli_target_squaretriangles.svg	stimuli_distractor_diamondtriangles.svg	7	yes	57	0	333
6.6.1	win	2023-01-01	22:46:01	22:54:14	491722	5e63f502ff4913000ce60513	574056946	1	main_slash	11	main_slash	35	stimuli_target_trianglecircles.svg	stimuli_distractor_diamondtriangles.svg	21	yes	53	1	831
6.6.1	win	2023-01-01	22:46:01	22:54:14	491722	5e63f502ff4913000ce60513	574056946	1	main_slash	11	advance_on_keypress_SLASH	36	stimuli_target_trianglecircles.svg	stimuli_distractor_diamondtriangles.svg	21	yes	57	0	247
6.6.1	win	2023-01-01	22:46:01	22:54:16	493372	5e63f502ff4913000ce60513	574056946	1	main_slash	11	main_slash	37	stimuli_target_squarediamonds.svg	stimuli_distractor_diamondtriangles.svg	8	yes	53	1	779
6.6.1	win	2023-01-01	22:46:01	22:54:16	493372	5e63f502ff4913000ce60513	574056946	1	main_slash	11	advance_on_keypress_SLASH	38	stimuli_target_squarediamonds.svg	stimuli_distractor_diamondtriangles.svg	8	yes	57	0	205
6.6.1	win	2023-01-01	22:46:01	22:54:19	496201	5e63f502ff4913000ce60513	574056946	1	main_slash	11	main_slash	39	stimuli_distractor_trianglediamonds.svg	stimuli_distractor_trianglediamonds.svg	34	no	0	1	2000
6.6.1	win	2023-01-01	22:46:01	22:54:19	496201	5e63f502ff4913000ce60513	574056946	1	main_slash	11	advance_on_keypress_SLASH	40	stimuli_distractor_trianglediamonds.svg	stimuli_distractor_trianglediamonds.svg	34	no	57	0	255
6.6.1	win	2023-01-01	22:46:01	22:54:20	497834	5e63f502ff4913000ce60513	574056946	1	main_slash	11	main_slash	41	stimuli_distractor_diamondtriangles.svg	stimuli_target_diamondsquares.svg	32	yes	53	1	752
6.6.1	win	2023-01-01	22:46:01	22:54:20	497834	5e63f502ff4913000ce60513	574056946	1	main_slash	11	advance_on_keypress_SLASH	42	stimuli_distractor_diamondtriangles.svg	stimuli_target_diamondsquares.svg	32	yes	57	0	232
6.6.1	win	2023-01-01	22:46:01	22:54:22	499563	5e63f502ff4913000ce60513	574056946	1	main_slash	11	main_slash	43	stimuli_distractor_trianglediamonds.svg	stimuli_target_circletriangles.svg	9	yes	53	1	871
6.6.1	win	2023-01-01	22:46:01	22:54:22	499563	5e63f502ff4913000ce60513	574056946	1	main_slash	11	advance_on_keypress_SLASH	44	stimuli_distractor_trianglediamonds.svg	stimuli_target_circletriangles.svg	9	yes	57	0	197
6.6.1	win	2023-01-01	22:46:01	22:54:24	501250	5e63f502ff4913000ce60513	574056946	1	main_slash	11	main_slash	45	stimuli_target_squarediamonds.svg	stimuli_distractor_trianglediamonds.svg	4	yes	53	1	857
6.6.1	win	2023-01-01	22:46:01	22:54:24	501250	5e63f502ff4913000ce60513	574056946	1	main_slash	11	advance_on_keypress_SLASH	46	stimuli_target_squarediamonds.svg	stimuli_distractor_trianglediamonds.svg	4	yes	57	0	213
6.6.1	win	2023-01-01	22:46:01	22:54:26	503114	5e63f502ff4913000ce60513	574056946	1	main_slash	11	main_slash	47	stimuli_target_diamondcircles.svg	stimuli_distractor_trianglediamonds.svg	19	yes	53	1	1031
6.6.1	win	2023-01-01	22:46:01	22:54:26	503114	5e63f502ff4913000ce60513	574056946	1	main_slash	11	advance_on_keypress_SLASH	48	stimuli_target_diamondcircles.svg	stimuli_distractor_trianglediamonds.svg	19	yes	57	0	336
6.6.1	win	2023-01-01	22:46:01	22:54:27	504875	5e63f502ff4913000ce60513	574056946	1	main_slash	11	main_slash	49	stimuli_distractor_diamondtriangles.svg	stimuli_target_squaretriangles.svg	15	yes	53	1	802
6.6.1	win	2023-01-01	22:46:01	22:54:27	504875	5e63f502ff4913000ce60513	574056946	1	main_slash	11	advance_on_keypress_SLASH	50	stimuli_distractor_diamondtriangles.svg	stimuli_target_squaretriangles.svg	15	yes	57	0	198
6.6.1	win	2023-01-01	22:46:01	22:54:30	507703	5e63f502ff4913000ce60513	574056946	1	main_slash	11	main_slash	51	stimuli_distractor_diamondtriangles.svg	stimuli_target_trianglesquares.svg	30	yes	0	0	2000
6.6.1	win	2023-01-01	22:46:01	22:54:30	507703	5e63f502ff4913000ce60513	574056946	1	main_slash	11	advance_on_keypress_SLASH	52	stimuli_distractor_diamondtriangles.svg	stimuli_target_trianglesquares.svg	30	yes	57	0	369
6.6.1	win	2023-01-01	22:46:01	22:54:32	509482	5e63f502ff4913000ce60513	574056946	1	main_slash	11	main_slash	53	stimuli_distractor_trianglediamonds.svg	stimuli_target_diamondcircles.svg	27	yes	53	1	779
6.6.1	win	2023-01-01	22:46:01	22:54:32	509482	5e63f502ff4913000ce60513	574056946	1	main_slash	11	advance_on_keypress_SLASH	54	stimuli_distractor_trianglediamonds.svg	stimuli_target_diamondcircles.svg	27	yes	57	0	212
6.6.1	win	2023-01-01	22:46:01	22:54:34	511066	5e63f502ff4913000ce60513	574056946	1	main_slash	11	main_slash	55	stimuli_target_trianglecircles.svg	stimuli_distractor_trianglediamonds.svg	17	yes	53	1	742
6.6.1	win	2023-01-01	22:46:01	22:54:34	511066	5e63f502ff4913000ce60513	574056946	1	main_slash	11	advance_on_keypress_SLASH	56	stimuli_target_trianglecircles.svg	stimuli_distractor_trianglediamonds.svg	17	yes	57	0	264
6.6.1	win	2023-01-01	22:46:01	22:54:35	512651	5e63f502ff4913000ce60513	574056946	1	main_slash	11	main_slash	57	stimuli_distractor_diamondtriangles.svg	stimuli_target_circlediamonds.svg	14	yes	53	1	696
6.6.1	win	2023-01-01	22:46:01	22:54:35	512651	5e63f502ff4913000ce60513	574056946	1	main_slash	11	advance_on_keypress_SLASH	58	stimuli_distractor_diamondtriangles.svg	stimuli_target_circlediamonds.svg	14	yes	57	0	251
6.6.1	win	2023-01-01	22:46:01	22:54:37	514394	5e63f502ff4913000ce60513	574056946	1	main_slash	11	main_slash	59	stimuli_target_diamondsquares.svg	stimuli_distractor_diamondtriangles.svg	24	yes	53	1	870
6.6.1	win	2023-01-01	22:46:01	22:54:37	514394	5e63f502ff4913000ce60513	574056946	1	main_slash	11	advance_on_keypress_SLASH	60	stimuli_target_diamondsquares.svg	stimuli_distractor_diamondtriangles.svg	24	yes	57	0	197
6.6.1	win	2023-01-01	22:46:01	22:54:40	517225	5e63f502ff4913000ce60513	574056946	1	main_slash	11	main_slash	61	stimuli_distractor_trianglediamonds.svg	stimuli_distractor_trianglediamonds.svg	33	no	0	1	2000
6.6.1	win	2023-01-01	22:46:01	22:54:40	517225	5e63f502ff4913000ce60513	574056946	1	main_slash	11	advance_on_keypress_SLASH	62	stimuli_distractor_trianglediamonds.svg	stimuli_distractor_trianglediamonds.svg	33	no	57	0	247
6.6.1	win	2023-01-01	22:46:01	22:54:41	518787	5e63f502ff4913000ce60513	574056946	1	main_slash	11	main_slash	63	stimuli_target_trianglesquares.svg	stimuli_distractor_diamondtriangles.svg	22	yes	53	1	681
6.6.1	win	2023-01-01	22:46:01	22:54:41	518787	5e63f502ff4913000ce60513	574056946	1	main_slash	11	advance_on_keypress_SLASH	64	stimuli_target_trianglesquares.svg	stimuli_distractor_diamondtriangles.svg	22	yes	57	0	238
6.6.1	win	2023-01-01	22:46:01	22:54:43	520394	5e63f502ff4913000ce60513	574056946	1	main_slash	11	main_slash	65	stimuli_distractor_trianglediamonds.svg	stimuli_target_circlediamonds.svg	10	yes	53	1	739
6.6.1	win	2023-01-01	22:46:01	22:54:43	520394	5e63f502ff4913000ce60513	574056946	1	main_slash	11	advance_on_keypress_SLASH	66	stimuli_distractor_trianglediamonds.svg	stimuli_target_circlediamonds.svg	10	yes	57	0	236
6.6.1	win	2023-01-01	22:46:01	22:54:44	521882	5e63f502ff4913000ce60513	574056946	1	main_slash	11	main_slash	67	stimuli_target_circlediamonds.svg	stimuli_distractor_diamondtriangles.svg	6	yes	53	1	627
6.6.1	win	2023-01-01	22:46:01	22:54:44	521882	5e63f502ff4913000ce60513	574056946	1	main_slash	11	advance_on_keypress_SLASH	68	stimuli_target_circlediamonds.svg	stimuli_distractor_diamondtriangles.svg	6	yes	57	0	211
6.6.1	win	2023-01-01	22:46:01	22:54:46	523594	5e63f502ff4913000ce60513	574056946	1	main_slash	11	main_slash	69	stimuli_distractor_trianglediamonds.svg	stimuli_target_trianglesquares.svg	26	yes	53	1	878
6.6.1	win	2023-01-01	22:46:01	22:54:46	523594	5e63f502ff4913000ce60513	574056946	1	main_slash	11	advance_on_keypress_SLASH	70	stimuli_distractor_trianglediamonds.svg	stimuli_target_trianglesquares.svg	26	yes	57	0	261
6.6.1	win	2023-01-01	22:46:01	22:54:48	525202	5e63f502ff4913000ce60513	574056946	1	main_slash	11	main_slash	71	stimuli_distractor_diamondtriangles.svg	stimuli_target_diamondcircles.svg	31	yes	53	1	726
6.6.1	win	2023-01-01	22:46:01	22:54:48	525202	5e63f502ff4913000ce60513	574056946	1	main_slash	11	advance_on_keypress_SLASH	72	stimuli_distractor_diamondtriangles.svg	stimuli_target_diamondcircles.svg	31	yes	57	0	179
6.6.1	win	2023-01-01	22:46:01	22:54:51	528009	5e63f502ff4913000ce60513	574056946	1	main_slash	11	main_slash	73	stimuli_distractor_trianglediamonds.svg	stimuli_distractor_diamondtriangles.svg	35	no	0	1	2000
6.6.1	win	2023-01-01	22:46:01	22:54:51	528009	5e63f502ff4913000ce60513	574056946	1	main_slash	11	advance_on_keypress_SLASH	74	stimuli_distractor_trianglediamonds.svg	stimuli_distractor_diamondtriangles.svg	35	no	57	0	249
6.6.1	win	2023-01-01	22:46:01	22:54:52	529426	5e63f502ff4913000ce60513	574056946	1	main_slash	11	main_slash	75	stimuli_target_circletriangles.svg	stimuli_distractor_trianglediamonds.svg	1	yes	53	1	539
6.6.1	win	2023-01-01	22:46:01	22:54:52	529426	5e63f502ff4913000ce60513	574056946	1	main_slash	11	advance_on_keypress_SLASH	76	stimuli_target_circletriangles.svg	stimuli_distractor_trianglediamonds.svg	1	yes	57	0	197
6.6.1	win	2023-01-01	22:46:01	22:54:53	530746	5e63f502ff4913000ce60513	574056946	1	main_slash	11	main_slash	77	stimuli_distractor_trianglediamonds.svg	stimuli_target_squaretriangles.svg	11	yes	53	1	499
6.6.1	win	2023-01-01	22:46:01	22:54:53	530746	5e63f502ff4913000ce60513	574056946	1	main_slash	11	advance_on_keypress_SLASH	78	stimuli_distractor_trianglediamonds.svg	stimuli_target_squaretriangles.svg	11	yes	57	0	212
6.6.1	win	2023-01-01	22:46:01	22:54:55	532170	5e63f502ff4913000ce60513	574056946	1	main_slash	11	main_slash	79	stimuli_target_diamondcircles.svg	stimuli_distractor_diamondtriangles.svg	23	yes	53	1	583
6.6.1	win	2023-01-01	22:46:01	22:54:55	532170	5e63f502ff4913000ce60513	574056946	1	main_slash	11	advance_on_keypress_SLASH	80	stimuli_target_diamondcircles.svg	stimuli_distractor_diamondtriangles.svg	23	yes	57	0	200
6.6.1	win	2023-01-01	22:46:01	22:54:58	534998	5e63f502ff4913000ce60513	574056946	1	main_slash	11	main_slash	81	stimuli_distractor_diamondtriangles.svg	stimuli_distractor_diamondtriangles.svg	39	no	0	1	2000
6.6.1	win	2023-01-01	22:46:01	22:54:58	534998	5e63f502ff4913000ce60513	574056946	1	main_slash	11	advance_on_keypress_SLASH	82	stimuli_distractor_diamondtriangles.svg	stimuli_distractor_diamondtriangles.svg	39	no	57	0	274
6.6.1	win	2023-01-01	22:46:01	22:54:59	536442	5e63f502ff4913000ce60513	574056946	1	main_slash	11	main_slash	83	stimuli_distractor_trianglediamonds.svg	stimuli_target_circletriangles.svg	9	yes	53	1	544
6.6.1	win	2023-01-01	22:46:01	22:54:59	536442	5e63f502ff4913000ce60513	574056946	1	main_slash	11	advance_on_keypress_SLASH	84	stimuli_distractor_trianglediamonds.svg	stimuli_target_circletriangles.svg	9	yes	57	0	234
6.6.1	win	2023-01-01	22:46:01	22:55:00	537922	5e63f502ff4913000ce60513	574056946	1	main_slash	11	main_slash	85	stimuli_target_squarediamonds.svg	stimuli_distractor_diamondtriangles.svg	8	yes	53	1	624
6.6.1	win	2023-01-01	22:46:01	22:55:00	537922	5e63f502ff4913000ce60513	574056946	1	main_slash	11	advance_on_keypress_SLASH	86	stimuli_target_squarediamonds.svg	stimuli_distractor_diamondtriangles.svg	8	yes	57	0	216
6.6.1	win	2023-01-01	22:46:01	22:55:02	539490	5e63f502ff4913000ce60513	574056946	1	main_slash	11	main_slash	87	stimuli_target_trianglesquares.svg	stimuli_distractor_diamondtriangles.svg	22	yes	53	1	721
6.6.1	win	2023-01-01	22:46:01	22:55:02	539490	5e63f502ff4913000ce60513	574056946	1	main_slash	11	advance_on_keypress_SLASH	88	stimuli_target_trianglesquares.svg	stimuli_distractor_diamondtriangles.svg	22	yes	57	0	215
6.6.1	win	2023-01-01	22:46:01	22:55:04	541042	5e63f502ff4913000ce60513	574056946	1	main_slash	11	main_slash	89	stimuli_target_squarediamonds.svg	stimuli_distractor_trianglediamonds.svg	4	yes	53	1	713
6.6.1	win	2023-01-01	22:46:01	22:55:04	541042	5e63f502ff4913000ce60513	574056946	1	main_slash	11	advance_on_keypress_SLASH	90	stimuli_target_squarediamonds.svg	stimuli_distractor_trianglediamonds.svg	4	yes	57	0	192
6.6.1	win	2023-01-01	22:46:01	22:55:05	542338	5e63f502ff4913000ce60513	574056946	1	main_slash	11	main_slash	91	stimuli_distractor_trianglediamonds.svg	stimuli_target_squarediamonds.svg	12	yes	53	1	479
6.6.1	win	2023-01-01	22:46:01	22:55:05	542338	5e63f502ff4913000ce60513	574056946	1	main_slash	11	advance_on_keypress_SLASH	92	stimuli_distractor_trianglediamonds.svg	stimuli_target_squarediamonds.svg	12	yes	57	0	204
6.6.1	win	2023-01-01	22:46:01	22:55:06	543762	5e63f502ff4913000ce60513	574056946	1	main_slash	11	main_slash	93	stimuli_distractor_diamondtriangles.svg	stimuli_target_squaretriangles.svg	15	yes	53	1	592
6.6.1	win	2023-01-01	22:46:01	22:55:06	543762	5e63f502ff4913000ce60513	574056946	1	main_slash	11	advance_on_keypress_SLASH	94	stimuli_distractor_diamondtriangles.svg	stimuli_target_squaretriangles.svg	15	yes	57	0	224
6.6.1	win	2023-01-01	22:46:01	22:55:08	545194	5e63f502ff4913000ce60513	574056946	1	main_slash	11	main_slash	95	stimuli_target_circlediamonds.svg	stimuli_distractor_trianglediamonds.svg	2	yes	53	1	584
6.6.1	win	2023-01-01	22:46:01	22:55:08	545194	5e63f502ff4913000ce60513	574056946	1	main_slash	11	advance_on_keypress_SLASH	96	stimuli_target_circlediamonds.svg	stimuli_distractor_trianglediamonds.svg	2	yes	57	0	218
6.6.1	win	2023-01-01	22:46:01	22:55:09	546560	5e63f502ff4913000ce60513	574056946	1	main_slash	11	main_slash	97	stimuli_distractor_trianglediamonds.svg	stimuli_target_squaretriangles.svg	11	yes	53	1	514
6.6.1	win	2023-01-01	22:46:01	22:55:09	546560	5e63f502ff4913000ce60513	574056946	1	main_slash	11	advance_on_keypress_SLASH	98	stimuli_distractor_trianglediamonds.svg	stimuli_target_squaretriangles.svg	11	yes	57	0	208
6.6.1	win	2023-01-01	22:46:01	22:55:10	547926	5e63f502ff4913000ce60513	574056946	1	main_slash	11	main_slash	99	stimuli_target_squaretriangles.svg	stimuli_distractor_trianglediamonds.svg	3	yes	53	1	522
6.6.1	win	2023-01-01	22:46:01	22:55:10	547926	5e63f502ff4913000ce60513	574056946	1	main_slash	11	advance_on_keypress_SLASH	100	stimuli_target_squaretriangles.svg	stimuli_distractor_trianglediamonds.svg	3	yes	57	0	190
6.6.1	win	2023-01-01	22:46:01	22:55:13	550742	5e63f502ff4913000ce60513	574056946	1	main_slash	11	main_slash	101	stimuli_distractor_trianglediamonds.svg	stimuli_distractor_trianglediamonds.svg	33	no	0	1	2000
6.6.1	win	2023-01-01	22:46:01	22:55:13	550742	5e63f502ff4913000ce60513	574056946	1	main_slash	11	advance_on_keypress_SLASH	102	stimuli_distractor_trianglediamonds.svg	stimuli_distractor_trianglediamonds.svg	33	no	57	0	323
6.6.1	win	2023-01-01	22:46:01	22:55:16	553692	5e63f502ff4913000ce60513	574056946	1	main_slash	11	main_slash	103	stimuli_distractor_diamondtriangles.svg	stimuli_distractor_trianglediamonds.svg	38	no	0	1	2000
6.6.1	win	2023-01-01	22:46:01	22:55:16	553692	5e63f502ff4913000ce60513	574056946	1	main_slash	11	advance_on_keypress_SLASH	104	stimuli_distractor_diamondtriangles.svg	stimuli_distractor_trianglediamonds.svg	38	no	57	0	252
6.6.1	win	2023-01-01	22:46:01	22:55:18	555130	5e63f502ff4913000ce60513	574056946	1	main_slash	11	main_slash	105	stimuli_distractor_trianglediamonds.svg	stimuli_target_diamondsquares.svg	28	yes	53	1	558
6.6.1	win	2023-01-01	22:46:01	22:55:18	555130	5e63f502ff4913000ce60513	574056946	1	main_slash	11	advance_on_keypress_SLASH	106	stimuli_distractor_trianglediamonds.svg	stimuli_target_diamondsquares.svg	28	yes	57	0	230
6.6.1	win	2023-01-01	22:46:01	22:55:21	557983	5e63f502ff4913000ce60513	574056946	1	main_slash	11	main_slash	107	stimuli_distractor_trianglediamonds.svg	stimuli_distractor_diamondtriangles.svg	35	no	0	1	2000
6.6.1	win	2023-01-01	22:46:01	22:55:21	557983	5e63f502ff4913000ce60513	574056946	1	main_slash	11	advance_on_keypress_SLASH	108	stimuli_distractor_trianglediamonds.svg	stimuli_distractor_diamondtriangles.svg	35	no	57	0	282
6.6.1	win	2023-01-01	22:46:01	22:55:22	559434	5e63f502ff4913000ce60513	574056946	1	main_slash	11	main_slash	109	stimuli_target_trianglecircles.svg	stimuli_distractor_trianglediamonds.svg	17	yes	53	1	542
6.6.1	win	2023-01-01	22:46:01	22:55:22	559434	5e63f502ff4913000ce60513	574056946	1	main_slash	11	advance_on_keypress_SLASH	110	stimuli_target_trianglecircles.svg	stimuli_distractor_trianglediamonds.svg	17	yes	57	0	199
6.6.1	win	2023-01-01	22:46:01	22:55:23	560789	5e63f502ff4913000ce60513	574056946	1	main_slash	11	main_slash	111	stimuli_distractor_diamondtriangles.svg	stimuli_target_trianglecircles.svg	29	yes	53	1	523
6.6.1	win	2023-01-01	22:46:01	22:55:23	560789	5e63f502ff4913000ce60513	574056946	1	main_slash	11	advance_on_keypress_SLASH	112	stimuli_distractor_diamondtriangles.svg	stimuli_target_trianglecircles.svg	29	yes	57	0	185
6.6.1	win	2023-01-01	22:46:01	22:55:26	563594	5e63f502ff4913000ce60513	574056946	1	main_slash	11	main_slash	113	stimuli_distractor_diamondtriangles.svg	stimuli_distractor_diamondtriangles.svg	40	no	0	1	2000
6.6.1	win	2023-01-01	22:46:01	22:55:26	563594	5e63f502ff4913000ce60513	574056946	1	main_slash	11	advance_on_keypress_SLASH	114	stimuli_distractor_diamondtriangles.svg	stimuli_distractor_diamondtriangles.svg	40	no	57	0	239
6.6.1	win	2023-01-01	22:46:01	22:55:28	564939	5e63f502ff4913000ce60513	574056946	1	main_slash	11	main_slash	115	stimuli_target_diamondsquares.svg	stimuli_distractor_diamondtriangles.svg	24	yes	53	1	475
6.6.1	win	2023-01-01	22:46:01	22:55:28	564939	5e63f502ff4913000ce60513	574056946	1	main_slash	11	advance_on_keypress_SLASH	116	stimuli_target_diamondsquares.svg	stimuli_distractor_diamondtriangles.svg	24	yes	57	0	210
6.6.1	win	2023-01-01	22:46:01	22:55:29	566322	5e63f502ff4913000ce60513	574056946	1	main_slash	11	main_slash	117	stimuli_target_squaretriangles.svg	stimuli_distractor_diamondtriangles.svg	7	yes	53	1	548
6.6.1	win	2023-01-01	22:46:01	22:55:29	566322	5e63f502ff4913000ce60513	574056946	1	main_slash	11	advance_on_keypress_SLASH	118	stimuli_target_squaretriangles.svg	stimuli_distractor_diamondtriangles.svg	7	yes	57	0	213
6.6.1	win	2023-01-01	22:46:01	22:55:30	567586	5e63f502ff4913000ce60513	574056946	1	main_slash	11	main_slash	119	stimuli_target_circlediamonds.svg	stimuli_distractor_diamondtriangles.svg	6	yes	53	1	432
6.6.1	win	2023-01-01	22:46:01	22:55:30	567586	5e63f502ff4913000ce60513	574056946	1	main_slash	11	advance_on_keypress_SLASH	120	stimuli_target_circlediamonds.svg	stimuli_distractor_diamondtriangles.svg	6	yes	57	0	159
6.6.1	win	2023-01-01	22:46:01	22:55:32	569018	5e63f502ff4913000ce60513	574056946	1	main_slash	11	main_slash	121	stimuli_target_diamondcircles.svg	stimuli_distractor_diamondtriangles.svg	23	yes	53	1	644
6.6.1	win	2023-01-01	22:46:01	22:55:32	569018	5e63f502ff4913000ce60513	574056946	1	main_slash	11	advance_on_keypress_SLASH	122	stimuli_target_diamondcircles.svg	stimuli_distractor_diamondtriangles.svg	23	yes	57	0	218
6.6.1	win	2023-01-01	22:46:01	22:55:33	570330	5e63f502ff4913000ce60513	574056946	1	main_slash	11	main_slash	123	stimuli_target_circletriangles.svg	stimuli_distractor_trianglediamonds.svg	1	yes	53	1	466
6.6.1	win	2023-01-01	22:46:01	22:55:33	570330	5e63f502ff4913000ce60513	574056946	1	main_slash	11	advance_on_keypress_SLASH	124	stimuli_target_circletriangles.svg	stimuli_distractor_trianglediamonds.svg	1	yes	57	0	179
6.6.1	win	2023-01-01	22:46:01	22:55:34	571618	5e63f502ff4913000ce60513	574056946	1	main_slash	11	main_slash	125	stimuli_distractor_diamondtriangles.svg	stimuli_target_trianglesquares.svg	30	yes	53	1	483
6.6.1	win	2023-01-01	22:46:01	22:55:34	571618	5e63f502ff4913000ce60513	574056946	1	main_slash	11	advance_on_keypress_SLASH	126	stimuli_distractor_diamondtriangles.svg	stimuli_target_trianglesquares.svg	30	yes	57	0	161
6.6.1	win	2023-01-01	22:46:01	22:55:35	572914	5e63f502ff4913000ce60513	574056946	1	main_slash	11	main_slash	127	stimuli_distractor_diamondtriangles.svg	stimuli_target_diamondcircles.svg	31	yes	53	1	509
6.6.1	win	2023-01-01	22:46:01	22:55:35	572914	5e63f502ff4913000ce60513	574056946	1	main_slash	11	advance_on_keypress_SLASH	128	stimuli_distractor_diamondtriangles.svg	stimuli_target_diamondcircles.svg	31	yes	57	0	156
6.6.1	win	2023-01-01	22:46:01	22:55:37	574834	5e63f502ff4913000ce60513	574056946	1	main_slash	11	main_slash	129	stimuli_target_circletriangles.svg	stimuli_distractor_diamondtriangles.svg	5	yes	53	1	1139
6.6.1	win	2023-01-01	22:46:01	22:55:37	574834	5e63f502ff4913000ce60513	574056946	1	main_slash	11	advance_on_keypress_SLASH	130	stimuli_target_circletriangles.svg	stimuli_distractor_diamondtriangles.svg	5	yes	57	0	205
6.6.1	win	2023-01-01	22:46:01	22:55:39	576162	5e63f502ff4913000ce60513	574056946	1	main_slash	11	main_slash	131	stimuli_distractor_trianglediamonds.svg	stimuli_target_trianglesquares.svg	26	yes	53	1	496
6.6.1	win	2023-01-01	22:46:01	22:55:39	576162	5e63f502ff4913000ce60513	574056946	1	main_slash	11	advance_on_keypress_SLASH	132	stimuli_distractor_trianglediamonds.svg	stimuli_target_trianglesquares.svg	26	yes	57	0	404
6.6.1	win	2023-01-01	22:46:01	22:55:41	578498	5e63f502ff4913000ce60513	574056946	1	main_slash	11	main_slash	133	stimuli_distractor_diamondtriangles.svg	stimuli_target_circletriangles.svg	13	yes	53	1	1312
6.6.1	win	2023-01-01	22:46:01	22:55:41	578498	5e63f502ff4913000ce60513	574056946	1	main_slash	11	advance_on_keypress_SLASH	134	stimuli_distractor_diamondtriangles.svg	stimuli_target_circletriangles.svg	13	yes	57	0	288
6.6.1	win	2023-01-01	22:46:01	22:55:44	581417	5e63f502ff4913000ce60513	574056946	1	main_slash	11	main_slash	135	stimuli_target_trianglesquares.svg	stimuli_distractor_trianglediamonds.svg	18	yes	0	0	2000
6.6.1	win	2023-01-01	22:46:01	22:55:44	581417	5e63f502ff4913000ce60513	574056946	1	main_slash	11	advance_on_keypress_SLASH	136	stimuli_target_trianglesquares.svg	stimuli_distractor_trianglediamonds.svg	18	yes	57	0	551
6.6.1	win	2023-01-01	22:46:01	22:55:47	584599	5e63f502ff4913000ce60513	574056946	1	main_slash	11	main_slash	137	stimuli_target_diamondsquares.svg	stimuli_distractor_trianglediamonds.svg	20	yes	0	0	2000
6.6.1	win	2023-01-01	22:46:01	22:55:47	584599	5e63f502ff4913000ce60513	574056946	1	main_slash	11	advance_on_keypress_SLASH	138	stimuli_target_diamondsquares.svg	stimuli_distractor_trianglediamonds.svg	20	yes	57	0	371
6.6.1	win	2023-01-01	22:46:01	22:55:50	587600	5e63f502ff4913000ce60513	574056946	1	main_slash	11	main_slash	139	stimuli_distractor_diamondtriangles.svg	stimuli_distractor_trianglediamonds.svg	37	no	0	1	2000
6.6.1	win	2023-01-01	22:46:01	22:55:50	587600	5e63f502ff4913000ce60513	574056946	1	main_slash	11	advance_on_keypress_SLASH	140	stimuli_distractor_diamondtriangles.svg	stimuli_distractor_trianglediamonds.svg	37	no	57	0	282
6.6.1	win	2023-01-01	22:46:01	22:55:52	589090	5e63f502ff4913000ce60513	574056946	1	main_slash	11	main_slash	141	stimuli_distractor_trianglediamonds.svg	stimuli_target_diamondcircles.svg	27	yes	53	1	582
6.6.1	win	2023-01-01	22:46:01	22:55:52	589090	5e63f502ff4913000ce60513	574056946	1	main_slash	11	advance_on_keypress_SLASH	142	stimuli_distractor_trianglediamonds.svg	stimuli_target_diamondcircles.svg	27	yes	57	0	392
6.6.1	win	2023-01-01	22:46:01	22:55:53	590586	5e63f502ff4913000ce60513	574056946	1	main_slash	11	main_slash	143	stimuli_distractor_diamondtriangles.svg	stimuli_target_circlediamonds.svg	14	yes	53	1	478
6.6.1	win	2023-01-01	22:46:01	22:55:53	590586	5e63f502ff4913000ce60513	574056946	1	main_slash	11	advance_on_keypress_SLASH	144	stimuli_distractor_diamondtriangles.svg	stimuli_target_circlediamonds.svg	14	yes	57	0	222
6.6.1	win	2023-01-01	22:46:01	22:55:55	592682	5e63f502ff4913000ce60513	574056946	1	main_slash	11	main_slash	145	stimuli_distractor_trianglediamonds.svg	stimuli_target_circlediamonds.svg	10	yes	53	1	1254
6.6.1	win	2023-01-01	22:46:01	22:55:55	592682	5e63f502ff4913000ce60513	574056946	1	main_slash	11	advance_on_keypress_SLASH	146	stimuli_distractor_trianglediamonds.svg	stimuli_target_circlediamonds.svg	10	yes	57	0	249
6.6.1	win	2023-01-01	22:46:01	22:55:57	594482	5e63f502ff4913000ce60513	574056946	1	main_slash	11	main_slash	147	stimuli_target_diamondcircles.svg	stimuli_distractor_trianglediamonds.svg	19	yes	53	1	923
6.6.1	win	2023-01-01	22:46:01	22:55:57	594482	5e63f502ff4913000ce60513	574056946	1	main_slash	11	advance_on_keypress_SLASH	148	stimuli_target_diamondcircles.svg	stimuli_distractor_trianglediamonds.svg	19	yes	57	0	193
6.6.1	win	2023-01-01	22:46:01	22:56:00	597300	5e63f502ff4913000ce60513	574056946	1	main_slash	11	main_slash	149	stimuli_distractor_trianglediamonds.svg	stimuli_distractor_diamondtriangles.svg	36	no	0	1	2000
6.6.1	win	2023-01-01	22:46:01	22:56:00	597300	5e63f502ff4913000ce60513	574056946	1	main_slash	11	advance_on_keypress_SLASH	150	stimuli_distractor_trianglediamonds.svg	stimuli_distractor_diamondtriangles.svg	36	no	57	0	244
6.6.1	win	2023-01-01	22:46:01	22:56:01	598578	5e63f502ff4913000ce60513	574056946	1	main_slash	11	main_slash	151	stimuli_distractor_trianglediamonds.svg	stimuli_target_trianglecircles.svg	25	yes	53	1	408
6.6.1	win	2023-01-01	22:46:01	22:56:01	598578	5e63f502ff4913000ce60513	574056946	1	main_slash	11	advance_on_keypress_SLASH	152	stimuli_distractor_trianglediamonds.svg	stimuli_target_trianglecircles.svg	25	yes	57	0	206
6.6.1	win	2023-01-01	22:46:01	22:56:04	601403	5e63f502ff4913000ce60513	574056946	1	main_slash	11	main_slash	153	stimuli_distractor_trianglediamonds.svg	stimuli_distractor_trianglediamonds.svg	34	no	0	1	2000
6.6.1	win	2023-01-01	22:46:01	22:56:04	601403	5e63f502ff4913000ce60513	574056946	1	main_slash	11	advance_on_keypress_SLASH	154	stimuli_distractor_trianglediamonds.svg	stimuli_distractor_trianglediamonds.svg	34	no	57	0	296
6.6.1	win	2023-01-01	22:46:01	22:56:05	602738	5e63f502ff4913000ce60513	574056946	1	main_slash	11	main_slash	155	stimuli_target_trianglecircles.svg	stimuli_distractor_diamondtriangles.svg	21	yes	53	1	418
6.6.1	win	2023-01-01	22:46:01	22:56:05	602738	5e63f502ff4913000ce60513	574056946	1	main_slash	11	advance_on_keypress_SLASH	156	stimuli_target_trianglecircles.svg	stimuli_distractor_diamondtriangles.svg	21	yes	57	0	213
6.6.1	win	2023-01-01	22:46:01	22:56:07	604370	5e63f502ff4913000ce60513	574056946	1	main_slash	11	main_slash	157	stimuli_distractor_diamondtriangles.svg	stimuli_target_diamondsquares.svg	32	yes	53	1	799
6.6.1	win	2023-01-01	22:46:01	22:56:07	604370	5e63f502ff4913000ce60513	574056946	1	main_slash	11	advance_on_keypress_SLASH	158	stimuli_distractor_diamondtriangles.svg	stimuli_target_diamondsquares.svg	32	yes	57	0	181
6.6.1	win	2023-01-01	22:46:01	22:56:10	607184	5e63f502ff4913000ce60513	574056946	1	main_slash	11	main_slash	159	stimuli_distractor_diamondtriangles.svg	stimuli_target_squarediamonds.svg	16	yes	0	0	2000
6.6.1	win	2023-01-01	22:46:01	22:56:10	607184	5e63f502ff4913000ce60513	574056946	1	main_slash	11	advance_on_keypress_SLASH	160	stimuli_distractor_diamondtriangles.svg	stimuli_target_squarediamonds.svg	16	yes	57	0	227