build	computer.platform	date	time	timestamp	time_elapsed_ms	subject	group	session	blockcode	blocknum	trialcode	trialnum	stimulus_left	stimulus_right	stim_index	target_present	response	correct	latency
6.6.1	mac	2022-12-24	22:33:04	22:36:12	186446	5edf222d1b8bce1bdd61cd2d	553010134	1	practice_z	5	practice_z	1	stimuli_distractor_trianglediamonds.svg	stimuli_target_squarediamonds.svg	11	yes	0	0	2000
6.6.1	mac	2022-12-24	22:33:04	22:36:12	186446	5edf222d1b8bce1bdd61cd2d	553010134	1	practice_z	5	advance_on_keypress_ZEE	2	stimuli_distractor_trianglediamonds.svg	stimuli_target_squarediamonds.svg	11	yes	57	0	1517
6.6.1	mac	2022-12-24	22:33:04	22:36:17	191597	5edf222d1b8bce1bdd61cd2d	553010134	1	practice_z	5	practice_z	3	stimuli_distractor_diamondtriangles.svg	stimuli_distractor_diamondtriangles.svg	13	no	0	1	2000
6.6.1	mac	2022-12-24	22:33:04	22:36:17	191597	5edf222d1b8bce1bdd61cd2d	553010134	1	practice_z	5	advance_on_keypress_ZEE	4	stimuli_distractor_diamondtriangles.svg	stimuli_distractor_diamondtriangles.svg	13	no	57	0	1153
6.6.1	mac	2022-12-24	22:33:04	22:36:20	195224	5edf222d1b8bce1bdd61cd2d	553010134	1	practice_z	5	practice_z	5	stimuli_target_circlediamonds.svg	stimuli_distractor_diamondtriangles.svg	1	yes	44	1	833
6.6.1	mac	2022-12-24	22:33:04	22:36:20	195224	5edf222d1b8bce1bdd61cd2d	553010134	1	practice_z	5	advance_on_keypress_ZEE	6	stimuli_target_circlediamonds.svg	stimuli_distractor_diamondtriangles.svg	1	yes	57	0	337
6.6.1	mac	2022-12-24	22:33:04	22:36:23	197922	5edf222d1b8bce1bdd61cd2d	553010134	1	practice_z	5	practice_z	7	stimuli_distractor_trianglediamonds.svg	stimuli_target_diamondcircles.svg	12	yes	44	1	728
6.6.1	mac	2022-12-24	22:33:04	22:36:23	197922	5edf222d1b8bce1bdd61cd2d	553010134	1	practice_z	5	advance_on_keypress_ZEE	8	stimuli_distractor_trianglediamonds.svg	stimuli_target_diamondcircles.svg	12	yes	57	0	361
6.6.1	mac	2022-12-24	22:33:04	22:36:27	201930	5edf222d1b8bce1bdd61cd2d	553010134	1	practice_z	5	practice_z	9	stimuli_target_diamondsquares.svg	stimuli_distractor_diamondtriangles.svg	3	yes	0	0	2000
6.6.1	mac	2022-12-24	22:33:04	22:36:27	201930	5edf222d1b8bce1bdd61cd2d	553010134	1	practice_z	5	advance_on_keypress_ZEE	10	stimuli_target_diamondsquares.svg	stimuli_distractor_diamondtriangles.svg	3	yes	57	0	626
6.6.1	mac	2022-12-24	22:33:04	22:36:31	205575	5edf222d1b8bce1bdd61cd2d	553010134	1	practice_z	5	practice_z	11	stimuli_distractor_trianglediamonds.svg	stimuli_distractor_trianglediamonds.svg	15	no	44	0	1394
6.6.1	mac	2022-12-24	22:33:04	22:36:31	205575	5edf222d1b8bce1bdd61cd2d	553010134	1	practice_z	5	advance_on_keypress_ZEE	12	stimuli_distractor_trianglediamonds.svg	stimuli_distractor_trianglediamonds.svg	15	no	57	0	313
6.6.1	mac	2022-12-24	22:33:04	22:36:33	208272	5edf222d1b8bce1bdd61cd2d	553010134	1	practice_z	5	practice_z	13	stimuli_target_circlediamonds.svg	stimuli_distractor_trianglediamonds.svg	4	yes	44	1	726
6.6.1	mac	2022-12-24	22:33:04	22:36:33	208272	5edf222d1b8bce1bdd61cd2d	553010134	1	practice_z	5	advance_on_keypress_ZEE	14	stimuli_target_circlediamonds.svg	stimuli_distractor_trianglediamonds.svg	4	yes	57	0	302
6.6.1	mac	2022-12-24	22:33:04	22:36:37	212196	5edf222d1b8bce1bdd61cd2d	553010134	1	practice_z	5	practice_z	15	stimuli_distractor_trianglediamonds.svg	stimuli_distractor_diamondtriangles.svg	16	no	0	1	2000
6.6.1	mac	2022-12-24	22:33:04	22:36:37	212196	5edf222d1b8bce1bdd61cd2d	553010134	1	practice_z	5	advance_on_keypress_ZEE	16	stimuli_distractor_trianglediamonds.svg	stimuli_distractor_diamondtriangles.svg	16	no	57	0	748
6.6.1	mac	2022-12-24	22:33:04	22:36:40	215322	5edf222d1b8bce1bdd61cd2d	553010134	1	practice_z	5	practice_z	17	stimuli_distractor_trianglediamonds.svg	stimuli_target_circlediamonds.svg	10	yes	44	1	733
6.6.1	mac	2022-12-24	22:33:04	22:36:40	215322	5edf222d1b8bce1bdd61cd2d	553010134	1	practice_z	5	advance_on_keypress_ZEE	18	stimuli_distractor_trianglediamonds.svg	stimuli_target_circlediamonds.svg	10	yes	57	0	549
6.6.1	mac	2022-12-24	22:33:04	22:36:43	218074	5edf222d1b8bce1bdd61cd2d	553010134	1	practice_z	5	practice_z	19	stimuli_target_squarediamonds.svg	stimuli_distractor_trianglediamonds.svg	5	yes	44	1	574
6.6.1	mac	2022-12-24	22:33:04	22:36:43	218074	5edf222d1b8bce1bdd61cd2d	553010134	1	practice_z	5	advance_on_keypress_ZEE	20	stimuli_target_squarediamonds.svg	stimuli_distractor_trianglediamonds.svg	5	yes	57	0	886
6.6.1	mac	2022-12-24	22:33:04	22:36:47	221673	5edf222d1b8bce1bdd61cd2d	553010134	1	practice_z	5	practice_z	21	stimuli_distractor_diamondtriangles.svg	stimuli_target_diamondcircles.svg	8	yes	44	1	1072
6.6.1	mac	2022-12-24	22:33:04	22:36:47	221673	5edf222d1b8bce1bdd61cd2d	553010134	1	practice_z	5	advance_on_keypress_ZEE	22	stimuli_distractor_diamondtriangles.svg	stimuli_target_diamondcircles.svg	8	yes	57	0	452
6.6.1	mac	2022-12-24	22:33:04	22:36:50	224882	5edf222d1b8bce1bdd61cd2d	553010134	1	practice_z	5	practice_z	23	stimuli_distractor_diamondtriangles.svg	stimuli_distractor_trianglediamonds.svg	14	no	44	0	1133
6.6.1	mac	2022-12-24	22:33:04	22:36:50	224882	5edf222d1b8bce1bdd61cd2d	553010134	1	practice_z	5	advance_on_keypress_ZEE	24	stimuli_distractor_diamondtriangles.svg	stimuli_distractor_trianglediamonds.svg	14	no	57	0	416
6.6.1	mac	2022-12-24	22:33:04	22:36:53	227622	5edf222d1b8bce1bdd61cd2d	553010134	1	practice_z	5	practice_z	25	stimuli_distractor_diamondtriangles.svg	stimuli_target_circletriangles.svg	7	yes	44	1	673
6.6.1	mac	2022-12-24	22:33:04	22:36:53	227622	5edf222d1b8bce1bdd61cd2d	553010134	1	practice_z	5	advance_on_keypress_ZEE	26	stimuli_distractor_diamondtriangles.svg	stimuli_target_circletriangles.svg	7	yes	57	0	390
6.6.1	mac	2022-12-24	22:33:04	22:36:56	230421	5edf222d1b8bce1bdd61cd2d	553010134	1	practice_z	5	practice_z	27	stimuli_distractor_diamondtriangles.svg	stimuli_target_trianglecircles.svg	9	yes	44	1	763
6.6.1	mac	2022-12-24	22:33:04	22:36:56	230421	5edf222d1b8bce1bdd61cd2d	553010134	1	practice_z	5	advance_on_keypress_ZEE	28	stimuli_distractor_diamondtriangles.svg	stimuli_target_trianglecircles.svg	9	yes	57	0	316
6.6.1	mac	2022-12-24	22:33:04	22:36:59	233577	5edf222d1b8bce1bdd61cd2d	553010134	1	practice_z	5	practice_z	29	stimuli_target_squarediamonds.svg	stimuli_distractor_diamondtriangles.svg	2	yes	44	1	1194
6.6.1	mac	2022-12-24	22:33:04	22:36:59	233577	5edf222d1b8bce1bdd61cd2d	553010134	1	practice_z	5	advance_on_keypress_ZEE	30	stimuli_target_squarediamonds.svg	stimuli_distractor_diamondtriangles.svg	2	yes	57	0	286
6.6.1	mac	2022-12-24	22:33:04	22:37:02	236423	5edf222d1b8bce1bdd61cd2d	553010134	1	practice_z	5	practice_z	31	stimuli_target_diamondsquares.svg	stimuli_distractor_trianglediamonds.svg	6	yes	44	1	895
6.6.1	mac	2022-12-24	22:33:04	22:37:02	236423	5edf222d1b8bce1bdd61cd2d	553010134	1	practice_z	5	advance_on_keypress_ZEE	32	stimuli_target_diamondsquares.svg	stimuli_distractor_trianglediamonds.svg	6	yes	57	0	302
6.6.1	mac	2022-12-24	22:33:04	22:37:13	248094	5edf222d1b8bce1bdd61cd2d	553010134	1	main_z	7	main_z	1	stimuli_distractor_diamondtriangles.svg	stimuli_distractor_trianglediamonds.svg	37	no	0	1	2000
6.6.1	mac	2022-12-24	22:33:04	22:37:13	248094	5edf222d1b8bce1bdd61cd2d	553010134	1	main_z	7	advance_on_keypress_ZEE	2	stimuli_distractor_diamondtriangles.svg	stimuli_distractor_trianglediamonds.svg	37	no	57	0	1541
6.6.1	mac	2022-12-24	22:33:04	22:37:17	252278	5edf222d1b8bce1bdd61cd2d	553010134	1	main_z	7	main_z	3	stimuli_distractor_trianglediamonds.svg	stimuli_distractor_diamondtriangles.svg	36	no	0	1	2000
6.6.1	mac	2022-12-24	22:33:04	22:37:17	252278	5edf222d1b8bce1bdd61cd2d	553010134	1	main_z	7	advance_on_keypress_ZEE	4	stimuli_distractor_trianglediamonds.svg	stimuli_distractor_diamondtriangles.svg	36	no	57	0	412
6.6.1	mac	2022-12-24	22:33:04	22:37:20	255328	5edf222d1b8bce1bdd61cd2d	553010134	1	main_z	7	main_z	5	stimuli_distractor_trianglediamonds.svg	stimuli_target_squarediamonds.svg	12	yes	0	0	2000
6.6.1	mac	2022-12-24	22:33:04	22:37:20	255328	5edf222d1b8bce1bdd61cd2d	553010134	1	main_z	7	advance_on_keypress_ZEE	6	stimuli_distractor_trianglediamonds.svg	stimuli_target_squarediamonds.svg	12	yes	57	0	605
6.6.1	mac	2022-12-24	22:33:04	22:37:22	257179	5edf222d1b8bce1bdd61cd2d	553010134	1	main_z	7	main_z	7	stimuli_target_circletriangles.svg	stimuli_distractor_diamondtriangles.svg	5	yes	44	1	597
6.6.1	mac	2022-12-24	22:33:04	22:37:22	257179	5edf222d1b8bce1bdd61cd2d	553010134	1	main_z	7	advance_on_keypress_ZEE	8	stimuli_target_circletriangles.svg	stimuli_distractor_diamondtriangles.svg	5	yes	57	0	654
6.6.1	mac	2022-12-24	22:33:04	22:37:25	259422	5edf222d1b8bce1bdd61cd2d	553010134	1	main_z	7	main_z	9	stimuli_distractor_diamondtriangles.svg	stimuli_target_diamondsquares.svg	32	yes	44	1	921
6.6.1	mac	2022-12-24	22:33:04	22:37:25	259422	5edf222d1b8bce1bdd61cd2d	553010134	1	main_z	7	advance_on_keypress_ZEE	10	stimuli_distractor_diamondtriangles.svg	stimuli_target_diamondsquares.svg	32	yes	57	0	523
6.6.1	mac	2022-12-24	22:33:04	22:37:26	261173	5edf222d1b8bce1bdd61cd2d	553010134	1	main_z	7	main_z	11	stimuli_target_diamondsquares.svg	stimuli_distractor_trianglediamonds.svg	20	yes	44	1	574
6.6.1	mac	2022-12-24	22:33:04	22:37:26	261173	5edf222d1b8bce1bdd61cd2d	553010134	1	main_z	7	advance_on_keypress_ZEE	12	stimuli_target_diamondsquares.svg	stimuli_distractor_trianglediamonds.svg	20	yes	57	0	531
6.6.1	mac	2022-12-24	22:33:04	22:37:28	263123	5edf222d1b8bce1bdd61cd2d	553010134	1	main_z	7	main_z	13	stimuli_distractor_trianglediamonds.svg	stimuli_target_squaretriangles.svg	11	yes	44	1	767
6.6.1	mac	2022-12-24	22:33:04	22:37:28	263123	5edf222d1b8bce1bdd61cd2d	553010134	1	main_z	7	advance_on_keypress_ZEE	14	stimuli_distractor_trianglediamonds.svg	stimuli_target_squaretriangles.svg	11	yes	57	0	450
6.6.1	mac	2022-12-24	22:33:04	22:37:30	264922	5edf222d1b8bce1bdd61cd2d	553010134	1	main_z	7	main_z	15	stimuli_target_trianglecircles.svg	stimuli_distractor_trianglediamonds.svg	17	yes	44	1	698
6.6.1	mac	2022-12-24	22:33:04	22:37:30	264922	5edf222d1b8bce1bdd61cd2d	553010134	1	main_z	7	advance_on_keypress_ZEE	16	stimuli_target_trianglecircles.svg	stimuli_distractor_trianglediamonds.svg	17	yes	57	0	429
6.6.1	mac	2022-12-24	22:33:04	22:37:32	266572	5edf222d1b8bce1bdd61cd2d	553010134	1	main_z	7	main_z	17	stimuli_distractor_diamondtriangles.svg	stimuli_target_trianglesquares.svg	30	yes	44	1	570
6.6.1	mac	2022-12-24	22:33:04	22:37:32	266572	5edf222d1b8bce1bdd61cd2d	553010134	1	main_z	7	advance_on_keypress_ZEE	18	stimuli_distractor_diamondtriangles.svg	stimuli_target_trianglesquares.svg	30	yes	57	0	586
6.6.1	mac	2022-12-24	22:33:04	22:37:34	268473	5edf222d1b8bce1bdd61cd2d	553010134	1	main_z	7	main_z	19	stimuli_target_circlediamonds.svg	stimuli_distractor_diamondtriangles.svg	6	yes	44	1	660
6.6.1	mac	2022-12-24	22:33:04	22:37:34	268473	5edf222d1b8bce1bdd61cd2d	553010134	1	main_z	7	advance_on_keypress_ZEE	20	stimuli_target_circlediamonds.svg	stimuli_distractor_diamondtriangles.svg	6	yes	57	0	493
6.6.1	mac	2022-12-24	22:33:04	22:37:35	270271	5edf222d1b8bce1bdd61cd2d	553010134	1	main_z	7	main_z	21	stimuli_distractor_trianglediamonds.svg	stimuli_target_circletriangles.svg	9	yes	44	1	678
6.6.1	mac	2022-12-24	22:33:04	22:37:35	270271	5edf222d1b8bce1bdd61cd2d	553010134	1	main_z	7	advance_on_keypress_ZEE	22	stimuli_distractor_trianglediamonds.svg	stimuli_target_circletriangles.svg	9	yes	57	0	316
6.6.1	mac	2022-12-24	22:33:04	22:37:38	273227	5edf222d1b8bce1bdd61cd2d	553010134	1	main_z	7	main_z	23	stimuli_distractor_trianglediamonds.svg	stimuli_distractor_trianglediamonds.svg	33	no	0	1	2000
6.6.1	mac	2022-12-24	22:33:04	22:37:38	273227	5edf222d1b8bce1bdd61cd2d	553010134	1	main_z	7	advance_on_keypress_ZEE	24	stimuli_distractor_trianglediamonds.svg	stimuli_distractor_trianglediamonds.svg	33	no	57	0	475
6.6.1	mac	2022-12-24	22:33:04	22:37:40	275030	5edf222d1b8bce1bdd61cd2d	553010134	1	main_z	7	main_z	25	stimuli_target_trianglesquares.svg	stimuli_distractor_trianglediamonds.svg	18	yes	44	1	699
6.6.1	mac	2022-12-24	22:33:04	22:37:40	275030	5edf222d1b8bce1bdd61cd2d	553010134	1	main_z	7	advance_on_keypress_ZEE	26	stimuli_target_trianglesquares.svg	stimuli_distractor_trianglediamonds.svg	18	yes	57	0	618
6.6.1	mac	2022-12-24	22:33:04	22:37:43	277727	5edf222d1b8bce1bdd61cd2d	553010134	1	main_z	7	main_z	27	stimuli_target_squaretriangles.svg	stimuli_distractor_diamondtriangles.svg	7	yes	44	1	1448
6.6.1	mac	2022-12-24	22:33:04	22:37:43	277727	5edf222d1b8bce1bdd61cd2d	553010134	1	main_z	7	advance_on_keypress_ZEE	28	stimuli_target_squaretriangles.svg	stimuli_distractor_diamondtriangles.svg	7	yes	57	0	452
6.6.1	mac	2022-12-24	22:33:04	22:37:45	279537	5edf222d1b8bce1bdd61cd2d	553010134	1	main_z	7	main_z	29	stimuli_distractor_diamondtriangles.svg	stimuli_target_squarediamonds.svg	16	yes	44	1	707
6.6.1	mac	2022-12-24	22:33:04	22:37:45	279537	5edf222d1b8bce1bdd61cd2d	553010134	1	main_z	7	advance_on_keypress_ZEE	30	stimuli_distractor_diamondtriangles.svg	stimuli_target_squarediamonds.svg	16	yes	57	0	411
6.6.1	mac	2022-12-24	22:33:04	22:37:47	281522	5edf222d1b8bce1bdd61cd2d	553010134	1	main_z	7	main_z	31	stimuli_target_diamondsquares.svg	stimuli_distractor_diamondtriangles.svg	24	yes	44	1	924
6.6.1	mac	2022-12-24	22:33:04	22:37:47	281522	5edf222d1b8bce1bdd61cd2d	553010134	1	main_z	7	advance_on_keypress_ZEE	32	stimuli_target_diamondsquares.svg	stimuli_distractor_diamondtriangles.svg	24	yes	57	0	367
6.6.1	mac	2022-12-24	22:33:04	22:37:49	283424	5edf222d1b8bce1bdd61cd2d	553010134	1	main_z	7	main_z	33	stimuli_distractor_diamondtriangles.svg	stimuli_target_trianglecircles.svg	29	yes	44	1	894
6.6.1	mac	2022-12-24	22:33:04	22:37:49	283424	5edf222d1b8bce1bdd61cd2d	553010134	1	main_z	7	advance_on_keypress_ZEE	34	stimuli_distractor_diamondtriangles.svg	stimuli_target_trianglecircles.svg	29	yes	57	0	349
6.6.1	mac	2022-12-24	22:33:04	22:37:52	286394	5edf222d1b8bce1bdd61cd2d	553010134	1	main_z	7	main_z	35	stimuli_distractor_diamondtriangles.svg	stimuli_target_circletriangles.svg	13	yes	0	0	2000
6.6.1	mac	2022-12-24	22:33:04	22:37:52	286394	5edf222d1b8bce1bdd61cd2d	553010134	1	main_z	7	advance_on_keypress_ZEE	36	stimuli_distractor_diamondtriangles.svg	stimuli_target_circletriangles.svg	13	yes	57	0	586
6.6.1	mac	2022-12-24	22:33:04	22:37:55	289626	5edf222d1b8bce1bdd61cd2d	553010134	1	main_z	7	main_z	37	stimuli_distractor_trianglediamonds.svg	stimuli_distractor_diamondtriangles.svg	35	no	0	1	2000
6.6.1	mac	2022-12-24	22:33:04	22:37:55	289626	5edf222d1b8bce1bdd61cd2d	553010134	1	main_z	7	advance_on_keypress_ZEE	38	stimuli_distractor_trianglediamonds.svg	stimuli_distractor_diamondtriangles.svg	35	no	57	0	278
6.6.1	mac	2022-12-24	22:33:04	22:37:57	291522	5edf222d1b8bce1bdd61cd2d	553010134	1	main_z	7	main_z	39	stimuli_distractor_trianglediamonds.svg	stimuli_target_diamondcircles.svg	27	yes	44	1	972
6.6.1	mac	2022-12-24	22:33:04	22:37:57	291522	5edf222d1b8bce1bdd61cd2d	553010134	1	main_z	7	advance_on_keypress_ZEE	40	stimuli_distractor_trianglediamonds.svg	stimuli_target_diamondcircles.svg	27	yes	57	0	463
6.6.1	mac	2022-12-24	22:33:04	22:37:59	293673	5edf222d1b8bce1bdd61cd2d	553010134	1	main_z	7	main_z	41	stimuli_distractor_trianglediamonds.svg	stimuli_target_diamondsquares.svg	28	yes	44	1	1046
6.6.1	mac	2022-12-24	22:33:04	22:37:59	293673	5edf222d1b8bce1bdd61cd2d	553010134	1	main_z	7	advance_on_keypress_ZEE	42	stimuli_distractor_trianglediamonds.svg	stimuli_target_diamondsquares.svg	28	yes	57	0	520
6.6.1	mac	2022-12-24	22:33:04	22:38:01	296072	5edf222d1b8bce1bdd61cd2d	553010134	1	main_z	7	main_z	43	stimuli_distractor_diamondtriangles.svg	stimuli_target_circlediamonds.svg	14	yes	44	1	1217
6.6.1	mac	2022-12-24	22:33:04	22:38:01	296072	5edf222d1b8bce1bdd61cd2d	553010134	1	main_z	7	advance_on_keypress_ZEE	44	stimuli_distractor_diamondtriangles.svg	stimuli_target_circlediamonds.svg	14	yes	57	0	4000
6.6.1	mac	2022-12-24	22:33:04	22:38:07	301382	5edf222d1b8bce1bdd61cd2d	553010134	1	main_z	7	main_z	45	stimuli_distractor_trianglediamonds.svg	stimuli_target_circlediamonds.svg	10	yes	44	1	687
6.6.1	mac	2022-12-24	22:33:04	22:38:07	301382	5edf222d1b8bce1bdd61cd2d	553010134	1	main_z	7	advance_on_keypress_ZEE	46	stimuli_distractor_trianglediamonds.svg	stimuli_target_circlediamonds.svg	10	yes	57	0	2881
6.6.1	mac	2022-12-24	22:33:04	22:38:11	306273	5edf222d1b8bce1bdd61cd2d	553010134	1	main_z	7	main_z	47	stimuli_target_squaretriangles.svg	stimuli_distractor_trianglediamonds.svg	3	yes	44	1	1368
6.6.1	mac	2022-12-24	22:33:04	22:38:11	306273	5edf222d1b8bce1bdd61cd2d	553010134	1	main_z	7	advance_on_keypress_ZEE	48	stimuli_target_squaretriangles.svg	stimuli_distractor_trianglediamonds.svg	3	yes	57	0	563
6.6.1	mac	2022-12-24	22:33:04	22:38:14	308521	5edf222d1b8bce1bdd61cd2d	553010134	1	main_z	7	main_z	49	stimuli_distractor_diamondtriangles.svg	stimuli_target_squaretriangles.svg	15	yes	44	1	1023
6.6.1	mac	2022-12-24	22:33:04	22:38:14	308521	5edf222d1b8bce1bdd61cd2d	553010134	1	main_z	7	advance_on_keypress_ZEE	50	stimuli_distractor_diamondtriangles.svg	stimuli_target_squaretriangles.svg	15	yes	57	0	318
6.6.1	mac	2022-12-24	22:33:04	22:38:15	310171	5edf222d1b8bce1bdd61cd2d	553010134	1	main_z	7	main_z	51	stimuli_target_circletriangles.svg	stimuli_distractor_trianglediamonds.svg	1	yes	44	1	688
6.6.1	mac	2022-12-24	22:33:04	22:38:15	310171	5edf222d1b8bce1bdd61cd2d	553010134	1	main_z	7	advance_on_keypress_ZEE	52	stimuli_target_circletriangles.svg	stimuli_distractor_trianglediamonds.svg	1	yes	57	0	412
6.6.1	mac	2022-12-24	22:33:04	22:38:17	311872	5edf222d1b8bce1bdd61cd2d	553010134	1	main_z	7	main_z	53	stimuli_target_diamondcircles.svg	stimuli_distractor_trianglediamonds.svg	19	yes	44	1	615
6.6.1	mac	2022-12-24	22:33:04	22:38:17	311872	5edf222d1b8bce1bdd61cd2d	553010134	1	main_z	7	advance_on_keypress_ZEE	54	stimuli_target_diamondcircles.svg	stimuli_distractor_trianglediamonds.svg	19	yes	57	0	360
6.6.1	mac	2022-12-24	22:33:04	22:38:20	314843	5edf222d1b8bce1bdd61cd2d	553010134	1	main_z	7	main_z	55	stimuli_distractor_diamondtriangles.svg	stimuli_distractor_trianglediamonds.svg	38	no	0	1	2000
6.6.1	mac	2022-12-24	22:33:04	22:38:20	314843	5edf222d1b8bce1bdd61cd2d	553010134	1	main_z	7	advance_on_keypress_ZEE	56	stimuli_distractor_diamondtriangles.svg	stimuli_distractor_trianglediamonds.svg	38	no	57	0	336
6.6.1	mac	2022-12-24	22:33:04	22:38:23	317826	5edf222d1b8bce1bdd61cd2d	553010134	1	main_z	7	main_z	57	stimuli_distractor_trianglediamonds.svg	stimuli_distractor_trianglediamonds.svg	34	no	0	1	2000
6.6.1	mac	2022-12-24	22:33:04	22:38:23	317826	5edf222d1b8bce1bdd61cd2d	553010134	1	main_z	7	advance_on_keypress_ZEE	58	stimuli_distractor_trianglediamonds.svg	stimuli_distractor_trianglediamonds.svg	34	no	57	0	949
6.6.1	mac	2022-12-24	22:33:04	22:38:25	320125	5edf222d1b8bce1bdd61cd2d	553010134	1	main_z	7	main_z	59	stimuli_distractor_trianglediamonds.svg	stimuli_target_trianglecircles.svg	25	yes	44	1	697
6.6.1	mac	2022-12-24	22:33:04	22:38:25	320125	5edf222d1b8bce1bdd61cd2d	553010134	1	main_z	7	advance_on_keypress_ZEE	60	stimuli_distractor_trianglediamonds.svg	stimuli_target_trianglecircles.svg	25	yes	57	0	468
6.6.1	mac	2022-12-24	22:33:04	22:38:27	322172	5edf222d1b8bce1bdd61cd2d	553010134	1	main_z	7	main_z	61	stimuli_distractor_trianglediamonds.svg	stimuli_target_trianglesquares.svg	26	yes	44	1	939
6.6.1	mac	2022-12-24	22:33:04	22:38:27	322172	5edf222d1b8bce1bdd61cd2d	553010134	1	main_z	7	advance_on_keypress_ZEE	62	stimuli_distractor_trianglediamonds.svg	stimuli_target_trianglesquares.svg	26	yes	57	0	469
6.6.1	mac	2022-12-24	22:33:04	22:38:29	323831	5edf222d1b8bce1bdd61cd2d	553010134	1	main_z	7	main_z	63	stimuli_target_trianglecircles.svg	stimuli_distractor_diamondtriangles.svg	21	yes	44	1	553
6.6.1	mac	2022-12-24	22:33:04	22:38:29	323831	5edf222d1b8bce1bdd61cd2d	553010134	1	main_z	7	advance_on_keypress_ZEE	64	stimuli_target_trianglecircles.svg	stimuli_distractor_diamondtriangles.svg	21	yes	57	0	395
6.6.1	mac	2022-12-24	22:33:04	22:38:31	325736	5edf222d1b8bce1bdd61cd2d	553010134	1	main_z	7	main_z	65	stimuli_target_squarediamonds.svg	stimuli_distractor_diamondtriangles.svg	8	yes	44	1	859
6.6.1	mac	2022-12-24	22:33:04	22:38:31	325736	5edf222d1b8bce1bdd61cd2d	553010134	1	main_z	7	advance_on_keypress_ZEE	66	stimuli_target_squarediamonds.svg	stimuli_distractor_diamondtriangles.svg	8	yes	57	0	333
6.6.1	mac	2022-12-24	22:33:04	22:38:34	328693	5edf222d1b8bce1bdd61cd2d	553010134	1	main_z	7	main_z	67	stimuli_distractor_diamondtriangles.svg	stimuli_distractor_diamondtriangles.svg	40	no	0	1	2000
6.6.1	mac	2022-12-24	22:33:04	22:38:34	328693	5edf222d1b8bce1bdd61cd2d	553010134	1	main_z	7	advance_on_keypress_ZEE	68	stimuli_distractor_diamondtriangles.svg	stimuli_distractor_diamondtriangles.svg	40	no	57	0	327
6.6.1	mac	2022-12-24	22:33:04	22:38:36	330423	5edf222d1b8bce1bdd61cd2d	553010134	1	main_z	7	main_z	69	stimuli_target_circlediamonds.svg	stimuli_distractor_trianglediamonds.svg	2	yes	44	1	732
6.6.1	mac	2022-12-24	22:33:04	22:38:36	330423	5edf222d1b8bce1bdd61cd2d	553010134	1	main_z	7	advance_on_keypress_ZEE	70	stimuli_target_circlediamonds.svg	stimuli_distractor_trianglediamonds.svg	2	yes	57	0	538
6.6.1	mac	2022-12-24	22:33:04	22:38:38	332472	5edf222d1b8bce1bdd61cd2d	553010134	1	main_z	7	main_z	71	stimuli_distractor_diamondtriangles.svg	stimuli_target_diamondcircles.svg	31	yes	44	1	884
6.6.1	mac	2022-12-24	22:33:04	22:38:38	332472	5edf222d1b8bce1bdd61cd2d	553010134	1	main_z	7	advance_on_keypress_ZEE	72	stimuli_distractor_diamondtriangles.svg	stimuli_target_diamondcircles.svg	31	yes	57	0	500
6.6.1	mac	2022-12-24	22:33:04	22:38:40	334972	5edf222d1b8bce1bdd61cd2d	553010134	1	main_z	7	main_z	73	stimuli_target_squarediamonds.svg	stimuli_distractor_trianglediamonds.svg	4	yes	44	1	1347
6.6.1	mac	2022-12-24	22:33:04	22:38:40	334972	5edf222d1b8bce1bdd61cd2d	553010134	1	main_z	7	advance_on_keypress_ZEE	74	stimuli_target_squarediamonds.svg	stimuli_distractor_trianglediamonds.svg	4	yes	57	0	467
6.6.1	mac	2022-12-24	22:33:04	22:38:42	336974	5edf222d1b8bce1bdd61cd2d	553010134	1	main_z	7	main_z	75	stimuli_target_trianglesquares.svg	stimuli_distractor_diamondtriangles.svg	22	yes	44	1	896
6.6.1	mac	2022-12-24	22:33:04	22:38:42	336974	5edf222d1b8bce1bdd61cd2d	553010134	1	main_z	7	advance_on_keypress_ZEE	76	stimuli_target_trianglesquares.svg	stimuli_distractor_diamondtriangles.svg	22	yes	57	0	582
6.6.1	mac	2022-12-24	22:33:04	22:38:44	338821	5edf222d1b8bce1bdd61cd2d	553010134	1	main_z	7	main_z	77	stimuli_target_diamondcircles.svg	stimuli_distractor_diamondtriangles.svg	23	yes	44	1	599
6.6.1	mac	2022-12-24	22:33:04	22:38:44	338821	5edf222d1b8bce1bdd61cd2d	553010134	1	main_z	7	advance_on_keypress_ZEE	78	stimuli_target_diamondcircles.svg	stimuli_distractor_diamondtriangles.svg	23	yes	57	0	486
6.6.1	mac	2022-12-24	22:33:04	22:38:47	341925	5edf222d1b8bce1bdd61cd2d	553010134	1	main_z	7	main_z	79	stimuli_distractor_diamondtriangles.svg	stimuli_distractor_diamondtriangles.svg	39	no	0	1	2000
6.6.1	mac	2022-12-24	22:33:04	22:38:47	341925	5edf222d1b8bce1bdd61cd2d	553010134	1	main_z	7	advance_on_keypress_ZEE	80	stimuli_distractor_diamondtriangles.svg	stimuli_distractor_diamondtriangles.svg	39	no	57	0	300
6.6.1	mac	2022-12-24	22:33:04	22:38:49	344278	5edf222d1b8bce1bdd61cd2d	553010134	1	main_z	7	main_z	81	stimuli_target_squarediamonds.svg	stimuli_distractor_trianglediamonds.svg	4	yes	44	1	1401
6.6.1	mac	2022-12-24	22:33:04	22:38:49	344278	5edf222d1b8bce1bdd61cd2d	553010134	1	main_z	7	advance_on_keypress_ZEE	82	stimuli_target_squarediamonds.svg	stimuli_distractor_trianglediamonds.svg	4	yes	57	0	342
6.6.1	mac	2022-12-24	22:33:04	22:38:51	346373	5edf222d1b8bce1bdd61cd2d	553010134	1	main_z	7	main_z	83	stimuli_distractor_diamondtriangles.svg	stimuli_target_squarediamonds.svg	16	yes	44	1	1116
6.6.1	mac	2022-12-24	22:33:04	22:38:51	346373	5edf222d1b8bce1bdd61cd2d	553010134	1	main_z	7	advance_on_keypress_ZEE	84	stimuli_distractor_diamondtriangles.svg	stimuli_target_squarediamonds.svg	16	yes	57	0	317
6.6.1	mac	2022-12-24	22:33:04	22:38:53	348222	5edf222d1b8bce1bdd61cd2d	553010134	1	main_z	7	main_z	85	stimuli_target_squarediamonds.svg	stimuli_distractor_diamondtriangles.svg	8	yes	44	1	877
6.6.1	mac	2022-12-24	22:33:04	22:38:53	348222	5edf222d1b8bce1bdd61cd2d	553010134	1	main_z	7	advance_on_keypress_ZEE	86	stimuli_target_squarediamonds.svg	stimuli_distractor_diamondtriangles.svg	8	yes	57	0	297
6.6.1	mac	2022-12-24	22:33:04	22:38:55	350080	5edf222d1b8bce1bdd61cd2d	553010134	1	main_z	7	main_z	87	stimuli_target_diamondsquares.svg	stimuli_distractor_trianglediamonds.svg	20	yes	44	1	936
6.6.1	mac	2022-12-24	22:33:04	22:38:55	350080	5edf222d1b8bce1bdd61cd2d	553010134	1	main_z	7	advance_on_keypress_ZEE	88	stimuli_target_diamondsquares.svg	stimuli_distractor_trianglediamonds.svg	20	yes	57	0	253
6.6.1	mac	2022-12-24	22:33:04	22:38:57	351821	5edf222d1b8bce1bdd61cd2d	553010134	1	main_z	7	main_z	89	stimuli_target_trianglesquares.svg	stimuli_distractor_trianglediamonds.svg	18	yes	44	1	828
6.6.1	mac	2022-12-24	22:33:04	22:38:57	351821	5edf222d1b8bce1bdd61cd2d	553010134	1	main_z	7	advance_on_keypress_ZEE	90	stimuli_target_trianglesquares.svg	stimuli_distractor_trianglediamonds.svg	18	yes	57	0	241
6.6.1	mac	2022-12-24	22:33:04	22:38:59	354372	5edf222d1b8bce1bdd61cd2d	553010134	1	main_z	7	main_z	91	stimuli_target_squaretriangles.svg	stimuli_distractor_trianglediamonds.svg	3	yes	44	1	1683
6.6.1	mac	2022-12-24	22:33:04	22:38:59	354372	5edf222d1b8bce1bdd61cd2d	553010134	1	main_z	7	advance_on_keypress_ZEE	92	stimuli_target_squaretriangles.svg	stimuli_distractor_trianglediamonds.svg	3	yes	57	0	289
6.6.1	mac	2022-12-24	22:33:04	22:39:01	355972	5edf222d1b8bce1bdd61cd2d	553010134	1	main_z	7	main_z	93	stimuli_target_trianglesquares.svg	stimuli_distractor_diamondtriangles.svg	22	yes	44	1	676
6.6.1	mac	2022-12-24	22:33:04	22:39:01	355972	5edf222d1b8bce1bdd61cd2d	553010134	1	main_z	7	advance_on_keypress_ZEE	94	stimuli_target_trianglesquares.svg	stimuli_distractor_diamondtriangles.svg	22	yes	57	0	351
6.6.1	mac	2022-12-24	22:33:04	22:39:04	358942	5edf222d1b8bce1bdd61cd2d	553010134	1	main_z	7	main_z	95	stimuli_distractor_diamondtriangles.svg	stimuli_distractor_diamondtriangles.svg	40	no	0	1	2000
6.6.1	mac	2022-12-24	22:33:04	22:39:04	358942	5edf222d1b8bce1bdd61cd2d	553010134	1	main_z	7	advance_on_keypress_ZEE	96	stimuli_distractor_diamondtriangles.svg	stimuli_distractor_diamondtriangles.svg	40	no	57	0	421
6.6.1	mac	2022-12-24	22:33:04	22:39:06	360621	5edf222d1b8bce1bdd61cd2d	553010134	1	main_z	7	main_z	97	stimuli_distractor_diamondtriangles.svg	stimuli_target_trianglecircles.svg	29	yes	44	1	605
6.6.1	mac	2022-12-24	22:33:04	22:39:06	360621	5edf222d1b8bce1bdd61cd2d	553010134	1	main_z	7	advance_on_keypress_ZEE	98	stimuli_distractor_diamondtriangles.svg	stimuli_target_trianglecircles.svg	29	yes	57	0	311
6.6.1	mac	2022-12-24	22:33:04	22:39:08	362472	5edf222d1b8bce1bdd61cd2d	553010134	1	main_z	7	main_z	99	stimuli_distractor_trianglediamonds.svg	stimuli_target_circlediamonds.svg	10	yes	44	1	926
6.6.1	mac	2022-12-24	22:33:04	22:39:08	362472	5edf222d1b8bce1bdd61cd2d	553010134	1	main_z	7	advance_on_keypress_ZEE	100	stimuli_distractor_trianglediamonds.svg	stimuli_target_circlediamonds.svg	10	yes	57	0	390
6.6.1	mac	2022-12-24	22:33:04	22:39:09	364178	5edf222d1b8bce1bdd61cd2d	553010134	1	main_z	7	main_z	101	stimuli_target_diamondsquares.svg	stimuli_distractor_diamondtriangles.svg	24	yes	44	1	684
6.6.1	mac	2022-12-24	22:33:04	22:39:09	364178	5edf222d1b8bce1bdd61cd2d	553010134	1	main_z	7	advance_on_keypress_ZEE	102	stimuli_target_diamondsquares.svg	stimuli_distractor_diamondtriangles.svg	24	yes	57	0	328
6.6.1	mac	2022-12-24	22:33:04	22:39:11	365873	5edf222d1b8bce1bdd61cd2d	553010134	1	main_z	7	main_z	103	stimuli_distractor_diamondtriangles.svg	stimuli_target_diamondsquares.svg	32	yes	44	1	710
6.6.1	mac	2022-12-24	22:33:04	22:39:11	365873	5edf222d1b8bce1bdd61cd2d	553010134	1	main_z	7	advance_on_keypress_ZEE	104	stimuli_distractor_diamondtriangles.svg	stimuli_target_diamondsquares.svg	32	yes	57	0	349
6.6.1	mac	2022-12-24	22:33:04	22:39:13	367684	5edf222d1b8bce1bdd61cd2d	553010134	1	main_z	7	main_z	105	stimuli_distractor_diamondtriangles.svg	stimuli_target_diamondcircles.svg	31	yes	44	1	806
6.6.1	mac	2022-12-24	22:33:04	22:39:13	367684	5edf222d1b8bce1bdd61cd2d	553010134	1	main_z	7	advance_on_keypress_ZEE	106	stimuli_distractor_diamondtriangles.svg	stimuli_target_diamondcircles.svg	31	yes	57	0	394
6.6.1	mac	2022-12-24	22:33:04	22:39:15	369573	5edf222d1b8bce1bdd61cd2d	553010134	1	main_z	7	main_z	107	stimuli_distractor_diamondtriangles.svg	stimuli_target_squaretriangles.svg	15	yes	44	1	878
6.6.1	mac	2022-12-24	22:33:04	22:39:15	369573	5edf222d1b8bce1bdd61cd2d	553010134	1	main_z	7	advance_on_keypress_ZEE	108	stimuli_distractor_diamondtriangles.svg	stimuli_target_squaretriangles.svg	15	yes	57	0	362
6.6.1	mac	2022-12-24	22:33:04	22:39:17	371522	5edf222d1b8bce1bdd61cd2d	553010134	1	main_z	7	main_z	109	stimuli_distractor_diamondtriangles.svg	stimuli_target_trianglesquares.svg	30	yes	44	1	937
6.6.1	mac	2022-12-24	22:33:04	22:39:17	371522	5edf222d1b8bce1bdd61cd2d	553010134	1	main_z	7	advance_on_keypress_ZEE	110	stimuli_distractor_diamondtriangles.svg	stimuli_target_trianglesquares.svg	30	yes	57	0	1005
6.6.1	mac	2022-12-24	22:33:04	22:39:19	374029	5edf222d1b8bce1bdd61cd2d	553010134	1	main_z	7	main_z	111	stimuli_distractor_diamondtriangles.svg	stimuli_distractor_trianglediamonds.svg	37	no	44	0	835
6.6.1	mac	2022-12-24	22:33:04	22:39:19	374029	5edf222d1b8bce1bdd61cd2d	553010134	1	main_z	7	advance_on_keypress_ZEE	112	stimuli_distractor_diamondtriangles.svg	stimuli_distractor_trianglediamonds.svg	37	no	57	0	402
6.6.1	mac	2022-12-24	22:33:04	22:39:21	375732	5edf222d1b8bce1bdd61cd2d	553010134	1	main_z	7	main_z	113	stimuli_target_circlediamonds.svg	stimuli_distractor_diamondtriangles.svg	6	yes	44	1	656
6.6.1	mac	2022-12-24	22:33:04	22:39:21	375732	5edf222d1b8bce1bdd61cd2d	553010134	1	main_z	7	advance_on_keypress_ZEE	114	stimuli_target_circlediamonds.svg	stimuli_distractor_diamondtriangles.svg	6	yes	57	0	298
6.6.1	mac	2022-12-24	22:33:04	22:39:23	377522	5edf222d1b8bce1bdd61cd2d	553010134	1	main_z	7	main_z	115	stimuli_distractor_trianglediamonds.svg	stimuli_target_diamondcircles.svg	27	yes	44	1	810
6.6.1	mac	2022-12-24	22:33:04	22:39:23	377522	5edf222d1b8bce1bdd61cd2d	553010134	1	main_z	7	advance_on_keypress_ZEE	116	stimuli_distractor_trianglediamonds.svg	stimuli_target_diamondcircles.svg	27	yes	57	0	299
6.6.1	mac	2022-12-24	22:33:04	22:39:24	379022	5edf222d1b8bce1bdd61cd2d	553010134	1	main_z	7	main_z	117	stimuli_target_trianglecircles.svg	stimuli_distractor_diamondtriangles.svg	21	yes	44	1	571
6.6.1	mac	2022-12-24	22:33:04	22:39:24	379022	5edf222d1b8bce1bdd61cd2d	553010134	1	main_z	7	advance_on_keypress_ZEE	118	stimuli_target_trianglecircles.svg	stimuli_distractor_diamondtriangles.svg	21	yes	57	0	282
6.6.1	mac	2022-12-24	22:33:04	22:39:27	381941	5edf222d1b8bce1bdd61cd2d	553010134	1	main_z	7	main_z	119	stimuli_distractor_diamondtriangles.svg	stimuli_distractor_trianglediamonds.svg	38	no	0	1	2000
6.6.1	mac	2022-12-24	22:33:04	22:39:27	381941	5edf222d1b8bce1bdd61cd2d	553010134	1	main_z	7	advance_on_keypress_ZEE	120	stimuli_distractor_diamondtriangles.svg	stimuli_distractor_trianglediamonds.svg	38	no	57	0	367
6.6.1	mac	2022-12-24	22:33:04	22:39:29	383580	5edf222d1b8bce1bdd61cd2d	553010134	1	main_z	7	main_z	121	stimuli_distractor_trianglediamonds.svg	stimuli_target_trianglecircles.svg	25	yes	44	1	636
6.6.1	mac	2022-12-24	22:33:04	22:39:29	383580	5edf222d1b8bce1bdd61cd2d	553010134	1	main_z	7	advance_on_keypress_ZEE	122	stimuli_distractor_trianglediamonds.svg	stimuli_target_trianglecircles.svg	25	yes	57	0	279
6.6.1	mac	2022-12-24	22:33:04	22:39:30	385136	5edf222d1b8bce1bdd61cd2d	553010134	1	main_z	7	main_z	123	stimuli_distractor_trianglediamonds.svg	stimuli_target_squaretriangles.svg	11	yes	44	1	642
6.6.1	mac	2022-12-24	22:33:04	22:39:30	385136	5edf222d1b8bce1bdd61cd2d	553010134	1	main_z	7	advance_on_keypress_ZEE	124	stimuli_distractor_trianglediamonds.svg	stimuli_target_squaretriangles.svg	11	yes	57	0	273
6.6.1	mac	2022-12-24	22:33:04	22:39:32	386673	5edf222d1b8bce1bdd61cd2d	553010134	1	main_z	7	main_z	125	stimuli_target_diamondcircles.svg	stimuli_distractor_trianglediamonds.svg	19	yes	44	1	613
6.6.1	mac	2022-12-24	22:33:04	22:39:32	386673	5edf222d1b8bce1bdd61cd2d	553010134	1	main_z	7	advance_on_keypress_ZEE	126	stimuli_target_diamondcircles.svg	stimuli_distractor_trianglediamonds.svg	19	yes	57	0	251
6.6.1	mac	2022-12-24	22:33:04	22:39:34	388434	5edf222d1b8bce1bdd61cd2d	553010134	1	main_z	7	main_z	127	stimuli_target_squaretriangles.svg	stimuli_distractor_diamondtriangles.svg	7	yes	44	1	840
6.6.1	mac	2022-12-24	22:33:04	22:39:34	388434	5edf222d1b8bce1bdd61cd2d	553010134	1	main_z	7	advance_on_keypress_ZEE	128	stimuli_target_squaretriangles.svg	stimuli_distractor_diamondtriangles.svg	7	yes	57	0	247
6.6.1	mac	2022-12-24	22:33:04	22:39:35	390072	5edf222d1b8bce1bdd61cd2d	553010134	1	main_z	7	main_z	129	stimuli_distractor_diamondtriangles.svg	stimuli_target_circlediamonds.svg	14	yes	44	1	716
6.6.1	mac	2022-12-24	22:33:04	22:39:35	390072	5edf222d1b8bce1bdd61cd2d	553010134	1	main_z	7	advance_on_keypress_ZEE	130	stimuli_distractor_diamondtriangles.svg	stimuli_target_circlediamonds.svg	14	yes	57	0	257
6.6.1	mac	2022-12-24	22:33:04	22:39:37	391726	5edf222d1b8bce1bdd61cd2d	553010134	1	main_z	7	main_z	131	stimuli_distractor_trianglediamonds.svg	stimuli_target_diamondsquares.svg	28	yes	44	1	732
6.6.1	mac	2022-12-24	22:33:04	22:39:37	391726	5edf222d1b8bce1bdd61cd2d	553010134	1	main_z	7	advance_on_keypress_ZEE	132	stimuli_distractor_trianglediamonds.svg	stimuli_target_diamondsquares.svg	28	yes	57	0	875
6.6.1	mac	2022-12-24	22:33:04	22:39:40	395241	5edf222d1b8bce1bdd61cd2d	553010134	1	main_z	7	main_z	133	stimuli_target_circletriangles.svg	stimuli_distractor_trianglediamonds.svg	1	yes	0	0	2000
6.6.1	mac	2022-12-24	22:33:04	22:39:40	395241	5edf222d1b8bce1bdd61cd2d	553010134	1	main_z	7	advance_on_keypress_ZEE	134	stimuli_target_circletriangles.svg	stimuli_distractor_trianglediamonds.svg	1	yes	57	0	455
6.6.1	mac	2022-12-24	22:33:04	22:39:42	396922	5edf222d1b8bce1bdd61cd2d	553010134	1	main_z	7	main_z	135	stimuli_target_trianglecircles.svg	stimuli_distractor_trianglediamonds.svg	17	yes	44	1	579
6.6.1	mac	2022-12-24	22:33:04	22:39:42	396922	5edf222d1b8bce1bdd61cd2d	553010134	1	main_z	7	advance_on_keypress_ZEE	136	stimuli_target_trianglecircles.svg	stimuli_distractor_trianglediamonds.svg	17	yes	57	0	325
6.6.1	mac	2022-12-24	22:33:04	22:39:44	398774	5edf222d1b8bce1bdd61cd2d	553010134	1	main_z	7	main_z	137	stimuli_distractor_diamondtriangles.svg	stimuli_target_circletriangles.svg	13	yes	44	1	881
6.6.1	mac	2022-12-24	22:33:04	22:39:44	398774	5edf222d1b8bce1bdd61cd2d	553010134	1	main_z	7	advance_on_keypress_ZEE	138	stimuli_distractor_diamondtriangles.svg	stimuli_target_circletriangles.svg	13	yes	57	0	191
6.6.1	mac	2022-12-24	22:33:04	22:39:45	400322	5edf222d1b8bce1bdd61cd2d	553010134	1	main_z	7	main_z	139	stimuli_distractor_trianglediamonds.svg	stimuli_target_circletriangles.svg	9	yes	44	1	713
6.6.1	mac	2022-12-24	22:33:04	22:39:45	400322	5edf222d1b8bce1bdd61cd2d	553010134	1	main_z	7	advance_on_keypress_ZEE	140	stimuli_distractor_trianglediamonds.svg	stimuli_target_circletriangles.svg	9	yes	57	0	314
6.6.1	mac	2022-12-24	22:33:04	22:39:47	401974	5edf222d1b8bce1bdd61cd2d	553010134	1	main_z	7	main_z	141	stimuli_distractor_trianglediamonds.svg	stimuli_target_trianglesquares.svg	26	yes	44	1	680
6.6.1	mac	2022-12-24	22:33:04	22:39:47	401974	5edf222d1b8bce1bdd61cd2d	553010134	1	main_z	7	advance_on_keypress_ZEE	142	stimuli_distractor_trianglediamonds.svg	stimuli_target_trianglesquares.svg	26	yes	57	0	329
6.6.1	mac	2022-12-24	22:33:04	22:39:50	404940	5edf222d1b8bce1bdd61cd2d	553010134	1	main_z	7	main_z	143	stimuli_distractor_trianglediamonds.svg	stimuli_distractor_diamondtriangles.svg	36	no	0	1	2000
6.6.1	mac	2022-12-24	22:33:04	22:39:50	404940	5edf222d1b8bce1bdd61cd2d	553010134	1	main_z	7	advance_on_keypress_ZEE	144	stimuli_distractor_trianglediamonds.svg	stimuli_distractor_diamondtriangles.svg	36	no	57	0	276
6.6.1	mac	2022-12-24	22:33:04	22:39:52	406484	5edf222d1b8bce1bdd61cd2d	553010134	1	main_z	7	main_z	145	stimuli_target_circlediamonds.svg	stimuli_distractor_trianglediamonds.svg	2	yes	44	1	640
6.6.1	mac	2022-12-24	22:33:04	22:39:52	406484	5edf222d1b8bce1bdd61cd2d	553010134	1	main_z	7	advance_on_keypress_ZEE	146	stimuli_target_circlediamonds.svg	stimuli_distractor_trianglediamonds.svg	2	yes	57	0	332
6.6.1	mac	2022-12-24	22:33:04	22:39:55	409440	5edf222d1b8bce1bdd61cd2d	553010134	1	main_z	7	main_z	147	stimuli_distractor_trianglediamonds.svg	stimuli_distractor_diamondtriangles.svg	35	no	0	1	2000
6.6.1	mac	2022-12-24	22:33:04	22:39:55	409440	5edf222d1b8bce1bdd61cd2d	553010134	1	main_z	7	advance_on_keypress_ZEE	148	stimuli_distractor_trianglediamonds.svg	stimuli_distractor_diamondtriangles.svg	35	no	57	0	426
6.6.1	mac	2022-12-24	22:33:04	22:39:58	412490	5edf222d1b8bce1bdd61cd2d	553010134	1	main_z	7	main_z	149	stimuli_distractor_diamondtriangles.svg	stimuli_distractor_diamondtriangles.svg	39	no	0	1	2000
6.6.1	mac	2022-12-24	22:33:04	22:39:58	412490	5edf222d1b8bce1bdd61cd2d	553010134	1	main_z	7	advance_on_keypress_ZEE	150	stimuli_distractor_diamondtriangles.svg	stimuli_distractor_diamondtriangles.svg	39	no	57	0	373
6.6.1	mac	2022-12-24	22:33:04	22:40:01	415489	5edf222d1b8bce1bdd61cd2d	553010134	1	main_z	7	main_z	151	stimuli_distractor_trianglediamonds.svg	stimuli_distractor_trianglediamonds.svg	34	no	0	1	2000
6.6.1	mac	2022-12-24	22:33:04	22:40:01	415489	5edf222d1b8bce1bdd61cd2d	553010134	1	main_z	7	advance_on_keypress_ZEE	152	stimuli_distractor_trianglediamonds.svg	stimuli_distractor_trianglediamonds.svg	34	no	57	0	532
6.6.1	mac	2022-12-24	22:33:04	22:40:04	418690	5edf222d1b8bce1bdd61cd2d	553010134	1	main_z	7	main_z	153	stimuli_distractor_trianglediamonds.svg	stimuli_distractor_trianglediamonds.svg	33	no	0	1	2000
6.6.1	mac	2022-12-24	22:33:04	22:40:04	418690	5edf222d1b8bce1bdd61cd2d	553010134	1	main_z	7	advance_on_keypress_ZEE	154	stimuli_distractor_trianglediamonds.svg	stimuli_distractor_trianglediamonds.svg	33	no	57	0	293
6.6.1	mac	2022-12-24	22:33:04	22:40:06	420434	5edf222d1b8bce1bdd61cd2d	553010134	1	main_z	7	main_z	155	stimuli_target_circletriangles.svg	stimuli_distractor_diamondtriangles.svg	5	yes	44	1	791
6.6.1	mac	2022-12-24	22:33:04	22:40:06	420434	5edf222d1b8bce1bdd61cd2d	553010134	1	main_z	7	advance_on_keypress_ZEE	156	stimuli_target_circletriangles.svg	stimuli_distractor_diamondtriangles.svg	5	yes	57	0	303
6.6.1	mac	2022-12-24	22:33:04	22:40:07	422222	5edf222d1b8bce1bdd61cd2d	553010134	1	main_z	7	main_z	157	stimuli_distractor_trianglediamonds.svg	stimuli_target_squarediamonds.svg	12	yes	44	1	827
6.6.1	mac	2022-12-24	22:33:04	22:40:07	422222	5edf222d1b8bce1bdd61cd2d	553010134	1	main_z	7	advance_on_keypress_ZEE	158	stimuli_distractor_trianglediamonds.svg	stimuli_target_squarediamonds.svg	12	yes	57	0	293
6.6.1	mac	2022-12-24	22:33:04	22:40:09	423677	5edf222d1b8bce1bdd61cd2d	553010134	1	main_z	7	main_z	159	stimuli_target_diamondcircles.svg	stimuli_distractor_diamondtriangles.svg	23	yes	44	1	535
6.6.1	mac	2022-12-24	22:33:04	22:40:09	423677	5edf222d1b8bce1bdd61cd2d	553010134	1	main_z	7	advance_on_keypress_ZEE	160	stimuli_target_diamondcircles.svg	stimuli_distractor_diamondtriangles.svg	23	yes	57	0	300
6.6.1	mac	2022-12-24	22:33:04	22:40:40	455172	5edf222d1b8bce1bdd61cd2d	553010134	1	practice_slash	9	practice_slash	1	stimuli_distractor_diamondtriangles.svg	stimuli_target_diamondcircles.svg	8	yes	53	1	0
6.6.1	mac	2022-12-24	22:33:04	22:40:40	455172	5edf222d1b8bce1bdd61cd2d	553010134	1	practice_slash	9	advance_on_keypress_SLASH	2	stimuli_distractor_diamondtriangles.svg	stimuli_target_diamondcircles.svg	8	yes	57	0	1278
6.6.1	mac	2022-12-24	22:33:04	22:40:44	458934	5edf222d1b8bce1bdd61cd2d	553010134	1	practice_slash	9	practice_slash	3	stimuli_distractor_diamondtriangles.svg	stimuli_target_trianglecircles.svg	9	yes	53	1	842
6.6.1	mac	2022-12-24	22:33:04	22:40:44	458934	5edf222d1b8bce1bdd61cd2d	553010134	1	practice_slash	9	advance_on_keypress_SLASH	4	stimuli_distractor_diamondtriangles.svg	stimuli_target_trianglecircles.svg	9	yes	57	0	415
6.6.1	mac	2022-12-24	22:33:04	22:40:47	461571	5edf222d1b8bce1bdd61cd2d	553010134	1	practice_slash	9	practice_slash	5	stimuli_target_squarediamonds.svg	stimuli_distractor_diamondtriangles.svg	2	yes	53	1	565
6.6.1	mac	2022-12-24	22:33:04	22:40:47	461571	5edf222d1b8bce1bdd61cd2d	553010134	1	practice_slash	9	advance_on_keypress_SLASH	6	stimuli_target_squarediamonds.svg	stimuli_distractor_diamondtriangles.svg	2	yes	57	0	517
6.6.1	mac	2022-12-24	22:33:04	22:40:49	464372	5edf222d1b8bce1bdd61cd2d	553010134	1	practice_slash	9	practice_slash	7	stimuli_distractor_trianglediamonds.svg	stimuli_target_squarediamonds.svg	11	yes	53	1	630
6.6.1	mac	2022-12-24	22:33:04	22:40:49	464372	5edf222d1b8bce1bdd61cd2d	553010134	1	practice_slash	9	advance_on_keypress_SLASH	8	stimuli_distractor_trianglediamonds.svg	stimuli_target_squarediamonds.svg	11	yes	57	0	376
6.6.1	mac	2022-12-24	22:33:04	22:40:54	468389	5edf222d1b8bce1bdd61cd2d	553010134	1	practice_slash	9	practice_slash	9	stimuli_distractor_diamondtriangles.svg	stimuli_distractor_diamondtriangles.svg	13	no	0	1	2000
6.6.1	mac	2022-12-24	22:33:04	22:40:54	468389	5edf222d1b8bce1bdd61cd2d	553010134	1	practice_slash	9	advance_on_keypress_SLASH	10	stimuli_distractor_diamondtriangles.svg	stimuli_distractor_diamondtriangles.svg	13	no	57	0	288
6.6.1	mac	2022-12-24	22:33:04	22:40:56	471023	5edf222d1b8bce1bdd61cd2d	553010134	1	practice_slash	9	practice_slash	11	stimuli_distractor_trianglediamonds.svg	stimuli_target_circlediamonds.svg	10	yes	53	1	671
6.6.1	mac	2022-12-24	22:33:04	22:40:56	471023	5edf222d1b8bce1bdd61cd2d	553010134	1	practice_slash	9	advance_on_keypress_SLASH	12	stimuli_distractor_trianglediamonds.svg	stimuli_target_circlediamonds.svg	10	yes	57	0	270
6.6.1	mac	2022-12-24	22:33:04	22:40:59	473636	5edf222d1b8bce1bdd61cd2d	553010134	1	practice_slash	9	practice_slash	13	stimuli_distractor_trianglediamonds.svg	stimuli_target_diamondcircles.svg	12	yes	53	1	695
6.6.1	mac	2022-12-24	22:33:04	22:40:59	473636	5edf222d1b8bce1bdd61cd2d	553010134	1	practice_slash	9	advance_on_keypress_SLASH	14	stimuli_distractor_trianglediamonds.svg	stimuli_target_diamondcircles.svg	12	yes	57	0	309
6.6.1	mac	2022-12-24	22:33:04	22:41:01	476274	5edf222d1b8bce1bdd61cd2d	553010134	1	practice_slash	9	practice_slash	15	stimuli_target_diamondsquares.svg	stimuli_distractor_trianglediamonds.svg	6	yes	53	1	682
6.6.1	mac	2022-12-24	22:33:04	22:41:01	476274	5edf222d1b8bce1bdd61cd2d	553010134	1	practice_slash	9	advance_on_keypress_SLASH	16	stimuli_target_diamondsquares.svg	stimuli_distractor_trianglediamonds.svg	6	yes	57	0	253
6.6.1	mac	2022-12-24	22:33:04	22:41:04	479221	5edf222d1b8bce1bdd61cd2d	553010134	1	practice_slash	9	practice_slash	17	stimuli_target_squarediamonds.svg	stimuli_distractor_trianglediamonds.svg	5	yes	53	1	1029
6.6.1	mac	2022-12-24	22:33:04	22:41:04	479221	5edf222d1b8bce1bdd61cd2d	553010134	1	practice_slash	9	advance_on_keypress_SLASH	18	stimuli_target_squarediamonds.svg	stimuli_distractor_trianglediamonds.svg	5	yes	57	0	305
6.6.1	mac	2022-12-24	22:33:04	22:41:07	481923	5edf222d1b8bce1bdd61cd2d	553010134	1	practice_slash	9	practice_slash	19	stimuli_target_diamondsquares.svg	stimuli_distractor_diamondtriangles.svg	3	yes	53	1	703
6.6.1	mac	2022-12-24	22:33:04	22:41:07	481923	5edf222d1b8bce1bdd61cd2d	553010134	1	practice_slash	9	advance_on_keypress_SLASH	20	stimuli_target_diamondsquares.svg	stimuli_distractor_diamondtriangles.svg	3	yes	57	0	465
6.6.1	mac	2022-12-24	22:33:04	22:41:10	484687	5edf222d1b8bce1bdd61cd2d	553010134	1	practice_slash	9	practice_slash	21	stimuli_distractor_diamondtriangles.svg	stimuli_target_circletriangles.svg	7	yes	53	1	645
6.6.1	mac	2022-12-24	22:33:04	22:41:10	484687	5edf222d1b8bce1bdd61cd2d	553010134	1	practice_slash	9	advance_on_keypress_SLASH	22	stimuli_distractor_diamondtriangles.svg	stimuli_target_circletriangles.svg	7	yes	57	0	289
6.6.1	mac	2022-12-24	22:33:04	22:41:14	488638	5edf222d1b8bce1bdd61cd2d	553010134	1	practice_slash	9	practice_slash	23	stimuli_distractor_trianglediamonds.svg	stimuli_distractor_trianglediamonds.svg	15	no	0	1	2000
6.6.1	mac	2022-12-24	22:33:04	22:41:14	488638	5edf222d1b8bce1bdd61cd2d	553010134	1	practice_slash	9	advance_on_keypress_SLASH	24	stimuli_distractor_trianglediamonds.svg	stimuli_distractor_trianglediamonds.svg	15	no	57	0	347
6.6.1	mac	2022-12-24	22:33:04	22:41:18	492637	5edf222d1b8bce1bdd61cd2d	553010134	1	practice_slash	9	practice_slash	25	stimuli_distractor_trianglediamonds.svg	stimuli_distractor_diamondtriangles.svg	16	no	0	1	2000
6.6.1	mac	2022-12-24	22:33:04	22:41:18	492637	5edf222d1b8bce1bdd61cd2d	553010134	1	practice_slash	9	advance_on_keypress_SLASH	26	stimuli_distractor_trianglediamonds.svg	stimuli_distractor_diamondtriangles.svg	16	no	57	0	325
6.6.1	mac	2022-12-24	22:33:04	22:41:20	495321	5edf222d1b8bce1bdd61cd2d	553010134	1	practice_slash	9	practice_slash	27	stimuli_target_circlediamonds.svg	stimuli_distractor_diamondtriangles.svg	1	yes	53	1	706
6.6.1	mac	2022-12-24	22:33:04	22:41:20	495321	5edf222d1b8bce1bdd61cd2d	553010134	1	practice_slash	9	advance_on_keypress_SLASH	28	stimuli_target_circlediamonds.svg	stimuli_distractor_diamondtriangles.svg	1	yes	57	0	415
6.6.1	mac	2022-12-24	22:33:04	22:41:23	498073	5edf222d1b8bce1bdd61cd2d	553010134	1	practice_slash	9	practice_slash	29	stimuli_target_circlediamonds.svg	stimuli_distractor_trianglediamonds.svg	4	yes	53	1	682
6.6.1	mac	2022-12-24	22:33:04	22:41:23	498073	5edf222d1b8bce1bdd61cd2d	553010134	1	practice_slash	9	advance_on_keypress_SLASH	30	stimuli_target_circlediamonds.svg	stimuli_distractor_trianglediamonds.svg	4	yes	57	0	557
6.6.1	mac	2022-12-24	22:33:04	22:41:27	502287	5edf222d1b8bce1bdd61cd2d	553010134	1	practice_slash	9	practice_slash	31	stimuli_distractor_diamondtriangles.svg	stimuli_distractor_trianglediamonds.svg	14	no	0	1	2000
6.6.1	mac	2022-12-24	22:33:04	22:41:27	502287	5edf222d1b8bce1bdd61cd2d	553010134	1	practice_slash	9	advance_on_keypress_SLASH	32	stimuli_distractor_diamondtriangles.svg	stimuli_distractor_trianglediamonds.svg	14	no	57	0	323
6.6.1	mac	2022-12-24	22:33:04	22:41:33	508322	5edf222d1b8bce1bdd61cd2d	553010134	1	main_slash	11	main_slash	1	stimuli_target_circletriangles.svg	stimuli_distractor_trianglediamonds.svg	1	yes	53	1	481
6.6.1	mac	2022-12-24	22:33:04	22:41:33	508322	5edf222d1b8bce1bdd61cd2d	553010134	1	main_slash	11	advance_on_keypress_SLASH	2	stimuli_target_circletriangles.svg	stimuli_distractor_trianglediamonds.svg	1	yes	57	0	407
6.6.1	mac	2022-12-24	22:33:04	22:41:35	509976	5edf222d1b8bce1bdd61cd2d	553010134	1	main_slash	11	main_slash	3	stimuli_distractor_trianglediamonds.svg	stimuli_target_circlediamonds.svg	10	yes	53	1	585
6.6.1	mac	2022-12-24	22:33:04	22:41:35	509976	5edf222d1b8bce1bdd61cd2d	553010134	1	main_slash	11	advance_on_keypress_SLASH	4	stimuli_distractor_trianglediamonds.svg	stimuli_target_circlediamonds.svg	10	yes	57	0	505
6.6.1	mac	2022-12-24	22:33:04	22:41:38	513137	5edf222d1b8bce1bdd61cd2d	553010134	1	main_slash	11	main_slash	5	stimuli_distractor_trianglediamonds.svg	stimuli_distractor_diamondtriangles.svg	36	no	0	1	2000
6.6.1	mac	2022-12-24	22:33:04	22:41:38	513137	5edf222d1b8bce1bdd61cd2d	553010134	1	main_slash	11	advance_on_keypress_SLASH	6	stimuli_distractor_trianglediamonds.svg	stimuli_distractor_diamondtriangles.svg	36	no	57	0	321
6.6.1	mac	2022-12-24	22:33:04	22:41:40	514521	5edf222d1b8bce1bdd61cd2d	553010134	1	main_slash	11	main_slash	7	stimuli_target_circlediamonds.svg	stimuli_distractor_diamondtriangles.svg	6	yes	53	1	428
6.6.1	mac	2022-12-24	22:33:04	22:41:40	514521	5edf222d1b8bce1bdd61cd2d	553010134	1	main_slash	11	advance_on_keypress_SLASH	8	stimuli_target_circlediamonds.svg	stimuli_distractor_diamondtriangles.svg	6	yes	57	0	456
6.6.1	mac	2022-12-24	22:33:04	22:41:42	516473	5edf222d1b8bce1bdd61cd2d	553010134	1	main_slash	11	main_slash	9	stimuli_distractor_trianglediamonds.svg	stimuli_target_diamondcircles.svg	27	yes	53	1	808
6.6.1	mac	2022-12-24	22:33:04	22:41:42	516473	5edf222d1b8bce1bdd61cd2d	553010134	1	main_slash	11	advance_on_keypress_SLASH	10	stimuli_distractor_trianglediamonds.svg	stimuli_target_diamondcircles.svg	27	yes	57	0	364
6.6.1	mac	2022-12-24	22:33:04	22:41:43	518173	5edf222d1b8bce1bdd61cd2d	553010134	1	main_slash	11	main_slash	11	stimuli_target_trianglecircles.svg	stimuli_distractor_diamondtriangles.svg	21	yes	53	1	658
6.6.1	mac	2022-12-24	22:33:04	22:41:43	518173	5edf222d1b8bce1bdd61cd2d	553010134	1	main_slash	11	advance_on_keypress_SLASH	12	stimuli_target_trianglecircles.svg	stimuli_distractor_diamondtriangles.svg	21	yes	57	0	388
6.6.1	mac	2022-12-24	22:33:04	22:41:45	519822	5edf222d1b8bce1bdd61cd2d	553010134	1	main_slash	11	main_slash	13	stimuli_distractor_trianglediamonds.svg	stimuli_target_trianglesquares.svg	26	yes	53	1	628
6.6.1	mac	2022-12-24	22:33:04	22:41:45	519822	5edf222d1b8bce1bdd61cd2d	553010134	1	main_slash	11	advance_on_keypress_SLASH	14	stimuli_distractor_trianglediamonds.svg	stimuli_target_trianglesquares.svg	26	yes	57	0	352
6.6.1	mac	2022-12-24	22:33:04	22:41:47	521822	5edf222d1b8bce1bdd61cd2d	553010134	1	main_slash	11	main_slash	15	stimuli_target_squaretriangles.svg	stimuli_distractor_trianglediamonds.svg	3	yes	53	1	980
6.6.1	mac	2022-12-24	22:33:04	22:41:47	521822	5edf222d1b8bce1bdd61cd2d	553010134	1	main_slash	11	advance_on_keypress_SLASH	16	stimuli_target_squaretriangles.svg	stimuli_distractor_trianglediamonds.svg	3	yes	57	0	512
6.6.1	mac	2022-12-24	22:33:04	22:41:49	523822	5edf222d1b8bce1bdd61cd2d	553010134	1	main_slash	11	main_slash	17	stimuli_distractor_diamondtriangles.svg	stimuli_target_diamondsquares.svg	32	yes	53	1	823
6.6.1	mac	2022-12-24	22:33:04	22:41:49	523822	5edf222d1b8bce1bdd61cd2d	553010134	1	main_slash	11	advance_on_keypress_SLASH	18	stimuli_distractor_diamondtriangles.svg	stimuli_target_diamondsquares.svg	32	yes	57	0	363
6.6.1	mac	2022-12-24	22:33:04	22:41:51	525578	5edf222d1b8bce1bdd61cd2d	553010134	1	main_slash	11	main_slash	19	stimuli_target_diamondsquares.svg	stimuli_distractor_trianglediamonds.svg	20	yes	53	1	739
6.6.1	mac	2022-12-24	22:33:04	22:41:51	525578	5edf222d1b8bce1bdd61cd2d	553010134	1	main_slash	11	advance_on_keypress_SLASH	20	stimuli_target_diamondsquares.svg	stimuli_distractor_trianglediamonds.svg	20	yes	57	0	413
6.6.1	mac	2022-12-24	22:33:04	22:41:52	527283	5edf222d1b8bce1bdd61cd2d	553010134	1	main_slash	11	main_slash	21	stimuli_target_trianglecircles.svg	stimuli_distractor_trianglediamonds.svg	17	yes	53	1	644
6.6.1	mac	2022-12-24	22:33:04	22:41:52	527283	5edf222d1b8bce1bdd61cd2d	553010134	1	main_slash	11	advance_on_keypress_SLASH	22	stimuli_target_trianglecircles.svg	stimuli_distractor_trianglediamonds.svg	17	yes	57	0	496
6.6.1	mac	2022-12-24	22:33:04	22:41:54	529279	5edf222d1b8bce1bdd61cd2d	553010134	1	main_slash	11	main_slash	23	stimuli_distractor_trianglediamonds.svg	stimuli_target_diamondsquares.svg	28	yes	53	1	873
6.6.1	mac	2022-12-24	22:33:04	22:41:54	529279	5edf222d1b8bce1bdd61cd2d	553010134	1	main_slash	11	advance_on_keypress_SLASH	24	stimuli_distractor_trianglediamonds.svg	stimuli_target_diamondsquares.svg	28	yes	57	0	434
6.6.1	mac	2022-12-24	22:33:04	22:41:56	531073	5edf222d1b8bce1bdd61cd2d	553010134	1	main_slash	11	main_slash	25	stimuli_distractor_diamondtriangles.svg	stimuli_target_circletriangles.svg	13	yes	53	1	725
6.6.1	mac	2022-12-24	22:33:04	22:41:56	531073	5edf222d1b8bce1bdd61cd2d	553010134	1	main_slash	11	advance_on_keypress_SLASH	26	stimuli_distractor_diamondtriangles.svg	stimuli_target_circletriangles.svg	13	yes	57	0	369
6.6.1	mac	2022-12-24	22:33:04	22:41:58	533022	5edf222d1b8bce1bdd61cd2d	553010134	1	main_slash	11	main_slash	27	stimuli_target_squarediamonds.svg	stimuli_distractor_trianglediamonds.svg	4	yes	53	1	906
6.6.1	mac	2022-12-24	22:33:04	22:41:58	533022	5edf222d1b8bce1bdd61cd2d	553010134	1	main_slash	11	advance_on_keypress_SLASH	28	stimuli_target_squarediamonds.svg	stimuli_distractor_trianglediamonds.svg	4	yes	57	0	424
6.6.1	mac	2022-12-24	22:33:04	22:42:00	534871	5edf222d1b8bce1bdd61cd2d	553010134	1	main_slash	11	main_slash	29	stimuli_target_diamondcircles.svg	stimuli_distractor_trianglediamonds.svg	19	yes	53	1	754
6.6.1	mac	2022-12-24	22:33:04	22:42:00	534871	5edf222d1b8bce1bdd61cd2d	553010134	1	main_slash	11	advance_on_keypress_SLASH	30	stimuli_target_diamondcircles.svg	stimuli_distractor_trianglediamonds.svg	19	yes	57	0	735
6.6.1	mac	2022-12-24	22:33:04	22:42:02	536987	5edf222d1b8bce1bdd61cd2d	553010134	1	main_slash	11	main_slash	31	stimuli_target_trianglesquares.svg	stimuli_distractor_trianglediamonds.svg	18	yes	53	1	748
6.6.1	mac	2022-12-24	22:33:04	22:42:02	536987	5edf222d1b8bce1bdd61cd2d	553010134	1	main_slash	11	advance_on_keypress_SLASH	32	stimuli_target_trianglesquares.svg	stimuli_distractor_trianglediamonds.svg	18	yes	57	0	1370
6.6.1	mac	2022-12-24	22:33:04	22:42:05	539922	5edf222d1b8bce1bdd61cd2d	553010134	1	main_slash	11	main_slash	33	stimuli_distractor_trianglediamonds.svg	stimuli_target_squaretriangles.svg	11	yes	53	1	922
6.6.1	mac	2022-12-24	22:33:04	22:42:05	539922	5edf222d1b8bce1bdd61cd2d	553010134	1	main_slash	11	advance_on_keypress_SLASH	34	stimuli_distractor_trianglediamonds.svg	stimuli_target_squaretriangles.svg	11	yes	57	0	1554
6.6.1	mac	2022-12-24	22:33:04	22:42:08	543029	5edf222d1b8bce1bdd61cd2d	553010134	1	main_slash	11	main_slash	35	stimuli_distractor_trianglediamonds.svg	stimuli_distractor_trianglediamonds.svg	33	no	53	0	889
6.6.1	mac	2022-12-24	22:33:04	22:42:08	543029	5edf222d1b8bce1bdd61cd2d	553010134	1	main_slash	11	advance_on_keypress_SLASH	36	stimuli_distractor_trianglediamonds.svg	stimuli_distractor_trianglediamonds.svg	33	no	57	0	617
6.6.1	mac	2022-12-24	22:33:04	22:42:11	546286	5edf222d1b8bce1bdd61cd2d	553010134	1	main_slash	11	main_slash	37	stimuli_distractor_trianglediamonds.svg	stimuli_distractor_trianglediamonds.svg	34	no	0	1	2000
6.6.1	mac	2022-12-24	22:33:04	22:42:11	546286	5edf222d1b8bce1bdd61cd2d	553010134	1	main_slash	11	advance_on_keypress_SLASH	38	stimuli_distractor_trianglediamonds.svg	stimuli_distractor_trianglediamonds.svg	34	no	57	0	256
6.6.1	mac	2022-12-24	22:33:04	22:42:14	549186	5edf222d1b8bce1bdd61cd2d	553010134	1	main_slash	11	main_slash	39	stimuli_distractor_diamondtriangles.svg	stimuli_distractor_trianglediamonds.svg	38	no	0	1	2000
6.6.1	mac	2022-12-24	22:33:04	22:42:14	549186	5edf222d1b8bce1bdd61cd2d	553010134	1	main_slash	11	advance_on_keypress_SLASH	40	stimuli_distractor_diamondtriangles.svg	stimuli_distractor_trianglediamonds.svg	38	no	57	0	299
6.6.1	mac	2022-12-24	22:33:04	22:42:17	552136	5edf222d1b8bce1bdd61cd2d	553010134	1	main_slash	11	main_slash	41	stimuli_distractor_diamondtriangles.svg	stimuli_distractor_trianglediamonds.svg	37	no	0	1	2000
6.6.1	mac	2022-12-24	22:33:04	22:42:17	552136	5edf222d1b8bce1bdd61cd2d	553010134	1	main_slash	11	advance_on_keypress_SLASH	42	stimuli_distractor_diamondtriangles.svg	stimuli_distractor_trianglediamonds.svg	37	no	57	0	400
6.6.1	mac	2022-12-24	22:33:04	22:42:19	553922	5edf222d1b8bce1bdd61cd2d	553010134	1	main_slash	11	main_slash	43	stimuli_target_diamondsquares.svg	stimuli_distractor_diamondtriangles.svg	24	yes	53	1	718
6.6.1	mac	2022-12-24	22:33:04	22:42:19	553922	5edf222d1b8bce1bdd61cd2d	553010134	1	main_slash	11	advance_on_keypress_SLASH	44	stimuli_target_diamondsquares.svg	stimuli_distractor_diamondtriangles.svg	24	yes	57	0	382
6.6.1	mac	2022-12-24	22:33:04	22:42:21	555622	5edf222d1b8bce1bdd61cd2d	553010134	1	main_slash	11	main_slash	45	stimuli_distractor_diamondtriangles.svg	stimuli_target_trianglesquares.svg	30	yes	53	1	684
6.6.1	mac	2022-12-24	22:33:04	22:42:21	555622	5edf222d1b8bce1bdd61cd2d	553010134	1	main_slash	11	advance_on_keypress_SLASH	46	stimuli_distractor_diamondtriangles.svg	stimuli_target_trianglesquares.svg	30	yes	57	0	398
6.6.1	mac	2022-12-24	22:33:04	22:42:23	557487	5edf222d1b8bce1bdd61cd2d	553010134	1	main_slash	11	main_slash	47	stimuli_distractor_diamondtriangles.svg	stimuli_target_trianglecircles.svg	29	yes	53	1	831
6.6.1	mac	2022-12-24	22:33:04	22:42:23	557487	5edf222d1b8bce1bdd61cd2d	553010134	1	main_slash	11	advance_on_keypress_SLASH	48	stimuli_distractor_diamondtriangles.svg	stimuli_target_trianglecircles.svg	29	yes	57	0	681
6.6.1	mac	2022-12-24	22:33:04	22:42:25	559772	5edf222d1b8bce1bdd61cd2d	553010134	1	main_slash	11	main_slash	49	stimuli_distractor_trianglediamonds.svg	stimuli_target_circletriangles.svg	9	yes	53	1	960
6.6.1	mac	2022-12-24	22:33:04	22:42:25	559772	5edf222d1b8bce1bdd61cd2d	553010134	1	main_slash	11	advance_on_keypress_SLASH	50	stimuli_distractor_trianglediamonds.svg	stimuli_target_circletriangles.svg	9	yes	57	0	1111
6.6.1	mac	2022-12-24	22:33:04	22:42:28	562482	5edf222d1b8bce1bdd61cd2d	553010134	1	main_slash	11	main_slash	51	stimuli_distractor_diamondtriangles.svg	stimuli_distractor_diamondtriangles.svg	40	no	53	0	945
6.6.1	mac	2022-12-24	22:33:04	22:42:28	562482	5edf222d1b8bce1bdd61cd2d	553010134	1	main_slash	11	advance_on_keypress_SLASH	52	stimuli_distractor_diamondtriangles.svg	stimuli_distractor_diamondtriangles.svg	40	no	57	0	420
6.6.1	mac	2022-12-24	22:33:04	22:42:30	564428	5edf222d1b8bce1bdd61cd2d	553010134	1	main_slash	11	main_slash	53	stimuli_target_circletriangles.svg	stimuli_distractor_diamondtriangles.svg	5	yes	53	1	890
6.6.1	mac	2022-12-24	22:33:04	22:42:30	564428	5edf222d1b8bce1bdd61cd2d	553010134	1	main_slash	11	advance_on_keypress_SLASH	54	stimuli_target_circletriangles.svg	stimuli_distractor_diamondtriangles.svg	5	yes	57	0	572
6.6.1	mac	2022-12-24	22:33:04	22:42:32	566473	5edf222d1b8bce1bdd61cd2d	553010134	1	main_slash	11	main_slash	55	stimuli_target_squarediamonds.svg	stimuli_distractor_diamondtriangles.svg	8	yes	53	1	790
6.6.1	mac	2022-12-24	22:33:04	22:42:32	566473	5edf222d1b8bce1bdd61cd2d	553010134	1	main_slash	11	advance_on_keypress_SLASH	56	stimuli_target_squarediamonds.svg	stimuli_distractor_diamondtriangles.svg	8	yes	57	0	336
6.6.1	mac	2022-12-24	22:33:04	22:42:34	568479	5edf222d1b8bce1bdd61cd2d	553010134	1	main_slash	11	main_slash	57	stimuli_target_circlediamonds.svg	stimuli_distractor_trianglediamonds.svg	2	yes	53	1	1042
6.6.1	mac	2022-12-24	22:33:04	22:42:34	568479	5edf222d1b8bce1bdd61cd2d	553010134	1	main_slash	11	advance_on_keypress_SLASH	58	stimuli_target_circlediamonds.svg	stimuli_distractor_trianglediamonds.svg	2	yes	57	0	352
6.6.1	mac	2022-12-24	22:33:04	22:42:37	571486	5edf222d1b8bce1bdd61cd2d	553010134	1	main_slash	11	main_slash	59	stimuli_distractor_diamondtriangles.svg	stimuli_distractor_diamondtriangles.svg	39	no	0	1	2000
6.6.1	mac	2022-12-24	22:33:04	22:42:37	571486	5edf222d1b8bce1bdd61cd2d	553010134	1	main_slash	11	advance_on_keypress_SLASH	60	stimuli_distractor_diamondtriangles.svg	stimuli_distractor_diamondtriangles.svg	39	no	57	0	562
6.6.1	mac	2022-12-24	22:33:04	22:42:40	574686	5edf222d1b8bce1bdd61cd2d	553010134	1	main_slash	11	main_slash	61	stimuli_distractor_trianglediamonds.svg	stimuli_distractor_diamondtriangles.svg	35	no	0	1	2000
6.6.1	mac	2022-12-24	22:33:04	22:42:40	574686	5edf222d1b8bce1bdd61cd2d	553010134	1	main_slash	11	advance_on_keypress_SLASH	62	stimuli_distractor_trianglediamonds.svg	stimuli_distractor_diamondtriangles.svg	35	no	57	0	239
6.6.1	mac	2022-12-24	22:33:04	22:42:42	576386	5edf222d1b8bce1bdd61cd2d	553010134	1	main_slash	11	main_slash	63	stimuli_distractor_trianglediamonds.svg	stimuli_target_squarediamonds.svg	12	yes	53	1	798
6.6.1	mac	2022-12-24	22:33:04	22:42:42	576386	5edf222d1b8bce1bdd61cd2d	553010134	1	main_slash	11	advance_on_keypress_SLASH	64	stimuli_distractor_trianglediamonds.svg	stimuli_target_squarediamonds.svg	12	yes	57	0	297
6.6.1	mac	2022-12-24	22:33:04	22:42:43	577981	5edf222d1b8bce1bdd61cd2d	553010134	1	main_slash	11	main_slash	65	stimuli_distractor_trianglediamonds.svg	stimuli_target_trianglecircles.svg	25	yes	53	1	643
6.6.1	mac	2022-12-24	22:33:04	22:42:43	577981	5edf222d1b8bce1bdd61cd2d	553010134	1	main_slash	11	advance_on_keypress_SLASH	66	stimuli_distractor_trianglediamonds.svg	stimuli_target_trianglecircles.svg	25	yes	57	0	385
6.6.1	mac	2022-12-24	22:33:04	22:42:45	579772	5edf222d1b8bce1bdd61cd2d	553010134	1	main_slash	11	main_slash	67	stimuli_distractor_diamondtriangles.svg	stimuli_target_squarediamonds.svg	16	yes	53	1	761
6.6.1	mac	2022-12-24	22:33:04	22:42:45	579772	5edf222d1b8bce1bdd61cd2d	553010134	1	main_slash	11	advance_on_keypress_SLASH	68	stimuli_distractor_diamondtriangles.svg	stimuli_target_squarediamonds.svg	16	yes	57	0	279
6.6.1	mac	2022-12-24	22:33:04	22:42:47	581486	5edf222d1b8bce1bdd61cd2d	553010134	1	main_slash	11	main_slash	69	stimuli_distractor_diamondtriangles.svg	stimuli_target_squaretriangles.svg	15	yes	53	1	798
6.6.1	mac	2022-12-24	22:33:04	22:42:47	581486	5edf222d1b8bce1bdd61cd2d	553010134	1	main_slash	11	advance_on_keypress_SLASH	70	stimuli_distractor_diamondtriangles.svg	stimuli_target_squaretriangles.svg	15	yes	57	0	317
6.6.1	mac	2022-12-24	22:33:04	22:42:48	583171	5edf222d1b8bce1bdd61cd2d	553010134	1	main_slash	11	main_slash	71	stimuli_target_trianglesquares.svg	stimuli_distractor_diamondtriangles.svg	22	yes	53	1	710
6.6.1	mac	2022-12-24	22:33:04	22:42:48	583171	5edf222d1b8bce1bdd61cd2d	553010134	1	main_slash	11	advance_on_keypress_SLASH	72	stimuli_target_trianglesquares.svg	stimuli_distractor_diamondtriangles.svg	22	yes	57	0	251
6.6.1	mac	2022-12-24	22:33:04	22:42:50	584773	5edf222d1b8bce1bdd61cd2d	553010134	1	main_slash	11	main_slash	73	stimuli_distractor_diamondtriangles.svg	stimuli_target_circlediamonds.svg	14	yes	53	1	664
6.6.1	mac	2022-12-24	22:33:04	22:42:50	584773	5edf222d1b8bce1bdd61cd2d	553010134	1	main_slash	11	advance_on_keypress_SLASH	74	stimuli_distractor_diamondtriangles.svg	stimuli_target_circlediamonds.svg	14	yes	57	0	331
6.6.1	mac	2022-12-24	22:33:04	22:42:52	586429	5edf222d1b8bce1bdd61cd2d	553010134	1	main_slash	11	main_slash	75	stimuli_target_diamondcircles.svg	stimuli_distractor_diamondtriangles.svg	23	yes	53	1	691
6.6.1	mac	2022-12-24	22:33:04	22:42:52	586429	5edf222d1b8bce1bdd61cd2d	553010134	1	main_slash	11	advance_on_keypress_SLASH	76	stimuli_target_diamondcircles.svg	stimuli_distractor_diamondtriangles.svg	23	yes	57	0	350
6.6.1	mac	2022-12-24	22:33:04	22:42:53	588071	5edf222d1b8bce1bdd61cd2d	553010134	1	main_slash	11	main_slash	77	stimuli_target_squaretriangles.svg	stimuli_distractor_diamondtriangles.svg	7	yes	53	1	657
6.6.1	mac	2022-12-24	22:33:04	22:42:53	588071	5edf222d1b8bce1bdd61cd2d	553010134	1	main_slash	11	advance_on_keypress_SLASH	78	stimuli_target_squaretriangles.svg	stimuli_distractor_diamondtriangles.svg	7	yes	57	0	347
6.6.1	mac	2022-12-24	22:33:04	22:42:55	589881	5edf222d1b8bce1bdd61cd2d	553010134	1	main_slash	11	main_slash	79	stimuli_distractor_diamondtriangles.svg	stimuli_target_diamondcircles.svg	31	yes	53	1	827
6.6.1	mac	2022-12-24	22:33:04	22:42:55	589881	5edf222d1b8bce1bdd61cd2d	553010134	1	main_slash	11	advance_on_keypress_SLASH	80	stimuli_distractor_diamondtriangles.svg	stimuli_target_diamondcircles.svg	31	yes	57	0	307
6.6.1	mac	2022-12-24	22:33:04	22:42:58	592835	5edf222d1b8bce1bdd61cd2d	553010134	1	main_slash	11	main_slash	81	stimuli_distractor_diamondtriangles.svg	stimuli_distractor_diamondtriangles.svg	39	no	0	1	2000
6.6.1	mac	2022-12-24	22:33:04	22:42:58	592835	5edf222d1b8bce1bdd61cd2d	553010134	1	main_slash	11	advance_on_keypress_SLASH	82	stimuli_distractor_diamondtriangles.svg	stimuli_distractor_diamondtriangles.svg	39	no	57	0	251
6.6.1	mac	2022-12-24	22:33:04	22:43:00	594422	5edf222d1b8bce1bdd61cd2d	553010134	1	main_slash	11	main_slash	83	stimuli_target_trianglesquares.svg	stimuli_distractor_diamondtriangles.svg	22	yes	53	1	655
6.6.1	mac	2022-12-24	22:33:04	22:43:00	594422	5edf222d1b8bce1bdd61cd2d	553010134	1	main_slash	11	advance_on_keypress_SLASH	84	stimuli_target_trianglesquares.svg	stimuli_distractor_diamondtriangles.svg	22	yes	57	0	317
6.6.1	mac	2022-12-24	22:33:04	22:43:01	596223	5edf222d1b8bce1bdd61cd2d	553010134	1	main_slash	11	main_slash	85	stimuli_distractor_trianglediamonds.svg	stimuli_target_trianglesquares.svg	26	yes	53	1	815
6.6.1	mac	2022-12-24	22:33:04	22:43:01	596223	5edf222d1b8bce1bdd61cd2d	553010134	1	main_slash	11	advance_on_keypress_SLASH	86	stimuli_distractor_trianglediamonds.svg	stimuli_target_trianglesquares.svg	26	yes	57	0	398
6.6.1	mac	2022-12-24	22:33:04	22:43:03	598172	5edf222d1b8bce1bdd61cd2d	553010134	1	main_slash	11	main_slash	87	stimuli_distractor_diamondtriangles.svg	stimuli_target_trianglesquares.svg	30	yes	53	1	901
6.6.1	mac	2022-12-24	22:33:04	22:43:03	598172	5edf222d1b8bce1bdd61cd2d	553010134	1	main_slash	11	advance_on_keypress_SLASH	88	stimuli_distractor_diamondtriangles.svg	stimuli_target_trianglesquares.svg	30	yes	57	0	260
6.6.1	mac	2022-12-24	22:33:04	22:43:06	601085	5edf222d1b8bce1bdd61cd2d	553010134	1	main_slash	11	main_slash	89	stimuli_target_squaretriangles.svg	stimuli_distractor_trianglediamonds.svg	3	yes	0	0	2000
6.6.1	mac	2022-12-24	22:33:04	22:43:06	601085	5edf222d1b8bce1bdd61cd2d	553010134	1	main_slash	11	advance_on_keypress_SLASH	90	stimuli_target_squaretriangles.svg	stimuli_distractor_trianglediamonds.svg	3	yes	57	0	397
6.6.1	mac	2022-12-24	22:33:04	22:43:08	602827	5edf222d1b8bce1bdd61cd2d	553010134	1	main_slash	11	main_slash	91	stimuli_distractor_diamondtriangles.svg	stimuli_target_circlediamonds.svg	14	yes	53	1	689
6.6.1	mac	2022-12-24	22:33:04	22:43:08	602827	5edf222d1b8bce1bdd61cd2d	553010134	1	main_slash	11	advance_on_keypress_SLASH	92	stimuli_distractor_diamondtriangles.svg	stimuli_target_circlediamonds.svg	14	yes	57	0	324
6.6.1	mac	2022-12-24	22:33:04	22:43:11	605785	5edf222d1b8bce1bdd61cd2d	553010134	1	main_slash	11	main_slash	93	stimuli_distractor_trianglediamonds.svg	stimuli_distractor_diamondtriangles.svg	36	no	0	1	2000
6.6.1	mac	2022-12-24	22:33:04	22:43:11	605785	5edf222d1b8bce1bdd61cd2d	553010134	1	main_slash	11	advance_on_keypress_SLASH	94	stimuli_distractor_trianglediamonds.svg	stimuli_distractor_diamondtriangles.svg	36	no	57	0	300
6.6.1	mac	2022-12-24	22:33:04	22:43:13	607423	5edf222d1b8bce1bdd61cd2d	553010134	1	main_slash	11	main_slash	95	stimuli_target_trianglesquares.svg	stimuli_distractor_trianglediamonds.svg	18	yes	53	1	665
6.6.1	mac	2022-12-24	22:33:04	22:43:13	607423	5edf222d1b8bce1bdd61cd2d	553010134	1	main_slash	11	advance_on_keypress_SLASH	96	stimuli_target_trianglesquares.svg	stimuli_distractor_trianglediamonds.svg	18	yes	57	0	316
6.6.1	mac	2022-12-24	22:33:04	22:43:14	609187	5edf222d1b8bce1bdd61cd2d	553010134	1	main_slash	11	main_slash	97	stimuli_target_trianglecircles.svg	stimuli_distractor_trianglediamonds.svg	17	yes	53	1	800
6.6.1	mac	2022-12-24	22:33:04	22:43:14	609187	5edf222d1b8bce1bdd61cd2d	553010134	1	main_slash	11	advance_on_keypress_SLASH	98	stimuli_target_trianglecircles.svg	stimuli_distractor_trianglediamonds.svg	17	yes	57	0	310
6.6.1	mac	2022-12-24	22:33:04	22:43:16	610972	5edf222d1b8bce1bdd61cd2d	553010134	1	main_slash	11	main_slash	99	stimuli_target_circlediamonds.svg	stimuli_distractor_diamondtriangles.svg	6	yes	53	1	804
6.6.1	mac	2022-12-24	22:33:04	22:43:16	610972	5edf222d1b8bce1bdd61cd2d	553010134	1	main_slash	11	advance_on_keypress_SLASH	100	stimuli_target_circlediamonds.svg	stimuli_distractor_diamondtriangles.svg	6	yes	57	0	287
6.6.1	mac	2022-12-24	22:33:04	22:43:18	612722	5edf222d1b8bce1bdd61cd2d	553010134	1	main_slash	11	main_slash	101	stimuli_distractor_trianglediamonds.svg	stimuli_target_squarediamonds.svg	12	yes	53	1	832
6.6.1	mac	2022-12-24	22:33:04	22:43:18	612722	5edf222d1b8bce1bdd61cd2d	553010134	1	main_slash	11	advance_on_keypress_SLASH	102	stimuli_distractor_trianglediamonds.svg	stimuli_target_squarediamonds.svg	12	yes	57	0	352
6.6.1	mac	2022-12-24	22:33:04	22:43:21	615734	5edf222d1b8bce1bdd61cd2d	553010134	1	main_slash	11	main_slash	103	stimuli_distractor_trianglediamonds.svg	stimuli_target_diamondsquares.svg	28	yes	0	0	2000
6.6.1	mac	2022-12-24	22:33:04	22:43:21	615734	5edf222d1b8bce1bdd61cd2d	553010134	1	main_slash	11	advance_on_keypress_SLASH	104	stimuli_distractor_trianglediamonds.svg	stimuli_target_diamondsquares.svg	28	yes	57	0	352
6.6.1	mac	2022-12-24	22:33:04	22:43:23	617530	5edf222d1b8bce1bdd61cd2d	553010134	1	main_slash	11	main_slash	105	stimuli_distractor_diamondtriangles.svg	stimuli_target_squaretriangles.svg	15	yes	53	1	793
6.6.1	mac	2022-12-24	22:33:04	22:43:23	617530	5edf222d1b8bce1bdd61cd2d	553010134	1	main_slash	11	advance_on_keypress_SLASH	106	stimuli_distractor_diamondtriangles.svg	stimuli_target_squaretriangles.svg	15	yes	57	0	322
6.6.1	mac	2022-12-24	22:33:04	22:43:25	619438	5edf222d1b8bce1bdd61cd2d	553010134	1	main_slash	11	main_slash	107	stimuli_distractor_trianglediamonds.svg	stimuli_target_squaretriangles.svg	11	yes	53	1	951
6.6.1	mac	2022-12-24	22:33:04	22:43:25	619438	5edf222d1b8bce1bdd61cd2d	553010134	1	main_slash	11	advance_on_keypress_SLASH	108	stimuli_distractor_trianglediamonds.svg	stimuli_target_squaretriangles.svg	11	yes	57	0	265
6.6.1	mac	2022-12-24	22:33:04	22:43:27	621421	5edf222d1b8bce1bdd61cd2d	553010134	1	main_slash	11	main_slash	109	stimuli_distractor_trianglediamonds.svg	stimuli_target_circletriangles.svg	9	yes	53	1	1073
6.6.1	mac	2022-12-24	22:33:04	22:43:27	621421	5edf222d1b8bce1bdd61cd2d	553010134	1	main_slash	11	advance_on_keypress_SLASH	110	stimuli_distractor_trianglediamonds.svg	stimuli_target_circletriangles.svg	9	yes	57	0	204
6.6.1	mac	2022-12-24	22:33:04	22:43:29	624284	5edf222d1b8bce1bdd61cd2d	553010134	1	main_slash	11	main_slash	111	stimuli_distractor_trianglediamonds.svg	stimuli_distractor_trianglediamonds.svg	33	no	0	1	2000
6.6.1	mac	2022-12-24	22:33:04	22:43:29	624284	5edf222d1b8bce1bdd61cd2d	553010134	1	main_slash	11	advance_on_keypress_SLASH	112	stimuli_distractor_trianglediamonds.svg	stimuli_distractor_trianglediamonds.svg	33	no	57	0	274
6.6.1	mac	2022-12-24	22:33:04	22:43:31	625971	5edf222d1b8bce1bdd61cd2d	553010134	1	main_slash	11	main_slash	113	stimuli_target_diamondcircles.svg	stimuli_distractor_diamondtriangles.svg	23	yes	53	1	779
6.6.1	mac	2022-12-24	22:33:04	22:43:31	625971	5edf222d1b8bce1bdd61cd2d	553010134	1	main_slash	11	advance_on_keypress_SLASH	114	stimuli_target_diamondcircles.svg	stimuli_distractor_diamondtriangles.svg	23	yes	57	0	315
6.6.1	mac	2022-12-24	22:33:04	22:43:34	628934	5edf222d1b8bce1bdd61cd2d	553010134	1	main_slash	11	main_slash	115	stimuli_distractor_trianglediamonds.svg	stimuli_distractor_diamondtriangles.svg	35	no	0	1	2000
6.6.1	mac	2022-12-24	22:33:04	22:43:34	628934	5edf222d1b8bce1bdd61cd2d	553010134	1	main_slash	11	advance_on_keypress_SLASH	116	stimuli_distractor_trianglediamonds.svg	stimuli_distractor_diamondtriangles.svg	35	no	57	0	305
6.6.1	mac	2022-12-24	22:33:04	22:43:36	630822	5edf222d1b8bce1bdd61cd2d	553010134	1	main_slash	11	main_slash	117	stimuli_distractor_trianglediamonds.svg	stimuli_target_trianglecircles.svg	25	yes	53	1	927
6.6.1	mac	2022-12-24	22:33:04	22:43:36	630822	5edf222d1b8bce1bdd61cd2d	553010134	1	main_slash	11	advance_on_keypress_SLASH	118	stimuli_distractor_trianglediamonds.svg	stimuli_target_trianglecircles.svg	25	yes	57	0	304
6.6.1	mac	2022-12-24	22:33:04	22:43:38	632677	5edf222d1b8bce1bdd61cd2d	553010134	1	main_slash	11	main_slash	119	stimuli_target_circletriangles.svg	stimuli_distractor_diamondtriangles.svg	5	yes	53	1	891
6.6.1	mac	2022-12-24	22:33:04	22:43:38	632677	5edf222d1b8bce1bdd61cd2d	553010134	1	main_slash	11	advance_on_keypress_SLASH	120	stimuli_target_circletriangles.svg	stimuli_distractor_diamondtriangles.svg	5	yes	57	0	374
6.6.1	mac	2022-12-24	22:33:04	22:43:40	634522	5edf222d1b8bce1bdd61cd2d	553010134	1	main_slash	11	main_slash	121	stimuli_target_diamondcircles.svg	stimuli_distractor_trianglediamonds.svg	19	yes	53	1	822
6.6.1	mac	2022-12-24	22:33:04	22:43:40	634522	5edf222d1b8bce1bdd61cd2d	553010134	1	main_slash	11	advance_on_keypress_SLASH	122	stimuli_target_diamondcircles.svg	stimuli_distractor_trianglediamonds.svg	19	yes	57	0	310
6.6.1	mac	2022-12-24	22:33:04	22:43:41	636373	5edf222d1b8bce1bdd61cd2d	553010134	1	main_slash	11	main_slash	123	stimuli_target_squarediamonds.svg	stimuli_distractor_diamondtriangles.svg	8	yes	53	1	887
6.6.1	mac	2022-12-24	22:33:04	22:43:41	636373	5edf222d1b8bce1bdd61cd2d	553010134	1	main_slash	11	advance_on_keypress_SLASH	124	stimuli_target_squarediamonds.svg	stimuli_distractor_diamondtriangles.svg	8	yes	57	0	339
6.6.1	mac	2022-12-24	22:33:04	22:43:43	638080	5edf222d1b8bce1bdd61cd2d	553010134	1	main_slash	11	main_slash	125	stimuli_target_circlediamonds.svg	stimuli_distractor_trianglediamonds.svg	2	yes	53	1	744
6.6.1	mac	2022-12-24	22:33:04	22:43:43	638080	5edf222d1b8bce1bdd61cd2d	553010134	1	main_slash	11	advance_on_keypress_SLASH	126	stimuli_target_circlediamonds.svg	stimuli_distractor_trianglediamonds.svg	2	yes	57	0	315
6.6.1	mac	2022-12-24	22:33:04	22:43:45	639686	5edf222d1b8bce1bdd61cd2d	553010134	1	main_slash	11	main_slash	127	stimuli_distractor_trianglediamonds.svg	stimuli_target_circlediamonds.svg	10	yes	53	1	649
6.6.1	mac	2022-12-24	22:33:04	22:43:45	639686	5edf222d1b8bce1bdd61cd2d	553010134	1	main_slash	11	advance_on_keypress_SLASH	128	stimuli_distractor_trianglediamonds.svg	stimuli_target_circlediamonds.svg	10	yes	57	0	340
6.6.1	mac	2022-12-24	22:33:04	22:43:48	642684	5edf222d1b8bce1bdd61cd2d	553010134	1	main_slash	11	main_slash	129	stimuli_distractor_diamondtriangles.svg	stimuli_distractor_trianglediamonds.svg	38	no	0	1	2000
6.6.1	mac	2022-12-24	22:33:04	22:43:48	642684	5edf222d1b8bce1bdd61cd2d	553010134	1	main_slash	11	advance_on_keypress_SLASH	130	stimuli_distractor_diamondtriangles.svg	stimuli_distractor_trianglediamonds.svg	38	no	57	0	700
6.6.1	mac	2022-12-24	22:33:04	22:43:50	644972	5edf222d1b8bce1bdd61cd2d	553010134	1	main_slash	11	main_slash	131	stimuli_target_diamondsquares.svg	stimuli_distractor_diamondtriangles.svg	24	yes	53	1	910
6.6.1	mac	2022-12-24	22:33:04	22:43:50	644972	5edf222d1b8bce1bdd61cd2d	553010134	1	main_slash	11	advance_on_keypress_SLASH	132	stimuli_target_diamondsquares.svg	stimuli_distractor_diamondtriangles.svg	24	yes	57	0	261
6.6.1	mac	2022-12-24	22:33:04	22:43:53	647884	5edf222d1b8bce1bdd61cd2d	553010134	1	main_slash	11	main_slash	133	stimuli_distractor_diamondtriangles.svg	stimuli_distractor_trianglediamonds.svg	37	no	0	1	2000
6.6.1	mac	2022-12-24	22:33:04	22:43:53	647884	5edf222d1b8bce1bdd61cd2d	553010134	1	main_slash	11	advance_on_keypress_SLASH	134	stimuli_distractor_diamondtriangles.svg	stimuli_distractor_trianglediamonds.svg	37	no	57	0	356
6.6.1	mac	2022-12-24	22:33:04	22:43:55	649623	5edf222d1b8bce1bdd61cd2d	553010134	1	main_slash	11	main_slash	135	stimuli_target_squaretriangles.svg	stimuli_distractor_diamondtriangles.svg	7	yes	53	1	727
6.6.1	mac	2022-12-24	22:33:04	22:43:55	649623	5edf222d1b8bce1bdd61cd2d	553010134	1	main_slash	11	advance_on_keypress_SLASH	136	stimuli_target_squaretriangles.svg	stimuli_distractor_diamondtriangles.svg	7	yes	57	0	281
6.6.1	mac	2022-12-24	22:33:04	22:43:56	651284	5edf222d1b8bce1bdd61cd2d	553010134	1	main_slash	11	main_slash	137	stimuli_distractor_diamondtriangles.svg	stimuli_target_squarediamonds.svg	16	yes	53	1	748
6.6.1	mac	2022-12-24	22:33:04	22:43:56	651284	5edf222d1b8bce1bdd61cd2d	553010134	1	main_slash	11	advance_on_keypress_SLASH	138	stimuli_distractor_diamondtriangles.svg	stimuli_target_squarediamonds.svg	16	yes	57	0	217
6.6.1	mac	2022-12-24	22:33:04	22:43:58	652823	5edf222d1b8bce1bdd61cd2d	553010134	1	main_slash	11	main_slash	139	stimuli_target_squarediamonds.svg	stimuli_distractor_trianglediamonds.svg	4	yes	53	1	657
6.6.1	mac	2022-12-24	22:33:04	22:43:58	652823	5edf222d1b8bce1bdd61cd2d	553010134	1	main_slash	11	advance_on_keypress_SLASH	140	stimuli_target_squarediamonds.svg	stimuli_distractor_trianglediamonds.svg	4	yes	57	0	277
6.6.1	mac	2022-12-24	22:33:04	22:44:00	654522	5edf222d1b8bce1bdd61cd2d	553010134	1	main_slash	11	main_slash	141	stimuli_distractor_trianglediamonds.svg	stimuli_target_diamondcircles.svg	27	yes	53	1	768
6.6.1	mac	2022-12-24	22:33:04	22:44:00	654522	5edf222d1b8bce1bdd61cd2d	553010134	1	main_slash	11	advance_on_keypress_SLASH	142	stimuli_distractor_trianglediamonds.svg	stimuli_target_diamondcircles.svg	27	yes	57	0	192
6.6.1	mac	2022-12-24	22:33:04	22:44:02	657332	5edf222d1b8bce1bdd61cd2d	553010134	1	main_slash	11	main_slash	143	stimuli_distractor_diamondtriangles.svg	stimuli_distractor_diamondtriangles.svg	40	no	0	1	2000
6.6.1	mac	2022-12-24	22:33:04	22:44:02	657332	5edf222d1b8bce1bdd61cd2d	553010134	1	main_slash	11	advance_on_keypress_SLASH	144	stimuli_distractor_diamondtriangles.svg	stimuli_distractor_diamondtriangles.svg	40	no	57	0	486
6.6.1	mac	2022-12-24	22:33:04	22:44:04	659122	5edf222d1b8bce1bdd61cd2d	553010134	1	main_slash	11	main_slash	145	stimuli_target_circletriangles.svg	stimuli_distractor_trianglediamonds.svg	1	yes	53	1	603
6.6.1	mac	2022-12-24	22:33:04	22:44:04	659122	5edf222d1b8bce1bdd61cd2d	553010134	1	main_slash	11	advance_on_keypress_SLASH	146	stimuli_target_circletriangles.svg	stimuli_distractor_trianglediamonds.svg	1	yes	57	0	282
6.6.1	mac	2022-12-24	22:33:04	22:44:06	660772	5edf222d1b8bce1bdd61cd2d	553010134	1	main_slash	11	main_slash	147	stimuli_target_diamondsquares.svg	stimuli_distractor_trianglediamonds.svg	20	yes	53	1	720
6.6.1	mac	2022-12-24	22:33:04	22:44:06	660772	5edf222d1b8bce1bdd61cd2d	553010134	1	main_slash	11	advance_on_keypress_SLASH	148	stimuli_target_diamondsquares.svg	stimuli_distractor_trianglediamonds.svg	20	yes	57	0	338
6.6.1	mac	2022-12-24	22:33:04	22:44:08	662522	5edf222d1b8bce1bdd61cd2d	553010134	1	main_slash	11	main_slash	149	stimuli_distractor_diamondtriangles.svg	stimuli_target_circletriangles.svg	13	yes	53	1	757
6.6.1	mac	2022-12-24	22:33:04	22:44:08	662522	5edf222d1b8bce1bdd61cd2d	553010134	1	main_slash	11	advance_on_keypress_SLASH	150	stimuli_distractor_diamondtriangles.svg	stimuli_target_circletriangles.svg	13	yes	57	0	285
6.6.1	mac	2022-12-24	22:33:04	22:44:09	664123	5edf222d1b8bce1bdd61cd2d	553010134	1	main_slash	11	main_slash	151	stimuli_distractor_diamondtriangles.svg	stimuli_target_trianglecircles.svg	29	yes	53	1	686
6.6.1	mac	2022-12-24	22:33:04	22:44:09	664123	5edf222d1b8bce1bdd61cd2d	553010134	1	main_slash	11	advance_on_keypress_SLASH	152	stimuli_distractor_diamondtriangles.svg	stimuli_target_trianglecircles.svg	29	yes	57	0	301
6.6.1	mac	2022-12-24	22:33:04	22:44:11	665823	5edf222d1b8bce1bdd61cd2d	553010134	1	main_slash	11	main_slash	153	stimuli_distractor_diamondtriangles.svg	stimuli_target_diamondsquares.svg	32	yes	53	1	758
6.6.1	mac	2022-12-24	22:33:04	22:44:11	665823	5edf222d1b8bce1bdd61cd2d	553010134	1	main_slash	11	advance_on_keypress_SLASH	154	stimuli_distractor_diamondtriangles.svg	stimuli_target_diamondsquares.svg	32	yes	57	0	300
6.6.1	mac	2022-12-24	22:33:04	22:44:13	667522	5edf222d1b8bce1bdd61cd2d	553010134	1	main_slash	11	main_slash	155	stimuli_target_trianglecircles.svg	stimuli_distractor_diamondtriangles.svg	21	yes	53	1	761
6.6.1	mac	2022-12-24	22:33:04	22:44:13	667522	5edf222d1b8bce1bdd61cd2d	553010134	1	main_slash	11	advance_on_keypress_SLASH	156	stimuli_target_trianglecircles.svg	stimuli_distractor_diamondtriangles.svg	21	yes	57	0	238
6.6.1	mac	2022-12-24	22:33:04	22:44:14	669172	5edf222d1b8bce1bdd61cd2d	553010134	1	main_slash	11	main_slash	157	stimuli_distractor_diamondtriangles.svg	stimuli_target_diamondcircles.svg	31	yes	53	1	777
6.6.1	mac	2022-12-24	22:33:04	22:44:14	669172	5edf222d1b8bce1bdd61cd2d	553010134	1	main_slash	11	advance_on_keypress_SLASH	158	stimuli_distractor_diamondtriangles.svg	stimuli_target_diamondcircles.svg	31	yes	57	0	238
6.6.1	mac	2022-12-24	22:33:04	22:44:17	672033	5edf222d1b8bce1bdd61cd2d	553010134	1	main_slash	11	main_slash	159	stimuli_distractor_trianglediamonds.svg	stimuli_distractor_trianglediamonds.svg	34	no	0	1	2000
6.6.1	mac	2022-12-24	22:33:04	22:44:17	672033	5edf222d1b8bce1bdd61cd2d	553010134	1	main_slash	11	advance_on_keypress_SLASH	160	stimuli_distractor_trianglediamonds.svg	stimuli_distractor_trianglediamonds.svg	34	no	57	0	916