build	computer.platform	date	time	timestamp	time_elapsed_ms	subject	group	session	blockcode	blocknum	trialcode	trialnum	stimulus_left	stimulus_right	stim_index	target_present	response	correct	latency
6.6.1	mac	2022-12-14	13:02:09	13:04:36	146059	60e9b19b0104bf65f6a92237	517737842	1	practice_z	5	practice_z	1	stimuli_target_diamondsquares.svg	stimuli_distractor_diamondtriangles.svg	3	yes	0	0	2000
6.6.1	mac	2022-12-14	13:02:09	13:04:36	146059	60e9b19b0104bf65f6a92237	517737842	1	practice_z	5	advance_on_keypress_ZEE	2	stimuli_target_diamondsquares.svg	stimuli_distractor_diamondtriangles.svg	3	yes	57	0	1165
6.6.1	mac	2022-12-14	13:02:09	13:04:41	150857	60e9b19b0104bf65f6a92237	517737842	1	practice_z	5	practice_z	3	stimuli_distractor_diamondtriangles.svg	stimuli_distractor_diamondtriangles.svg	13	no	0	1	2000
6.6.1	mac	2022-12-14	13:02:09	13:04:41	150857	60e9b19b0104bf65f6a92237	517737842	1	practice_z	5	advance_on_keypress_ZEE	4	stimuli_distractor_diamondtriangles.svg	stimuli_distractor_diamondtriangles.svg	13	no	57	0	845
6.6.1	mac	2022-12-14	13:02:09	13:04:44	154146	60e9b19b0104bf65f6a92237	517737842	1	practice_z	5	practice_z	5	stimuli_target_squarediamonds.svg	stimuli_distractor_trianglediamonds.svg	5	yes	44	1	804
6.6.1	mac	2022-12-14	13:02:09	13:04:44	154146	60e9b19b0104bf65f6a92237	517737842	1	practice_z	5	advance_on_keypress_ZEE	6	stimuli_target_squarediamonds.svg	stimuli_distractor_trianglediamonds.svg	5	yes	57	0	873
6.6.1	mac	2022-12-14	13:02:09	13:04:48	157401	60e9b19b0104bf65f6a92237	517737842	1	practice_z	5	practice_z	7	stimuli_distractor_diamondtriangles.svg	stimuli_target_trianglecircles.svg	9	yes	44	1	755
6.6.1	mac	2022-12-14	13:02:09	13:04:48	157401	60e9b19b0104bf65f6a92237	517737842	1	practice_z	5	advance_on_keypress_ZEE	8	stimuli_distractor_diamondtriangles.svg	stimuli_target_trianglecircles.svg	9	yes	57	0	917
6.6.1	mac	2022-12-14	13:02:09	13:04:51	160530	60e9b19b0104bf65f6a92237	517737842	1	practice_z	5	practice_z	9	stimuli_distractor_diamondtriangles.svg	stimuli_target_diamondcircles.svg	8	yes	44	1	578
6.6.1	mac	2022-12-14	13:02:09	13:04:51	160530	60e9b19b0104bf65f6a92237	517737842	1	practice_z	5	advance_on_keypress_ZEE	10	stimuli_distractor_diamondtriangles.svg	stimuli_target_diamondcircles.svg	8	yes	57	0	707
6.6.1	mac	2022-12-14	13:02:09	13:04:54	163670	60e9b19b0104bf65f6a92237	517737842	1	practice_z	5	practice_z	11	stimuli_target_circlediamonds.svg	stimuli_distractor_diamondtriangles.svg	1	yes	44	1	805
6.6.1	mac	2022-12-14	13:02:09	13:04:54	163670	60e9b19b0104bf65f6a92237	517737842	1	practice_z	5	advance_on_keypress_ZEE	12	stimuli_target_circlediamonds.svg	stimuli_distractor_diamondtriangles.svg	1	yes	57	0	651
6.6.1	mac	2022-12-14	13:02:09	13:04:58	167955	60e9b19b0104bf65f6a92237	517737842	1	practice_z	5	practice_z	13	stimuli_distractor_trianglediamonds.svg	stimuli_distractor_trianglediamonds.svg	15	no	0	1	2000
6.6.1	mac	2022-12-14	13:02:09	13:04:58	167955	60e9b19b0104bf65f6a92237	517737842	1	practice_z	5	advance_on_keypress_ZEE	14	stimuli_distractor_trianglediamonds.svg	stimuli_distractor_trianglediamonds.svg	15	no	57	0	678
6.6.1	mac	2022-12-14	13:02:09	13:05:03	172270	60e9b19b0104bf65f6a92237	517737842	1	practice_z	5	practice_z	15	stimuli_target_diamondsquares.svg	stimuli_distractor_trianglediamonds.svg	6	yes	0	0	2000
6.6.1	mac	2022-12-14	13:02:09	13:05:03	172270	60e9b19b0104bf65f6a92237	517737842	1	practice_z	5	advance_on_keypress_ZEE	16	stimuli_target_diamondsquares.svg	stimuli_distractor_trianglediamonds.svg	6	yes	57	0	964
6.6.1	mac	2022-12-14	13:02:09	13:05:07	176869	60e9b19b0104bf65f6a92237	517737842	1	practice_z	5	practice_z	17	stimuli_distractor_trianglediamonds.svg	stimuli_distractor_diamondtriangles.svg	16	no	0	1	2000
6.6.1	mac	2022-12-14	13:02:09	13:05:07	176869	60e9b19b0104bf65f6a92237	517737842	1	practice_z	5	advance_on_keypress_ZEE	18	stimuli_distractor_trianglediamonds.svg	stimuli_distractor_diamondtriangles.svg	16	no	57	0	417
6.6.1	mac	2022-12-14	13:02:09	13:05:10	179415	60e9b19b0104bf65f6a92237	517737842	1	practice_z	5	practice_z	19	stimuli_target_circlediamonds.svg	stimuli_distractor_trianglediamonds.svg	4	yes	44	1	495
6.6.1	mac	2022-12-14	13:02:09	13:05:10	179415	60e9b19b0104bf65f6a92237	517737842	1	practice_z	5	advance_on_keypress_ZEE	20	stimuli_target_circlediamonds.svg	stimuli_distractor_trianglediamonds.svg	4	yes	57	0	503
6.6.1	mac	2022-12-14	13:02:09	13:05:13	182406	60e9b19b0104bf65f6a92237	517737842	1	practice_z	5	practice_z	21	stimuli_distractor_trianglediamonds.svg	stimuli_target_circlediamonds.svg	10	yes	44	1	875
6.6.1	mac	2022-12-14	13:02:09	13:05:13	182406	60e9b19b0104bf65f6a92237	517737842	1	practice_z	5	advance_on_keypress_ZEE	22	stimuli_distractor_trianglediamonds.svg	stimuli_target_circlediamonds.svg	10	yes	57	0	637
6.6.1	mac	2022-12-14	13:02:09	13:05:16	185674	60e9b19b0104bf65f6a92237	517737842	1	practice_z	5	practice_z	23	stimuli_distractor_trianglediamonds.svg	stimuli_target_diamondcircles.svg	12	yes	44	1	998
6.6.1	mac	2022-12-14	13:02:09	13:05:16	185674	60e9b19b0104bf65f6a92237	517737842	1	practice_z	5	advance_on_keypress_ZEE	24	stimuli_distractor_trianglediamonds.svg	stimuli_target_diamondcircles.svg	12	yes	57	0	501
6.6.1	mac	2022-12-14	13:02:09	13:05:19	188729	60e9b19b0104bf65f6a92237	517737842	1	practice_z	5	practice_z	25	stimuli_distractor_diamondtriangles.svg	stimuli_target_circletriangles.svg	7	yes	44	1	921
6.6.1	mac	2022-12-14	13:02:09	13:05:19	188729	60e9b19b0104bf65f6a92237	517737842	1	practice_z	5	advance_on_keypress_ZEE	26	stimuli_distractor_diamondtriangles.svg	stimuli_target_circletriangles.svg	7	yes	57	0	860
6.6.1	mac	2022-12-14	13:02:09	13:05:22	192182	60e9b19b0104bf65f6a92237	517737842	1	practice_z	5	practice_z	27	stimuli_target_squarediamonds.svg	stimuli_distractor_diamondtriangles.svg	2	yes	44	1	970
6.6.1	mac	2022-12-14	13:02:09	13:05:22	192182	60e9b19b0104bf65f6a92237	517737842	1	practice_z	5	advance_on_keypress_ZEE	28	stimuli_target_squarediamonds.svg	stimuli_distractor_diamondtriangles.svg	2	yes	57	0	443
6.6.1	mac	2022-12-14	13:02:09	13:05:27	196250	60e9b19b0104bf65f6a92237	517737842	1	practice_z	5	practice_z	29	stimuli_distractor_diamondtriangles.svg	stimuli_distractor_trianglediamonds.svg	14	no	0	1	2000
6.6.1	mac	2022-12-14	13:02:09	13:05:27	196250	60e9b19b0104bf65f6a92237	517737842	1	practice_z	5	advance_on_keypress_ZEE	30	stimuli_distractor_diamondtriangles.svg	stimuli_distractor_trianglediamonds.svg	14	no	57	0	401
6.6.1	mac	2022-12-14	13:02:09	13:05:29	199115	60e9b19b0104bf65f6a92237	517737842	1	practice_z	5	practice_z	31	stimuli_distractor_trianglediamonds.svg	stimuli_target_squarediamonds.svg	11	yes	44	1	832
6.6.1	mac	2022-12-14	13:02:09	13:05:29	199115	60e9b19b0104bf65f6a92237	517737842	1	practice_z	5	advance_on_keypress_ZEE	32	stimuli_distractor_trianglediamonds.svg	stimuli_target_squarediamonds.svg	11	yes	57	0	410
6.6.1	mac	2022-12-14	13:02:09	13:05:38	207765	60e9b19b0104bf65f6a92237	517737842	1	main_z	7	main_z	1	stimuli_distractor_trianglediamonds.svg	stimuli_target_squaretriangles.svg	11	yes	44	1	888
6.6.1	mac	2022-12-14	13:02:09	13:05:38	207765	60e9b19b0104bf65f6a92237	517737842	1	main_z	7	advance_on_keypress_ZEE	2	stimuli_distractor_trianglediamonds.svg	stimuli_target_squaretriangles.svg	11	yes	57	0	1261
6.6.1	mac	2022-12-14	13:02:09	13:05:41	210289	60e9b19b0104bf65f6a92237	517737842	1	main_z	7	main_z	3	stimuli_distractor_diamondtriangles.svg	stimuli_target_circletriangles.svg	13	yes	44	1	638
6.6.1	mac	2022-12-14	13:02:09	13:05:41	210289	60e9b19b0104bf65f6a92237	517737842	1	main_z	7	advance_on_keypress_ZEE	4	stimuli_distractor_diamondtriangles.svg	stimuli_target_circletriangles.svg	13	yes	57	0	1849
6.6.1	mac	2022-12-14	13:02:09	13:05:45	214757	60e9b19b0104bf65f6a92237	517737842	1	main_z	7	main_z	5	stimuli_target_diamondsquares.svg	stimuli_distractor_trianglediamonds.svg	20	yes	0	0	2000
6.6.1	mac	2022-12-14	13:02:09	13:05:45	214757	60e9b19b0104bf65f6a92237	517737842	1	main_z	7	advance_on_keypress_ZEE	6	stimuli_target_diamondsquares.svg	stimuli_distractor_trianglediamonds.svg	20	yes	57	0	395
6.6.1	mac	2022-12-14	13:02:09	13:05:48	217770	60e9b19b0104bf65f6a92237	517737842	1	main_z	7	main_z	7	stimuli_distractor_trianglediamonds.svg	stimuli_distractor_trianglediamonds.svg	33	no	0	1	2000
6.6.1	mac	2022-12-14	13:02:09	13:05:48	217770	60e9b19b0104bf65f6a92237	517737842	1	main_z	7	advance_on_keypress_ZEE	8	stimuli_distractor_trianglediamonds.svg	stimuli_distractor_trianglediamonds.svg	33	no	57	0	534
6.6.1	mac	2022-12-14	13:02:09	13:05:51	220923	60e9b19b0104bf65f6a92237	517737842	1	main_z	7	main_z	9	stimuli_distractor_diamondtriangles.svg	stimuli_distractor_diamondtriangles.svg	39	no	0	1	2000
6.6.1	mac	2022-12-14	13:02:09	13:05:51	220923	60e9b19b0104bf65f6a92237	517737842	1	main_z	7	advance_on_keypress_ZEE	10	stimuli_distractor_diamondtriangles.svg	stimuli_distractor_diamondtriangles.svg	39	no	57	0	926
6.6.1	mac	2022-12-14	13:02:09	13:05:54	223540	60e9b19b0104bf65f6a92237	517737842	1	main_z	7	main_z	11	stimuli_distractor_diamondtriangles.svg	stimuli_distractor_trianglediamonds.svg	38	no	44	0	1065
6.6.1	mac	2022-12-14	13:02:09	13:05:54	223540	60e9b19b0104bf65f6a92237	517737842	1	main_z	7	advance_on_keypress_ZEE	12	stimuli_distractor_diamondtriangles.svg	stimuli_distractor_trianglediamonds.svg	38	no	57	0	729
6.6.1	mac	2022-12-14	13:02:09	13:05:56	225506	60e9b19b0104bf65f6a92237	517737842	1	main_z	7	main_z	13	stimuli_target_trianglecircles.svg	stimuli_distractor_diamondtriangles.svg	21	yes	44	1	617
6.6.1	mac	2022-12-14	13:02:09	13:05:56	225506	60e9b19b0104bf65f6a92237	517737842	1	main_z	7	advance_on_keypress_ZEE	14	stimuli_target_trianglecircles.svg	stimuli_distractor_diamondtriangles.svg	21	yes	57	0	1696
6.6.1	mac	2022-12-14	13:02:09	13:05:59	228337	60e9b19b0104bf65f6a92237	517737842	1	main_z	7	main_z	15	stimuli_target_circletriangles.svg	stimuli_distractor_trianglediamonds.svg	1	yes	44	1	500
6.6.1	mac	2022-12-14	13:02:09	13:05:59	228337	60e9b19b0104bf65f6a92237	517737842	1	main_z	7	advance_on_keypress_ZEE	16	stimuli_target_circletriangles.svg	stimuli_distractor_trianglediamonds.svg	1	yes	57	0	1025
6.6.1	mac	2022-12-14	13:02:09	13:06:01	230856	60e9b19b0104bf65f6a92237	517737842	1	main_z	7	main_z	17	stimuli_distractor_trianglediamonds.svg	stimuli_distractor_diamondtriangles.svg	35	no	44	0	862
6.6.1	mac	2022-12-14	13:02:09	13:06:01	230856	60e9b19b0104bf65f6a92237	517737842	1	main_z	7	advance_on_keypress_ZEE	18	stimuli_distractor_trianglediamonds.svg	stimuli_distractor_diamondtriangles.svg	35	no	57	0	784
6.6.1	mac	2022-12-14	13:02:09	13:06:03	232859	60e9b19b0104bf65f6a92237	517737842	1	main_z	7	main_z	19	stimuli_distractor_trianglediamonds.svg	stimuli_target_squarediamonds.svg	12	yes	44	1	587
6.6.1	mac	2022-12-14	13:02:09	13:06:03	232859	60e9b19b0104bf65f6a92237	517737842	1	main_z	7	advance_on_keypress_ZEE	20	stimuli_distractor_trianglediamonds.svg	stimuli_target_squarediamonds.svg	12	yes	57	0	1032
6.6.1	mac	2022-12-14	13:02:09	13:06:06	235445	60e9b19b0104bf65f6a92237	517737842	1	main_z	7	main_z	21	stimuli_target_circlediamonds.svg	stimuli_distractor_trianglediamonds.svg	2	yes	44	1	919
6.6.1	mac	2022-12-14	13:02:09	13:06:06	235445	60e9b19b0104bf65f6a92237	517737842	1	main_z	7	advance_on_keypress_ZEE	22	stimuli_target_circlediamonds.svg	stimuli_distractor_trianglediamonds.svg	2	yes	57	0	894
6.6.1	mac	2022-12-14	13:02:09	13:06:09	238963	60e9b19b0104bf65f6a92237	517737842	1	main_z	7	main_z	23	stimuli_distractor_trianglediamonds.svg	stimuli_target_diamondsquares.svg	28	yes	0	0	2000
6.6.1	mac	2022-12-14	13:02:09	13:06:09	238963	60e9b19b0104bf65f6a92237	517737842	1	main_z	7	advance_on_keypress_ZEE	24	stimuli_distractor_trianglediamonds.svg	stimuli_target_diamondsquares.svg	28	yes	57	0	392
6.6.1	mac	2022-12-14	13:02:09	13:06:11	240790	60e9b19b0104bf65f6a92237	517737842	1	main_z	7	main_z	25	stimuli_target_diamondsquares.svg	stimuli_distractor_diamondtriangles.svg	24	yes	44	1	808
6.6.1	mac	2022-12-14	13:02:09	13:06:11	240790	60e9b19b0104bf65f6a92237	517737842	1	main_z	7	advance_on_keypress_ZEE	26	stimuli_target_diamondsquares.svg	stimuli_distractor_diamondtriangles.svg	24	yes	57	0	944
6.6.1	mac	2022-12-14	13:02:09	13:06:15	244357	60e9b19b0104bf65f6a92237	517737842	1	main_z	7	main_z	27	stimuli_distractor_diamondtriangles.svg	stimuli_distractor_trianglediamonds.svg	37	no	0	1	2000
6.6.1	mac	2022-12-14	13:02:09	13:06:15	244357	60e9b19b0104bf65f6a92237	517737842	1	main_z	7	advance_on_keypress_ZEE	28	stimuli_distractor_diamondtriangles.svg	stimuli_distractor_trianglediamonds.svg	37	no	57	0	403
6.6.1	mac	2022-12-14	13:02:09	13:06:16	245808	60e9b19b0104bf65f6a92237	517737842	1	main_z	7	main_z	29	stimuli_distractor_diamondtriangles.svg	stimuli_target_squaretriangles.svg	15	yes	44	1	418
6.6.1	mac	2022-12-14	13:02:09	13:06:16	245808	60e9b19b0104bf65f6a92237	517737842	1	main_z	7	advance_on_keypress_ZEE	30	stimuli_distractor_diamondtriangles.svg	stimuli_target_squaretriangles.svg	15	yes	57	0	764
6.6.1	mac	2022-12-14	13:02:09	13:06:18	247830	60e9b19b0104bf65f6a92237	517737842	1	main_z	7	main_z	31	stimuli_distractor_trianglediamonds.svg	stimuli_target_trianglecircles.svg	25	yes	44	1	621
6.6.1	mac	2022-12-14	13:02:09	13:06:18	247830	60e9b19b0104bf65f6a92237	517737842	1	main_z	7	advance_on_keypress_ZEE	32	stimuli_distractor_trianglediamonds.svg	stimuli_target_trianglecircles.svg	25	yes	57	0	794
6.6.1	mac	2022-12-14	13:02:09	13:06:20	249892	60e9b19b0104bf65f6a92237	517737842	1	main_z	7	main_z	33	stimuli_distractor_trianglediamonds.svg	stimuli_target_circletriangles.svg	9	yes	44	1	627
6.6.1	mac	2022-12-14	13:02:09	13:06:20	249892	60e9b19b0104bf65f6a92237	517737842	1	main_z	7	advance_on_keypress_ZEE	34	stimuli_distractor_trianglediamonds.svg	stimuli_target_circletriangles.svg	9	yes	57	0	831
6.6.1	mac	2022-12-14	13:02:09	13:06:23	252400	60e9b19b0104bf65f6a92237	517737842	1	main_z	7	main_z	35	stimuli_target_circlediamonds.svg	stimuli_distractor_diamondtriangles.svg	6	yes	44	1	1055
6.6.1	mac	2022-12-14	13:02:09	13:06:23	252400	60e9b19b0104bf65f6a92237	517737842	1	main_z	7	advance_on_keypress_ZEE	36	stimuli_target_circlediamonds.svg	stimuli_distractor_diamondtriangles.svg	6	yes	57	0	346
6.6.1	mac	2022-12-14	13:02:09	13:06:24	253918	60e9b19b0104bf65f6a92237	517737842	1	main_z	7	main_z	37	stimuli_target_diamondcircles.svg	stimuli_distractor_trianglediamonds.svg	19	yes	44	1	550
6.6.1	mac	2022-12-14	13:02:09	13:06:24	253918	60e9b19b0104bf65f6a92237	517737842	1	main_z	7	advance_on_keypress_ZEE	38	stimuli_target_diamondcircles.svg	stimuli_distractor_trianglediamonds.svg	19	yes	57	0	603
6.6.1	mac	2022-12-14	13:02:09	13:06:26	255557	60e9b19b0104bf65f6a92237	517737842	1	main_z	7	main_z	39	stimuli_target_trianglesquares.svg	stimuli_distractor_trianglediamonds.svg	18	yes	44	1	410
6.6.1	mac	2022-12-14	13:02:09	13:06:26	255557	60e9b19b0104bf65f6a92237	517737842	1	main_z	7	advance_on_keypress_ZEE	40	stimuli_target_trianglesquares.svg	stimuli_distractor_trianglediamonds.svg	18	yes	57	0	667
6.6.1	mac	2022-12-14	13:02:09	13:06:27	257221	60e9b19b0104bf65f6a92237	517737842	1	main_z	7	main_z	41	stimuli_target_trianglecircles.svg	stimuli_distractor_trianglediamonds.svg	17	yes	44	1	360
6.6.1	mac	2022-12-14	13:02:09	13:06:27	257221	60e9b19b0104bf65f6a92237	517737842	1	main_z	7	advance_on_keypress_ZEE	42	stimuli_target_trianglecircles.svg	stimuli_distractor_trianglediamonds.svg	17	yes	57	0	608
6.6.1	mac	2022-12-14	13:02:09	13:06:29	258783	60e9b19b0104bf65f6a92237	517737842	1	main_z	7	main_z	43	stimuli_target_squaretriangles.svg	stimuli_distractor_diamondtriangles.svg	7	yes	44	1	328
6.6.1	mac	2022-12-14	13:02:09	13:06:29	258783	60e9b19b0104bf65f6a92237	517737842	1	main_z	7	advance_on_keypress_ZEE	44	stimuli_target_squaretriangles.svg	stimuli_distractor_diamondtriangles.svg	7	yes	57	0	661
6.6.1	mac	2022-12-14	13:02:09	13:06:32	262064	60e9b19b0104bf65f6a92237	517737842	1	main_z	7	main_z	45	stimuli_distractor_diamondtriangles.svg	stimuli_distractor_diamondtriangles.svg	40	no	0	1	2000
6.6.1	mac	2022-12-14	13:02:09	13:06:32	262064	60e9b19b0104bf65f6a92237	517737842	1	main_z	7	advance_on_keypress_ZEE	46	stimuli_distractor_diamondtriangles.svg	stimuli_distractor_diamondtriangles.svg	40	no	57	0	461
6.6.1	mac	2022-12-14	13:02:09	13:06:34	263568	60e9b19b0104bf65f6a92237	517737842	1	main_z	7	main_z	47	stimuli_target_squaretriangles.svg	stimuli_distractor_trianglediamonds.svg	3	yes	44	1	422
6.6.1	mac	2022-12-14	13:02:09	13:06:34	263568	60e9b19b0104bf65f6a92237	517737842	1	main_z	7	advance_on_keypress_ZEE	48	stimuli_target_squaretriangles.svg	stimuli_distractor_trianglediamonds.svg	3	yes	57	0	563
6.6.1	mac	2022-12-14	13:02:09	13:06:35	265168	60e9b19b0104bf65f6a92237	517737842	1	main_z	7	main_z	49	stimuli_distractor_diamondtriangles.svg	stimuli_target_trianglesquares.svg	30	yes	44	1	396
6.6.1	mac	2022-12-14	13:02:09	13:06:35	265168	60e9b19b0104bf65f6a92237	517737842	1	main_z	7	advance_on_keypress_ZEE	50	stimuli_distractor_diamondtriangles.svg	stimuli_target_trianglesquares.svg	30	yes	57	0	540
6.6.1	mac	2022-12-14	13:02:09	13:06:37	266790	60e9b19b0104bf65f6a92237	517737842	1	main_z	7	main_z	51	stimuli_distractor_diamondtriangles.svg	stimuli_target_circlediamonds.svg	14	yes	44	1	450
6.6.1	mac	2022-12-14	13:02:09	13:06:37	266790	60e9b19b0104bf65f6a92237	517737842	1	main_z	7	advance_on_keypress_ZEE	52	stimuli_distractor_diamondtriangles.svg	stimuli_target_circlediamonds.svg	14	yes	57	0	554
6.6.1	mac	2022-12-14	13:02:09	13:06:39	268293	60e9b19b0104bf65f6a92237	517737842	1	main_z	7	main_z	53	stimuli_distractor_diamondtriangles.svg	stimuli_target_trianglecircles.svg	29	yes	44	1	321
6.6.1	mac	2022-12-14	13:02:09	13:06:39	268293	60e9b19b0104bf65f6a92237	517737842	1	main_z	7	advance_on_keypress_ZEE	54	stimuli_distractor_diamondtriangles.svg	stimuli_target_trianglecircles.svg	29	yes	57	0	582
6.6.1	mac	2022-12-14	13:02:09	13:06:40	269895	60e9b19b0104bf65f6a92237	517737842	1	main_z	7	main_z	55	stimuli_distractor_diamondtriangles.svg	stimuli_target_squarediamonds.svg	16	yes	44	1	386
6.6.1	mac	2022-12-14	13:02:09	13:06:40	269895	60e9b19b0104bf65f6a92237	517737842	1	main_z	7	advance_on_keypress_ZEE	56	stimuli_distractor_diamondtriangles.svg	stimuli_target_squarediamonds.svg	16	yes	57	0	439
6.6.1	mac	2022-12-14	13:02:09	13:06:42	271350	60e9b19b0104bf65f6a92237	517737842	1	main_z	7	main_z	57	stimuli_distractor_trianglediamonds.svg	stimuli_target_diamondcircles.svg	27	yes	44	1	387
6.6.1	mac	2022-12-14	13:02:09	13:06:42	271350	60e9b19b0104bf65f6a92237	517737842	1	main_z	7	advance_on_keypress_ZEE	58	stimuli_distractor_trianglediamonds.svg	stimuli_target_diamondcircles.svg	27	yes	57	0	487
6.6.1	mac	2022-12-14	13:02:09	13:06:43	272850	60e9b19b0104bf65f6a92237	517737842	1	main_z	7	main_z	59	stimuli_distractor_diamondtriangles.svg	stimuli_target_diamondcircles.svg	31	yes	44	1	385
6.6.1	mac	2022-12-14	13:02:09	13:06:43	272850	60e9b19b0104bf65f6a92237	517737842	1	main_z	7	advance_on_keypress_ZEE	60	stimuli_distractor_diamondtriangles.svg	stimuli_target_diamondcircles.svg	31	yes	57	0	475
6.6.1	mac	2022-12-14	13:02:09	13:06:45	274305	60e9b19b0104bf65f6a92237	517737842	1	main_z	7	main_z	61	stimuli_target_circletriangles.svg	stimuli_distractor_diamondtriangles.svg	5	yes	44	1	354
6.6.1	mac	2022-12-14	13:02:09	13:06:45	274305	60e9b19b0104bf65f6a92237	517737842	1	main_z	7	advance_on_keypress_ZEE	62	stimuli_target_circletriangles.svg	stimuli_distractor_diamondtriangles.svg	5	yes	57	0	333
6.6.1	mac	2022-12-14	13:02:09	13:06:46	275582	60e9b19b0104bf65f6a92237	517737842	1	main_z	7	main_z	63	stimuli_target_trianglesquares.svg	stimuli_distractor_diamondtriangles.svg	22	yes	44	1	327
6.6.1	mac	2022-12-14	13:02:09	13:06:46	275582	60e9b19b0104bf65f6a92237	517737842	1	main_z	7	advance_on_keypress_ZEE	64	stimuli_target_trianglesquares.svg	stimuli_distractor_diamondtriangles.svg	22	yes	57	0	961
6.6.1	mac	2022-12-14	13:02:09	13:06:49	279164	60e9b19b0104bf65f6a92237	517737842	1	main_z	7	main_z	65	stimuli_distractor_trianglediamonds.svg	stimuli_distractor_diamondtriangles.svg	36	no	0	1	2000
6.6.1	mac	2022-12-14	13:02:09	13:06:49	279164	60e9b19b0104bf65f6a92237	517737842	1	main_z	7	advance_on_keypress_ZEE	66	stimuli_distractor_trianglediamonds.svg	stimuli_distractor_diamondtriangles.svg	36	no	57	0	537
6.6.1	mac	2022-12-14	13:02:09	13:06:51	280632	60e9b19b0104bf65f6a92237	517737842	1	main_z	7	main_z	67	stimuli_target_squarediamonds.svg	stimuli_distractor_diamondtriangles.svg	8	yes	44	1	311
6.6.1	mac	2022-12-14	13:02:09	13:06:51	280632	60e9b19b0104bf65f6a92237	517737842	1	main_z	7	advance_on_keypress_ZEE	68	stimuli_target_squarediamonds.svg	stimuli_distractor_diamondtriangles.svg	8	yes	57	0	574
6.6.1	mac	2022-12-14	13:02:09	13:06:54	283469	60e9b19b0104bf65f6a92237	517737842	1	main_z	7	main_z	69	stimuli_distractor_diamondtriangles.svg	stimuli_target_diamondsquares.svg	32	yes	44	1	1637
6.6.1	mac	2022-12-14	13:02:09	13:06:54	283469	60e9b19b0104bf65f6a92237	517737842	1	main_z	7	advance_on_keypress_ZEE	70	stimuli_distractor_diamondtriangles.svg	stimuli_target_diamondsquares.svg	32	yes	57	0	680
6.6.1	mac	2022-12-14	13:02:09	13:06:55	285157	60e9b19b0104bf65f6a92237	517737842	1	main_z	7	main_z	71	stimuli_target_squarediamonds.svg	stimuli_distractor_trianglediamonds.svg	4	yes	44	1	387
6.6.1	mac	2022-12-14	13:02:09	13:06:55	285157	60e9b19b0104bf65f6a92237	517737842	1	main_z	7	advance_on_keypress_ZEE	72	stimuli_target_squarediamonds.svg	stimuli_distractor_trianglediamonds.svg	4	yes	57	0	434
6.6.1	mac	2022-12-14	13:02:09	13:06:58	288223	60e9b19b0104bf65f6a92237	517737842	1	main_z	7	main_z	73	stimuli_distractor_trianglediamonds.svg	stimuli_distractor_trianglediamonds.svg	34	no	0	1	2000
6.6.1	mac	2022-12-14	13:02:09	13:06:58	288223	60e9b19b0104bf65f6a92237	517737842	1	main_z	7	advance_on_keypress_ZEE	74	stimuli_distractor_trianglediamonds.svg	stimuli_distractor_trianglediamonds.svg	34	no	57	0	335
6.6.1	mac	2022-12-14	13:02:09	13:07:00	289473	60e9b19b0104bf65f6a92237	517737842	1	main_z	7	main_z	75	stimuli_target_diamondcircles.svg	stimuli_distractor_diamondtriangles.svg	23	yes	44	1	285
6.6.1	mac	2022-12-14	13:02:09	13:07:00	289473	60e9b19b0104bf65f6a92237	517737842	1	main_z	7	advance_on_keypress_ZEE	76	stimuli_target_diamondcircles.svg	stimuli_distractor_diamondtriangles.svg	23	yes	57	0	632
6.6.1	mac	2022-12-14	13:02:09	13:07:01	291048	60e9b19b0104bf65f6a92237	517737842	1	main_z	7	main_z	77	stimuli_distractor_trianglediamonds.svg	stimuli_target_trianglesquares.svg	26	yes	44	1	324
6.6.1	mac	2022-12-14	13:02:09	13:07:01	291048	60e9b19b0104bf65f6a92237	517737842	1	main_z	7	advance_on_keypress_ZEE	78	stimuli_distractor_trianglediamonds.svg	stimuli_target_trianglesquares.svg	26	yes	57	0	676
6.6.1	mac	2022-12-14	13:02:09	13:07:03	292721	60e9b19b0104bf65f6a92237	517737842	1	main_z	7	main_z	79	stimuli_distractor_trianglediamonds.svg	stimuli_target_circlediamonds.svg	10	yes	44	1	368
6.6.1	mac	2022-12-14	13:02:09	13:07:03	292721	60e9b19b0104bf65f6a92237	517737842	1	main_z	7	advance_on_keypress_ZEE	80	stimuli_distractor_trianglediamonds.svg	stimuli_target_circlediamonds.svg	10	yes	57	0	1671
6.6.1	mac	2022-12-14	13:02:09	13:07:06	295861	60e9b19b0104bf65f6a92237	517737842	1	main_z	7	main_z	81	stimuli_distractor_trianglediamonds.svg	stimuli_target_diamondsquares.svg	28	yes	44	1	854
6.6.1	mac	2022-12-14	13:02:09	13:07:06	295861	60e9b19b0104bf65f6a92237	517737842	1	main_z	7	advance_on_keypress_ZEE	82	stimuli_distractor_trianglediamonds.svg	stimuli_target_diamondsquares.svg	28	yes	57	0	708
6.6.1	mac	2022-12-14	13:02:09	13:07:08	297566	60e9b19b0104bf65f6a92237	517737842	1	main_z	7	main_z	83	stimuli_distractor_diamondtriangles.svg	stimuli_target_squaretriangles.svg	15	yes	44	1	372
6.6.1	mac	2022-12-14	13:02:09	13:07:08	297566	60e9b19b0104bf65f6a92237	517737842	1	main_z	7	advance_on_keypress_ZEE	84	stimuli_distractor_diamondtriangles.svg	stimuli_target_squaretriangles.svg	15	yes	57	0	617
6.6.1	mac	2022-12-14	13:02:09	13:07:10	299268	60e9b19b0104bf65f6a92237	517737842	1	main_z	7	main_z	85	stimuli_target_trianglesquares.svg	stimuli_distractor_trianglediamonds.svg	18	yes	44	1	460
6.6.1	mac	2022-12-14	13:02:09	13:07:10	299268	60e9b19b0104bf65f6a92237	517737842	1	main_z	7	advance_on_keypress_ZEE	86	stimuli_target_trianglesquares.svg	stimuli_distractor_trianglediamonds.svg	18	yes	57	0	467
6.6.1	mac	2022-12-14	13:02:09	13:07:11	300751	60e9b19b0104bf65f6a92237	517737842	1	main_z	7	main_z	87	stimuli_target_diamondcircles.svg	stimuli_distractor_diamondtriangles.svg	23	yes	44	1	379
6.6.1	mac	2022-12-14	13:02:09	13:07:11	300751	60e9b19b0104bf65f6a92237	517737842	1	main_z	7	advance_on_keypress_ZEE	88	stimuli_target_diamondcircles.svg	stimuli_distractor_diamondtriangles.svg	23	yes	57	0	568
6.6.1	mac	2022-12-14	13:02:09	13:07:12	302231	60e9b19b0104bf65f6a92237	517737842	1	main_z	7	main_z	89	stimuli_target_diamondsquares.svg	stimuli_distractor_diamondtriangles.svg	24	yes	44	1	300
6.6.1	mac	2022-12-14	13:02:09	13:07:12	302231	60e9b19b0104bf65f6a92237	517737842	1	main_z	7	advance_on_keypress_ZEE	90	stimuli_target_diamondsquares.svg	stimuli_distractor_diamondtriangles.svg	24	yes	57	0	499
6.6.1	mac	2022-12-14	13:02:09	13:07:14	303718	60e9b19b0104bf65f6a92237	517737842	1	main_z	7	main_z	91	stimuli_distractor_trianglediamonds.svg	stimuli_target_circlediamonds.svg	10	yes	44	1	364
6.6.1	mac	2022-12-14	13:02:09	13:07:14	303718	60e9b19b0104bf65f6a92237	517737842	1	main_z	7	advance_on_keypress_ZEE	92	stimuli_distractor_trianglediamonds.svg	stimuli_target_circlediamonds.svg	10	yes	57	0	929
6.6.1	mac	2022-12-14	13:02:09	13:07:16	305880	60e9b19b0104bf65f6a92237	517737842	1	main_z	7	main_z	93	stimuli_target_squaretriangles.svg	stimuli_distractor_diamondtriangles.svg	7	yes	44	1	604
6.6.1	mac	2022-12-14	13:02:09	13:07:16	305880	60e9b19b0104bf65f6a92237	517737842	1	main_z	7	advance_on_keypress_ZEE	94	stimuli_target_squaretriangles.svg	stimuli_distractor_diamondtriangles.svg	7	yes	57	0	619
6.6.1	mac	2022-12-14	13:02:09	13:07:18	307520	60e9b19b0104bf65f6a92237	517737842	1	main_z	7	main_z	95	stimuli_distractor_trianglediamonds.svg	stimuli_target_squarediamonds.svg	12	yes	44	1	386
6.6.1	mac	2022-12-14	13:02:09	13:07:18	307520	60e9b19b0104bf65f6a92237	517737842	1	main_z	7	advance_on_keypress_ZEE	96	stimuli_distractor_trianglediamonds.svg	stimuli_target_squarediamonds.svg	12	yes	57	0	551
6.6.1	mac	2022-12-14	13:02:09	13:07:19	309017	60e9b19b0104bf65f6a92237	517737842	1	main_z	7	main_z	97	stimuli_distractor_trianglediamonds.svg	stimuli_distractor_diamondtriangles.svg	36	no	44	0	314
6.6.1	mac	2022-12-14	13:02:09	13:07:19	309017	60e9b19b0104bf65f6a92237	517737842	1	main_z	7	advance_on_keypress_ZEE	98	stimuli_distractor_trianglediamonds.svg	stimuli_distractor_diamondtriangles.svg	36	no	57	0	682
6.6.1	mac	2022-12-14	13:02:09	13:07:21	311031	60e9b19b0104bf65f6a92237	517737842	1	main_z	7	main_z	99	stimuli_target_trianglesquares.svg	stimuli_distractor_diamondtriangles.svg	22	yes	44	1	699
6.6.1	mac	2022-12-14	13:02:09	13:07:21	311031	60e9b19b0104bf65f6a92237	517737842	1	main_z	7	advance_on_keypress_ZEE	100	stimuli_target_trianglesquares.svg	stimuli_distractor_diamondtriangles.svg	22	yes	57	0	1047
6.6.1	mac	2022-12-14	13:02:09	13:07:24	313536	60e9b19b0104bf65f6a92237	517737842	1	main_z	7	main_z	101	stimuli_distractor_diamondtriangles.svg	stimuli_target_squarediamonds.svg	16	yes	44	1	833
6.6.1	mac	2022-12-14	13:02:09	13:07:24	313536	60e9b19b0104bf65f6a92237	517737842	1	main_z	7	advance_on_keypress_ZEE	102	stimuli_distractor_diamondtriangles.svg	stimuli_target_squarediamonds.svg	16	yes	57	0	655
6.6.1	mac	2022-12-14	13:02:09	13:07:25	315126	60e9b19b0104bf65f6a92237	517737842	1	main_z	7	main_z	103	stimuli_target_squarediamonds.svg	stimuli_distractor_trianglediamonds.svg	4	yes	44	1	309
6.6.1	mac	2022-12-14	13:02:09	13:07:25	315126	60e9b19b0104bf65f6a92237	517737842	1	main_z	7	advance_on_keypress_ZEE	104	stimuli_target_squarediamonds.svg	stimuli_distractor_trianglediamonds.svg	4	yes	57	0	492
6.6.1	mac	2022-12-14	13:02:09	13:07:27	316746	60e9b19b0104bf65f6a92237	517737842	1	main_z	7	main_z	105	stimuli_distractor_diamondtriangles.svg	stimuli_distractor_trianglediamonds.svg	38	no	44	0	499
6.6.1	mac	2022-12-14	13:02:09	13:07:27	316746	60e9b19b0104bf65f6a92237	517737842	1	main_z	7	advance_on_keypress_ZEE	106	stimuli_distractor_diamondtriangles.svg	stimuli_distractor_trianglediamonds.svg	38	no	57	0	835
6.6.1	mac	2022-12-14	13:02:09	13:07:29	318833	60e9b19b0104bf65f6a92237	517737842	1	main_z	7	main_z	107	stimuli_target_diamondsquares.svg	stimuli_distractor_trianglediamonds.svg	20	yes	44	1	615
6.6.1	mac	2022-12-14	13:02:09	13:07:29	318833	60e9b19b0104bf65f6a92237	517737842	1	main_z	7	advance_on_keypress_ZEE	108	stimuli_target_diamondsquares.svg	stimuli_distractor_trianglediamonds.svg	20	yes	57	0	551
6.6.1	mac	2022-12-14	13:02:09	13:07:31	320327	60e9b19b0104bf65f6a92237	517737842	1	main_z	7	main_z	109	stimuli_distractor_diamondtriangles.svg	stimuli_distractor_diamondtriangles.svg	39	no	44	0	304
6.6.1	mac	2022-12-14	13:02:09	13:07:31	320327	60e9b19b0104bf65f6a92237	517737842	1	main_z	7	advance_on_keypress_ZEE	110	stimuli_distractor_diamondtriangles.svg	stimuli_distractor_diamondtriangles.svg	39	no	57	0	579
6.6.1	mac	2022-12-14	13:02:09	13:07:32	321983	60e9b19b0104bf65f6a92237	517737842	1	main_z	7	main_z	111	stimuli_distractor_trianglediamonds.svg	stimuli_target_trianglesquares.svg	26	yes	44	1	441
6.6.1	mac	2022-12-14	13:02:09	13:07:32	321983	60e9b19b0104bf65f6a92237	517737842	1	main_z	7	advance_on_keypress_ZEE	112	stimuli_distractor_trianglediamonds.svg	stimuli_target_trianglesquares.svg	26	yes	57	0	421
6.6.1	mac	2022-12-14	13:02:09	13:07:35	325045	60e9b19b0104bf65f6a92237	517737842	1	main_z	7	main_z	113	stimuli_distractor_diamondtriangles.svg	stimuli_distractor_trianglediamonds.svg	37	no	0	1	2000
6.6.1	mac	2022-12-14	13:02:09	13:07:35	325045	60e9b19b0104bf65f6a92237	517737842	1	main_z	7	advance_on_keypress_ZEE	114	stimuli_distractor_diamondtriangles.svg	stimuli_distractor_trianglediamonds.svg	37	no	57	0	242
6.6.1	mac	2022-12-14	13:02:09	13:07:37	326294	60e9b19b0104bf65f6a92237	517737842	1	main_z	7	main_z	115	stimuli_distractor_diamondtriangles.svg	stimuli_target_trianglesquares.svg	30	yes	44	1	383
6.6.1	mac	2022-12-14	13:02:09	13:07:37	326294	60e9b19b0104bf65f6a92237	517737842	1	main_z	7	advance_on_keypress_ZEE	116	stimuli_distractor_diamondtriangles.svg	stimuli_target_trianglesquares.svg	30	yes	57	0	360
6.6.1	mac	2022-12-14	13:02:09	13:07:38	327782	60e9b19b0104bf65f6a92237	517737842	1	main_z	7	main_z	117	stimuli_target_circletriangles.svg	stimuli_distractor_trianglediamonds.svg	1	yes	44	1	501
6.6.1	mac	2022-12-14	13:02:09	13:07:38	327782	60e9b19b0104bf65f6a92237	517737842	1	main_z	7	advance_on_keypress_ZEE	118	stimuli_target_circletriangles.svg	stimuli_distractor_trianglediamonds.svg	1	yes	57	0	321
6.6.1	mac	2022-12-14	13:02:09	13:07:39	329064	60e9b19b0104bf65f6a92237	517737842	1	main_z	7	main_z	119	stimuli_target_circletriangles.svg	stimuli_distractor_diamondtriangles.svg	5	yes	44	1	327
6.6.1	mac	2022-12-14	13:02:09	13:07:39	329064	60e9b19b0104bf65f6a92237	517737842	1	main_z	7	advance_on_keypress_ZEE	120	stimuli_target_circletriangles.svg	stimuli_distractor_diamondtriangles.svg	5	yes	57	0	315
6.6.1	mac	2022-12-14	13:02:09	13:07:41	330318	60e9b19b0104bf65f6a92237	517737842	1	main_z	7	main_z	121	stimuli_target_squaretriangles.svg	stimuli_distractor_trianglediamonds.svg	3	yes	44	1	305
6.6.1	mac	2022-12-14	13:02:09	13:07:41	330318	60e9b19b0104bf65f6a92237	517737842	1	main_z	7	advance_on_keypress_ZEE	122	stimuli_target_squaretriangles.svg	stimuli_distractor_trianglediamonds.svg	3	yes	57	0	396
6.6.1	mac	2022-12-14	13:02:09	13:07:42	331713	60e9b19b0104bf65f6a92237	517737842	1	main_z	7	main_z	123	stimuli_target_trianglecircles.svg	stimuli_distractor_diamondtriangles.svg	21	yes	44	1	379
6.6.1	mac	2022-12-14	13:02:09	13:07:42	331713	60e9b19b0104bf65f6a92237	517737842	1	main_z	7	advance_on_keypress_ZEE	124	stimuli_target_trianglecircles.svg	stimuli_distractor_diamondtriangles.svg	21	yes	57	0	373
6.6.1	mac	2022-12-14	13:02:09	13:07:43	333176	60e9b19b0104bf65f6a92237	517737842	1	main_z	7	main_z	125	stimuli_distractor_trianglediamonds.svg	stimuli_target_diamondcircles.svg	27	yes	44	1	463
6.6.1	mac	2022-12-14	13:02:09	13:07:43	333176	60e9b19b0104bf65f6a92237	517737842	1	main_z	7	advance_on_keypress_ZEE	126	stimuli_distractor_trianglediamonds.svg	stimuli_target_diamondcircles.svg	27	yes	57	0	358
6.6.1	mac	2022-12-14	13:02:09	13:07:46	336157	60e9b19b0104bf65f6a92237	517737842	1	main_z	7	main_z	127	stimuli_distractor_diamondtriangles.svg	stimuli_target_circletriangles.svg	13	yes	0	0	2000
6.6.1	mac	2022-12-14	13:02:09	13:07:46	336157	60e9b19b0104bf65f6a92237	517737842	1	main_z	7	advance_on_keypress_ZEE	128	stimuli_distractor_diamondtriangles.svg	stimuli_target_circletriangles.svg	13	yes	57	0	557
6.6.1	mac	2022-12-14	13:02:09	13:07:48	337634	60e9b19b0104bf65f6a92237	517737842	1	main_z	7	main_z	129	stimuli_distractor_diamondtriangles.svg	stimuli_target_diamondcircles.svg	31	yes	44	1	291
6.6.1	mac	2022-12-14	13:02:09	13:07:48	337634	60e9b19b0104bf65f6a92237	517737842	1	main_z	7	advance_on_keypress_ZEE	130	stimuli_distractor_diamondtriangles.svg	stimuli_target_diamondcircles.svg	31	yes	57	0	332
6.6.1	mac	2022-12-14	13:02:09	13:07:51	340587	60e9b19b0104bf65f6a92237	517737842	1	main_z	7	main_z	131	stimuli_distractor_diamondtriangles.svg	stimuli_distractor_diamondtriangles.svg	40	no	0	1	2000
6.6.1	mac	2022-12-14	13:02:09	13:07:51	340587	60e9b19b0104bf65f6a92237	517737842	1	main_z	7	advance_on_keypress_ZEE	132	stimuli_distractor_diamondtriangles.svg	stimuli_distractor_diamondtriangles.svg	40	no	57	0	223
6.6.1	mac	2022-12-14	13:02:09	13:07:52	341778	60e9b19b0104bf65f6a92237	517737842	1	main_z	7	main_z	133	stimuli_distractor_trianglediamonds.svg	stimuli_target_squaretriangles.svg	11	yes	44	1	335
6.6.1	mac	2022-12-14	13:02:09	13:07:52	341778	60e9b19b0104bf65f6a92237	517737842	1	main_z	7	advance_on_keypress_ZEE	134	stimuli_distractor_trianglediamonds.svg	stimuli_target_squaretriangles.svg	11	yes	57	0	314
6.6.1	mac	2022-12-14	13:02:09	13:07:53	343076	60e9b19b0104bf65f6a92237	517737842	1	main_z	7	main_z	135	stimuli_distractor_trianglediamonds.svg	stimuli_target_trianglecircles.svg	25	yes	44	1	344
6.6.1	mac	2022-12-14	13:02:09	13:07:53	343076	60e9b19b0104bf65f6a92237	517737842	1	main_z	7	advance_on_keypress_ZEE	136	stimuli_distractor_trianglediamonds.svg	stimuli_target_trianglecircles.svg	25	yes	57	0	323
6.6.1	mac	2022-12-14	13:02:09	13:07:55	344381	60e9b19b0104bf65f6a92237	517737842	1	main_z	7	main_z	137	stimuli_target_diamondcircles.svg	stimuli_distractor_trianglediamonds.svg	19	yes	44	1	353
6.6.1	mac	2022-12-14	13:02:09	13:07:55	344381	60e9b19b0104bf65f6a92237	517737842	1	main_z	7	advance_on_keypress_ZEE	138	stimuli_target_diamondcircles.svg	stimuli_distractor_trianglediamonds.svg	19	yes	57	0	282
6.6.1	mac	2022-12-14	13:02:09	13:07:56	345628	60e9b19b0104bf65f6a92237	517737842	1	main_z	7	main_z	139	stimuli_distractor_diamondtriangles.svg	stimuli_target_diamondsquares.svg	32	yes	44	1	329
6.6.1	mac	2022-12-14	13:02:09	13:07:56	345628	60e9b19b0104bf65f6a92237	517737842	1	main_z	7	advance_on_keypress_ZEE	140	stimuli_distractor_diamondtriangles.svg	stimuli_target_diamondsquares.svg	32	yes	57	0	344
6.6.1	mac	2022-12-14	13:02:09	13:07:57	346955	60e9b19b0104bf65f6a92237	517737842	1	main_z	7	main_z	141	stimuli_distractor_trianglediamonds.svg	stimuli_distractor_trianglediamonds.svg	33	no	44	0	362
6.6.1	mac	2022-12-14	13:02:09	13:07:57	346955	60e9b19b0104bf65f6a92237	517737842	1	main_z	7	advance_on_keypress_ZEE	142	stimuli_distractor_trianglediamonds.svg	stimuli_distractor_trianglediamonds.svg	33	no	57	0	1199
6.6.1	mac	2022-12-14	13:02:09	13:07:59	349111	60e9b19b0104bf65f6a92237	517737842	1	main_z	7	main_z	143	stimuli_target_circlediamonds.svg	stimuli_distractor_trianglediamonds.svg	2	yes	44	1	339
6.6.1	mac	2022-12-14	13:02:09	13:07:59	349111	60e9b19b0104bf65f6a92237	517737842	1	main_z	7	advance_on_keypress_ZEE	144	stimuli_target_circlediamonds.svg	stimuli_distractor_trianglediamonds.svg	2	yes	57	0	294
6.6.1	mac	2022-12-14	13:02:09	13:08:01	350753	60e9b19b0104bf65f6a92237	517737842	1	main_z	7	main_z	145	stimuli_target_trianglecircles.svg	stimuli_distractor_trianglediamonds.svg	17	yes	44	1	704
6.6.1	mac	2022-12-14	13:02:09	13:08:01	350753	60e9b19b0104bf65f6a92237	517737842	1	main_z	7	advance_on_keypress_ZEE	146	stimuli_target_trianglecircles.svg	stimuli_distractor_trianglediamonds.svg	17	yes	57	0	294
6.6.1	mac	2022-12-14	13:02:09	13:08:02	352016	60e9b19b0104bf65f6a92237	517737842	1	main_z	7	main_z	147	stimuli_distractor_trianglediamonds.svg	stimuli_distractor_trianglediamonds.svg	34	no	44	0	343
6.6.1	mac	2022-12-14	13:02:09	13:08:02	352016	60e9b19b0104bf65f6a92237	517737842	1	main_z	7	advance_on_keypress_ZEE	148	stimuli_distractor_trianglediamonds.svg	stimuli_distractor_trianglediamonds.svg	34	no	57	0	814
6.6.1	mac	2022-12-14	13:02:09	13:08:04	353855	60e9b19b0104bf65f6a92237	517737842	1	main_z	7	main_z	149	stimuli_distractor_diamondtriangles.svg	stimuli_target_circlediamonds.svg	14	yes	44	1	403
6.6.1	mac	2022-12-14	13:02:09	13:08:04	353855	60e9b19b0104bf65f6a92237	517737842	1	main_z	7	advance_on_keypress_ZEE	150	stimuli_distractor_diamondtriangles.svg	stimuli_target_circlediamonds.svg	14	yes	57	0	350
6.6.1	mac	2022-12-14	13:02:09	13:08:06	355290	60e9b19b0104bf65f6a92237	517737842	1	main_z	7	main_z	151	stimuli_distractor_diamondtriangles.svg	stimuli_target_trianglecircles.svg	29	yes	44	1	459
6.6.1	mac	2022-12-14	13:02:09	13:08:06	355290	60e9b19b0104bf65f6a92237	517737842	1	main_z	7	advance_on_keypress_ZEE	152	stimuli_distractor_diamondtriangles.svg	stimuli_target_trianglecircles.svg	29	yes	57	0	324
6.6.1	mac	2022-12-14	13:02:09	13:08:07	356528	60e9b19b0104bf65f6a92237	517737842	1	main_z	7	main_z	153	stimuli_target_circlediamonds.svg	stimuli_distractor_diamondtriangles.svg	6	yes	44	1	281
6.6.1	mac	2022-12-14	13:02:09	13:08:07	356528	60e9b19b0104bf65f6a92237	517737842	1	main_z	7	advance_on_keypress_ZEE	154	stimuli_target_circlediamonds.svg	stimuli_distractor_diamondtriangles.svg	6	yes	57	0	409
6.6.1	mac	2022-12-14	13:02:09	13:08:08	357940	60e9b19b0104bf65f6a92237	517737842	1	main_z	7	main_z	155	stimuli_target_squarediamonds.svg	stimuli_distractor_diamondtriangles.svg	8	yes	44	1	372
6.6.1	mac	2022-12-14	13:02:09	13:08:08	357940	60e9b19b0104bf65f6a92237	517737842	1	main_z	7	advance_on_keypress_ZEE	156	stimuli_target_squarediamonds.svg	stimuli_distractor_diamondtriangles.svg	8	yes	57	0	317
6.6.1	mac	2022-12-14	13:02:09	13:08:11	360882	60e9b19b0104bf65f6a92237	517737842	1	main_z	7	main_z	157	stimuli_distractor_trianglediamonds.svg	stimuli_distractor_diamondtriangles.svg	35	no	0	1	2000
6.6.1	mac	2022-12-14	13:02:09	13:08:11	360882	60e9b19b0104bf65f6a92237	517737842	1	main_z	7	advance_on_keypress_ZEE	158	stimuli_distractor_trianglediamonds.svg	stimuli_distractor_diamondtriangles.svg	35	no	57	0	531
6.6.1	mac	2022-12-14	13:02:09	13:08:13	362418	60e9b19b0104bf65f6a92237	517737842	1	main_z	7	main_z	159	stimuli_distractor_trianglediamonds.svg	stimuli_target_circletriangles.svg	9	yes	44	1	388
6.6.1	mac	2022-12-14	13:02:09	13:08:13	362418	60e9b19b0104bf65f6a92237	517737842	1	main_z	7	advance_on_keypress_ZEE	160	stimuli_distractor_trianglediamonds.svg	stimuli_target_circletriangles.svg	9	yes	57	0	296
6.6.1	mac	2022-12-14	13:02:09	13:08:30	379613	60e9b19b0104bf65f6a92237	517737842	1	practice_slash	9	practice_slash	1	stimuli_distractor_diamondtriangles.svg	stimuli_distractor_diamondtriangles.svg	13	no	53	0	481
6.6.1	mac	2022-12-14	13:02:09	13:08:30	379613	60e9b19b0104bf65f6a92237	517737842	1	practice_slash	9	advance_on_keypress_SLASH	2	stimuli_distractor_diamondtriangles.svg	stimuli_distractor_diamondtriangles.svg	13	no	57	0	716
6.6.1	mac	2022-12-14	13:02:09	13:08:32	382180	60e9b19b0104bf65f6a92237	517737842	1	practice_slash	9	practice_slash	3	stimuli_distractor_trianglediamonds.svg	stimuli_target_circlediamonds.svg	10	yes	53	1	235
6.6.1	mac	2022-12-14	13:02:09	13:08:32	382180	60e9b19b0104bf65f6a92237	517737842	1	practice_slash	9	advance_on_keypress_SLASH	4	stimuli_distractor_trianglediamonds.svg	stimuli_target_circlediamonds.svg	10	yes	57	0	440
6.6.1	mac	2022-12-14	13:02:09	13:08:35	384790	60e9b19b0104bf65f6a92237	517737842	1	practice_slash	9	practice_slash	5	stimuli_target_diamondsquares.svg	stimuli_distractor_diamondtriangles.svg	3	yes	53	1	540
6.6.1	mac	2022-12-14	13:02:09	13:08:35	384790	60e9b19b0104bf65f6a92237	517737842	1	practice_slash	9	advance_on_keypress_SLASH	6	stimuli_target_diamondsquares.svg	stimuli_distractor_diamondtriangles.svg	3	yes	57	0	642
6.6.1	mac	2022-12-14	13:02:09	13:08:38	387440	60e9b19b0104bf65f6a92237	517737842	1	practice_slash	9	practice_slash	7	stimuli_target_circlediamonds.svg	stimuli_distractor_trianglediamonds.svg	4	yes	53	1	374
6.6.1	mac	2022-12-14	13:02:09	13:08:38	387440	60e9b19b0104bf65f6a92237	517737842	1	practice_slash	9	advance_on_keypress_SLASH	8	stimuli_target_circlediamonds.svg	stimuli_distractor_trianglediamonds.svg	4	yes	57	0	1366
6.6.1	mac	2022-12-14	13:02:09	13:08:41	390909	60e9b19b0104bf65f6a92237	517737842	1	practice_slash	9	practice_slash	9	stimuli_distractor_trianglediamonds.svg	stimuli_target_squarediamonds.svg	11	yes	53	1	482
6.6.1	mac	2022-12-14	13:02:09	13:08:41	390909	60e9b19b0104bf65f6a92237	517737842	1	practice_slash	9	advance_on_keypress_SLASH	10	stimuli_distractor_trianglediamonds.svg	stimuli_target_squarediamonds.svg	11	yes	57	0	608
6.6.1	mac	2022-12-14	13:02:09	13:08:44	393535	60e9b19b0104bf65f6a92237	517737842	1	practice_slash	9	practice_slash	11	stimuli_distractor_trianglediamonds.svg	stimuli_distractor_diamondtriangles.svg	16	no	53	0	390
6.6.1	mac	2022-12-14	13:02:09	13:08:44	393535	60e9b19b0104bf65f6a92237	517737842	1	practice_slash	9	advance_on_keypress_SLASH	12	stimuli_distractor_trianglediamonds.svg	stimuli_distractor_diamondtriangles.svg	16	no	57	0	612
6.6.1	mac	2022-12-14	13:02:09	13:08:46	396165	60e9b19b0104bf65f6a92237	517737842	1	practice_slash	9	practice_slash	13	stimuli_target_squarediamonds.svg	stimuli_distractor_diamondtriangles.svg	2	yes	53	1	397
6.6.1	mac	2022-12-14	13:02:09	13:08:46	396165	60e9b19b0104bf65f6a92237	517737842	1	practice_slash	9	advance_on_keypress_SLASH	14	stimuli_target_squarediamonds.svg	stimuli_distractor_diamondtriangles.svg	2	yes	57	0	491
6.6.1	mac	2022-12-14	13:02:09	13:08:49	398941	60e9b19b0104bf65f6a92237	517737842	1	practice_slash	9	practice_slash	15	stimuli_target_diamondsquares.svg	stimuli_distractor_trianglediamonds.svg	6	yes	53	1	660
6.6.1	mac	2022-12-14	13:02:09	13:08:49	398941	60e9b19b0104bf65f6a92237	517737842	1	practice_slash	9	advance_on_keypress_SLASH	16	stimuli_target_diamondsquares.svg	stimuli_distractor_trianglediamonds.svg	6	yes	57	0	321
6.6.1	mac	2022-12-14	13:02:09	13:08:52	401351	60e9b19b0104bf65f6a92237	517737842	1	practice_slash	9	practice_slash	17	stimuli_distractor_trianglediamonds.svg	stimuli_target_diamondcircles.svg	12	yes	53	1	457
6.6.1	mac	2022-12-14	13:02:09	13:08:52	401351	60e9b19b0104bf65f6a92237	517737842	1	practice_slash	9	advance_on_keypress_SLASH	18	stimuli_distractor_trianglediamonds.svg	stimuli_target_diamondcircles.svg	12	yes	57	0	401
6.6.1	mac	2022-12-14	13:02:09	13:08:54	403680	60e9b19b0104bf65f6a92237	517737842	1	practice_slash	9	practice_slash	19	stimuli_distractor_diamondtriangles.svg	stimuli_target_diamondcircles.svg	8	yes	53	1	303
6.6.1	mac	2022-12-14	13:02:09	13:08:54	403680	60e9b19b0104bf65f6a92237	517737842	1	practice_slash	9	advance_on_keypress_SLASH	20	stimuli_distractor_diamondtriangles.svg	stimuli_target_diamondcircles.svg	8	yes	57	0	288
6.6.1	mac	2022-12-14	13:02:09	13:08:56	405960	60e9b19b0104bf65f6a92237	517737842	1	practice_slash	9	practice_slash	21	stimuli_target_circlediamonds.svg	stimuli_distractor_diamondtriangles.svg	1	yes	53	1	364
6.6.1	mac	2022-12-14	13:02:09	13:08:56	405960	60e9b19b0104bf65f6a92237	517737842	1	practice_slash	9	advance_on_keypress_SLASH	22	stimuli_target_circlediamonds.svg	stimuli_distractor_diamondtriangles.svg	1	yes	57	0	356
6.6.1	mac	2022-12-14	13:02:09	13:08:59	408264	60e9b19b0104bf65f6a92237	517737842	1	practice_slash	9	practice_slash	23	stimuli_target_squarediamonds.svg	stimuli_distractor_trianglediamonds.svg	5	yes	53	1	316
6.6.1	mac	2022-12-14	13:02:09	13:08:59	408264	60e9b19b0104bf65f6a92237	517737842	1	practice_slash	9	advance_on_keypress_SLASH	24	stimuli_target_squarediamonds.svg	stimuli_distractor_trianglediamonds.svg	5	yes	57	0	127
6.6.1	mac	2022-12-14	13:02:09	13:09:01	410474	60e9b19b0104bf65f6a92237	517737842	1	practice_slash	9	practice_slash	25	stimuli_distractor_diamondtriangles.svg	stimuli_target_circletriangles.svg	7	yes	53	1	457
6.6.1	mac	2022-12-14	13:02:09	13:09:01	410474	60e9b19b0104bf65f6a92237	517737842	1	practice_slash	9	advance_on_keypress_SLASH	26	stimuli_distractor_diamondtriangles.svg	stimuli_target_circletriangles.svg	7	yes	57	0	269
6.6.1	mac	2022-12-14	13:02:09	13:09:03	412662	60e9b19b0104bf65f6a92237	517737842	1	practice_slash	9	practice_slash	27	stimuli_distractor_diamondtriangles.svg	stimuli_target_trianglecircles.svg	9	yes	53	1	280
6.6.1	mac	2022-12-14	13:02:09	13:09:03	412662	60e9b19b0104bf65f6a92237	517737842	1	practice_slash	9	advance_on_keypress_SLASH	28	stimuli_distractor_diamondtriangles.svg	stimuli_target_trianglecircles.svg	9	yes	57	0	435
6.6.1	mac	2022-12-14	13:02:09	13:09:05	414990	60e9b19b0104bf65f6a92237	517737842	1	practice_slash	9	practice_slash	29	stimuli_distractor_trianglediamonds.svg	stimuli_distractor_trianglediamonds.svg	15	no	53	0	279
6.6.1	mac	2022-12-14	13:02:09	13:09:05	414990	60e9b19b0104bf65f6a92237	517737842	1	practice_slash	9	advance_on_keypress_SLASH	30	stimuli_distractor_trianglediamonds.svg	stimuli_distractor_trianglediamonds.svg	15	no	57	0	1008
6.6.1	mac	2022-12-14	13:02:09	13:09:08	418047	60e9b19b0104bf65f6a92237	517737842	1	practice_slash	9	practice_slash	31	stimuli_distractor_diamondtriangles.svg	stimuli_distractor_trianglediamonds.svg	14	no	53	0	425
6.6.1	mac	2022-12-14	13:02:09	13:09:08	418047	60e9b19b0104bf65f6a92237	517737842	1	practice_slash	9	advance_on_keypress_SLASH	32	stimuli_distractor_diamondtriangles.svg	stimuli_distractor_trianglediamonds.svg	14	no	57	0	871
6.6.1	mac	2022-12-14	13:02:09	13:09:12	421453	60e9b19b0104bf65f6a92237	517737842	1	main_slash	11	main_slash	1	stimuli_distractor_trianglediamonds.svg	stimuli_target_diamondsquares.svg	28	yes	53	1	319
6.6.1	mac	2022-12-14	13:02:09	13:09:12	421453	60e9b19b0104bf65f6a92237	517737842	1	main_slash	11	advance_on_keypress_SLASH	2	stimuli_distractor_trianglediamonds.svg	stimuli_target_diamondsquares.svg	28	yes	57	0	919
6.6.1	mac	2022-12-14	13:02:09	13:09:14	423372	60e9b19b0104bf65f6a92237	517737842	1	main_slash	11	main_slash	3	stimuli_target_circlediamonds.svg	stimuli_distractor_diamondtriangles.svg	6	yes	53	1	369
6.6.1	mac	2022-12-14	13:02:09	13:09:14	423372	60e9b19b0104bf65f6a92237	517737842	1	main_slash	11	advance_on_keypress_SLASH	4	stimuli_target_circlediamonds.svg	stimuli_distractor_diamondtriangles.svg	6	yes	57	0	438
6.6.1	mac	2022-12-14	13:02:09	13:09:15	424774	60e9b19b0104bf65f6a92237	517737842	1	main_slash	11	main_slash	5	stimuli_target_circlediamonds.svg	stimuli_distractor_trianglediamonds.svg	2	yes	53	1	341
6.6.1	mac	2022-12-14	13:02:09	13:09:15	424774	60e9b19b0104bf65f6a92237	517737842	1	main_slash	11	advance_on_keypress_SLASH	6	stimuli_target_circlediamonds.svg	stimuli_distractor_trianglediamonds.svg	2	yes	57	0	1226
6.6.1	mac	2022-12-14	13:02:09	13:09:17	426983	60e9b19b0104bf65f6a92237	517737842	1	main_slash	11	main_slash	7	stimuli_distractor_diamondtriangles.svg	stimuli_target_diamondcircles.svg	31	yes	53	1	355
6.6.1	mac	2022-12-14	13:02:09	13:09:17	426983	60e9b19b0104bf65f6a92237	517737842	1	main_slash	11	advance_on_keypress_SLASH	8	stimuli_distractor_diamondtriangles.svg	stimuli_target_diamondcircles.svg	31	yes	57	0	960
6.6.1	mac	2022-12-14	13:02:09	13:09:19	428890	60e9b19b0104bf65f6a92237	517737842	1	main_slash	11	main_slash	9	stimuli_target_trianglecircles.svg	stimuli_distractor_diamondtriangles.svg	21	yes	53	1	323
6.6.1	mac	2022-12-14	13:02:09	13:09:19	428890	60e9b19b0104bf65f6a92237	517737842	1	main_slash	11	advance_on_keypress_SLASH	10	stimuli_target_trianglecircles.svg	stimuli_distractor_diamondtriangles.svg	21	yes	57	0	509
6.6.1	mac	2022-12-14	13:02:09	13:09:21	430427	60e9b19b0104bf65f6a92237	517737842	1	main_slash	11	main_slash	11	stimuli_target_trianglesquares.svg	stimuli_distractor_diamondtriangles.svg	22	yes	53	1	398
6.6.1	mac	2022-12-14	13:02:09	13:09:21	430427	60e9b19b0104bf65f6a92237	517737842	1	main_slash	11	advance_on_keypress_SLASH	12	stimuli_target_trianglesquares.svg	stimuli_distractor_diamondtriangles.svg	22	yes	57	0	523
6.6.1	mac	2022-12-14	13:02:09	13:09:22	431841	60e9b19b0104bf65f6a92237	517737842	1	main_slash	11	main_slash	13	stimuli_target_circletriangles.svg	stimuli_distractor_diamondtriangles.svg	5	yes	53	1	259
6.6.1	mac	2022-12-14	13:02:09	13:09:22	431841	60e9b19b0104bf65f6a92237	517737842	1	main_slash	11	advance_on_keypress_SLASH	14	stimuli_target_circletriangles.svg	stimuli_distractor_diamondtriangles.svg	5	yes	57	0	428
6.6.1	mac	2022-12-14	13:02:09	13:09:23	433235	60e9b19b0104bf65f6a92237	517737842	1	main_slash	11	main_slash	15	stimuli_target_squarediamonds.svg	stimuli_distractor_trianglediamonds.svg	4	yes	53	1	324
6.6.1	mac	2022-12-14	13:02:09	13:09:23	433235	60e9b19b0104bf65f6a92237	517737842	1	main_slash	11	advance_on_keypress_SLASH	16	stimuli_target_squarediamonds.svg	stimuli_distractor_trianglediamonds.svg	4	yes	57	0	449
6.6.1	mac	2022-12-14	13:02:09	13:09:25	434550	60e9b19b0104bf65f6a92237	517737842	1	main_slash	11	main_slash	17	stimuli_target_diamondcircles.svg	stimuli_distractor_trianglediamonds.svg	19	yes	53	1	242
6.6.1	mac	2022-12-14	13:02:09	13:09:25	434550	60e9b19b0104bf65f6a92237	517737842	1	main_slash	11	advance_on_keypress_SLASH	18	stimuli_target_diamondcircles.svg	stimuli_distractor_trianglediamonds.svg	19	yes	57	0	558
6.6.1	mac	2022-12-14	13:02:09	13:09:26	436070	60e9b19b0104bf65f6a92237	517737842	1	main_slash	11	main_slash	19	stimuli_distractor_trianglediamonds.svg	stimuli_target_circletriangles.svg	9	yes	53	1	333
6.6.1	mac	2022-12-14	13:02:09	13:09:26	436070	60e9b19b0104bf65f6a92237	517737842	1	main_slash	11	advance_on_keypress_SLASH	20	stimuli_distractor_trianglediamonds.svg	stimuli_target_circletriangles.svg	9	yes	57	0	471
6.6.1	mac	2022-12-14	13:02:09	13:09:29	439172	60e9b19b0104bf65f6a92237	517737842	1	main_slash	11	main_slash	21	stimuli_distractor_diamondtriangles.svg	stimuli_distractor_diamondtriangles.svg	39	no	0	1	2000
6.6.1	mac	2022-12-14	13:02:09	13:09:29	439172	60e9b19b0104bf65f6a92237	517737842	1	main_slash	11	advance_on_keypress_SLASH	22	stimuli_distractor_diamondtriangles.svg	stimuli_distractor_diamondtriangles.svg	39	no	57	0	348
6.6.1	mac	2022-12-14	13:02:09	13:09:31	440550	60e9b19b0104bf65f6a92237	517737842	1	main_slash	11	main_slash	23	stimuli_target_circletriangles.svg	stimuli_distractor_trianglediamonds.svg	1	yes	53	1	411
6.6.1	mac	2022-12-14	13:02:09	13:09:31	440550	60e9b19b0104bf65f6a92237	517737842	1	main_slash	11	advance_on_keypress_SLASH	24	stimuli_target_circletriangles.svg	stimuli_distractor_trianglediamonds.svg	1	yes	57	0	359
6.6.1	mac	2022-12-14	13:02:09	13:09:34	443549	60e9b19b0104bf65f6a92237	517737842	1	main_slash	11	main_slash	25	stimuli_distractor_diamondtriangles.svg	stimuli_distractor_diamondtriangles.svg	40	no	0	1	2000
6.6.1	mac	2022-12-14	13:02:09	13:09:34	443549	60e9b19b0104bf65f6a92237	517737842	1	main_slash	11	advance_on_keypress_SLASH	26	stimuli_distractor_diamondtriangles.svg	stimuli_distractor_diamondtriangles.svg	40	no	57	0	274
6.6.1	mac	2022-12-14	13:02:09	13:09:35	444711	60e9b19b0104bf65f6a92237	517737842	1	main_slash	11	main_slash	27	stimuli_target_squarediamonds.svg	stimuli_distractor_diamondtriangles.svg	8	yes	53	1	255
6.6.1	mac	2022-12-14	13:02:09	13:09:35	444711	60e9b19b0104bf65f6a92237	517737842	1	main_slash	11	advance_on_keypress_SLASH	28	stimuli_target_squarediamonds.svg	stimuli_distractor_diamondtriangles.svg	8	yes	57	0	343
6.6.1	mac	2022-12-14	13:02:09	13:09:37	446541	60e9b19b0104bf65f6a92237	517737842	1	main_slash	11	main_slash	29	stimuli_target_squaretriangles.svg	stimuli_distractor_diamondtriangles.svg	7	yes	53	1	863
6.6.1	mac	2022-12-14	13:02:09	13:09:37	446541	60e9b19b0104bf65f6a92237	517737842	1	main_slash	11	advance_on_keypress_SLASH	30	stimuli_target_squaretriangles.svg	stimuli_distractor_diamondtriangles.svg	7	yes	57	0	306
6.6.1	mac	2022-12-14	13:02:09	13:09:38	448015	60e9b19b0104bf65f6a92237	517737842	1	main_slash	11	main_slash	31	stimuli_distractor_trianglediamonds.svg	stimuli_target_diamondcircles.svg	27	yes	53	1	534
6.6.1	mac	2022-12-14	13:02:09	13:09:38	448015	60e9b19b0104bf65f6a92237	517737842	1	main_slash	11	advance_on_keypress_SLASH	32	stimuli_distractor_trianglediamonds.svg	stimuli_target_diamondcircles.svg	27	yes	57	0	397
6.6.1	mac	2022-12-14	13:02:09	13:09:40	449916	60e9b19b0104bf65f6a92237	517737842	1	main_slash	11	main_slash	33	stimuli_distractor_trianglediamonds.svg	stimuli_target_squarediamonds.svg	12	yes	53	1	869
6.6.1	mac	2022-12-14	13:02:09	13:09:40	449916	60e9b19b0104bf65f6a92237	517737842	1	main_slash	11	advance_on_keypress_SLASH	34	stimuli_distractor_trianglediamonds.svg	stimuli_target_squarediamonds.svg	12	yes	57	0	611
6.6.1	mac	2022-12-14	13:02:09	13:09:42	451440	60e9b19b0104bf65f6a92237	517737842	1	main_slash	11	main_slash	35	stimuli_distractor_trianglediamonds.svg	stimuli_target_circlediamonds.svg	10	yes	53	1	287
6.6.1	mac	2022-12-14	13:02:09	13:09:42	451440	60e9b19b0104bf65f6a92237	517737842	1	main_slash	11	advance_on_keypress_SLASH	36	stimuli_distractor_trianglediamonds.svg	stimuli_target_circlediamonds.svg	10	yes	57	0	416
6.6.1	mac	2022-12-14	13:02:09	13:09:43	452789	60e9b19b0104bf65f6a92237	517737842	1	main_slash	11	main_slash	37	stimuli_distractor_diamondtriangles.svg	stimuli_target_circletriangles.svg	13	yes	53	1	299
6.6.1	mac	2022-12-14	13:02:09	13:09:43	452789	60e9b19b0104bf65f6a92237	517737842	1	main_slash	11	advance_on_keypress_SLASH	38	stimuli_distractor_diamondtriangles.svg	stimuli_target_circletriangles.svg	13	yes	57	0	362
6.6.1	mac	2022-12-14	13:02:09	13:09:44	454076	60e9b19b0104bf65f6a92237	517737842	1	main_slash	11	main_slash	39	stimuli_distractor_trianglediamonds.svg	stimuli_target_squaretriangles.svg	11	yes	53	1	307
6.6.1	mac	2022-12-14	13:02:09	13:09:44	454076	60e9b19b0104bf65f6a92237	517737842	1	main_slash	11	advance_on_keypress_SLASH	40	stimuli_distractor_trianglediamonds.svg	stimuli_target_squaretriangles.svg	11	yes	57	0	347
6.6.1	mac	2022-12-14	13:02:09	13:09:46	455383	60e9b19b0104bf65f6a92237	517737842	1	main_slash	11	main_slash	41	stimuli_distractor_trianglediamonds.svg	stimuli_target_trianglesquares.svg	26	yes	53	1	325
6.6.1	mac	2022-12-14	13:02:09	13:09:46	455383	60e9b19b0104bf65f6a92237	517737842	1	main_slash	11	advance_on_keypress_SLASH	42	stimuli_distractor_trianglediamonds.svg	stimuli_target_trianglesquares.svg	26	yes	57	0	413
6.6.1	mac	2022-12-14	13:02:09	13:09:49	458418	60e9b19b0104bf65f6a92237	517737842	1	main_slash	11	main_slash	43	stimuli_distractor_trianglediamonds.svg	stimuli_distractor_diamondtriangles.svg	36	no	0	1	2000
6.6.1	mac	2022-12-14	13:02:09	13:09:49	458418	60e9b19b0104bf65f6a92237	517737842	1	main_slash	11	advance_on_keypress_SLASH	44	stimuli_distractor_trianglediamonds.svg	stimuli_distractor_diamondtriangles.svg	36	no	57	0	509
6.6.1	mac	2022-12-14	13:02:09	13:09:50	459792	60e9b19b0104bf65f6a92237	517737842	1	main_slash	11	main_slash	45	stimuli_distractor_diamondtriangles.svg	stimuli_distractor_trianglediamonds.svg	37	no	53	0	239
6.6.1	mac	2022-12-14	13:02:09	13:09:50	459792	60e9b19b0104bf65f6a92237	517737842	1	main_slash	11	advance_on_keypress_SLASH	46	stimuli_distractor_diamondtriangles.svg	stimuli_distractor_trianglediamonds.svg	37	no	57	0	355
6.6.1	mac	2022-12-14	13:02:09	13:09:51	461108	60e9b19b0104bf65f6a92237	517737842	1	main_slash	11	main_slash	47	stimuli_target_squaretriangles.svg	stimuli_distractor_trianglediamonds.svg	3	yes	53	1	329
6.6.1	mac	2022-12-14	13:02:09	13:09:51	461108	60e9b19b0104bf65f6a92237	517737842	1	main_slash	11	advance_on_keypress_SLASH	48	stimuli_target_squaretriangles.svg	stimuli_distractor_trianglediamonds.svg	3	yes	57	0	334
6.6.1	mac	2022-12-14	13:02:09	13:09:53	462335	60e9b19b0104bf65f6a92237	517737842	1	main_slash	11	main_slash	49	stimuli_distractor_diamondtriangles.svg	stimuli_target_circlediamonds.svg	14	yes	53	1	260
6.6.1	mac	2022-12-14	13:02:09	13:09:53	462335	60e9b19b0104bf65f6a92237	517737842	1	main_slash	11	advance_on_keypress_SLASH	50	stimuli_distractor_diamondtriangles.svg	stimuli_target_circlediamonds.svg	14	yes	57	0	365
6.6.1	mac	2022-12-14	13:02:09	13:09:54	463577	60e9b19b0104bf65f6a92237	517737842	1	main_slash	11	main_slash	51	stimuli_target_diamondsquares.svg	stimuli_distractor_trianglediamonds.svg	20	yes	53	1	258
6.6.1	mac	2022-12-14	13:02:09	13:09:54	463577	60e9b19b0104bf65f6a92237	517737842	1	main_slash	11	advance_on_keypress_SLASH	52	stimuli_target_diamondsquares.svg	stimuli_distractor_trianglediamonds.svg	20	yes	57	0	439
6.6.1	mac	2022-12-14	13:02:09	13:09:57	466639	60e9b19b0104bf65f6a92237	517737842	1	main_slash	11	main_slash	53	stimuli_distractor_trianglediamonds.svg	stimuli_distractor_diamondtriangles.svg	35	no	0	1	2000
6.6.1	mac	2022-12-14	13:02:09	13:09:57	466639	60e9b19b0104bf65f6a92237	517737842	1	main_slash	11	advance_on_keypress_SLASH	54	stimuli_distractor_trianglediamonds.svg	stimuli_distractor_diamondtriangles.svg	35	no	57	0	328
6.6.1	mac	2022-12-14	13:02:09	13:09:58	467840	60e9b19b0104bf65f6a92237	517737842	1	main_slash	11	main_slash	55	stimuli_target_trianglesquares.svg	stimuli_distractor_trianglediamonds.svg	18	yes	53	1	252
6.6.1	mac	2022-12-14	13:02:09	13:09:58	467840	60e9b19b0104bf65f6a92237	517737842	1	main_slash	11	advance_on_keypress_SLASH	56	stimuli_target_trianglesquares.svg	stimuli_distractor_trianglediamonds.svg	18	yes	57	0	382
6.6.1	mac	2022-12-14	13:02:09	13:09:59	469195	60e9b19b0104bf65f6a92237	517737842	1	main_slash	11	main_slash	57	stimuli_target_trianglecircles.svg	stimuli_distractor_trianglediamonds.svg	17	yes	53	1	337
6.6.1	mac	2022-12-14	13:02:09	13:09:59	469195	60e9b19b0104bf65f6a92237	517737842	1	main_slash	11	advance_on_keypress_SLASH	58	stimuli_target_trianglecircles.svg	stimuli_distractor_trianglediamonds.svg	17	yes	57	0	282
6.6.1	mac	2022-12-14	13:02:09	13:10:01	470407	60e9b19b0104bf65f6a92237	517737842	1	main_slash	11	main_slash	59	stimuli_target_diamondcircles.svg	stimuli_distractor_diamondtriangles.svg	23	yes	53	1	296
6.6.1	mac	2022-12-14	13:02:09	13:10:01	470407	60e9b19b0104bf65f6a92237	517737842	1	main_slash	11	advance_on_keypress_SLASH	60	stimuli_target_diamondcircles.svg	stimuli_distractor_diamondtriangles.svg	23	yes	57	0	335
6.6.1	mac	2022-12-14	13:02:09	13:10:02	471606	60e9b19b0104bf65f6a92237	517737842	1	main_slash	11	main_slash	61	stimuli_distractor_trianglediamonds.svg	stimuli_distractor_trianglediamonds.svg	33	no	53	0	252
6.6.1	mac	2022-12-14	13:02:09	13:10:02	471606	60e9b19b0104bf65f6a92237	517737842	1	main_slash	11	advance_on_keypress_SLASH	62	stimuli_distractor_trianglediamonds.svg	stimuli_distractor_trianglediamonds.svg	33	no	57	0	1066
6.6.1	mac	2022-12-14	13:02:09	13:10:06	475291	60e9b19b0104bf65f6a92237	517737842	1	main_slash	11	main_slash	63	stimuli_distractor_trianglediamonds.svg	stimuli_distractor_trianglediamonds.svg	34	no	0	1	2000
6.6.1	mac	2022-12-14	13:02:09	13:10:06	475291	60e9b19b0104bf65f6a92237	517737842	1	main_slash	11	advance_on_keypress_SLASH	64	stimuli_distractor_trianglediamonds.svg	stimuli_distractor_trianglediamonds.svg	34	no	57	0	176
6.6.1	mac	2022-12-14	13:02:09	13:10:07	476606	60e9b19b0104bf65f6a92237	517737842	1	main_slash	11	main_slash	65	stimuli_distractor_diamondtriangles.svg	stimuli_target_squaretriangles.svg	15	yes	53	1	513
6.6.1	mac	2022-12-14	13:02:09	13:10:07	476606	60e9b19b0104bf65f6a92237	517737842	1	main_slash	11	advance_on_keypress_SLASH	66	stimuli_distractor_diamondtriangles.svg	stimuli_target_squaretriangles.svg	15	yes	57	0	332
6.6.1	mac	2022-12-14	13:02:09	13:10:09	478293	60e9b19b0104bf65f6a92237	517737842	1	main_slash	11	main_slash	67	stimuli_target_diamondsquares.svg	stimuli_distractor_diamondtriangles.svg	24	yes	53	1	739
6.6.1	mac	2022-12-14	13:02:09	13:10:09	478293	60e9b19b0104bf65f6a92237	517737842	1	main_slash	11	advance_on_keypress_SLASH	68	stimuli_target_diamondsquares.svg	stimuli_distractor_diamondtriangles.svg	24	yes	57	0	272
6.6.1	mac	2022-12-14	13:02:09	13:10:10	479532	60e9b19b0104bf65f6a92237	517737842	1	main_slash	11	main_slash	69	stimuli_distractor_diamondtriangles.svg	stimuli_target_trianglesquares.svg	30	yes	53	1	341
6.6.1	mac	2022-12-14	13:02:09	13:10:10	479532	60e9b19b0104bf65f6a92237	517737842	1	main_slash	11	advance_on_keypress_SLASH	70	stimuli_distractor_diamondtriangles.svg	stimuli_target_trianglesquares.svg	30	yes	57	0	319
6.6.1	mac	2022-12-14	13:02:09	13:10:11	480773	60e9b19b0104bf65f6a92237	517737842	1	main_slash	11	main_slash	71	stimuli_distractor_diamondtriangles.svg	stimuli_distractor_trianglediamonds.svg	38	no	53	0	301
6.6.1	mac	2022-12-14	13:02:09	13:10:11	480773	60e9b19b0104bf65f6a92237	517737842	1	main_slash	11	advance_on_keypress_SLASH	72	stimuli_distractor_diamondtriangles.svg	stimuli_distractor_trianglediamonds.svg	38	no	57	0	688
6.6.1	mac	2022-12-14	13:02:09	13:10:14	484089	60e9b19b0104bf65f6a92237	517737842	1	main_slash	11	main_slash	73	stimuli_distractor_diamondtriangles.svg	stimuli_target_squarediamonds.svg	16	yes	0	0	2000
6.6.1	mac	2022-12-14	13:02:09	13:10:14	484089	60e9b19b0104bf65f6a92237	517737842	1	main_slash	11	advance_on_keypress_SLASH	74	stimuli_distractor_diamondtriangles.svg	stimuli_target_squarediamonds.svg	16	yes	57	0	232
6.6.1	mac	2022-12-14	13:02:09	13:10:16	485307	60e9b19b0104bf65f6a92237	517737842	1	main_slash	11	main_slash	75	stimuli_distractor_trianglediamonds.svg	stimuli_target_trianglecircles.svg	25	yes	53	1	370
6.6.1	mac	2022-12-14	13:02:09	13:10:16	485307	60e9b19b0104bf65f6a92237	517737842	1	main_slash	11	advance_on_keypress_SLASH	76	stimuli_distractor_trianglediamonds.svg	stimuli_target_trianglecircles.svg	25	yes	57	0	342
6.6.1	mac	2022-12-14	13:02:09	13:10:17	486812	60e9b19b0104bf65f6a92237	517737842	1	main_slash	11	main_slash	77	stimuli_distractor_diamondtriangles.svg	stimuli_target_diamondsquares.svg	32	yes	53	1	537
6.6.1	mac	2022-12-14	13:02:09	13:10:17	486812	60e9b19b0104bf65f6a92237	517737842	1	main_slash	11	advance_on_keypress_SLASH	78	stimuli_distractor_diamondtriangles.svg	stimuli_target_diamondsquares.svg	32	yes	57	0	328
6.6.1	mac	2022-12-14	13:02:09	13:10:18	487989	60e9b19b0104bf65f6a92237	517737842	1	main_slash	11	main_slash	79	stimuli_distractor_diamondtriangles.svg	stimuli_target_trianglecircles.svg	29	yes	53	1	226
6.6.1	mac	2022-12-14	13:02:09	13:10:18	487989	60e9b19b0104bf65f6a92237	517737842	1	main_slash	11	advance_on_keypress_SLASH	80	stimuli_distractor_diamondtriangles.svg	stimuli_target_trianglecircles.svg	29	yes	57	0	324
6.6.1	mac	2022-12-14	13:02:09	13:10:19	489187	60e9b19b0104bf65f6a92237	517737842	1	main_slash	11	main_slash	81	stimuli_distractor_diamondtriangles.svg	stimuli_distractor_diamondtriangles.svg	39	no	53	0	242
6.6.1	mac	2022-12-14	13:02:09	13:10:19	489187	60e9b19b0104bf65f6a92237	517737842	1	main_slash	11	advance_on_keypress_SLASH	82	stimuli_distractor_diamondtriangles.svg	stimuli_distractor_diamondtriangles.svg	39	no	57	0	661
6.6.1	mac	2022-12-14	13:02:09	13:10:23	492472	60e9b19b0104bf65f6a92237	517737842	1	main_slash	11	main_slash	83	stimuli_distractor_diamondtriangles.svg	stimuli_target_circlediamonds.svg	14	yes	0	0	2000
6.6.1	mac	2022-12-14	13:02:09	13:10:23	492472	60e9b19b0104bf65f6a92237	517737842	1	main_slash	11	advance_on_keypress_SLASH	84	stimuli_distractor_diamondtriangles.svg	stimuli_target_circlediamonds.svg	14	yes	57	0	491
6.6.1	mac	2022-12-14	13:02:09	13:10:24	493986	60e9b19b0104bf65f6a92237	517737842	1	main_slash	11	main_slash	85	stimuli_distractor_diamondtriangles.svg	stimuli_target_squaretriangles.svg	15	yes	53	1	390
6.6.1	mac	2022-12-14	13:02:09	13:10:24	493986	60e9b19b0104bf65f6a92237	517737842	1	main_slash	11	advance_on_keypress_SLASH	86	stimuli_distractor_diamondtriangles.svg	stimuli_target_squaretriangles.svg	15	yes	57	0	243
6.6.1	mac	2022-12-14	13:02:09	13:10:25	495214	60e9b19b0104bf65f6a92237	517737842	1	main_slash	11	main_slash	87	stimuli_distractor_trianglediamonds.svg	stimuli_target_circletriangles.svg	9	yes	53	1	353
6.6.1	mac	2022-12-14	13:02:09	13:10:25	495214	60e9b19b0104bf65f6a92237	517737842	1	main_slash	11	advance_on_keypress_SLASH	88	stimuli_distractor_trianglediamonds.svg	stimuli_target_circletriangles.svg	9	yes	57	0	262
6.6.1	mac	2022-12-14	13:02:09	13:10:27	496338	60e9b19b0104bf65f6a92237	517737842	1	main_slash	11	main_slash	89	stimuli_target_circletriangles.svg	stimuli_distractor_diamondtriangles.svg	5	yes	53	1	233
6.6.1	mac	2022-12-14	13:02:09	13:10:27	496338	60e9b19b0104bf65f6a92237	517737842	1	main_slash	11	advance_on_keypress_SLASH	90	stimuli_target_circletriangles.svg	stimuli_distractor_diamondtriangles.svg	5	yes	57	0	297
6.6.1	mac	2022-12-14	13:02:09	13:10:28	497552	60e9b19b0104bf65f6a92237	517737842	1	main_slash	11	main_slash	91	stimuli_distractor_diamondtriangles.svg	stimuli_target_diamondcircles.svg	31	yes	53	1	276
6.6.1	mac	2022-12-14	13:02:09	13:10:28	497552	60e9b19b0104bf65f6a92237	517737842	1	main_slash	11	advance_on_keypress_SLASH	92	stimuli_distractor_diamondtriangles.svg	stimuli_target_diamondcircles.svg	31	yes	57	0	362
6.6.1	mac	2022-12-14	13:02:09	13:10:29	498877	60e9b19b0104bf65f6a92237	517737842	1	main_slash	11	main_slash	93	stimuli_target_squaretriangles.svg	stimuli_distractor_diamondtriangles.svg	7	yes	53	1	338
6.6.1	mac	2022-12-14	13:02:09	13:10:29	498877	60e9b19b0104bf65f6a92237	517737842	1	main_slash	11	advance_on_keypress_SLASH	94	stimuli_target_squaretriangles.svg	stimuli_distractor_diamondtriangles.svg	7	yes	57	0	375
6.6.1	mac	2022-12-14	13:02:09	13:10:30	500130	60e9b19b0104bf65f6a92237	517737842	1	main_slash	11	main_slash	95	stimuli_target_diamondsquares.svg	stimuli_distractor_trianglediamonds.svg	20	yes	53	1	254
6.6.1	mac	2022-12-14	13:02:09	13:10:30	500130	60e9b19b0104bf65f6a92237	517737842	1	main_slash	11	advance_on_keypress_SLASH	96	stimuli_target_diamondsquares.svg	stimuli_distractor_trianglediamonds.svg	20	yes	57	0	362
6.6.1	mac	2022-12-14	13:02:09	13:10:32	501460	60e9b19b0104bf65f6a92237	517737842	1	main_slash	11	main_slash	97	stimuli_target_squarediamonds.svg	stimuli_distractor_diamondtriangles.svg	8	yes	53	1	339
6.6.1	mac	2022-12-14	13:02:09	13:10:32	501460	60e9b19b0104bf65f6a92237	517737842	1	main_slash	11	advance_on_keypress_SLASH	98	stimuli_target_squarediamonds.svg	stimuli_distractor_diamondtriangles.svg	8	yes	57	0	405
6.6.1	mac	2022-12-14	13:02:09	13:10:33	502884	60e9b19b0104bf65f6a92237	517737842	1	main_slash	11	main_slash	99	stimuli_target_squarediamonds.svg	stimuli_distractor_trianglediamonds.svg	4	yes	53	1	393
6.6.1	mac	2022-12-14	13:02:09	13:10:33	502884	60e9b19b0104bf65f6a92237	517737842	1	main_slash	11	advance_on_keypress_SLASH	100	stimuli_target_squarediamonds.svg	stimuli_distractor_trianglediamonds.svg	4	yes	57	0	600
6.6.1	mac	2022-12-14	13:02:09	13:10:36	506120	60e9b19b0104bf65f6a92237	517737842	1	main_slash	11	main_slash	101	stimuli_distractor_trianglediamonds.svg	stimuli_distractor_diamondtriangles.svg	36	no	0	1	2000
6.6.1	mac	2022-12-14	13:02:09	13:10:36	506120	60e9b19b0104bf65f6a92237	517737842	1	main_slash	11	advance_on_keypress_SLASH	102	stimuli_distractor_trianglediamonds.svg	stimuli_distractor_diamondtriangles.svg	36	no	57	0	725
6.6.1	mac	2022-12-14	13:02:09	13:10:38	507838	60e9b19b0104bf65f6a92237	517737842	1	main_slash	11	main_slash	103	stimuli_target_circletriangles.svg	stimuli_distractor_trianglediamonds.svg	1	yes	53	1	368
6.6.1	mac	2022-12-14	13:02:09	13:10:38	507838	60e9b19b0104bf65f6a92237	517737842	1	main_slash	11	advance_on_keypress_SLASH	104	stimuli_target_circletriangles.svg	stimuli_distractor_trianglediamonds.svg	1	yes	57	0	274
6.6.1	mac	2022-12-14	13:02:09	13:10:39	509163	60e9b19b0104bf65f6a92237	517737842	1	main_slash	11	main_slash	105	stimuli_target_diamondcircles.svg	stimuli_distractor_diamondtriangles.svg	23	yes	53	1	426
6.6.1	mac	2022-12-14	13:02:09	13:10:39	509163	60e9b19b0104bf65f6a92237	517737842	1	main_slash	11	advance_on_keypress_SLASH	106	stimuli_target_diamondcircles.svg	stimuli_distractor_diamondtriangles.svg	23	yes	57	0	242
6.6.1	mac	2022-12-14	13:02:09	13:10:41	510421	60e9b19b0104bf65f6a92237	517737842	1	main_slash	11	main_slash	107	stimuli_distractor_trianglediamonds.svg	stimuli_target_trianglecircles.svg	25	yes	53	1	379
6.6.1	mac	2022-12-14	13:02:09	13:10:41	510421	60e9b19b0104bf65f6a92237	517737842	1	main_slash	11	advance_on_keypress_SLASH	108	stimuli_distractor_trianglediamonds.svg	stimuli_target_trianglecircles.svg	25	yes	57	0	257
6.6.1	mac	2022-12-14	13:02:09	13:10:42	511592	60e9b19b0104bf65f6a92237	517737842	1	main_slash	11	main_slash	109	stimuli_distractor_trianglediamonds.svg	stimuli_target_trianglesquares.svg	26	yes	53	1	288
6.6.1	mac	2022-12-14	13:02:09	13:10:42	511592	60e9b19b0104bf65f6a92237	517737842	1	main_slash	11	advance_on_keypress_SLASH	110	stimuli_distractor_trianglediamonds.svg	stimuli_target_trianglesquares.svg	26	yes	57	0	316
6.6.1	mac	2022-12-14	13:02:09	13:10:43	512990	60e9b19b0104bf65f6a92237	517737842	1	main_slash	11	main_slash	111	stimuli_distractor_trianglediamonds.svg	stimuli_distractor_trianglediamonds.svg	34	no	53	0	448
6.6.1	mac	2022-12-14	13:02:09	13:10:43	512990	60e9b19b0104bf65f6a92237	517737842	1	main_slash	11	advance_on_keypress_SLASH	112	stimuli_distractor_trianglediamonds.svg	stimuli_distractor_trianglediamonds.svg	34	no	57	0	878
6.6.1	mac	2022-12-14	13:02:09	13:10:45	514997	60e9b19b0104bf65f6a92237	517737842	1	main_slash	11	main_slash	113	stimuli_distractor_diamondtriangles.svg	stimuli_target_diamondsquares.svg	32	yes	53	1	492
6.6.1	mac	2022-12-14	13:02:09	13:10:45	514997	60e9b19b0104bf65f6a92237	517737842	1	main_slash	11	advance_on_keypress_SLASH	114	stimuli_distractor_diamondtriangles.svg	stimuli_target_diamondsquares.svg	32	yes	57	0	332
6.6.1	mac	2022-12-14	13:02:09	13:10:47	516360	60e9b19b0104bf65f6a92237	517737842	1	main_slash	11	main_slash	115	stimuli_target_circlediamonds.svg	stimuli_distractor_trianglediamonds.svg	2	yes	53	1	392
6.6.1	mac	2022-12-14	13:02:09	13:10:47	516360	60e9b19b0104bf65f6a92237	517737842	1	main_slash	11	advance_on_keypress_SLASH	116	stimuli_target_circlediamonds.svg	stimuli_distractor_trianglediamonds.svg	2	yes	57	0	284
6.6.1	mac	2022-12-14	13:02:09	13:10:48	517628	60e9b19b0104bf65f6a92237	517737842	1	main_slash	11	main_slash	117	stimuli_distractor_diamondtriangles.svg	stimuli_target_circletriangles.svg	13	yes	53	1	348
6.6.1	mac	2022-12-14	13:02:09	13:10:48	517628	60e9b19b0104bf65f6a92237	517737842	1	main_slash	11	advance_on_keypress_SLASH	118	stimuli_distractor_diamondtriangles.svg	stimuli_target_circletriangles.svg	13	yes	57	0	314
6.6.1	mac	2022-12-14	13:02:09	13:10:49	518833	60e9b19b0104bf65f6a92237	517737842	1	main_slash	11	main_slash	119	stimuli_distractor_diamondtriangles.svg	stimuli_target_trianglecircles.svg	29	yes	53	1	267
6.6.1	mac	2022-12-14	13:02:09	13:10:49	518833	60e9b19b0104bf65f6a92237	517737842	1	main_slash	11	advance_on_keypress_SLASH	120	stimuli_distractor_diamondtriangles.svg	stimuli_target_trianglecircles.svg	29	yes	57	0	347
6.6.1	mac	2022-12-14	13:02:09	13:10:50	520191	60e9b19b0104bf65f6a92237	517737842	1	main_slash	11	main_slash	121	stimuli_distractor_diamondtriangles.svg	stimuli_distractor_trianglediamonds.svg	38	no	53	0	371
6.6.1	mac	2022-12-14	13:02:09	13:10:50	520191	60e9b19b0104bf65f6a92237	517737842	1	main_slash	11	advance_on_keypress_SLASH	122	stimuli_distractor_diamondtriangles.svg	stimuli_distractor_trianglediamonds.svg	38	no	57	0	758
6.6.1	mac	2022-12-14	13:02:09	13:10:54	523583	60e9b19b0104bf65f6a92237	517737842	1	main_slash	11	main_slash	123	stimuli_distractor_trianglediamonds.svg	stimuli_distractor_trianglediamonds.svg	33	no	0	1	2000
6.6.1	mac	2022-12-14	13:02:09	13:10:54	523583	60e9b19b0104bf65f6a92237	517737842	1	main_slash	11	advance_on_keypress_SLASH	124	stimuli_distractor_trianglediamonds.svg	stimuli_distractor_trianglediamonds.svg	33	no	57	0	3418
6.6.1	mac	2022-12-14	13:02:09	13:11:00	529630	60e9b19b0104bf65f6a92237	517737842	1	main_slash	11	main_slash	125	stimuli_distractor_diamondtriangles.svg	stimuli_distractor_diamondtriangles.svg	40	no	0	1	2000
6.6.1	mac	2022-12-14	13:02:09	13:11:00	529630	60e9b19b0104bf65f6a92237	517737842	1	main_slash	11	advance_on_keypress_SLASH	126	stimuli_distractor_diamondtriangles.svg	stimuli_distractor_diamondtriangles.svg	40	no	57	0	485
6.6.1	mac	2022-12-14	13:02:09	13:11:01	531122	60e9b19b0104bf65f6a92237	517737842	1	main_slash	11	main_slash	127	stimuli_distractor_diamondtriangles.svg	stimuli_target_squarediamonds.svg	16	yes	53	1	394
6.6.1	mac	2022-12-14	13:02:09	13:11:01	531122	60e9b19b0104bf65f6a92237	517737842	1	main_slash	11	advance_on_keypress_SLASH	128	stimuli_distractor_diamondtriangles.svg	stimuli_target_squarediamonds.svg	16	yes	57	0	183
6.6.1	mac	2022-12-14	13:02:09	13:11:03	532513	60e9b19b0104bf65f6a92237	517737842	1	main_slash	11	main_slash	129	stimuli_target_diamondcircles.svg	stimuli_distractor_trianglediamonds.svg	19	yes	53	1	569
6.6.1	mac	2022-12-14	13:02:09	13:11:03	532513	60e9b19b0104bf65f6a92237	517737842	1	main_slash	11	advance_on_keypress_SLASH	130	stimuli_target_diamondcircles.svg	stimuli_distractor_trianglediamonds.svg	19	yes	57	0	229
6.6.1	mac	2022-12-14	13:02:09	13:11:04	533712	60e9b19b0104bf65f6a92237	517737842	1	main_slash	11	main_slash	131	stimuli_target_trianglesquares.svg	stimuli_distractor_trianglediamonds.svg	18	yes	53	1	330
6.6.1	mac	2022-12-14	13:02:09	13:11:04	533712	60e9b19b0104bf65f6a92237	517737842	1	main_slash	11	advance_on_keypress_SLASH	132	stimuli_target_trianglesquares.svg	stimuli_distractor_trianglediamonds.svg	18	yes	57	0	231
6.6.1	mac	2022-12-14	13:02:09	13:11:05	534886	60e9b19b0104bf65f6a92237	517737842	1	main_slash	11	main_slash	133	stimuli_distractor_diamondtriangles.svg	stimuli_target_trianglesquares.svg	30	yes	53	1	324
6.6.1	mac	2022-12-14	13:02:09	13:11:05	534886	60e9b19b0104bf65f6a92237	517737842	1	main_slash	11	advance_on_keypress_SLASH	134	stimuli_distractor_diamondtriangles.svg	stimuli_target_trianglesquares.svg	30	yes	57	0	277
6.6.1	mac	2022-12-14	13:02:09	13:11:08	537787	60e9b19b0104bf65f6a92237	517737842	1	main_slash	11	main_slash	135	stimuli_distractor_diamondtriangles.svg	stimuli_distractor_trianglediamonds.svg	37	no	0	1	2000
6.6.1	mac	2022-12-14	13:02:09	13:11:08	537787	60e9b19b0104bf65f6a92237	517737842	1	main_slash	11	advance_on_keypress_SLASH	136	stimuli_distractor_diamondtriangles.svg	stimuli_distractor_trianglediamonds.svg	37	no	57	0	738
6.6.1	mac	2022-12-14	13:02:09	13:11:10	539695	60e9b19b0104bf65f6a92237	517737842	1	main_slash	11	main_slash	137	stimuli_target_trianglesquares.svg	stimuli_distractor_diamondtriangles.svg	22	yes	53	1	539
6.6.1	mac	2022-12-14	13:02:09	13:11:10	539695	60e9b19b0104bf65f6a92237	517737842	1	main_slash	11	advance_on_keypress_SLASH	138	stimuli_target_trianglesquares.svg	stimuli_distractor_diamondtriangles.svg	22	yes	57	0	284
6.6.1	mac	2022-12-14	13:02:09	13:11:11	541031	60e9b19b0104bf65f6a92237	517737842	1	main_slash	11	main_slash	139	stimuli_target_squaretriangles.svg	stimuli_distractor_trianglediamonds.svg	3	yes	53	1	419
6.6.1	mac	2022-12-14	13:02:09	13:11:11	541031	60e9b19b0104bf65f6a92237	517737842	1	main_slash	11	advance_on_keypress_SLASH	140	stimuli_target_squaretriangles.svg	stimuli_distractor_trianglediamonds.svg	3	yes	57	0	245
6.6.1	mac	2022-12-14	13:02:09	13:11:13	542409	60e9b19b0104bf65f6a92237	517737842	1	main_slash	11	main_slash	141	stimuli_distractor_trianglediamonds.svg	stimuli_target_squaretriangles.svg	11	yes	53	1	508
6.6.1	mac	2022-12-14	13:02:09	13:11:13	542409	60e9b19b0104bf65f6a92237	517737842	1	main_slash	11	advance_on_keypress_SLASH	142	stimuli_distractor_trianglediamonds.svg	stimuli_target_squaretriangles.svg	11	yes	57	0	208
6.6.1	mac	2022-12-14	13:02:09	13:11:14	543691	60e9b19b0104bf65f6a92237	517737842	1	main_slash	11	main_slash	143	stimuli_distractor_trianglediamonds.svg	stimuli_distractor_diamondtriangles.svg	35	no	53	0	445
6.6.1	mac	2022-12-14	13:02:09	13:11:14	543691	60e9b19b0104bf65f6a92237	517737842	1	main_slash	11	advance_on_keypress_SLASH	144	stimuli_distractor_trianglediamonds.svg	stimuli_distractor_diamondtriangles.svg	35	no	57	0	437
6.6.1	mac	2022-12-14	13:02:09	13:11:16	545349	60e9b19b0104bf65f6a92237	517737842	1	main_slash	11	main_slash	145	stimuli_target_trianglecircles.svg	stimuli_distractor_trianglediamonds.svg	17	yes	53	1	588
6.6.1	mac	2022-12-14	13:02:09	13:11:16	545349	60e9b19b0104bf65f6a92237	517737842	1	main_slash	11	advance_on_keypress_SLASH	146	stimuli_target_trianglecircles.svg	stimuli_distractor_trianglediamonds.svg	17	yes	57	0	298
6.6.1	mac	2022-12-14	13:02:09	13:11:17	546807	60e9b19b0104bf65f6a92237	517737842	1	main_slash	11	main_slash	147	stimuli_distractor_trianglediamonds.svg	stimuli_target_circlediamonds.svg	10	yes	53	1	526
6.6.1	mac	2022-12-14	13:02:09	13:11:17	546807	60e9b19b0104bf65f6a92237	517737842	1	main_slash	11	advance_on_keypress_SLASH	148	stimuli_distractor_trianglediamonds.svg	stimuli_target_circlediamonds.svg	10	yes	57	0	298
6.6.1	mac	2022-12-14	13:02:09	13:11:19	548310	60e9b19b0104bf65f6a92237	517737842	1	main_slash	11	main_slash	149	stimuli_distractor_trianglediamonds.svg	stimuli_target_squarediamonds.svg	12	yes	53	1	566
6.6.1	mac	2022-12-14	13:02:09	13:11:19	548310	60e9b19b0104bf65f6a92237	517737842	1	main_slash	11	advance_on_keypress_SLASH	150	stimuli_distractor_trianglediamonds.svg	stimuli_target_squarediamonds.svg	12	yes	57	0	349
6.6.1	mac	2022-12-14	13:02:09	13:11:20	549653	60e9b19b0104bf65f6a92237	517737842	1	main_slash	11	main_slash	151	stimuli_target_circlediamonds.svg	stimuli_distractor_diamondtriangles.svg	6	yes	53	1	361
6.6.1	mac	2022-12-14	13:02:09	13:11:20	549653	60e9b19b0104bf65f6a92237	517737842	1	main_slash	11	advance_on_keypress_SLASH	152	stimuli_target_circlediamonds.svg	stimuli_distractor_diamondtriangles.svg	6	yes	57	0	352
6.6.1	mac	2022-12-14	13:02:09	13:11:21	551099	60e9b19b0104bf65f6a92237	517737842	1	main_slash	11	main_slash	153	stimuli_distractor_trianglediamonds.svg	stimuli_target_diamondcircles.svg	27	yes	53	1	462
6.6.1	mac	2022-12-14	13:02:09	13:11:21	551099	60e9b19b0104bf65f6a92237	517737842	1	main_slash	11	advance_on_keypress_SLASH	154	stimuli_distractor_trianglediamonds.svg	stimuli_target_diamondcircles.svg	27	yes	57	0	362
6.6.1	mac	2022-12-14	13:02:09	13:11:23	552516	60e9b19b0104bf65f6a92237	517737842	1	main_slash	11	main_slash	155	stimuli_target_trianglecircles.svg	stimuli_distractor_diamondtriangles.svg	21	yes	53	1	418
6.6.1	mac	2022-12-14	13:02:09	13:11:23	552516	60e9b19b0104bf65f6a92237	517737842	1	main_slash	11	advance_on_keypress_SLASH	156	stimuli_target_trianglecircles.svg	stimuli_distractor_diamondtriangles.svg	21	yes	57	0	363
6.6.1	mac	2022-12-14	13:02:09	13:11:24	553816	60e9b19b0104bf65f6a92237	517737842	1	main_slash	11	main_slash	157	stimuli_distractor_trianglediamonds.svg	stimuli_target_diamondsquares.svg	28	yes	53	1	293
6.6.1	mac	2022-12-14	13:02:09	13:11:24	553816	60e9b19b0104bf65f6a92237	517737842	1	main_slash	11	advance_on_keypress_SLASH	158	stimuli_distractor_trianglediamonds.svg	stimuli_target_diamondsquares.svg	28	yes	57	0	469
6.6.1	mac	2022-12-14	13:02:09	13:11:25	555189	60e9b19b0104bf65f6a92237	517737842	1	main_slash	11	main_slash	159	stimuli_target_diamondsquares.svg	stimuli_distractor_diamondtriangles.svg	24	yes	53	1	287
6.6.1	mac	2022-12-14	13:02:09	13:11:25	555189	60e9b19b0104bf65f6a92237	517737842	1	main_slash	11	advance_on_keypress_SLASH	160	stimuli_target_diamondsquares.svg	stimuli_distractor_diamondtriangles.svg	24	yes	57	0	419