build	computer.platform	date	time	timestamp	time_elapsed_ms	subject	group	session	blockcode	blocknum	trialcode	trialnum	stimulus_left	stimulus_right	stim_index	target_present	response	correct	latency
6.6.1	mac	2022-12-14	15:55:42	15:58:57	181789	62e7f9fec0521e596587319d	274658972	1	practice_z	5	practice_z	1	stimuli_target_circlediamonds.svg	stimuli_distractor_diamondtriangles.svg	1	yes	44	1	1254
6.6.1	mac	2022-12-14	15:55:42	15:58:57	181789	62e7f9fec0521e596587319d	274658972	1	practice_z	5	advance_on_keypress_ZEE	2	stimuli_target_circlediamonds.svg	stimuli_distractor_diamondtriangles.svg	1	yes	57	0	2449
6.6.1	mac	2022-12-14	15:55:42	15:59:03	187890	62e7f9fec0521e596587319d	274658972	1	practice_z	5	practice_z	3	stimuli_target_diamondsquares.svg	stimuli_distractor_diamondtriangles.svg	3	yes	0	0	2000
6.6.1	mac	2022-12-14	15:55:42	15:59:03	187890	62e7f9fec0521e596587319d	274658972	1	practice_z	5	advance_on_keypress_ZEE	4	stimuli_target_diamondsquares.svg	stimuli_distractor_diamondtriangles.svg	3	yes	57	0	1269
6.6.1	mac	2022-12-14	15:55:42	15:59:08	192257	62e7f9fec0521e596587319d	274658972	1	practice_z	5	practice_z	5	stimuli_target_squarediamonds.svg	stimuli_distractor_trianglediamonds.svg	5	yes	44	1	1446
6.6.1	mac	2022-12-14	15:55:42	15:59:08	192257	62e7f9fec0521e596587319d	274658972	1	practice_z	5	advance_on_keypress_ZEE	6	stimuli_target_squarediamonds.svg	stimuli_distractor_trianglediamonds.svg	5	yes	57	0	401
6.6.1	mac	2022-12-14	15:55:42	15:59:12	196287	62e7f9fec0521e596587319d	274658972	1	practice_z	5	practice_z	7	stimuli_distractor_trianglediamonds.svg	stimuli_distractor_trianglediamonds.svg	15	no	0	1	2000
6.6.1	mac	2022-12-14	15:55:42	15:59:12	196287	62e7f9fec0521e596587319d	274658972	1	practice_z	5	advance_on_keypress_ZEE	8	stimuli_distractor_trianglediamonds.svg	stimuli_distractor_trianglediamonds.svg	15	no	57	0	465
6.6.1	mac	2022-12-14	15:55:42	15:59:15	199657	62e7f9fec0521e596587319d	274658972	1	practice_z	5	practice_z	9	stimuli_distractor_trianglediamonds.svg	stimuli_target_diamondcircles.svg	12	yes	44	1	1263
6.6.1	mac	2022-12-14	15:55:42	15:59:15	199657	62e7f9fec0521e596587319d	274658972	1	practice_z	5	advance_on_keypress_ZEE	10	stimuli_distractor_trianglediamonds.svg	stimuli_target_diamondcircles.svg	12	yes	57	0	490
6.6.1	mac	2022-12-14	15:55:42	15:59:19	203209	62e7f9fec0521e596587319d	274658972	1	practice_z	5	practice_z	11	stimuli_distractor_diamondtriangles.svg	stimuli_target_trianglecircles.svg	9	yes	44	1	1424
6.6.1	mac	2022-12-14	15:55:42	15:59:19	203209	62e7f9fec0521e596587319d	274658972	1	practice_z	5	advance_on_keypress_ZEE	12	stimuli_distractor_diamondtriangles.svg	stimuli_target_trianglecircles.svg	9	yes	57	0	403
6.6.1	mac	2022-12-14	15:55:42	15:59:23	207277	62e7f9fec0521e596587319d	274658972	1	practice_z	5	practice_z	13	stimuli_distractor_diamondtriangles.svg	stimuli_distractor_diamondtriangles.svg	13	no	0	1	2000
6.6.1	mac	2022-12-14	15:55:42	15:59:23	207277	62e7f9fec0521e596587319d	274658972	1	practice_z	5	advance_on_keypress_ZEE	14	stimuli_distractor_diamondtriangles.svg	stimuli_distractor_diamondtriangles.svg	13	no	57	0	514
6.6.1	mac	2022-12-14	15:55:42	15:59:27	211417	62e7f9fec0521e596587319d	274658972	1	practice_z	5	practice_z	15	stimuli_target_diamondsquares.svg	stimuli_distractor_trianglediamonds.svg	6	yes	0	0	2000
6.6.1	mac	2022-12-14	15:55:42	15:59:27	211417	62e7f9fec0521e596587319d	274658972	1	practice_z	5	advance_on_keypress_ZEE	16	stimuli_target_diamondsquares.svg	stimuli_distractor_trianglediamonds.svg	6	yes	57	0	382
6.6.1	mac	2022-12-14	15:55:42	15:59:30	214601	62e7f9fec0521e596587319d	274658972	1	practice_z	5	practice_z	17	stimuli_distractor_trianglediamonds.svg	stimuli_target_squarediamonds.svg	11	yes	44	1	1176
6.6.1	mac	2022-12-14	15:55:42	15:59:30	214601	62e7f9fec0521e596587319d	274658972	1	practice_z	5	advance_on_keypress_ZEE	18	stimuli_distractor_trianglediamonds.svg	stimuli_target_squarediamonds.svg	11	yes	57	0	454
6.6.1	mac	2022-12-14	15:55:42	15:59:33	217889	62e7f9fec0521e596587319d	274658972	1	practice_z	5	practice_z	19	stimuli_distractor_diamondtriangles.svg	stimuli_target_diamondcircles.svg	8	yes	44	1	1204
6.6.1	mac	2022-12-14	15:55:42	15:59:33	217889	62e7f9fec0521e596587319d	274658972	1	practice_z	5	advance_on_keypress_ZEE	20	stimuli_distractor_diamondtriangles.svg	stimuli_target_diamondcircles.svg	8	yes	57	0	354
6.6.1	mac	2022-12-14	15:55:42	15:59:37	221001	62e7f9fec0521e596587319d	274658972	1	practice_z	5	practice_z	21	stimuli_distractor_diamondtriangles.svg	stimuli_target_circletriangles.svg	7	yes	44	1	1125
6.6.1	mac	2022-12-14	15:55:42	15:59:37	221001	62e7f9fec0521e596587319d	274658972	1	practice_z	5	advance_on_keypress_ZEE	22	stimuli_distractor_diamondtriangles.svg	stimuli_target_circletriangles.svg	7	yes	57	0	709
6.6.1	mac	2022-12-14	15:55:42	15:59:41	225334	62e7f9fec0521e596587319d	274658972	1	practice_z	5	practice_z	23	stimuli_distractor_diamondtriangles.svg	stimuli_distractor_trianglediamonds.svg	14	no	0	1	2000
6.6.1	mac	2022-12-14	15:55:42	15:59:41	225334	62e7f9fec0521e596587319d	274658972	1	practice_z	5	advance_on_keypress_ZEE	24	stimuli_distractor_diamondtriangles.svg	stimuli_distractor_trianglediamonds.svg	14	no	57	0	297
6.6.1	mac	2022-12-14	15:55:42	15:59:45	229258	62e7f9fec0521e596587319d	274658972	1	practice_z	5	practice_z	25	stimuli_distractor_trianglediamonds.svg	stimuli_distractor_diamondtriangles.svg	16	no	0	1	2000
6.6.1	mac	2022-12-14	15:55:42	15:59:45	229258	62e7f9fec0521e596587319d	274658972	1	practice_z	5	advance_on_keypress_ZEE	26	stimuli_distractor_trianglediamonds.svg	stimuli_distractor_diamondtriangles.svg	16	no	57	0	284
6.6.1	mac	2022-12-14	15:55:42	15:59:48	232257	62e7f9fec0521e596587319d	274658972	1	practice_z	5	practice_z	27	stimuli_distractor_trianglediamonds.svg	stimuli_target_circlediamonds.svg	10	yes	44	1	1091
6.6.1	mac	2022-12-14	15:55:42	15:59:48	232257	62e7f9fec0521e596587319d	274658972	1	practice_z	5	advance_on_keypress_ZEE	28	stimuli_distractor_trianglediamonds.svg	stimuli_target_circlediamonds.svg	10	yes	57	0	500
6.6.1	mac	2022-12-14	15:55:42	15:59:52	236178	62e7f9fec0521e596587319d	274658972	1	practice_z	5	practice_z	29	stimuli_target_squarediamonds.svg	stimuli_distractor_diamondtriangles.svg	2	yes	44	1	1784
6.6.1	mac	2022-12-14	15:55:42	15:59:52	236178	62e7f9fec0521e596587319d	274658972	1	practice_z	5	advance_on_keypress_ZEE	30	stimuli_target_squarediamonds.svg	stimuli_distractor_diamondtriangles.svg	2	yes	57	0	319
6.6.1	mac	2022-12-14	15:55:42	15:59:55	239177	62e7f9fec0521e596587319d	274658972	1	practice_z	5	practice_z	31	stimuli_target_circlediamonds.svg	stimuli_distractor_trianglediamonds.svg	4	yes	44	1	1044
6.6.1	mac	2022-12-14	15:55:42	15:59:55	239177	62e7f9fec0521e596587319d	274658972	1	practice_z	5	advance_on_keypress_ZEE	32	stimuli_target_circlediamonds.svg	stimuli_distractor_trianglediamonds.svg	4	yes	57	0	551
6.6.1	mac	2022-12-14	15:55:42	16:00:06	250256	62e7f9fec0521e596587319d	274658972	1	main_z	7	main_z	1	stimuli_distractor_diamondtriangles.svg	stimuli_distractor_diamondtriangles.svg	39	no	0	1	2000
6.6.1	mac	2022-12-14	15:55:42	16:00:06	250256	62e7f9fec0521e596587319d	274658972	1	main_z	7	advance_on_keypress_ZEE	2	stimuli_distractor_diamondtriangles.svg	stimuli_distractor_diamondtriangles.svg	39	no	57	0	599
6.6.1	mac	2022-12-14	15:55:42	16:00:09	253155	62e7f9fec0521e596587319d	274658972	1	main_z	7	main_z	3	stimuli_distractor_diamondtriangles.svg	stimuli_distractor_trianglediamonds.svg	38	no	44	0	1655
6.6.1	mac	2022-12-14	15:55:42	16:00:09	253155	62e7f9fec0521e596587319d	274658972	1	main_z	7	advance_on_keypress_ZEE	4	stimuli_distractor_diamondtriangles.svg	stimuli_distractor_trianglediamonds.svg	38	no	57	0	833
6.6.1	mac	2022-12-14	15:55:42	16:00:11	255715	62e7f9fec0521e596587319d	274658972	1	main_z	7	main_z	5	stimuli_distractor_trianglediamonds.svg	stimuli_target_squaretriangles.svg	11	yes	44	1	1089
6.6.1	mac	2022-12-14	15:55:42	16:00:11	255715	62e7f9fec0521e596587319d	274658972	1	main_z	7	advance_on_keypress_ZEE	6	stimuli_distractor_trianglediamonds.svg	stimuli_target_squaretriangles.svg	11	yes	57	0	880
6.6.1	mac	2022-12-14	15:55:42	16:00:14	258243	62e7f9fec0521e596587319d	274658972	1	main_z	7	main_z	7	stimuli_distractor_diamondtriangles.svg	stimuli_target_squarediamonds.svg	16	yes	44	1	1023
6.6.1	mac	2022-12-14	15:55:42	16:00:14	258243	62e7f9fec0521e596587319d	274658972	1	main_z	7	advance_on_keypress_ZEE	8	stimuli_distractor_diamondtriangles.svg	stimuli_target_squarediamonds.svg	16	yes	57	0	441
6.6.1	mac	2022-12-14	15:55:42	16:00:16	260483	62e7f9fec0521e596587319d	274658972	1	main_z	7	main_z	9	stimuli_target_circlediamonds.svg	stimuli_distractor_trianglediamonds.svg	2	yes	44	1	1168
6.6.1	mac	2022-12-14	15:55:42	16:00:16	260483	62e7f9fec0521e596587319d	274658972	1	main_z	7	advance_on_keypress_ZEE	10	stimuli_target_circlediamonds.svg	stimuli_distractor_trianglediamonds.svg	2	yes	57	0	444
6.6.1	mac	2022-12-14	15:55:42	16:00:18	262619	62e7f9fec0521e596587319d	274658972	1	main_z	7	main_z	11	stimuli_distractor_trianglediamonds.svg	stimuli_target_circlediamonds.svg	10	yes	44	1	1059
6.6.1	mac	2022-12-14	15:55:42	16:00:18	262619	62e7f9fec0521e596587319d	274658972	1	main_z	7	advance_on_keypress_ZEE	12	stimuli_distractor_trianglediamonds.svg	stimuli_target_circlediamonds.svg	10	yes	57	0	460
6.6.1	mac	2022-12-14	15:55:42	16:00:20	264899	62e7f9fec0521e596587319d	274658972	1	main_z	7	main_z	13	stimuli_target_squaretriangles.svg	stimuli_distractor_trianglediamonds.svg	3	yes	44	1	1195
6.6.1	mac	2022-12-14	15:55:42	16:00:20	264899	62e7f9fec0521e596587319d	274658972	1	main_z	7	advance_on_keypress_ZEE	14	stimuli_target_squaretriangles.svg	stimuli_distractor_trianglediamonds.svg	3	yes	57	0	422
6.6.1	mac	2022-12-14	15:55:42	16:00:24	267948	62e7f9fec0521e596587319d	274658972	1	main_z	7	main_z	15	stimuli_distractor_diamondtriangles.svg	stimuli_target_trianglesquares.svg	30	yes	0	0	2000
6.6.1	mac	2022-12-14	15:55:42	16:00:24	267948	62e7f9fec0521e596587319d	274658972	1	main_z	7	advance_on_keypress_ZEE	16	stimuli_distractor_diamondtriangles.svg	stimuli_target_trianglesquares.svg	30	yes	57	0	402
6.6.1	mac	2022-12-14	15:55:42	16:00:26	270139	62e7f9fec0521e596587319d	274658972	1	main_z	7	main_z	17	stimuli_distractor_trianglediamonds.svg	stimuli_target_diamondcircles.svg	27	yes	44	1	1164
6.6.1	mac	2022-12-14	15:55:42	16:00:26	270139	62e7f9fec0521e596587319d	274658972	1	main_z	7	advance_on_keypress_ZEE	18	stimuli_distractor_trianglediamonds.svg	stimuli_target_diamondcircles.svg	27	yes	57	0	441
6.6.1	mac	2022-12-14	15:55:42	16:00:28	272291	62e7f9fec0521e596587319d	274658972	1	main_z	7	main_z	19	stimuli_target_diamondcircles.svg	stimuli_distractor_diamondtriangles.svg	23	yes	44	1	1087
6.6.1	mac	2022-12-14	15:55:42	16:00:28	272291	62e7f9fec0521e596587319d	274658972	1	main_z	7	advance_on_keypress_ZEE	20	stimuli_target_diamondcircles.svg	stimuli_distractor_diamondtriangles.svg	23	yes	57	0	406
6.6.1	mac	2022-12-14	15:55:42	16:00:31	275330	62e7f9fec0521e596587319d	274658972	1	main_z	7	main_z	21	stimuli_distractor_diamondtriangles.svg	stimuli_target_diamondcircles.svg	31	yes	0	0	2000
6.6.1	mac	2022-12-14	15:55:42	16:00:31	275330	62e7f9fec0521e596587319d	274658972	1	main_z	7	advance_on_keypress_ZEE	22	stimuli_distractor_diamondtriangles.svg	stimuli_target_diamondcircles.svg	31	yes	57	0	323
6.6.1	mac	2022-12-14	15:55:42	16:00:33	277330	62e7f9fec0521e596587319d	274658972	1	main_z	7	main_z	23	stimuli_target_trianglecircles.svg	stimuli_distractor_diamondtriangles.svg	21	yes	44	1	1040
6.6.1	mac	2022-12-14	15:55:42	16:00:33	277330	62e7f9fec0521e596587319d	274658972	1	main_z	7	advance_on_keypress_ZEE	24	stimuli_target_trianglecircles.svg	stimuli_distractor_diamondtriangles.svg	21	yes	57	0	504
6.6.1	mac	2022-12-14	15:55:42	16:00:36	280468	62e7f9fec0521e596587319d	274658972	1	main_z	7	main_z	25	stimuli_distractor_trianglediamonds.svg	stimuli_target_squarediamonds.svg	12	yes	0	0	2000
6.6.1	mac	2022-12-14	15:55:42	16:00:36	280468	62e7f9fec0521e596587319d	274658972	1	main_z	7	advance_on_keypress_ZEE	26	stimuli_distractor_trianglediamonds.svg	stimuli_target_squarediamonds.svg	12	yes	57	0	275
6.6.1	mac	2022-12-14	15:55:42	16:00:38	282907	62e7f9fec0521e596587319d	274658972	1	main_z	7	main_z	27	stimuli_distractor_trianglediamonds.svg	stimuli_target_diamondsquares.svg	28	yes	44	1	1544
6.6.1	mac	2022-12-14	15:55:42	16:00:38	282907	62e7f9fec0521e596587319d	274658972	1	main_z	7	advance_on_keypress_ZEE	28	stimuli_distractor_trianglediamonds.svg	stimuli_target_diamondsquares.svg	28	yes	57	0	430
6.6.1	mac	2022-12-14	15:55:42	16:00:42	285972	62e7f9fec0521e596587319d	274658972	1	main_z	7	main_z	29	stimuli_distractor_trianglediamonds.svg	stimuli_distractor_diamondtriangles.svg	36	no	0	1	2000
6.6.1	mac	2022-12-14	15:55:42	16:00:42	285972	62e7f9fec0521e596587319d	274658972	1	main_z	7	advance_on_keypress_ZEE	30	stimuli_distractor_trianglediamonds.svg	stimuli_distractor_diamondtriangles.svg	36	no	57	0	466
6.6.1	mac	2022-12-14	15:55:42	16:00:44	288179	62e7f9fec0521e596587319d	274658972	1	main_z	7	main_z	31	stimuli_distractor_trianglediamonds.svg	stimuli_distractor_trianglediamonds.svg	33	no	44	0	1113
6.6.1	mac	2022-12-14	15:55:42	16:00:44	288179	62e7f9fec0521e596587319d	274658972	1	main_z	7	advance_on_keypress_ZEE	32	stimuli_distractor_trianglediamonds.svg	stimuli_distractor_trianglediamonds.svg	33	no	57	0	352
6.6.1	mac	2022-12-14	15:55:42	16:00:46	290315	62e7f9fec0521e596587319d	274658972	1	main_z	7	main_z	33	stimuli_target_squarediamonds.svg	stimuli_distractor_trianglediamonds.svg	4	yes	44	1	1154
6.6.1	mac	2022-12-14	15:55:42	16:00:46	290315	62e7f9fec0521e596587319d	274658972	1	main_z	7	advance_on_keypress_ZEE	34	stimuli_target_squarediamonds.svg	stimuli_distractor_trianglediamonds.svg	4	yes	57	0	534
6.6.1	mac	2022-12-14	15:55:42	16:00:48	292555	62e7f9fec0521e596587319d	274658972	1	main_z	7	main_z	35	stimuli_target_circlediamonds.svg	stimuli_distractor_diamondtriangles.svg	6	yes	44	1	1082
6.6.1	mac	2022-12-14	15:55:42	16:00:48	292555	62e7f9fec0521e596587319d	274658972	1	main_z	7	advance_on_keypress_ZEE	36	stimuli_target_circlediamonds.svg	stimuli_distractor_diamondtriangles.svg	6	yes	57	0	322
6.6.1	mac	2022-12-14	15:55:42	16:00:50	294539	62e7f9fec0521e596587319d	274658972	1	main_z	7	main_z	37	stimuli_target_circletriangles.svg	stimuli_distractor_diamondtriangles.svg	5	yes	44	1	1038
6.6.1	mac	2022-12-14	15:55:42	16:00:50	294539	62e7f9fec0521e596587319d	274658972	1	main_z	7	advance_on_keypress_ZEE	38	stimuli_target_circletriangles.svg	stimuli_distractor_diamondtriangles.svg	5	yes	57	0	327
6.6.1	mac	2022-12-14	15:55:42	16:00:52	296515	62e7f9fec0521e596587319d	274658972	1	main_z	7	main_z	39	stimuli_target_squaretriangles.svg	stimuli_distractor_diamondtriangles.svg	7	yes	44	1	1019
6.6.1	mac	2022-12-14	15:55:42	16:00:52	296515	62e7f9fec0521e596587319d	274658972	1	main_z	7	advance_on_keypress_ZEE	40	stimuli_target_squaretriangles.svg	stimuli_distractor_diamondtriangles.svg	7	yes	57	0	316
6.6.1	mac	2022-12-14	15:55:42	16:00:55	299457	62e7f9fec0521e596587319d	274658972	1	main_z	7	main_z	41	stimuli_distractor_trianglediamonds.svg	stimuli_distractor_diamondtriangles.svg	35	no	0	1	2000
6.6.1	mac	2022-12-14	15:55:42	16:00:55	299457	62e7f9fec0521e596587319d	274658972	1	main_z	7	advance_on_keypress_ZEE	42	stimuli_distractor_trianglediamonds.svg	stimuli_distractor_diamondtriangles.svg	35	no	57	0	301
6.6.1	mac	2022-12-14	15:55:42	16:00:57	301515	62e7f9fec0521e596587319d	274658972	1	main_z	7	main_z	43	stimuli_target_diamondsquares.svg	stimuli_distractor_trianglediamonds.svg	20	yes	44	1	1131
6.6.1	mac	2022-12-14	15:55:42	16:00:57	301515	62e7f9fec0521e596587319d	274658972	1	main_z	7	advance_on_keypress_ZEE	44	stimuli_target_diamondsquares.svg	stimuli_distractor_trianglediamonds.svg	20	yes	57	0	360
6.6.1	mac	2022-12-14	15:55:42	16:00:59	303491	62e7f9fec0521e596587319d	274658972	1	main_z	7	main_z	45	stimuli_distractor_diamondtriangles.svg	stimuli_target_circlediamonds.svg	14	yes	44	1	995
6.6.1	mac	2022-12-14	15:55:42	16:00:59	303491	62e7f9fec0521e596587319d	274658972	1	main_z	7	advance_on_keypress_ZEE	46	stimuli_distractor_diamondtriangles.svg	stimuli_target_circlediamonds.svg	14	yes	57	0	341
6.6.1	mac	2022-12-14	15:55:42	16:01:02	306457	62e7f9fec0521e596587319d	274658972	1	main_z	7	main_z	47	stimuli_distractor_diamondtriangles.svg	stimuli_target_trianglecircles.svg	29	yes	0	0	2000
6.6.1	mac	2022-12-14	15:55:42	16:01:02	306457	62e7f9fec0521e596587319d	274658972	1	main_z	7	advance_on_keypress_ZEE	48	stimuli_distractor_diamondtriangles.svg	stimuli_target_trianglecircles.svg	29	yes	57	0	325
6.6.1	mac	2022-12-14	15:55:42	16:01:04	308403	62e7f9fec0521e596587319d	274658972	1	main_z	7	main_z	49	stimuli_target_diamondcircles.svg	stimuli_distractor_trianglediamonds.svg	19	yes	44	1	985
6.6.1	mac	2022-12-14	15:55:42	16:01:04	308403	62e7f9fec0521e596587319d	274658972	1	main_z	7	advance_on_keypress_ZEE	50	stimuli_target_diamondcircles.svg	stimuli_distractor_trianglediamonds.svg	19	yes	57	0	372
6.6.1	mac	2022-12-14	15:55:42	16:01:06	310442	62e7f9fec0521e596587319d	274658972	1	main_z	7	main_z	51	stimuli_distractor_trianglediamonds.svg	stimuli_target_trianglecircles.svg	25	yes	44	1	1030
6.6.1	mac	2022-12-14	15:55:42	16:01:06	310442	62e7f9fec0521e596587319d	274658972	1	main_z	7	advance_on_keypress_ZEE	52	stimuli_distractor_trianglediamonds.svg	stimuli_target_trianglecircles.svg	25	yes	57	0	296
6.6.1	mac	2022-12-14	15:55:42	16:01:08	312259	62e7f9fec0521e596587319d	274658972	1	main_z	7	main_z	53	stimuli_target_squarediamonds.svg	stimuli_distractor_diamondtriangles.svg	8	yes	44	1	884
6.6.1	mac	2022-12-14	15:55:42	16:01:08	312259	62e7f9fec0521e596587319d	274658972	1	main_z	7	advance_on_keypress_ZEE	54	stimuli_target_squarediamonds.svg	stimuli_distractor_diamondtriangles.svg	8	yes	57	0	347
6.6.1	mac	2022-12-14	15:55:42	16:01:10	314171	62e7f9fec0521e596587319d	274658972	1	main_z	7	main_z	55	stimuli_distractor_diamondtriangles.svg	stimuli_target_circletriangles.svg	13	yes	44	1	933
6.6.1	mac	2022-12-14	15:55:42	16:01:10	314171	62e7f9fec0521e596587319d	274658972	1	main_z	7	advance_on_keypress_ZEE	56	stimuli_distractor_diamondtriangles.svg	stimuli_target_circletriangles.svg	13	yes	57	0	387
6.6.1	mac	2022-12-14	15:55:42	16:01:12	316251	62e7f9fec0521e596587319d	274658972	1	main_z	7	main_z	57	stimuli_target_diamondsquares.svg	stimuli_distractor_diamondtriangles.svg	24	yes	44	1	1068
6.6.1	mac	2022-12-14	15:55:42	16:01:12	316251	62e7f9fec0521e596587319d	274658972	1	main_z	7	advance_on_keypress_ZEE	58	stimuli_target_diamondsquares.svg	stimuli_distractor_diamondtriangles.svg	24	yes	57	0	411
6.6.1	mac	2022-12-14	15:55:42	16:01:15	319294	62e7f9fec0521e596587319d	274658972	1	main_z	7	main_z	59	stimuli_target_trianglesquares.svg	stimuli_distractor_diamondtriangles.svg	22	yes	0	0	2000
6.6.1	mac	2022-12-14	15:55:42	16:01:15	319294	62e7f9fec0521e596587319d	274658972	1	main_z	7	advance_on_keypress_ZEE	60	stimuli_target_trianglesquares.svg	stimuli_distractor_diamondtriangles.svg	22	yes	57	0	329
6.6.1	mac	2022-12-14	15:55:42	16:01:18	322253	62e7f9fec0521e596587319d	274658972	1	main_z	7	main_z	61	stimuli_distractor_diamondtriangles.svg	stimuli_distractor_trianglediamonds.svg	37	no	0	1	2000
6.6.1	mac	2022-12-14	15:55:42	16:01:18	322253	62e7f9fec0521e596587319d	274658972	1	main_z	7	advance_on_keypress_ZEE	62	stimuli_distractor_diamondtriangles.svg	stimuli_distractor_trianglediamonds.svg	37	no	57	0	626
6.6.1	mac	2022-12-14	15:55:42	16:01:20	324603	62e7f9fec0521e596587319d	274658972	1	main_z	7	main_z	63	stimuli_target_trianglesquares.svg	stimuli_distractor_trianglediamonds.svg	18	yes	44	1	1089
6.6.1	mac	2022-12-14	15:55:42	16:01:20	324603	62e7f9fec0521e596587319d	274658972	1	main_z	7	advance_on_keypress_ZEE	64	stimuli_target_trianglesquares.svg	stimuli_distractor_trianglediamonds.svg	18	yes	57	0	488
6.6.1	mac	2022-12-14	15:55:42	16:01:22	326883	62e7f9fec0521e596587319d	274658972	1	main_z	7	main_z	65	stimuli_distractor_diamondtriangles.svg	stimuli_target_diamondsquares.svg	32	yes	44	1	1158
6.6.1	mac	2022-12-14	15:55:42	16:01:22	326883	62e7f9fec0521e596587319d	274658972	1	main_z	7	advance_on_keypress_ZEE	66	stimuli_distractor_diamondtriangles.svg	stimuli_target_diamondsquares.svg	32	yes	57	0	466
6.6.1	mac	2022-12-14	15:55:42	16:01:24	328890	62e7f9fec0521e596587319d	274658972	1	main_z	7	main_z	67	stimuli_distractor_trianglediamonds.svg	stimuli_target_circletriangles.svg	9	yes	44	1	922
6.6.1	mac	2022-12-14	15:55:42	16:01:24	328890	62e7f9fec0521e596587319d	274658972	1	main_z	7	advance_on_keypress_ZEE	68	stimuli_distractor_trianglediamonds.svg	stimuli_target_circletriangles.svg	9	yes	57	0	383
6.6.1	mac	2022-12-14	15:55:42	16:01:26	330883	62e7f9fec0521e596587319d	274658972	1	main_z	7	main_z	69	stimuli_target_circletriangles.svg	stimuli_distractor_trianglediamonds.svg	1	yes	44	1	985
6.6.1	mac	2022-12-14	15:55:42	16:01:26	330883	62e7f9fec0521e596587319d	274658972	1	main_z	7	advance_on_keypress_ZEE	70	stimuli_target_circletriangles.svg	stimuli_distractor_trianglediamonds.svg	1	yes	57	0	331
6.6.1	mac	2022-12-14	15:55:42	16:01:29	332995	62e7f9fec0521e596587319d	274658972	1	main_z	7	main_z	71	stimuli_distractor_trianglediamonds.svg	stimuli_target_trianglesquares.svg	26	yes	44	1	1151
6.6.1	mac	2022-12-14	15:55:42	16:01:29	332995	62e7f9fec0521e596587319d	274658972	1	main_z	7	advance_on_keypress_ZEE	72	stimuli_distractor_trianglediamonds.svg	stimuli_target_trianglesquares.svg	26	yes	57	0	404
6.6.1	mac	2022-12-14	15:55:42	16:01:32	336037	62e7f9fec0521e596587319d	274658972	1	main_z	7	main_z	73	stimuli_distractor_trianglediamonds.svg	stimuli_distractor_trianglediamonds.svg	34	no	0	1	2000
6.6.1	mac	2022-12-14	15:55:42	16:01:32	336037	62e7f9fec0521e596587319d	274658972	1	main_z	7	advance_on_keypress_ZEE	74	stimuli_distractor_trianglediamonds.svg	stimuli_distractor_trianglediamonds.svg	34	no	57	0	489
6.6.1	mac	2022-12-14	15:55:42	16:01:34	338179	62e7f9fec0521e596587319d	274658972	1	main_z	7	main_z	75	stimuli_target_trianglecircles.svg	stimuli_distractor_trianglediamonds.svg	17	yes	44	1	1031
6.6.1	mac	2022-12-14	15:55:42	16:01:34	338179	62e7f9fec0521e596587319d	274658972	1	main_z	7	advance_on_keypress_ZEE	76	stimuli_target_trianglecircles.svg	stimuli_distractor_trianglediamonds.svg	17	yes	57	0	1736
6.6.1	mac	2022-12-14	15:55:42	16:01:37	341475	62e7f9fec0521e596587319d	274658972	1	main_z	7	main_z	77	stimuli_distractor_diamondtriangles.svg	stimuli_target_squaretriangles.svg	15	yes	44	1	936
6.6.1	mac	2022-12-14	15:55:42	16:01:37	341475	62e7f9fec0521e596587319d	274658972	1	main_z	7	advance_on_keypress_ZEE	78	stimuli_distractor_diamondtriangles.svg	stimuli_target_squaretriangles.svg	15	yes	57	0	364
6.6.1	mac	2022-12-14	15:55:42	16:01:40	344468	62e7f9fec0521e596587319d	274658972	1	main_z	7	main_z	79	stimuli_distractor_diamondtriangles.svg	stimuli_distractor_diamondtriangles.svg	40	no	0	1	2000
6.6.1	mac	2022-12-14	15:55:42	16:01:40	344468	62e7f9fec0521e596587319d	274658972	1	main_z	7	advance_on_keypress_ZEE	80	stimuli_distractor_diamondtriangles.svg	stimuli_distractor_diamondtriangles.svg	40	no	57	0	483
6.6.1	mac	2022-12-14	15:55:42	16:01:42	346563	62e7f9fec0521e596587319d	274658972	1	main_z	7	main_z	81	stimuli_target_squarediamonds.svg	stimuli_distractor_diamondtriangles.svg	8	yes	44	1	985
6.6.1	mac	2022-12-14	15:55:42	16:01:42	346563	62e7f9fec0521e596587319d	274658972	1	main_z	7	advance_on_keypress_ZEE	82	stimuli_target_squarediamonds.svg	stimuli_distractor_diamondtriangles.svg	8	yes	57	0	379
6.6.1	mac	2022-12-14	15:55:42	16:01:45	349572	62e7f9fec0521e596587319d	274658972	1	main_z	7	main_z	83	stimuli_distractor_diamondtriangles.svg	stimuli_distractor_diamondtriangles.svg	40	no	0	1	2000
6.6.1	mac	2022-12-14	15:55:42	16:01:45	349572	62e7f9fec0521e596587319d	274658972	1	main_z	7	advance_on_keypress_ZEE	84	stimuli_distractor_diamondtriangles.svg	stimuli_distractor_diamondtriangles.svg	40	no	57	0	346
6.6.1	mac	2022-12-14	15:55:42	16:01:47	351674	62e7f9fec0521e596587319d	274658972	1	main_z	7	main_z	85	stimuli_distractor_trianglediamonds.svg	stimuli_target_trianglecircles.svg	25	yes	44	1	1126
6.6.1	mac	2022-12-14	15:55:42	16:01:47	351674	62e7f9fec0521e596587319d	274658972	1	main_z	7	advance_on_keypress_ZEE	86	stimuli_distractor_trianglediamonds.svg	stimuli_target_trianglecircles.svg	25	yes	57	0	459
6.6.1	mac	2022-12-14	15:55:42	16:01:50	354179	62e7f9fec0521e596587319d	274658972	1	main_z	7	main_z	87	stimuli_target_circletriangles.svg	stimuli_distractor_trianglediamonds.svg	1	yes	44	1	1418
6.6.1	mac	2022-12-14	15:55:42	16:01:50	354179	62e7f9fec0521e596587319d	274658972	1	main_z	7	advance_on_keypress_ZEE	88	stimuli_target_circletriangles.svg	stimuli_distractor_trianglediamonds.svg	1	yes	57	0	316
6.6.1	mac	2022-12-14	15:55:42	16:01:52	356355	62e7f9fec0521e596587319d	274658972	1	main_z	7	main_z	89	stimuli_target_squaretriangles.svg	stimuli_distractor_trianglediamonds.svg	3	yes	44	1	1233
6.6.1	mac	2022-12-14	15:55:42	16:01:52	356355	62e7f9fec0521e596587319d	274658972	1	main_z	7	advance_on_keypress_ZEE	90	stimuli_target_squaretriangles.svg	stimuli_distractor_trianglediamonds.svg	3	yes	57	0	426
6.6.1	mac	2022-12-14	15:55:42	16:01:54	358499	62e7f9fec0521e596587319d	274658972	1	main_z	7	main_z	91	stimuli_distractor_diamondtriangles.svg	stimuli_target_trianglesquares.svg	30	yes	44	1	1098
6.6.1	mac	2022-12-14	15:55:42	16:01:54	358499	62e7f9fec0521e596587319d	274658972	1	main_z	7	advance_on_keypress_ZEE	92	stimuli_distractor_diamondtriangles.svg	stimuli_target_trianglesquares.svg	30	yes	57	0	330
6.6.1	mac	2022-12-14	15:55:42	16:01:56	360490	62e7f9fec0521e596587319d	274658972	1	main_z	7	main_z	93	stimuli_target_circlediamonds.svg	stimuli_distractor_diamondtriangles.svg	6	yes	44	1	1029
6.6.1	mac	2022-12-14	15:55:42	16:01:56	360490	62e7f9fec0521e596587319d	274658972	1	main_z	7	advance_on_keypress_ZEE	94	stimuli_target_circlediamonds.svg	stimuli_distractor_diamondtriangles.svg	6	yes	57	0	319
6.6.1	mac	2022-12-14	15:55:42	16:01:59	363440	62e7f9fec0521e596587319d	274658972	1	main_z	7	main_z	95	stimuli_distractor_trianglediamonds.svg	stimuli_distractor_diamondtriangles.svg	36	no	0	1	2000
6.6.1	mac	2022-12-14	15:55:42	16:01:59	363440	62e7f9fec0521e596587319d	274658972	1	main_z	7	advance_on_keypress_ZEE	96	stimuli_distractor_trianglediamonds.svg	stimuli_distractor_diamondtriangles.svg	36	no	57	0	319
6.6.1	mac	2022-12-14	15:55:42	16:02:01	365483	62e7f9fec0521e596587319d	274658972	1	main_z	7	main_z	97	stimuli_target_trianglesquares.svg	stimuli_distractor_diamondtriangles.svg	22	yes	44	1	1099
6.6.1	mac	2022-12-14	15:55:42	16:02:01	365483	62e7f9fec0521e596587319d	274658972	1	main_z	7	advance_on_keypress_ZEE	98	stimuli_target_trianglesquares.svg	stimuli_distractor_diamondtriangles.svg	22	yes	57	0	418
6.6.1	mac	2022-12-14	15:55:42	16:02:03	367514	62e7f9fec0521e596587319d	274658972	1	main_z	7	main_z	99	stimuli_distractor_trianglediamonds.svg	stimuli_target_squaretriangles.svg	11	yes	44	1	986
6.6.1	mac	2022-12-14	15:55:42	16:02:03	367514	62e7f9fec0521e596587319d	274658972	1	main_z	7	advance_on_keypress_ZEE	100	stimuli_distractor_trianglediamonds.svg	stimuli_target_squaretriangles.svg	11	yes	57	0	325
6.6.1	mac	2022-12-14	15:55:42	16:02:05	369539	62e7f9fec0521e596587319d	274658972	1	main_z	7	main_z	101	stimuli_target_diamondsquares.svg	stimuli_distractor_trianglediamonds.svg	20	yes	44	1	1065
6.6.1	mac	2022-12-14	15:55:42	16:02:05	369539	62e7f9fec0521e596587319d	274658972	1	main_z	7	advance_on_keypress_ZEE	102	stimuli_target_diamondsquares.svg	stimuli_distractor_trianglediamonds.svg	20	yes	57	0	401
6.6.1	mac	2022-12-14	15:55:42	16:02:07	371562	62e7f9fec0521e596587319d	274658972	1	main_z	7	main_z	103	stimuli_target_diamondcircles.svg	stimuli_distractor_diamondtriangles.svg	23	yes	44	1	994
6.6.1	mac	2022-12-14	15:55:42	16:02:07	371562	62e7f9fec0521e596587319d	274658972	1	main_z	7	advance_on_keypress_ZEE	104	stimuli_target_diamondcircles.svg	stimuli_distractor_diamondtriangles.svg	23	yes	57	0	333
6.6.1	mac	2022-12-14	15:55:42	16:02:09	373546	62e7f9fec0521e596587319d	274658972	1	main_z	7	main_z	105	stimuli_distractor_diamondtriangles.svg	stimuli_target_circletriangles.svg	13	yes	44	1	1017
6.6.1	mac	2022-12-14	15:55:42	16:02:09	373546	62e7f9fec0521e596587319d	274658972	1	main_z	7	advance_on_keypress_ZEE	106	stimuli_distractor_diamondtriangles.svg	stimuli_target_circletriangles.svg	13	yes	57	0	274
6.6.1	mac	2022-12-14	15:55:42	16:02:12	376443	62e7f9fec0521e596587319d	274658972	1	main_z	7	main_z	107	stimuli_distractor_diamondtriangles.svg	stimuli_distractor_trianglediamonds.svg	38	no	0	1	2000
6.6.1	mac	2022-12-14	15:55:42	16:02:12	376443	62e7f9fec0521e596587319d	274658972	1	main_z	7	advance_on_keypress_ZEE	108	stimuli_distractor_diamondtriangles.svg	stimuli_distractor_trianglediamonds.svg	38	no	57	0	452
6.6.1	mac	2022-12-14	15:55:42	16:02:14	378475	62e7f9fec0521e596587319d	274658972	1	main_z	7	main_z	109	stimuli_distractor_diamondtriangles.svg	stimuli_target_trianglecircles.svg	29	yes	44	1	956
6.6.1	mac	2022-12-14	15:55:42	16:02:14	378475	62e7f9fec0521e596587319d	274658972	1	main_z	7	advance_on_keypress_ZEE	110	stimuli_distractor_diamondtriangles.svg	stimuli_target_trianglecircles.svg	29	yes	57	0	279
6.6.1	mac	2022-12-14	15:55:42	16:02:16	380282	62e7f9fec0521e596587319d	274658972	1	main_z	7	main_z	111	stimuli_target_circletriangles.svg	stimuli_distractor_diamondtriangles.svg	5	yes	44	1	901
6.6.1	mac	2022-12-14	15:55:42	16:02:16	380282	62e7f9fec0521e596587319d	274658972	1	main_z	7	advance_on_keypress_ZEE	112	stimuli_target_circletriangles.svg	stimuli_distractor_diamondtriangles.svg	5	yes	57	0	292
6.6.1	mac	2022-12-14	15:55:42	16:02:18	382243	62e7f9fec0521e596587319d	274658972	1	main_z	7	main_z	113	stimuli_target_trianglecircles.svg	stimuli_distractor_diamondtriangles.svg	21	yes	44	1	1049
6.6.1	mac	2022-12-14	15:55:42	16:02:18	382243	62e7f9fec0521e596587319d	274658972	1	main_z	7	advance_on_keypress_ZEE	114	stimuli_target_trianglecircles.svg	stimuli_distractor_diamondtriangles.svg	21	yes	57	0	290
6.6.1	mac	2022-12-14	15:55:42	16:02:20	384187	62e7f9fec0521e596587319d	274658972	1	main_z	7	main_z	115	stimuli_distractor_trianglediamonds.svg	stimuli_distractor_diamondtriangles.svg	35	no	44	0	1032
6.6.1	mac	2022-12-14	15:55:42	16:02:20	384187	62e7f9fec0521e596587319d	274658972	1	main_z	7	advance_on_keypress_ZEE	116	stimuli_distractor_trianglediamonds.svg	stimuli_distractor_diamondtriangles.svg	35	no	57	0	264
6.6.1	mac	2022-12-14	15:55:42	16:02:22	386115	62e7f9fec0521e596587319d	274658972	1	main_z	7	main_z	117	stimuli_target_diamondcircles.svg	stimuli_distractor_trianglediamonds.svg	19	yes	44	1	1031
6.6.1	mac	2022-12-14	15:55:42	16:02:22	386115	62e7f9fec0521e596587319d	274658972	1	main_z	7	advance_on_keypress_ZEE	118	stimuli_target_diamondcircles.svg	stimuli_distractor_trianglediamonds.svg	19	yes	57	0	247
6.6.1	mac	2022-12-14	15:55:42	16:02:25	388996	62e7f9fec0521e596587319d	274658972	1	main_z	7	main_z	119	stimuli_distractor_trianglediamonds.svg	stimuli_distractor_trianglediamonds.svg	33	no	0	1	2000
6.6.1	mac	2022-12-14	15:55:42	16:02:25	388996	62e7f9fec0521e596587319d	274658972	1	main_z	7	advance_on_keypress_ZEE	120	stimuli_distractor_trianglediamonds.svg	stimuli_distractor_trianglediamonds.svg	33	no	57	0	434
6.6.1	mac	2022-12-14	15:55:42	16:02:28	392056	62e7f9fec0521e596587319d	274658972	1	main_z	7	main_z	121	stimuli_distractor_trianglediamonds.svg	stimuli_distractor_trianglediamonds.svg	34	no	0	1	2000
6.6.1	mac	2022-12-14	15:55:42	16:02:28	392056	62e7f9fec0521e596587319d	274658972	1	main_z	7	advance_on_keypress_ZEE	122	stimuli_distractor_trianglediamonds.svg	stimuli_distractor_trianglediamonds.svg	34	no	57	0	271
6.6.1	mac	2022-12-14	15:55:42	16:02:29	393930	62e7f9fec0521e596587319d	274658972	1	main_z	7	main_z	123	stimuli_target_squarediamonds.svg	stimuli_distractor_trianglediamonds.svg	4	yes	44	1	965
6.6.1	mac	2022-12-14	15:55:42	16:02:29	393930	62e7f9fec0521e596587319d	274658972	1	main_z	7	advance_on_keypress_ZEE	124	stimuli_target_squarediamonds.svg	stimuli_distractor_trianglediamonds.svg	4	yes	57	0	264
6.6.1	mac	2022-12-14	15:55:42	16:02:31	395794	62e7f9fec0521e596587319d	274658972	1	main_z	7	main_z	125	stimuli_distractor_diamondtriangles.svg	stimuli_target_diamondsquares.svg	32	yes	44	1	967
6.6.1	mac	2022-12-14	15:55:42	16:02:31	395794	62e7f9fec0521e596587319d	274658972	1	main_z	7	advance_on_keypress_ZEE	126	stimuli_distractor_diamondtriangles.svg	stimuli_target_diamondsquares.svg	32	yes	57	0	258
6.6.1	mac	2022-12-14	15:55:42	16:02:33	397611	62e7f9fec0521e596587319d	274658972	1	main_z	7	main_z	127	stimuli_target_trianglecircles.svg	stimuli_distractor_trianglediamonds.svg	17	yes	44	1	936
6.6.1	mac	2022-12-14	15:55:42	16:02:33	397611	62e7f9fec0521e596587319d	274658972	1	main_z	7	advance_on_keypress_ZEE	128	stimuli_target_trianglecircles.svg	stimuli_distractor_trianglediamonds.svg	17	yes	57	0	197
6.6.1	mac	2022-12-14	15:55:42	16:02:35	399291	62e7f9fec0521e596587319d	274658972	1	main_z	7	main_z	129	stimuli_distractor_trianglediamonds.svg	stimuli_target_diamondcircles.svg	27	yes	44	1	854
6.6.1	mac	2022-12-14	15:55:42	16:02:35	399291	62e7f9fec0521e596587319d	274658972	1	main_z	7	advance_on_keypress_ZEE	130	stimuli_distractor_trianglediamonds.svg	stimuli_target_diamondcircles.svg	27	yes	57	0	246
6.6.1	mac	2022-12-14	15:55:42	16:02:37	401002	62e7f9fec0521e596587319d	274658972	1	main_z	7	main_z	131	stimuli_distractor_trianglediamonds.svg	stimuli_target_circlediamonds.svg	10	yes	44	1	837
6.6.1	mac	2022-12-14	15:55:42	16:02:37	401002	62e7f9fec0521e596587319d	274658972	1	main_z	7	advance_on_keypress_ZEE	132	stimuli_distractor_trianglediamonds.svg	stimuli_target_circlediamonds.svg	10	yes	57	0	269
6.6.1	mac	2022-12-14	15:55:42	16:02:38	402723	62e7f9fec0521e596587319d	274658972	1	main_z	7	main_z	133	stimuli_distractor_diamondtriangles.svg	stimuli_target_squaretriangles.svg	15	yes	44	1	828
6.6.1	mac	2022-12-14	15:55:42	16:02:38	402723	62e7f9fec0521e596587319d	274658972	1	main_z	7	advance_on_keypress_ZEE	134	stimuli_distractor_diamondtriangles.svg	stimuli_target_squaretriangles.svg	15	yes	57	0	269
6.6.1	mac	2022-12-14	15:55:42	16:02:40	404514	62e7f9fec0521e596587319d	274658972	1	main_z	7	main_z	135	stimuli_target_trianglesquares.svg	stimuli_distractor_trianglediamonds.svg	18	yes	44	1	890
6.6.1	mac	2022-12-14	15:55:42	16:02:40	404514	62e7f9fec0521e596587319d	274658972	1	main_z	7	advance_on_keypress_ZEE	136	stimuli_target_trianglesquares.svg	stimuli_distractor_trianglediamonds.svg	18	yes	57	0	249
6.6.1	mac	2022-12-14	15:55:42	16:02:42	406298	62e7f9fec0521e596587319d	274658972	1	main_z	7	main_z	137	stimuli_distractor_diamondtriangles.svg	stimuli_target_circlediamonds.svg	14	yes	44	1	912
6.6.1	mac	2022-12-14	15:55:42	16:02:42	406298	62e7f9fec0521e596587319d	274658972	1	main_z	7	advance_on_keypress_ZEE	138	stimuli_distractor_diamondtriangles.svg	stimuli_target_circlediamonds.svg	14	yes	57	0	247
6.6.1	mac	2022-12-14	15:55:42	16:02:44	408035	62e7f9fec0521e596587319d	274658972	1	main_z	7	main_z	139	stimuli_target_squaretriangles.svg	stimuli_distractor_diamondtriangles.svg	7	yes	44	1	852
6.6.1	mac	2022-12-14	15:55:42	16:02:44	408035	62e7f9fec0521e596587319d	274658972	1	main_z	7	advance_on_keypress_ZEE	140	stimuli_target_squaretriangles.svg	stimuli_distractor_diamondtriangles.svg	7	yes	57	0	252
6.6.1	mac	2022-12-14	15:55:42	16:02:45	409835	62e7f9fec0521e596587319d	274658972	1	main_z	7	main_z	141	stimuli_distractor_trianglediamonds.svg	stimuli_target_circletriangles.svg	9	yes	44	1	923
6.6.1	mac	2022-12-14	15:55:42	16:02:45	409835	62e7f9fec0521e596587319d	274658972	1	main_z	7	advance_on_keypress_ZEE	142	stimuli_distractor_trianglediamonds.svg	stimuli_target_circletriangles.svg	9	yes	57	0	192
6.6.1	mac	2022-12-14	15:55:42	16:02:48	412657	62e7f9fec0521e596587319d	274658972	1	main_z	7	main_z	143	stimuli_distractor_trianglediamonds.svg	stimuli_target_trianglesquares.svg	26	yes	0	0	2000
6.6.1	mac	2022-12-14	15:55:42	16:02:48	412657	62e7f9fec0521e596587319d	274658972	1	main_z	7	advance_on_keypress_ZEE	144	stimuli_distractor_trianglediamonds.svg	stimuli_target_trianglesquares.svg	26	yes	57	0	373
6.6.1	mac	2022-12-14	15:55:42	16:02:50	414707	62e7f9fec0521e596587319d	274658972	1	main_z	7	main_z	145	stimuli_distractor_trianglediamonds.svg	stimuli_target_diamondsquares.svg	28	yes	44	1	1040
6.6.1	mac	2022-12-14	15:55:42	16:02:50	414707	62e7f9fec0521e596587319d	274658972	1	main_z	7	advance_on_keypress_ZEE	146	stimuli_distractor_trianglediamonds.svg	stimuli_target_diamondsquares.svg	28	yes	57	0	272
6.6.1	mac	2022-12-14	15:55:42	16:02:52	416467	62e7f9fec0521e596587319d	274658972	1	main_z	7	main_z	147	stimuli_distractor_diamondtriangles.svg	stimuli_target_diamondcircles.svg	31	yes	44	1	854
6.6.1	mac	2022-12-14	15:55:42	16:02:52	416467	62e7f9fec0521e596587319d	274658972	1	main_z	7	advance_on_keypress_ZEE	148	stimuli_distractor_diamondtriangles.svg	stimuli_target_diamondcircles.svg	31	yes	57	0	198
6.6.1	mac	2022-12-14	15:55:42	16:02:54	418131	62e7f9fec0521e596587319d	274658972	1	main_z	7	main_z	149	stimuli_target_circlediamonds.svg	stimuli_distractor_trianglediamonds.svg	2	yes	44	1	839
6.6.1	mac	2022-12-14	15:55:42	16:02:54	418131	62e7f9fec0521e596587319d	274658972	1	main_z	7	advance_on_keypress_ZEE	150	stimuli_target_circlediamonds.svg	stimuli_distractor_trianglediamonds.svg	2	yes	57	0	199
6.6.1	mac	2022-12-14	15:55:42	16:02:55	419802	62e7f9fec0521e596587319d	274658972	1	main_z	7	main_z	151	stimuli_distractor_trianglediamonds.svg	stimuli_target_squarediamonds.svg	12	yes	44	1	848
6.6.1	mac	2022-12-14	15:55:42	16:02:55	419802	62e7f9fec0521e596587319d	274658972	1	main_z	7	advance_on_keypress_ZEE	152	stimuli_distractor_trianglediamonds.svg	stimuli_target_squarediamonds.svg	12	yes	57	0	184
6.6.1	mac	2022-12-14	15:55:42	16:02:57	421483	62e7f9fec0521e596587319d	274658972	1	main_z	7	main_z	153	stimuli_target_diamondsquares.svg	stimuli_distractor_diamondtriangles.svg	24	yes	44	1	865
6.6.1	mac	2022-12-14	15:55:42	16:02:57	421483	62e7f9fec0521e596587319d	274658972	1	main_z	7	advance_on_keypress_ZEE	154	stimuli_target_diamondsquares.svg	stimuli_distractor_diamondtriangles.svg	24	yes	57	0	249
6.6.1	mac	2022-12-14	15:55:42	16:02:59	423219	62e7f9fec0521e596587319d	274658972	1	main_z	7	main_z	155	stimuli_distractor_diamondtriangles.svg	stimuli_target_squarediamonds.svg	16	yes	44	1	856
6.6.1	mac	2022-12-14	15:55:42	16:02:59	423219	62e7f9fec0521e596587319d	274658972	1	main_z	7	advance_on_keypress_ZEE	156	stimuli_distractor_diamondtriangles.svg	stimuli_target_squarediamonds.svg	16	yes	57	0	191
6.6.1	mac	2022-12-14	15:55:42	16:03:02	426041	62e7f9fec0521e596587319d	274658972	1	main_z	7	main_z	157	stimuli_distractor_diamondtriangles.svg	stimuli_distractor_trianglediamonds.svg	37	no	0	1	2000
6.6.1	mac	2022-12-14	15:55:42	16:03:02	426041	62e7f9fec0521e596587319d	274658972	1	main_z	7	advance_on_keypress_ZEE	158	stimuli_distractor_diamondtriangles.svg	stimuli_distractor_trianglediamonds.svg	37	no	57	0	365
6.6.1	mac	2022-12-14	15:55:42	16:03:05	429035	62e7f9fec0521e596587319d	274658972	1	main_z	7	main_z	159	stimuli_distractor_diamondtriangles.svg	stimuli_distractor_diamondtriangles.svg	39	no	0	1	2000
6.6.1	mac	2022-12-14	15:55:42	16:03:05	429035	62e7f9fec0521e596587319d	274658972	1	main_z	7	advance_on_keypress_ZEE	160	stimuli_distractor_diamondtriangles.svg	stimuli_distractor_diamondtriangles.svg	39	no	57	0	283
6.6.1	mac	2022-12-14	15:55:42	16:03:30	454159	62e7f9fec0521e596587319d	274658972	1	practice_slash	9	practice_slash	1	stimuli_distractor_trianglediamonds.svg	stimuli_target_squarediamonds.svg	11	yes	53	1	800
6.6.1	mac	2022-12-14	15:55:42	16:03:30	454159	62e7f9fec0521e596587319d	274658972	1	practice_slash	9	advance_on_keypress_SLASH	2	stimuli_distractor_trianglediamonds.svg	stimuli_target_squarediamonds.svg	11	yes	57	0	427
6.6.1	mac	2022-12-14	15:55:42	16:03:34	458219	62e7f9fec0521e596587319d	274658972	1	practice_slash	9	practice_slash	3	stimuli_distractor_trianglediamonds.svg	stimuli_distractor_trianglediamonds.svg	15	no	0	1	2000
6.6.1	mac	2022-12-14	15:55:42	16:03:34	458219	62e7f9fec0521e596587319d	274658972	1	practice_slash	9	advance_on_keypress_SLASH	4	stimuli_distractor_trianglediamonds.svg	stimuli_distractor_trianglediamonds.svg	15	no	57	0	402
6.6.1	mac	2022-12-14	15:55:42	16:03:37	461440	62e7f9fec0521e596587319d	274658972	1	practice_slash	9	practice_slash	5	stimuli_distractor_diamondtriangles.svg	stimuli_distractor_trianglediamonds.svg	14	no	53	0	1195
6.6.1	mac	2022-12-14	15:55:42	16:03:37	461440	62e7f9fec0521e596587319d	274658972	1	practice_slash	9	advance_on_keypress_SLASH	6	stimuli_distractor_diamondtriangles.svg	stimuli_distractor_trianglediamonds.svg	14	no	57	0	305
6.6.1	mac	2022-12-14	15:55:42	16:03:40	464424	62e7f9fec0521e596587319d	274658972	1	practice_slash	9	practice_slash	7	stimuli_distractor_diamondtriangles.svg	stimuli_target_diamondcircles.svg	8	yes	53	1	1054
6.6.1	mac	2022-12-14	15:55:42	16:03:40	464424	62e7f9fec0521e596587319d	274658972	1	practice_slash	9	advance_on_keypress_SLASH	8	stimuli_distractor_diamondtriangles.svg	stimuli_target_diamondcircles.svg	8	yes	57	0	392
6.6.1	mac	2022-12-14	15:55:42	16:03:43	467312	62e7f9fec0521e596587319d	274658972	1	practice_slash	9	practice_slash	9	stimuli_target_circlediamonds.svg	stimuli_distractor_diamondtriangles.svg	1	yes	53	1	865
6.6.1	mac	2022-12-14	15:55:42	16:03:43	467312	62e7f9fec0521e596587319d	274658972	1	practice_slash	9	advance_on_keypress_SLASH	10	stimuli_target_circlediamonds.svg	stimuli_distractor_diamondtriangles.svg	1	yes	57	0	379
6.6.1	mac	2022-12-14	15:55:42	16:03:46	470303	62e7f9fec0521e596587319d	274658972	1	practice_slash	9	practice_slash	11	stimuli_target_squarediamonds.svg	stimuli_distractor_trianglediamonds.svg	5	yes	53	1	981
6.6.1	mac	2022-12-14	15:55:42	16:03:46	470303	62e7f9fec0521e596587319d	274658972	1	practice_slash	9	advance_on_keypress_SLASH	12	stimuli_target_squarediamonds.svg	stimuli_distractor_trianglediamonds.svg	5	yes	57	0	475
6.6.1	mac	2022-12-14	15:55:42	16:03:49	473439	62e7f9fec0521e596587319d	274658972	1	practice_slash	9	practice_slash	13	stimuli_distractor_diamondtriangles.svg	stimuli_target_circletriangles.svg	7	yes	53	1	1041
6.6.1	mac	2022-12-14	15:55:42	16:03:49	473439	62e7f9fec0521e596587319d	274658972	1	practice_slash	9	advance_on_keypress_SLASH	14	stimuli_distractor_diamondtriangles.svg	stimuli_target_circletriangles.svg	7	yes	57	0	461
6.6.1	mac	2022-12-14	15:55:42	16:03:53	477540	62e7f9fec0521e596587319d	274658972	1	practice_slash	9	practice_slash	15	stimuli_distractor_trianglediamonds.svg	stimuli_distractor_diamondtriangles.svg	16	no	0	1	2000
6.6.1	mac	2022-12-14	15:55:42	16:03:53	477540	62e7f9fec0521e596587319d	274658972	1	practice_slash	9	advance_on_keypress_SLASH	16	stimuli_distractor_trianglediamonds.svg	stimuli_distractor_diamondtriangles.svg	16	no	57	0	354
6.6.1	mac	2022-12-14	15:55:42	16:03:56	480472	62e7f9fec0521e596587319d	274658972	1	practice_slash	9	practice_slash	17	stimuli_target_squarediamonds.svg	stimuli_distractor_diamondtriangles.svg	2	yes	53	1	942
6.6.1	mac	2022-12-14	15:55:42	16:03:56	480472	62e7f9fec0521e596587319d	274658972	1	practice_slash	9	advance_on_keypress_SLASH	18	stimuli_target_squarediamonds.svg	stimuli_distractor_diamondtriangles.svg	2	yes	57	0	437
6.6.1	mac	2022-12-14	15:55:42	16:03:59	483584	62e7f9fec0521e596587319d	274658972	1	practice_slash	9	practice_slash	19	stimuli_distractor_trianglediamonds.svg	stimuli_target_circlediamonds.svg	10	yes	53	1	1043
6.6.1	mac	2022-12-14	15:55:42	16:03:59	483584	62e7f9fec0521e596587319d	274658972	1	practice_slash	9	advance_on_keypress_SLASH	20	stimuli_distractor_trianglediamonds.svg	stimuli_target_circlediamonds.svg	10	yes	57	0	463
6.6.1	mac	2022-12-14	15:55:42	16:04:02	486680	62e7f9fec0521e596587319d	274658972	1	practice_slash	9	practice_slash	21	stimuli_target_diamondsquares.svg	stimuli_distractor_diamondtriangles.svg	3	yes	53	1	997
6.6.1	mac	2022-12-14	15:55:42	16:04:02	486680	62e7f9fec0521e596587319d	274658972	1	practice_slash	9	advance_on_keypress_SLASH	22	stimuli_target_diamondsquares.svg	stimuli_distractor_diamondtriangles.svg	3	yes	57	0	489
6.6.1	mac	2022-12-14	15:55:42	16:04:06	490791	62e7f9fec0521e596587319d	274658972	1	practice_slash	9	practice_slash	23	stimuli_distractor_trianglediamonds.svg	stimuli_target_diamondcircles.svg	12	yes	0	0	2000
6.6.1	mac	2022-12-14	15:55:42	16:04:06	490791	62e7f9fec0521e596587319d	274658972	1	practice_slash	9	advance_on_keypress_SLASH	24	stimuli_distractor_trianglediamonds.svg	stimuli_target_diamondcircles.svg	12	yes	57	0	340
6.6.1	mac	2022-12-14	15:55:42	16:04:10	494766	62e7f9fec0521e596587319d	274658972	1	practice_slash	9	practice_slash	25	stimuli_target_diamondsquares.svg	stimuli_distractor_trianglediamonds.svg	6	yes	0	0	2000
6.6.1	mac	2022-12-14	15:55:42	16:04:10	494766	62e7f9fec0521e596587319d	274658972	1	practice_slash	9	advance_on_keypress_SLASH	26	stimuli_target_diamondsquares.svg	stimuli_distractor_trianglediamonds.svg	6	yes	57	0	298
6.6.1	mac	2022-12-14	15:55:42	16:04:14	498689	62e7f9fec0521e596587319d	274658972	1	practice_slash	9	practice_slash	27	stimuli_distractor_diamondtriangles.svg	stimuli_distractor_diamondtriangles.svg	13	no	0	1	2000
6.6.1	mac	2022-12-14	15:55:42	16:04:14	498689	62e7f9fec0521e596587319d	274658972	1	practice_slash	9	advance_on_keypress_SLASH	28	stimuli_distractor_diamondtriangles.svg	stimuli_distractor_diamondtriangles.svg	13	no	57	0	429
6.6.1	mac	2022-12-14	15:55:42	16:04:17	501658	62e7f9fec0521e596587319d	274658972	1	practice_slash	9	practice_slash	29	stimuli_distractor_diamondtriangles.svg	stimuli_target_trianglecircles.svg	9	yes	53	1	911
6.6.1	mac	2022-12-14	15:55:42	16:04:17	501658	62e7f9fec0521e596587319d	274658972	1	practice_slash	9	advance_on_keypress_SLASH	30	stimuli_distractor_diamondtriangles.svg	stimuli_target_trianglecircles.svg	9	yes	57	0	375
6.6.1	mac	2022-12-14	15:55:42	16:04:20	504602	62e7f9fec0521e596587319d	274658972	1	practice_slash	9	practice_slash	31	stimuli_target_circlediamonds.svg	stimuli_distractor_trianglediamonds.svg	4	yes	53	1	944
6.6.1	mac	2022-12-14	15:55:42	16:04:20	504602	62e7f9fec0521e596587319d	274658972	1	practice_slash	9	advance_on_keypress_SLASH	32	stimuli_target_circlediamonds.svg	stimuli_distractor_trianglediamonds.svg	4	yes	57	0	312
6.6.1	mac	2022-12-14	15:55:42	16:04:25	509258	62e7f9fec0521e596587319d	274658972	1	main_slash	11	main_slash	1	stimuli_distractor_diamondtriangles.svg	stimuli_target_circlediamonds.svg	14	yes	53	1	830
6.6.1	mac	2022-12-14	15:55:42	16:04:25	509258	62e7f9fec0521e596587319d	274658972	1	main_slash	11	advance_on_keypress_SLASH	2	stimuli_distractor_diamondtriangles.svg	stimuli_target_circlediamonds.svg	14	yes	57	0	879
6.6.1	mac	2022-12-14	15:55:42	16:04:28	512787	62e7f9fec0521e596587319d	274658972	1	main_slash	11	main_slash	3	stimuli_distractor_trianglediamonds.svg	stimuli_distractor_trianglediamonds.svg	33	no	0	1	2000
6.6.1	mac	2022-12-14	15:55:42	16:04:28	512787	62e7f9fec0521e596587319d	274658972	1	main_slash	11	advance_on_keypress_SLASH	4	stimuli_distractor_trianglediamonds.svg	stimuli_distractor_trianglediamonds.svg	33	no	57	0	425
6.6.1	mac	2022-12-14	15:55:42	16:04:30	514610	62e7f9fec0521e596587319d	274658972	1	main_slash	11	main_slash	5	stimuli_distractor_trianglediamonds.svg	stimuli_target_squaretriangles.svg	11	yes	53	1	762
6.6.1	mac	2022-12-14	15:55:42	16:04:30	514610	62e7f9fec0521e596587319d	274658972	1	main_slash	11	advance_on_keypress_SLASH	6	stimuli_distractor_trianglediamonds.svg	stimuli_target_squaretriangles.svg	11	yes	57	0	541
6.6.1	mac	2022-12-14	15:55:42	16:04:33	517776	62e7f9fec0521e596587319d	274658972	1	main_slash	11	main_slash	7	stimuli_distractor_diamondtriangles.svg	stimuli_target_diamondsquares.svg	32	yes	0	0	2000
6.6.1	mac	2022-12-14	15:55:42	16:04:33	517776	62e7f9fec0521e596587319d	274658972	1	main_slash	11	advance_on_keypress_SLASH	8	stimuli_distractor_diamondtriangles.svg	stimuli_target_diamondsquares.svg	32	yes	57	0	333
6.6.1	mac	2022-12-14	15:55:42	16:04:35	519698	62e7f9fec0521e596587319d	274658972	1	main_slash	11	main_slash	9	stimuli_target_diamondsquares.svg	stimuli_distractor_trianglediamonds.svg	20	yes	53	1	962
6.6.1	mac	2022-12-14	15:55:42	16:04:35	519698	62e7f9fec0521e596587319d	274658972	1	main_slash	11	advance_on_keypress_SLASH	10	stimuli_target_diamondsquares.svg	stimuli_distractor_trianglediamonds.svg	20	yes	57	0	662
6.6.1	mac	2022-12-14	15:55:42	16:04:37	521834	62e7f9fec0521e596587319d	274658972	1	main_slash	11	main_slash	11	stimuli_target_circletriangles.svg	stimuli_distractor_diamondtriangles.svg	5	yes	53	1	836
6.6.1	mac	2022-12-14	15:55:42	16:04:37	521834	62e7f9fec0521e596587319d	274658972	1	main_slash	11	advance_on_keypress_SLASH	12	stimuli_target_circletriangles.svg	stimuli_distractor_diamondtriangles.svg	5	yes	57	0	388
6.6.1	mac	2022-12-14	15:55:42	16:04:40	524858	62e7f9fec0521e596587319d	274658972	1	main_slash	11	main_slash	13	stimuli_target_diamondsquares.svg	stimuli_distractor_diamondtriangles.svg	24	yes	0	0	2000
6.6.1	mac	2022-12-14	15:55:42	16:04:40	524858	62e7f9fec0521e596587319d	274658972	1	main_slash	11	advance_on_keypress_SLASH	14	stimuli_target_diamondsquares.svg	stimuli_distractor_diamondtriangles.svg	24	yes	57	0	283
6.6.1	mac	2022-12-14	15:55:42	16:04:42	526762	62e7f9fec0521e596587319d	274658972	1	main_slash	11	main_slash	15	stimuli_distractor_trianglediamonds.svg	stimuli_target_circletriangles.svg	9	yes	53	1	993
6.6.1	mac	2022-12-14	15:55:42	16:04:42	526762	62e7f9fec0521e596587319d	274658972	1	main_slash	11	advance_on_keypress_SLASH	16	stimuli_distractor_trianglediamonds.svg	stimuli_target_circletriangles.svg	9	yes	57	0	467
6.6.1	mac	2022-12-14	15:55:42	16:04:44	528770	62e7f9fec0521e596587319d	274658972	1	main_slash	11	main_slash	17	stimuli_target_circlediamonds.svg	stimuli_distractor_diamondtriangles.svg	6	yes	53	1	922
6.6.1	mac	2022-12-14	15:55:42	16:04:44	528770	62e7f9fec0521e596587319d	274658972	1	main_slash	11	advance_on_keypress_SLASH	18	stimuli_target_circlediamonds.svg	stimuli_distractor_diamondtriangles.svg	6	yes	57	0	335
6.6.1	mac	2022-12-14	15:55:42	16:04:46	530554	62e7f9fec0521e596587319d	274658972	1	main_slash	11	main_slash	19	stimuli_target_squaretriangles.svg	stimuli_distractor_trianglediamonds.svg	3	yes	53	1	827
6.6.1	mac	2022-12-14	15:55:42	16:04:46	530554	62e7f9fec0521e596587319d	274658972	1	main_slash	11	advance_on_keypress_SLASH	20	stimuli_target_squaretriangles.svg	stimuli_distractor_trianglediamonds.svg	3	yes	57	0	356
6.6.1	mac	2022-12-14	15:55:42	16:04:48	532474	62e7f9fec0521e596587319d	274658972	1	main_slash	11	main_slash	21	stimuli_target_squarediamonds.svg	stimuli_distractor_trianglediamonds.svg	4	yes	53	1	934
6.6.1	mac	2022-12-14	15:55:42	16:04:48	532474	62e7f9fec0521e596587319d	274658972	1	main_slash	11	advance_on_keypress_SLASH	22	stimuli_target_squarediamonds.svg	stimuli_distractor_trianglediamonds.svg	4	yes	57	0	324
6.6.1	mac	2022-12-14	15:55:42	16:04:51	535418	62e7f9fec0521e596587319d	274658972	1	main_slash	11	main_slash	23	stimuli_distractor_trianglediamonds.svg	stimuli_distractor_trianglediamonds.svg	34	no	0	1	2000
6.6.1	mac	2022-12-14	15:55:42	16:04:51	535418	62e7f9fec0521e596587319d	274658972	1	main_slash	11	advance_on_keypress_SLASH	24	stimuli_distractor_trianglediamonds.svg	stimuli_distractor_trianglediamonds.svg	34	no	57	0	316
6.6.1	mac	2022-12-14	15:55:42	16:04:53	537266	62e7f9fec0521e596587319d	274658972	1	main_slash	11	main_slash	25	stimuli_target_squarediamonds.svg	stimuli_distractor_diamondtriangles.svg	8	yes	53	1	904
6.6.1	mac	2022-12-14	15:55:42	16:04:53	537266	62e7f9fec0521e596587319d	274658972	1	main_slash	11	advance_on_keypress_SLASH	26	stimuli_target_squarediamonds.svg	stimuli_distractor_diamondtriangles.svg	8	yes	57	0	318
6.6.1	mac	2022-12-14	15:55:42	16:04:55	539146	62e7f9fec0521e596587319d	274658972	1	main_slash	11	main_slash	27	stimuli_target_trianglecircles.svg	stimuli_distractor_diamondtriangles.svg	21	yes	53	1	939
6.6.1	mac	2022-12-14	15:55:42	16:04:55	539146	62e7f9fec0521e596587319d	274658972	1	main_slash	11	advance_on_keypress_SLASH	28	stimuli_target_trianglecircles.svg	stimuli_distractor_diamondtriangles.svg	21	yes	57	0	271
6.6.1	mac	2022-12-14	15:55:42	16:04:57	541114	62e7f9fec0521e596587319d	274658972	1	main_slash	11	main_slash	29	stimuli_distractor_diamondtriangles.svg	stimuli_target_trianglecircles.svg	29	yes	53	1	1061
6.6.1	mac	2022-12-14	15:55:42	16:04:57	541114	62e7f9fec0521e596587319d	274658972	1	main_slash	11	advance_on_keypress_SLASH	30	stimuli_distractor_diamondtriangles.svg	stimuli_target_trianglecircles.svg	29	yes	57	0	270
6.6.1	mac	2022-12-14	15:55:42	16:04:59	543410	62e7f9fec0521e596587319d	274658972	1	main_slash	11	main_slash	31	stimuli_distractor_diamondtriangles.svg	stimuli_target_diamondcircles.svg	31	yes	53	1	1395
6.6.1	mac	2022-12-14	15:55:42	16:04:59	543410	62e7f9fec0521e596587319d	274658972	1	main_slash	11	advance_on_keypress_SLASH	32	stimuli_distractor_diamondtriangles.svg	stimuli_target_diamondcircles.svg	31	yes	57	0	303
6.6.1	mac	2022-12-14	15:55:42	16:05:01	545426	62e7f9fec0521e596587319d	274658972	1	main_slash	11	main_slash	33	stimuli_target_diamondcircles.svg	stimuli_distractor_trianglediamonds.svg	19	yes	53	1	1083
6.6.1	mac	2022-12-14	15:55:42	16:05:01	545426	62e7f9fec0521e596587319d	274658972	1	main_slash	11	advance_on_keypress_SLASH	34	stimuli_target_diamondcircles.svg	stimuli_distractor_trianglediamonds.svg	19	yes	57	0	259
6.6.1	mac	2022-12-14	15:55:42	16:05:03	547330	62e7f9fec0521e596587319d	274658972	1	main_slash	11	main_slash	35	stimuli_target_circlediamonds.svg	stimuli_distractor_trianglediamonds.svg	2	yes	53	1	1025
6.6.1	mac	2022-12-14	15:55:42	16:05:03	547330	62e7f9fec0521e596587319d	274658972	1	main_slash	11	advance_on_keypress_SLASH	36	stimuli_target_circlediamonds.svg	stimuli_distractor_trianglediamonds.svg	2	yes	57	0	243
6.6.1	mac	2022-12-14	15:55:42	16:05:06	550200	62e7f9fec0521e596587319d	274658972	1	main_slash	11	main_slash	37	stimuli_distractor_trianglediamonds.svg	stimuli_target_diamondcircles.svg	27	yes	0	0	2000
6.6.1	mac	2022-12-14	15:55:42	16:05:06	550200	62e7f9fec0521e596587319d	274658972	1	main_slash	11	advance_on_keypress_SLASH	38	stimuli_distractor_trianglediamonds.svg	stimuli_target_diamondcircles.svg	27	yes	57	0	286
6.6.1	mac	2022-12-14	15:55:42	16:05:08	552090	62e7f9fec0521e596587319d	274658972	1	main_slash	11	main_slash	39	stimuli_target_squaretriangles.svg	stimuli_distractor_diamondtriangles.svg	7	yes	53	1	980
6.6.1	mac	2022-12-14	15:55:42	16:05:08	552090	62e7f9fec0521e596587319d	274658972	1	main_slash	11	advance_on_keypress_SLASH	40	stimuli_target_squaretriangles.svg	stimuli_distractor_diamondtriangles.svg	7	yes	57	0	663
6.6.1	mac	2022-12-14	15:55:42	16:05:10	554538	62e7f9fec0521e596587319d	274658972	1	main_slash	11	main_slash	41	stimuli_distractor_trianglediamonds.svg	stimuli_distractor_diamondtriangles.svg	36	no	53	0	1150
6.6.1	mac	2022-12-14	15:55:42	16:05:10	554538	62e7f9fec0521e596587319d	274658972	1	main_slash	11	advance_on_keypress_SLASH	42	stimuli_distractor_trianglediamonds.svg	stimuli_distractor_diamondtriangles.svg	36	no	57	0	403
6.6.1	mac	2022-12-14	15:55:42	16:05:12	556474	62e7f9fec0521e596587319d	274658972	1	main_slash	11	main_slash	43	stimuli_distractor_diamondtriangles.svg	stimuli_target_circletriangles.svg	13	yes	53	1	907
6.6.1	mac	2022-12-14	15:55:42	16:05:12	556474	62e7f9fec0521e596587319d	274658972	1	main_slash	11	advance_on_keypress_SLASH	44	stimuli_distractor_diamondtriangles.svg	stimuli_target_circletriangles.svg	13	yes	57	0	321
6.6.1	mac	2022-12-14	15:55:42	16:05:14	558386	62e7f9fec0521e596587319d	274658972	1	main_slash	11	main_slash	45	stimuli_distractor_diamondtriangles.svg	stimuli_target_squarediamonds.svg	16	yes	53	1	957
6.6.1	mac	2022-12-14	15:55:42	16:05:14	558386	62e7f9fec0521e596587319d	274658972	1	main_slash	11	advance_on_keypress_SLASH	46	stimuli_distractor_diamondtriangles.svg	stimuli_target_squarediamonds.svg	16	yes	57	0	345
6.6.1	mac	2022-12-14	15:55:42	16:05:17	561357	62e7f9fec0521e596587319d	274658972	1	main_slash	11	main_slash	47	stimuli_distractor_diamondtriangles.svg	stimuli_distractor_diamondtriangles.svg	40	no	0	1	2000
6.6.1	mac	2022-12-14	15:55:42	16:05:17	561357	62e7f9fec0521e596587319d	274658972	1	main_slash	11	advance_on_keypress_SLASH	48	stimuli_distractor_diamondtriangles.svg	stimuli_distractor_diamondtriangles.svg	40	no	57	0	297
6.6.1	mac	2022-12-14	15:55:42	16:05:19	563434	62e7f9fec0521e596587319d	274658972	1	main_slash	11	main_slash	49	stimuli_distractor_trianglediamonds.svg	stimuli_target_trianglesquares.svg	26	yes	53	1	1150
6.6.1	mac	2022-12-14	15:55:42	16:05:19	563434	62e7f9fec0521e596587319d	274658972	1	main_slash	11	advance_on_keypress_SLASH	50	stimuli_distractor_trianglediamonds.svg	stimuli_target_trianglesquares.svg	26	yes	57	0	691
6.6.1	mac	2022-12-14	15:55:42	16:05:22	566744	62e7f9fec0521e596587319d	274658972	1	main_slash	11	main_slash	51	stimuli_distractor_diamondtriangles.svg	stimuli_distractor_diamondtriangles.svg	39	no	0	1	2000
6.6.1	mac	2022-12-14	15:55:42	16:05:22	566744	62e7f9fec0521e596587319d	274658972	1	main_slash	11	advance_on_keypress_SLASH	52	stimuli_distractor_diamondtriangles.svg	stimuli_distractor_diamondtriangles.svg	39	no	57	0	293
6.6.1	mac	2022-12-14	15:55:42	16:05:25	568962	62e7f9fec0521e596587319d	274658972	1	main_slash	11	main_slash	53	stimuli_distractor_trianglediamonds.svg	stimuli_distractor_diamondtriangles.svg	35	no	53	0	1291
6.6.1	mac	2022-12-14	15:55:42	16:05:25	568962	62e7f9fec0521e596587319d	274658972	1	main_slash	11	advance_on_keypress_SLASH	54	stimuli_distractor_trianglediamonds.svg	stimuli_distractor_diamondtriangles.svg	35	no	57	0	603
6.6.1	mac	2022-12-14	15:55:42	16:05:28	572181	62e7f9fec0521e596587319d	274658972	1	main_slash	11	main_slash	55	stimuli_distractor_trianglediamonds.svg	stimuli_target_diamondsquares.svg	28	yes	0	0	2000
6.6.1	mac	2022-12-14	15:55:42	16:05:28	572181	62e7f9fec0521e596587319d	274658972	1	main_slash	11	advance_on_keypress_SLASH	56	stimuli_distractor_trianglediamonds.svg	stimuli_target_diamondsquares.svg	28	yes	57	0	344
6.6.1	mac	2022-12-14	15:55:42	16:05:30	574186	62e7f9fec0521e596587319d	274658972	1	main_slash	11	main_slash	57	stimuli_target_trianglecircles.svg	stimuli_distractor_trianglediamonds.svg	17	yes	53	1	1028
6.6.1	mac	2022-12-14	15:55:42	16:05:30	574186	62e7f9fec0521e596587319d	274658972	1	main_slash	11	advance_on_keypress_SLASH	58	stimuli_target_trianglecircles.svg	stimuli_distractor_trianglediamonds.svg	17	yes	57	0	454
6.6.1	mac	2022-12-14	15:55:42	16:05:32	576210	62e7f9fec0521e596587319d	274658972	1	main_slash	11	main_slash	59	stimuli_target_trianglesquares.svg	stimuli_distractor_trianglediamonds.svg	18	yes	53	1	940
6.6.1	mac	2022-12-14	15:55:42	16:05:32	576210	62e7f9fec0521e596587319d	274658972	1	main_slash	11	advance_on_keypress_SLASH	60	stimuli_target_trianglesquares.svg	stimuli_distractor_trianglediamonds.svg	18	yes	57	0	289
6.6.1	mac	2022-12-14	15:55:42	16:05:34	577978	62e7f9fec0521e596587319d	274658972	1	main_slash	11	main_slash	61	stimuli_distractor_trianglediamonds.svg	stimuli_target_circlediamonds.svg	10	yes	53	1	846
6.6.1	mac	2022-12-14	15:55:42	16:05:34	577978	62e7f9fec0521e596587319d	274658972	1	main_slash	11	advance_on_keypress_SLASH	62	stimuli_distractor_trianglediamonds.svg	stimuli_target_circlediamonds.svg	10	yes	57	0	366
6.6.1	mac	2022-12-14	15:55:42	16:05:36	580154	62e7f9fec0521e596587319d	274658972	1	main_slash	11	main_slash	63	stimuli_target_trianglesquares.svg	stimuli_distractor_diamondtriangles.svg	22	yes	53	1	1176
6.6.1	mac	2022-12-14	15:55:42	16:05:36	580154	62e7f9fec0521e596587319d	274658972	1	main_slash	11	advance_on_keypress_SLASH	64	stimuli_target_trianglesquares.svg	stimuli_distractor_diamondtriangles.svg	22	yes	57	0	2748
6.6.1	mac	2022-12-14	15:55:42	16:05:41	585533	62e7f9fec0521e596587319d	274658972	1	main_slash	11	main_slash	65	stimuli_distractor_diamondtriangles.svg	stimuli_distractor_trianglediamonds.svg	38	no	0	1	2000
6.6.1	mac	2022-12-14	15:55:42	16:05:41	585533	62e7f9fec0521e596587319d	274658972	1	main_slash	11	advance_on_keypress_SLASH	66	stimuli_distractor_diamondtriangles.svg	stimuli_distractor_trianglediamonds.svg	38	no	57	0	361
6.6.1	mac	2022-12-14	15:55:42	16:05:43	587482	62e7f9fec0521e596587319d	274658972	1	main_slash	11	main_slash	67	stimuli_target_diamondcircles.svg	stimuli_distractor_diamondtriangles.svg	23	yes	53	1	955
6.6.1	mac	2022-12-14	15:55:42	16:05:43	587482	62e7f9fec0521e596587319d	274658972	1	main_slash	11	advance_on_keypress_SLASH	68	stimuli_target_diamondcircles.svg	stimuli_distractor_diamondtriangles.svg	23	yes	57	0	327
6.6.1	mac	2022-12-14	15:55:42	16:05:45	589674	62e7f9fec0521e596587319d	274658972	1	main_slash	11	main_slash	69	stimuli_distractor_diamondtriangles.svg	stimuli_distractor_trianglediamonds.svg	37	no	53	0	1235
6.6.1	mac	2022-12-14	15:55:42	16:05:45	589674	62e7f9fec0521e596587319d	274658972	1	main_slash	11	advance_on_keypress_SLASH	70	stimuli_distractor_diamondtriangles.svg	stimuli_distractor_trianglediamonds.svg	37	no	57	0	356
6.6.1	mac	2022-12-14	15:55:42	16:05:47	591586	62e7f9fec0521e596587319d	274658972	1	main_slash	11	main_slash	71	stimuli_distractor_trianglediamonds.svg	stimuli_target_squarediamonds.svg	12	yes	53	1	919
6.6.1	mac	2022-12-14	15:55:42	16:05:47	591586	62e7f9fec0521e596587319d	274658972	1	main_slash	11	advance_on_keypress_SLASH	72	stimuli_distractor_trianglediamonds.svg	stimuli_target_squarediamonds.svg	12	yes	57	0	260
6.6.1	mac	2022-12-14	15:55:42	16:05:49	593290	62e7f9fec0521e596587319d	274658972	1	main_slash	11	main_slash	73	stimuli_target_circletriangles.svg	stimuli_distractor_trianglediamonds.svg	1	yes	53	1	810
6.6.1	mac	2022-12-14	15:55:42	16:05:49	593290	62e7f9fec0521e596587319d	274658972	1	main_slash	11	advance_on_keypress_SLASH	74	stimuli_target_circletriangles.svg	stimuli_distractor_trianglediamonds.svg	1	yes	57	0	364
6.6.1	mac	2022-12-14	15:55:42	16:05:51	595170	62e7f9fec0521e596587319d	274658972	1	main_slash	11	main_slash	75	stimuli_distractor_trianglediamonds.svg	stimuli_target_trianglecircles.svg	25	yes	53	1	879
6.6.1	mac	2022-12-14	15:55:42	16:05:51	595170	62e7f9fec0521e596587319d	274658972	1	main_slash	11	advance_on_keypress_SLASH	76	stimuli_distractor_trianglediamonds.svg	stimuli_target_trianglecircles.svg	25	yes	57	0	285
6.6.1	mac	2022-12-14	15:55:42	16:05:52	596874	62e7f9fec0521e596587319d	274658972	1	main_slash	11	main_slash	77	stimuli_distractor_diamondtriangles.svg	stimuli_target_squaretriangles.svg	15	yes	53	1	786
6.6.1	mac	2022-12-14	15:55:42	16:05:52	596874	62e7f9fec0521e596587319d	274658972	1	main_slash	11	advance_on_keypress_SLASH	78	stimuli_distractor_diamondtriangles.svg	stimuli_target_squaretriangles.svg	15	yes	57	0	284
6.6.1	mac	2022-12-14	15:55:42	16:05:54	598714	62e7f9fec0521e596587319d	274658972	1	main_slash	11	main_slash	79	stimuli_distractor_diamondtriangles.svg	stimuli_target_trianglesquares.svg	30	yes	53	1	930
6.6.1	mac	2022-12-14	15:55:42	16:05:54	598714	62e7f9fec0521e596587319d	274658972	1	main_slash	11	advance_on_keypress_SLASH	80	stimuli_distractor_diamondtriangles.svg	stimuli_target_trianglesquares.svg	30	yes	57	0	263
6.6.1	mac	2022-12-14	15:55:42	16:05:56	600474	62e7f9fec0521e596587319d	274658972	1	main_slash	11	main_slash	81	stimuli_distractor_diamondtriangles.svg	stimuli_target_circlediamonds.svg	14	yes	53	1	861
6.6.1	mac	2022-12-14	15:55:42	16:05:56	600474	62e7f9fec0521e596587319d	274658972	1	main_slash	11	advance_on_keypress_SLASH	82	stimuli_distractor_diamondtriangles.svg	stimuli_target_circlediamonds.svg	14	yes	57	0	390
6.6.1	mac	2022-12-14	15:55:42	16:05:58	602418	62e7f9fec0521e596587319d	274658972	1	main_slash	11	main_slash	83	stimuli_target_diamondsquares.svg	stimuli_distractor_diamondtriangles.svg	24	yes	53	1	927
6.6.1	mac	2022-12-14	15:55:42	16:05:58	602418	62e7f9fec0521e596587319d	274658972	1	main_slash	11	advance_on_keypress_SLASH	84	stimuli_target_diamondsquares.svg	stimuli_distractor_diamondtriangles.svg	24	yes	57	0	276
6.6.1	mac	2022-12-14	15:55:42	16:06:00	604242	62e7f9fec0521e596587319d	274658972	1	main_slash	11	main_slash	85	stimuli_target_trianglecircles.svg	stimuli_distractor_diamondtriangles.svg	21	yes	53	1	922
6.6.1	mac	2022-12-14	15:55:42	16:06:00	604242	62e7f9fec0521e596587319d	274658972	1	main_slash	11	advance_on_keypress_SLASH	86	stimuli_target_trianglecircles.svg	stimuli_distractor_diamondtriangles.svg	21	yes	57	0	303
6.6.1	mac	2022-12-14	15:55:42	16:06:03	607165	62e7f9fec0521e596587319d	274658972	1	main_slash	11	main_slash	87	stimuli_distractor_diamondtriangles.svg	stimuli_distractor_trianglediamonds.svg	38	no	0	1	2000
6.6.1	mac	2022-12-14	15:55:42	16:06:03	607165	62e7f9fec0521e596587319d	274658972	1	main_slash	11	advance_on_keypress_SLASH	88	stimuli_distractor_diamondtriangles.svg	stimuli_distractor_trianglediamonds.svg	38	no	57	0	288
6.6.1	mac	2022-12-14	15:55:42	16:06:05	609050	62e7f9fec0521e596587319d	274658972	1	main_slash	11	main_slash	89	stimuli_target_circletriangles.svg	stimuli_distractor_diamondtriangles.svg	5	yes	53	1	958
6.6.1	mac	2022-12-14	15:55:42	16:06:05	609050	62e7f9fec0521e596587319d	274658972	1	main_slash	11	advance_on_keypress_SLASH	90	stimuli_target_circletriangles.svg	stimuli_distractor_diamondtriangles.svg	5	yes	57	0	433
6.6.1	mac	2022-12-14	15:55:42	16:06:07	610978	62e7f9fec0521e596587319d	274658972	1	main_slash	11	main_slash	91	stimuli_distractor_trianglediamonds.svg	stimuli_target_trianglesquares.svg	26	yes	53	1	873
6.6.1	mac	2022-12-14	15:55:42	16:06:07	610978	62e7f9fec0521e596587319d	274658972	1	main_slash	11	advance_on_keypress_SLASH	92	stimuli_distractor_trianglediamonds.svg	stimuli_target_trianglesquares.svg	26	yes	57	0	273
6.6.1	mac	2022-12-14	15:55:42	16:06:08	612778	62e7f9fec0521e596587319d	274658972	1	main_slash	11	main_slash	93	stimuli_target_trianglesquares.svg	stimuli_distractor_diamondtriangles.svg	22	yes	53	1	894
6.6.1	mac	2022-12-14	15:55:42	16:06:08	612778	62e7f9fec0521e596587319d	274658972	1	main_slash	11	advance_on_keypress_SLASH	94	stimuli_target_trianglesquares.svg	stimuli_distractor_diamondtriangles.svg	22	yes	57	0	278
6.6.1	mac	2022-12-14	15:55:42	16:06:10	614650	62e7f9fec0521e596587319d	274658972	1	main_slash	11	main_slash	95	stimuli_distractor_trianglediamonds.svg	stimuli_target_squaretriangles.svg	11	yes	53	1	971
6.6.1	mac	2022-12-14	15:55:42	16:06:10	614650	62e7f9fec0521e596587319d	274658972	1	main_slash	11	advance_on_keypress_SLASH	96	stimuli_distractor_trianglediamonds.svg	stimuli_target_squaretriangles.svg	11	yes	57	0	270
6.6.1	mac	2022-12-14	15:55:42	16:06:12	616434	62e7f9fec0521e596587319d	274658972	1	main_slash	11	main_slash	97	stimuli_distractor_trianglediamonds.svg	stimuli_target_circlediamonds.svg	10	yes	53	1	892
6.6.1	mac	2022-12-14	15:55:42	16:06:12	616434	62e7f9fec0521e596587319d	274658972	1	main_slash	11	advance_on_keypress_SLASH	98	stimuli_distractor_trianglediamonds.svg	stimuli_target_circlediamonds.svg	10	yes	57	0	267
6.6.1	mac	2022-12-14	15:55:42	16:06:14	618282	62e7f9fec0521e596587319d	274658972	1	main_slash	11	main_slash	99	stimuli_target_trianglecircles.svg	stimuli_distractor_trianglediamonds.svg	17	yes	53	1	961
6.6.1	mac	2022-12-14	15:55:42	16:06:14	618282	62e7f9fec0521e596587319d	274658972	1	main_slash	11	advance_on_keypress_SLASH	100	stimuli_target_trianglecircles.svg	stimuli_distractor_trianglediamonds.svg	17	yes	57	0	253
6.6.1	mac	2022-12-14	15:55:42	16:06:17	621166	62e7f9fec0521e596587319d	274658972	1	main_slash	11	main_slash	101	stimuli_distractor_trianglediamonds.svg	stimuli_distractor_trianglediamonds.svg	33	no	0	1	2000
6.6.1	mac	2022-12-14	15:55:42	16:06:17	621166	62e7f9fec0521e596587319d	274658972	1	main_slash	11	advance_on_keypress_SLASH	102	stimuli_distractor_trianglediamonds.svg	stimuli_distractor_trianglediamonds.svg	33	no	57	0	296
6.6.1	mac	2022-12-14	15:55:42	16:06:19	623106	62e7f9fec0521e596587319d	274658972	1	main_slash	11	main_slash	103	stimuli_target_diamondcircles.svg	stimuli_distractor_trianglediamonds.svg	19	yes	53	1	1013
6.6.1	mac	2022-12-14	15:55:42	16:06:19	623106	62e7f9fec0521e596587319d	274658972	1	main_slash	11	advance_on_keypress_SLASH	104	stimuli_target_diamondcircles.svg	stimuli_distractor_trianglediamonds.svg	19	yes	57	0	359
6.6.1	mac	2022-12-14	15:55:42	16:06:21	625034	62e7f9fec0521e596587319d	274658972	1	main_slash	11	main_slash	105	stimuli_distractor_trianglediamonds.svg	stimuli_target_diamondcircles.svg	27	yes	53	1	946
6.6.1	mac	2022-12-14	15:55:42	16:06:21	625034	62e7f9fec0521e596587319d	274658972	1	main_slash	11	advance_on_keypress_SLASH	106	stimuli_distractor_trianglediamonds.svg	stimuli_target_diamondcircles.svg	27	yes	57	0	303
6.6.1	mac	2022-12-14	15:55:42	16:06:23	627482	62e7f9fec0521e596587319d	274658972	1	main_slash	11	main_slash	107	stimuli_distractor_trianglediamonds.svg	stimuli_distractor_diamondtriangles.svg	36	no	53	0	1515
6.6.1	mac	2022-12-14	15:55:42	16:06:23	627482	62e7f9fec0521e596587319d	274658972	1	main_slash	11	advance_on_keypress_SLASH	108	stimuli_distractor_trianglediamonds.svg	stimuli_distractor_diamondtriangles.svg	36	no	57	0	554
6.6.1	mac	2022-12-14	15:55:42	16:06:25	629258	62e7f9fec0521e596587319d	274658972	1	main_slash	11	main_slash	109	stimuli_distractor_diamondtriangles.svg	stimuli_target_circletriangles.svg	13	yes	53	1	597
6.6.1	mac	2022-12-14	15:55:42	16:06:25	629258	62e7f9fec0521e596587319d	274658972	1	main_slash	11	advance_on_keypress_SLASH	110	stimuli_distractor_diamondtriangles.svg	stimuli_target_circletriangles.svg	13	yes	57	0	503
6.6.1	mac	2022-12-14	15:55:42	16:06:27	631002	62e7f9fec0521e596587319d	274658972	1	main_slash	11	main_slash	111	stimuli_target_diamondcircles.svg	stimuli_distractor_diamondtriangles.svg	23	yes	53	1	612
6.6.1	mac	2022-12-14	15:55:42	16:06:27	631002	62e7f9fec0521e596587319d	274658972	1	main_slash	11	advance_on_keypress_SLASH	112	stimuli_target_diamondcircles.svg	stimuli_distractor_diamondtriangles.svg	23	yes	57	0	398
6.6.1	mac	2022-12-14	15:55:42	16:06:29	632946	62e7f9fec0521e596587319d	274658972	1	main_slash	11	main_slash	113	stimuli_target_squaretriangles.svg	stimuli_distractor_diamondtriangles.svg	7	yes	53	1	910
6.6.1	mac	2022-12-14	15:55:42	16:06:29	632946	62e7f9fec0521e596587319d	274658972	1	main_slash	11	advance_on_keypress_SLASH	114	stimuli_target_squaretriangles.svg	stimuli_distractor_diamondtriangles.svg	7	yes	57	0	268
6.6.1	mac	2022-12-14	15:55:42	16:06:30	634698	62e7f9fec0521e596587319d	274658972	1	main_slash	11	main_slash	115	stimuli_distractor_diamondtriangles.svg	stimuli_target_squarediamonds.svg	16	yes	53	1	849
6.6.1	mac	2022-12-14	15:55:42	16:06:30	634698	62e7f9fec0521e596587319d	274658972	1	main_slash	11	advance_on_keypress_SLASH	116	stimuli_distractor_diamondtriangles.svg	stimuli_target_squarediamonds.svg	16	yes	57	0	306
6.6.1	mac	2022-12-14	15:55:42	16:06:33	637627	62e7f9fec0521e596587319d	274658972	1	main_slash	11	main_slash	117	stimuli_distractor_diamondtriangles.svg	stimuli_distractor_trianglediamonds.svg	37	no	0	1	2000
6.6.1	mac	2022-12-14	15:55:42	16:06:33	637627	62e7f9fec0521e596587319d	274658972	1	main_slash	11	advance_on_keypress_SLASH	118	stimuli_distractor_diamondtriangles.svg	stimuli_distractor_trianglediamonds.svg	37	no	57	0	330
6.6.1	mac	2022-12-14	15:55:42	16:06:36	640585	62e7f9fec0521e596587319d	274658972	1	main_slash	11	main_slash	119	stimuli_distractor_diamondtriangles.svg	stimuli_distractor_diamondtriangles.svg	39	no	0	1	2000
6.6.1	mac	2022-12-14	15:55:42	16:06:36	640585	62e7f9fec0521e596587319d	274658972	1	main_slash	11	advance_on_keypress_SLASH	120	stimuli_distractor_diamondtriangles.svg	stimuli_distractor_diamondtriangles.svg	39	no	57	0	276
6.6.1	mac	2022-12-14	15:55:42	16:06:39	643480	62e7f9fec0521e596587319d	274658972	1	main_slash	11	main_slash	121	stimuli_distractor_diamondtriangles.svg	stimuli_distractor_diamondtriangles.svg	40	no	0	1	2000
6.6.1	mac	2022-12-14	15:55:42	16:06:39	643480	62e7f9fec0521e596587319d	274658972	1	main_slash	11	advance_on_keypress_SLASH	122	stimuli_distractor_diamondtriangles.svg	stimuli_distractor_diamondtriangles.svg	40	no	57	0	278
6.6.1	mac	2022-12-14	15:55:42	16:06:41	645578	62e7f9fec0521e596587319d	274658972	1	main_slash	11	main_slash	123	stimuli_distractor_trianglediamonds.svg	stimuli_target_diamondsquares.svg	28	yes	53	1	1187
6.6.1	mac	2022-12-14	15:55:42	16:06:41	645578	62e7f9fec0521e596587319d	274658972	1	main_slash	11	advance_on_keypress_SLASH	124	stimuli_distractor_trianglediamonds.svg	stimuli_target_diamondsquares.svg	28	yes	57	0	311
6.6.1	mac	2022-12-14	15:55:42	16:06:43	647514	62e7f9fec0521e596587319d	274658972	1	main_slash	11	main_slash	125	stimuli_target_squarediamonds.svg	stimuli_distractor_diamondtriangles.svg	8	yes	53	1	995
6.6.1	mac	2022-12-14	15:55:42	16:06:43	647514	62e7f9fec0521e596587319d	274658972	1	main_slash	11	advance_on_keypress_SLASH	126	stimuli_target_squarediamonds.svg	stimuli_distractor_diamondtriangles.svg	8	yes	57	0	294
6.6.1	mac	2022-12-14	15:55:42	16:06:45	649394	62e7f9fec0521e596587319d	274658972	1	main_slash	11	main_slash	127	stimuli_target_circlediamonds.svg	stimuli_distractor_diamondtriangles.svg	6	yes	53	1	963
6.6.1	mac	2022-12-14	15:55:42	16:06:45	649394	62e7f9fec0521e596587319d	274658972	1	main_slash	11	advance_on_keypress_SLASH	128	stimuli_target_circlediamonds.svg	stimuli_distractor_diamondtriangles.svg	6	yes	57	0	247
6.6.1	mac	2022-12-14	15:55:42	16:06:47	651618	62e7f9fec0521e596587319d	274658972	1	main_slash	11	main_slash	129	stimuli_distractor_diamondtriangles.svg	stimuli_target_diamondsquares.svg	32	yes	53	1	1342
6.6.1	mac	2022-12-14	15:55:42	16:06:47	651618	62e7f9fec0521e596587319d	274658972	1	main_slash	11	advance_on_keypress_SLASH	130	stimuli_distractor_diamondtriangles.svg	stimuli_target_diamondsquares.svg	32	yes	57	0	283
6.6.1	mac	2022-12-14	15:55:42	16:06:49	653538	62e7f9fec0521e596587319d	274658972	1	main_slash	11	main_slash	131	stimuli_distractor_trianglediamonds.svg	stimuli_target_circletriangles.svg	9	yes	53	1	1000
6.6.1	mac	2022-12-14	15:55:42	16:06:49	653538	62e7f9fec0521e596587319d	274658972	1	main_slash	11	advance_on_keypress_SLASH	132	stimuli_distractor_trianglediamonds.svg	stimuli_target_circletriangles.svg	9	yes	57	0	323
6.6.1	mac	2022-12-14	15:55:42	16:06:52	656482	62e7f9fec0521e596587319d	274658972	1	main_slash	11	main_slash	133	stimuli_target_diamondsquares.svg	stimuli_distractor_trianglediamonds.svg	20	yes	0	0	2000
6.6.1	mac	2022-12-14	15:55:42	16:06:52	656482	62e7f9fec0521e596587319d	274658972	1	main_slash	11	advance_on_keypress_SLASH	134	stimuli_target_diamondsquares.svg	stimuli_distractor_trianglediamonds.svg	20	yes	57	0	345
6.6.1	mac	2022-12-14	15:55:42	16:06:54	658418	62e7f9fec0521e596587319d	274658972	1	main_slash	11	main_slash	135	stimuli_target_circletriangles.svg	stimuli_distractor_trianglediamonds.svg	1	yes	53	1	892
6.6.1	mac	2022-12-14	15:55:42	16:06:54	658418	62e7f9fec0521e596587319d	274658972	1	main_slash	11	advance_on_keypress_SLASH	136	stimuli_target_circletriangles.svg	stimuli_distractor_trianglediamonds.svg	1	yes	57	0	355
6.6.1	mac	2022-12-14	15:55:42	16:06:56	660234	62e7f9fec0521e596587319d	274658972	1	main_slash	11	main_slash	137	stimuli_target_squaretriangles.svg	stimuli_distractor_trianglediamonds.svg	3	yes	53	1	830
6.6.1	mac	2022-12-14	15:55:42	16:06:56	660234	62e7f9fec0521e596587319d	274658972	1	main_slash	11	advance_on_keypress_SLASH	138	stimuli_target_squaretriangles.svg	stimuli_distractor_trianglediamonds.svg	3	yes	57	0	254
6.6.1	mac	2022-12-14	15:55:42	16:06:58	661970	62e7f9fec0521e596587319d	274658972	1	main_slash	11	main_slash	139	stimuli_distractor_diamondtriangles.svg	stimuli_target_squaretriangles.svg	15	yes	53	1	852
6.6.1	mac	2022-12-14	15:55:42	16:06:58	661970	62e7f9fec0521e596587319d	274658972	1	main_slash	11	advance_on_keypress_SLASH	140	stimuli_distractor_diamondtriangles.svg	stimuli_target_squaretriangles.svg	15	yes	57	0	188
6.6.1	mac	2022-12-14	15:55:42	16:06:59	663786	62e7f9fec0521e596587319d	274658972	1	main_slash	11	main_slash	141	stimuli_distractor_trianglediamonds.svg	stimuli_target_trianglecircles.svg	25	yes	53	1	989
6.6.1	mac	2022-12-14	15:55:42	16:06:59	663786	62e7f9fec0521e596587319d	274658972	1	main_slash	11	advance_on_keypress_SLASH	142	stimuli_distractor_trianglediamonds.svg	stimuli_target_trianglecircles.svg	25	yes	57	0	240
6.6.1	mac	2022-12-14	15:55:42	16:07:01	665538	62e7f9fec0521e596587319d	274658972	1	main_slash	11	main_slash	143	stimuli_distractor_trianglediamonds.svg	stimuli_target_squarediamonds.svg	12	yes	53	1	879
6.6.1	mac	2022-12-14	15:55:42	16:07:01	665538	62e7f9fec0521e596587319d	274658972	1	main_slash	11	advance_on_keypress_SLASH	144	stimuli_distractor_trianglediamonds.svg	stimuli_target_squarediamonds.svg	12	yes	57	0	238
6.6.1	mac	2022-12-14	15:55:42	16:07:03	667314	62e7f9fec0521e596587319d	274658972	1	main_slash	11	main_slash	145	stimuli_target_trianglesquares.svg	stimuli_distractor_trianglediamonds.svg	18	yes	53	1	909
6.6.1	mac	2022-12-14	15:55:42	16:07:03	667314	62e7f9fec0521e596587319d	274658972	1	main_slash	11	advance_on_keypress_SLASH	146	stimuli_target_trianglesquares.svg	stimuli_distractor_trianglediamonds.svg	18	yes	57	0	243
6.6.1	mac	2022-12-14	15:55:42	16:07:05	669058	62e7f9fec0521e596587319d	274658972	1	main_slash	11	main_slash	147	stimuli_target_squarediamonds.svg	stimuli_distractor_trianglediamonds.svg	4	yes	53	1	873
6.6.1	mac	2022-12-14	15:55:42	16:07:05	669058	62e7f9fec0521e596587319d	274658972	1	main_slash	11	advance_on_keypress_SLASH	148	stimuli_target_squarediamonds.svg	stimuli_distractor_trianglediamonds.svg	4	yes	57	0	217
6.6.1	mac	2022-12-14	15:55:42	16:07:07	671896	62e7f9fec0521e596587319d	274658972	1	main_slash	11	main_slash	149	stimuli_distractor_trianglediamonds.svg	stimuli_distractor_diamondtriangles.svg	35	no	0	1	2000
6.6.1	mac	2022-12-14	15:55:42	16:07:07	671896	62e7f9fec0521e596587319d	274658972	1	main_slash	11	advance_on_keypress_SLASH	150	stimuli_distractor_trianglediamonds.svg	stimuli_distractor_diamondtriangles.svg	35	no	57	0	293
6.6.1	mac	2022-12-14	15:55:42	16:07:09	673762	62e7f9fec0521e596587319d	274658972	1	main_slash	11	main_slash	151	stimuli_target_circlediamonds.svg	stimuli_distractor_trianglediamonds.svg	2	yes	53	1	939
6.6.1	mac	2022-12-14	15:55:42	16:07:09	673762	62e7f9fec0521e596587319d	274658972	1	main_slash	11	advance_on_keypress_SLASH	152	stimuli_target_circlediamonds.svg	stimuli_distractor_trianglediamonds.svg	2	yes	57	0	311
6.6.1	mac	2022-12-14	15:55:42	16:07:11	675570	62e7f9fec0521e596587319d	274658972	1	main_slash	11	main_slash	153	stimuli_distractor_diamondtriangles.svg	stimuli_target_diamondcircles.svg	31	yes	53	1	868
6.6.1	mac	2022-12-14	15:55:42	16:07:11	675570	62e7f9fec0521e596587319d	274658972	1	main_slash	11	advance_on_keypress_SLASH	154	stimuli_distractor_diamondtriangles.svg	stimuli_target_diamondcircles.svg	31	yes	57	0	227
6.6.1	mac	2022-12-14	15:55:42	16:07:14	678414	62e7f9fec0521e596587319d	274658972	1	main_slash	11	main_slash	155	stimuli_distractor_trianglediamonds.svg	stimuli_distractor_trianglediamonds.svg	34	no	0	1	2000
6.6.1	mac	2022-12-14	15:55:42	16:07:14	678414	62e7f9fec0521e596587319d	274658972	1	main_slash	11	advance_on_keypress_SLASH	156	stimuli_distractor_trianglediamonds.svg	stimuli_distractor_trianglediamonds.svg	34	no	57	0	288
6.6.1	mac	2022-12-14	15:55:42	16:07:16	680178	62e7f9fec0521e596587319d	274658972	1	main_slash	11	main_slash	157	stimuli_distractor_diamondtriangles.svg	stimuli_target_trianglecircles.svg	29	yes	53	1	837
6.6.1	mac	2022-12-14	15:55:42	16:07:16	680178	62e7f9fec0521e596587319d	274658972	1	main_slash	11	advance_on_keypress_SLASH	158	stimuli_distractor_diamondtriangles.svg	stimuli_target_trianglecircles.svg	29	yes	57	0	253
6.6.1	mac	2022-12-14	15:55:42	16:07:17	681858	62e7f9fec0521e596587319d	274658972	1	main_slash	11	main_slash	159	stimuli_distractor_diamondtriangles.svg	stimuli_target_trianglesquares.svg	30	yes	53	1	804
6.6.1	mac	2022-12-14	15:55:42	16:07:17	681858	62e7f9fec0521e596587319d	274658972	1	main_slash	11	advance_on_keypress_SLASH	160	stimuli_distractor_diamondtriangles.svg	stimuli_target_trianglesquares.svg	30	yes	57	0	269