build	computer.platform	date	time	timestamp	time_elapsed_ms	subject	group	session	blockcode	blocknum	trialcode	trialnum	stimulus_left	stimulus_right	stim_index	target_present	response	correct	latency
6.6.1	mac	2022-12-14	18:52:14	18:54:37	141720	60b7d18beb67181cd97d7ac5	475579952	1	practice_z	5	practice_z	1	stimuli_distractor_diamondtriangles.svg	stimuli_distractor_trianglediamonds.svg	14	no	0	1	2000
6.6.1	mac	2022-12-14	18:52:14	18:54:37	141720	60b7d18beb67181cd97d7ac5	475579952	1	practice_z	5	advance_on_keypress_ZEE	2	stimuli_distractor_diamondtriangles.svg	stimuli_distractor_trianglediamonds.svg	14	no	57	0	2918
6.6.1	mac	2022-12-14	18:52:14	18:54:44	148296	60b7d18beb67181cd97d7ac5	475579952	1	practice_z	5	practice_z	3	stimuli_target_diamondsquares.svg	stimuli_distractor_diamondtriangles.svg	3	yes	0	0	2000
6.6.1	mac	2022-12-14	18:52:14	18:54:44	148296	60b7d18beb67181cd97d7ac5	475579952	1	practice_z	5	advance_on_keypress_ZEE	4	stimuli_target_diamondsquares.svg	stimuli_distractor_diamondtriangles.svg	3	yes	57	0	721
6.6.1	mac	2022-12-14	18:52:14	18:54:47	151273	60b7d18beb67181cd97d7ac5	475579952	1	practice_z	5	practice_z	5	stimuli_target_circlediamonds.svg	stimuli_distractor_diamondtriangles.svg	1	yes	44	1	621
6.6.1	mac	2022-12-14	18:52:14	18:54:47	151273	60b7d18beb67181cd97d7ac5	475579952	1	practice_z	5	advance_on_keypress_ZEE	6	stimuli_target_circlediamonds.svg	stimuli_distractor_diamondtriangles.svg	1	yes	57	0	918
6.6.1	mac	2022-12-14	18:52:14	18:54:50	154390	60b7d18beb67181cd97d7ac5	475579952	1	practice_z	5	practice_z	7	stimuli_distractor_diamondtriangles.svg	stimuli_target_trianglecircles.svg	9	yes	44	1	572
6.6.1	mac	2022-12-14	18:52:14	18:54:50	154390	60b7d18beb67181cd97d7ac5	475579952	1	practice_z	5	advance_on_keypress_ZEE	8	stimuli_distractor_diamondtriangles.svg	stimuli_target_trianglecircles.svg	9	yes	57	0	1004
6.6.1	mac	2022-12-14	18:52:14	18:54:53	157762	60b7d18beb67181cd97d7ac5	475579952	1	practice_z	5	practice_z	9	stimuli_distractor_diamondtriangles.svg	stimuli_distractor_diamondtriangles.svg	13	no	44	0	746
6.6.1	mac	2022-12-14	18:52:14	18:54:53	157762	60b7d18beb67181cd97d7ac5	475579952	1	practice_z	5	advance_on_keypress_ZEE	10	stimuli_distractor_diamondtriangles.svg	stimuli_distractor_diamondtriangles.svg	13	no	57	0	157
6.6.1	mac	2022-12-14	18:52:14	18:54:56	160798	60b7d18beb67181cd97d7ac5	475579952	1	practice_z	5	practice_z	11	stimuli_distractor_diamondtriangles.svg	stimuli_target_diamondcircles.svg	8	yes	44	1	1261
6.6.1	mac	2022-12-14	18:52:14	18:54:56	160798	60b7d18beb67181cd97d7ac5	475579952	1	practice_z	5	advance_on_keypress_ZEE	12	stimuli_distractor_diamondtriangles.svg	stimuli_target_diamondcircles.svg	8	yes	57	0	602
6.6.1	mac	2022-12-14	18:52:14	18:54:59	163695	60b7d18beb67181cd97d7ac5	475579952	1	practice_z	5	practice_z	13	stimuli_distractor_trianglediamonds.svg	stimuli_target_circlediamonds.svg	10	yes	44	1	670
6.6.1	mac	2022-12-14	18:52:14	18:54:59	163695	60b7d18beb67181cd97d7ac5	475579952	1	practice_z	5	advance_on_keypress_ZEE	14	stimuli_distractor_trianglediamonds.svg	stimuli_target_circlediamonds.svg	10	yes	57	0	492
6.6.1	mac	2022-12-14	18:52:14	18:55:02	166551	60b7d18beb67181cd97d7ac5	475579952	1	practice_z	5	practice_z	15	stimuli_distractor_trianglediamonds.svg	stimuli_target_diamondcircles.svg	12	yes	44	1	733
6.6.1	mac	2022-12-14	18:52:14	18:55:02	166551	60b7d18beb67181cd97d7ac5	475579952	1	practice_z	5	advance_on_keypress_ZEE	16	stimuli_distractor_trianglediamonds.svg	stimuli_target_diamondcircles.svg	12	yes	57	0	462
6.6.1	mac	2022-12-14	18:52:14	18:55:06	170659	60b7d18beb67181cd97d7ac5	475579952	1	practice_z	5	practice_z	17	stimuli_target_diamondsquares.svg	stimuli_distractor_trianglediamonds.svg	6	yes	0	0	2000
6.6.1	mac	2022-12-14	18:52:14	18:55:06	170659	60b7d18beb67181cd97d7ac5	475579952	1	practice_z	5	advance_on_keypress_ZEE	18	stimuli_target_diamondsquares.svg	stimuli_distractor_trianglediamonds.svg	6	yes	57	0	571
6.6.1	mac	2022-12-14	18:52:14	18:55:09	173769	60b7d18beb67181cd97d7ac5	475579952	1	practice_z	5	practice_z	19	stimuli_target_squarediamonds.svg	stimuli_distractor_diamondtriangles.svg	2	yes	44	1	915
6.6.1	mac	2022-12-14	18:52:14	18:55:09	173769	60b7d18beb67181cd97d7ac5	475579952	1	practice_z	5	advance_on_keypress_ZEE	20	stimuli_target_squarediamonds.svg	stimuli_distractor_diamondtriangles.svg	2	yes	57	0	548
6.6.1	mac	2022-12-14	18:52:14	18:55:13	177944	60b7d18beb67181cd97d7ac5	475579952	1	practice_z	5	practice_z	21	stimuli_distractor_trianglediamonds.svg	stimuli_distractor_diamondtriangles.svg	16	no	0	1	2000
6.6.1	mac	2022-12-14	18:52:14	18:55:13	177944	60b7d18beb67181cd97d7ac5	475579952	1	practice_z	5	advance_on_keypress_ZEE	22	stimuli_distractor_trianglediamonds.svg	stimuli_distractor_diamondtriangles.svg	16	no	57	0	439
6.6.1	mac	2022-12-14	18:52:14	18:55:16	180955	60b7d18beb67181cd97d7ac5	475579952	1	practice_z	5	practice_z	23	stimuli_target_squarediamonds.svg	stimuli_distractor_trianglediamonds.svg	5	yes	44	1	950
6.6.1	mac	2022-12-14	18:52:14	18:55:16	180955	60b7d18beb67181cd97d7ac5	475579952	1	practice_z	5	advance_on_keypress_ZEE	24	stimuli_target_squarediamonds.svg	stimuli_distractor_trianglediamonds.svg	5	yes	57	0	582
6.6.1	mac	2022-12-14	18:52:14	18:55:20	184317	60b7d18beb67181cd97d7ac5	475579952	1	practice_z	5	practice_z	25	stimuli_target_circlediamonds.svg	stimuli_distractor_trianglediamonds.svg	4	yes	44	1	1135
6.6.1	mac	2022-12-14	18:52:14	18:55:20	184317	60b7d18beb67181cd97d7ac5	475579952	1	practice_z	5	advance_on_keypress_ZEE	26	stimuli_target_circlediamonds.svg	stimuli_distractor_trianglediamonds.svg	4	yes	57	0	569
6.6.1	mac	2022-12-14	18:52:14	18:55:24	188529	60b7d18beb67181cd97d7ac5	475579952	1	practice_z	5	practice_z	27	stimuli_distractor_trianglediamonds.svg	stimuli_distractor_trianglediamonds.svg	15	no	0	1	2000
6.6.1	mac	2022-12-14	18:52:14	18:55:24	188529	60b7d18beb67181cd97d7ac5	475579952	1	practice_z	5	advance_on_keypress_ZEE	28	stimuli_distractor_trianglediamonds.svg	stimuli_distractor_trianglediamonds.svg	15	no	57	0	55
6.6.1	mac	2022-12-14	18:52:14	18:55:26	190967	60b7d18beb67181cd97d7ac5	475579952	1	practice_z	5	practice_z	29	stimuli_distractor_trianglediamonds.svg	stimuli_target_squarediamonds.svg	11	yes	44	1	761
6.6.1	mac	2022-12-14	18:52:14	18:55:26	190967	60b7d18beb67181cd97d7ac5	475579952	1	practice_z	5	advance_on_keypress_ZEE	30	stimuli_distractor_trianglediamonds.svg	stimuli_target_squarediamonds.svg	11	yes	57	0	529
6.6.1	mac	2022-12-14	18:52:14	18:55:29	193856	60b7d18beb67181cd97d7ac5	475579952	1	practice_z	5	practice_z	31	stimuli_distractor_diamondtriangles.svg	stimuli_target_circletriangles.svg	7	yes	44	1	726
6.6.1	mac	2022-12-14	18:52:14	18:55:29	193856	60b7d18beb67181cd97d7ac5	475579952	1	practice_z	5	advance_on_keypress_ZEE	32	stimuli_distractor_diamondtriangles.svg	stimuli_target_circletriangles.svg	7	yes	57	0	545
6.6.1	mac	2022-12-14	18:52:14	18:55:41	205376	60b7d18beb67181cd97d7ac5	475579952	1	main_z	7	main_z	1	stimuli_distractor_trianglediamonds.svg	stimuli_distractor_diamondtriangles.svg	35	no	0	1	2000
6.6.1	mac	2022-12-14	18:52:14	18:55:41	205376	60b7d18beb67181cd97d7ac5	475579952	1	main_z	7	advance_on_keypress_ZEE	2	stimuli_distractor_trianglediamonds.svg	stimuli_distractor_diamondtriangles.svg	35	no	57	0	549
6.6.1	mac	2022-12-14	18:52:14	18:55:43	207989	60b7d18beb67181cd97d7ac5	475579952	1	main_z	7	main_z	3	stimuli_distractor_diamondtriangles.svg	stimuli_target_diamondcircles.svg	31	yes	44	1	1433
6.6.1	mac	2022-12-14	18:52:14	18:55:43	207989	60b7d18beb67181cd97d7ac5	475579952	1	main_z	7	advance_on_keypress_ZEE	4	stimuli_distractor_diamondtriangles.svg	stimuli_target_diamondcircles.svg	31	yes	57	0	968
6.6.1	mac	2022-12-14	18:52:14	18:55:46	210302	60b7d18beb67181cd97d7ac5	475579952	1	main_z	7	main_z	5	stimuli_target_trianglecircles.svg	stimuli_distractor_diamondtriangles.svg	21	yes	44	1	703
6.6.1	mac	2022-12-14	18:52:14	18:55:46	210302	60b7d18beb67181cd97d7ac5	475579952	1	main_z	7	advance_on_keypress_ZEE	6	stimuli_target_trianglecircles.svg	stimuli_distractor_diamondtriangles.svg	21	yes	57	0	656
6.6.1	mac	2022-12-14	18:52:14	18:55:48	212286	60b7d18beb67181cd97d7ac5	475579952	1	main_z	7	main_z	7	stimuli_distractor_diamondtriangles.svg	stimuli_target_circlediamonds.svg	14	yes	44	1	702
6.6.1	mac	2022-12-14	18:52:14	18:55:48	212286	60b7d18beb67181cd97d7ac5	475579952	1	main_z	7	advance_on_keypress_ZEE	8	stimuli_distractor_diamondtriangles.svg	stimuli_target_circlediamonds.svg	14	yes	57	0	607
6.6.1	mac	2022-12-14	18:52:14	18:55:50	214247	60b7d18beb67181cd97d7ac5	475579952	1	main_z	7	main_z	9	stimuli_target_diamondsquares.svg	stimuli_distractor_trianglediamonds.svg	20	yes	44	1	722
6.6.1	mac	2022-12-14	18:52:14	18:55:50	214247	60b7d18beb67181cd97d7ac5	475579952	1	main_z	7	advance_on_keypress_ZEE	10	stimuli_target_diamondsquares.svg	stimuli_distractor_trianglediamonds.svg	20	yes	57	0	575
6.6.1	mac	2022-12-14	18:52:14	18:55:52	216292	60b7d18beb67181cd97d7ac5	475579952	1	main_z	7	main_z	11	stimuli_distractor_trianglediamonds.svg	stimuli_target_squarediamonds.svg	12	yes	44	1	832
6.6.1	mac	2022-12-14	18:52:14	18:55:52	216292	60b7d18beb67181cd97d7ac5	475579952	1	main_z	7	advance_on_keypress_ZEE	12	stimuli_distractor_trianglediamonds.svg	stimuli_target_squarediamonds.svg	12	yes	57	0	511
6.6.1	mac	2022-12-14	18:52:14	18:55:53	218169	60b7d18beb67181cd97d7ac5	475579952	1	main_z	7	main_z	13	stimuli_target_trianglesquares.svg	stimuli_distractor_trianglediamonds.svg	18	yes	44	1	750
6.6.1	mac	2022-12-14	18:52:14	18:55:53	218169	60b7d18beb67181cd97d7ac5	475579952	1	main_z	7	advance_on_keypress_ZEE	14	stimuli_target_trianglesquares.svg	stimuli_distractor_trianglediamonds.svg	18	yes	57	0	434
6.6.1	mac	2022-12-14	18:52:14	18:55:55	219926	60b7d18beb67181cd97d7ac5	475579952	1	main_z	7	main_z	15	stimuli_target_trianglecircles.svg	stimuli_distractor_trianglediamonds.svg	17	yes	44	1	681
6.6.1	mac	2022-12-14	18:52:14	18:55:55	219926	60b7d18beb67181cd97d7ac5	475579952	1	main_z	7	advance_on_keypress_ZEE	16	stimuli_target_trianglecircles.svg	stimuli_distractor_trianglediamonds.svg	17	yes	57	0	461
6.6.1	mac	2022-12-14	18:52:14	18:55:58	223000	60b7d18beb67181cd97d7ac5	475579952	1	main_z	7	main_z	17	stimuli_distractor_diamondtriangles.svg	stimuli_target_trianglecircles.svg	29	yes	0	0	2000
6.6.1	mac	2022-12-14	18:52:14	18:55:58	223000	60b7d18beb67181cd97d7ac5	475579952	1	main_z	7	advance_on_keypress_ZEE	18	stimuli_distractor_diamondtriangles.svg	stimuli_target_trianglecircles.svg	29	yes	57	0	460
6.6.1	mac	2022-12-14	18:52:14	18:56:01	226093	60b7d18beb67181cd97d7ac5	475579952	1	main_z	7	main_z	19	stimuli_distractor_trianglediamonds.svg	stimuli_distractor_trianglediamonds.svg	33	no	0	1	2000
6.6.1	mac	2022-12-14	18:52:14	18:56:01	226093	60b7d18beb67181cd97d7ac5	475579952	1	main_z	7	advance_on_keypress_ZEE	20	stimuli_distractor_trianglediamonds.svg	stimuli_distractor_trianglediamonds.svg	33	no	57	0	496
6.6.1	mac	2022-12-14	18:52:14	18:56:04	228382	60b7d18beb67181cd97d7ac5	475579952	1	main_z	7	main_z	21	stimuli_target_trianglesquares.svg	stimuli_distractor_diamondtriangles.svg	22	yes	44	1	1157
6.6.1	mac	2022-12-14	18:52:14	18:56:04	228382	60b7d18beb67181cd97d7ac5	475579952	1	main_z	7	advance_on_keypress_ZEE	22	stimuli_target_trianglesquares.svg	stimuli_distractor_diamondtriangles.svg	22	yes	57	0	567
6.6.1	mac	2022-12-14	18:52:14	18:56:06	230866	60b7d18beb67181cd97d7ac5	475579952	1	main_z	7	main_z	23	stimuli_distractor_trianglediamonds.svg	stimuli_distractor_trianglediamonds.svg	34	no	44	0	1285
6.6.1	mac	2022-12-14	18:52:14	18:56:06	230866	60b7d18beb67181cd97d7ac5	475579952	1	main_z	7	advance_on_keypress_ZEE	24	stimuli_distractor_trianglediamonds.svg	stimuli_distractor_trianglediamonds.svg	34	no	57	0	610
6.6.1	mac	2022-12-14	18:52:14	18:56:08	232906	60b7d18beb67181cd97d7ac5	475579952	1	main_z	7	main_z	25	stimuli_target_squarediamonds.svg	stimuli_distractor_trianglediamonds.svg	4	yes	44	1	812
6.6.1	mac	2022-12-14	18:52:14	18:56:08	232906	60b7d18beb67181cd97d7ac5	475579952	1	main_z	7	advance_on_keypress_ZEE	26	stimuli_target_squarediamonds.svg	stimuli_distractor_trianglediamonds.svg	4	yes	57	0	505
6.6.1	mac	2022-12-14	18:52:14	18:56:11	236031	60b7d18beb67181cd97d7ac5	475579952	1	main_z	7	main_z	27	stimuli_distractor_trianglediamonds.svg	stimuli_target_diamondcircles.svg	27	yes	0	0	2000
6.6.1	mac	2022-12-14	18:52:14	18:56:11	236031	60b7d18beb67181cd97d7ac5	475579952	1	main_z	7	advance_on_keypress_ZEE	28	stimuli_distractor_trianglediamonds.svg	stimuli_target_diamondcircles.svg	27	yes	57	0	529
6.6.1	mac	2022-12-14	18:52:14	18:56:14	238718	60b7d18beb67181cd97d7ac5	475579952	1	main_z	7	main_z	29	stimuli_distractor_trianglediamonds.svg	stimuli_distractor_diamondtriangles.svg	36	no	44	0	1520
6.6.1	mac	2022-12-14	18:52:14	18:56:14	238718	60b7d18beb67181cd97d7ac5	475579952	1	main_z	7	advance_on_keypress_ZEE	30	stimuli_distractor_trianglediamonds.svg	stimuli_distractor_diamondtriangles.svg	36	no	57	0	694
6.6.1	mac	2022-12-14	18:52:14	18:56:16	241028	60b7d18beb67181cd97d7ac5	475579952	1	main_z	7	main_z	31	stimuli_distractor_diamondtriangles.svg	stimuli_target_diamondsquares.svg	32	yes	44	1	974
6.6.1	mac	2022-12-14	18:52:14	18:56:16	241028	60b7d18beb67181cd97d7ac5	475579952	1	main_z	7	advance_on_keypress_ZEE	32	stimuli_distractor_diamondtriangles.svg	stimuli_target_diamondsquares.svg	32	yes	57	0	793
6.6.1	mac	2022-12-14	18:52:14	18:56:18	243197	60b7d18beb67181cd97d7ac5	475579952	1	main_z	7	main_z	33	stimuli_target_diamondcircles.svg	stimuli_distractor_diamondtriangles.svg	23	yes	44	1	743
6.6.1	mac	2022-12-14	18:52:14	18:56:18	243197	60b7d18beb67181cd97d7ac5	475579952	1	main_z	7	advance_on_keypress_ZEE	34	stimuli_target_diamondcircles.svg	stimuli_distractor_diamondtriangles.svg	23	yes	57	0	471
6.6.1	mac	2022-12-14	18:52:14	18:56:22	246294	60b7d18beb67181cd97d7ac5	475579952	1	main_z	7	main_z	35	stimuli_distractor_diamondtriangles.svg	stimuli_distractor_diamondtriangles.svg	40	no	0	1	2000
6.6.1	mac	2022-12-14	18:52:14	18:56:22	246294	60b7d18beb67181cd97d7ac5	475579952	1	main_z	7	advance_on_keypress_ZEE	36	stimuli_distractor_diamondtriangles.svg	stimuli_distractor_diamondtriangles.svg	40	no	57	0	480
6.6.1	mac	2022-12-14	18:52:14	18:56:25	249401	60b7d18beb67181cd97d7ac5	475579952	1	main_z	7	main_z	37	stimuli_distractor_diamondtriangles.svg	stimuli_distractor_diamondtriangles.svg	39	no	0	1	2000
6.6.1	mac	2022-12-14	18:52:14	18:56:25	249401	60b7d18beb67181cd97d7ac5	475579952	1	main_z	7	advance_on_keypress_ZEE	38	stimuli_distractor_diamondtriangles.svg	stimuli_distractor_diamondtriangles.svg	39	no	57	0	371
6.6.1	mac	2022-12-14	18:52:14	18:56:26	251202	60b7d18beb67181cd97d7ac5	475579952	1	main_z	7	main_z	39	stimuli_distractor_trianglediamonds.svg	stimuli_target_diamondsquares.svg	28	yes	44	1	788
6.6.1	mac	2022-12-14	18:52:14	18:56:26	251202	60b7d18beb67181cd97d7ac5	475579952	1	main_z	7	advance_on_keypress_ZEE	40	stimuli_distractor_trianglediamonds.svg	stimuli_target_diamondsquares.svg	28	yes	57	0	608
6.6.1	mac	2022-12-14	18:52:14	18:56:30	254434	60b7d18beb67181cd97d7ac5	475579952	1	main_z	7	main_z	41	stimuli_target_squaretriangles.svg	stimuli_distractor_trianglediamonds.svg	3	yes	0	0	2000
6.6.1	mac	2022-12-14	18:52:14	18:56:30	254434	60b7d18beb67181cd97d7ac5	475579952	1	main_z	7	advance_on_keypress_ZEE	42	stimuli_target_squaretriangles.svg	stimuli_distractor_trianglediamonds.svg	3	yes	57	0	510
6.6.1	mac	2022-12-14	18:52:14	18:56:32	256352	60b7d18beb67181cd97d7ac5	475579952	1	main_z	7	main_z	43	stimuli_target_circlediamonds.svg	stimuli_distractor_diamondtriangles.svg	6	yes	44	1	787
6.6.1	mac	2022-12-14	18:52:14	18:56:32	256352	60b7d18beb67181cd97d7ac5	475579952	1	main_z	7	advance_on_keypress_ZEE	44	stimuli_target_circlediamonds.svg	stimuli_distractor_diamondtriangles.svg	6	yes	57	0	628
6.6.1	mac	2022-12-14	18:52:14	18:56:34	258395	60b7d18beb67181cd97d7ac5	475579952	1	main_z	7	main_z	45	stimuli_distractor_diamondtriangles.svg	stimuli_target_squarediamonds.svg	16	yes	44	1	786
6.6.1	mac	2022-12-14	18:52:14	18:56:34	258395	60b7d18beb67181cd97d7ac5	475579952	1	main_z	7	advance_on_keypress_ZEE	46	stimuli_distractor_diamondtriangles.svg	stimuli_target_squarediamonds.svg	16	yes	57	0	506
6.6.1	mac	2022-12-14	18:52:14	18:56:36	260358	60b7d18beb67181cd97d7ac5	475579952	1	main_z	7	main_z	47	stimuli_distractor_trianglediamonds.svg	stimuli_target_squaretriangles.svg	11	yes	44	1	829
6.6.1	mac	2022-12-14	18:52:14	18:56:36	260358	60b7d18beb67181cd97d7ac5	475579952	1	main_z	7	advance_on_keypress_ZEE	48	stimuli_distractor_trianglediamonds.svg	stimuli_target_squaretriangles.svg	11	yes	57	0	479
6.6.1	mac	2022-12-14	18:52:14	18:56:37	262185	60b7d18beb67181cd97d7ac5	475579952	1	main_z	7	main_z	49	stimuli_target_squaretriangles.svg	stimuli_distractor_diamondtriangles.svg	7	yes	44	1	704
6.6.1	mac	2022-12-14	18:52:14	18:56:37	262185	60b7d18beb67181cd97d7ac5	475579952	1	main_z	7	advance_on_keypress_ZEE	50	stimuli_target_squaretriangles.svg	stimuli_distractor_diamondtriangles.svg	7	yes	57	0	448
6.6.1	mac	2022-12-14	18:52:14	18:56:39	264058	60b7d18beb67181cd97d7ac5	475579952	1	main_z	7	main_z	51	stimuli_target_diamondcircles.svg	stimuli_distractor_trianglediamonds.svg	19	yes	44	1	799
6.6.1	mac	2022-12-14	18:52:14	18:56:39	264058	60b7d18beb67181cd97d7ac5	475579952	1	main_z	7	advance_on_keypress_ZEE	52	stimuli_target_diamondcircles.svg	stimuli_distractor_trianglediamonds.svg	19	yes	57	0	441
6.6.1	mac	2022-12-14	18:52:14	18:56:41	265905	60b7d18beb67181cd97d7ac5	475579952	1	main_z	7	main_z	53	stimuli_distractor_trianglediamonds.svg	stimuli_target_circlediamonds.svg	10	yes	44	1	776
6.6.1	mac	2022-12-14	18:52:14	18:56:41	265905	60b7d18beb67181cd97d7ac5	475579952	1	main_z	7	advance_on_keypress_ZEE	54	stimuli_distractor_trianglediamonds.svg	stimuli_target_circlediamonds.svg	10	yes	57	0	443
6.6.1	mac	2022-12-14	18:52:14	18:56:43	267700	60b7d18beb67181cd97d7ac5	475579952	1	main_z	7	main_z	55	stimuli_target_circletriangles.svg	stimuli_distractor_diamondtriangles.svg	5	yes	44	1	739
6.6.1	mac	2022-12-14	18:52:14	18:56:43	267700	60b7d18beb67181cd97d7ac5	475579952	1	main_z	7	advance_on_keypress_ZEE	56	stimuli_target_circletriangles.svg	stimuli_distractor_diamondtriangles.svg	5	yes	57	0	407
6.6.1	mac	2022-12-14	18:52:14	18:56:45	269531	60b7d18beb67181cd97d7ac5	475579952	1	main_z	7	main_z	57	stimuli_distractor_diamondtriangles.svg	stimuli_target_squaretriangles.svg	15	yes	44	1	789
6.6.1	mac	2022-12-14	18:52:14	18:56:45	269531	60b7d18beb67181cd97d7ac5	475579952	1	main_z	7	advance_on_keypress_ZEE	58	stimuli_distractor_diamondtriangles.svg	stimuli_target_squaretriangles.svg	15	yes	57	0	407
6.6.1	mac	2022-12-14	18:52:14	18:56:47	271458	60b7d18beb67181cd97d7ac5	475579952	1	main_z	7	main_z	59	stimuli_distractor_diamondtriangles.svg	stimuli_target_trianglesquares.svg	30	yes	44	1	901
6.6.1	mac	2022-12-14	18:52:14	18:56:47	271458	60b7d18beb67181cd97d7ac5	475579952	1	main_z	7	advance_on_keypress_ZEE	60	stimuli_distractor_diamondtriangles.svg	stimuli_target_trianglesquares.svg	30	yes	57	0	445
6.6.1	mac	2022-12-14	18:52:14	18:56:50	274524	60b7d18beb67181cd97d7ac5	475579952	1	main_z	7	main_z	61	stimuli_distractor_diamondtriangles.svg	stimuli_distractor_trianglediamonds.svg	37	no	0	1	2000
6.6.1	mac	2022-12-14	18:52:14	18:56:50	274524	60b7d18beb67181cd97d7ac5	475579952	1	main_z	7	advance_on_keypress_ZEE	62	stimuli_distractor_diamondtriangles.svg	stimuli_distractor_trianglediamonds.svg	37	no	57	0	373
6.6.1	mac	2022-12-14	18:52:14	18:56:52	276269	60b7d18beb67181cd97d7ac5	475579952	1	main_z	7	main_z	63	stimuli_distractor_diamondtriangles.svg	stimuli_target_circletriangles.svg	13	yes	44	1	741
6.6.1	mac	2022-12-14	18:52:14	18:56:52	276269	60b7d18beb67181cd97d7ac5	475579952	1	main_z	7	advance_on_keypress_ZEE	64	stimuli_distractor_diamondtriangles.svg	stimuli_target_circletriangles.svg	13	yes	57	0	429
6.6.1	mac	2022-12-14	18:52:14	18:56:53	278135	60b7d18beb67181cd97d7ac5	475579952	1	main_z	7	main_z	65	stimuli_target_circletriangles.svg	stimuli_distractor_trianglediamonds.svg	1	yes	44	1	808
6.6.1	mac	2022-12-14	18:52:14	18:56:53	278135	60b7d18beb67181cd97d7ac5	475579952	1	main_z	7	advance_on_keypress_ZEE	66	stimuli_target_circletriangles.svg	stimuli_distractor_trianglediamonds.svg	1	yes	57	0	434
6.6.1	mac	2022-12-14	18:52:14	18:56:55	280178	60b7d18beb67181cd97d7ac5	475579952	1	main_z	7	main_z	67	stimuli_target_diamondsquares.svg	stimuli_distractor_diamondtriangles.svg	24	yes	44	1	986
6.6.1	mac	2022-12-14	18:52:14	18:56:55	280178	60b7d18beb67181cd97d7ac5	475579952	1	main_z	7	advance_on_keypress_ZEE	68	stimuli_target_diamondsquares.svg	stimuli_distractor_diamondtriangles.svg	24	yes	57	0	461
6.6.1	mac	2022-12-14	18:52:14	18:56:57	282127	60b7d18beb67181cd97d7ac5	475579952	1	main_z	7	main_z	69	stimuli_distractor_trianglediamonds.svg	stimuli_target_trianglecircles.svg	25	yes	44	1	860
6.6.1	mac	2022-12-14	18:52:14	18:56:57	282127	60b7d18beb67181cd97d7ac5	475579952	1	main_z	7	advance_on_keypress_ZEE	70	stimuli_distractor_trianglediamonds.svg	stimuli_target_trianglecircles.svg	25	yes	57	0	455
6.6.1	mac	2022-12-14	18:52:14	18:56:59	283989	60b7d18beb67181cd97d7ac5	475579952	1	main_z	7	main_z	71	stimuli_target_circlediamonds.svg	stimuli_distractor_trianglediamonds.svg	2	yes	44	1	785
6.6.1	mac	2022-12-14	18:52:14	18:56:59	283989	60b7d18beb67181cd97d7ac5	475579952	1	main_z	7	advance_on_keypress_ZEE	72	stimuli_target_circlediamonds.svg	stimuli_distractor_trianglediamonds.svg	2	yes	57	0	429
6.6.1	mac	2022-12-14	18:52:14	18:57:01	285942	60b7d18beb67181cd97d7ac5	475579952	1	main_z	7	main_z	73	stimuli_distractor_trianglediamonds.svg	stimuli_target_trianglesquares.svg	26	yes	44	1	899
6.6.1	mac	2022-12-14	18:52:14	18:57:01	285942	60b7d18beb67181cd97d7ac5	475579952	1	main_z	7	advance_on_keypress_ZEE	74	stimuli_distractor_trianglediamonds.svg	stimuli_target_trianglesquares.svg	26	yes	57	0	417
6.6.1	mac	2022-12-14	18:52:14	18:57:03	287997	60b7d18beb67181cd97d7ac5	475579952	1	main_z	7	main_z	75	stimuli_distractor_trianglediamonds.svg	stimuli_target_circletriangles.svg	9	yes	44	1	997
6.6.1	mac	2022-12-14	18:52:14	18:57:03	287997	60b7d18beb67181cd97d7ac5	475579952	1	main_z	7	advance_on_keypress_ZEE	76	stimuli_distractor_trianglediamonds.svg	stimuli_target_circletriangles.svg	9	yes	57	0	421
6.6.1	mac	2022-12-14	18:52:14	18:57:06	291036	60b7d18beb67181cd97d7ac5	475579952	1	main_z	7	main_z	77	stimuli_distractor_diamondtriangles.svg	stimuli_distractor_trianglediamonds.svg	38	no	0	1	2000
6.6.1	mac	2022-12-14	18:52:14	18:57:06	291036	60b7d18beb67181cd97d7ac5	475579952	1	main_z	7	advance_on_keypress_ZEE	78	stimuli_distractor_diamondtriangles.svg	stimuli_distractor_trianglediamonds.svg	38	no	57	0	433
6.6.1	mac	2022-12-14	18:52:14	18:57:08	292780	60b7d18beb67181cd97d7ac5	475579952	1	main_z	7	main_z	79	stimuli_target_squarediamonds.svg	stimuli_distractor_diamondtriangles.svg	8	yes	44	1	685
6.6.1	mac	2022-12-14	18:52:14	18:57:08	292780	60b7d18beb67181cd97d7ac5	475579952	1	main_z	7	advance_on_keypress_ZEE	80	stimuli_target_squarediamonds.svg	stimuli_distractor_diamondtriangles.svg	8	yes	57	0	438
6.6.1	mac	2022-12-14	18:52:14	18:57:10	294636	60b7d18beb67181cd97d7ac5	475579952	1	main_z	7	main_z	81	stimuli_target_diamondsquares.svg	stimuli_distractor_trianglediamonds.svg	20	yes	44	1	783
6.6.1	mac	2022-12-14	18:52:14	18:57:10	294636	60b7d18beb67181cd97d7ac5	475579952	1	main_z	7	advance_on_keypress_ZEE	82	stimuli_target_diamondsquares.svg	stimuli_distractor_trianglediamonds.svg	20	yes	57	0	384
6.6.1	mac	2022-12-14	18:52:14	18:57:12	296444	60b7d18beb67181cd97d7ac5	475579952	1	main_z	7	main_z	83	stimuli_target_trianglesquares.svg	stimuli_distractor_diamondtriangles.svg	22	yes	44	1	783
6.6.1	mac	2022-12-14	18:52:14	18:57:12	296444	60b7d18beb67181cd97d7ac5	475579952	1	main_z	7	advance_on_keypress_ZEE	84	stimuli_target_trianglesquares.svg	stimuli_distractor_diamondtriangles.svg	22	yes	57	0	403
6.6.1	mac	2022-12-14	18:52:14	18:57:14	298237	60b7d18beb67181cd97d7ac5	475579952	1	main_z	7	main_z	85	stimuli_target_circletriangles.svg	stimuli_distractor_trianglediamonds.svg	1	yes	44	1	754
6.6.1	mac	2022-12-14	18:52:14	18:57:14	298237	60b7d18beb67181cd97d7ac5	475579952	1	main_z	7	advance_on_keypress_ZEE	86	stimuli_target_circletriangles.svg	stimuli_distractor_trianglediamonds.svg	1	yes	57	0	383
6.6.1	mac	2022-12-14	18:52:14	18:57:15	300098	60b7d18beb67181cd97d7ac5	475579952	1	main_z	7	main_z	87	stimuli_distractor_trianglediamonds.svg	stimuli_target_trianglecircles.svg	25	yes	44	1	839
6.6.1	mac	2022-12-14	18:52:14	18:57:15	300098	60b7d18beb67181cd97d7ac5	475579952	1	main_z	7	advance_on_keypress_ZEE	88	stimuli_distractor_trianglediamonds.svg	stimuli_target_trianglecircles.svg	25	yes	57	0	389
6.6.1	mac	2022-12-14	18:52:14	18:57:18	303108	60b7d18beb67181cd97d7ac5	475579952	1	main_z	7	main_z	89	stimuli_distractor_diamondtriangles.svg	stimuli_distractor_diamondtriangles.svg	40	no	0	1	2000
6.6.1	mac	2022-12-14	18:52:14	18:57:18	303108	60b7d18beb67181cd97d7ac5	475579952	1	main_z	7	advance_on_keypress_ZEE	90	stimuli_distractor_diamondtriangles.svg	stimuli_distractor_diamondtriangles.svg	40	no	57	0	501
6.6.1	mac	2022-12-14	18:52:14	18:57:22	306232	60b7d18beb67181cd97d7ac5	475579952	1	main_z	7	main_z	91	stimuli_distractor_trianglediamonds.svg	stimuli_distractor_diamondtriangles.svg	35	no	0	1	2000
6.6.1	mac	2022-12-14	18:52:14	18:57:22	306232	60b7d18beb67181cd97d7ac5	475579952	1	main_z	7	advance_on_keypress_ZEE	92	stimuli_distractor_trianglediamonds.svg	stimuli_distractor_diamondtriangles.svg	35	no	57	0	412
6.6.1	mac	2022-12-14	18:52:14	18:57:23	308039	60b7d18beb67181cd97d7ac5	475579952	1	main_z	7	main_z	93	stimuli_distractor_diamondtriangles.svg	stimuli_target_diamondcircles.svg	31	yes	44	1	764
6.6.1	mac	2022-12-14	18:52:14	18:57:23	308039	60b7d18beb67181cd97d7ac5	475579952	1	main_z	7	advance_on_keypress_ZEE	94	stimuli_distractor_diamondtriangles.svg	stimuli_target_diamondcircles.svg	31	yes	57	0	380
6.6.1	mac	2022-12-14	18:52:14	18:57:25	309769	60b7d18beb67181cd97d7ac5	475579952	1	main_z	7	main_z	95	stimuli_target_circlediamonds.svg	stimuli_distractor_trianglediamonds.svg	2	yes	44	1	721
6.6.1	mac	2022-12-14	18:52:14	18:57:25	309769	60b7d18beb67181cd97d7ac5	475579952	1	main_z	7	advance_on_keypress_ZEE	96	stimuli_target_circlediamonds.svg	stimuli_distractor_trianglediamonds.svg	2	yes	57	0	371
6.6.1	mac	2022-12-14	18:52:14	18:57:27	311505	60b7d18beb67181cd97d7ac5	475579952	1	main_z	7	main_z	97	stimuli_distractor_trianglediamonds.svg	stimuli_target_circletriangles.svg	9	yes	44	1	729
6.6.1	mac	2022-12-14	18:52:14	18:57:27	311505	60b7d18beb67181cd97d7ac5	475579952	1	main_z	7	advance_on_keypress_ZEE	98	stimuli_distractor_trianglediamonds.svg	stimuli_target_circletriangles.svg	9	yes	57	0	385
6.6.1	mac	2022-12-14	18:52:14	18:57:30	314511	60b7d18beb67181cd97d7ac5	475579952	1	main_z	7	main_z	99	stimuli_distractor_trianglediamonds.svg	stimuli_distractor_trianglediamonds.svg	34	no	0	1	2000
6.6.1	mac	2022-12-14	18:52:14	18:57:30	314511	60b7d18beb67181cd97d7ac5	475579952	1	main_z	7	advance_on_keypress_ZEE	100	stimuli_distractor_trianglediamonds.svg	stimuli_distractor_trianglediamonds.svg	34	no	57	0	460
6.6.1	mac	2022-12-14	18:52:14	18:57:33	317604	60b7d18beb67181cd97d7ac5	475579952	1	main_z	7	main_z	101	stimuli_distractor_trianglediamonds.svg	stimuli_distractor_trianglediamonds.svg	33	no	0	1	2000
6.6.1	mac	2022-12-14	18:52:14	18:57:33	317604	60b7d18beb67181cd97d7ac5	475579952	1	main_z	7	advance_on_keypress_ZEE	102	stimuli_distractor_trianglediamonds.svg	stimuli_distractor_trianglediamonds.svg	33	no	57	0	399
6.6.1	mac	2022-12-14	18:52:14	18:57:35	319996	60b7d18beb67181cd97d7ac5	475579952	1	main_z	7	main_z	103	stimuli_target_trianglecircles.svg	stimuli_distractor_diamondtriangles.svg	21	yes	44	1	1363
6.6.1	mac	2022-12-14	18:52:14	18:57:35	319996	60b7d18beb67181cd97d7ac5	475579952	1	main_z	7	advance_on_keypress_ZEE	104	stimuli_target_trianglecircles.svg	stimuli_distractor_diamondtriangles.svg	21	yes	57	0	661
6.6.1	mac	2022-12-14	18:52:14	18:57:38	322353	60b7d18beb67181cd97d7ac5	475579952	1	main_z	7	main_z	105	stimuli_distractor_diamondtriangles.svg	stimuli_target_squarediamonds.svg	16	yes	44	1	1060
6.6.1	mac	2022-12-14	18:52:14	18:57:38	322353	60b7d18beb67181cd97d7ac5	475579952	1	main_z	7	advance_on_keypress_ZEE	106	stimuli_distractor_diamondtriangles.svg	stimuli_target_squarediamonds.svg	16	yes	57	0	480
6.6.1	mac	2022-12-14	18:52:14	18:57:41	325463	60b7d18beb67181cd97d7ac5	475579952	1	main_z	7	main_z	107	stimuli_distractor_trianglediamonds.svg	stimuli_target_diamondsquares.svg	28	yes	0	0	2000
6.6.1	mac	2022-12-14	18:52:14	18:57:41	325463	60b7d18beb67181cd97d7ac5	475579952	1	main_z	7	advance_on_keypress_ZEE	108	stimuli_distractor_trianglediamonds.svg	stimuli_target_diamondsquares.svg	28	yes	57	0	478
6.6.1	mac	2022-12-14	18:52:14	18:57:43	327452	60b7d18beb67181cd97d7ac5	475579952	1	main_z	7	main_z	109	stimuli_distractor_diamondtriangles.svg	stimuli_target_diamondsquares.svg	32	yes	44	1	875
6.6.1	mac	2022-12-14	18:52:14	18:57:43	327452	60b7d18beb67181cd97d7ac5	475579952	1	main_z	7	advance_on_keypress_ZEE	110	stimuli_distractor_diamondtriangles.svg	stimuli_target_diamondsquares.svg	32	yes	57	0	415
6.6.1	mac	2022-12-14	18:52:14	18:57:44	329196	60b7d18beb67181cd97d7ac5	475579952	1	main_z	7	main_z	111	stimuli_distractor_diamondtriangles.svg	stimuli_target_circlediamonds.svg	14	yes	44	1	700
6.6.1	mac	2022-12-14	18:52:14	18:57:44	329196	60b7d18beb67181cd97d7ac5	475579952	1	main_z	7	advance_on_keypress_ZEE	112	stimuli_distractor_diamondtriangles.svg	stimuli_target_circlediamonds.svg	14	yes	57	0	379
6.6.1	mac	2022-12-14	18:52:14	18:57:46	330905	60b7d18beb67181cd97d7ac5	475579952	1	main_z	7	main_z	113	stimuli_target_circletriangles.svg	stimuli_distractor_diamondtriangles.svg	5	yes	44	1	684
6.6.1	mac	2022-12-14	18:52:14	18:57:46	330905	60b7d18beb67181cd97d7ac5	475579952	1	main_z	7	advance_on_keypress_ZEE	114	stimuli_target_circletriangles.svg	stimuli_distractor_diamondtriangles.svg	5	yes	57	0	347
6.6.1	mac	2022-12-14	18:52:14	18:57:48	332712	60b7d18beb67181cd97d7ac5	475579952	1	main_z	7	main_z	115	stimuli_distractor_trianglediamonds.svg	stimuli_target_trianglesquares.svg	26	yes	44	1	815
6.6.1	mac	2022-12-14	18:52:14	18:57:48	332712	60b7d18beb67181cd97d7ac5	475579952	1	main_z	7	advance_on_keypress_ZEE	116	stimuli_distractor_trianglediamonds.svg	stimuli_target_trianglesquares.svg	26	yes	57	0	364
6.6.1	mac	2022-12-14	18:52:14	18:57:51	335703	60b7d18beb67181cd97d7ac5	475579952	1	main_z	7	main_z	117	stimuli_distractor_trianglediamonds.svg	stimuli_distractor_diamondtriangles.svg	36	no	0	1	2000
6.6.1	mac	2022-12-14	18:52:14	18:57:51	335703	60b7d18beb67181cd97d7ac5	475579952	1	main_z	7	advance_on_keypress_ZEE	118	stimuli_distractor_trianglediamonds.svg	stimuli_distractor_diamondtriangles.svg	36	no	57	0	731
6.6.1	mac	2022-12-14	18:52:14	18:57:53	337691	60b7d18beb67181cd97d7ac5	475579952	1	main_z	7	main_z	119	stimuli_target_diamondcircles.svg	stimuli_distractor_diamondtriangles.svg	23	yes	44	1	624
6.6.1	mac	2022-12-14	18:52:14	18:57:53	337691	60b7d18beb67181cd97d7ac5	475579952	1	main_z	7	advance_on_keypress_ZEE	120	stimuli_target_diamondcircles.svg	stimuli_distractor_diamondtriangles.svg	23	yes	57	0	352
6.6.1	mac	2022-12-14	18:52:14	18:57:55	339702	60b7d18beb67181cd97d7ac5	475579952	1	main_z	7	main_z	121	stimuli_distractor_diamondtriangles.svg	stimuli_distractor_trianglediamonds.svg	38	no	44	0	1020
6.6.1	mac	2022-12-14	18:52:14	18:57:55	339702	60b7d18beb67181cd97d7ac5	475579952	1	main_z	7	advance_on_keypress_ZEE	122	stimuli_distractor_diamondtriangles.svg	stimuli_distractor_trianglediamonds.svg	38	no	57	0	382
6.6.1	mac	2022-12-14	18:52:14	18:57:57	341406	60b7d18beb67181cd97d7ac5	475579952	1	main_z	7	main_z	123	stimuli_target_trianglecircles.svg	stimuli_distractor_trianglediamonds.svg	17	yes	44	1	692
6.6.1	mac	2022-12-14	18:52:14	18:57:57	341406	60b7d18beb67181cd97d7ac5	475579952	1	main_z	7	advance_on_keypress_ZEE	124	stimuli_target_trianglecircles.svg	stimuli_distractor_trianglediamonds.svg	17	yes	57	0	384
6.6.1	mac	2022-12-14	18:52:14	18:57:59	343449	60b7d18beb67181cd97d7ac5	475579952	1	main_z	7	main_z	125	stimuli_distractor_diamondtriangles.svg	stimuli_target_trianglecircles.svg	29	yes	44	1	1037
6.6.1	mac	2022-12-14	18:52:14	18:57:59	343449	60b7d18beb67181cd97d7ac5	475579952	1	main_z	7	advance_on_keypress_ZEE	126	stimuli_distractor_diamondtriangles.svg	stimuli_target_trianglecircles.svg	29	yes	57	0	394
6.6.1	mac	2022-12-14	18:52:14	18:58:00	345184	60b7d18beb67181cd97d7ac5	475579952	1	main_z	7	main_z	127	stimuli_distractor_diamondtriangles.svg	stimuli_target_squaretriangles.svg	15	yes	44	1	721
6.6.1	mac	2022-12-14	18:52:14	18:58:00	345184	60b7d18beb67181cd97d7ac5	475579952	1	main_z	7	advance_on_keypress_ZEE	128	stimuli_distractor_diamondtriangles.svg	stimuli_target_squaretriangles.svg	15	yes	57	0	326
6.6.1	mac	2022-12-14	18:52:14	18:58:02	346856	60b7d18beb67181cd97d7ac5	475579952	1	main_z	7	main_z	129	stimuli_target_trianglesquares.svg	stimuli_distractor_trianglediamonds.svg	18	yes	44	1	714
6.6.1	mac	2022-12-14	18:52:14	18:58:02	346856	60b7d18beb67181cd97d7ac5	475579952	1	main_z	7	advance_on_keypress_ZEE	130	stimuli_target_trianglesquares.svg	stimuli_distractor_trianglediamonds.svg	18	yes	57	0	369
6.6.1	mac	2022-12-14	18:52:14	18:58:05	349848	60b7d18beb67181cd97d7ac5	475579952	1	main_z	7	main_z	131	stimuli_distractor_diamondtriangles.svg	stimuli_distractor_diamondtriangles.svg	39	no	0	1	2000
6.6.1	mac	2022-12-14	18:52:14	18:58:05	349848	60b7d18beb67181cd97d7ac5	475579952	1	main_z	7	advance_on_keypress_ZEE	132	stimuli_distractor_diamondtriangles.svg	stimuli_distractor_diamondtriangles.svg	39	no	57	0	429
6.6.1	mac	2022-12-14	18:52:14	18:58:07	351696	60b7d18beb67181cd97d7ac5	475579952	1	main_z	7	main_z	133	stimuli_target_diamondsquares.svg	stimuli_distractor_diamondtriangles.svg	24	yes	44	1	788
6.6.1	mac	2022-12-14	18:52:14	18:58:07	351696	60b7d18beb67181cd97d7ac5	475579952	1	main_z	7	advance_on_keypress_ZEE	134	stimuli_target_diamondsquares.svg	stimuli_distractor_diamondtriangles.svg	24	yes	57	0	352
6.6.1	mac	2022-12-14	18:52:14	18:58:09	353591	60b7d18beb67181cd97d7ac5	475579952	1	main_z	7	main_z	135	stimuli_distractor_trianglediamonds.svg	stimuli_target_diamondcircles.svg	27	yes	44	1	908
6.6.1	mac	2022-12-14	18:52:14	18:58:09	353591	60b7d18beb67181cd97d7ac5	475579952	1	main_z	7	advance_on_keypress_ZEE	136	stimuli_distractor_trianglediamonds.svg	stimuli_target_diamondcircles.svg	27	yes	57	0	415
6.6.1	mac	2022-12-14	18:52:14	18:58:12	356632	60b7d18beb67181cd97d7ac5	475579952	1	main_z	7	main_z	137	stimuli_target_squaretriangles.svg	stimuli_distractor_trianglediamonds.svg	3	yes	0	0	2000
6.6.1	mac	2022-12-14	18:52:14	18:58:12	356632	60b7d18beb67181cd97d7ac5	475579952	1	main_z	7	advance_on_keypress_ZEE	138	stimuli_target_squaretriangles.svg	stimuli_distractor_trianglediamonds.svg	3	yes	57	0	497
6.6.1	mac	2022-12-14	18:52:14	18:58:14	358469	60b7d18beb67181cd97d7ac5	475579952	1	main_z	7	main_z	139	stimuli_distractor_trianglediamonds.svg	stimuli_target_circlediamonds.svg	10	yes	44	1	706
6.6.1	mac	2022-12-14	18:52:14	18:58:14	358469	60b7d18beb67181cd97d7ac5	475579952	1	main_z	7	advance_on_keypress_ZEE	140	stimuli_distractor_trianglediamonds.svg	stimuli_target_circlediamonds.svg	10	yes	57	0	342
6.6.1	mac	2022-12-14	18:52:14	18:58:16	360259	60b7d18beb67181cd97d7ac5	475579952	1	main_z	7	main_z	141	stimuli_distractor_diamondtriangles.svg	stimuli_distractor_trianglediamonds.svg	37	no	44	0	808
6.6.1	mac	2022-12-14	18:52:14	18:58:16	360259	60b7d18beb67181cd97d7ac5	475579952	1	main_z	7	advance_on_keypress_ZEE	142	stimuli_distractor_diamondtriangles.svg	stimuli_distractor_trianglediamonds.svg	37	no	57	0	351
6.6.1	mac	2022-12-14	18:52:14	18:58:17	361938	60b7d18beb67181cd97d7ac5	475579952	1	main_z	7	main_z	143	stimuli_distractor_diamondtriangles.svg	stimuli_target_circletriangles.svg	13	yes	44	1	702
6.6.1	mac	2022-12-14	18:52:14	18:58:17	361938	60b7d18beb67181cd97d7ac5	475579952	1	main_z	7	advance_on_keypress_ZEE	144	stimuli_distractor_diamondtriangles.svg	stimuli_target_circletriangles.svg	13	yes	57	0	340
6.6.1	mac	2022-12-14	18:52:14	18:58:19	363582	60b7d18beb67181cd97d7ac5	475579952	1	main_z	7	main_z	145	stimuli_target_squaretriangles.svg	stimuli_distractor_diamondtriangles.svg	7	yes	44	1	668
6.6.1	mac	2022-12-14	18:52:14	18:58:19	363582	60b7d18beb67181cd97d7ac5	475579952	1	main_z	7	advance_on_keypress_ZEE	146	stimuli_target_squaretriangles.svg	stimuli_distractor_diamondtriangles.svg	7	yes	57	0	360
6.6.1	mac	2022-12-14	18:52:14	18:58:21	365299	60b7d18beb67181cd97d7ac5	475579952	1	main_z	7	main_z	147	stimuli_target_squarediamonds.svg	stimuli_distractor_trianglediamonds.svg	4	yes	44	1	725
6.6.1	mac	2022-12-14	18:52:14	18:58:21	365299	60b7d18beb67181cd97d7ac5	475579952	1	main_z	7	advance_on_keypress_ZEE	148	stimuli_target_squarediamonds.svg	stimuli_distractor_trianglediamonds.svg	4	yes	57	0	377
6.6.1	mac	2022-12-14	18:52:14	18:58:22	367155	60b7d18beb67181cd97d7ac5	475579952	1	main_z	7	main_z	149	stimuli_target_diamondcircles.svg	stimuli_distractor_trianglediamonds.svg	19	yes	44	1	843
6.6.1	mac	2022-12-14	18:52:14	18:58:22	367155	60b7d18beb67181cd97d7ac5	475579952	1	main_z	7	advance_on_keypress_ZEE	150	stimuli_target_diamondcircles.svg	stimuli_distractor_trianglediamonds.svg	19	yes	57	0	376
6.6.1	mac	2022-12-14	18:52:14	18:58:25	370165	60b7d18beb67181cd97d7ac5	475579952	1	main_z	7	main_z	151	stimuli_distractor_trianglediamonds.svg	stimuli_target_squarediamonds.svg	12	yes	0	0	2000
6.6.1	mac	2022-12-14	18:52:14	18:58:25	370165	60b7d18beb67181cd97d7ac5	475579952	1	main_z	7	advance_on_keypress_ZEE	152	stimuli_distractor_trianglediamonds.svg	stimuli_target_squarediamonds.svg	12	yes	57	0	381
6.6.1	mac	2022-12-14	18:52:14	18:58:27	371928	60b7d18beb67181cd97d7ac5	475579952	1	main_z	7	main_z	153	stimuli_distractor_diamondtriangles.svg	stimuli_target_trianglesquares.svg	30	yes	44	1	746
6.6.1	mac	2022-12-14	18:52:14	18:58:27	371928	60b7d18beb67181cd97d7ac5	475579952	1	main_z	7	advance_on_keypress_ZEE	154	stimuli_distractor_diamondtriangles.svg	stimuli_target_trianglesquares.svg	30	yes	57	0	359
6.6.1	mac	2022-12-14	18:52:14	18:58:29	374077	60b7d18beb67181cd97d7ac5	475579952	1	main_z	7	main_z	155	stimuli_distractor_trianglediamonds.svg	stimuli_target_squaretriangles.svg	11	yes	44	1	1157
6.6.1	mac	2022-12-14	18:52:14	18:58:29	374077	60b7d18beb67181cd97d7ac5	475579952	1	main_z	7	advance_on_keypress_ZEE	156	stimuli_distractor_trianglediamonds.svg	stimuli_target_squaretriangles.svg	11	yes	57	0	417
6.6.1	mac	2022-12-14	18:52:14	18:58:31	376024	60b7d18beb67181cd97d7ac5	475579952	1	main_z	7	main_z	157	stimuli_target_squarediamonds.svg	stimuli_distractor_diamondtriangles.svg	8	yes	44	1	894
6.6.1	mac	2022-12-14	18:52:14	18:58:31	376024	60b7d18beb67181cd97d7ac5	475579952	1	main_z	7	advance_on_keypress_ZEE	158	stimuli_target_squarediamonds.svg	stimuli_distractor_diamondtriangles.svg	8	yes	57	0	349
6.6.1	mac	2022-12-14	18:52:14	18:58:33	377700	60b7d18beb67181cd97d7ac5	475579952	1	main_z	7	main_z	159	stimuli_target_circlediamonds.svg	stimuli_distractor_diamondtriangles.svg	6	yes	44	1	692
6.6.1	mac	2022-12-14	18:52:14	18:58:33	377700	60b7d18beb67181cd97d7ac5	475579952	1	main_z	7	advance_on_keypress_ZEE	160	stimuli_target_circlediamonds.svg	stimuli_distractor_diamondtriangles.svg	6	yes	57	0	358
6.6.1	mac	2022-12-14	18:52:14	18:59:01	405284	60b7d18beb67181cd97d7ac5	475579952	1	practice_slash	9	practice_slash	1	stimuli_distractor_trianglediamonds.svg	stimuli_distractor_diamondtriangles.svg	16	no	53	0	696
6.6.1	mac	2022-12-14	18:52:14	18:59:01	405284	60b7d18beb67181cd97d7ac5	475579952	1	practice_slash	9	advance_on_keypress_SLASH	2	stimuli_distractor_trianglediamonds.svg	stimuli_distractor_diamondtriangles.svg	16	no	57	0	514
6.6.1	mac	2022-12-14	18:52:14	18:59:03	407991	60b7d18beb67181cd97d7ac5	475579952	1	practice_slash	9	practice_slash	3	stimuli_target_squarediamonds.svg	stimuli_distractor_trianglediamonds.svg	5	yes	53	1	550
6.6.1	mac	2022-12-14	18:52:14	18:59:03	407991	60b7d18beb67181cd97d7ac5	475579952	1	practice_slash	9	advance_on_keypress_SLASH	4	stimuli_target_squarediamonds.svg	stimuli_distractor_trianglediamonds.svg	5	yes	57	0	402
6.6.1	mac	2022-12-14	18:52:14	18:59:06	410669	60b7d18beb67181cd97d7ac5	475579952	1	practice_slash	9	practice_slash	5	stimuli_distractor_diamondtriangles.svg	stimuli_target_diamondcircles.svg	8	yes	53	1	649
6.6.1	mac	2022-12-14	18:52:14	18:59:06	410669	60b7d18beb67181cd97d7ac5	475579952	1	practice_slash	9	advance_on_keypress_SLASH	6	stimuli_distractor_diamondtriangles.svg	stimuli_target_diamondcircles.svg	8	yes	57	0	370
6.6.1	mac	2022-12-14	18:52:14	18:59:09	413338	60b7d18beb67181cd97d7ac5	475579952	1	practice_slash	9	practice_slash	7	stimuli_distractor_trianglediamonds.svg	stimuli_target_circlediamonds.svg	10	yes	53	1	672
6.6.1	mac	2022-12-14	18:52:14	18:59:09	413338	60b7d18beb67181cd97d7ac5	475579952	1	practice_slash	9	advance_on_keypress_SLASH	8	stimuli_distractor_trianglediamonds.svg	stimuli_target_circlediamonds.svg	10	yes	57	0	376
6.6.1	mac	2022-12-14	18:52:14	18:59:13	417346	60b7d18beb67181cd97d7ac5	475579952	1	practice_slash	9	practice_slash	9	stimuli_target_diamondsquares.svg	stimuli_distractor_diamondtriangles.svg	3	yes	0	0	2000
6.6.1	mac	2022-12-14	18:52:14	18:59:13	417346	60b7d18beb67181cd97d7ac5	475579952	1	practice_slash	9	advance_on_keypress_SLASH	10	stimuli_target_diamondsquares.svg	stimuli_distractor_diamondtriangles.svg	3	yes	57	0	383
6.6.1	mac	2022-12-14	18:52:14	18:59:15	420034	60b7d18beb67181cd97d7ac5	475579952	1	practice_slash	9	practice_slash	11	stimuli_target_circlediamonds.svg	stimuli_distractor_trianglediamonds.svg	4	yes	53	1	677
6.6.1	mac	2022-12-14	18:52:14	18:59:15	420034	60b7d18beb67181cd97d7ac5	475579952	1	practice_slash	9	advance_on_keypress_SLASH	12	stimuli_target_circlediamonds.svg	stimuli_distractor_trianglediamonds.svg	4	yes	57	0	317
6.6.1	mac	2022-12-14	18:52:14	18:59:18	422968	60b7d18beb67181cd97d7ac5	475579952	1	practice_slash	9	practice_slash	13	stimuli_distractor_trianglediamonds.svg	stimuli_target_diamondcircles.svg	12	yes	53	1	991
6.6.1	mac	2022-12-14	18:52:14	18:59:18	422968	60b7d18beb67181cd97d7ac5	475579952	1	practice_slash	9	advance_on_keypress_SLASH	14	stimuli_distractor_trianglediamonds.svg	stimuli_target_diamondcircles.svg	12	yes	57	0	487
6.6.1	mac	2022-12-14	18:52:14	18:59:22	427089	60b7d18beb67181cd97d7ac5	475579952	1	practice_slash	9	practice_slash	15	stimuli_distractor_diamondtriangles.svg	stimuli_distractor_trianglediamonds.svg	14	no	0	1	2000
6.6.1	mac	2022-12-14	18:52:14	18:59:22	427089	60b7d18beb67181cd97d7ac5	475579952	1	practice_slash	9	advance_on_keypress_SLASH	16	stimuli_distractor_diamondtriangles.svg	stimuli_distractor_trianglediamonds.svg	14	no	57	0	380
6.6.1	mac	2022-12-14	18:52:14	18:59:25	429923	60b7d18beb67181cd97d7ac5	475579952	1	practice_slash	9	practice_slash	17	stimuli_distractor_trianglediamonds.svg	stimuli_target_squarediamonds.svg	11	yes	53	1	827
6.6.1	mac	2022-12-14	18:52:14	18:59:25	429923	60b7d18beb67181cd97d7ac5	475579952	1	practice_slash	9	advance_on_keypress_SLASH	18	stimuli_distractor_trianglediamonds.svg	stimuli_target_squarediamonds.svg	11	yes	57	0	522
6.6.1	mac	2022-12-14	18:52:14	18:59:29	434076	60b7d18beb67181cd97d7ac5	475579952	1	practice_slash	9	practice_slash	19	stimuli_distractor_trianglediamonds.svg	stimuli_distractor_trianglediamonds.svg	15	no	0	1	2000
6.6.1	mac	2022-12-14	18:52:14	18:59:29	434076	60b7d18beb67181cd97d7ac5	475579952	1	practice_slash	9	advance_on_keypress_SLASH	20	stimuli_distractor_trianglediamonds.svg	stimuli_distractor_trianglediamonds.svg	15	no	57	0	386
6.6.1	mac	2022-12-14	18:52:14	18:59:32	436839	60b7d18beb67181cd97d7ac5	475579952	1	practice_slash	9	practice_slash	21	stimuli_distractor_diamondtriangles.svg	stimuli_target_circletriangles.svg	7	yes	53	1	737
6.6.1	mac	2022-12-14	18:52:14	18:59:32	436839	60b7d18beb67181cd97d7ac5	475579952	1	practice_slash	9	advance_on_keypress_SLASH	22	stimuli_distractor_diamondtriangles.svg	stimuli_target_circletriangles.svg	7	yes	57	0	361
6.6.1	mac	2022-12-14	18:52:14	18:59:35	439844	60b7d18beb67181cd97d7ac5	475579952	1	practice_slash	9	practice_slash	23	stimuli_target_diamondsquares.svg	stimuli_distractor_trianglediamonds.svg	6	yes	53	1	1018
6.6.1	mac	2022-12-14	18:52:14	18:59:35	439844	60b7d18beb67181cd97d7ac5	475579952	1	practice_slash	9	advance_on_keypress_SLASH	24	stimuli_target_diamondsquares.svg	stimuli_distractor_trianglediamonds.svg	6	yes	57	0	423
6.6.1	mac	2022-12-14	18:52:14	18:59:38	442648	60b7d18beb67181cd97d7ac5	475579952	1	practice_slash	9	practice_slash	25	stimuli_target_circlediamonds.svg	stimuli_distractor_diamondtriangles.svg	1	yes	53	1	744
6.6.1	mac	2022-12-14	18:52:14	18:59:38	442648	60b7d18beb67181cd97d7ac5	475579952	1	practice_slash	9	advance_on_keypress_SLASH	26	stimuli_target_circlediamonds.svg	stimuli_distractor_diamondtriangles.svg	1	yes	57	0	371
6.6.1	mac	2022-12-14	18:52:14	18:59:42	446637	60b7d18beb67181cd97d7ac5	475579952	1	practice_slash	9	practice_slash	27	stimuli_distractor_diamondtriangles.svg	stimuli_distractor_diamondtriangles.svg	13	no	0	1	2000
6.6.1	mac	2022-12-14	18:52:14	18:59:42	446637	60b7d18beb67181cd97d7ac5	475579952	1	practice_slash	9	advance_on_keypress_SLASH	28	stimuli_distractor_diamondtriangles.svg	stimuli_distractor_diamondtriangles.svg	13	no	57	0	388
6.6.1	mac	2022-12-14	18:52:14	18:59:45	449377	60b7d18beb67181cd97d7ac5	475579952	1	practice_slash	9	practice_slash	29	stimuli_target_squarediamonds.svg	stimuli_distractor_diamondtriangles.svg	2	yes	53	1	715
6.6.1	mac	2022-12-14	18:52:14	18:59:45	449377	60b7d18beb67181cd97d7ac5	475579952	1	practice_slash	9	advance_on_keypress_SLASH	30	stimuli_target_squarediamonds.svg	stimuli_distractor_diamondtriangles.svg	2	yes	57	0	376
6.6.1	mac	2022-12-14	18:52:14	18:59:47	452168	60b7d18beb67181cd97d7ac5	475579952	1	practice_slash	9	practice_slash	31	stimuli_distractor_diamondtriangles.svg	stimuli_target_trianglecircles.svg	9	yes	53	1	798
6.6.1	mac	2022-12-14	18:52:14	18:59:47	452168	60b7d18beb67181cd97d7ac5	475579952	1	practice_slash	9	advance_on_keypress_SLASH	32	stimuli_distractor_diamondtriangles.svg	stimuli_target_trianglecircles.svg	9	yes	57	0	446
6.6.1	mac	2022-12-14	18:52:14	18:59:52	457110	60b7d18beb67181cd97d7ac5	475579952	1	main_slash	11	main_slash	1	stimuli_target_squaretriangles.svg	stimuli_distractor_diamondtriangles.svg	7	yes	53	1	675
6.6.1	mac	2022-12-14	18:52:14	18:59:52	457110	60b7d18beb67181cd97d7ac5	475579952	1	main_slash	11	advance_on_keypress_SLASH	2	stimuli_target_squaretriangles.svg	stimuli_distractor_diamondtriangles.svg	7	yes	57	0	786
6.6.1	mac	2022-12-14	18:52:14	18:59:56	460519	60b7d18beb67181cd97d7ac5	475579952	1	main_slash	11	main_slash	3	stimuli_distractor_diamondtriangles.svg	stimuli_distractor_trianglediamonds.svg	37	no	0	1	2000
6.6.1	mac	2022-12-14	18:52:14	18:59:56	460519	60b7d18beb67181cd97d7ac5	475579952	1	main_slash	11	advance_on_keypress_SLASH	4	stimuli_distractor_diamondtriangles.svg	stimuli_distractor_trianglediamonds.svg	37	no	57	0	446
6.6.1	mac	2022-12-14	18:52:14	18:59:58	462329	60b7d18beb67181cd97d7ac5	475579952	1	main_slash	11	main_slash	5	stimuli_distractor_trianglediamonds.svg	stimuli_target_squaretriangles.svg	11	yes	53	1	733
6.6.1	mac	2022-12-14	18:52:14	18:59:58	462329	60b7d18beb67181cd97d7ac5	475579952	1	main_slash	11	advance_on_keypress_SLASH	6	stimuli_distractor_trianglediamonds.svg	stimuli_target_squaretriangles.svg	11	yes	57	0	587
6.6.1	mac	2022-12-14	18:52:14	19:00:00	464265	60b7d18beb67181cd97d7ac5	475579952	1	main_slash	11	main_slash	7	stimuli_target_circlediamonds.svg	stimuli_distractor_diamondtriangles.svg	6	yes	53	1	713
6.6.1	mac	2022-12-14	18:52:14	19:00:00	464265	60b7d18beb67181cd97d7ac5	475579952	1	main_slash	11	advance_on_keypress_SLASH	8	stimuli_target_circlediamonds.svg	stimuli_distractor_diamondtriangles.svg	6	yes	57	0	495
6.6.1	mac	2022-12-14	18:52:14	19:00:02	466336	60b7d18beb67181cd97d7ac5	475579952	1	main_slash	11	main_slash	9	stimuli_distractor_trianglediamonds.svg	stimuli_distractor_diamondtriangles.svg	36	no	53	0	945
6.6.1	mac	2022-12-14	18:52:14	19:00:02	466336	60b7d18beb67181cd97d7ac5	475579952	1	main_slash	11	advance_on_keypress_SLASH	10	stimuli_distractor_trianglediamonds.svg	stimuli_distractor_diamondtriangles.svg	36	no	57	0	455
6.6.1	mac	2022-12-14	18:52:14	19:00:03	468165	60b7d18beb67181cd97d7ac5	475579952	1	main_slash	11	main_slash	11	stimuli_distractor_trianglediamonds.svg	stimuli_target_trianglesquares.svg	26	yes	53	1	752
6.6.1	mac	2022-12-14	18:52:14	19:00:03	468165	60b7d18beb67181cd97d7ac5	475579952	1	main_slash	11	advance_on_keypress_SLASH	12	stimuli_distractor_trianglediamonds.svg	stimuli_target_trianglesquares.svg	26	yes	57	0	402
6.6.1	mac	2022-12-14	18:52:14	19:00:05	469900	60b7d18beb67181cd97d7ac5	475579952	1	main_slash	11	main_slash	13	stimuli_target_circletriangles.svg	stimuli_distractor_diamondtriangles.svg	5	yes	53	1	696
6.6.1	mac	2022-12-14	18:52:14	19:00:05	469900	60b7d18beb67181cd97d7ac5	475579952	1	main_slash	11	advance_on_keypress_SLASH	14	stimuli_target_circletriangles.svg	stimuli_distractor_diamondtriangles.svg	5	yes	57	0	419
6.6.1	mac	2022-12-14	18:52:14	19:00:07	471738	60b7d18beb67181cd97d7ac5	475579952	1	main_slash	11	main_slash	15	stimuli_target_trianglecircles.svg	stimuli_distractor_diamondtriangles.svg	21	yes	53	1	795
6.6.1	mac	2022-12-14	18:52:14	19:00:07	471738	60b7d18beb67181cd97d7ac5	475579952	1	main_slash	11	advance_on_keypress_SLASH	16	stimuli_target_trianglecircles.svg	stimuli_distractor_diamondtriangles.svg	21	yes	57	0	458
6.6.1	mac	2022-12-14	18:52:14	19:00:10	474811	60b7d18beb67181cd97d7ac5	475579952	1	main_slash	11	main_slash	17	stimuli_distractor_diamondtriangles.svg	stimuli_distractor_diamondtriangles.svg	39	no	0	1	2000
6.6.1	mac	2022-12-14	18:52:14	19:00:10	474811	60b7d18beb67181cd97d7ac5	475579952	1	main_slash	11	advance_on_keypress_SLASH	18	stimuli_distractor_diamondtriangles.svg	stimuli_distractor_diamondtriangles.svg	39	no	57	0	366
6.6.1	mac	2022-12-14	18:52:14	19:00:12	476550	60b7d18beb67181cd97d7ac5	475579952	1	main_slash	11	main_slash	19	stimuli_distractor_trianglediamonds.svg	stimuli_target_circlediamonds.svg	10	yes	53	1	744
6.6.1	mac	2022-12-14	18:52:14	19:00:12	476550	60b7d18beb67181cd97d7ac5	475579952	1	main_slash	11	advance_on_keypress_SLASH	20	stimuli_distractor_trianglediamonds.svg	stimuli_target_circlediamonds.svg	10	yes	57	0	501
6.6.1	mac	2022-12-14	18:52:14	19:00:15	479673	60b7d18beb67181cd97d7ac5	475579952	1	main_slash	11	main_slash	21	stimuli_distractor_trianglediamonds.svg	stimuli_distractor_trianglediamonds.svg	33	no	0	1	2000
6.6.1	mac	2022-12-14	18:52:14	19:00:15	479673	60b7d18beb67181cd97d7ac5	475579952	1	main_slash	11	advance_on_keypress_SLASH	22	stimuli_distractor_trianglediamonds.svg	stimuli_distractor_trianglediamonds.svg	33	no	57	0	498
6.6.1	mac	2022-12-14	18:52:14	19:00:17	481558	60b7d18beb67181cd97d7ac5	475579952	1	main_slash	11	main_slash	23	stimuli_distractor_diamondtriangles.svg	stimuli_target_trianglesquares.svg	30	yes	53	1	757
6.6.1	mac	2022-12-14	18:52:14	19:00:17	481558	60b7d18beb67181cd97d7ac5	475579952	1	main_slash	11	advance_on_keypress_SLASH	24	stimuli_distractor_diamondtriangles.svg	stimuli_target_trianglesquares.svg	30	yes	57	0	464
6.6.1	mac	2022-12-14	18:52:14	19:00:20	484651	60b7d18beb67181cd97d7ac5	475579952	1	main_slash	11	main_slash	25	stimuli_distractor_trianglediamonds.svg	stimuli_distractor_trianglediamonds.svg	34	no	0	1	2000
6.6.1	mac	2022-12-14	18:52:14	19:00:20	484651	60b7d18beb67181cd97d7ac5	475579952	1	main_slash	11	advance_on_keypress_SLASH	26	stimuli_distractor_trianglediamonds.svg	stimuli_distractor_trianglediamonds.svg	34	no	57	0	352
6.6.1	mac	2022-12-14	18:52:14	19:00:22	486366	60b7d18beb67181cd97d7ac5	475579952	1	main_slash	11	main_slash	27	stimuli_target_trianglecircles.svg	stimuli_distractor_trianglediamonds.svg	17	yes	53	1	721
6.6.1	mac	2022-12-14	18:52:14	19:00:22	486366	60b7d18beb67181cd97d7ac5	475579952	1	main_slash	11	advance_on_keypress_SLASH	28	stimuli_target_trianglecircles.svg	stimuli_distractor_trianglediamonds.svg	17	yes	57	0	379
6.6.1	mac	2022-12-14	18:52:14	19:00:23	488100	60b7d18beb67181cd97d7ac5	475579952	1	main_slash	11	main_slash	29	stimuli_distractor_diamondtriangles.svg	stimuli_target_circletriangles.svg	13	yes	53	1	712
6.6.1	mac	2022-12-14	18:52:14	19:00:23	488100	60b7d18beb67181cd97d7ac5	475579952	1	main_slash	11	advance_on_keypress_SLASH	30	stimuli_distractor_diamondtriangles.svg	stimuli_target_circletriangles.svg	13	yes	57	0	378
6.6.1	mac	2022-12-14	18:52:14	19:00:25	489996	60b7d18beb67181cd97d7ac5	475579952	1	main_slash	11	main_slash	31	stimuli_target_diamondsquares.svg	stimuli_distractor_diamondtriangles.svg	24	yes	53	1	888
6.6.1	mac	2022-12-14	18:52:14	19:00:25	489996	60b7d18beb67181cd97d7ac5	475579952	1	main_slash	11	advance_on_keypress_SLASH	32	stimuli_target_diamondsquares.svg	stimuli_distractor_diamondtriangles.svg	24	yes	57	0	405
6.6.1	mac	2022-12-14	18:52:14	19:00:27	491851	60b7d18beb67181cd97d7ac5	475579952	1	main_slash	11	main_slash	33	stimuli_distractor_diamondtriangles.svg	stimuli_target_diamondcircles.svg	31	yes	53	1	830
6.6.1	mac	2022-12-14	18:52:14	19:00:27	491851	60b7d18beb67181cd97d7ac5	475579952	1	main_slash	11	advance_on_keypress_SLASH	34	stimuli_distractor_diamondtriangles.svg	stimuli_target_diamondcircles.svg	31	yes	57	0	365
6.6.1	mac	2022-12-14	18:52:14	19:00:29	493595	60b7d18beb67181cd97d7ac5	475579952	1	main_slash	11	main_slash	35	stimuli_target_circletriangles.svg	stimuli_distractor_trianglediamonds.svg	1	yes	53	1	743
6.6.1	mac	2022-12-14	18:52:14	19:00:29	493595	60b7d18beb67181cd97d7ac5	475579952	1	main_slash	11	advance_on_keypress_SLASH	36	stimuli_target_circletriangles.svg	stimuli_distractor_trianglediamonds.svg	1	yes	57	0	398
6.6.1	mac	2022-12-14	18:52:14	19:00:31	495432	60b7d18beb67181cd97d7ac5	475579952	1	main_slash	11	main_slash	37	stimuli_target_trianglesquares.svg	stimuli_distractor_diamondtriangles.svg	22	yes	53	1	814
6.6.1	mac	2022-12-14	18:52:14	19:00:31	495432	60b7d18beb67181cd97d7ac5	475579952	1	main_slash	11	advance_on_keypress_SLASH	38	stimuli_target_trianglesquares.svg	stimuli_distractor_diamondtriangles.svg	22	yes	57	0	372
6.6.1	mac	2022-12-14	18:52:14	19:00:34	498436	60b7d18beb67181cd97d7ac5	475579952	1	main_slash	11	main_slash	39	stimuli_distractor_diamondtriangles.svg	stimuli_distractor_diamondtriangles.svg	40	no	0	1	2000
6.6.1	mac	2022-12-14	18:52:14	19:00:34	498436	60b7d18beb67181cd97d7ac5	475579952	1	main_slash	11	advance_on_keypress_SLASH	40	stimuli_distractor_diamondtriangles.svg	stimuli_distractor_diamondtriangles.svg	40	no	57	0	348
6.6.1	mac	2022-12-14	18:52:14	19:00:35	500134	60b7d18beb67181cd97d7ac5	475579952	1	main_slash	11	main_slash	41	stimuli_distractor_trianglediamonds.svg	stimuli_target_squarediamonds.svg	12	yes	53	1	711
6.6.1	mac	2022-12-14	18:52:14	19:00:35	500134	60b7d18beb67181cd97d7ac5	475579952	1	main_slash	11	advance_on_keypress_SLASH	42	stimuli_distractor_trianglediamonds.svg	stimuli_target_squarediamonds.svg	12	yes	57	0	354
6.6.1	mac	2022-12-14	18:52:14	19:00:37	501911	60b7d18beb67181cd97d7ac5	475579952	1	main_slash	11	main_slash	43	stimuli_target_squarediamonds.svg	stimuli_distractor_trianglediamonds.svg	4	yes	53	1	804
6.6.1	mac	2022-12-14	18:52:14	19:00:37	501911	60b7d18beb67181cd97d7ac5	475579952	1	main_slash	11	advance_on_keypress_SLASH	44	stimuli_target_squarediamonds.svg	stimuli_distractor_trianglediamonds.svg	4	yes	57	0	437
6.6.1	mac	2022-12-14	18:52:14	19:00:39	503639	60b7d18beb67181cd97d7ac5	475579952	1	main_slash	11	main_slash	45	stimuli_distractor_diamondtriangles.svg	stimuli_target_circlediamonds.svg	14	yes	53	1	659
6.6.1	mac	2022-12-14	18:52:14	19:00:39	503639	60b7d18beb67181cd97d7ac5	475579952	1	main_slash	11	advance_on_keypress_SLASH	46	stimuli_distractor_diamondtriangles.svg	stimuli_target_circlediamonds.svg	14	yes	57	0	371
6.6.1	mac	2022-12-14	18:52:14	19:00:41	505433	60b7d18beb67181cd97d7ac5	475579952	1	main_slash	11	main_slash	47	stimuli_target_diamondcircles.svg	stimuli_distractor_trianglediamonds.svg	19	yes	53	1	801
6.6.1	mac	2022-12-14	18:52:14	19:00:41	505433	60b7d18beb67181cd97d7ac5	475579952	1	main_slash	11	advance_on_keypress_SLASH	48	stimuli_target_diamondcircles.svg	stimuli_distractor_trianglediamonds.svg	19	yes	57	0	399
6.6.1	mac	2022-12-14	18:52:14	19:00:44	508468	60b7d18beb67181cd97d7ac5	475579952	1	main_slash	11	main_slash	49	stimuli_distractor_diamondtriangles.svg	stimuli_target_diamondsquares.svg	32	yes	0	0	2000
6.6.1	mac	2022-12-14	18:52:14	19:00:44	508468	60b7d18beb67181cd97d7ac5	475579952	1	main_slash	11	advance_on_keypress_SLASH	50	stimuli_distractor_diamondtriangles.svg	stimuli_target_diamondsquares.svg	32	yes	57	0	409
6.6.1	mac	2022-12-14	18:52:14	19:00:46	510394	60b7d18beb67181cd97d7ac5	475579952	1	main_slash	11	main_slash	51	stimuli_target_diamondsquares.svg	stimuli_distractor_trianglediamonds.svg	20	yes	53	1	885
6.6.1	mac	2022-12-14	18:52:14	19:00:46	510394	60b7d18beb67181cd97d7ac5	475579952	1	main_slash	11	advance_on_keypress_SLASH	52	stimuli_target_diamondsquares.svg	stimuli_distractor_trianglediamonds.svg	20	yes	57	0	432
6.6.1	mac	2022-12-14	18:52:14	19:00:47	512193	60b7d18beb67181cd97d7ac5	475579952	1	main_slash	11	main_slash	53	stimuli_distractor_trianglediamonds.svg	stimuli_target_trianglecircles.svg	25	yes	53	1	742
6.6.1	mac	2022-12-14	18:52:14	19:00:47	512193	60b7d18beb67181cd97d7ac5	475579952	1	main_slash	11	advance_on_keypress_SLASH	54	stimuli_distractor_trianglediamonds.svg	stimuli_target_trianglecircles.svg	25	yes	57	0	409
6.6.1	mac	2022-12-14	18:52:14	19:00:49	513948	60b7d18beb67181cd97d7ac5	475579952	1	main_slash	11	main_slash	55	stimuli_target_diamondcircles.svg	stimuli_distractor_diamondtriangles.svg	23	yes	53	1	715
6.6.1	mac	2022-12-14	18:52:14	19:00:49	513948	60b7d18beb67181cd97d7ac5	475579952	1	main_slash	11	advance_on_keypress_SLASH	56	stimuli_target_diamondcircles.svg	stimuli_distractor_diamondtriangles.svg	23	yes	57	0	431
6.6.1	mac	2022-12-14	18:52:14	19:00:51	515742	60b7d18beb67181cd97d7ac5	475579952	1	main_slash	11	main_slash	57	stimuli_distractor_diamondtriangles.svg	stimuli_target_trianglecircles.svg	29	yes	53	1	722
6.6.1	mac	2022-12-14	18:52:14	19:00:51	515742	60b7d18beb67181cd97d7ac5	475579952	1	main_slash	11	advance_on_keypress_SLASH	58	stimuli_distractor_diamondtriangles.svg	stimuli_target_trianglecircles.svg	29	yes	57	0	390
6.6.1	mac	2022-12-14	18:52:14	19:00:53	517563	60b7d18beb67181cd97d7ac5	475579952	1	main_slash	11	main_slash	59	stimuli_distractor_diamondtriangles.svg	stimuli_distractor_trianglediamonds.svg	38	no	53	0	813
6.6.1	mac	2022-12-14	18:52:14	19:00:53	517563	60b7d18beb67181cd97d7ac5	475579952	1	main_slash	11	advance_on_keypress_SLASH	60	stimuli_distractor_diamondtriangles.svg	stimuli_distractor_trianglediamonds.svg	38	no	57	0	345
6.6.1	mac	2022-12-14	18:52:14	19:00:55	519277	60b7d18beb67181cd97d7ac5	475579952	1	main_slash	11	main_slash	61	stimuli_target_circlediamonds.svg	stimuli_distractor_trianglediamonds.svg	2	yes	53	1	723
6.6.1	mac	2022-12-14	18:52:14	19:00:55	519277	60b7d18beb67181cd97d7ac5	475579952	1	main_slash	11	advance_on_keypress_SLASH	62	stimuli_target_circlediamonds.svg	stimuli_distractor_trianglediamonds.svg	2	yes	57	0	744
6.6.1	mac	2022-12-14	18:52:14	19:00:58	522650	60b7d18beb67181cd97d7ac5	475579952	1	main_slash	11	main_slash	63	stimuli_distractor_trianglediamonds.svg	stimuli_target_diamondsquares.svg	28	yes	0	0	2000
6.6.1	mac	2022-12-14	18:52:14	19:00:58	522650	60b7d18beb67181cd97d7ac5	475579952	1	main_slash	11	advance_on_keypress_SLASH	64	stimuli_distractor_trianglediamonds.svg	stimuli_target_diamondsquares.svg	28	yes	57	0	307
6.6.1	mac	2022-12-14	18:52:14	19:01:00	524434	60b7d18beb67181cd97d7ac5	475579952	1	main_slash	11	main_slash	65	stimuli_target_squaretriangles.svg	stimuli_distractor_trianglediamonds.svg	3	yes	53	1	843
6.6.1	mac	2022-12-14	18:52:14	19:01:00	524434	60b7d18beb67181cd97d7ac5	475579952	1	main_slash	11	advance_on_keypress_SLASH	66	stimuli_target_squaretriangles.svg	stimuli_distractor_trianglediamonds.svg	3	yes	57	0	427
6.6.1	mac	2022-12-14	18:52:14	19:01:01	526223	60b7d18beb67181cd97d7ac5	475579952	1	main_slash	11	main_slash	67	stimuli_distractor_trianglediamonds.svg	stimuli_target_circletriangles.svg	9	yes	53	1	748
6.6.1	mac	2022-12-14	18:52:14	19:01:01	526223	60b7d18beb67181cd97d7ac5	475579952	1	main_slash	11	advance_on_keypress_SLASH	68	stimuli_distractor_trianglediamonds.svg	stimuli_target_circletriangles.svg	9	yes	57	0	384
6.6.1	mac	2022-12-14	18:52:14	19:01:05	529243	60b7d18beb67181cd97d7ac5	475579952	1	main_slash	11	main_slash	69	stimuli_distractor_trianglediamonds.svg	stimuli_distractor_diamondtriangles.svg	35	no	0	1	2000
6.6.1	mac	2022-12-14	18:52:14	19:01:05	529243	60b7d18beb67181cd97d7ac5	475579952	1	main_slash	11	advance_on_keypress_SLASH	70	stimuli_distractor_trianglediamonds.svg	stimuli_distractor_diamondtriangles.svg	35	no	57	0	432
6.6.1	mac	2022-12-14	18:52:14	19:01:06	531191	60b7d18beb67181cd97d7ac5	475579952	1	main_slash	11	main_slash	71	stimuli_distractor_diamondtriangles.svg	stimuli_target_squarediamonds.svg	16	yes	53	1	875
6.6.1	mac	2022-12-14	18:52:14	19:01:06	531191	60b7d18beb67181cd97d7ac5	475579952	1	main_slash	11	advance_on_keypress_SLASH	72	stimuli_distractor_diamondtriangles.svg	stimuli_target_squarediamonds.svg	16	yes	57	0	383
6.6.1	mac	2022-12-14	18:52:14	19:01:08	532937	60b7d18beb67181cd97d7ac5	475579952	1	main_slash	11	main_slash	73	stimuli_target_trianglesquares.svg	stimuli_distractor_trianglediamonds.svg	18	yes	53	1	737
6.6.1	mac	2022-12-14	18:52:14	19:01:08	532937	60b7d18beb67181cd97d7ac5	475579952	1	main_slash	11	advance_on_keypress_SLASH	74	stimuli_target_trianglesquares.svg	stimuli_distractor_trianglediamonds.svg	18	yes	57	0	412
6.6.1	mac	2022-12-14	18:52:14	19:01:10	534848	60b7d18beb67181cd97d7ac5	475579952	1	main_slash	11	main_slash	75	stimuli_distractor_trianglediamonds.svg	stimuli_target_diamondcircles.svg	27	yes	53	1	874
6.6.1	mac	2022-12-14	18:52:14	19:01:10	534848	60b7d18beb67181cd97d7ac5	475579952	1	main_slash	11	advance_on_keypress_SLASH	76	stimuli_distractor_trianglediamonds.svg	stimuli_target_diamondcircles.svg	27	yes	57	0	418
6.6.1	mac	2022-12-14	18:52:14	19:01:13	537889	60b7d18beb67181cd97d7ac5	475579952	1	main_slash	11	main_slash	77	stimuli_distractor_diamondtriangles.svg	stimuli_target_squaretriangles.svg	15	yes	0	0	2000
6.6.1	mac	2022-12-14	18:52:14	19:01:13	537889	60b7d18beb67181cd97d7ac5	475579952	1	main_slash	11	advance_on_keypress_SLASH	78	stimuli_distractor_diamondtriangles.svg	stimuli_target_squaretriangles.svg	15	yes	57	0	413
6.6.1	mac	2022-12-14	18:52:14	19:01:15	540094	60b7d18beb67181cd97d7ac5	475579952	1	main_slash	11	main_slash	79	stimuli_target_squarediamonds.svg	stimuli_distractor_diamondtriangles.svg	8	yes	53	1	1146
6.6.1	mac	2022-12-14	18:52:14	19:01:15	540094	60b7d18beb67181cd97d7ac5	475579952	1	main_slash	11	advance_on_keypress_SLASH	80	stimuli_target_squarediamonds.svg	stimuli_distractor_diamondtriangles.svg	8	yes	57	0	479
6.6.1	mac	2022-12-14	18:52:14	19:01:17	541956	60b7d18beb67181cd97d7ac5	475579952	1	main_slash	11	main_slash	81	stimuli_distractor_diamondtriangles.svg	stimuli_target_circlediamonds.svg	14	yes	53	1	739
6.6.1	mac	2022-12-14	18:52:14	19:01:17	541956	60b7d18beb67181cd97d7ac5	475579952	1	main_slash	11	advance_on_keypress_SLASH	82	stimuli_distractor_diamondtriangles.svg	stimuli_target_circlediamonds.svg	14	yes	57	0	387
6.6.1	mac	2022-12-14	18:52:14	19:01:19	543766	60b7d18beb67181cd97d7ac5	475579952	1	main_slash	11	main_slash	83	stimuli_target_circlediamonds.svg	stimuli_distractor_trianglediamonds.svg	2	yes	53	1	788
6.6.1	mac	2022-12-14	18:52:14	19:01:19	543766	60b7d18beb67181cd97d7ac5	475579952	1	main_slash	11	advance_on_keypress_SLASH	84	stimuli_target_circlediamonds.svg	stimuli_distractor_trianglediamonds.svg	2	yes	57	0	469
6.6.1	mac	2022-12-14	18:52:14	19:01:22	546868	60b7d18beb67181cd97d7ac5	475579952	1	main_slash	11	main_slash	85	stimuli_distractor_trianglediamonds.svg	stimuli_distractor_trianglediamonds.svg	33	no	0	1	2000
6.6.1	mac	2022-12-14	18:52:14	19:01:22	546868	60b7d18beb67181cd97d7ac5	475579952	1	main_slash	11	advance_on_keypress_SLASH	86	stimuli_distractor_trianglediamonds.svg	stimuli_distractor_trianglediamonds.svg	33	no	57	0	313
6.6.1	mac	2022-12-14	18:52:14	19:01:24	548525	60b7d18beb67181cd97d7ac5	475579952	1	main_slash	11	main_slash	87	stimuli_distractor_diamondtriangles.svg	stimuli_target_circletriangles.svg	13	yes	53	1	713
6.6.1	mac	2022-12-14	18:52:14	19:01:24	548525	60b7d18beb67181cd97d7ac5	475579952	1	main_slash	11	advance_on_keypress_SLASH	88	stimuli_distractor_diamondtriangles.svg	stimuli_target_circletriangles.svg	13	yes	57	0	408
6.6.1	mac	2022-12-14	18:52:14	19:01:26	550358	60b7d18beb67181cd97d7ac5	475579952	1	main_slash	11	main_slash	89	stimuli_distractor_trianglediamonds.svg	stimuli_target_circlediamonds.svg	10	yes	53	1	807
6.6.1	mac	2022-12-14	18:52:14	19:01:26	550358	60b7d18beb67181cd97d7ac5	475579952	1	main_slash	11	advance_on_keypress_SLASH	90	stimuli_distractor_trianglediamonds.svg	stimuli_target_circlediamonds.svg	10	yes	57	0	353
6.6.1	mac	2022-12-14	18:52:14	19:01:28	552271	60b7d18beb67181cd97d7ac5	475579952	1	main_slash	11	main_slash	91	stimuli_distractor_trianglediamonds.svg	stimuli_target_trianglecircles.svg	25	yes	53	1	935
6.6.1	mac	2022-12-14	18:52:14	19:01:28	552271	60b7d18beb67181cd97d7ac5	475579952	1	main_slash	11	advance_on_keypress_SLASH	92	stimuli_distractor_trianglediamonds.svg	stimuli_target_trianglecircles.svg	25	yes	57	0	433
6.6.1	mac	2022-12-14	18:52:14	19:01:29	554108	60b7d18beb67181cd97d7ac5	475579952	1	main_slash	11	main_slash	93	stimuli_target_diamondsquares.svg	stimuli_distractor_diamondtriangles.svg	24	yes	53	1	764
6.6.1	mac	2022-12-14	18:52:14	19:01:29	554108	60b7d18beb67181cd97d7ac5	475579952	1	main_slash	11	advance_on_keypress_SLASH	94	stimuli_target_diamondsquares.svg	stimuli_distractor_diamondtriangles.svg	24	yes	57	0	440
6.6.1	mac	2022-12-14	18:52:14	19:01:31	555855	60b7d18beb67181cd97d7ac5	475579952	1	main_slash	11	main_slash	95	stimuli_target_circletriangles.svg	stimuli_distractor_trianglediamonds.svg	1	yes	53	1	688
6.6.1	mac	2022-12-14	18:52:14	19:01:31	555855	60b7d18beb67181cd97d7ac5	475579952	1	main_slash	11	advance_on_keypress_SLASH	96	stimuli_target_circletriangles.svg	stimuli_distractor_trianglediamonds.svg	1	yes	57	0	435
6.6.1	mac	2022-12-14	18:52:14	19:01:33	557642	60b7d18beb67181cd97d7ac5	475579952	1	main_slash	11	main_slash	97	stimuli_distractor_diamondtriangles.svg	stimuli_target_trianglesquares.svg	30	yes	53	1	712
6.6.1	mac	2022-12-14	18:52:14	19:01:33	557642	60b7d18beb67181cd97d7ac5	475579952	1	main_slash	11	advance_on_keypress_SLASH	98	stimuli_distractor_diamondtriangles.svg	stimuli_target_trianglesquares.svg	30	yes	57	0	387
6.6.1	mac	2022-12-14	18:52:14	19:01:35	559341	60b7d18beb67181cd97d7ac5	475579952	1	main_slash	11	main_slash	99	stimuli_target_diamondcircles.svg	stimuli_distractor_trianglediamonds.svg	19	yes	53	1	686
6.6.1	mac	2022-12-14	18:52:14	19:01:35	559341	60b7d18beb67181cd97d7ac5	475579952	1	main_slash	11	advance_on_keypress_SLASH	100	stimuli_target_diamondcircles.svg	stimuli_distractor_trianglediamonds.svg	19	yes	57	0	415
6.6.1	mac	2022-12-14	18:52:14	19:01:36	561059	60b7d18beb67181cd97d7ac5	475579952	1	main_slash	11	main_slash	101	stimuli_target_squarediamonds.svg	stimuli_distractor_diamondtriangles.svg	8	yes	53	1	662
6.6.1	mac	2022-12-14	18:52:14	19:01:36	561059	60b7d18beb67181cd97d7ac5	475579952	1	main_slash	11	advance_on_keypress_SLASH	102	stimuli_target_squarediamonds.svg	stimuli_distractor_diamondtriangles.svg	8	yes	57	0	441
6.6.1	mac	2022-12-14	18:52:14	19:01:38	562842	60b7d18beb67181cd97d7ac5	475579952	1	main_slash	11	main_slash	103	stimuli_distractor_trianglediamonds.svg	stimuli_distractor_diamondtriangles.svg	36	no	53	0	722
6.6.1	mac	2022-12-14	18:52:14	19:01:38	562842	60b7d18beb67181cd97d7ac5	475579952	1	main_slash	11	advance_on_keypress_SLASH	104	stimuli_distractor_trianglediamonds.svg	stimuli_distractor_diamondtriangles.svg	36	no	57	0	453
6.6.1	mac	2022-12-14	18:52:14	19:01:40	564575	60b7d18beb67181cd97d7ac5	475579952	1	main_slash	11	main_slash	105	stimuli_target_trianglecircles.svg	stimuli_distractor_diamondtriangles.svg	21	yes	53	1	649
6.6.1	mac	2022-12-14	18:52:14	19:01:40	564575	60b7d18beb67181cd97d7ac5	475579952	1	main_slash	11	advance_on_keypress_SLASH	106	stimuli_target_trianglecircles.svg	stimuli_distractor_diamondtriangles.svg	21	yes	57	0	412
6.6.1	mac	2022-12-14	18:52:14	19:01:42	566510	60b7d18beb67181cd97d7ac5	475579952	1	main_slash	11	main_slash	107	stimuli_distractor_trianglediamonds.svg	stimuli_target_squaretriangles.svg	11	yes	53	1	894
6.6.1	mac	2022-12-14	18:52:14	19:01:42	566510	60b7d18beb67181cd97d7ac5	475579952	1	main_slash	11	advance_on_keypress_SLASH	108	stimuli_distractor_trianglediamonds.svg	stimuli_target_squaretriangles.svg	11	yes	57	0	351
6.6.1	mac	2022-12-14	18:52:14	19:01:44	568617	60b7d18beb67181cd97d7ac5	475579952	1	main_slash	11	main_slash	109	stimuli_target_trianglesquares.svg	stimuli_distractor_trianglediamonds.svg	18	yes	53	1	1129
6.6.1	mac	2022-12-14	18:52:14	19:01:44	568617	60b7d18beb67181cd97d7ac5	475579952	1	main_slash	11	advance_on_keypress_SLASH	110	stimuli_target_trianglesquares.svg	stimuli_distractor_trianglediamonds.svg	18	yes	57	0	478
6.6.1	mac	2022-12-14	18:52:14	19:01:46	570479	60b7d18beb67181cd97d7ac5	475579952	1	main_slash	11	main_slash	111	stimuli_target_diamondsquares.svg	stimuli_distractor_trianglediamonds.svg	20	yes	53	1	750
6.6.1	mac	2022-12-14	18:52:14	19:01:46	570479	60b7d18beb67181cd97d7ac5	475579952	1	main_slash	11	advance_on_keypress_SLASH	112	stimuli_target_diamondsquares.svg	stimuli_distractor_trianglediamonds.svg	20	yes	57	0	407
6.6.1	mac	2022-12-14	18:52:14	19:01:48	572261	60b7d18beb67181cd97d7ac5	475579952	1	main_slash	11	main_slash	113	stimuli_target_diamondcircles.svg	stimuli_distractor_diamondtriangles.svg	23	yes	53	1	739
6.6.1	mac	2022-12-14	18:52:14	19:01:48	572261	60b7d18beb67181cd97d7ac5	475579952	1	main_slash	11	advance_on_keypress_SLASH	114	stimuli_target_diamondcircles.svg	stimuli_distractor_diamondtriangles.svg	23	yes	57	0	443
6.6.1	mac	2022-12-14	18:52:14	19:01:49	574122	60b7d18beb67181cd97d7ac5	475579952	1	main_slash	11	main_slash	115	stimuli_target_circletriangles.svg	stimuli_distractor_diamondtriangles.svg	5	yes	53	1	781
6.6.1	mac	2022-12-14	18:52:14	19:01:49	574122	60b7d18beb67181cd97d7ac5	475579952	1	main_slash	11	advance_on_keypress_SLASH	116	stimuli_target_circletriangles.svg	stimuli_distractor_diamondtriangles.svg	5	yes	57	0	414
6.6.1	mac	2022-12-14	18:52:14	19:01:51	575992	60b7d18beb67181cd97d7ac5	475579952	1	main_slash	11	main_slash	117	stimuli_distractor_diamondtriangles.svg	stimuli_target_diamondcircles.svg	31	yes	53	1	824
6.6.1	mac	2022-12-14	18:52:14	19:01:51	575992	60b7d18beb67181cd97d7ac5	475579952	1	main_slash	11	advance_on_keypress_SLASH	118	stimuli_distractor_diamondtriangles.svg	stimuli_target_diamondcircles.svg	31	yes	57	0	383
6.6.1	mac	2022-12-14	18:52:14	19:01:54	579005	60b7d18beb67181cd97d7ac5	475579952	1	main_slash	11	main_slash	119	stimuli_distractor_diamondtriangles.svg	stimuli_distractor_diamondtriangles.svg	40	no	0	1	2000
6.6.1	mac	2022-12-14	18:52:14	19:01:54	579005	60b7d18beb67181cd97d7ac5	475579952	1	main_slash	11	advance_on_keypress_SLASH	120	stimuli_distractor_diamondtriangles.svg	stimuli_distractor_diamondtriangles.svg	40	no	57	0	393
6.6.1	mac	2022-12-14	18:52:14	19:01:56	580758	60b7d18beb67181cd97d7ac5	475579952	1	main_slash	11	main_slash	121	stimuli_distractor_trianglediamonds.svg	stimuli_target_diamondcircles.svg	27	yes	53	1	731
6.6.1	mac	2022-12-14	18:52:14	19:01:56	580758	60b7d18beb67181cd97d7ac5	475579952	1	main_slash	11	advance_on_keypress_SLASH	122	stimuli_distractor_trianglediamonds.svg	stimuli_target_diamondcircles.svg	27	yes	57	0	442
6.6.1	mac	2022-12-14	18:52:14	19:01:58	582808	60b7d18beb67181cd97d7ac5	475579952	1	main_slash	11	main_slash	123	stimuli_distractor_trianglediamonds.svg	stimuli_target_diamondsquares.svg	28	yes	53	1	988
6.6.1	mac	2022-12-14	18:52:14	19:01:58	582808	60b7d18beb67181cd97d7ac5	475579952	1	main_slash	11	advance_on_keypress_SLASH	124	stimuli_distractor_trianglediamonds.svg	stimuli_target_diamondsquares.svg	28	yes	57	0	454
6.6.1	mac	2022-12-14	18:52:14	19:02:00	584650	60b7d18beb67181cd97d7ac5	475579952	1	main_slash	11	main_slash	125	stimuli_distractor_diamondtriangles.svg	stimuli_target_squarediamonds.svg	16	yes	53	1	765
6.6.1	mac	2022-12-14	18:52:14	19:02:00	584650	60b7d18beb67181cd97d7ac5	475579952	1	main_slash	11	advance_on_keypress_SLASH	126	stimuli_distractor_diamondtriangles.svg	stimuli_target_squarediamonds.svg	16	yes	57	0	401
6.6.1	mac	2022-12-14	18:52:14	19:02:02	586384	60b7d18beb67181cd97d7ac5	475579952	1	main_slash	11	main_slash	127	stimuli_target_trianglecircles.svg	stimuli_distractor_trianglediamonds.svg	17	yes	53	1	708
6.6.1	mac	2022-12-14	18:52:14	19:02:02	586384	60b7d18beb67181cd97d7ac5	475579952	1	main_slash	11	advance_on_keypress_SLASH	128	stimuli_target_trianglecircles.svg	stimuli_distractor_trianglediamonds.svg	17	yes	57	0	406
6.6.1	mac	2022-12-14	18:52:14	19:02:03	588156	60b7d18beb67181cd97d7ac5	475579952	1	main_slash	11	main_slash	129	stimuli_target_squaretriangles.svg	stimuli_distractor_trianglediamonds.svg	3	yes	53	1	727
6.6.1	mac	2022-12-14	18:52:14	19:02:03	588156	60b7d18beb67181cd97d7ac5	475579952	1	main_slash	11	advance_on_keypress_SLASH	130	stimuli_target_squaretriangles.svg	stimuli_distractor_trianglediamonds.svg	3	yes	57	0	427
6.6.1	mac	2022-12-14	18:52:14	19:02:05	589920	60b7d18beb67181cd97d7ac5	475579952	1	main_slash	11	main_slash	131	stimuli_distractor_trianglediamonds.svg	stimuli_target_trianglesquares.svg	26	yes	53	1	701
6.6.1	mac	2022-12-14	18:52:14	19:02:05	589920	60b7d18beb67181cd97d7ac5	475579952	1	main_slash	11	advance_on_keypress_SLASH	132	stimuli_distractor_trianglediamonds.svg	stimuli_target_trianglesquares.svg	26	yes	57	0	387
6.6.1	mac	2022-12-14	18:52:14	19:02:07	591621	60b7d18beb67181cd97d7ac5	475579952	1	main_slash	11	main_slash	133	stimuli_distractor_diamondtriangles.svg	stimuli_target_squaretriangles.svg	15	yes	53	1	676
6.6.1	mac	2022-12-14	18:52:14	19:02:07	591621	60b7d18beb67181cd97d7ac5	475579952	1	main_slash	11	advance_on_keypress_SLASH	134	stimuli_distractor_diamondtriangles.svg	stimuli_target_squaretriangles.svg	15	yes	57	0	408
6.6.1	mac	2022-12-14	18:52:14	19:02:09	593398	60b7d18beb67181cd97d7ac5	475579952	1	main_slash	11	main_slash	135	stimuli_distractor_trianglediamonds.svg	stimuli_target_squarediamonds.svg	12	yes	53	1	749
6.6.1	mac	2022-12-14	18:52:14	19:02:09	593398	60b7d18beb67181cd97d7ac5	475579952	1	main_slash	11	advance_on_keypress_SLASH	136	stimuli_distractor_trianglediamonds.svg	stimuli_target_squarediamonds.svg	12	yes	57	0	405
6.6.1	mac	2022-12-14	18:52:14	19:02:12	596421	60b7d18beb67181cd97d7ac5	475579952	1	main_slash	11	main_slash	137	stimuli_distractor_trianglediamonds.svg	stimuli_distractor_trianglediamonds.svg	34	no	0	1	2000
6.6.1	mac	2022-12-14	18:52:14	19:02:12	596421	60b7d18beb67181cd97d7ac5	475579952	1	main_slash	11	advance_on_keypress_SLASH	138	stimuli_distractor_trianglediamonds.svg	stimuli_distractor_trianglediamonds.svg	34	no	57	0	405
6.6.1	mac	2022-12-14	18:52:14	19:02:13	598140	60b7d18beb67181cd97d7ac5	475579952	1	main_slash	11	main_slash	139	stimuli_distractor_trianglediamonds.svg	stimuli_target_circletriangles.svg	9	yes	53	1	687
6.6.1	mac	2022-12-14	18:52:14	19:02:13	598140	60b7d18beb67181cd97d7ac5	475579952	1	main_slash	11	advance_on_keypress_SLASH	140	stimuli_distractor_trianglediamonds.svg	stimuli_target_circletriangles.svg	9	yes	57	0	430
6.6.1	mac	2022-12-14	18:52:14	19:02:15	599962	60b7d18beb67181cd97d7ac5	475579952	1	main_slash	11	main_slash	141	stimuli_target_circlediamonds.svg	stimuli_distractor_diamondtriangles.svg	6	yes	53	1	757
6.6.1	mac	2022-12-14	18:52:14	19:02:15	599962	60b7d18beb67181cd97d7ac5	475579952	1	main_slash	11	advance_on_keypress_SLASH	142	stimuli_target_circlediamonds.svg	stimuli_distractor_diamondtriangles.svg	6	yes	57	0	434
6.6.1	mac	2022-12-14	18:52:14	19:02:18	603022	60b7d18beb67181cd97d7ac5	475579952	1	main_slash	11	main_slash	143	stimuli_target_squarediamonds.svg	stimuli_distractor_trianglediamonds.svg	4	yes	0	0	2000
6.6.1	mac	2022-12-14	18:52:14	19:02:18	603022	60b7d18beb67181cd97d7ac5	475579952	1	main_slash	11	advance_on_keypress_SLASH	144	stimuli_target_squarediamonds.svg	stimuli_distractor_trianglediamonds.svg	4	yes	57	0	1087
6.6.1	mac	2022-12-14	18:52:14	19:02:21	605556	60b7d18beb67181cd97d7ac5	475579952	1	main_slash	11	main_slash	145	stimuli_distractor_diamondtriangles.svg	stimuli_distractor_trianglediamonds.svg	37	no	53	0	819
6.6.1	mac	2022-12-14	18:52:14	19:02:21	605556	60b7d18beb67181cd97d7ac5	475579952	1	main_slash	11	advance_on_keypress_SLASH	146	stimuli_distractor_diamondtriangles.svg	stimuli_distractor_trianglediamonds.svg	37	no	57	0	326
6.6.1	mac	2022-12-14	18:52:14	19:02:23	607362	60b7d18beb67181cd97d7ac5	475579952	1	main_slash	11	main_slash	147	stimuli_target_trianglesquares.svg	stimuli_distractor_diamondtriangles.svg	22	yes	53	1	848
6.6.1	mac	2022-12-14	18:52:14	19:02:23	607362	60b7d18beb67181cd97d7ac5	475579952	1	main_slash	11	advance_on_keypress_SLASH	148	stimuli_target_trianglesquares.svg	stimuli_distractor_diamondtriangles.svg	22	yes	57	0	435
6.6.1	mac	2022-12-14	18:52:14	19:02:25	609722	60b7d18beb67181cd97d7ac5	475579952	1	main_slash	11	main_slash	149	stimuli_target_squaretriangles.svg	stimuli_distractor_diamondtriangles.svg	7	yes	53	1	1300
6.6.1	mac	2022-12-14	18:52:14	19:02:25	609722	60b7d18beb67181cd97d7ac5	475579952	1	main_slash	11	advance_on_keypress_SLASH	150	stimuli_target_squaretriangles.svg	stimuli_distractor_diamondtriangles.svg	7	yes	57	0	418
6.6.1	mac	2022-12-14	18:52:14	19:02:28	612762	60b7d18beb67181cd97d7ac5	475579952	1	main_slash	11	main_slash	151	stimuli_distractor_diamondtriangles.svg	stimuli_distractor_trianglediamonds.svg	38	no	0	1	2000
6.6.1	mac	2022-12-14	18:52:14	19:02:28	612762	60b7d18beb67181cd97d7ac5	475579952	1	main_slash	11	advance_on_keypress_SLASH	152	stimuli_distractor_diamondtriangles.svg	stimuli_distractor_trianglediamonds.svg	38	no	57	0	497
6.6.1	mac	2022-12-14	18:52:14	19:02:31	615890	60b7d18beb67181cd97d7ac5	475579952	1	main_slash	11	main_slash	153	stimuli_distractor_diamondtriangles.svg	stimuli_distractor_diamondtriangles.svg	39	no	0	1	2000
6.6.1	mac	2022-12-14	18:52:14	19:02:31	615890	60b7d18beb67181cd97d7ac5	475579952	1	main_slash	11	advance_on_keypress_SLASH	154	stimuli_distractor_diamondtriangles.svg	stimuli_distractor_diamondtriangles.svg	39	no	57	0	411
6.6.1	mac	2022-12-14	18:52:14	19:02:34	618933	60b7d18beb67181cd97d7ac5	475579952	1	main_slash	11	main_slash	155	stimuli_distractor_trianglediamonds.svg	stimuli_distractor_diamondtriangles.svg	35	no	0	1	2000
6.6.1	mac	2022-12-14	18:52:14	19:02:34	618933	60b7d18beb67181cd97d7ac5	475579952	1	main_slash	11	advance_on_keypress_SLASH	156	stimuli_distractor_trianglediamonds.svg	stimuli_distractor_diamondtriangles.svg	35	no	57	0	895
6.6.1	mac	2022-12-14	18:52:14	19:02:37	621384	60b7d18beb67181cd97d7ac5	475579952	1	main_slash	11	main_slash	157	stimuli_distractor_diamondtriangles.svg	stimuli_target_diamondsquares.svg	32	yes	53	1	935
6.6.1	mac	2022-12-14	18:52:14	19:02:37	621384	60b7d18beb67181cd97d7ac5	475579952	1	main_slash	11	advance_on_keypress_SLASH	158	stimuli_distractor_diamondtriangles.svg	stimuli_target_diamondsquares.svg	32	yes	57	0	597
6.6.1	mac	2022-12-14	18:52:14	19:02:39	623399	60b7d18beb67181cd97d7ac5	475579952	1	main_slash	11	main_slash	159	stimuli_distractor_diamondtriangles.svg	stimuli_target_trianglecircles.svg	29	yes	53	1	792
6.6.1	mac	2022-12-14	18:52:14	19:02:39	623399	60b7d18beb67181cd97d7ac5	475579952	1	main_slash	11	advance_on_keypress_SLASH	160	stimuli_distractor_diamondtriangles.svg	stimuli_target_trianglecircles.svg	29	yes	57	0	436