build	computer.platform	date	time	timestamp	time_elapsed_ms	subject	group	session	blockcode	blocknum	trialcode	trialnum	stimulus_left	stimulus_right	stim_index	target_present	response	correct	latency
6.6.1	win	2022-12-16	13:25:30	13:27:58	145172	5e4c86f49b48ae0c4af25e8e	95593435	1	practice_slash	5	practice_slash	1	stimuli_distractor_trianglediamonds.svg	stimuli_distractor_diamondtriangles.svg	16	no	0	1	2000
6.6.1	win	2022-12-16	13:25:30	13:27:58	145172	5e4c86f49b48ae0c4af25e8e	95593435	1	practice_slash	5	advance_on_keypress_SLASH	2	stimuli_distractor_trianglediamonds.svg	stimuli_distractor_diamondtriangles.svg	16	no	57	0	1427
6.6.1	win	2022-12-16	13:25:30	13:28:04	150247	5e4c86f49b48ae0c4af25e8e	95593435	1	practice_slash	5	practice_slash	3	stimuli_target_diamondsquares.svg	stimuli_distractor_diamondtriangles.svg	3	yes	0	0	2000
6.6.1	win	2022-12-16	13:25:30	13:28:04	150247	5e4c86f49b48ae0c4af25e8e	95593435	1	practice_slash	5	advance_on_keypress_SLASH	4	stimuli_target_diamondsquares.svg	stimuli_distractor_diamondtriangles.svg	3	yes	57	0	2058
6.6.1	win	2022-12-16	13:25:30	13:28:09	155956	5e4c86f49b48ae0c4af25e8e	95593435	1	practice_slash	5	practice_slash	5	stimuli_distractor_trianglediamonds.svg	stimuli_target_diamondcircles.svg	12	yes	0	0	2000
6.6.1	win	2022-12-16	13:25:30	13:28:09	155956	5e4c86f49b48ae0c4af25e8e	95593435	1	practice_slash	5	advance_on_keypress_SLASH	6	stimuli_distractor_trianglediamonds.svg	stimuli_target_diamondcircles.svg	12	yes	57	0	3729
6.6.1	win	2022-12-16	13:25:30	13:28:15	161709	5e4c86f49b48ae0c4af25e8e	95593435	1	practice_slash	5	practice_slash	7	stimuli_distractor_diamondtriangles.svg	stimuli_distractor_trianglediamonds.svg	14	no	53	0	381
6.6.1	win	2022-12-16	13:25:30	13:28:15	161709	5e4c86f49b48ae0c4af25e8e	95593435	1	practice_slash	5	advance_on_keypress_SLASH	8	stimuli_distractor_diamondtriangles.svg	stimuli_distractor_trianglediamonds.svg	14	no	57	0	1018
6.6.1	win	2022-12-16	13:25:30	13:28:19	166051	5e4c86f49b48ae0c4af25e8e	95593435	1	practice_slash	5	practice_slash	9	stimuli_target_squarediamonds.svg	stimuli_distractor_diamondtriangles.svg	2	yes	53	1	1679
6.6.1	win	2022-12-16	13:25:30	13:28:19	166051	5e4c86f49b48ae0c4af25e8e	95593435	1	practice_slash	5	advance_on_keypress_SLASH	10	stimuli_target_squarediamonds.svg	stimuli_distractor_diamondtriangles.svg	2	yes	57	0	2181
6.6.1	win	2022-12-16	13:25:30	13:28:24	170551	5e4c86f49b48ae0c4af25e8e	95593435	1	practice_slash	5	practice_slash	11	stimuli_distractor_diamondtriangles.svg	stimuli_target_trianglecircles.svg	9	yes	53	1	671
6.6.1	win	2022-12-16	13:25:30	13:28:24	170551	5e4c86f49b48ae0c4af25e8e	95593435	1	practice_slash	5	advance_on_keypress_SLASH	12	stimuli_distractor_diamondtriangles.svg	stimuli_target_trianglecircles.svg	9	yes	57	0	1743
6.6.1	win	2022-12-16	13:25:30	13:28:28	174324	5e4c86f49b48ae0c4af25e8e	95593435	1	practice_slash	5	practice_slash	13	stimuli_distractor_diamondtriangles.svg	stimuli_target_diamondcircles.svg	8	yes	53	1	383
6.6.1	win	2022-12-16	13:25:30	13:28:28	174324	5e4c86f49b48ae0c4af25e8e	95593435	1	practice_slash	5	advance_on_keypress_SLASH	14	stimuli_distractor_diamondtriangles.svg	stimuli_target_diamondcircles.svg	8	yes	57	0	894
6.6.1	win	2022-12-16	13:25:30	13:28:31	177535	5e4c86f49b48ae0c4af25e8e	95593435	1	practice_slash	5	practice_slash	15	stimuli_target_squarediamonds.svg	stimuli_distractor_trianglediamonds.svg	5	yes	53	1	665
6.6.1	win	2022-12-16	13:25:30	13:28:31	177535	5e4c86f49b48ae0c4af25e8e	95593435	1	practice_slash	5	advance_on_keypress_SLASH	16	stimuli_target_squarediamonds.svg	stimuli_distractor_trianglediamonds.svg	5	yes	57	0	748
6.6.1	win	2022-12-16	13:25:30	13:28:34	180679	5e4c86f49b48ae0c4af25e8e	95593435	1	practice_slash	5	practice_slash	17	stimuli_distractor_trianglediamonds.svg	stimuli_target_circlediamonds.svg	10	yes	53	1	747
6.6.1	win	2022-12-16	13:25:30	13:28:34	180679	5e4c86f49b48ae0c4af25e8e	95593435	1	practice_slash	5	advance_on_keypress_SLASH	18	stimuli_distractor_trianglediamonds.svg	stimuli_target_circlediamonds.svg	10	yes	57	0	594
6.6.1	win	2022-12-16	13:25:30	13:28:37	183869	5e4c86f49b48ae0c4af25e8e	95593435	1	practice_slash	5	practice_slash	19	stimuli_distractor_diamondtriangles.svg	stimuli_target_circletriangles.svg	7	yes	53	1	942
6.6.1	win	2022-12-16	13:25:30	13:28:37	183869	5e4c86f49b48ae0c4af25e8e	95593435	1	practice_slash	5	advance_on_keypress_SLASH	20	stimuli_distractor_diamondtriangles.svg	stimuli_target_circletriangles.svg	7	yes	57	0	714
6.6.1	win	2022-12-16	13:25:30	13:28:40	187133	5e4c86f49b48ae0c4af25e8e	95593435	1	practice_slash	5	practice_slash	21	stimuli_target_circlediamonds.svg	stimuli_distractor_diamondtriangles.svg	1	yes	53	1	893
6.6.1	win	2022-12-16	13:25:30	13:28:40	187133	5e4c86f49b48ae0c4af25e8e	95593435	1	practice_slash	5	advance_on_keypress_SLASH	22	stimuli_target_circlediamonds.svg	stimuli_distractor_diamondtriangles.svg	1	yes	57	0	838
6.6.1	win	2022-12-16	13:25:30	13:28:45	191616	5e4c86f49b48ae0c4af25e8e	95593435	1	practice_slash	5	practice_slash	23	stimuli_distractor_trianglediamonds.svg	stimuli_distractor_trianglediamonds.svg	15	no	0	1	2000
6.6.1	win	2022-12-16	13:25:30	13:28:45	191616	5e4c86f49b48ae0c4af25e8e	95593435	1	practice_slash	5	advance_on_keypress_SLASH	24	stimuli_distractor_trianglediamonds.svg	stimuli_distractor_trianglediamonds.svg	15	no	57	0	961
6.6.1	win	2022-12-16	13:25:30	13:28:49	196227	5e4c86f49b48ae0c4af25e8e	95593435	1	practice_slash	5	practice_slash	25	stimuli_target_diamondsquares.svg	stimuli_distractor_trianglediamonds.svg	6	yes	0	0	2000
6.6.1	win	2022-12-16	13:25:30	13:28:49	196227	5e4c86f49b48ae0c4af25e8e	95593435	1	practice_slash	5	advance_on_keypress_SLASH	26	stimuli_target_diamondsquares.svg	stimuli_distractor_trianglediamonds.svg	6	yes	57	0	863
6.6.1	win	2022-12-16	13:25:30	13:28:53	199670	5e4c86f49b48ae0c4af25e8e	95593435	1	practice_slash	5	practice_slash	27	stimuli_distractor_trianglediamonds.svg	stimuli_target_squarediamonds.svg	11	yes	53	1	934
6.6.1	win	2022-12-16	13:25:30	13:28:53	199670	5e4c86f49b48ae0c4af25e8e	95593435	1	practice_slash	5	advance_on_keypress_SLASH	28	stimuli_distractor_trianglediamonds.svg	stimuli_target_squarediamonds.svg	11	yes	57	0	1241
6.6.1	win	2022-12-16	13:25:30	13:28:58	204546	5e4c86f49b48ae0c4af25e8e	95593435	1	practice_slash	5	practice_slash	29	stimuli_distractor_diamondtriangles.svg	stimuli_distractor_diamondtriangles.svg	13	no	0	1	2000
6.6.1	win	2022-12-16	13:25:30	13:28:58	204546	5e4c86f49b48ae0c4af25e8e	95593435	1	practice_slash	5	advance_on_keypress_SLASH	30	stimuli_distractor_diamondtriangles.svg	stimuli_distractor_diamondtriangles.svg	13	no	57	0	760
6.6.1	win	2022-12-16	13:25:30	13:29:01	207711	5e4c86f49b48ae0c4af25e8e	95593435	1	practice_slash	5	practice_slash	31	stimuli_target_circlediamonds.svg	stimuli_distractor_trianglediamonds.svg	4	yes	53	1	755
6.6.1	win	2022-12-16	13:25:30	13:29:01	207711	5e4c86f49b48ae0c4af25e8e	95593435	1	practice_slash	5	advance_on_keypress_SLASH	32	stimuli_target_circlediamonds.svg	stimuli_distractor_trianglediamonds.svg	4	yes	57	0	583
6.6.1	win	2022-12-16	13:25:30	13:29:12	218950	5e4c86f49b48ae0c4af25e8e	95593435	1	main_slash	7	main_slash	1	stimuli_distractor_trianglediamonds.svg	stimuli_target_trianglecircles.svg	25	yes	53	1	597
6.6.1	win	2022-12-16	13:25:30	13:29:12	218950	5e4c86f49b48ae0c4af25e8e	95593435	1	main_slash	7	advance_on_keypress_SLASH	2	stimuli_distractor_trianglediamonds.svg	stimuli_target_trianglecircles.svg	25	yes	57	0	1402
6.6.1	win	2022-12-16	13:25:30	13:29:15	222089	5e4c86f49b48ae0c4af25e8e	95593435	1	main_slash	7	main_slash	3	stimuli_target_diamondcircles.svg	stimuli_distractor_trianglediamonds.svg	19	yes	53	1	1091
6.6.1	win	2022-12-16	13:25:30	13:29:15	222089	5e4c86f49b48ae0c4af25e8e	95593435	1	main_slash	7	advance_on_keypress_SLASH	4	stimuli_target_diamondcircles.svg	stimuli_distractor_trianglediamonds.svg	19	yes	57	0	791
6.6.1	win	2022-12-16	13:25:30	13:29:18	224253	5e4c86f49b48ae0c4af25e8e	95593435	1	main_slash	7	main_slash	5	stimuli_distractor_trianglediamonds.svg	stimuli_target_squarediamonds.svg	12	yes	53	1	741
6.6.1	win	2022-12-16	13:25:30	13:29:18	224253	5e4c86f49b48ae0c4af25e8e	95593435	1	main_slash	7	advance_on_keypress_SLASH	6	stimuli_distractor_trianglediamonds.svg	stimuli_target_squarediamonds.svg	12	yes	57	0	849
6.6.1	win	2022-12-16	13:25:30	13:29:20	226563	5e4c86f49b48ae0c4af25e8e	95593435	1	main_slash	7	main_slash	7	stimuli_distractor_diamondtriangles.svg	stimuli_target_diamondcircles.svg	31	yes	53	1	822
6.6.1	win	2022-12-16	13:25:30	13:29:20	226563	5e4c86f49b48ae0c4af25e8e	95593435	1	main_slash	7	advance_on_keypress_SLASH	8	stimuli_distractor_diamondtriangles.svg	stimuli_target_diamondcircles.svg	31	yes	57	0	860
6.6.1	win	2022-12-16	13:25:30	13:29:23	229507	5e4c86f49b48ae0c4af25e8e	95593435	1	main_slash	7	main_slash	9	stimuli_distractor_diamondtriangles.svg	stimuli_target_diamondsquares.svg	32	yes	53	1	1452
6.6.1	win	2022-12-16	13:25:30	13:29:23	229507	5e4c86f49b48ae0c4af25e8e	95593435	1	main_slash	7	advance_on_keypress_SLASH	10	stimuli_distractor_diamondtriangles.svg	stimuli_target_diamondsquares.svg	32	yes	57	0	726
6.6.1	win	2022-12-16	13:25:30	13:29:26	232867	5e4c86f49b48ae0c4af25e8e	95593435	1	main_slash	7	main_slash	11	stimuli_target_diamondsquares.svg	stimuli_distractor_diamondtriangles.svg	24	yes	0	0	2000
6.6.1	win	2022-12-16	13:25:30	13:29:26	232867	5e4c86f49b48ae0c4af25e8e	95593435	1	main_slash	7	advance_on_keypress_SLASH	12	stimuli_target_diamondsquares.svg	stimuli_distractor_diamondtriangles.svg	24	yes	57	0	1109
6.6.1	win	2022-12-16	13:25:30	13:29:29	235506	5e4c86f49b48ae0c4af25e8e	95593435	1	main_slash	7	main_slash	13	stimuli_distractor_trianglediamonds.svg	stimuli_target_diamondcircles.svg	27	yes	53	1	895
6.6.1	win	2022-12-16	13:25:30	13:29:29	235506	5e4c86f49b48ae0c4af25e8e	95593435	1	main_slash	7	advance_on_keypress_SLASH	14	stimuli_distractor_trianglediamonds.svg	stimuli_target_diamondcircles.svg	27	yes	57	0	1108
6.6.1	win	2022-12-16	13:25:30	13:29:33	239256	5e4c86f49b48ae0c4af25e8e	95593435	1	main_slash	7	main_slash	15	stimuli_distractor_diamondtriangles.svg	stimuli_distractor_trianglediamonds.svg	38	no	0	1	2000
6.6.1	win	2022-12-16	13:25:30	13:29:33	239256	5e4c86f49b48ae0c4af25e8e	95593435	1	main_slash	7	advance_on_keypress_SLASH	16	stimuli_distractor_diamondtriangles.svg	stimuli_distractor_trianglediamonds.svg	38	no	57	0	958
6.6.1	win	2022-12-16	13:25:30	13:29:35	241636	5e4c86f49b48ae0c4af25e8e	95593435	1	main_slash	7	main_slash	17	stimuli_target_circletriangles.svg	stimuli_distractor_diamondtriangles.svg	5	yes	53	1	785
6.6.1	win	2022-12-16	13:25:30	13:29:35	241636	5e4c86f49b48ae0c4af25e8e	95593435	1	main_slash	7	advance_on_keypress_SLASH	18	stimuli_target_circletriangles.svg	stimuli_distractor_diamondtriangles.svg	5	yes	57	0	820
6.6.1	win	2022-12-16	13:25:30	13:29:38	244239	5e4c86f49b48ae0c4af25e8e	95593435	1	main_slash	7	main_slash	19	stimuli_distractor_trianglediamonds.svg	stimuli_target_trianglesquares.svg	26	yes	53	1	1142
6.6.1	win	2022-12-16	13:25:30	13:29:38	244239	5e4c86f49b48ae0c4af25e8e	95593435	1	main_slash	7	advance_on_keypress_SLASH	20	stimuli_distractor_trianglediamonds.svg	stimuli_target_trianglesquares.svg	26	yes	57	0	1302
6.6.1	win	2022-12-16	13:25:30	13:29:41	247278	5e4c86f49b48ae0c4af25e8e	95593435	1	main_slash	7	main_slash	21	stimuli_distractor_trianglediamonds.svg	stimuli_target_diamondsquares.svg	28	yes	53	1	1102
6.6.1	win	2022-12-16	13:25:30	13:29:41	247278	5e4c86f49b48ae0c4af25e8e	95593435	1	main_slash	7	advance_on_keypress_SLASH	22	stimuli_distractor_trianglediamonds.svg	stimuli_target_diamondsquares.svg	28	yes	57	0	859
6.6.1	win	2022-12-16	13:25:30	13:29:43	249918	5e4c86f49b48ae0c4af25e8e	95593435	1	main_slash	7	main_slash	23	stimuli_target_trianglesquares.svg	stimuli_distractor_trianglediamonds.svg	18	yes	53	1	1145
6.6.1	win	2022-12-16	13:25:30	13:29:43	249918	5e4c86f49b48ae0c4af25e8e	95593435	1	main_slash	7	advance_on_keypress_SLASH	24	stimuli_target_trianglesquares.svg	stimuli_distractor_trianglediamonds.svg	18	yes	57	0	760
6.6.1	win	2022-12-16	13:25:30	13:29:46	252492	5e4c86f49b48ae0c4af25e8e	95593435	1	main_slash	7	main_slash	25	stimuli_target_circlediamonds.svg	stimuli_distractor_diamondtriangles.svg	6	yes	53	1	1175
6.6.1	win	2022-12-16	13:25:30	13:29:46	252492	5e4c86f49b48ae0c4af25e8e	95593435	1	main_slash	7	advance_on_keypress_SLASH	26	stimuli_target_circlediamonds.svg	stimuli_distractor_diamondtriangles.svg	6	yes	57	0	1018
6.6.1	win	2022-12-16	13:25:30	13:29:49	256147	5e4c86f49b48ae0c4af25e8e	95593435	1	main_slash	7	main_slash	27	stimuli_distractor_diamondtriangles.svg	stimuli_distractor_diamondtriangles.svg	40	no	0	1	2000
6.6.1	win	2022-12-16	13:25:30	13:29:49	256147	5e4c86f49b48ae0c4af25e8e	95593435	1	main_slash	7	advance_on_keypress_SLASH	28	stimuli_distractor_diamondtriangles.svg	stimuli_distractor_diamondtriangles.svg	40	no	57	0	641
6.6.1	win	2022-12-16	13:25:30	13:29:52	258229	5e4c86f49b48ae0c4af25e8e	95593435	1	main_slash	7	main_slash	29	stimuli_target_circlediamonds.svg	stimuli_distractor_trianglediamonds.svg	2	yes	53	1	803
6.6.1	win	2022-12-16	13:25:30	13:29:52	258229	5e4c86f49b48ae0c4af25e8e	95593435	1	main_slash	7	advance_on_keypress_SLASH	30	stimuli_target_circlediamonds.svg	stimuli_distractor_trianglediamonds.svg	2	yes	57	0	895
6.6.1	win	2022-12-16	13:25:30	13:29:55	261755	5e4c86f49b48ae0c4af25e8e	95593435	1	main_slash	7	main_slash	31	stimuli_distractor_diamondtriangles.svg	stimuli_distractor_trianglediamonds.svg	37	no	0	1	2000
6.6.1	win	2022-12-16	13:25:30	13:29:55	261755	5e4c86f49b48ae0c4af25e8e	95593435	1	main_slash	7	advance_on_keypress_SLASH	32	stimuli_distractor_diamondtriangles.svg	stimuli_distractor_trianglediamonds.svg	37	no	57	0	664
6.6.1	win	2022-12-16	13:25:30	13:29:57	263927	5e4c86f49b48ae0c4af25e8e	95593435	1	main_slash	7	main_slash	33	stimuli_target_trianglesquares.svg	stimuli_distractor_diamondtriangles.svg	22	yes	53	1	861
6.6.1	win	2022-12-16	13:25:30	13:29:57	263927	5e4c86f49b48ae0c4af25e8e	95593435	1	main_slash	7	advance_on_keypress_SLASH	34	stimuli_target_trianglesquares.svg	stimuli_distractor_diamondtriangles.svg	22	yes	57	0	1037
6.6.1	win	2022-12-16	13:25:30	13:30:00	266608	5e4c86f49b48ae0c4af25e8e	95593435	1	main_slash	7	main_slash	35	stimuli_target_squarediamonds.svg	stimuli_distractor_trianglediamonds.svg	4	yes	53	1	995
6.6.1	win	2022-12-16	13:25:30	13:30:00	266608	5e4c86f49b48ae0c4af25e8e	95593435	1	main_slash	7	advance_on_keypress_SLASH	36	stimuli_target_squarediamonds.svg	stimuli_distractor_trianglediamonds.svg	4	yes	57	0	749
6.6.1	win	2022-12-16	13:25:30	13:30:02	269027	5e4c86f49b48ae0c4af25e8e	95593435	1	main_slash	7	main_slash	37	stimuli_target_diamondcircles.svg	stimuli_distractor_diamondtriangles.svg	23	yes	53	1	1018
6.6.1	win	2022-12-16	13:25:30	13:30:02	269027	5e4c86f49b48ae0c4af25e8e	95593435	1	main_slash	7	advance_on_keypress_SLASH	38	stimuli_target_diamondcircles.svg	stimuli_distractor_diamondtriangles.svg	23	yes	57	0	1039
6.6.1	win	2022-12-16	13:25:30	13:30:05	271830	5e4c86f49b48ae0c4af25e8e	95593435	1	main_slash	7	main_slash	39	stimuli_distractor_trianglediamonds.svg	stimuli_target_circletriangles.svg	9	yes	53	1	1126
6.6.1	win	2022-12-16	13:25:30	13:30:05	271830	5e4c86f49b48ae0c4af25e8e	95593435	1	main_slash	7	advance_on_keypress_SLASH	40	stimuli_distractor_trianglediamonds.svg	stimuli_target_circletriangles.svg	9	yes	57	0	1066
6.6.1	win	2022-12-16	13:25:30	13:30:08	274421	5e4c86f49b48ae0c4af25e8e	95593435	1	main_slash	7	main_slash	41	stimuli_distractor_trianglediamonds.svg	stimuli_target_squaretriangles.svg	11	yes	53	1	887
6.6.1	win	2022-12-16	13:25:30	13:30:08	274421	5e4c86f49b48ae0c4af25e8e	95593435	1	main_slash	7	advance_on_keypress_SLASH	42	stimuli_distractor_trianglediamonds.svg	stimuli_target_squaretriangles.svg	11	yes	57	0	819
6.6.1	win	2022-12-16	13:25:30	13:30:11	277880	5e4c86f49b48ae0c4af25e8e	95593435	1	main_slash	7	main_slash	43	stimuli_distractor_trianglediamonds.svg	stimuli_distractor_trianglediamonds.svg	34	no	0	1	2000
6.6.1	win	2022-12-16	13:25:30	13:30:11	277880	5e4c86f49b48ae0c4af25e8e	95593435	1	main_slash	7	advance_on_keypress_SLASH	44	stimuli_distractor_trianglediamonds.svg	stimuli_distractor_trianglediamonds.svg	34	no	57	0	690
6.6.1	win	2022-12-16	13:25:30	13:30:13	280134	5e4c86f49b48ae0c4af25e8e	95593435	1	main_slash	7	main_slash	45	stimuli_target_squaretriangles.svg	stimuli_distractor_diamondtriangles.svg	7	yes	53	1	926
6.6.1	win	2022-12-16	13:25:30	13:30:13	280134	5e4c86f49b48ae0c4af25e8e	95593435	1	main_slash	7	advance_on_keypress_SLASH	46	stimuli_target_squaretriangles.svg	stimuli_distractor_diamondtriangles.svg	7	yes	57	0	845
6.6.1	win	2022-12-16	13:25:30	13:30:16	282774	5e4c86f49b48ae0c4af25e8e	95593435	1	main_slash	7	main_slash	47	stimuli_distractor_diamondtriangles.svg	stimuli_target_trianglesquares.svg	30	yes	53	1	1152
6.6.1	win	2022-12-16	13:25:30	13:30:16	282774	5e4c86f49b48ae0c4af25e8e	95593435	1	main_slash	7	advance_on_keypress_SLASH	48	stimuli_distractor_diamondtriangles.svg	stimuli_target_trianglesquares.svg	30	yes	57	0	988
6.6.1	win	2022-12-16	13:25:30	13:30:20	286400	5e4c86f49b48ae0c4af25e8e	95593435	1	main_slash	7	main_slash	49	stimuli_target_squarediamonds.svg	stimuli_distractor_diamondtriangles.svg	8	yes	0	0	2000
6.6.1	win	2022-12-16	13:25:30	13:30:20	286400	5e4c86f49b48ae0c4af25e8e	95593435	1	main_slash	7	advance_on_keypress_SLASH	50	stimuli_target_squarediamonds.svg	stimuli_distractor_diamondtriangles.svg	8	yes	57	0	1151
6.6.1	win	2022-12-16	13:25:30	13:30:22	289021	5e4c86f49b48ae0c4af25e8e	95593435	1	main_slash	7	main_slash	51	stimuli_target_trianglecircles.svg	stimuli_distractor_trianglediamonds.svg	17	yes	53	1	827
6.6.1	win	2022-12-16	13:25:30	13:30:22	289021	5e4c86f49b48ae0c4af25e8e	95593435	1	main_slash	7	advance_on_keypress_SLASH	52	stimuli_target_trianglecircles.svg	stimuli_distractor_trianglediamonds.svg	17	yes	57	0	939
6.6.1	win	2022-12-16	13:25:30	13:30:25	291417	5e4c86f49b48ae0c4af25e8e	95593435	1	main_slash	7	main_slash	53	stimuli_distractor_diamondtriangles.svg	stimuli_target_circlediamonds.svg	14	yes	53	1	826
6.6.1	win	2022-12-16	13:25:30	13:30:25	291417	5e4c86f49b48ae0c4af25e8e	95593435	1	main_slash	7	advance_on_keypress_SLASH	54	stimuli_distractor_diamondtriangles.svg	stimuli_target_circlediamonds.svg	14	yes	57	0	767
6.6.1	win	2022-12-16	13:25:30	13:30:27	293735	5e4c86f49b48ae0c4af25e8e	95593435	1	main_slash	7	main_slash	55	stimuli_distractor_diamondtriangles.svg	stimuli_target_trianglecircles.svg	29	yes	53	1	914
6.6.1	win	2022-12-16	13:25:30	13:30:27	293735	5e4c86f49b48ae0c4af25e8e	95593435	1	main_slash	7	advance_on_keypress_SLASH	56	stimuli_distractor_diamondtriangles.svg	stimuli_target_trianglecircles.svg	29	yes	57	0	702
6.6.1	win	2022-12-16	13:25:30	13:30:29	295964	5e4c86f49b48ae0c4af25e8e	95593435	1	main_slash	7	main_slash	57	stimuli_distractor_diamondtriangles.svg	stimuli_target_circletriangles.svg	13	yes	53	1	880
6.6.1	win	2022-12-16	13:25:30	13:30:29	295964	5e4c86f49b48ae0c4af25e8e	95593435	1	main_slash	7	advance_on_keypress_SLASH	58	stimuli_distractor_diamondtriangles.svg	stimuli_target_circletriangles.svg	13	yes	57	0	807
6.6.1	win	2022-12-16	13:25:30	13:30:33	299414	5e4c86f49b48ae0c4af25e8e	95593435	1	main_slash	7	main_slash	59	stimuli_target_diamondsquares.svg	stimuli_distractor_trianglediamonds.svg	20	yes	0	0	2000
6.6.1	win	2022-12-16	13:25:30	13:30:33	299414	5e4c86f49b48ae0c4af25e8e	95593435	1	main_slash	7	advance_on_keypress_SLASH	60	stimuli_target_diamondsquares.svg	stimuli_distractor_trianglediamonds.svg	20	yes	57	0	392
6.6.1	win	2022-12-16	13:25:30	13:30:35	301441	5e4c86f49b48ae0c4af25e8e	95593435	1	main_slash	7	main_slash	61	stimuli_distractor_trianglediamonds.svg	stimuli_target_circlediamonds.svg	10	yes	53	1	998
6.6.1	win	2022-12-16	13:25:30	13:30:35	301441	5e4c86f49b48ae0c4af25e8e	95593435	1	main_slash	7	advance_on_keypress_SLASH	62	stimuli_distractor_trianglediamonds.svg	stimuli_target_circlediamonds.svg	10	yes	57	0	2114
6.6.1	win	2022-12-16	13:25:30	13:30:39	306203	5e4c86f49b48ae0c4af25e8e	95593435	1	main_slash	7	main_slash	63	stimuli_distractor_diamondtriangles.svg	stimuli_distractor_diamondtriangles.svg	39	no	0	1	2000
6.6.1	win	2022-12-16	13:25:30	13:30:39	306203	5e4c86f49b48ae0c4af25e8e	95593435	1	main_slash	7	advance_on_keypress_SLASH	64	stimuli_distractor_diamondtriangles.svg	stimuli_distractor_diamondtriangles.svg	39	no	57	0	593
6.6.1	win	2022-12-16	13:25:30	13:30:42	308382	5e4c86f49b48ae0c4af25e8e	95593435	1	main_slash	7	main_slash	65	stimuli_target_circletriangles.svg	stimuli_distractor_trianglediamonds.svg	1	yes	53	1	950
6.6.1	win	2022-12-16	13:25:30	13:30:42	308382	5e4c86f49b48ae0c4af25e8e	95593435	1	main_slash	7	advance_on_keypress_SLASH	66	stimuli_target_circletriangles.svg	stimuli_distractor_trianglediamonds.svg	1	yes	57	0	884
6.6.1	win	2022-12-16	13:25:30	13:30:45	311911	5e4c86f49b48ae0c4af25e8e	95593435	1	main_slash	7	main_slash	67	stimuli_distractor_trianglediamonds.svg	stimuli_distractor_diamondtriangles.svg	35	no	0	1	2000
6.6.1	win	2022-12-16	13:25:30	13:30:45	311911	5e4c86f49b48ae0c4af25e8e	95593435	1	main_slash	7	advance_on_keypress_SLASH	68	stimuli_distractor_trianglediamonds.svg	stimuli_distractor_diamondtriangles.svg	35	no	57	0	891
6.6.1	win	2022-12-16	13:25:30	13:30:48	314475	5e4c86f49b48ae0c4af25e8e	95593435	1	main_slash	7	main_slash	69	stimuli_target_squaretriangles.svg	stimuli_distractor_trianglediamonds.svg	3	yes	53	1	1036
6.6.1	win	2022-12-16	13:25:30	13:30:48	314475	5e4c86f49b48ae0c4af25e8e	95593435	1	main_slash	7	advance_on_keypress_SLASH	70	stimuli_target_squaretriangles.svg	stimuli_distractor_trianglediamonds.svg	3	yes	57	0	906
6.6.1	win	2022-12-16	13:25:30	13:30:51	318018	5e4c86f49b48ae0c4af25e8e	95593435	1	main_slash	7	main_slash	71	stimuli_distractor_trianglediamonds.svg	stimuli_distractor_diamondtriangles.svg	36	no	0	1	2000
6.6.1	win	2022-12-16	13:25:30	13:30:51	318018	5e4c86f49b48ae0c4af25e8e	95593435	1	main_slash	7	advance_on_keypress_SLASH	72	stimuli_distractor_trianglediamonds.svg	stimuli_distractor_diamondtriangles.svg	36	no	57	0	791
6.6.1	win	2022-12-16	13:25:30	13:30:54	320381	5e4c86f49b48ae0c4af25e8e	95593435	1	main_slash	7	main_slash	73	stimuli_distractor_diamondtriangles.svg	stimuli_target_squarediamonds.svg	16	yes	53	1	936
6.6.1	win	2022-12-16	13:25:30	13:30:54	320381	5e4c86f49b48ae0c4af25e8e	95593435	1	main_slash	7	advance_on_keypress_SLASH	74	stimuli_distractor_diamondtriangles.svg	stimuli_target_squarediamonds.svg	16	yes	57	0	848
6.6.1	win	2022-12-16	13:25:30	13:30:56	322957	5e4c86f49b48ae0c4af25e8e	95593435	1	main_slash	7	main_slash	75	stimuli_distractor_diamondtriangles.svg	stimuli_target_squaretriangles.svg	15	yes	53	1	1082
6.6.1	win	2022-12-16	13:25:30	13:30:56	322957	5e4c86f49b48ae0c4af25e8e	95593435	1	main_slash	7	advance_on_keypress_SLASH	76	stimuli_distractor_diamondtriangles.svg	stimuli_target_squaretriangles.svg	15	yes	57	0	701
6.6.1	win	2022-12-16	13:25:30	13:30:59	325400	5e4c86f49b48ae0c4af25e8e	95593435	1	main_slash	7	main_slash	77	stimuli_target_trianglecircles.svg	stimuli_distractor_diamondtriangles.svg	21	yes	53	1	1094
6.6.1	win	2022-12-16	13:25:30	13:30:59	325400	5e4c86f49b48ae0c4af25e8e	95593435	1	main_slash	7	advance_on_keypress_SLASH	78	stimuli_target_trianglecircles.svg	stimuli_distractor_diamondtriangles.svg	21	yes	57	0	622
6.6.1	win	2022-12-16	13:25:30	13:31:02	328668	5e4c86f49b48ae0c4af25e8e	95593435	1	main_slash	7	main_slash	79	stimuli_distractor_trianglediamonds.svg	stimuli_distractor_trianglediamonds.svg	33	no	0	1	2000
6.6.1	win	2022-12-16	13:25:30	13:31:02	328668	5e4c86f49b48ae0c4af25e8e	95593435	1	main_slash	7	advance_on_keypress_SLASH	80	stimuli_distractor_trianglediamonds.svg	stimuli_distractor_trianglediamonds.svg	33	no	57	0	618
6.6.1	win	2022-12-16	13:25:30	13:31:04	330727	5e4c86f49b48ae0c4af25e8e	95593435	1	main_slash	7	main_slash	81	stimuli_distractor_trianglediamonds.svg	stimuli_target_circletriangles.svg	9	yes	53	1	798
6.6.1	win	2022-12-16	13:25:30	13:31:04	330727	5e4c86f49b48ae0c4af25e8e	95593435	1	main_slash	7	advance_on_keypress_SLASH	82	stimuli_distractor_trianglediamonds.svg	stimuli_target_circletriangles.svg	9	yes	57	0	648
6.6.1	win	2022-12-16	13:25:30	13:31:07	334026	5e4c86f49b48ae0c4af25e8e	95593435	1	main_slash	7	main_slash	83	stimuli_distractor_diamondtriangles.svg	stimuli_distractor_diamondtriangles.svg	39	no	0	1	2000
6.6.1	win	2022-12-16	13:25:30	13:31:07	334026	5e4c86f49b48ae0c4af25e8e	95593435	1	main_slash	7	advance_on_keypress_SLASH	84	stimuli_distractor_diamondtriangles.svg	stimuli_distractor_diamondtriangles.svg	39	no	57	0	565
6.6.1	win	2022-12-16	13:25:30	13:31:10	336404	5e4c86f49b48ae0c4af25e8e	95593435	1	main_slash	7	main_slash	85	stimuli_target_diamondcircles.svg	stimuli_distractor_trianglediamonds.svg	19	yes	53	1	1165
6.6.1	win	2022-12-16	13:25:30	13:31:10	336404	5e4c86f49b48ae0c4af25e8e	95593435	1	main_slash	7	advance_on_keypress_SLASH	86	stimuli_target_diamondcircles.svg	stimuli_distractor_trianglediamonds.svg	19	yes	57	0	634
6.6.1	win	2022-12-16	13:25:30	13:31:12	338766	5e4c86f49b48ae0c4af25e8e	95593435	1	main_slash	7	main_slash	87	stimuli_target_circletriangles.svg	stimuli_distractor_diamondtriangles.svg	5	yes	53	1	1082
6.6.1	win	2022-12-16	13:25:30	13:31:12	338766	5e4c86f49b48ae0c4af25e8e	95593435	1	main_slash	7	advance_on_keypress_SLASH	88	stimuli_target_circletriangles.svg	stimuli_distractor_diamondtriangles.svg	5	yes	57	0	823
6.6.1	win	2022-12-16	13:25:30	13:31:15	341409	5e4c86f49b48ae0c4af25e8e	95593435	1	main_slash	7	main_slash	89	stimuli_target_squaretriangles.svg	stimuli_distractor_diamondtriangles.svg	7	yes	53	1	1179
6.6.1	win	2022-12-16	13:25:30	13:31:15	341409	5e4c86f49b48ae0c4af25e8e	95593435	1	main_slash	7	advance_on_keypress_SLASH	90	stimuli_target_squaretriangles.svg	stimuli_distractor_diamondtriangles.svg	7	yes	57	0	825
6.6.1	win	2022-12-16	13:25:30	13:31:17	343874	5e4c86f49b48ae0c4af25e8e	95593435	1	main_slash	7	main_slash	91	stimuli_distractor_diamondtriangles.svg	stimuli_target_trianglecircles.svg	29	yes	53	1	998
6.6.1	win	2022-12-16	13:25:30	13:31:17	343874	5e4c86f49b48ae0c4af25e8e	95593435	1	main_slash	7	advance_on_keypress_SLASH	92	stimuli_distractor_diamondtriangles.svg	stimuli_target_trianglecircles.svg	29	yes	57	0	741
6.6.1	win	2022-12-16	13:25:30	13:31:20	346380	5e4c86f49b48ae0c4af25e8e	95593435	1	main_slash	7	main_slash	93	stimuli_target_trianglesquares.svg	stimuli_distractor_trianglediamonds.svg	18	yes	53	1	1125
6.6.1	win	2022-12-16	13:25:30	13:31:20	346380	5e4c86f49b48ae0c4af25e8e	95593435	1	main_slash	7	advance_on_keypress_SLASH	94	stimuli_target_trianglesquares.svg	stimuli_distractor_trianglediamonds.svg	18	yes	57	0	650
6.6.1	win	2022-12-16	13:25:30	13:31:22	348631	5e4c86f49b48ae0c4af25e8e	95593435	1	main_slash	7	main_slash	95	stimuli_distractor_diamondtriangles.svg	stimuli_target_diamondsquares.svg	32	yes	53	1	963
6.6.1	win	2022-12-16	13:25:30	13:31:22	348631	5e4c86f49b48ae0c4af25e8e	95593435	1	main_slash	7	advance_on_keypress_SLASH	96	stimuli_distractor_diamondtriangles.svg	stimuli_target_diamondsquares.svg	32	yes	57	0	762
6.6.1	win	2022-12-16	13:25:30	13:31:24	350931	5e4c86f49b48ae0c4af25e8e	95593435	1	main_slash	7	main_slash	97	stimuli_distractor_diamondtriangles.svg	stimuli_target_squarediamonds.svg	16	yes	53	1	899
6.6.1	win	2022-12-16	13:25:30	13:31:24	350931	5e4c86f49b48ae0c4af25e8e	95593435	1	main_slash	7	advance_on_keypress_SLASH	98	stimuli_distractor_diamondtriangles.svg	stimuli_target_squarediamonds.svg	16	yes	57	0	620
6.6.1	win	2022-12-16	13:25:30	13:31:27	353273	5e4c86f49b48ae0c4af25e8e	95593435	1	main_slash	7	main_slash	99	stimuli_distractor_trianglediamonds.svg	stimuli_target_squarediamonds.svg	12	yes	53	1	1077
6.6.1	win	2022-12-16	13:25:30	13:31:27	353273	5e4c86f49b48ae0c4af25e8e	95593435	1	main_slash	7	advance_on_keypress_SLASH	100	stimuli_distractor_trianglediamonds.svg	stimuli_target_squarediamonds.svg	12	yes	57	0	510
6.6.1	win	2022-12-16	13:25:30	13:31:29	355351	5e4c86f49b48ae0c4af25e8e	95593435	1	main_slash	7	main_slash	101	stimuli_target_squaretriangles.svg	stimuli_distractor_trianglediamonds.svg	3	yes	53	1	925
6.6.1	win	2022-12-16	13:25:30	13:31:29	355351	5e4c86f49b48ae0c4af25e8e	95593435	1	main_slash	7	advance_on_keypress_SLASH	102	stimuli_target_squaretriangles.svg	stimuli_distractor_trianglediamonds.svg	3	yes	57	0	1285
6.6.1	win	2022-12-16	13:25:30	13:31:31	357999	5e4c86f49b48ae0c4af25e8e	95593435	1	main_slash	7	main_slash	103	stimuli_distractor_diamondtriangles.svg	stimuli_target_squaretriangles.svg	15	yes	53	1	728
6.6.1	win	2022-12-16	13:25:30	13:31:31	357999	5e4c86f49b48ae0c4af25e8e	95593435	1	main_slash	7	advance_on_keypress_SLASH	104	stimuli_distractor_diamondtriangles.svg	stimuli_target_squaretriangles.svg	15	yes	57	0	880
6.6.1	win	2022-12-16	13:25:30	13:31:35	361534	5e4c86f49b48ae0c4af25e8e	95593435	1	main_slash	7	main_slash	105	stimuli_distractor_diamondtriangles.svg	stimuli_distractor_trianglediamonds.svg	38	no	0	1	2000
6.6.1	win	2022-12-16	13:25:30	13:31:35	361534	5e4c86f49b48ae0c4af25e8e	95593435	1	main_slash	7	advance_on_keypress_SLASH	106	stimuli_distractor_diamondtriangles.svg	stimuli_distractor_trianglediamonds.svg	38	no	57	0	728
6.6.1	win	2022-12-16	13:25:30	13:31:37	364101	5e4c86f49b48ae0c4af25e8e	95593435	1	main_slash	7	main_slash	107	stimuli_target_diamondsquares.svg	stimuli_distractor_diamondtriangles.svg	24	yes	53	1	1205
6.6.1	win	2022-12-16	13:25:30	13:31:37	364101	5e4c86f49b48ae0c4af25e8e	95593435	1	main_slash	7	advance_on_keypress_SLASH	108	stimuli_target_diamondsquares.svg	stimuli_distractor_diamondtriangles.svg	24	yes	57	0	562
6.6.1	win	2022-12-16	13:25:30	13:31:41	367309	5e4c86f49b48ae0c4af25e8e	95593435	1	main_slash	7	main_slash	109	stimuli_distractor_trianglediamonds.svg	stimuli_distractor_trianglediamonds.svg	33	no	0	1	2000
6.6.1	win	2022-12-16	13:25:30	13:31:41	367309	5e4c86f49b48ae0c4af25e8e	95593435	1	main_slash	7	advance_on_keypress_SLASH	110	stimuli_distractor_trianglediamonds.svg	stimuli_distractor_trianglediamonds.svg	33	no	57	0	524
6.6.1	win	2022-12-16	13:25:30	13:31:43	369254	5e4c86f49b48ae0c4af25e8e	95593435	1	main_slash	7	main_slash	111	stimuli_distractor_trianglediamonds.svg	stimuli_target_circlediamonds.svg	10	yes	53	1	783
6.6.1	win	2022-12-16	13:25:30	13:31:43	369254	5e4c86f49b48ae0c4af25e8e	95593435	1	main_slash	7	advance_on_keypress_SLASH	112	stimuli_distractor_trianglediamonds.svg	stimuli_target_circlediamonds.svg	10	yes	57	0	641
6.6.1	win	2022-12-16	13:25:30	13:31:45	371602	5e4c86f49b48ae0c4af25e8e	95593435	1	main_slash	7	main_slash	113	stimuli_target_trianglesquares.svg	stimuli_distractor_diamondtriangles.svg	22	yes	53	1	1068
6.6.1	win	2022-12-16	13:25:30	13:31:45	371602	5e4c86f49b48ae0c4af25e8e	95593435	1	main_slash	7	advance_on_keypress_SLASH	114	stimuli_target_trianglesquares.svg	stimuli_distractor_diamondtriangles.svg	22	yes	57	0	573
6.6.1	win	2022-12-16	13:25:30	13:31:47	373799	5e4c86f49b48ae0c4af25e8e	95593435	1	main_slash	7	main_slash	115	stimuli_target_diamondcircles.svg	stimuli_distractor_diamondtriangles.svg	23	yes	53	1	985
6.6.1	win	2022-12-16	13:25:30	13:31:47	373799	5e4c86f49b48ae0c4af25e8e	95593435	1	main_slash	7	advance_on_keypress_SLASH	116	stimuli_target_diamondcircles.svg	stimuli_distractor_diamondtriangles.svg	23	yes	57	0	685
6.6.1	win	2022-12-16	13:25:30	13:31:49	376133	5e4c86f49b48ae0c4af25e8e	95593435	1	main_slash	7	main_slash	117	stimuli_distractor_trianglediamonds.svg	stimuli_target_trianglecircles.svg	25	yes	53	1	1007
6.6.1	win	2022-12-16	13:25:30	13:31:49	376133	5e4c86f49b48ae0c4af25e8e	95593435	1	main_slash	7	advance_on_keypress_SLASH	118	stimuli_distractor_trianglediamonds.svg	stimuli_target_trianglecircles.svg	25	yes	57	0	662
6.6.1	win	2022-12-16	13:25:30	13:31:53	379423	5e4c86f49b48ae0c4af25e8e	95593435	1	main_slash	7	main_slash	119	stimuli_distractor_trianglediamonds.svg	stimuli_distractor_trianglediamonds.svg	34	no	0	1	2000
6.6.1	win	2022-12-16	13:25:30	13:31:53	379423	5e4c86f49b48ae0c4af25e8e	95593435	1	main_slash	7	advance_on_keypress_SLASH	120	stimuli_distractor_trianglediamonds.svg	stimuli_distractor_trianglediamonds.svg	34	no	57	0	665
6.6.1	win	2022-12-16	13:25:30	13:31:55	381377	5e4c86f49b48ae0c4af25e8e	95593435	1	main_slash	7	main_slash	121	stimuli_distractor_diamondtriangles.svg	stimuli_target_circlediamonds.svg	14	yes	53	1	642
6.6.1	win	2022-12-16	13:25:30	13:31:55	381377	5e4c86f49b48ae0c4af25e8e	95593435	1	main_slash	7	advance_on_keypress_SLASH	122	stimuli_distractor_diamondtriangles.svg	stimuli_target_circlediamonds.svg	14	yes	57	0	756
6.6.1	win	2022-12-16	13:25:30	13:31:58	384765	5e4c86f49b48ae0c4af25e8e	95593435	1	main_slash	7	main_slash	123	stimuli_distractor_trianglediamonds.svg	stimuli_distractor_diamondtriangles.svg	36	no	0	1	2000
6.6.1	win	2022-12-16	13:25:30	13:31:58	384765	5e4c86f49b48ae0c4af25e8e	95593435	1	main_slash	7	advance_on_keypress_SLASH	124	stimuli_distractor_trianglediamonds.svg	stimuli_distractor_diamondtriangles.svg	36	no	57	0	600
6.6.1	win	2022-12-16	13:25:30	13:32:01	388010	5e4c86f49b48ae0c4af25e8e	95593435	1	main_slash	7	main_slash	125	stimuli_distractor_trianglediamonds.svg	stimuli_target_diamondsquares.svg	28	yes	0	0	2000
6.6.1	win	2022-12-16	13:25:30	13:32:01	388010	5e4c86f49b48ae0c4af25e8e	95593435	1	main_slash	7	advance_on_keypress_SLASH	126	stimuli_distractor_trianglediamonds.svg	stimuli_target_diamondsquares.svg	28	yes	57	0	408
6.6.1	win	2022-12-16	13:25:30	13:32:03	390031	5e4c86f49b48ae0c4af25e8e	95593435	1	main_slash	7	main_slash	127	stimuli_target_squarediamonds.svg	stimuli_distractor_trianglediamonds.svg	4	yes	53	1	977
6.6.1	win	2022-12-16	13:25:30	13:32:03	390031	5e4c86f49b48ae0c4af25e8e	95593435	1	main_slash	7	advance_on_keypress_SLASH	128	stimuli_target_squarediamonds.svg	stimuli_distractor_trianglediamonds.svg	4	yes	57	0	727
6.6.1	win	2022-12-16	13:25:30	13:32:06	392337	5e4c86f49b48ae0c4af25e8e	95593435	1	main_slash	7	main_slash	129	stimuli_distractor_trianglediamonds.svg	stimuli_target_trianglesquares.svg	26	yes	53	1	953
6.6.1	win	2022-12-16	13:25:30	13:32:06	392337	5e4c86f49b48ae0c4af25e8e	95593435	1	main_slash	7	advance_on_keypress_SLASH	130	stimuli_distractor_trianglediamonds.svg	stimuli_target_trianglesquares.svg	26	yes	57	0	884
6.6.1	win	2022-12-16	13:25:30	13:32:09	395864	5e4c86f49b48ae0c4af25e8e	95593435	1	main_slash	7	main_slash	131	stimuli_distractor_diamondtriangles.svg	stimuli_distractor_trianglediamonds.svg	37	no	0	1	2000
6.6.1	win	2022-12-16	13:25:30	13:32:09	395864	5e4c86f49b48ae0c4af25e8e	95593435	1	main_slash	7	advance_on_keypress_SLASH	132	stimuli_distractor_diamondtriangles.svg	stimuli_distractor_trianglediamonds.svg	37	no	57	0	646
6.6.1	win	2022-12-16	13:25:30	13:32:11	398016	5e4c86f49b48ae0c4af25e8e	95593435	1	main_slash	7	main_slash	133	stimuli_target_squarediamonds.svg	stimuli_distractor_diamondtriangles.svg	8	yes	53	1	856
6.6.1	win	2022-12-16	13:25:30	13:32:11	398016	5e4c86f49b48ae0c4af25e8e	95593435	1	main_slash	7	advance_on_keypress_SLASH	134	stimuli_target_squarediamonds.svg	stimuli_distractor_diamondtriangles.svg	8	yes	57	0	742
6.6.1	win	2022-12-16	13:25:30	13:32:13	400184	5e4c86f49b48ae0c4af25e8e	95593435	1	main_slash	7	main_slash	135	stimuli_distractor_trianglediamonds.svg	stimuli_target_squaretriangles.svg	11	yes	53	1	795
6.6.1	win	2022-12-16	13:25:30	13:32:13	400184	5e4c86f49b48ae0c4af25e8e	95593435	1	main_slash	7	advance_on_keypress_SLASH	136	stimuli_distractor_trianglediamonds.svg	stimuli_target_squaretriangles.svg	11	yes	57	0	615
6.6.1	win	2022-12-16	13:25:30	13:32:16	402246	5e4c86f49b48ae0c4af25e8e	95593435	1	main_slash	7	main_slash	137	stimuli_distractor_diamondtriangles.svg	stimuli_target_circletriangles.svg	13	yes	53	1	794
6.6.1	win	2022-12-16	13:25:30	13:32:16	402246	5e4c86f49b48ae0c4af25e8e	95593435	1	main_slash	7	advance_on_keypress_SLASH	138	stimuli_distractor_diamondtriangles.svg	stimuli_target_circletriangles.svg	13	yes	57	0	522
6.6.1	win	2022-12-16	13:25:30	13:32:18	404353	5e4c86f49b48ae0c4af25e8e	95593435	1	main_slash	7	main_slash	139	stimuli_distractor_diamondtriangles.svg	stimuli_target_trianglesquares.svg	30	yes	53	1	937
6.6.1	win	2022-12-16	13:25:30	13:32:18	404353	5e4c86f49b48ae0c4af25e8e	95593435	1	main_slash	7	advance_on_keypress_SLASH	140	stimuli_distractor_diamondtriangles.svg	stimuli_target_trianglesquares.svg	30	yes	57	0	623
6.6.1	win	2022-12-16	13:25:30	13:32:20	406496	5e4c86f49b48ae0c4af25e8e	95593435	1	main_slash	7	main_slash	141	stimuli_target_circlediamonds.svg	stimuli_distractor_trianglediamonds.svg	2	yes	53	1	883
6.6.1	win	2022-12-16	13:25:30	13:32:20	406496	5e4c86f49b48ae0c4af25e8e	95593435	1	main_slash	7	advance_on_keypress_SLASH	142	stimuli_target_circlediamonds.svg	stimuli_distractor_trianglediamonds.svg	2	yes	57	0	554
6.6.1	win	2022-12-16	13:25:30	13:32:22	408666	5e4c86f49b48ae0c4af25e8e	95593435	1	main_slash	7	main_slash	143	stimuli_target_circletriangles.svg	stimuli_distractor_trianglediamonds.svg	1	yes	53	1	973
6.6.1	win	2022-12-16	13:25:30	13:32:22	408666	5e4c86f49b48ae0c4af25e8e	95593435	1	main_slash	7	advance_on_keypress_SLASH	144	stimuli_target_circletriangles.svg	stimuli_distractor_trianglediamonds.svg	1	yes	57	0	684
6.6.1	win	2022-12-16	13:25:30	13:32:25	411989	5e4c86f49b48ae0c4af25e8e	95593435	1	main_slash	7	main_slash	145	stimuli_target_diamondsquares.svg	stimuli_distractor_trianglediamonds.svg	20	yes	0	0	2000
6.6.1	win	2022-12-16	13:25:30	13:32:25	411989	5e4c86f49b48ae0c4af25e8e	95593435	1	main_slash	7	advance_on_keypress_SLASH	146	stimuli_target_diamondsquares.svg	stimuli_distractor_trianglediamonds.svg	20	yes	57	0	439
6.6.1	win	2022-12-16	13:25:30	13:32:27	413924	5e4c86f49b48ae0c4af25e8e	95593435	1	main_slash	7	main_slash	147	stimuli_target_trianglecircles.svg	stimuli_distractor_diamondtriangles.svg	21	yes	53	1	856
6.6.1	win	2022-12-16	13:25:30	13:32:27	413924	5e4c86f49b48ae0c4af25e8e	95593435	1	main_slash	7	advance_on_keypress_SLASH	148	stimuli_target_trianglecircles.svg	stimuli_distractor_diamondtriangles.svg	21	yes	57	0	697
6.6.1	win	2022-12-16	13:25:30	13:32:29	416217	5e4c86f49b48ae0c4af25e8e	95593435	1	main_slash	7	main_slash	149	stimuli_distractor_trianglediamonds.svg	stimuli_target_diamondcircles.svg	27	yes	53	1	952
6.6.1	win	2022-12-16	13:25:30	13:32:29	416217	5e4c86f49b48ae0c4af25e8e	95593435	1	main_slash	7	advance_on_keypress_SLASH	150	stimuli_distractor_trianglediamonds.svg	stimuli_target_diamondcircles.svg	27	yes	57	0	699
6.6.1	win	2022-12-16	13:25:30	13:32:33	419561	5e4c86f49b48ae0c4af25e8e	95593435	1	main_slash	7	main_slash	151	stimuli_distractor_diamondtriangles.svg	stimuli_distractor_diamondtriangles.svg	40	no	0	1	2000
6.6.1	win	2022-12-16	13:25:30	13:32:33	419561	5e4c86f49b48ae0c4af25e8e	95593435	1	main_slash	7	advance_on_keypress_SLASH	152	stimuli_distractor_diamondtriangles.svg	stimuli_distractor_diamondtriangles.svg	40	no	57	0	748
6.6.1	win	2022-12-16	13:25:30	13:32:35	421844	5e4c86f49b48ae0c4af25e8e	95593435	1	main_slash	7	main_slash	153	stimuli_distractor_diamondtriangles.svg	stimuli_target_diamondcircles.svg	31	yes	53	1	889
6.6.1	win	2022-12-16	13:25:30	13:32:35	421844	5e4c86f49b48ae0c4af25e8e	95593435	1	main_slash	7	advance_on_keypress_SLASH	154	stimuli_distractor_diamondtriangles.svg	stimuli_target_diamondcircles.svg	31	yes	57	0	508
6.6.1	win	2022-12-16	13:25:30	13:32:38	424986	5e4c86f49b48ae0c4af25e8e	95593435	1	main_slash	7	main_slash	155	stimuli_distractor_trianglediamonds.svg	stimuli_distractor_diamondtriangles.svg	35	no	0	1	2000
6.6.1	win	2022-12-16	13:25:30	13:32:38	424986	5e4c86f49b48ae0c4af25e8e	95593435	1	main_slash	7	advance_on_keypress_SLASH	156	stimuli_distractor_trianglediamonds.svg	stimuli_distractor_diamondtriangles.svg	35	no	57	0	543
6.6.1	win	2022-12-16	13:25:30	13:32:40	427036	5e4c86f49b48ae0c4af25e8e	95593435	1	main_slash	7	main_slash	157	stimuli_target_trianglecircles.svg	stimuli_distractor_trianglediamonds.svg	17	yes	53	1	872
6.6.1	win	2022-12-16	13:25:30	13:32:40	427036	5e4c86f49b48ae0c4af25e8e	95593435	1	main_slash	7	advance_on_keypress_SLASH	158	stimuli_target_trianglecircles.svg	stimuli_distractor_trianglediamonds.svg	17	yes	57	0	610
6.6.1	win	2022-12-16	13:25:30	13:32:43	429269	5e4c86f49b48ae0c4af25e8e	95593435	1	main_slash	7	main_slash	159	stimuli_target_circlediamonds.svg	stimuli_distractor_diamondtriangles.svg	6	yes	53	1	991
6.6.1	win	2022-12-16	13:25:30	13:32:43	429269	5e4c86f49b48ae0c4af25e8e	95593435	1	main_slash	7	advance_on_keypress_SLASH	160	stimuli_target_circlediamonds.svg	stimuli_distractor_diamondtriangles.svg	6	yes	57	0	615
6.6.1	win	2022-12-16	13:25:30	13:33:06	452929	5e4c86f49b48ae0c4af25e8e	95593435	1	practice_z	9	practice_z	1	stimuli_distractor_trianglediamonds.svg	stimuli_distractor_diamondtriangles.svg	16	no	0	1	2000
6.6.1	win	2022-12-16	13:25:30	13:33:06	452929	5e4c86f49b48ae0c4af25e8e	95593435	1	practice_z	9	advance_on_keypress_ZEE	2	stimuli_distractor_trianglediamonds.svg	stimuli_distractor_diamondtriangles.svg	16	no	57	0	723
6.6.1	win	2022-12-16	13:25:30	13:33:09	456081	5e4c86f49b48ae0c4af25e8e	95593435	1	practice_z	9	practice_z	3	stimuli_distractor_trianglediamonds.svg	stimuli_target_circlediamonds.svg	10	yes	44	1	793
6.6.1	win	2022-12-16	13:25:30	13:33:09	456081	5e4c86f49b48ae0c4af25e8e	95593435	1	practice_z	9	advance_on_keypress_ZEE	4	stimuli_distractor_trianglediamonds.svg	stimuli_target_circlediamonds.svg	10	yes	57	0	602
6.6.1	win	2022-12-16	13:25:30	13:33:13	459380	5e4c86f49b48ae0c4af25e8e	95593435	1	practice_z	9	practice_z	5	stimuli_target_squarediamonds.svg	stimuli_distractor_diamondtriangles.svg	2	yes	44	1	1046
6.6.1	win	2022-12-16	13:25:30	13:33:13	459380	5e4c86f49b48ae0c4af25e8e	95593435	1	practice_z	9	advance_on_keypress_ZEE	6	stimuli_target_squarediamonds.svg	stimuli_distractor_diamondtriangles.svg	2	yes	57	0	743
6.6.1	win	2022-12-16	13:25:30	13:33:16	462608	5e4c86f49b48ae0c4af25e8e	95593435	1	practice_z	9	practice_z	7	stimuli_distractor_diamondtriangles.svg	stimuli_target_circletriangles.svg	7	yes	44	1	846
6.6.1	win	2022-12-16	13:25:30	13:33:16	462608	5e4c86f49b48ae0c4af25e8e	95593435	1	practice_z	9	advance_on_keypress_ZEE	8	stimuli_distractor_diamondtriangles.svg	stimuli_target_circletriangles.svg	7	yes	57	0	901
6.6.1	win	2022-12-16	13:25:30	13:33:19	465924	5e4c86f49b48ae0c4af25e8e	95593435	1	practice_z	9	practice_z	9	stimuli_distractor_diamondtriangles.svg	stimuli_target_trianglecircles.svg	9	yes	44	1	767
6.6.1	win	2022-12-16	13:25:30	13:33:19	465924	5e4c86f49b48ae0c4af25e8e	95593435	1	practice_z	9	advance_on_keypress_ZEE	10	stimuli_distractor_diamondtriangles.svg	stimuli_target_trianglecircles.svg	9	yes	57	0	430
6.6.1	win	2022-12-16	13:25:30	13:33:23	470002	5e4c86f49b48ae0c4af25e8e	95593435	1	practice_z	9	practice_z	11	stimuli_target_diamondsquares.svg	stimuli_distractor_diamondtriangles.svg	3	yes	0	0	2000
6.6.1	win	2022-12-16	13:25:30	13:33:23	470002	5e4c86f49b48ae0c4af25e8e	95593435	1	practice_z	9	advance_on_keypress_ZEE	12	stimuli_target_diamondsquares.svg	stimuli_distractor_diamondtriangles.svg	3	yes	57	0	838
6.6.1	win	2022-12-16	13:25:30	13:33:26	473223	5e4c86f49b48ae0c4af25e8e	95593435	1	practice_z	9	practice_z	13	stimuli_distractor_trianglediamonds.svg	stimuli_target_diamondcircles.svg	12	yes	44	1	744
6.6.1	win	2022-12-16	13:25:30	13:33:26	473223	5e4c86f49b48ae0c4af25e8e	95593435	1	practice_z	9	advance_on_keypress_ZEE	14	stimuli_distractor_trianglediamonds.svg	stimuli_target_diamondcircles.svg	12	yes	57	0	543
6.6.1	win	2022-12-16	13:25:30	13:33:30	476286	5e4c86f49b48ae0c4af25e8e	95593435	1	practice_z	9	practice_z	15	stimuli_target_circlediamonds.svg	stimuli_distractor_trianglediamonds.svg	4	yes	44	1	878
6.6.1	win	2022-12-16	13:25:30	13:33:30	476286	5e4c86f49b48ae0c4af25e8e	95593435	1	practice_z	9	advance_on_keypress_ZEE	16	stimuli_target_circlediamonds.svg	stimuli_distractor_trianglediamonds.svg	4	yes	57	0	520
6.6.1	win	2022-12-16	13:25:30	13:33:34	480454	5e4c86f49b48ae0c4af25e8e	95593435	1	practice_z	9	practice_z	17	stimuli_distractor_diamondtriangles.svg	stimuli_distractor_diamondtriangles.svg	13	no	0	1	2000
6.6.1	win	2022-12-16	13:25:30	13:33:34	480454	5e4c86f49b48ae0c4af25e8e	95593435	1	practice_z	9	advance_on_keypress_ZEE	18	stimuli_distractor_diamondtriangles.svg	stimuli_distractor_diamondtriangles.svg	13	no	57	0	600
6.6.1	win	2022-12-16	13:25:30	13:33:37	483447	5e4c86f49b48ae0c4af25e8e	95593435	1	practice_z	9	practice_z	19	stimuli_target_circlediamonds.svg	stimuli_distractor_diamondtriangles.svg	1	yes	44	1	751
6.6.1	win	2022-12-16	13:25:30	13:33:37	483447	5e4c86f49b48ae0c4af25e8e	95593435	1	practice_z	9	advance_on_keypress_ZEE	20	stimuli_target_circlediamonds.svg	stimuli_distractor_diamondtriangles.svg	1	yes	57	0	463
6.6.1	win	2022-12-16	13:25:30	13:33:41	487559	5e4c86f49b48ae0c4af25e8e	95593435	1	practice_z	9	practice_z	21	stimuli_distractor_diamondtriangles.svg	stimuli_distractor_trianglediamonds.svg	14	no	0	1	2000
6.6.1	win	2022-12-16	13:25:30	13:33:41	487559	5e4c86f49b48ae0c4af25e8e	95593435	1	practice_z	9	advance_on_keypress_ZEE	22	stimuli_distractor_diamondtriangles.svg	stimuli_distractor_trianglediamonds.svg	14	no	57	0	413
6.6.1	win	2022-12-16	13:25:30	13:33:44	490638	5e4c86f49b48ae0c4af25e8e	95593435	1	practice_z	9	practice_z	23	stimuli_target_squarediamonds.svg	stimuli_distractor_trianglediamonds.svg	5	yes	44	1	1018
6.6.1	win	2022-12-16	13:25:30	13:33:44	490638	5e4c86f49b48ae0c4af25e8e	95593435	1	practice_z	9	advance_on_keypress_ZEE	24	stimuli_target_squarediamonds.svg	stimuli_distractor_trianglediamonds.svg	5	yes	57	0	518
6.6.1	win	2022-12-16	13:25:30	13:33:47	493693	5e4c86f49b48ae0c4af25e8e	95593435	1	practice_z	9	practice_z	25	stimuli_distractor_trianglediamonds.svg	stimuli_target_squarediamonds.svg	11	yes	44	1	896
6.6.1	win	2022-12-16	13:25:30	13:33:47	493693	5e4c86f49b48ae0c4af25e8e	95593435	1	practice_z	9	advance_on_keypress_ZEE	26	stimuli_distractor_trianglediamonds.svg	stimuli_target_squarediamonds.svg	11	yes	57	0	674
6.6.1	win	2022-12-16	13:25:30	13:33:50	496951	5e4c86f49b48ae0c4af25e8e	95593435	1	practice_z	9	practice_z	27	stimuli_distractor_diamondtriangles.svg	stimuli_target_diamondcircles.svg	8	yes	44	1	941
6.6.1	win	2022-12-16	13:25:30	13:33:50	496951	5e4c86f49b48ae0c4af25e8e	95593435	1	practice_z	9	advance_on_keypress_ZEE	28	stimuli_distractor_diamondtriangles.svg	stimuli_target_diamondcircles.svg	8	yes	57	0	552
6.6.1	win	2022-12-16	13:25:30	13:33:54	501155	5e4c86f49b48ae0c4af25e8e	95593435	1	practice_z	9	practice_z	29	stimuli_distractor_trianglediamonds.svg	stimuli_distractor_trianglediamonds.svg	15	no	0	1	2000
6.6.1	win	2022-12-16	13:25:30	13:33:54	501155	5e4c86f49b48ae0c4af25e8e	95593435	1	practice_z	9	advance_on_keypress_ZEE	30	stimuli_distractor_trianglediamonds.svg	stimuli_distractor_trianglediamonds.svg	15	no	57	0	1246
6.6.1	win	2022-12-16	13:25:30	13:33:59	506046	5e4c86f49b48ae0c4af25e8e	95593435	1	practice_z	9	practice_z	31	stimuli_target_diamondsquares.svg	stimuli_distractor_trianglediamonds.svg	6	yes	0	0	2000
6.6.1	win	2022-12-16	13:25:30	13:33:59	506046	5e4c86f49b48ae0c4af25e8e	95593435	1	practice_z	9	advance_on_keypress_ZEE	32	stimuli_target_diamondsquares.svg	stimuli_distractor_trianglediamonds.svg	6	yes	57	0	532
6.6.1	win	2022-12-16	13:25:30	13:34:10	516906	5e4c86f49b48ae0c4af25e8e	95593435	1	main_z	11	main_z	1	stimuli_target_squaretriangles.svg	stimuli_distractor_trianglediamonds.svg	3	yes	44	1	665
6.6.1	win	2022-12-16	13:25:30	13:34:10	516906	5e4c86f49b48ae0c4af25e8e	95593435	1	main_z	11	advance_on_keypress_ZEE	2	stimuli_target_squaretriangles.svg	stimuli_distractor_trianglediamonds.svg	3	yes	57	0	824
6.6.1	win	2022-12-16	13:25:30	13:34:14	520372	5e4c86f49b48ae0c4af25e8e	95593435	1	main_z	11	main_z	3	stimuli_distractor_diamondtriangles.svg	stimuli_distractor_trianglediamonds.svg	38	no	0	1	2000
6.6.1	win	2022-12-16	13:25:30	13:34:14	520372	5e4c86f49b48ae0c4af25e8e	95593435	1	main_z	11	advance_on_keypress_ZEE	4	stimuli_distractor_diamondtriangles.svg	stimuli_distractor_trianglediamonds.svg	38	no	57	0	391
6.6.1	win	2022-12-16	13:25:30	13:34:15	522089	5e4c86f49b48ae0c4af25e8e	95593435	1	main_z	11	main_z	5	stimuli_distractor_trianglediamonds.svg	stimuli_target_squaretriangles.svg	11	yes	44	1	689
6.6.1	win	2022-12-16	13:25:30	13:34:15	522089	5e4c86f49b48ae0c4af25e8e	95593435	1	main_z	11	advance_on_keypress_ZEE	6	stimuli_distractor_trianglediamonds.svg	stimuli_target_squaretriangles.svg	11	yes	57	0	620
6.6.1	win	2022-12-16	13:25:30	13:34:19	525347	5e4c86f49b48ae0c4af25e8e	95593435	1	main_z	11	main_z	7	stimuli_distractor_trianglediamonds.svg	stimuli_distractor_trianglediamonds.svg	34	no	0	1	2000
6.6.1	win	2022-12-16	13:25:30	13:34:19	525347	5e4c86f49b48ae0c4af25e8e	95593435	1	main_z	11	advance_on_keypress_ZEE	8	stimuli_distractor_trianglediamonds.svg	stimuli_distractor_trianglediamonds.svg	34	no	57	0	509
6.6.1	win	2022-12-16	13:25:30	13:34:20	527220	5e4c86f49b48ae0c4af25e8e	95593435	1	main_z	11	main_z	9	stimuli_target_diamondcircles.svg	stimuli_distractor_diamondtriangles.svg	23	yes	44	1	727
6.6.1	win	2022-12-16	13:25:30	13:34:20	527220	5e4c86f49b48ae0c4af25e8e	95593435	1	main_z	11	advance_on_keypress_ZEE	10	stimuli_target_diamondcircles.svg	stimuli_distractor_diamondtriangles.svg	23	yes	57	0	855
6.6.1	win	2022-12-16	13:25:30	13:34:23	529517	5e4c86f49b48ae0c4af25e8e	95593435	1	main_z	11	main_z	11	stimuli_target_diamondcircles.svg	stimuli_distractor_trianglediamonds.svg	19	yes	44	1	795
6.6.1	win	2022-12-16	13:25:30	13:34:23	529517	5e4c86f49b48ae0c4af25e8e	95593435	1	main_z	11	advance_on_keypress_ZEE	12	stimuli_target_diamondcircles.svg	stimuli_distractor_trianglediamonds.svg	19	yes	57	0	666
6.6.1	win	2022-12-16	13:25:30	13:34:26	532836	5e4c86f49b48ae0c4af25e8e	95593435	1	main_z	11	main_z	13	stimuli_target_squarediamonds.svg	stimuli_distractor_trianglediamonds.svg	4	yes	0	0	2000
6.6.1	win	2022-12-16	13:25:30	13:34:26	532836	5e4c86f49b48ae0c4af25e8e	95593435	1	main_z	11	advance_on_keypress_ZEE	14	stimuli_target_squarediamonds.svg	stimuli_distractor_trianglediamonds.svg	4	yes	57	0	1186
6.6.1	win	2022-12-16	13:25:30	13:34:30	536663	5e4c86f49b48ae0c4af25e8e	95593435	1	main_z	11	main_z	15	stimuli_target_diamondsquares.svg	stimuli_distractor_diamondtriangles.svg	24	yes	0	0	2000
6.6.1	win	2022-12-16	13:25:30	13:34:30	536663	5e4c86f49b48ae0c4af25e8e	95593435	1	main_z	11	advance_on_keypress_ZEE	16	stimuli_target_diamondsquares.svg	stimuli_distractor_diamondtriangles.svg	24	yes	57	0	475
6.6.1	win	2022-12-16	13:25:30	13:34:32	538527	5e4c86f49b48ae0c4af25e8e	95593435	1	main_z	11	main_z	17	stimuli_distractor_diamondtriangles.svg	stimuli_target_squarediamonds.svg	16	yes	44	1	753
6.6.1	win	2022-12-16	13:25:30	13:34:32	538527	5e4c86f49b48ae0c4af25e8e	95593435	1	main_z	11	advance_on_keypress_ZEE	18	stimuli_distractor_diamondtriangles.svg	stimuli_target_squarediamonds.svg	16	yes	57	0	689
6.6.1	win	2022-12-16	13:25:30	13:34:34	540689	5e4c86f49b48ae0c4af25e8e	95593435	1	main_z	11	main_z	19	stimuli_target_circletriangles.svg	stimuli_distractor_trianglediamonds.svg	1	yes	44	1	834
6.6.1	win	2022-12-16	13:25:30	13:34:34	540689	5e4c86f49b48ae0c4af25e8e	95593435	1	main_z	11	advance_on_keypress_ZEE	20	stimuli_target_circletriangles.svg	stimuli_distractor_trianglediamonds.svg	1	yes	57	0	609
6.6.1	win	2022-12-16	13:25:30	13:34:36	543130	5e4c86f49b48ae0c4af25e8e	95593435	1	main_z	11	main_z	21	stimuli_distractor_diamondtriangles.svg	stimuli_target_diamondsquares.svg	32	yes	44	1	1194
6.6.1	win	2022-12-16	13:25:30	13:34:36	543130	5e4c86f49b48ae0c4af25e8e	95593435	1	main_z	11	advance_on_keypress_ZEE	22	stimuli_distractor_diamondtriangles.svg	stimuli_target_diamondsquares.svg	32	yes	57	0	535
6.6.1	win	2022-12-16	13:25:30	13:34:40	546315	5e4c86f49b48ae0c4af25e8e	95593435	1	main_z	11	main_z	23	stimuli_target_diamondsquares.svg	stimuli_distractor_trianglediamonds.svg	20	yes	0	0	2000
6.6.1	win	2022-12-16	13:25:30	13:34:40	546315	5e4c86f49b48ae0c4af25e8e	95593435	1	main_z	11	advance_on_keypress_ZEE	24	stimuli_target_diamondsquares.svg	stimuli_distractor_trianglediamonds.svg	20	yes	57	0	804
6.6.1	win	2022-12-16	13:25:30	13:34:43	549760	5e4c86f49b48ae0c4af25e8e	95593435	1	main_z	11	main_z	25	stimuli_distractor_diamondtriangles.svg	stimuli_distractor_diamondtriangles.svg	40	no	0	1	2000
6.6.1	win	2022-12-16	13:25:30	13:34:43	549760	5e4c86f49b48ae0c4af25e8e	95593435	1	main_z	11	advance_on_keypress_ZEE	26	stimuli_distractor_diamondtriangles.svg	stimuli_distractor_diamondtriangles.svg	40	no	57	0	724
6.6.1	win	2022-12-16	13:25:30	13:34:46	553121	5e4c86f49b48ae0c4af25e8e	95593435	1	main_z	11	main_z	27	stimuli_distractor_diamondtriangles.svg	stimuli_distractor_trianglediamonds.svg	37	no	0	1	2000
6.6.1	win	2022-12-16	13:25:30	13:34:46	553121	5e4c86f49b48ae0c4af25e8e	95593435	1	main_z	11	advance_on_keypress_ZEE	28	stimuli_distractor_diamondtriangles.svg	stimuli_distractor_trianglediamonds.svg	37	no	57	0	571
6.6.1	win	2022-12-16	13:25:30	13:34:48	555099	5e4c86f49b48ae0c4af25e8e	95593435	1	main_z	11	main_z	29	stimuli_distractor_diamondtriangles.svg	stimuli_target_diamondcircles.svg	31	yes	44	1	767
6.6.1	win	2022-12-16	13:25:30	13:34:48	555099	5e4c86f49b48ae0c4af25e8e	95593435	1	main_z	11	advance_on_keypress_ZEE	30	stimuli_distractor_diamondtriangles.svg	stimuli_target_diamondcircles.svg	31	yes	57	0	655
6.6.1	win	2022-12-16	13:25:30	13:34:51	557680	5e4c86f49b48ae0c4af25e8e	95593435	1	main_z	11	main_z	31	stimuli_distractor_trianglediamonds.svg	stimuli_target_squarediamonds.svg	12	yes	44	1	1283
6.6.1	win	2022-12-16	13:25:30	13:34:51	557680	5e4c86f49b48ae0c4af25e8e	95593435	1	main_z	11	advance_on_keypress_ZEE	32	stimuli_distractor_trianglediamonds.svg	stimuli_target_squarediamonds.svg	12	yes	57	0	624
6.6.1	win	2022-12-16	13:25:30	13:34:53	559780	5e4c86f49b48ae0c4af25e8e	95593435	1	main_z	11	main_z	33	stimuli_target_squaretriangles.svg	stimuli_distractor_diamondtriangles.svg	7	yes	44	1	838
6.6.1	win	2022-12-16	13:25:30	13:34:53	559780	5e4c86f49b48ae0c4af25e8e	95593435	1	main_z	11	advance_on_keypress_ZEE	34	stimuli_target_squaretriangles.svg	stimuli_distractor_diamondtriangles.svg	7	yes	57	0	2156
6.6.1	win	2022-12-16	13:25:30	13:34:57	563637	5e4c86f49b48ae0c4af25e8e	95593435	1	main_z	11	main_z	35	stimuli_target_trianglecircles.svg	stimuli_distractor_diamondtriangles.svg	21	yes	44	1	1067
6.6.1	win	2022-12-16	13:25:30	13:34:57	563637	5e4c86f49b48ae0c4af25e8e	95593435	1	main_z	11	advance_on_keypress_ZEE	36	stimuli_target_trianglecircles.svg	stimuli_distractor_diamondtriangles.svg	21	yes	57	0	864
6.6.1	win	2022-12-16	13:25:30	13:34:59	566041	5e4c86f49b48ae0c4af25e8e	95593435	1	main_z	11	main_z	37	stimuli_target_trianglesquares.svg	stimuli_distractor_trianglediamonds.svg	18	yes	44	1	892
6.6.1	win	2022-12-16	13:25:30	13:34:59	566041	5e4c86f49b48ae0c4af25e8e	95593435	1	main_z	11	advance_on_keypress_ZEE	38	stimuli_target_trianglesquares.svg	stimuli_distractor_trianglediamonds.svg	18	yes	57	0	645
6.6.1	win	2022-12-16	13:25:30	13:35:03	569312	5e4c86f49b48ae0c4af25e8e	95593435	1	main_z	11	main_z	39	stimuli_distractor_trianglediamonds.svg	stimuli_distractor_diamondtriangles.svg	35	no	0	1	2000
6.6.1	win	2022-12-16	13:25:30	13:35:03	569312	5e4c86f49b48ae0c4af25e8e	95593435	1	main_z	11	advance_on_keypress_ZEE	40	stimuli_distractor_trianglediamonds.svg	stimuli_distractor_diamondtriangles.svg	35	no	57	0	745
6.6.1	win	2022-12-16	13:25:30	13:35:05	571470	5e4c86f49b48ae0c4af25e8e	95593435	1	main_z	11	main_z	41	stimuli_distractor_trianglediamonds.svg	stimuli_target_diamondsquares.svg	28	yes	44	1	779
6.6.1	win	2022-12-16	13:25:30	13:35:05	571470	5e4c86f49b48ae0c4af25e8e	95593435	1	main_z	11	advance_on_keypress_ZEE	42	stimuli_distractor_trianglediamonds.svg	stimuli_target_diamondsquares.svg	28	yes	57	0	629
6.6.1	win	2022-12-16	13:25:30	13:35:07	573524	5e4c86f49b48ae0c4af25e8e	95593435	1	main_z	11	main_z	43	stimuli_distractor_diamondtriangles.svg	stimuli_target_circletriangles.svg	13	yes	44	1	769
6.6.1	win	2022-12-16	13:25:30	13:35:07	573524	5e4c86f49b48ae0c4af25e8e	95593435	1	main_z	11	advance_on_keypress_ZEE	44	stimuli_distractor_diamondtriangles.svg	stimuli_target_circletriangles.svg	13	yes	57	0	963
6.6.1	win	2022-12-16	13:25:30	13:35:09	576099	5e4c86f49b48ae0c4af25e8e	95593435	1	main_z	11	main_z	45	stimuli_distractor_diamondtriangles.svg	stimuli_target_trianglesquares.svg	30	yes	44	1	965
6.6.1	win	2022-12-16	13:25:30	13:35:09	576099	5e4c86f49b48ae0c4af25e8e	95593435	1	main_z	11	advance_on_keypress_ZEE	46	stimuli_distractor_diamondtriangles.svg	stimuli_target_trianglesquares.svg	30	yes	57	0	758
6.6.1	win	2022-12-16	13:25:30	13:35:11	578176	5e4c86f49b48ae0c4af25e8e	95593435	1	main_z	11	main_z	47	stimuli_distractor_diamondtriangles.svg	stimuli_target_circlediamonds.svg	14	yes	44	1	679
6.6.1	win	2022-12-16	13:25:30	13:35:11	578176	5e4c86f49b48ae0c4af25e8e	95593435	1	main_z	11	advance_on_keypress_ZEE	48	stimuli_distractor_diamondtriangles.svg	stimuli_target_circlediamonds.svg	14	yes	57	0	784
6.6.1	win	2022-12-16	13:25:30	13:35:14	580617	5e4c86f49b48ae0c4af25e8e	95593435	1	main_z	11	main_z	49	stimuli_distractor_trianglediamonds.svg	stimuli_target_trianglesquares.svg	26	yes	44	1	1006
6.6.1	win	2022-12-16	13:25:30	13:35:14	580617	5e4c86f49b48ae0c4af25e8e	95593435	1	main_z	11	advance_on_keypress_ZEE	50	stimuli_distractor_trianglediamonds.svg	stimuli_target_trianglesquares.svg	26	yes	57	0	736
6.6.1	win	2022-12-16	13:25:30	13:35:17	583990	5e4c86f49b48ae0c4af25e8e	95593435	1	main_z	11	main_z	51	stimuli_distractor_trianglediamonds.svg	stimuli_distractor_trianglediamonds.svg	33	no	0	1	2000
6.6.1	win	2022-12-16	13:25:30	13:35:17	583990	5e4c86f49b48ae0c4af25e8e	95593435	1	main_z	11	advance_on_keypress_ZEE	52	stimuli_distractor_trianglediamonds.svg	stimuli_distractor_trianglediamonds.svg	33	no	57	0	432
6.6.1	win	2022-12-16	13:25:30	13:35:19	585761	5e4c86f49b48ae0c4af25e8e	95593435	1	main_z	11	main_z	53	stimuli_target_circlediamonds.svg	stimuli_distractor_diamondtriangles.svg	6	yes	44	1	692
6.6.1	win	2022-12-16	13:25:30	13:35:19	585761	5e4c86f49b48ae0c4af25e8e	95593435	1	main_z	11	advance_on_keypress_ZEE	54	stimuli_target_circlediamonds.svg	stimuli_distractor_diamondtriangles.svg	6	yes	57	0	660
6.6.1	win	2022-12-16	13:25:30	13:35:21	587812	5e4c86f49b48ae0c4af25e8e	95593435	1	main_z	11	main_z	55	stimuli_distractor_trianglediamonds.svg	stimuli_target_circletriangles.svg	9	yes	44	1	764
6.6.1	win	2022-12-16	13:25:30	13:35:21	587812	5e4c86f49b48ae0c4af25e8e	95593435	1	main_z	11	advance_on_keypress_ZEE	56	stimuli_distractor_trianglediamonds.svg	stimuli_target_circletriangles.svg	9	yes	57	0	708
6.6.1	win	2022-12-16	13:25:30	13:35:23	590116	5e4c86f49b48ae0c4af25e8e	95593435	1	main_z	11	main_z	57	stimuli_distractor_diamondtriangles.svg	stimuli_target_trianglecircles.svg	29	yes	44	1	953
6.6.1	win	2022-12-16	13:25:30	13:35:23	590116	5e4c86f49b48ae0c4af25e8e	95593435	1	main_z	11	advance_on_keypress_ZEE	58	stimuli_distractor_diamondtriangles.svg	stimuli_target_trianglecircles.svg	29	yes	57	0	749
6.6.1	win	2022-12-16	13:25:30	13:35:27	593508	5e4c86f49b48ae0c4af25e8e	95593435	1	main_z	11	main_z	59	stimuli_distractor_diamondtriangles.svg	stimuli_distractor_diamondtriangles.svg	39	no	0	1	2000
6.6.1	win	2022-12-16	13:25:30	13:35:27	593508	5e4c86f49b48ae0c4af25e8e	95593435	1	main_z	11	advance_on_keypress_ZEE	60	stimuli_distractor_diamondtriangles.svg	stimuli_distractor_diamondtriangles.svg	39	no	57	0	375
6.6.1	win	2022-12-16	13:25:30	13:35:29	595516	5e4c86f49b48ae0c4af25e8e	95593435	1	main_z	11	main_z	61	stimuli_target_circlediamonds.svg	stimuli_distractor_trianglediamonds.svg	2	yes	44	1	995
6.6.1	win	2022-12-16	13:25:30	13:35:29	595516	5e4c86f49b48ae0c4af25e8e	95593435	1	main_z	11	advance_on_keypress_ZEE	62	stimuli_target_circlediamonds.svg	stimuli_distractor_trianglediamonds.svg	2	yes	57	0	847
6.6.1	win	2022-12-16	13:25:30	13:35:31	597935	5e4c86f49b48ae0c4af25e8e	95593435	1	main_z	11	main_z	63	stimuli_distractor_trianglediamonds.svg	stimuli_target_diamondcircles.svg	27	yes	44	1	918
6.6.1	win	2022-12-16	13:25:30	13:35:31	597935	5e4c86f49b48ae0c4af25e8e	95593435	1	main_z	11	advance_on_keypress_ZEE	64	stimuli_distractor_trianglediamonds.svg	stimuli_target_diamondcircles.svg	27	yes	57	0	680
6.6.1	win	2022-12-16	13:25:30	13:35:34	600496	5e4c86f49b48ae0c4af25e8e	95593435	1	main_z	11	main_z	65	stimuli_target_trianglesquares.svg	stimuli_distractor_diamondtriangles.svg	22	yes	44	1	1234
6.6.1	win	2022-12-16	13:25:30	13:35:34	600496	5e4c86f49b48ae0c4af25e8e	95593435	1	main_z	11	advance_on_keypress_ZEE	66	stimuli_target_trianglesquares.svg	stimuli_distractor_diamondtriangles.svg	22	yes	57	0	581
6.6.1	win	2022-12-16	13:25:30	13:35:37	603726	5e4c86f49b48ae0c4af25e8e	95593435	1	main_z	11	main_z	67	stimuli_distractor_trianglediamonds.svg	stimuli_distractor_diamondtriangles.svg	36	no	0	1	2000
6.6.1	win	2022-12-16	13:25:30	13:35:37	603726	5e4c86f49b48ae0c4af25e8e	95593435	1	main_z	11	advance_on_keypress_ZEE	68	stimuli_distractor_trianglediamonds.svg	stimuli_distractor_diamondtriangles.svg	36	no	57	0	330
6.6.1	win	2022-12-16	13:25:30	13:35:39	605509	5e4c86f49b48ae0c4af25e8e	95593435	1	main_z	11	main_z	69	stimuli_target_trianglecircles.svg	stimuli_distractor_trianglediamonds.svg	17	yes	44	1	804
6.6.1	win	2022-12-16	13:25:30	13:35:39	605509	5e4c86f49b48ae0c4af25e8e	95593435	1	main_z	11	advance_on_keypress_ZEE	70	stimuli_target_trianglecircles.svg	stimuli_distractor_trianglediamonds.svg	17	yes	57	0	936
6.6.1	win	2022-12-16	13:25:30	13:35:41	607988	5e4c86f49b48ae0c4af25e8e	95593435	1	main_z	11	main_z	71	stimuli_distractor_trianglediamonds.svg	stimuli_target_circlediamonds.svg	10	yes	44	1	903
6.6.1	win	2022-12-16	13:25:30	13:35:41	607988	5e4c86f49b48ae0c4af25e8e	95593435	1	main_z	11	advance_on_keypress_ZEE	72	stimuli_distractor_trianglediamonds.svg	stimuli_target_circlediamonds.svg	10	yes	57	0	791
6.6.1	win	2022-12-16	13:25:30	13:35:44	610374	5e4c86f49b48ae0c4af25e8e	95593435	1	main_z	11	main_z	73	stimuli_distractor_trianglediamonds.svg	stimuli_target_trianglecircles.svg	25	yes	44	1	960
6.6.1	win	2022-12-16	13:25:30	13:35:44	610374	5e4c86f49b48ae0c4af25e8e	95593435	1	main_z	11	advance_on_keypress_ZEE	74	stimuli_distractor_trianglediamonds.svg	stimuli_target_trianglecircles.svg	25	yes	57	0	860
6.6.1	win	2022-12-16	13:25:30	13:35:46	612944	5e4c86f49b48ae0c4af25e8e	95593435	1	main_z	11	main_z	75	stimuli_distractor_diamondtriangles.svg	stimuli_target_squaretriangles.svg	15	yes	44	1	1083
6.6.1	win	2022-12-16	13:25:30	13:35:46	612944	5e4c86f49b48ae0c4af25e8e	95593435	1	main_z	11	advance_on_keypress_ZEE	76	stimuli_distractor_diamondtriangles.svg	stimuli_target_squaretriangles.svg	15	yes	57	0	831
6.6.1	win	2022-12-16	13:25:30	13:35:49	615472	5e4c86f49b48ae0c4af25e8e	95593435	1	main_z	11	main_z	77	stimuli_target_squarediamonds.svg	stimuli_distractor_diamondtriangles.svg	8	yes	44	1	1049
6.6.1	win	2022-12-16	13:25:30	13:35:49	615472	5e4c86f49b48ae0c4af25e8e	95593435	1	main_z	11	advance_on_keypress_ZEE	78	stimuli_target_squarediamonds.svg	stimuli_distractor_diamondtriangles.svg	8	yes	57	0	987
6.6.1	win	2022-12-16	13:25:30	13:35:51	618201	5e4c86f49b48ae0c4af25e8e	95593435	1	main_z	11	main_z	79	stimuli_target_circletriangles.svg	stimuli_distractor_diamondtriangles.svg	5	yes	44	1	1098
6.6.1	win	2022-12-16	13:25:30	13:35:51	618201	5e4c86f49b48ae0c4af25e8e	95593435	1	main_z	11	advance_on_keypress_ZEE	80	stimuli_target_circletriangles.svg	stimuli_distractor_diamondtriangles.svg	5	yes	57	0	1124
6.6.1	win	2022-12-16	13:25:30	13:35:54	620920	5e4c86f49b48ae0c4af25e8e	95593435	1	main_z	11	main_z	81	stimuli_distractor_trianglediamonds.svg	stimuli_target_squaretriangles.svg	11	yes	44	1	956
6.6.1	win	2022-12-16	13:25:30	13:35:54	620920	5e4c86f49b48ae0c4af25e8e	95593435	1	main_z	11	advance_on_keypress_ZEE	82	stimuli_distractor_trianglediamonds.svg	stimuli_target_squaretriangles.svg	11	yes	57	0	737
6.6.1	win	2022-12-16	13:25:30	13:35:57	623352	5e4c86f49b48ae0c4af25e8e	95593435	1	main_z	11	main_z	83	stimuli_distractor_diamondtriangles.svg	stimuli_target_circlediamonds.svg	14	yes	44	1	1057
6.6.1	win	2022-12-16	13:25:30	13:35:57	623352	5e4c86f49b48ae0c4af25e8e	95593435	1	main_z	11	advance_on_keypress_ZEE	84	stimuli_distractor_diamondtriangles.svg	stimuli_target_circlediamonds.svg	14	yes	57	0	717
6.6.1	win	2022-12-16	13:25:30	13:35:59	625954	5e4c86f49b48ae0c4af25e8e	95593435	1	main_z	11	main_z	85	stimuli_target_diamondcircles.svg	stimuli_distractor_trianglediamonds.svg	19	yes	44	1	1246
6.6.1	win	2022-12-16	13:25:30	13:35:59	625954	5e4c86f49b48ae0c4af25e8e	95593435	1	main_z	11	advance_on_keypress_ZEE	86	stimuli_target_diamondcircles.svg	stimuli_distractor_trianglediamonds.svg	19	yes	57	0	671
6.6.1	win	2022-12-16	13:25:30	13:36:02	628243	5e4c86f49b48ae0c4af25e8e	95593435	1	main_z	11	main_z	87	stimuli_distractor_trianglediamonds.svg	stimuli_target_trianglesquares.svg	26	yes	44	1	973
6.6.1	win	2022-12-16	13:25:30	13:36:02	628243	5e4c86f49b48ae0c4af25e8e	95593435	1	main_z	11	advance_on_keypress_ZEE	88	stimuli_distractor_trianglediamonds.svg	stimuli_target_trianglesquares.svg	26	yes	57	0	724
6.6.1	win	2022-12-16	13:25:30	13:36:04	630494	5e4c86f49b48ae0c4af25e8e	95593435	1	main_z	11	main_z	89	stimuli_distractor_trianglediamonds.svg	stimuli_target_circlediamonds.svg	10	yes	44	1	894
6.6.1	win	2022-12-16	13:25:30	13:36:04	630494	5e4c86f49b48ae0c4af25e8e	95593435	1	main_z	11	advance_on_keypress_ZEE	90	stimuli_distractor_trianglediamonds.svg	stimuli_target_circlediamonds.svg	10	yes	57	0	699
6.6.1	win	2022-12-16	13:25:30	13:36:06	632741	5e4c86f49b48ae0c4af25e8e	95593435	1	main_z	11	main_z	91	stimuli_target_circletriangles.svg	stimuli_distractor_diamondtriangles.svg	5	yes	44	1	895
6.6.1	win	2022-12-16	13:25:30	13:36:06	632741	5e4c86f49b48ae0c4af25e8e	95593435	1	main_z	11	advance_on_keypress_ZEE	92	stimuli_target_circletriangles.svg	stimuli_distractor_diamondtriangles.svg	5	yes	57	0	673
6.6.1	win	2022-12-16	13:25:30	13:36:09	636059	5e4c86f49b48ae0c4af25e8e	95593435	1	main_z	11	main_z	93	stimuli_distractor_trianglediamonds.svg	stimuli_distractor_diamondtriangles.svg	35	no	0	1	2000
6.6.1	win	2022-12-16	13:25:30	13:36:09	636059	5e4c86f49b48ae0c4af25e8e	95593435	1	main_z	11	advance_on_keypress_ZEE	94	stimuli_distractor_trianglediamonds.svg	stimuli_distractor_diamondtriangles.svg	35	no	57	0	772
6.6.1	win	2022-12-16	13:25:30	13:36:13	639471	5e4c86f49b48ae0c4af25e8e	95593435	1	main_z	11	main_z	95	stimuli_distractor_trianglediamonds.svg	stimuli_distractor_trianglediamonds.svg	33	no	0	1	2000
6.6.1	win	2022-12-16	13:25:30	13:36:13	639471	5e4c86f49b48ae0c4af25e8e	95593435	1	main_z	11	advance_on_keypress_ZEE	96	stimuli_distractor_trianglediamonds.svg	stimuli_distractor_trianglediamonds.svg	33	no	57	0	610
6.6.1	win	2022-12-16	13:25:30	13:36:15	641549	5e4c86f49b48ae0c4af25e8e	95593435	1	main_z	11	main_z	97	stimuli_target_diamondcircles.svg	stimuli_distractor_diamondtriangles.svg	23	yes	44	1	834
6.6.1	win	2022-12-16	13:25:30	13:36:15	641549	5e4c86f49b48ae0c4af25e8e	95593435	1	main_z	11	advance_on_keypress_ZEE	98	stimuli_target_diamondcircles.svg	stimuli_distractor_diamondtriangles.svg	23	yes	57	0	710
6.6.1	win	2022-12-16	13:25:30	13:36:17	644034	5e4c86f49b48ae0c4af25e8e	95593435	1	main_z	11	main_z	99	stimuli_target_trianglesquares.svg	stimuli_distractor_diamondtriangles.svg	22	yes	44	1	1139
6.6.1	win	2022-12-16	13:25:30	13:36:17	644034	5e4c86f49b48ae0c4af25e8e	95593435	1	main_z	11	advance_on_keypress_ZEE	100	stimuli_target_trianglesquares.svg	stimuli_distractor_diamondtriangles.svg	22	yes	57	0	639
6.6.1	win	2022-12-16	13:25:30	13:36:20	646284	5e4c86f49b48ae0c4af25e8e	95593435	1	main_z	11	main_z	101	stimuli_distractor_diamondtriangles.svg	stimuli_target_circletriangles.svg	13	yes	44	1	976
6.6.1	win	2022-12-16	13:25:30	13:36:20	646284	5e4c86f49b48ae0c4af25e8e	95593435	1	main_z	11	advance_on_keypress_ZEE	102	stimuli_distractor_diamondtriangles.svg	stimuli_target_circletriangles.svg	13	yes	57	0	691
6.6.1	win	2022-12-16	13:25:30	13:36:23	649605	5e4c86f49b48ae0c4af25e8e	95593435	1	main_z	11	main_z	103	stimuli_distractor_diamondtriangles.svg	stimuli_distractor_diamondtriangles.svg	40	no	0	1	2000
6.6.1	win	2022-12-16	13:25:30	13:36:23	649605	5e4c86f49b48ae0c4af25e8e	95593435	1	main_z	11	advance_on_keypress_ZEE	104	stimuli_distractor_diamondtriangles.svg	stimuli_distractor_diamondtriangles.svg	40	no	57	0	623
6.6.1	win	2022-12-16	13:25:30	13:36:26	652542	5e4c86f49b48ae0c4af25e8e	95593435	1	main_z	11	main_z	105	stimuli_target_squarediamonds.svg	stimuli_distractor_trianglediamonds.svg	4	yes	44	1	1676
6.6.1	win	2022-12-16	13:25:30	13:36:26	652542	5e4c86f49b48ae0c4af25e8e	95593435	1	main_z	11	advance_on_keypress_ZEE	106	stimuli_target_squarediamonds.svg	stimuli_distractor_trianglediamonds.svg	4	yes	57	0	712
6.6.1	win	2022-12-16	13:25:30	13:36:28	654846	5e4c86f49b48ae0c4af25e8e	95593435	1	main_z	11	main_z	107	stimuli_distractor_trianglediamonds.svg	stimuli_target_diamondcircles.svg	27	yes	44	1	935
6.6.1	win	2022-12-16	13:25:30	13:36:28	654846	5e4c86f49b48ae0c4af25e8e	95593435	1	main_z	11	advance_on_keypress_ZEE	108	stimuli_distractor_trianglediamonds.svg	stimuli_target_diamondcircles.svg	27	yes	57	0	570
6.6.1	win	2022-12-16	13:25:30	13:36:31	657263	5e4c86f49b48ae0c4af25e8e	95593435	1	main_z	11	main_z	109	stimuli_distractor_trianglediamonds.svg	stimuli_target_diamondsquares.svg	28	yes	44	1	1205
6.6.1	win	2022-12-16	13:25:30	13:36:31	657263	5e4c86f49b48ae0c4af25e8e	95593435	1	main_z	11	advance_on_keypress_ZEE	110	stimuli_distractor_trianglediamonds.svg	stimuli_target_diamondsquares.svg	28	yes	57	0	695
6.6.1	win	2022-12-16	13:25:30	13:36:33	659720	5e4c86f49b48ae0c4af25e8e	95593435	1	main_z	11	main_z	111	stimuli_target_circlediamonds.svg	stimuli_distractor_trianglediamonds.svg	2	yes	44	1	1115
6.6.1	win	2022-12-16	13:25:30	13:36:33	659720	5e4c86f49b48ae0c4af25e8e	95593435	1	main_z	11	advance_on_keypress_ZEE	112	stimuli_target_circlediamonds.svg	stimuli_distractor_trianglediamonds.svg	2	yes	57	0	711
6.6.1	win	2022-12-16	13:25:30	13:36:35	661997	5e4c86f49b48ae0c4af25e8e	95593435	1	main_z	11	main_z	113	stimuli_distractor_trianglediamonds.svg	stimuli_target_trianglecircles.svg	25	yes	44	1	929
6.6.1	win	2022-12-16	13:25:30	13:36:35	661997	5e4c86f49b48ae0c4af25e8e	95593435	1	main_z	11	advance_on_keypress_ZEE	114	stimuli_distractor_trianglediamonds.svg	stimuli_target_trianglecircles.svg	25	yes	57	0	772
6.6.1	win	2022-12-16	13:25:30	13:36:39	665414	5e4c86f49b48ae0c4af25e8e	95593435	1	main_z	11	main_z	115	stimuli_distractor_trianglediamonds.svg	stimuli_distractor_trianglediamonds.svg	34	no	0	1	2000
6.6.1	win	2022-12-16	13:25:30	13:36:39	665414	5e4c86f49b48ae0c4af25e8e	95593435	1	main_z	11	advance_on_keypress_ZEE	116	stimuli_distractor_trianglediamonds.svg	stimuli_distractor_trianglediamonds.svg	34	no	57	0	514
6.6.1	win	2022-12-16	13:25:30	13:36:41	667567	5e4c86f49b48ae0c4af25e8e	95593435	1	main_z	11	main_z	117	stimuli_target_diamondsquares.svg	stimuli_distractor_diamondtriangles.svg	24	yes	44	1	992
6.6.1	win	2022-12-16	13:25:30	13:36:41	667567	5e4c86f49b48ae0c4af25e8e	95593435	1	main_z	11	advance_on_keypress_ZEE	118	stimuli_target_diamondsquares.svg	stimuli_distractor_diamondtriangles.svg	24	yes	57	0	564
6.6.1	win	2022-12-16	13:25:30	13:36:43	669819	5e4c86f49b48ae0c4af25e8e	95593435	1	main_z	11	main_z	119	stimuli_distractor_diamondtriangles.svg	stimuli_target_diamondcircles.svg	31	yes	44	1	1047
6.6.1	win	2022-12-16	13:25:30	13:36:43	669819	5e4c86f49b48ae0c4af25e8e	95593435	1	main_z	11	advance_on_keypress_ZEE	120	stimuli_distractor_diamondtriangles.svg	stimuli_target_diamondcircles.svg	31	yes	57	0	646
6.6.1	win	2022-12-16	13:25:30	13:36:46	673119	5e4c86f49b48ae0c4af25e8e	95593435	1	main_z	11	main_z	121	stimuli_distractor_diamondtriangles.svg	stimuli_distractor_diamondtriangles.svg	39	no	0	1	2000
6.6.1	win	2022-12-16	13:25:30	13:36:46	673119	5e4c86f49b48ae0c4af25e8e	95593435	1	main_z	11	advance_on_keypress_ZEE	122	stimuli_distractor_diamondtriangles.svg	stimuli_distractor_diamondtriangles.svg	39	no	57	0	511
6.6.1	win	2022-12-16	13:25:30	13:36:48	674997	5e4c86f49b48ae0c4af25e8e	95593435	1	main_z	11	main_z	123	stimuli_target_squarediamonds.svg	stimuli_distractor_diamondtriangles.svg	8	yes	44	1	734
6.6.1	win	2022-12-16	13:25:30	13:36:48	674997	5e4c86f49b48ae0c4af25e8e	95593435	1	main_z	11	advance_on_keypress_ZEE	124	stimuli_target_squarediamonds.svg	stimuli_distractor_diamondtriangles.svg	8	yes	57	0	559
6.6.1	win	2022-12-16	13:25:30	13:36:51	677320	5e4c86f49b48ae0c4af25e8e	95593435	1	main_z	11	main_z	125	stimuli_distractor_diamondtriangles.svg	stimuli_target_trianglesquares.svg	30	yes	44	1	1127
6.6.1	win	2022-12-16	13:25:30	13:36:51	677320	5e4c86f49b48ae0c4af25e8e	95593435	1	main_z	11	advance_on_keypress_ZEE	126	stimuli_distractor_diamondtriangles.svg	stimuli_target_trianglesquares.svg	30	yes	57	0	560
6.6.1	win	2022-12-16	13:25:30	13:36:53	679485	5e4c86f49b48ae0c4af25e8e	95593435	1	main_z	11	main_z	127	stimuli_distractor_trianglediamonds.svg	stimuli_target_circletriangles.svg	9	yes	44	1	977
6.6.1	win	2022-12-16	13:25:30	13:36:53	679485	5e4c86f49b48ae0c4af25e8e	95593435	1	main_z	11	advance_on_keypress_ZEE	128	stimuli_distractor_trianglediamonds.svg	stimuli_target_circletriangles.svg	9	yes	57	0	1921
6.6.1	win	2022-12-16	13:25:30	13:36:56	682959	5e4c86f49b48ae0c4af25e8e	95593435	1	main_z	11	main_z	129	stimuli_target_squaretriangles.svg	stimuli_distractor_diamondtriangles.svg	7	yes	44	1	908
6.6.1	win	2022-12-16	13:25:30	13:36:56	682959	5e4c86f49b48ae0c4af25e8e	95593435	1	main_z	11	advance_on_keypress_ZEE	130	stimuli_target_squaretriangles.svg	stimuli_distractor_diamondtriangles.svg	7	yes	57	0	589
6.6.1	win	2022-12-16	13:25:30	13:36:58	684912	5e4c86f49b48ae0c4af25e8e	95593435	1	main_z	11	main_z	131	stimuli_target_circletriangles.svg	stimuli_distractor_trianglediamonds.svg	1	yes	44	1	731
6.6.1	win	2022-12-16	13:25:30	13:36:58	684912	5e4c86f49b48ae0c4af25e8e	95593435	1	main_z	11	advance_on_keypress_ZEE	132	stimuli_target_circletriangles.svg	stimuli_distractor_trianglediamonds.svg	1	yes	57	0	588
6.6.1	win	2022-12-16	13:25:30	13:37:00	687082	5e4c86f49b48ae0c4af25e8e	95593435	1	main_z	11	main_z	133	stimuli_target_trianglesquares.svg	stimuli_distractor_trianglediamonds.svg	18	yes	44	1	936
6.6.1	win	2022-12-16	13:25:30	13:37:00	687082	5e4c86f49b48ae0c4af25e8e	95593435	1	main_z	11	advance_on_keypress_ZEE	134	stimuli_target_trianglesquares.svg	stimuli_distractor_trianglediamonds.svg	18	yes	57	0	708
6.6.1	win	2022-12-16	13:25:30	13:37:03	689329	5e4c86f49b48ae0c4af25e8e	95593435	1	main_z	11	main_z	135	stimuli_target_trianglecircles.svg	stimuli_distractor_trianglediamonds.svg	17	yes	44	1	904
6.6.1	win	2022-12-16	13:25:30	13:37:03	689329	5e4c86f49b48ae0c4af25e8e	95593435	1	main_z	11	advance_on_keypress_ZEE	136	stimuli_target_trianglecircles.svg	stimuli_distractor_trianglediamonds.svg	17	yes	57	0	545
6.6.1	win	2022-12-16	13:25:30	13:37:06	692505	5e4c86f49b48ae0c4af25e8e	95593435	1	main_z	11	main_z	137	stimuli_distractor_diamondtriangles.svg	stimuli_distractor_trianglediamonds.svg	37	no	0	1	2000
6.6.1	win	2022-12-16	13:25:30	13:37:06	692505	5e4c86f49b48ae0c4af25e8e	95593435	1	main_z	11	advance_on_keypress_ZEE	138	stimuli_distractor_diamondtriangles.svg	stimuli_distractor_trianglediamonds.svg	37	no	57	0	862
6.6.1	win	2022-12-16	13:25:30	13:37:08	694775	5e4c86f49b48ae0c4af25e8e	95593435	1	main_z	11	main_z	139	stimuli_target_circlediamonds.svg	stimuli_distractor_diamondtriangles.svg	6	yes	44	1	758
6.6.1	win	2022-12-16	13:25:30	13:37:08	694775	5e4c86f49b48ae0c4af25e8e	95593435	1	main_z	11	advance_on_keypress_ZEE	140	stimuli_target_circlediamonds.svg	stimuli_distractor_diamondtriangles.svg	6	yes	57	0	561
6.6.1	win	2022-12-16	13:25:30	13:37:10	696923	5e4c86f49b48ae0c4af25e8e	95593435	1	main_z	11	main_z	141	stimuli_target_diamondsquares.svg	stimuli_distractor_trianglediamonds.svg	20	yes	44	1	960
6.6.1	win	2022-12-16	13:25:30	13:37:10	696923	5e4c86f49b48ae0c4af25e8e	95593435	1	main_z	11	advance_on_keypress_ZEE	142	stimuli_target_diamondsquares.svg	stimuli_distractor_trianglediamonds.svg	20	yes	57	0	846
6.6.1	win	2022-12-16	13:25:30	13:37:13	699325	5e4c86f49b48ae0c4af25e8e	95593435	1	main_z	11	main_z	143	stimuli_target_trianglecircles.svg	stimuli_distractor_diamondtriangles.svg	21	yes	44	1	915
6.6.1	win	2022-12-16	13:25:30	13:37:13	699325	5e4c86f49b48ae0c4af25e8e	95593435	1	main_z	11	advance_on_keypress_ZEE	144	stimuli_target_trianglecircles.svg	stimuli_distractor_diamondtriangles.svg	21	yes	57	0	619
6.6.1	win	2022-12-16	13:25:30	13:37:15	701440	5e4c86f49b48ae0c4af25e8e	95593435	1	main_z	11	main_z	145	stimuli_distractor_diamondtriangles.svg	stimuli_target_trianglecircles.svg	29	yes	44	1	850
6.6.1	win	2022-12-16	13:25:30	13:37:15	701440	5e4c86f49b48ae0c4af25e8e	95593435	1	main_z	11	advance_on_keypress_ZEE	146	stimuli_distractor_diamondtriangles.svg	stimuli_target_trianglecircles.svg	29	yes	57	0	507
6.6.1	win	2022-12-16	13:25:30	13:37:18	704587	5e4c86f49b48ae0c4af25e8e	95593435	1	main_z	11	main_z	147	stimuli_distractor_diamondtriangles.svg	stimuli_distractor_trianglediamonds.svg	38	no	0	1	2000
6.6.1	win	2022-12-16	13:25:30	13:37:18	704587	5e4c86f49b48ae0c4af25e8e	95593435	1	main_z	11	advance_on_keypress_ZEE	148	stimuli_distractor_diamondtriangles.svg	stimuli_distractor_trianglediamonds.svg	38	no	57	0	805
6.6.1	win	2022-12-16	13:25:30	13:37:20	706816	5e4c86f49b48ae0c4af25e8e	95593435	1	main_z	11	main_z	149	stimuli_target_squaretriangles.svg	stimuli_distractor_trianglediamonds.svg	3	yes	44	1	784
6.6.1	win	2022-12-16	13:25:30	13:37:20	706816	5e4c86f49b48ae0c4af25e8e	95593435	1	main_z	11	advance_on_keypress_ZEE	150	stimuli_target_squaretriangles.svg	stimuli_distractor_trianglediamonds.svg	3	yes	57	0	1012
6.6.1	win	2022-12-16	13:25:30	13:37:23	709372	5e4c86f49b48ae0c4af25e8e	95593435	1	main_z	11	main_z	151	stimuli_distractor_diamondtriangles.svg	stimuli_target_diamondsquares.svg	32	yes	44	1	894
6.6.1	win	2022-12-16	13:25:30	13:37:23	709372	5e4c86f49b48ae0c4af25e8e	95593435	1	main_z	11	advance_on_keypress_ZEE	152	stimuli_distractor_diamondtriangles.svg	stimuli_target_diamondsquares.svg	32	yes	57	0	909
6.6.1	win	2022-12-16	13:25:30	13:37:25	711694	5e4c86f49b48ae0c4af25e8e	95593435	1	main_z	11	main_z	153	stimuli_distractor_trianglediamonds.svg	stimuli_distractor_diamondtriangles.svg	36	no	44	0	770
6.6.1	win	2022-12-16	13:25:30	13:37:25	711694	5e4c86f49b48ae0c4af25e8e	95593435	1	main_z	11	advance_on_keypress_ZEE	154	stimuli_distractor_trianglediamonds.svg	stimuli_distractor_diamondtriangles.svg	36	no	57	0	751
6.6.1	win	2022-12-16	13:25:30	13:37:27	713999	5e4c86f49b48ae0c4af25e8e	95593435	1	main_z	11	main_z	155	stimuli_distractor_diamondtriangles.svg	stimuli_target_squaretriangles.svg	15	yes	44	1	913
6.6.1	win	2022-12-16	13:25:30	13:37:27	713999	5e4c86f49b48ae0c4af25e8e	95593435	1	main_z	11	advance_on_keypress_ZEE	156	stimuli_distractor_diamondtriangles.svg	stimuli_target_squaretriangles.svg	15	yes	57	0	647
6.6.1	win	2022-12-16	13:25:30	13:37:29	716005	5e4c86f49b48ae0c4af25e8e	95593435	1	main_z	11	main_z	157	stimuli_distractor_trianglediamonds.svg	stimuli_target_squarediamonds.svg	12	yes	44	1	704
6.6.1	win	2022-12-16	13:25:30	13:37:29	716005	5e4c86f49b48ae0c4af25e8e	95593435	1	main_z	11	advance_on_keypress_ZEE	158	stimuli_distractor_trianglediamonds.svg	stimuli_target_squarediamonds.svg	12	yes	57	0	852
6.6.1	win	2022-12-16	13:25:30	13:37:32	718311	5e4c86f49b48ae0c4af25e8e	95593435	1	main_z	11	main_z	159	stimuli_distractor_diamondtriangles.svg	stimuli_target_squarediamonds.svg	16	yes	44	1	814
6.6.1	win	2022-12-16	13:25:30	13:37:32	718311	5e4c86f49b48ae0c4af25e8e	95593435	1	main_z	11	advance_on_keypress_ZEE	160	stimuli_distractor_diamondtriangles.svg	stimuli_target_squarediamonds.svg	16	yes	57	0	517