build	computer.platform	date	time	timestamp	time_elapsed_ms	subject	group	session	blockcode	blocknum	trialcode	trialnum	stimulus_left	stimulus_right	stim_index	target_present	response	correct	latency
6.6.1	win	2022-12-15	13:07:56	13:10:21	143978	62aa26592478d039ddeaaa4c	38423591	1	practice_slash	5	practice_slash	1	stimuli_target_squarediamonds.svg	stimuli_distractor_trianglediamonds.svg	5	yes	53	1	652
6.6.1	win	2022-12-15	13:07:56	13:10:21	143978	62aa26592478d039ddeaaa4c	38423591	1	practice_slash	5	advance_on_keypress_SLASH	2	stimuli_target_squarediamonds.svg	stimuli_distractor_trianglediamonds.svg	5	yes	57	0	1128
6.6.1	win	2022-12-15	13:07:56	13:10:26	148763	62aa26592478d039ddeaaa4c	38423591	1	practice_slash	5	practice_slash	3	stimuli_target_diamondsquares.svg	stimuli_distractor_diamondtriangles.svg	3	yes	0	0	2000
6.6.1	win	2022-12-15	13:07:56	13:10:26	148763	62aa26592478d039ddeaaa4c	38423591	1	practice_slash	5	advance_on_keypress_SLASH	4	stimuli_target_diamondsquares.svg	stimuli_distractor_diamondtriangles.svg	3	yes	57	0	610
6.6.1	win	2022-12-15	13:07:56	13:10:30	153043	62aa26592478d039ddeaaa4c	38423591	1	practice_slash	5	practice_slash	5	stimuli_distractor_diamondtriangles.svg	stimuli_distractor_diamondtriangles.svg	13	no	0	1	2000
6.6.1	win	2022-12-15	13:07:56	13:10:30	153043	62aa26592478d039ddeaaa4c	38423591	1	practice_slash	5	advance_on_keypress_SLASH	6	stimuli_distractor_diamondtriangles.svg	stimuli_distractor_diamondtriangles.svg	13	no	57	0	1158
6.6.1	win	2022-12-15	13:07:56	13:10:35	157855	62aa26592478d039ddeaaa4c	38423591	1	practice_slash	5	practice_slash	7	stimuli_distractor_trianglediamonds.svg	stimuli_distractor_diamondtriangles.svg	16	no	0	1	2000
6.6.1	win	2022-12-15	13:07:56	13:10:35	157855	62aa26592478d039ddeaaa4c	38423591	1	practice_slash	5	advance_on_keypress_SLASH	8	stimuli_distractor_trianglediamonds.svg	stimuli_distractor_diamondtriangles.svg	16	no	57	0	1698
6.6.1	win	2022-12-15	13:07:56	13:10:39	162087	62aa26592478d039ddeaaa4c	38423591	1	practice_slash	5	practice_slash	9	stimuli_target_circlediamonds.svg	stimuli_distractor_trianglediamonds.svg	4	yes	53	1	876
6.6.1	win	2022-12-15	13:07:56	13:10:39	162087	62aa26592478d039ddeaaa4c	38423591	1	practice_slash	5	advance_on_keypress_SLASH	10	stimuli_target_circlediamonds.svg	stimuli_distractor_trianglediamonds.svg	4	yes	57	0	1318
6.6.1	win	2022-12-15	13:07:56	13:10:43	165917	62aa26592478d039ddeaaa4c	38423591	1	practice_slash	5	practice_slash	11	stimuli_target_squarediamonds.svg	stimuli_distractor_diamondtriangles.svg	2	yes	53	1	869
6.6.1	win	2022-12-15	13:07:56	13:10:43	165917	62aa26592478d039ddeaaa4c	38423591	1	practice_slash	5	advance_on_keypress_SLASH	12	stimuli_target_squarediamonds.svg	stimuli_distractor_diamondtriangles.svg	2	yes	57	0	2051
6.6.1	win	2022-12-15	13:07:56	13:10:48	170602	62aa26592478d039ddeaaa4c	38423591	1	practice_slash	5	practice_slash	13	stimuli_distractor_diamondtriangles.svg	stimuli_target_trianglecircles.svg	9	yes	53	1	960
6.6.1	win	2022-12-15	13:07:56	13:10:48	170602	62aa26592478d039ddeaaa4c	38423591	1	practice_slash	5	advance_on_keypress_SLASH	14	stimuli_distractor_diamondtriangles.svg	stimuli_target_trianglecircles.svg	9	yes	57	0	2235
6.6.1	win	2022-12-15	13:07:56	13:10:53	175907	62aa26592478d039ddeaaa4c	38423591	1	practice_slash	5	practice_slash	15	stimuli_distractor_trianglediamonds.svg	stimuli_target_squarediamonds.svg	11	yes	53	1	1403
6.6.1	win	2022-12-15	13:07:56	13:10:53	175907	62aa26592478d039ddeaaa4c	38423591	1	practice_slash	5	advance_on_keypress_SLASH	16	stimuli_distractor_trianglediamonds.svg	stimuli_target_squarediamonds.svg	11	yes	57	0	542
6.6.1	win	2022-12-15	13:07:56	13:10:56	178940	62aa26592478d039ddeaaa4c	38423591	1	practice_slash	5	practice_slash	17	stimuli_distractor_diamondtriangles.svg	stimuli_target_circletriangles.svg	7	yes	53	1	825
6.6.1	win	2022-12-15	13:07:56	13:10:56	178940	62aa26592478d039ddeaaa4c	38423591	1	practice_slash	5	advance_on_keypress_SLASH	18	stimuli_distractor_diamondtriangles.svg	stimuli_target_circletriangles.svg	7	yes	57	0	460
6.6.1	win	2022-12-15	13:07:56	13:10:59	181692	62aa26592478d039ddeaaa4c	38423591	1	practice_slash	5	practice_slash	19	stimuli_target_circlediamonds.svg	stimuli_distractor_diamondtriangles.svg	1	yes	53	1	649
6.6.1	win	2022-12-15	13:07:56	13:10:59	181692	62aa26592478d039ddeaaa4c	38423591	1	practice_slash	5	advance_on_keypress_SLASH	20	stimuli_target_circlediamonds.svg	stimuli_distractor_diamondtriangles.svg	1	yes	57	0	514
6.6.1	win	2022-12-15	13:07:56	13:11:02	184587	62aa26592478d039ddeaaa4c	38423591	1	practice_slash	5	practice_slash	21	stimuli_distractor_diamondtriangles.svg	stimuli_target_diamondcircles.svg	8	yes	53	1	688
6.6.1	win	2022-12-15	13:07:56	13:11:02	184587	62aa26592478d039ddeaaa4c	38423591	1	practice_slash	5	advance_on_keypress_SLASH	22	stimuli_distractor_diamondtriangles.svg	stimuli_target_diamondcircles.svg	8	yes	57	0	415
6.6.1	win	2022-12-15	13:07:56	13:11:05	187507	62aa26592478d039ddeaaa4c	38423591	1	practice_slash	5	practice_slash	23	stimuli_distractor_trianglediamonds.svg	stimuli_target_diamondcircles.svg	12	yes	53	1	854
6.6.1	win	2022-12-15	13:07:56	13:11:05	187507	62aa26592478d039ddeaaa4c	38423591	1	practice_slash	5	advance_on_keypress_SLASH	24	stimuli_distractor_trianglediamonds.svg	stimuli_target_diamondcircles.svg	12	yes	57	0	388
6.6.1	win	2022-12-15	13:07:56	13:11:08	190821	62aa26592478d039ddeaaa4c	38423591	1	practice_slash	5	practice_slash	25	stimuli_target_diamondsquares.svg	stimuli_distractor_trianglediamonds.svg	6	yes	53	1	1279
6.6.1	win	2022-12-15	13:07:56	13:11:08	190821	62aa26592478d039ddeaaa4c	38423591	1	practice_slash	5	advance_on_keypress_SLASH	26	stimuli_target_diamondsquares.svg	stimuli_distractor_trianglediamonds.svg	6	yes	57	0	379
6.6.1	win	2022-12-15	13:07:56	13:11:11	193651	62aa26592478d039ddeaaa4c	38423591	1	practice_slash	5	practice_slash	27	stimuli_distractor_trianglediamonds.svg	stimuli_target_circlediamonds.svg	10	yes	53	1	795
6.6.1	win	2022-12-15	13:07:56	13:11:11	193651	62aa26592478d039ddeaaa4c	38423591	1	practice_slash	5	advance_on_keypress_SLASH	28	stimuli_distractor_trianglediamonds.svg	stimuli_target_circlediamonds.svg	10	yes	57	0	295
6.6.1	win	2022-12-15	13:07:56	13:11:15	197596	62aa26592478d039ddeaaa4c	38423591	1	practice_slash	5	practice_slash	29	stimuli_distractor_trianglediamonds.svg	stimuli_distractor_trianglediamonds.svg	15	no	0	1	2000
6.6.1	win	2022-12-15	13:07:56	13:11:15	197596	62aa26592478d039ddeaaa4c	38423591	1	practice_slash	5	advance_on_keypress_SLASH	30	stimuli_distractor_trianglediamonds.svg	stimuli_distractor_trianglediamonds.svg	15	no	57	0	333
6.6.1	win	2022-12-15	13:07:56	13:11:18	200452	62aa26592478d039ddeaaa4c	38423591	1	practice_slash	5	practice_slash	31	stimuli_distractor_diamondtriangles.svg	stimuli_distractor_trianglediamonds.svg	14	no	53	0	885
6.6.1	win	2022-12-15	13:07:56	13:11:18	200452	62aa26592478d039ddeaaa4c	38423591	1	practice_slash	5	advance_on_keypress_SLASH	32	stimuli_distractor_diamondtriangles.svg	stimuli_distractor_trianglediamonds.svg	14	no	57	0	412
6.6.1	win	2022-12-15	13:07:56	13:11:57	239768	62aa26592478d039ddeaaa4c	38423591	1	main_slash	7	main_slash	1	stimuli_target_circlediamonds.svg	stimuli_distractor_diamondtriangles.svg	6	yes	53	1	641
6.6.1	win	2022-12-15	13:07:56	13:11:57	239768	62aa26592478d039ddeaaa4c	38423591	1	main_slash	7	advance_on_keypress_SLASH	2	stimuli_target_circlediamonds.svg	stimuli_distractor_diamondtriangles.svg	6	yes	57	0	1260
6.6.1	win	2022-12-15	13:07:56	13:12:00	242482	62aa26592478d039ddeaaa4c	38423591	1	main_slash	7	main_slash	3	stimuli_target_diamondcircles.svg	stimuli_distractor_trianglediamonds.svg	19	yes	53	1	800
6.6.1	win	2022-12-15	13:07:56	13:12:00	242482	62aa26592478d039ddeaaa4c	38423591	1	main_slash	7	advance_on_keypress_SLASH	4	stimuli_target_diamondcircles.svg	stimuli_distractor_trianglediamonds.svg	19	yes	57	0	919
6.6.1	win	2022-12-15	13:07:56	13:12:03	245398	62aa26592478d039ddeaaa4c	38423591	1	main_slash	7	main_slash	5	stimuli_distractor_diamondtriangles.svg	stimuli_target_diamondsquares.svg	32	yes	53	1	1354
6.6.1	win	2022-12-15	13:07:56	13:12:03	245398	62aa26592478d039ddeaaa4c	38423591	1	main_slash	7	advance_on_keypress_SLASH	6	stimuli_distractor_diamondtriangles.svg	stimuli_target_diamondsquares.svg	32	yes	57	0	524
6.6.1	win	2022-12-15	13:07:56	13:12:05	247616	62aa26592478d039ddeaaa4c	38423591	1	main_slash	7	main_slash	7	stimuli_distractor_diamondtriangles.svg	stimuli_target_trianglesquares.svg	30	yes	53	1	1041
6.6.1	win	2022-12-15	13:07:56	13:12:05	247616	62aa26592478d039ddeaaa4c	38423591	1	main_slash	7	advance_on_keypress_SLASH	8	stimuli_distractor_diamondtriangles.svg	stimuli_target_trianglesquares.svg	30	yes	57	0	592
6.6.1	win	2022-12-15	13:07:56	13:12:08	250873	62aa26592478d039ddeaaa4c	38423591	1	main_slash	7	main_slash	9	stimuli_distractor_diamondtriangles.svg	stimuli_distractor_diamondtriangles.svg	40	no	0	1	2000
6.6.1	win	2022-12-15	13:07:56	13:12:08	250873	62aa26592478d039ddeaaa4c	38423591	1	main_slash	7	advance_on_keypress_SLASH	10	stimuli_distractor_diamondtriangles.svg	stimuli_distractor_diamondtriangles.svg	40	no	57	0	441
6.6.1	win	2022-12-15	13:07:56	13:12:10	252937	62aa26592478d039ddeaaa4c	38423591	1	main_slash	7	main_slash	11	stimuli_distractor_trianglediamonds.svg	stimuli_target_circlediamonds.svg	10	yes	53	1	967
6.6.1	win	2022-12-15	13:07:56	13:12:10	252937	62aa26592478d039ddeaaa4c	38423591	1	main_slash	7	advance_on_keypress_SLASH	12	stimuli_distractor_trianglediamonds.svg	stimuli_target_circlediamonds.svg	10	yes	57	0	541
6.6.1	win	2022-12-15	13:07:56	13:12:13	255851	62aa26592478d039ddeaaa4c	38423591	1	main_slash	7	main_slash	13	stimuli_distractor_trianglediamonds.svg	stimuli_target_diamondsquares.svg	28	yes	53	1	1727
6.6.1	win	2022-12-15	13:07:56	13:12:13	255851	62aa26592478d039ddeaaa4c	38423591	1	main_slash	7	advance_on_keypress_SLASH	14	stimuli_distractor_trianglediamonds.svg	stimuli_target_diamondsquares.svg	28	yes	57	0	520
6.6.1	win	2022-12-15	13:07:56	13:12:15	258068	62aa26592478d039ddeaaa4c	38423591	1	main_slash	7	main_slash	15	stimuli_distractor_diamondtriangles.svg	stimuli_target_squarediamonds.svg	16	yes	53	1	1049
6.6.1	win	2022-12-15	13:07:56	13:12:15	258068	62aa26592478d039ddeaaa4c	38423591	1	main_slash	7	advance_on_keypress_SLASH	16	stimuli_distractor_diamondtriangles.svg	stimuli_target_squarediamonds.svg	16	yes	57	0	520
6.6.1	win	2022-12-15	13:07:56	13:12:18	260240	62aa26592478d039ddeaaa4c	38423591	1	main_slash	7	main_slash	17	stimuli_target_squaretriangles.svg	stimuli_distractor_diamondtriangles.svg	7	yes	53	1	985
6.6.1	win	2022-12-15	13:07:56	13:12:18	260240	62aa26592478d039ddeaaa4c	38423591	1	main_slash	7	advance_on_keypress_SLASH	18	stimuli_target_squaretriangles.svg	stimuli_distractor_diamondtriangles.svg	7	yes	57	0	646
6.6.1	win	2022-12-15	13:07:56	13:12:21	263544	62aa26592478d039ddeaaa4c	38423591	1	main_slash	7	main_slash	19	stimuli_distractor_diamondtriangles.svg	stimuli_distractor_diamondtriangles.svg	39	no	0	1	2000
6.6.1	win	2022-12-15	13:07:56	13:12:21	263544	62aa26592478d039ddeaaa4c	38423591	1	main_slash	7	advance_on_keypress_SLASH	20	stimuli_distractor_diamondtriangles.svg	stimuli_distractor_diamondtriangles.svg	39	no	57	0	470
6.6.1	win	2022-12-15	13:07:56	13:12:23	265514	62aa26592478d039ddeaaa4c	38423591	1	main_slash	7	main_slash	21	stimuli_target_trianglesquares.svg	stimuli_distractor_trianglediamonds.svg	18	yes	53	1	864
6.6.1	win	2022-12-15	13:07:56	13:12:23	265514	62aa26592478d039ddeaaa4c	38423591	1	main_slash	7	advance_on_keypress_SLASH	22	stimuli_target_trianglesquares.svg	stimuli_distractor_trianglediamonds.svg	18	yes	57	0	459
6.6.1	win	2022-12-15	13:07:56	13:12:26	268616	62aa26592478d039ddeaaa4c	38423591	1	main_slash	7	main_slash	23	stimuli_distractor_trianglediamonds.svg	stimuli_distractor_trianglediamonds.svg	34	no	0	1	2000
6.6.1	win	2022-12-15	13:07:56	13:12:26	268616	62aa26592478d039ddeaaa4c	38423591	1	main_slash	7	advance_on_keypress_SLASH	24	stimuli_distractor_trianglediamonds.svg	stimuli_distractor_trianglediamonds.svg	34	no	57	0	371
6.6.1	win	2022-12-15	13:07:56	13:12:28	270352	62aa26592478d039ddeaaa4c	38423591	1	main_slash	7	main_slash	25	stimuli_target_circlediamonds.svg	stimuli_distractor_trianglediamonds.svg	2	yes	53	1	711
6.6.1	win	2022-12-15	13:07:56	13:12:28	270352	62aa26592478d039ddeaaa4c	38423591	1	main_slash	7	advance_on_keypress_SLASH	26	stimuli_target_circlediamonds.svg	stimuli_distractor_trianglediamonds.svg	2	yes	57	0	492
6.6.1	win	2022-12-15	13:07:56	13:12:30	272368	62aa26592478d039ddeaaa4c	38423591	1	main_slash	7	main_slash	27	stimuli_target_trianglecircles.svg	stimuli_distractor_trianglediamonds.svg	17	yes	53	1	881
6.6.1	win	2022-12-15	13:07:56	13:12:30	272368	62aa26592478d039ddeaaa4c	38423591	1	main_slash	7	advance_on_keypress_SLASH	28	stimuli_target_trianglecircles.svg	stimuli_distractor_trianglediamonds.svg	17	yes	57	0	419
6.6.1	win	2022-12-15	13:07:56	13:12:32	274276	62aa26592478d039ddeaaa4c	38423591	1	main_slash	7	main_slash	29	stimuli_distractor_trianglediamonds.svg	stimuli_target_trianglecircles.svg	25	yes	53	1	847
6.6.1	win	2022-12-15	13:07:56	13:12:32	274276	62aa26592478d039ddeaaa4c	38423591	1	main_slash	7	advance_on_keypress_SLASH	30	stimuli_distractor_trianglediamonds.svg	stimuli_target_trianglecircles.svg	25	yes	57	0	363
6.6.1	win	2022-12-15	13:07:56	13:12:33	276184	62aa26592478d039ddeaaa4c	38423591	1	main_slash	7	main_slash	31	stimuli_target_squarediamonds.svg	stimuli_distractor_diamondtriangles.svg	8	yes	53	1	882
6.6.1	win	2022-12-15	13:07:56	13:12:33	276184	62aa26592478d039ddeaaa4c	38423591	1	main_slash	7	advance_on_keypress_SLASH	32	stimuli_target_squarediamonds.svg	stimuli_distractor_diamondtriangles.svg	8	yes	57	0	317
6.6.1	win	2022-12-15	13:07:56	13:12:35	277983	62aa26592478d039ddeaaa4c	38423591	1	main_slash	7	main_slash	33	stimuli_distractor_diamondtriangles.svg	stimuli_target_trianglecircles.svg	29	yes	53	1	833
6.6.1	win	2022-12-15	13:07:56	13:12:35	277983	62aa26592478d039ddeaaa4c	38423591	1	main_slash	7	advance_on_keypress_SLASH	34	stimuli_distractor_diamondtriangles.svg	stimuli_target_trianglecircles.svg	29	yes	57	0	304
6.6.1	win	2022-12-15	13:07:56	13:12:37	279736	62aa26592478d039ddeaaa4c	38423591	1	main_slash	7	main_slash	35	stimuli_target_trianglesquares.svg	stimuli_distractor_diamondtriangles.svg	22	yes	53	1	796
6.6.1	win	2022-12-15	13:07:56	13:12:37	279736	62aa26592478d039ddeaaa4c	38423591	1	main_slash	7	advance_on_keypress_SLASH	36	stimuli_target_trianglesquares.svg	stimuli_distractor_diamondtriangles.svg	22	yes	57	0	296
6.6.1	win	2022-12-15	13:07:56	13:12:39	281442	62aa26592478d039ddeaaa4c	38423591	1	main_slash	7	main_slash	37	stimuli_target_circletriangles.svg	stimuli_distractor_diamondtriangles.svg	5	yes	53	1	767
6.6.1	win	2022-12-15	13:07:56	13:12:39	281442	62aa26592478d039ddeaaa4c	38423591	1	main_slash	7	advance_on_keypress_SLASH	38	stimuli_target_circletriangles.svg	stimuli_distractor_diamondtriangles.svg	5	yes	57	0	325
6.6.1	win	2022-12-15	13:07:56	13:12:42	284420	62aa26592478d039ddeaaa4c	38423591	1	main_slash	7	main_slash	39	stimuli_distractor_diamondtriangles.svg	stimuli_target_circlediamonds.svg	14	yes	0	0	2000
6.6.1	win	2022-12-15	13:07:56	13:12:42	284420	62aa26592478d039ddeaaa4c	38423591	1	main_slash	7	advance_on_keypress_SLASH	40	stimuli_distractor_diamondtriangles.svg	stimuli_target_circlediamonds.svg	14	yes	57	0	436
6.6.1	win	2022-12-15	13:07:56	13:12:44	286487	62aa26592478d039ddeaaa4c	38423591	1	main_slash	7	main_slash	41	stimuli_target_diamondsquares.svg	stimuli_distractor_diamondtriangles.svg	24	yes	53	1	967
6.6.1	win	2022-12-15	13:07:56	13:12:44	286487	62aa26592478d039ddeaaa4c	38423591	1	main_slash	7	advance_on_keypress_SLASH	42	stimuli_target_diamondsquares.svg	stimuli_distractor_diamondtriangles.svg	24	yes	57	0	367
6.6.1	win	2022-12-15	13:07:56	13:12:46	288282	62aa26592478d039ddeaaa4c	38423591	1	main_slash	7	main_slash	43	stimuli_target_squaretriangles.svg	stimuli_distractor_trianglediamonds.svg	3	yes	53	1	753
6.6.1	win	2022-12-15	13:07:56	13:12:46	288282	62aa26592478d039ddeaaa4c	38423591	1	main_slash	7	advance_on_keypress_SLASH	44	stimuli_target_squaretriangles.svg	stimuli_distractor_trianglediamonds.svg	3	yes	57	0	410
6.6.1	win	2022-12-15	13:07:56	13:12:49	291338	62aa26592478d039ddeaaa4c	38423591	1	main_slash	7	main_slash	45	stimuli_distractor_trianglediamonds.svg	stimuli_distractor_trianglediamonds.svg	33	no	0	1	2000
6.6.1	win	2022-12-15	13:07:56	13:12:49	291338	62aa26592478d039ddeaaa4c	38423591	1	main_slash	7	advance_on_keypress_SLASH	46	stimuli_distractor_trianglediamonds.svg	stimuli_distractor_trianglediamonds.svg	33	no	57	0	298
6.6.1	win	2022-12-15	13:07:56	13:12:50	292997	62aa26592478d039ddeaaa4c	38423591	1	main_slash	7	main_slash	47	stimuli_target_diamondcircles.svg	stimuli_distractor_diamondtriangles.svg	23	yes	53	1	719
6.6.1	win	2022-12-15	13:07:56	13:12:50	292997	62aa26592478d039ddeaaa4c	38423591	1	main_slash	7	advance_on_keypress_SLASH	48	stimuli_target_diamondcircles.svg	stimuli_distractor_diamondtriangles.svg	23	yes	57	0	409
6.6.1	win	2022-12-15	13:07:56	13:12:52	294967	62aa26592478d039ddeaaa4c	38423591	1	main_slash	7	main_slash	49	stimuli_distractor_trianglediamonds.svg	stimuli_target_diamondcircles.svg	27	yes	53	1	904
6.6.1	win	2022-12-15	13:07:56	13:12:52	294967	62aa26592478d039ddeaaa4c	38423591	1	main_slash	7	advance_on_keypress_SLASH	50	stimuli_distractor_trianglediamonds.svg	stimuli_target_diamondcircles.svg	27	yes	57	0	308
6.6.1	win	2022-12-15	13:07:56	13:12:54	297107	62aa26592478d039ddeaaa4c	38423591	1	main_slash	7	main_slash	51	stimuli_distractor_diamondtriangles.svg	stimuli_target_circletriangles.svg	13	yes	53	1	1178
6.6.1	win	2022-12-15	13:07:56	13:12:54	297107	62aa26592478d039ddeaaa4c	38423591	1	main_slash	7	advance_on_keypress_SLASH	52	stimuli_distractor_diamondtriangles.svg	stimuli_target_circletriangles.svg	13	yes	57	0	410
6.6.1	win	2022-12-15	13:07:56	13:12:56	298984	62aa26592478d039ddeaaa4c	38423591	1	main_slash	7	main_slash	53	stimuli_distractor_trianglediamonds.svg	stimuli_target_squarediamonds.svg	12	yes	53	1	821
6.6.1	win	2022-12-15	13:07:56	13:12:56	298984	62aa26592478d039ddeaaa4c	38423591	1	main_slash	7	advance_on_keypress_SLASH	54	stimuli_distractor_trianglediamonds.svg	stimuli_target_squarediamonds.svg	12	yes	57	0	683
6.6.1	win	2022-12-15	13:07:56	13:12:58	301094	62aa26592478d039ddeaaa4c	38423591	1	main_slash	7	main_slash	55	stimuli_target_trianglecircles.svg	stimuli_distractor_diamondtriangles.svg	21	yes	53	1	771
6.6.1	win	2022-12-15	13:07:56	13:12:58	301094	62aa26592478d039ddeaaa4c	38423591	1	main_slash	7	advance_on_keypress_SLASH	56	stimuli_target_trianglecircles.svg	stimuli_distractor_diamondtriangles.svg	21	yes	57	0	367
6.6.1	win	2022-12-15	13:07:56	13:13:00	303126	62aa26592478d039ddeaaa4c	38423591	1	main_slash	7	main_slash	57	stimuli_distractor_trianglediamonds.svg	stimuli_target_circletriangles.svg	9	yes	53	1	1016
6.6.1	win	2022-12-15	13:07:56	13:13:00	303126	62aa26592478d039ddeaaa4c	38423591	1	main_slash	7	advance_on_keypress_SLASH	58	stimuli_distractor_trianglediamonds.svg	stimuli_target_circletriangles.svg	9	yes	57	0	339
6.6.1	win	2022-12-15	13:07:56	13:13:03	305327	62aa26592478d039ddeaaa4c	38423591	1	main_slash	7	main_slash	59	stimuli_target_diamondsquares.svg	stimuli_distractor_trianglediamonds.svg	20	yes	53	1	1218
6.6.1	win	2022-12-15	13:07:56	13:13:03	305327	62aa26592478d039ddeaaa4c	38423591	1	main_slash	7	advance_on_keypress_SLASH	60	stimuli_target_diamondsquares.svg	stimuli_distractor_trianglediamonds.svg	20	yes	57	0	321
6.6.1	win	2022-12-15	13:07:56	13:13:06	308305	62aa26592478d039ddeaaa4c	38423591	1	main_slash	7	main_slash	61	stimuli_distractor_diamondtriangles.svg	stimuli_target_diamondcircles.svg	31	yes	0	0	2000
6.6.1	win	2022-12-15	13:07:56	13:13:06	308305	62aa26592478d039ddeaaa4c	38423591	1	main_slash	7	advance_on_keypress_SLASH	62	stimuli_distractor_diamondtriangles.svg	stimuli_target_diamondcircles.svg	31	yes	57	0	482
6.6.1	win	2022-12-15	13:07:56	13:13:08	310352	62aa26592478d039ddeaaa4c	38423591	1	main_slash	7	main_slash	63	stimuli_distractor_diamondtriangles.svg	stimuli_distractor_trianglediamonds.svg	37	no	53	0	924
6.6.1	win	2022-12-15	13:07:56	13:13:08	310352	62aa26592478d039ddeaaa4c	38423591	1	main_slash	7	advance_on_keypress_SLASH	64	stimuli_distractor_diamondtriangles.svg	stimuli_distractor_trianglediamonds.svg	37	no	57	0	655
6.6.1	win	2022-12-15	13:07:56	13:13:10	312966	62aa26592478d039ddeaaa4c	38423591	1	main_slash	7	main_slash	65	stimuli_distractor_trianglediamonds.svg	stimuli_distractor_diamondtriangles.svg	35	no	53	0	1318
6.6.1	win	2022-12-15	13:07:56	13:13:10	312966	62aa26592478d039ddeaaa4c	38423591	1	main_slash	7	advance_on_keypress_SLASH	66	stimuli_distractor_trianglediamonds.svg	stimuli_distractor_diamondtriangles.svg	35	no	57	0	3149
6.6.1	win	2022-12-15	13:07:56	13:13:15	317425	62aa26592478d039ddeaaa4c	38423591	1	main_slash	7	main_slash	67	stimuli_target_squarediamonds.svg	stimuli_distractor_trianglediamonds.svg	4	yes	53	1	654
6.6.1	win	2022-12-15	13:07:56	13:13:15	317425	62aa26592478d039ddeaaa4c	38423591	1	main_slash	7	advance_on_keypress_SLASH	68	stimuli_target_squarediamonds.svg	stimuli_distractor_trianglediamonds.svg	4	yes	57	0	574
6.6.1	win	2022-12-15	13:07:56	13:13:17	319473	62aa26592478d039ddeaaa4c	38423591	1	main_slash	7	main_slash	69	stimuli_distractor_diamondtriangles.svg	stimuli_target_squaretriangles.svg	15	yes	53	1	826
6.6.1	win	2022-12-15	13:07:56	13:13:17	319473	62aa26592478d039ddeaaa4c	38423591	1	main_slash	7	advance_on_keypress_SLASH	70	stimuli_distractor_diamondtriangles.svg	stimuli_target_squaretriangles.svg	15	yes	57	0	560
6.6.1	win	2022-12-15	13:07:56	13:13:19	321867	62aa26592478d039ddeaaa4c	38423591	1	main_slash	7	main_slash	71	stimuli_distractor_diamondtriangles.svg	stimuli_distractor_trianglediamonds.svg	38	no	53	0	1178
6.6.1	win	2022-12-15	13:07:56	13:13:19	321867	62aa26592478d039ddeaaa4c	38423591	1	main_slash	7	advance_on_keypress_SLASH	72	stimuli_distractor_diamondtriangles.svg	stimuli_distractor_trianglediamonds.svg	38	no	57	0	464
6.6.1	win	2022-12-15	13:07:56	13:13:22	324976	62aa26592478d039ddeaaa4c	38423591	1	main_slash	7	main_slash	73	stimuli_distractor_trianglediamonds.svg	stimuli_distractor_diamondtriangles.svg	36	no	0	1	2000
6.6.1	win	2022-12-15	13:07:56	13:13:22	324976	62aa26592478d039ddeaaa4c	38423591	1	main_slash	7	advance_on_keypress_SLASH	74	stimuli_distractor_trianglediamonds.svg	stimuli_distractor_diamondtriangles.svg	36	no	57	0	500
6.6.1	win	2022-12-15	13:07:56	13:13:24	326996	62aa26592478d039ddeaaa4c	38423591	1	main_slash	7	main_slash	75	stimuli_distractor_trianglediamonds.svg	stimuli_target_squaretriangles.svg	11	yes	53	1	861
6.6.1	win	2022-12-15	13:07:56	13:13:24	326996	62aa26592478d039ddeaaa4c	38423591	1	main_slash	7	advance_on_keypress_SLASH	76	stimuli_distractor_trianglediamonds.svg	stimuli_target_squaretriangles.svg	11	yes	57	0	434
6.6.1	win	2022-12-15	13:07:56	13:13:26	329120	62aa26592478d039ddeaaa4c	38423591	1	main_slash	7	main_slash	77	stimuli_target_circletriangles.svg	stimuli_distractor_trianglediamonds.svg	1	yes	53	1	1028
6.6.1	win	2022-12-15	13:07:56	13:13:26	329120	62aa26592478d039ddeaaa4c	38423591	1	main_slash	7	advance_on_keypress_SLASH	78	stimuli_target_circletriangles.svg	stimuli_distractor_trianglediamonds.svg	1	yes	57	0	386
6.6.1	win	2022-12-15	13:07:56	13:13:29	331316	62aa26592478d039ddeaaa4c	38423591	1	main_slash	7	main_slash	79	stimuli_distractor_trianglediamonds.svg	stimuli_target_trianglesquares.svg	26	yes	53	1	1166
6.6.1	win	2022-12-15	13:07:56	13:13:29	331316	62aa26592478d039ddeaaa4c	38423591	1	main_slash	7	advance_on_keypress_SLASH	80	stimuli_distractor_trianglediamonds.svg	stimuli_target_trianglesquares.svg	26	yes	57	0	431
6.6.1	win	2022-12-15	13:07:56	13:13:31	333370	62aa26592478d039ddeaaa4c	38423591	1	main_slash	7	main_slash	81	stimuli_target_squarediamonds.svg	stimuli_distractor_trianglediamonds.svg	4	yes	53	1	968
6.6.1	win	2022-12-15	13:07:56	13:13:31	333370	62aa26592478d039ddeaaa4c	38423591	1	main_slash	7	advance_on_keypress_SLASH	82	stimuli_target_squarediamonds.svg	stimuli_distractor_trianglediamonds.svg	4	yes	57	0	381
6.6.1	win	2022-12-15	13:07:56	13:13:33	335401	62aa26592478d039ddeaaa4c	38423591	1	main_slash	7	main_slash	83	stimuli_distractor_diamondtriangles.svg	stimuli_target_squarediamonds.svg	16	yes	53	1	997
6.6.1	win	2022-12-15	13:07:56	13:13:33	335401	62aa26592478d039ddeaaa4c	38423591	1	main_slash	7	advance_on_keypress_SLASH	84	stimuli_distractor_diamondtriangles.svg	stimuli_target_squarediamonds.svg	16	yes	57	0	554
6.6.1	win	2022-12-15	13:07:56	13:13:36	338611	62aa26592478d039ddeaaa4c	38423591	1	main_slash	7	main_slash	85	stimuli_distractor_trianglediamonds.svg	stimuli_distractor_diamondtriangles.svg	36	no	0	1	2000
6.6.1	win	2022-12-15	13:07:56	13:13:36	338611	62aa26592478d039ddeaaa4c	38423591	1	main_slash	7	advance_on_keypress_SLASH	86	stimuli_distractor_trianglediamonds.svg	stimuli_distractor_diamondtriangles.svg	36	no	57	0	532
6.6.1	win	2022-12-15	13:07:56	13:13:38	340736	62aa26592478d039ddeaaa4c	38423591	1	main_slash	7	main_slash	87	stimuli_target_squarediamonds.svg	stimuli_distractor_diamondtriangles.svg	8	yes	53	1	939
6.6.1	win	2022-12-15	13:07:56	13:13:38	340736	62aa26592478d039ddeaaa4c	38423591	1	main_slash	7	advance_on_keypress_SLASH	88	stimuli_target_squarediamonds.svg	stimuli_distractor_diamondtriangles.svg	8	yes	57	0	718
6.6.1	win	2022-12-15	13:07:56	13:13:40	342799	62aa26592478d039ddeaaa4c	38423591	1	main_slash	7	main_slash	89	stimuli_target_diamondcircles.svg	stimuli_distractor_trianglediamonds.svg	19	yes	53	1	694
6.6.1	win	2022-12-15	13:07:56	13:13:40	342799	62aa26592478d039ddeaaa4c	38423591	1	main_slash	7	advance_on_keypress_SLASH	90	stimuli_target_diamondcircles.svg	stimuli_distractor_trianglediamonds.svg	19	yes	57	0	702
6.6.1	win	2022-12-15	13:07:56	13:13:42	345188	62aa26592478d039ddeaaa4c	38423591	1	main_slash	7	main_slash	91	stimuli_distractor_diamondtriangles.svg	stimuli_target_circlediamonds.svg	14	yes	53	1	1024
6.6.1	win	2022-12-15	13:07:56	13:13:42	345188	62aa26592478d039ddeaaa4c	38423591	1	main_slash	7	advance_on_keypress_SLASH	92	stimuli_distractor_diamondtriangles.svg	stimuli_target_circlediamonds.svg	14	yes	57	0	516
6.6.1	win	2022-12-15	13:07:56	13:13:45	347358	62aa26592478d039ddeaaa4c	38423591	1	main_slash	7	main_slash	93	stimuli_distractor_trianglediamonds.svg	stimuli_target_squaretriangles.svg	11	yes	53	1	980
6.6.1	win	2022-12-15	13:07:56	13:13:45	347358	62aa26592478d039ddeaaa4c	38423591	1	main_slash	7	advance_on_keypress_SLASH	94	stimuli_distractor_trianglediamonds.svg	stimuli_target_squaretriangles.svg	11	yes	57	0	401
6.6.1	win	2022-12-15	13:07:56	13:13:47	349297	62aa26592478d039ddeaaa4c	38423591	1	main_slash	7	main_slash	95	stimuli_target_circletriangles.svg	stimuli_distractor_diamondtriangles.svg	5	yes	53	1	895
6.6.1	win	2022-12-15	13:07:56	13:13:47	349297	62aa26592478d039ddeaaa4c	38423591	1	main_slash	7	advance_on_keypress_SLASH	96	stimuli_target_circletriangles.svg	stimuli_distractor_diamondtriangles.svg	5	yes	57	0	457
6.6.1	win	2022-12-15	13:07:56	13:13:49	351282	62aa26592478d039ddeaaa4c	38423591	1	main_slash	7	main_slash	97	stimuli_distractor_trianglediamonds.svg	stimuli_target_trianglesquares.svg	26	yes	53	1	895
6.6.1	win	2022-12-15	13:07:56	13:13:49	351282	62aa26592478d039ddeaaa4c	38423591	1	main_slash	7	advance_on_keypress_SLASH	98	stimuli_distractor_trianglediamonds.svg	stimuli_target_trianglesquares.svg	26	yes	57	0	378
6.6.1	win	2022-12-15	13:07:56	13:13:51	353407	62aa26592478d039ddeaaa4c	38423591	1	main_slash	7	main_slash	99	stimuli_distractor_trianglediamonds.svg	stimuli_distractor_trianglediamonds.svg	34	no	53	0	1094
6.6.1	win	2022-12-15	13:07:56	13:13:51	353407	62aa26592478d039ddeaaa4c	38423591	1	main_slash	7	advance_on_keypress_SLASH	100	stimuli_distractor_trianglediamonds.svg	stimuli_distractor_trianglediamonds.svg	34	no	57	0	507
6.6.1	win	2022-12-15	13:07:56	13:13:53	355473	62aa26592478d039ddeaaa4c	38423591	1	main_slash	7	main_slash	101	stimuli_target_diamondsquares.svg	stimuli_distractor_trianglediamonds.svg	20	yes	53	1	915
6.6.1	win	2022-12-15	13:07:56	13:13:53	355473	62aa26592478d039ddeaaa4c	38423591	1	main_slash	7	advance_on_keypress_SLASH	102	stimuli_target_diamondsquares.svg	stimuli_distractor_trianglediamonds.svg	20	yes	57	0	479
6.6.1	win	2022-12-15	13:07:56	13:13:55	357521	62aa26592478d039ddeaaa4c	38423591	1	main_slash	7	main_slash	103	stimuli_distractor_diamondtriangles.svg	stimuli_target_diamondcircles.svg	31	yes	53	1	928
6.6.1	win	2022-12-15	13:07:56	13:13:55	357521	62aa26592478d039ddeaaa4c	38423591	1	main_slash	7	advance_on_keypress_SLASH	104	stimuli_distractor_diamondtriangles.svg	stimuli_target_diamondcircles.svg	31	yes	57	0	499
6.6.1	win	2022-12-15	13:07:56	13:13:57	359582	62aa26592478d039ddeaaa4c	38423591	1	main_slash	7	main_slash	105	stimuli_target_diamondcircles.svg	stimuli_distractor_diamondtriangles.svg	23	yes	53	1	920
6.6.1	win	2022-12-15	13:07:56	13:13:57	359582	62aa26592478d039ddeaaa4c	38423591	1	main_slash	7	advance_on_keypress_SLASH	106	stimuli_target_diamondcircles.svg	stimuli_distractor_diamondtriangles.svg	23	yes	57	0	489
6.6.1	win	2022-12-15	13:07:56	13:13:59	361738	62aa26592478d039ddeaaa4c	38423591	1	main_slash	7	main_slash	107	stimuli_target_trianglesquares.svg	stimuli_distractor_diamondtriangles.svg	22	yes	53	1	1024
6.6.1	win	2022-12-15	13:07:56	13:13:59	361738	62aa26592478d039ddeaaa4c	38423591	1	main_slash	7	advance_on_keypress_SLASH	108	stimuli_target_trianglesquares.svg	stimuli_distractor_diamondtriangles.svg	22	yes	57	0	560
6.6.1	win	2022-12-15	13:07:56	13:14:01	363922	62aa26592478d039ddeaaa4c	38423591	1	main_slash	7	main_slash	109	stimuli_distractor_trianglediamonds.svg	stimuli_target_squarediamonds.svg	12	yes	53	1	976
6.6.1	win	2022-12-15	13:07:56	13:14:01	363922	62aa26592478d039ddeaaa4c	38423591	1	main_slash	7	advance_on_keypress_SLASH	110	stimuli_distractor_trianglediamonds.svg	stimuli_target_squarediamonds.svg	12	yes	57	0	414
6.6.1	win	2022-12-15	13:07:56	13:14:03	365923	62aa26592478d039ddeaaa4c	38423591	1	main_slash	7	main_slash	111	stimuli_distractor_diamondtriangles.svg	stimuli_target_circletriangles.svg	13	yes	53	1	923
6.6.1	win	2022-12-15	13:07:56	13:14:03	365923	62aa26592478d039ddeaaa4c	38423591	1	main_slash	7	advance_on_keypress_SLASH	112	stimuli_distractor_diamondtriangles.svg	stimuli_target_circletriangles.svg	13	yes	57	0	371
6.6.1	win	2022-12-15	13:07:56	13:14:06	368947	62aa26592478d039ddeaaa4c	38423591	1	main_slash	7	main_slash	113	stimuli_distractor_diamondtriangles.svg	stimuli_distractor_diamondtriangles.svg	40	no	0	1	2000
6.6.1	win	2022-12-15	13:07:56	13:14:06	368947	62aa26592478d039ddeaaa4c	38423591	1	main_slash	7	advance_on_keypress_SLASH	114	stimuli_distractor_diamondtriangles.svg	stimuli_distractor_diamondtriangles.svg	40	no	57	0	571
6.6.1	win	2022-12-15	13:07:56	13:14:08	371012	62aa26592478d039ddeaaa4c	38423591	1	main_slash	7	main_slash	115	stimuli_target_circlediamonds.svg	stimuli_distractor_diamondtriangles.svg	6	yes	53	1	855
6.6.1	win	2022-12-15	13:07:56	13:14:08	371012	62aa26592478d039ddeaaa4c	38423591	1	main_slash	7	advance_on_keypress_SLASH	116	stimuli_target_circlediamonds.svg	stimuli_distractor_diamondtriangles.svg	6	yes	57	0	676
6.6.1	win	2022-12-15	13:07:56	13:14:12	374345	62aa26592478d039ddeaaa4c	38423591	1	main_slash	7	main_slash	117	stimuli_distractor_trianglediamonds.svg	stimuli_distractor_trianglediamonds.svg	33	no	0	1	2000
6.6.1	win	2022-12-15	13:07:56	13:14:12	374345	62aa26592478d039ddeaaa4c	38423591	1	main_slash	7	advance_on_keypress_SLASH	118	stimuli_distractor_trianglediamonds.svg	stimuli_distractor_trianglediamonds.svg	33	no	57	0	510
6.6.1	win	2022-12-15	13:07:56	13:14:14	376376	62aa26592478d039ddeaaa4c	38423591	1	main_slash	7	main_slash	119	stimuli_target_trianglecircles.svg	stimuli_distractor_diamondtriangles.svg	21	yes	53	1	853
6.6.1	win	2022-12-15	13:07:56	13:14:14	376376	62aa26592478d039ddeaaa4c	38423591	1	main_slash	7	advance_on_keypress_SLASH	120	stimuli_target_trianglecircles.svg	stimuli_distractor_diamondtriangles.svg	21	yes	57	0	461
6.6.1	win	2022-12-15	13:07:56	13:14:16	378501	62aa26592478d039ddeaaa4c	38423591	1	main_slash	7	main_slash	121	stimuli_distractor_diamondtriangles.svg	stimuli_target_squaretriangles.svg	15	yes	53	1	1005
6.6.1	win	2022-12-15	13:07:56	13:14:16	378501	62aa26592478d039ddeaaa4c	38423591	1	main_slash	7	advance_on_keypress_SLASH	122	stimuli_distractor_diamondtriangles.svg	stimuli_target_squaretriangles.svg	15	yes	57	0	469
6.6.1	win	2022-12-15	13:07:56	13:14:18	380703	62aa26592478d039ddeaaa4c	38423591	1	main_slash	7	main_slash	123	stimuli_target_squaretriangles.svg	stimuli_distractor_trianglediamonds.svg	3	yes	53	1	1055
6.6.1	win	2022-12-15	13:07:56	13:14:18	380703	62aa26592478d039ddeaaa4c	38423591	1	main_slash	7	advance_on_keypress_SLASH	124	stimuli_target_squaretriangles.svg	stimuli_distractor_trianglediamonds.svg	3	yes	57	0	866
6.6.1	win	2022-12-15	13:07:56	13:14:20	383085	62aa26592478d039ddeaaa4c	38423591	1	main_slash	7	main_slash	125	stimuli_distractor_trianglediamonds.svg	stimuli_target_trianglecircles.svg	25	yes	53	1	866
6.6.1	win	2022-12-15	13:07:56	13:14:20	383085	62aa26592478d039ddeaaa4c	38423591	1	main_slash	7	advance_on_keypress_SLASH	126	stimuli_distractor_trianglediamonds.svg	stimuli_target_trianglecircles.svg	25	yes	57	0	446
6.6.1	win	2022-12-15	13:07:56	13:14:22	385182	62aa26592478d039ddeaaa4c	38423591	1	main_slash	7	main_slash	127	stimuli_distractor_trianglediamonds.svg	stimuli_target_diamondcircles.svg	27	yes	53	1	994
6.6.1	win	2022-12-15	13:07:56	13:14:22	385182	62aa26592478d039ddeaaa4c	38423591	1	main_slash	7	advance_on_keypress_SLASH	128	stimuli_distractor_trianglediamonds.svg	stimuli_target_diamondcircles.svg	27	yes	57	0	573
6.6.1	win	2022-12-15	13:07:56	13:14:26	388411	62aa26592478d039ddeaaa4c	38423591	1	main_slash	7	main_slash	129	stimuli_distractor_diamondtriangles.svg	stimuli_distractor_trianglediamonds.svg	37	no	0	1	2000
6.6.1	win	2022-12-15	13:07:56	13:14:26	388411	62aa26592478d039ddeaaa4c	38423591	1	main_slash	7	advance_on_keypress_SLASH	130	stimuli_distractor_diamondtriangles.svg	stimuli_distractor_trianglediamonds.svg	37	no	57	0	340
6.6.1	win	2022-12-15	13:07:56	13:14:28	390305	62aa26592478d039ddeaaa4c	38423591	1	main_slash	7	main_slash	131	stimuli_distractor_trianglediamonds.svg	stimuli_target_diamondsquares.svg	28	yes	53	1	913
6.6.1	win	2022-12-15	13:07:56	13:14:28	390305	62aa26592478d039ddeaaa4c	38423591	1	main_slash	7	advance_on_keypress_SLASH	132	stimuli_distractor_trianglediamonds.svg	stimuli_target_diamondsquares.svg	28	yes	57	0	569
6.6.1	win	2022-12-15	13:07:56	13:14:30	392335	62aa26592478d039ddeaaa4c	38423591	1	main_slash	7	main_slash	133	stimuli_distractor_diamondtriangles.svg	stimuli_target_trianglecircles.svg	29	yes	53	1	806
6.6.1	win	2022-12-15	13:07:56	13:14:30	392335	62aa26592478d039ddeaaa4c	38423591	1	main_slash	7	advance_on_keypress_SLASH	134	stimuli_distractor_diamondtriangles.svg	stimuli_target_trianglecircles.svg	29	yes	57	0	369
6.6.1	win	2022-12-15	13:07:56	13:14:32	394305	62aa26592478d039ddeaaa4c	38423591	1	main_slash	7	main_slash	135	stimuli_distractor_diamondtriangles.svg	stimuli_target_diamondsquares.svg	32	yes	53	1	950
6.6.1	win	2022-12-15	13:07:56	13:14:32	394305	62aa26592478d039ddeaaa4c	38423591	1	main_slash	7	advance_on_keypress_SLASH	136	stimuli_distractor_diamondtriangles.svg	stimuli_target_diamondsquares.svg	32	yes	57	0	355
6.6.1	win	2022-12-15	13:07:56	13:14:33	396135	62aa26592478d039ddeaaa4c	38423591	1	main_slash	7	main_slash	137	stimuli_target_squaretriangles.svg	stimuli_distractor_diamondtriangles.svg	7	yes	53	1	830
6.6.1	win	2022-12-15	13:07:56	13:14:33	396135	62aa26592478d039ddeaaa4c	38423591	1	main_slash	7	advance_on_keypress_SLASH	138	stimuli_target_squaretriangles.svg	stimuli_distractor_diamondtriangles.svg	7	yes	57	0	837
6.6.1	win	2022-12-15	13:07:56	13:14:37	399624	62aa26592478d039ddeaaa4c	38423591	1	main_slash	7	main_slash	139	stimuli_distractor_diamondtriangles.svg	stimuli_distractor_diamondtriangles.svg	39	no	0	1	2000
6.6.1	win	2022-12-15	13:07:56	13:14:37	399624	62aa26592478d039ddeaaa4c	38423591	1	main_slash	7	advance_on_keypress_SLASH	140	stimuli_distractor_diamondtriangles.svg	stimuli_distractor_diamondtriangles.svg	39	no	57	0	339
6.6.1	win	2022-12-15	13:07:56	13:14:39	401328	62aa26592478d039ddeaaa4c	38423591	1	main_slash	7	main_slash	141	stimuli_target_circlediamonds.svg	stimuli_distractor_trianglediamonds.svg	2	yes	53	1	724
6.6.1	win	2022-12-15	13:07:56	13:14:39	401328	62aa26592478d039ddeaaa4c	38423591	1	main_slash	7	advance_on_keypress_SLASH	142	stimuli_target_circlediamonds.svg	stimuli_distractor_trianglediamonds.svg	2	yes	57	0	544
6.6.1	win	2022-12-15	13:07:56	13:14:41	403346	62aa26592478d039ddeaaa4c	38423591	1	main_slash	7	main_slash	143	stimuli_distractor_trianglediamonds.svg	stimuli_target_circlediamonds.svg	10	yes	53	1	814
6.6.1	win	2022-12-15	13:07:56	13:14:41	403346	62aa26592478d039ddeaaa4c	38423591	1	main_slash	7	advance_on_keypress_SLASH	144	stimuli_distractor_trianglediamonds.svg	stimuli_target_circlediamonds.svg	10	yes	57	0	267
6.6.1	win	2022-12-15	13:07:56	13:14:42	405160	62aa26592478d039ddeaaa4c	38423591	1	main_slash	7	main_slash	145	stimuli_distractor_trianglediamonds.svg	stimuli_target_circletriangles.svg	9	yes	53	1	902
6.6.1	win	2022-12-15	13:07:56	13:14:42	405160	62aa26592478d039ddeaaa4c	38423591	1	main_slash	7	advance_on_keypress_SLASH	146	stimuli_distractor_trianglediamonds.svg	stimuli_target_circletriangles.svg	9	yes	57	0	334
6.6.1	win	2022-12-15	13:07:56	13:14:45	408143	62aa26592478d039ddeaaa4c	38423591	1	main_slash	7	main_slash	147	stimuli_distractor_trianglediamonds.svg	stimuli_distractor_diamondtriangles.svg	35	no	0	1	2000
6.6.1	win	2022-12-15	13:07:56	13:14:45	408143	62aa26592478d039ddeaaa4c	38423591	1	main_slash	7	advance_on_keypress_SLASH	148	stimuli_distractor_trianglediamonds.svg	stimuli_distractor_diamondtriangles.svg	35	no	57	0	530
6.6.1	win	2022-12-15	13:07:56	13:14:49	411313	62aa26592478d039ddeaaa4c	38423591	1	main_slash	7	main_slash	149	stimuli_distractor_diamondtriangles.svg	stimuli_distractor_trianglediamonds.svg	38	no	0	1	2000
6.6.1	win	2022-12-15	13:07:56	13:14:49	411313	62aa26592478d039ddeaaa4c	38423591	1	main_slash	7	advance_on_keypress_SLASH	150	stimuli_distractor_diamondtriangles.svg	stimuli_distractor_trianglediamonds.svg	38	no	57	0	318
6.6.1	win	2022-12-15	13:07:56	13:14:50	413163	62aa26592478d039ddeaaa4c	38423591	1	main_slash	7	main_slash	151	stimuli_target_circletriangles.svg	stimuli_distractor_trianglediamonds.svg	1	yes	53	1	890
6.6.1	win	2022-12-15	13:07:56	13:14:50	413163	62aa26592478d039ddeaaa4c	38423591	1	main_slash	7	advance_on_keypress_SLASH	152	stimuli_target_circletriangles.svg	stimuli_distractor_trianglediamonds.svg	1	yes	57	0	408
6.6.1	win	2022-12-15	13:07:56	13:14:53	415288	62aa26592478d039ddeaaa4c	38423591	1	main_slash	7	main_slash	153	stimuli_target_diamondsquares.svg	stimuli_distractor_diamondtriangles.svg	24	yes	53	1	1069
6.6.1	win	2022-12-15	13:07:56	13:14:53	415288	62aa26592478d039ddeaaa4c	38423591	1	main_slash	7	advance_on_keypress_SLASH	154	stimuli_target_diamondsquares.svg	stimuli_distractor_diamondtriangles.svg	24	yes	57	0	407
6.6.1	win	2022-12-15	13:07:56	13:14:55	417295	62aa26592478d039ddeaaa4c	38423591	1	main_slash	7	main_slash	155	stimuli_target_trianglesquares.svg	stimuli_distractor_trianglediamonds.svg	18	yes	53	1	942
6.6.1	win	2022-12-15	13:07:56	13:14:55	417295	62aa26592478d039ddeaaa4c	38423591	1	main_slash	7	advance_on_keypress_SLASH	156	stimuli_target_trianglesquares.svg	stimuli_distractor_trianglediamonds.svg	18	yes	57	0	332
6.6.1	win	2022-12-15	13:07:56	13:14:56	419178	62aa26592478d039ddeaaa4c	38423591	1	main_slash	7	main_slash	157	stimuli_target_trianglecircles.svg	stimuli_distractor_trianglediamonds.svg	17	yes	53	1	906
6.6.1	win	2022-12-15	13:07:56	13:14:56	419178	62aa26592478d039ddeaaa4c	38423591	1	main_slash	7	advance_on_keypress_SLASH	158	stimuli_target_trianglecircles.svg	stimuli_distractor_trianglediamonds.svg	17	yes	57	0	365
6.6.1	win	2022-12-15	13:07:56	13:14:58	421088	62aa26592478d039ddeaaa4c	38423591	1	main_slash	7	main_slash	159	stimuli_distractor_diamondtriangles.svg	stimuli_target_trianglesquares.svg	30	yes	53	1	888
6.6.1	win	2022-12-15	13:07:56	13:14:58	421088	62aa26592478d039ddeaaa4c	38423591	1	main_slash	7	advance_on_keypress_SLASH	160	stimuli_distractor_diamondtriangles.svg	stimuli_target_trianglesquares.svg	30	yes	57	0	333
6.6.1	win	2022-12-15	13:07:56	13:15:13	435958	62aa26592478d039ddeaaa4c	38423591	1	practice_z	9	practice_z	1	stimuli_target_squarediamonds.svg	stimuli_distractor_diamondtriangles.svg	2	yes	44	1	867
6.6.1	win	2022-12-15	13:07:56	13:15:13	435958	62aa26592478d039ddeaaa4c	38423591	1	practice_z	9	advance_on_keypress_ZEE	2	stimuli_target_squarediamonds.svg	stimuli_distractor_diamondtriangles.svg	2	yes	57	0	451
6.6.1	win	2022-12-15	13:07:56	13:15:16	438972	62aa26592478d039ddeaaa4c	38423591	1	practice_z	9	practice_z	3	stimuli_target_circlediamonds.svg	stimuli_distractor_trianglediamonds.svg	4	yes	44	1	893
6.6.1	win	2022-12-15	13:07:56	13:15:16	438972	62aa26592478d039ddeaaa4c	38423591	1	practice_z	9	advance_on_keypress_ZEE	4	stimuli_target_circlediamonds.svg	stimuli_distractor_trianglediamonds.svg	4	yes	57	0	344
6.6.1	win	2022-12-15	13:07:56	13:15:19	441872	62aa26592478d039ddeaaa4c	38423591	1	practice_z	9	practice_z	5	stimuli_target_diamondsquares.svg	stimuli_distractor_trianglediamonds.svg	6	yes	44	1	890
6.6.1	win	2022-12-15	13:07:56	13:15:19	441872	62aa26592478d039ddeaaa4c	38423591	1	practice_z	9	advance_on_keypress_ZEE	6	stimuli_target_diamondsquares.svg	stimuli_distractor_trianglediamonds.svg	6	yes	57	0	848
6.6.1	win	2022-12-15	13:07:56	13:15:23	445331	62aa26592478d039ddeaaa4c	38423591	1	practice_z	9	practice_z	7	stimuli_distractor_trianglediamonds.svg	stimuli_target_squarediamonds.svg	11	yes	44	1	948
6.6.1	win	2022-12-15	13:07:56	13:15:23	445331	62aa26592478d039ddeaaa4c	38423591	1	practice_z	9	advance_on_keypress_ZEE	8	stimuli_distractor_trianglediamonds.svg	stimuli_target_squarediamonds.svg	11	yes	57	0	430
6.6.1	win	2022-12-15	13:07:56	13:15:27	449403	62aa26592478d039ddeaaa4c	38423591	1	practice_z	9	practice_z	9	stimuli_distractor_trianglediamonds.svg	stimuli_distractor_trianglediamonds.svg	15	no	0	1	2000
6.6.1	win	2022-12-15	13:07:56	13:15:27	449403	62aa26592478d039ddeaaa4c	38423591	1	practice_z	9	advance_on_keypress_ZEE	10	stimuli_distractor_trianglediamonds.svg	stimuli_distractor_trianglediamonds.svg	15	no	57	0	394
6.6.1	win	2022-12-15	13:07:56	13:15:30	452388	62aa26592478d039ddeaaa4c	38423591	1	practice_z	9	practice_z	11	stimuli_distractor_diamondtriangles.svg	stimuli_target_diamondcircles.svg	8	yes	44	1	932
6.6.1	win	2022-12-15	13:07:56	13:15:30	452388	62aa26592478d039ddeaaa4c	38423591	1	practice_z	9	advance_on_keypress_ZEE	12	stimuli_distractor_diamondtriangles.svg	stimuli_target_diamondcircles.svg	8	yes	57	0	426
6.6.1	win	2022-12-15	13:07:56	13:15:33	455831	62aa26592478d039ddeaaa4c	38423591	1	practice_z	9	practice_z	13	stimuli_distractor_diamondtriangles.svg	stimuli_distractor_trianglediamonds.svg	14	no	44	0	1354
6.6.1	win	2022-12-15	13:07:56	13:15:33	455831	62aa26592478d039ddeaaa4c	38423591	1	practice_z	9	advance_on_keypress_ZEE	14	stimuli_distractor_diamondtriangles.svg	stimuli_distractor_trianglediamonds.svg	14	no	57	0	346
6.6.1	win	2022-12-15	13:07:56	13:15:37	459848	62aa26592478d039ddeaaa4c	38423591	1	practice_z	9	practice_z	15	stimuli_distractor_diamondtriangles.svg	stimuli_distractor_diamondtriangles.svg	13	no	0	1	2000
6.6.1	win	2022-12-15	13:07:56	13:15:37	459848	62aa26592478d039ddeaaa4c	38423591	1	practice_z	9	advance_on_keypress_ZEE	16	stimuli_distractor_diamondtriangles.svg	stimuli_distractor_diamondtriangles.svg	13	no	57	0	390
6.6.1	win	2022-12-15	13:07:56	13:15:41	463900	62aa26592478d039ddeaaa4c	38423591	1	practice_z	9	practice_z	17	stimuli_distractor_trianglediamonds.svg	stimuli_distractor_diamondtriangles.svg	16	no	0	1	2000
6.6.1	win	2022-12-15	13:07:56	13:15:41	463900	62aa26592478d039ddeaaa4c	38423591	1	practice_z	9	advance_on_keypress_ZEE	18	stimuli_distractor_trianglediamonds.svg	stimuli_distractor_diamondtriangles.svg	16	no	57	0	397
6.6.1	win	2022-12-15	13:07:56	13:15:44	466997	62aa26592478d039ddeaaa4c	38423591	1	practice_z	9	practice_z	19	stimuli_distractor_diamondtriangles.svg	stimuli_target_trianglecircles.svg	9	yes	44	1	1077
6.6.1	win	2022-12-15	13:07:56	13:15:44	466997	62aa26592478d039ddeaaa4c	38423591	1	practice_z	9	advance_on_keypress_ZEE	20	stimuli_distractor_diamondtriangles.svg	stimuli_target_trianglecircles.svg	9	yes	57	0	438
6.6.1	win	2022-12-15	13:07:56	13:15:47	470194	62aa26592478d039ddeaaa4c	38423591	1	practice_z	9	practice_z	21	stimuli_distractor_trianglediamonds.svg	stimuli_target_circlediamonds.svg	10	yes	44	1	1104
6.6.1	win	2022-12-15	13:07:56	13:15:47	470194	62aa26592478d039ddeaaa4c	38423591	1	practice_z	9	advance_on_keypress_ZEE	22	stimuli_distractor_trianglediamonds.svg	stimuli_target_circlediamonds.svg	10	yes	57	0	461
6.6.1	win	2022-12-15	13:07:56	13:15:51	473295	62aa26592478d039ddeaaa4c	38423591	1	practice_z	9	practice_z	23	stimuli_distractor_trianglediamonds.svg	stimuli_target_diamondcircles.svg	12	yes	44	1	963
6.6.1	win	2022-12-15	13:07:56	13:15:51	473295	62aa26592478d039ddeaaa4c	38423591	1	practice_z	9	advance_on_keypress_ZEE	24	stimuli_distractor_trianglediamonds.svg	stimuli_target_diamondcircles.svg	12	yes	57	0	323
6.6.1	win	2022-12-15	13:07:56	13:15:54	476257	62aa26592478d039ddeaaa4c	38423591	1	practice_z	9	practice_z	25	stimuli_target_squarediamonds.svg	stimuli_distractor_trianglediamonds.svg	5	yes	44	1	993
6.6.1	win	2022-12-15	13:07:56	13:15:54	476257	62aa26592478d039ddeaaa4c	38423591	1	practice_z	9	advance_on_keypress_ZEE	26	stimuli_target_squarediamonds.svg	stimuli_distractor_trianglediamonds.svg	5	yes	57	0	429
6.6.1	win	2022-12-15	13:07:56	13:15:57	479228	62aa26592478d039ddeaaa4c	38423591	1	practice_z	9	practice_z	27	stimuli_target_diamondsquares.svg	stimuli_distractor_diamondtriangles.svg	3	yes	44	1	895
6.6.1	win	2022-12-15	13:07:56	13:15:57	479228	62aa26592478d039ddeaaa4c	38423591	1	practice_z	9	advance_on_keypress_ZEE	28	stimuli_target_diamondsquares.svg	stimuli_distractor_diamondtriangles.svg	3	yes	57	0	410
6.6.1	win	2022-12-15	13:07:56	13:16:00	482441	62aa26592478d039ddeaaa4c	38423591	1	practice_z	9	practice_z	29	stimuli_target_circlediamonds.svg	stimuli_distractor_diamondtriangles.svg	1	yes	44	1	1155
6.6.1	win	2022-12-15	13:07:56	13:16:00	482441	62aa26592478d039ddeaaa4c	38423591	1	practice_z	9	advance_on_keypress_ZEE	30	stimuli_target_circlediamonds.svg	stimuli_distractor_diamondtriangles.svg	1	yes	57	0	324
6.6.1	win	2022-12-15	13:07:56	13:16:03	485596	62aa26592478d039ddeaaa4c	38423591	1	practice_z	9	practice_z	31	stimuli_distractor_diamondtriangles.svg	stimuli_target_circletriangles.svg	7	yes	44	1	1161
6.6.1	win	2022-12-15	13:07:56	13:16:03	485596	62aa26592478d039ddeaaa4c	38423591	1	practice_z	9	advance_on_keypress_ZEE	32	stimuli_distractor_diamondtriangles.svg	stimuli_target_circletriangles.svg	7	yes	57	0	462
6.6.1	win	2022-12-15	13:07:56	13:16:15	497548	62aa26592478d039ddeaaa4c	38423591	1	main_z	11	main_z	1	stimuli_target_trianglesquares.svg	stimuli_distractor_trianglediamonds.svg	18	yes	44	1	846
6.6.1	win	2022-12-15	13:07:56	13:16:15	497548	62aa26592478d039ddeaaa4c	38423591	1	main_z	11	advance_on_keypress_ZEE	2	stimuli_target_trianglesquares.svg	stimuli_distractor_trianglediamonds.svg	18	yes	57	0	561
6.6.1	win	2022-12-15	13:07:56	13:16:17	499625	62aa26592478d039ddeaaa4c	38423591	1	main_z	11	main_z	3	stimuli_distractor_trianglediamonds.svg	stimuli_target_trianglesquares.svg	26	yes	44	1	871
6.6.1	win	2022-12-15	13:07:56	13:16:17	499625	62aa26592478d039ddeaaa4c	38423591	1	main_z	11	advance_on_keypress_ZEE	4	stimuli_distractor_trianglediamonds.svg	stimuli_target_trianglesquares.svg	26	yes	57	0	435
6.6.1	win	2022-12-15	13:07:56	13:16:19	501853	62aa26592478d039ddeaaa4c	38423591	1	main_z	11	main_z	5	stimuli_distractor_trianglediamonds.svg	stimuli_distractor_diamondtriangles.svg	36	no	44	0	1147
6.6.1	win	2022-12-15	13:07:56	13:16:19	501853	62aa26592478d039ddeaaa4c	38423591	1	main_z	11	advance_on_keypress_ZEE	6	stimuli_distractor_trianglediamonds.svg	stimuli_distractor_diamondtriangles.svg	36	no	57	0	329
6.6.1	win	2022-12-15	13:07:56	13:16:21	503747	62aa26592478d039ddeaaa4c	38423591	1	main_z	11	main_z	7	stimuli_target_trianglecircles.svg	stimuli_distractor_diamondtriangles.svg	21	yes	44	1	939
6.6.1	win	2022-12-15	13:07:56	13:16:21	503747	62aa26592478d039ddeaaa4c	38423591	1	main_z	11	advance_on_keypress_ZEE	8	stimuli_target_trianglecircles.svg	stimuli_distractor_diamondtriangles.svg	21	yes	57	0	352
6.6.1	win	2022-12-15	13:07:56	13:16:24	506750	62aa26592478d039ddeaaa4c	38423591	1	main_z	11	main_z	9	stimuli_distractor_diamondtriangles.svg	stimuli_distractor_diamondtriangles.svg	39	no	0	1	2000
6.6.1	win	2022-12-15	13:07:56	13:16:24	506750	62aa26592478d039ddeaaa4c	38423591	1	main_z	11	advance_on_keypress_ZEE	10	stimuli_distractor_diamondtriangles.svg	stimuli_distractor_diamondtriangles.svg	39	no	57	0	364
6.6.1	win	2022-12-15	13:07:56	13:16:27	509763	62aa26592478d039ddeaaa4c	38423591	1	main_z	11	main_z	11	stimuli_distractor_diamondtriangles.svg	stimuli_distractor_diamondtriangles.svg	40	no	0	1	2000
6.6.1	win	2022-12-15	13:07:56	13:16:27	509763	62aa26592478d039ddeaaa4c	38423591	1	main_z	11	advance_on_keypress_ZEE	12	stimuli_distractor_diamondtriangles.svg	stimuli_distractor_diamondtriangles.svg	40	no	57	0	334
6.6.1	win	2022-12-15	13:07:56	13:16:29	511681	62aa26592478d039ddeaaa4c	38423591	1	main_z	11	main_z	13	stimuli_target_circlediamonds.svg	stimuli_distractor_trianglediamonds.svg	2	yes	44	1	923
6.6.1	win	2022-12-15	13:07:56	13:16:29	511681	62aa26592478d039ddeaaa4c	38423591	1	main_z	11	advance_on_keypress_ZEE	14	stimuli_target_circlediamonds.svg	stimuli_distractor_trianglediamonds.svg	2	yes	57	0	595
6.6.1	win	2022-12-15	13:07:56	13:16:31	513896	62aa26592478d039ddeaaa4c	38423591	1	main_z	11	main_z	15	stimuli_distractor_trianglediamonds.svg	stimuli_target_squaretriangles.svg	11	yes	44	1	978
6.6.1	win	2022-12-15	13:07:56	13:16:31	513896	62aa26592478d039ddeaaa4c	38423591	1	main_z	11	advance_on_keypress_ZEE	16	stimuli_distractor_trianglediamonds.svg	stimuli_target_squaretriangles.svg	11	yes	57	0	462
6.6.1	win	2022-12-15	13:07:56	13:16:34	517016	62aa26592478d039ddeaaa4c	38423591	1	main_z	11	main_z	17	stimuli_distractor_diamondtriangles.svg	stimuli_target_diamondsquares.svg	32	yes	0	0	2000
6.6.1	win	2022-12-15	13:07:56	13:16:34	517016	62aa26592478d039ddeaaa4c	38423591	1	main_z	11	advance_on_keypress_ZEE	18	stimuli_distractor_diamondtriangles.svg	stimuli_target_diamondsquares.svg	32	yes	57	0	410
6.6.1	win	2022-12-15	13:07:56	13:16:36	519048	62aa26592478d039ddeaaa4c	38423591	1	main_z	11	main_z	19	stimuli_distractor_diamondtriangles.svg	stimuli_target_trianglesquares.svg	30	yes	44	1	978
6.6.1	win	2022-12-15	13:07:56	13:16:36	519048	62aa26592478d039ddeaaa4c	38423591	1	main_z	11	advance_on_keypress_ZEE	20	stimuli_distractor_diamondtriangles.svg	stimuli_target_trianglesquares.svg	30	yes	57	0	347
6.6.1	win	2022-12-15	13:07:56	13:16:38	520971	62aa26592478d039ddeaaa4c	38423591	1	main_z	11	main_z	21	stimuli_target_circletriangles.svg	stimuli_distractor_diamondtriangles.svg	5	yes	44	1	925
6.6.1	win	2022-12-15	13:07:56	13:16:38	520971	62aa26592478d039ddeaaa4c	38423591	1	main_z	11	advance_on_keypress_ZEE	22	stimuli_target_circletriangles.svg	stimuli_distractor_diamondtriangles.svg	5	yes	57	0	425
6.6.1	win	2022-12-15	13:07:56	13:16:40	523131	62aa26592478d039ddeaaa4c	38423591	1	main_z	11	main_z	23	stimuli_distractor_diamondtriangles.svg	stimuli_target_squarediamonds.svg	16	yes	44	1	1102
6.6.1	win	2022-12-15	13:07:56	13:16:40	523131	62aa26592478d039ddeaaa4c	38423591	1	main_z	11	advance_on_keypress_ZEE	24	stimuli_distractor_diamondtriangles.svg	stimuli_target_squarediamonds.svg	16	yes	57	0	287
6.6.1	win	2022-12-15	13:07:56	13:16:43	525236	62aa26592478d039ddeaaa4c	38423591	1	main_z	11	main_z	25	stimuli_distractor_trianglediamonds.svg	stimuli_target_diamondsquares.svg	28	yes	44	1	1171
6.6.1	win	2022-12-15	13:07:56	13:16:43	525236	62aa26592478d039ddeaaa4c	38423591	1	main_z	11	advance_on_keypress_ZEE	26	stimuli_distractor_trianglediamonds.svg	stimuli_target_diamondsquares.svg	28	yes	57	0	331
6.6.1	win	2022-12-15	13:07:56	13:16:45	527299	62aa26592478d039ddeaaa4c	38423591	1	main_z	11	main_z	27	stimuli_distractor_trianglediamonds.svg	stimuli_target_squarediamonds.svg	12	yes	44	1	1081
6.6.1	win	2022-12-15	13:07:56	13:16:45	527299	62aa26592478d039ddeaaa4c	38423591	1	main_z	11	advance_on_keypress_ZEE	28	stimuli_distractor_trianglediamonds.svg	stimuli_target_squarediamonds.svg	12	yes	57	0	464
6.6.1	win	2022-12-15	13:07:56	13:16:47	529501	62aa26592478d039ddeaaa4c	38423591	1	main_z	11	main_z	29	stimuli_target_squarediamonds.svg	stimuli_distractor_trianglediamonds.svg	4	yes	44	1	1084
6.6.1	win	2022-12-15	13:07:56	13:16:47	529501	62aa26592478d039ddeaaa4c	38423591	1	main_z	11	advance_on_keypress_ZEE	30	stimuli_target_squarediamonds.svg	stimuli_distractor_trianglediamonds.svg	4	yes	57	0	321
6.6.1	win	2022-12-15	13:07:56	13:16:49	531703	62aa26592478d039ddeaaa4c	38423591	1	main_z	11	main_z	31	stimuli_target_trianglesquares.svg	stimuli_distractor_diamondtriangles.svg	22	yes	44	1	1234
6.6.1	win	2022-12-15	13:07:56	13:16:49	531703	62aa26592478d039ddeaaa4c	38423591	1	main_z	11	advance_on_keypress_ZEE	32	stimuli_target_trianglesquares.svg	stimuli_distractor_diamondtriangles.svg	22	yes	57	0	365
6.6.1	win	2022-12-15	13:07:56	13:16:51	533750	62aa26592478d039ddeaaa4c	38423591	1	main_z	11	main_z	33	stimuli_distractor_trianglediamonds.svg	stimuli_target_trianglecircles.svg	25	yes	44	1	1019
6.6.1	win	2022-12-15	13:07:56	13:16:51	533750	62aa26592478d039ddeaaa4c	38423591	1	main_z	11	advance_on_keypress_ZEE	34	stimuli_distractor_trianglediamonds.svg	stimuli_target_trianglecircles.svg	25	yes	57	0	389
6.6.1	win	2022-12-15	13:07:56	13:16:53	535755	62aa26592478d039ddeaaa4c	38423591	1	main_z	11	main_z	35	stimuli_target_circlediamonds.svg	stimuli_distractor_diamondtriangles.svg	6	yes	44	1	981
6.6.1	win	2022-12-15	13:07:56	13:16:53	535755	62aa26592478d039ddeaaa4c	38423591	1	main_z	11	advance_on_keypress_ZEE	36	stimuli_target_circlediamonds.svg	stimuli_distractor_diamondtriangles.svg	6	yes	57	0	382
6.6.1	win	2022-12-15	13:07:56	13:16:55	537852	62aa26592478d039ddeaaa4c	38423591	1	main_z	11	main_z	37	stimuli_distractor_diamondtriangles.svg	stimuli_target_circlediamonds.svg	14	yes	44	1	1076
6.6.1	win	2022-12-15	13:07:56	13:16:55	537852	62aa26592478d039ddeaaa4c	38423591	1	main_z	11	advance_on_keypress_ZEE	38	stimuli_distractor_diamondtriangles.svg	stimuli_target_circlediamonds.svg	14	yes	57	0	279
6.6.1	win	2022-12-15	13:07:56	13:16:57	539814	62aa26592478d039ddeaaa4c	38423591	1	main_z	11	main_z	39	stimuli_target_circletriangles.svg	stimuli_distractor_trianglediamonds.svg	1	yes	44	1	1029
6.6.1	win	2022-12-15	13:07:56	13:16:57	539814	62aa26592478d039ddeaaa4c	38423591	1	main_z	11	advance_on_keypress_ZEE	40	stimuli_target_circletriangles.svg	stimuli_distractor_trianglediamonds.svg	1	yes	57	0	392
6.6.1	win	2022-12-15	13:07:56	13:17:00	542870	62aa26592478d039ddeaaa4c	38423591	1	main_z	11	main_z	41	stimuli_distractor_trianglediamonds.svg	stimuli_distractor_trianglediamonds.svg	33	no	0	1	2000
6.6.1	win	2022-12-15	13:07:56	13:17:00	542870	62aa26592478d039ddeaaa4c	38423591	1	main_z	11	advance_on_keypress_ZEE	42	stimuli_distractor_trianglediamonds.svg	stimuli_distractor_trianglediamonds.svg	33	no	57	0	391
6.6.1	win	2022-12-15	13:07:56	13:17:02	544876	62aa26592478d039ddeaaa4c	38423591	1	main_z	11	main_z	43	stimuli_distractor_diamondtriangles.svg	stimuli_distractor_trianglediamonds.svg	37	no	44	0	960
6.6.1	win	2022-12-15	13:07:56	13:17:02	544876	62aa26592478d039ddeaaa4c	38423591	1	main_z	11	advance_on_keypress_ZEE	44	stimuli_distractor_diamondtriangles.svg	stimuli_distractor_trianglediamonds.svg	37	no	57	0	517
6.6.1	win	2022-12-15	13:07:56	13:17:05	547645	62aa26592478d039ddeaaa4c	38423591	1	main_z	11	main_z	45	stimuli_distractor_diamondtriangles.svg	stimuli_target_diamondcircles.svg	31	yes	44	1	1610
6.6.1	win	2022-12-15	13:07:56	13:17:05	547645	62aa26592478d039ddeaaa4c	38423591	1	main_z	11	advance_on_keypress_ZEE	46	stimuli_distractor_diamondtriangles.svg	stimuli_target_diamondcircles.svg	31	yes	57	0	439
6.6.1	win	2022-12-15	13:07:56	13:17:07	549710	62aa26592478d039ddeaaa4c	38423591	1	main_z	11	main_z	47	stimuli_target_diamondcircles.svg	stimuli_distractor_trianglediamonds.svg	19	yes	44	1	988
6.6.1	win	2022-12-15	13:07:56	13:17:07	549710	62aa26592478d039ddeaaa4c	38423591	1	main_z	11	advance_on_keypress_ZEE	48	stimuli_target_diamondcircles.svg	stimuli_distractor_trianglediamonds.svg	19	yes	57	0	393
6.6.1	win	2022-12-15	13:07:56	13:17:09	551785	62aa26592478d039ddeaaa4c	38423591	1	main_z	11	main_z	49	stimuli_target_diamondcircles.svg	stimuli_distractor_diamondtriangles.svg	23	yes	44	1	1027
6.6.1	win	2022-12-15	13:07:56	13:17:09	551785	62aa26592478d039ddeaaa4c	38423591	1	main_z	11	advance_on_keypress_ZEE	50	stimuli_target_diamondcircles.svg	stimuli_distractor_diamondtriangles.svg	23	yes	57	0	390
6.6.1	win	2022-12-15	13:07:56	13:17:12	554826	62aa26592478d039ddeaaa4c	38423591	1	main_z	11	main_z	51	stimuli_distractor_diamondtriangles.svg	stimuli_target_circletriangles.svg	13	yes	0	0	2000
6.6.1	win	2022-12-15	13:07:56	13:17:12	554826	62aa26592478d039ddeaaa4c	38423591	1	main_z	11	advance_on_keypress_ZEE	52	stimuli_distractor_diamondtriangles.svg	stimuli_target_circletriangles.svg	13	yes	57	0	471
6.6.1	win	2022-12-15	13:07:56	13:17:14	556860	62aa26592478d039ddeaaa4c	38423591	1	main_z	11	main_z	53	stimuli_target_diamondsquares.svg	stimuli_distractor_diamondtriangles.svg	24	yes	44	1	922
6.6.1	win	2022-12-15	13:07:56	13:17:14	556860	62aa26592478d039ddeaaa4c	38423591	1	main_z	11	advance_on_keypress_ZEE	54	stimuli_target_diamondsquares.svg	stimuli_distractor_diamondtriangles.svg	24	yes	57	0	395
6.6.1	win	2022-12-15	13:07:56	13:17:17	559901	62aa26592478d039ddeaaa4c	38423591	1	main_z	11	main_z	55	stimuli_distractor_diamondtriangles.svg	stimuli_distractor_trianglediamonds.svg	38	no	0	1	2000
6.6.1	win	2022-12-15	13:07:56	13:17:17	559901	62aa26592478d039ddeaaa4c	38423591	1	main_z	11	advance_on_keypress_ZEE	56	stimuli_distractor_diamondtriangles.svg	stimuli_distractor_trianglediamonds.svg	38	no	57	0	398
6.6.1	win	2022-12-15	13:07:56	13:17:19	561802	62aa26592478d039ddeaaa4c	38423591	1	main_z	11	main_z	57	stimuli_distractor_diamondtriangles.svg	stimuli_target_squaretriangles.svg	15	yes	44	1	851
6.6.1	win	2022-12-15	13:07:56	13:17:19	561802	62aa26592478d039ddeaaa4c	38423591	1	main_z	11	advance_on_keypress_ZEE	58	stimuli_distractor_diamondtriangles.svg	stimuli_target_squaretriangles.svg	15	yes	57	0	348
6.6.1	win	2022-12-15	13:07:56	13:17:21	563729	62aa26592478d039ddeaaa4c	38423591	1	main_z	11	main_z	59	stimuli_distractor_trianglediamonds.svg	stimuli_target_diamondcircles.svg	27	yes	44	1	926
6.6.1	win	2022-12-15	13:07:56	13:17:21	563729	62aa26592478d039ddeaaa4c	38423591	1	main_z	11	advance_on_keypress_ZEE	60	stimuli_distractor_trianglediamonds.svg	stimuli_target_diamondcircles.svg	27	yes	57	0	354
6.6.1	win	2022-12-15	13:07:56	13:17:23	565669	62aa26592478d039ddeaaa4c	38423591	1	main_z	11	main_z	61	stimuli_target_squaretriangles.svg	stimuli_distractor_diamondtriangles.svg	7	yes	44	1	939
6.6.1	win	2022-12-15	13:07:56	13:17:23	565669	62aa26592478d039ddeaaa4c	38423591	1	main_z	11	advance_on_keypress_ZEE	62	stimuli_target_squaretriangles.svg	stimuli_distractor_diamondtriangles.svg	7	yes	57	0	352
6.6.1	win	2022-12-15	13:07:56	13:17:25	567561	62aa26592478d039ddeaaa4c	38423591	1	main_z	11	main_z	63	stimuli_target_trianglecircles.svg	stimuli_distractor_trianglediamonds.svg	17	yes	44	1	902
6.6.1	win	2022-12-15	13:07:56	13:17:25	567561	62aa26592478d039ddeaaa4c	38423591	1	main_z	11	advance_on_keypress_ZEE	64	stimuli_target_trianglecircles.svg	stimuli_distractor_trianglediamonds.svg	17	yes	57	0	397
6.6.1	win	2022-12-15	13:07:56	13:17:27	569594	62aa26592478d039ddeaaa4c	38423591	1	main_z	11	main_z	65	stimuli_target_diamondsquares.svg	stimuli_distractor_trianglediamonds.svg	20	yes	44	1	975
6.6.1	win	2022-12-15	13:07:56	13:17:27	569594	62aa26592478d039ddeaaa4c	38423591	1	main_z	11	advance_on_keypress_ZEE	66	stimuli_target_diamondsquares.svg	stimuli_distractor_trianglediamonds.svg	20	yes	57	0	375
6.6.1	win	2022-12-15	13:07:56	13:17:29	571625	62aa26592478d039ddeaaa4c	38423591	1	main_z	11	main_z	67	stimuli_distractor_trianglediamonds.svg	stimuli_target_circletriangles.svg	9	yes	44	1	992
6.6.1	win	2022-12-15	13:07:56	13:17:29	571625	62aa26592478d039ddeaaa4c	38423591	1	main_z	11	advance_on_keypress_ZEE	68	stimuli_distractor_trianglediamonds.svg	stimuli_target_circletriangles.svg	9	yes	57	0	437
6.6.1	win	2022-12-15	13:07:56	13:17:31	573680	62aa26592478d039ddeaaa4c	38423591	1	main_z	11	main_z	69	stimuli_target_squaretriangles.svg	stimuli_distractor_trianglediamonds.svg	3	yes	44	1	983
6.6.1	win	2022-12-15	13:07:56	13:17:31	573680	62aa26592478d039ddeaaa4c	38423591	1	main_z	11	advance_on_keypress_ZEE	70	stimuli_target_squaretriangles.svg	stimuli_distractor_trianglediamonds.svg	3	yes	57	0	401
6.6.1	win	2022-12-15	13:07:56	13:17:33	575720	62aa26592478d039ddeaaa4c	38423591	1	main_z	11	main_z	71	stimuli_distractor_trianglediamonds.svg	stimuli_target_circlediamonds.svg	10	yes	44	1	982
6.6.1	win	2022-12-15	13:07:56	13:17:33	575720	62aa26592478d039ddeaaa4c	38423591	1	main_z	11	advance_on_keypress_ZEE	72	stimuli_distractor_trianglediamonds.svg	stimuli_target_circlediamonds.svg	10	yes	57	0	352
6.6.1	win	2022-12-15	13:07:56	13:17:35	577782	62aa26592478d039ddeaaa4c	38423591	1	main_z	11	main_z	73	stimuli_distractor_diamondtriangles.svg	stimuli_target_trianglecircles.svg	29	yes	44	1	1051
6.6.1	win	2022-12-15	13:07:56	13:17:35	577782	62aa26592478d039ddeaaa4c	38423591	1	main_z	11	advance_on_keypress_ZEE	74	stimuli_distractor_diamondtriangles.svg	stimuli_target_trianglecircles.svg	29	yes	57	0	378
6.6.1	win	2022-12-15	13:07:56	13:17:38	580802	62aa26592478d039ddeaaa4c	38423591	1	main_z	11	main_z	75	stimuli_distractor_trianglediamonds.svg	stimuli_distractor_trianglediamonds.svg	34	no	0	1	2000
6.6.1	win	2022-12-15	13:07:56	13:17:38	580802	62aa26592478d039ddeaaa4c	38423591	1	main_z	11	advance_on_keypress_ZEE	76	stimuli_distractor_trianglediamonds.svg	stimuli_distractor_trianglediamonds.svg	34	no	57	0	405
6.6.1	win	2022-12-15	13:07:56	13:17:40	582994	62aa26592478d039ddeaaa4c	38423591	1	main_z	11	main_z	77	stimuli_distractor_trianglediamonds.svg	stimuli_distractor_diamondtriangles.svg	35	no	44	0	1132
6.6.1	win	2022-12-15	13:07:56	13:17:40	582994	62aa26592478d039ddeaaa4c	38423591	1	main_z	11	advance_on_keypress_ZEE	78	stimuli_distractor_trianglediamonds.svg	stimuli_distractor_diamondtriangles.svg	35	no	57	0	390
6.6.1	win	2022-12-15	13:07:56	13:17:42	584979	62aa26592478d039ddeaaa4c	38423591	1	main_z	11	main_z	79	stimuli_target_squarediamonds.svg	stimuli_distractor_diamondtriangles.svg	8	yes	44	1	925
6.6.1	win	2022-12-15	13:07:56	13:17:42	584979	62aa26592478d039ddeaaa4c	38423591	1	main_z	11	advance_on_keypress_ZEE	80	stimuli_target_squarediamonds.svg	stimuli_distractor_diamondtriangles.svg	8	yes	57	0	395
6.6.1	win	2022-12-15	13:07:56	13:17:45	588033	62aa26592478d039ddeaaa4c	38423591	1	main_z	11	main_z	81	stimuli_distractor_trianglediamonds.svg	stimuli_distractor_diamondtriangles.svg	35	no	0	1	2000
6.6.1	win	2022-12-15	13:07:56	13:17:45	588033	62aa26592478d039ddeaaa4c	38423591	1	main_z	11	advance_on_keypress_ZEE	82	stimuli_distractor_trianglediamonds.svg	stimuli_distractor_diamondtriangles.svg	35	no	57	0	367
6.6.1	win	2022-12-15	13:07:56	13:17:47	590019	62aa26592478d039ddeaaa4c	38423591	1	main_z	11	main_z	83	stimuli_target_circletriangles.svg	stimuli_distractor_diamondtriangles.svg	5	yes	44	1	970
6.6.1	win	2022-12-15	13:07:56	13:17:47	590019	62aa26592478d039ddeaaa4c	38423591	1	main_z	11	advance_on_keypress_ZEE	84	stimuli_target_circletriangles.svg	stimuli_distractor_diamondtriangles.svg	5	yes	57	0	395
6.6.1	win	2022-12-15	13:07:56	13:17:50	592268	62aa26592478d039ddeaaa4c	38423591	1	main_z	11	main_z	85	stimuli_target_trianglesquares.svg	stimuli_distractor_trianglediamonds.svg	18	yes	44	1	1196
6.6.1	win	2022-12-15	13:07:56	13:17:50	592268	62aa26592478d039ddeaaa4c	38423591	1	main_z	11	advance_on_keypress_ZEE	86	stimuli_target_trianglesquares.svg	stimuli_distractor_trianglediamonds.svg	18	yes	57	0	331
6.6.1	win	2022-12-15	13:07:56	13:17:52	594300	62aa26592478d039ddeaaa4c	38423591	1	main_z	11	main_z	87	stimuli_target_diamondsquares.svg	stimuli_distractor_diamondtriangles.svg	24	yes	44	1	1049
6.6.1	win	2022-12-15	13:07:56	13:17:52	594300	62aa26592478d039ddeaaa4c	38423591	1	main_z	11	advance_on_keypress_ZEE	88	stimuli_target_diamondsquares.svg	stimuli_distractor_diamondtriangles.svg	24	yes	57	0	840
6.6.1	win	2022-12-15	13:07:56	13:17:54	596751	62aa26592478d039ddeaaa4c	38423591	1	main_z	11	main_z	89	stimuli_distractor_trianglediamonds.svg	stimuli_target_squarediamonds.svg	12	yes	44	1	943
6.6.1	win	2022-12-15	13:07:56	13:17:54	596751	62aa26592478d039ddeaaa4c	38423591	1	main_z	11	advance_on_keypress_ZEE	90	stimuli_distractor_trianglediamonds.svg	stimuli_target_squarediamonds.svg	12	yes	57	0	376
6.6.1	win	2022-12-15	13:07:56	13:17:57	599774	62aa26592478d039ddeaaa4c	38423591	1	main_z	11	main_z	91	stimuli_distractor_diamondtriangles.svg	stimuli_distractor_diamondtriangles.svg	39	no	0	1	2000
6.6.1	win	2022-12-15	13:07:56	13:17:57	599774	62aa26592478d039ddeaaa4c	38423591	1	main_z	11	advance_on_keypress_ZEE	92	stimuli_distractor_diamondtriangles.svg	stimuli_distractor_diamondtriangles.svg	39	no	57	0	412
6.6.1	win	2022-12-15	13:07:56	13:17:59	601837	62aa26592478d039ddeaaa4c	38423591	1	main_z	11	main_z	93	stimuli_target_circlediamonds.svg	stimuli_distractor_trianglediamonds.svg	2	yes	44	1	988
6.6.1	win	2022-12-15	13:07:56	13:17:59	601837	62aa26592478d039ddeaaa4c	38423591	1	main_z	11	advance_on_keypress_ZEE	94	stimuli_target_circlediamonds.svg	stimuli_distractor_trianglediamonds.svg	2	yes	57	0	354
6.6.1	win	2022-12-15	13:07:56	13:18:01	603854	62aa26592478d039ddeaaa4c	38423591	1	main_z	11	main_z	95	stimuli_target_diamondcircles.svg	stimuli_distractor_trianglediamonds.svg	19	yes	44	1	1001
6.6.1	win	2022-12-15	13:07:56	13:18:01	603854	62aa26592478d039ddeaaa4c	38423591	1	main_z	11	advance_on_keypress_ZEE	96	stimuli_target_diamondcircles.svg	stimuli_distractor_trianglediamonds.svg	19	yes	57	0	384
6.6.1	win	2022-12-15	13:07:56	13:18:04	606879	62aa26592478d039ddeaaa4c	38423591	1	main_z	11	main_z	97	stimuli_distractor_trianglediamonds.svg	stimuli_target_diamondsquares.svg	28	yes	0	0	2000
6.6.1	win	2022-12-15	13:07:56	13:18:04	606879	62aa26592478d039ddeaaa4c	38423591	1	main_z	11	advance_on_keypress_ZEE	98	stimuli_distractor_trianglediamonds.svg	stimuli_target_diamondsquares.svg	28	yes	57	0	337
6.6.1	win	2022-12-15	13:07:56	13:18:06	608864	62aa26592478d039ddeaaa4c	38423591	1	main_z	11	main_z	99	stimuli_distractor_trianglediamonds.svg	stimuli_target_trianglesquares.svg	26	yes	44	1	1006
6.6.1	win	2022-12-15	13:07:56	13:18:06	608864	62aa26592478d039ddeaaa4c	38423591	1	main_z	11	advance_on_keypress_ZEE	100	stimuli_distractor_trianglediamonds.svg	stimuli_target_trianglesquares.svg	26	yes	57	0	366
6.6.1	win	2022-12-15	13:07:56	13:18:08	610924	62aa26592478d039ddeaaa4c	38423591	1	main_z	11	main_z	101	stimuli_distractor_trianglediamonds.svg	stimuli_target_squaretriangles.svg	11	yes	44	1	1056
6.6.1	win	2022-12-15	13:07:56	13:18:08	610924	62aa26592478d039ddeaaa4c	38423591	1	main_z	11	advance_on_keypress_ZEE	102	stimuli_distractor_trianglediamonds.svg	stimuli_target_squaretriangles.svg	11	yes	57	0	396
6.6.1	win	2022-12-15	13:07:56	13:18:10	613051	62aa26592478d039ddeaaa4c	38423591	1	main_z	11	main_z	103	stimuli_distractor_diamondtriangles.svg	stimuli_target_squarediamonds.svg	16	yes	44	1	1072
6.6.1	win	2022-12-15	13:07:56	13:18:10	613051	62aa26592478d039ddeaaa4c	38423591	1	main_z	11	advance_on_keypress_ZEE	104	stimuli_distractor_diamondtriangles.svg	stimuli_target_squarediamonds.svg	16	yes	57	0	456
6.6.1	win	2022-12-15	13:07:56	13:18:13	615228	62aa26592478d039ddeaaa4c	38423591	1	main_z	11	main_z	105	stimuli_distractor_diamondtriangles.svg	stimuli_target_trianglecircles.svg	29	yes	44	1	1090
6.6.1	win	2022-12-15	13:07:56	13:18:13	615228	62aa26592478d039ddeaaa4c	38423591	1	main_z	11	advance_on_keypress_ZEE	106	stimuli_distractor_diamondtriangles.svg	stimuli_target_trianglecircles.svg	29	yes	57	0	446
6.6.1	win	2022-12-15	13:07:56	13:18:15	617379	62aa26592478d039ddeaaa4c	38423591	1	main_z	11	main_z	107	stimuli_distractor_trianglediamonds.svg	stimuli_target_circletriangles.svg	9	yes	44	1	1044
6.6.1	win	2022-12-15	13:07:56	13:18:15	617379	62aa26592478d039ddeaaa4c	38423591	1	main_z	11	advance_on_keypress_ZEE	108	stimuli_distractor_trianglediamonds.svg	stimuli_target_circletriangles.svg	9	yes	57	0	430
6.6.1	win	2022-12-15	13:07:56	13:18:18	620465	62aa26592478d039ddeaaa4c	38423591	1	main_z	11	main_z	109	stimuli_distractor_trianglediamonds.svg	stimuli_distractor_trianglediamonds.svg	33	no	0	1	2000
6.6.1	win	2022-12-15	13:07:56	13:18:18	620465	62aa26592478d039ddeaaa4c	38423591	1	main_z	11	advance_on_keypress_ZEE	110	stimuli_distractor_trianglediamonds.svg	stimuli_distractor_trianglediamonds.svg	33	no	57	0	403
6.6.1	win	2022-12-15	13:07:56	13:18:20	622548	62aa26592478d039ddeaaa4c	38423591	1	main_z	11	main_z	111	stimuli_target_squarediamonds.svg	stimuli_distractor_diamondtriangles.svg	8	yes	44	1	1035
6.6.1	win	2022-12-15	13:07:56	13:18:20	622548	62aa26592478d039ddeaaa4c	38423591	1	main_z	11	advance_on_keypress_ZEE	112	stimuli_target_squarediamonds.svg	stimuli_distractor_diamondtriangles.svg	8	yes	57	0	435
6.6.1	win	2022-12-15	13:07:56	13:18:22	624714	62aa26592478d039ddeaaa4c	38423591	1	main_z	11	main_z	113	stimuli_target_trianglesquares.svg	stimuli_distractor_diamondtriangles.svg	22	yes	44	1	1074
6.6.1	win	2022-12-15	13:07:56	13:18:22	624714	62aa26592478d039ddeaaa4c	38423591	1	main_z	11	advance_on_keypress_ZEE	114	stimuli_target_trianglesquares.svg	stimuli_distractor_diamondtriangles.svg	22	yes	57	0	878
6.6.1	win	2022-12-15	13:07:56	13:18:25	627258	62aa26592478d039ddeaaa4c	38423591	1	main_z	11	main_z	115	stimuli_distractor_diamondtriangles.svg	stimuli_target_circlediamonds.svg	14	yes	44	1	1016
6.6.1	win	2022-12-15	13:07:56	13:18:25	627258	62aa26592478d039ddeaaa4c	38423591	1	main_z	11	advance_on_keypress_ZEE	116	stimuli_distractor_diamondtriangles.svg	stimuli_target_circlediamonds.svg	14	yes	57	0	538
6.6.1	win	2022-12-15	13:07:56	13:18:28	630437	62aa26592478d039ddeaaa4c	38423591	1	main_z	11	main_z	117	stimuli_distractor_diamondtriangles.svg	stimuli_distractor_trianglediamonds.svg	38	no	0	1	2000
6.6.1	win	2022-12-15	13:07:56	13:18:28	630437	62aa26592478d039ddeaaa4c	38423591	1	main_z	11	advance_on_keypress_ZEE	118	stimuli_distractor_diamondtriangles.svg	stimuli_distractor_trianglediamonds.svg	38	no	57	0	492
6.6.1	win	2022-12-15	13:07:56	13:18:30	632684	62aa26592478d039ddeaaa4c	38423591	1	main_z	11	main_z	119	stimuli_distractor_diamondtriangles.svg	stimuli_target_diamondcircles.svg	31	yes	44	1	1112
6.6.1	win	2022-12-15	13:07:56	13:18:30	632684	62aa26592478d039ddeaaa4c	38423591	1	main_z	11	advance_on_keypress_ZEE	120	stimuli_distractor_diamondtriangles.svg	stimuli_target_diamondcircles.svg	31	yes	57	0	378
6.6.1	win	2022-12-15	13:07:56	13:18:32	634640	62aa26592478d039ddeaaa4c	38423591	1	main_z	11	main_z	121	stimuli_distractor_diamondtriangles.svg	stimuli_target_circletriangles.svg	13	yes	44	1	936
6.6.1	win	2022-12-15	13:07:56	13:18:32	634640	62aa26592478d039ddeaaa4c	38423591	1	main_z	11	advance_on_keypress_ZEE	122	stimuli_distractor_diamondtriangles.svg	stimuli_target_circletriangles.svg	13	yes	57	0	492
6.6.1	win	2022-12-15	13:07:56	13:18:34	636719	62aa26592478d039ddeaaa4c	38423591	1	main_z	11	main_z	123	stimuli_target_trianglecircles.svg	stimuli_distractor_trianglediamonds.svg	17	yes	44	1	928
6.6.1	win	2022-12-15	13:07:56	13:18:34	636719	62aa26592478d039ddeaaa4c	38423591	1	main_z	11	advance_on_keypress_ZEE	124	stimuli_target_trianglecircles.svg	stimuli_distractor_trianglediamonds.svg	17	yes	57	0	414
6.6.1	win	2022-12-15	13:07:56	13:18:36	638750	62aa26592478d039ddeaaa4c	38423591	1	main_z	11	main_z	125	stimuli_target_circletriangles.svg	stimuli_distractor_trianglediamonds.svg	1	yes	44	1	972
6.6.1	win	2022-12-15	13:07:56	13:18:36	638750	62aa26592478d039ddeaaa4c	38423591	1	main_z	11	advance_on_keypress_ZEE	126	stimuli_target_circletriangles.svg	stimuli_distractor_trianglediamonds.svg	1	yes	57	0	391
6.6.1	win	2022-12-15	13:07:56	13:18:38	641061	62aa26592478d039ddeaaa4c	38423591	1	main_z	11	main_z	127	stimuli_distractor_diamondtriangles.svg	stimuli_target_trianglesquares.svg	30	yes	44	1	1263
6.6.1	win	2022-12-15	13:07:56	13:18:38	641061	62aa26592478d039ddeaaa4c	38423591	1	main_z	11	advance_on_keypress_ZEE	128	stimuli_distractor_diamondtriangles.svg	stimuli_target_trianglesquares.svg	30	yes	57	0	333
6.6.1	win	2022-12-15	13:07:56	13:18:41	643264	62aa26592478d039ddeaaa4c	38423591	1	main_z	11	main_z	129	stimuli_distractor_diamondtriangles.svg	stimuli_distractor_trianglediamonds.svg	37	no	44	0	1221
6.6.1	win	2022-12-15	13:07:56	13:18:41	643264	62aa26592478d039ddeaaa4c	38423591	1	main_z	11	advance_on_keypress_ZEE	130	stimuli_distractor_diamondtriangles.svg	stimuli_distractor_trianglediamonds.svg	37	no	57	0	327
6.6.1	win	2022-12-15	13:07:56	13:18:43	645265	62aa26592478d039ddeaaa4c	38423591	1	main_z	11	main_z	131	stimuli_target_circlediamonds.svg	stimuli_distractor_diamondtriangles.svg	6	yes	44	1	1025
6.6.1	win	2022-12-15	13:07:56	13:18:43	645265	62aa26592478d039ddeaaa4c	38423591	1	main_z	11	advance_on_keypress_ZEE	132	stimuli_target_circlediamonds.svg	stimuli_distractor_diamondtriangles.svg	6	yes	57	0	381
6.6.1	win	2022-12-15	13:07:56	13:18:46	648290	62aa26592478d039ddeaaa4c	38423591	1	main_z	11	main_z	133	stimuli_distractor_trianglediamonds.svg	stimuli_distractor_trianglediamonds.svg	34	no	0	1	2000
6.6.1	win	2022-12-15	13:07:56	13:18:46	648290	62aa26592478d039ddeaaa4c	38423591	1	main_z	11	advance_on_keypress_ZEE	134	stimuli_distractor_trianglediamonds.svg	stimuli_distractor_trianglediamonds.svg	34	no	57	0	339
6.6.1	win	2022-12-15	13:07:56	13:18:47	650207	62aa26592478d039ddeaaa4c	38423591	1	main_z	11	main_z	135	stimuli_target_squarediamonds.svg	stimuli_distractor_trianglediamonds.svg	4	yes	44	1	933
6.6.1	win	2022-12-15	13:07:56	13:18:47	650207	62aa26592478d039ddeaaa4c	38423591	1	main_z	11	advance_on_keypress_ZEE	136	stimuli_target_squarediamonds.svg	stimuli_distractor_trianglediamonds.svg	4	yes	57	0	485
6.6.1	win	2022-12-15	13:07:56	13:18:50	652415	62aa26592478d039ddeaaa4c	38423591	1	main_z	11	main_z	137	stimuli_distractor_diamondtriangles.svg	stimuli_target_diamondsquares.svg	32	yes	44	1	1050
6.6.1	win	2022-12-15	13:07:56	13:18:50	652415	62aa26592478d039ddeaaa4c	38423591	1	main_z	11	advance_on_keypress_ZEE	138	stimuli_distractor_diamondtriangles.svg	stimuli_target_diamondsquares.svg	32	yes	57	0	390
6.6.1	win	2022-12-15	13:07:56	13:18:52	654466	62aa26592478d039ddeaaa4c	38423591	1	main_z	11	main_z	139	stimuli_distractor_trianglediamonds.svg	stimuli_target_diamondcircles.svg	27	yes	44	1	1022
6.6.1	win	2022-12-15	13:07:56	13:18:52	654466	62aa26592478d039ddeaaa4c	38423591	1	main_z	11	advance_on_keypress_ZEE	140	stimuli_distractor_trianglediamonds.svg	stimuli_target_diamondcircles.svg	27	yes	57	0	387
6.6.1	win	2022-12-15	13:07:56	13:18:54	656820	62aa26592478d039ddeaaa4c	38423591	1	main_z	11	main_z	141	stimuli_target_diamondsquares.svg	stimuli_distractor_trianglediamonds.svg	20	yes	44	1	1296
6.6.1	win	2022-12-15	13:07:56	13:18:54	656820	62aa26592478d039ddeaaa4c	38423591	1	main_z	11	advance_on_keypress_ZEE	142	stimuli_target_diamondsquares.svg	stimuli_distractor_trianglediamonds.svg	20	yes	57	0	337
6.6.1	win	2022-12-15	13:07:56	13:18:56	658883	62aa26592478d039ddeaaa4c	38423591	1	main_z	11	main_z	143	stimuli_distractor_diamondtriangles.svg	stimuli_target_squaretriangles.svg	15	yes	44	1	1075
6.6.1	win	2022-12-15	13:07:56	13:18:56	658883	62aa26592478d039ddeaaa4c	38423591	1	main_z	11	advance_on_keypress_ZEE	144	stimuli_distractor_diamondtriangles.svg	stimuli_target_squaretriangles.svg	15	yes	57	0	327
6.6.1	win	2022-12-15	13:07:56	13:18:59	661851	62aa26592478d039ddeaaa4c	38423591	1	main_z	11	main_z	145	stimuli_distractor_diamondtriangles.svg	stimuli_distractor_diamondtriangles.svg	40	no	0	1	2000
6.6.1	win	2022-12-15	13:07:56	13:18:59	661851	62aa26592478d039ddeaaa4c	38423591	1	main_z	11	advance_on_keypress_ZEE	146	stimuli_distractor_diamondtriangles.svg	stimuli_distractor_diamondtriangles.svg	40	no	57	0	363
6.6.1	win	2022-12-15	13:07:56	13:19:01	663847	62aa26592478d039ddeaaa4c	38423591	1	main_z	11	main_z	147	stimuli_target_trianglecircles.svg	stimuli_distractor_diamondtriangles.svg	21	yes	44	1	1005
6.6.1	win	2022-12-15	13:07:56	13:19:01	663847	62aa26592478d039ddeaaa4c	38423591	1	main_z	11	advance_on_keypress_ZEE	148	stimuli_target_trianglecircles.svg	stimuli_distractor_diamondtriangles.svg	21	yes	57	0	304
6.6.1	win	2022-12-15	13:07:56	13:19:03	665801	62aa26592478d039ddeaaa4c	38423591	1	main_z	11	main_z	149	stimuli_distractor_trianglediamonds.svg	stimuli_distractor_diamondtriangles.svg	36	no	44	0	989
6.6.1	win	2022-12-15	13:07:56	13:19:03	665801	62aa26592478d039ddeaaa4c	38423591	1	main_z	11	advance_on_keypress_ZEE	150	stimuli_distractor_trianglediamonds.svg	stimuli_distractor_diamondtriangles.svg	36	no	57	0	318
6.6.1	win	2022-12-15	13:07:56	13:19:05	667740	62aa26592478d039ddeaaa4c	38423591	1	main_z	11	main_z	151	stimuli_distractor_trianglediamonds.svg	stimuli_target_trianglecircles.svg	25	yes	44	1	969
6.6.1	win	2022-12-15	13:07:56	13:19:05	667740	62aa26592478d039ddeaaa4c	38423591	1	main_z	11	advance_on_keypress_ZEE	152	stimuli_distractor_trianglediamonds.svg	stimuli_target_trianglecircles.svg	25	yes	57	0	369
6.6.1	win	2022-12-15	13:07:56	13:19:07	669849	62aa26592478d039ddeaaa4c	38423591	1	main_z	11	main_z	153	stimuli_distractor_trianglediamonds.svg	stimuli_target_circlediamonds.svg	10	yes	44	1	1102
6.6.1	win	2022-12-15	13:07:56	13:19:07	669849	62aa26592478d039ddeaaa4c	38423591	1	main_z	11	advance_on_keypress_ZEE	154	stimuli_distractor_trianglediamonds.svg	stimuli_target_circlediamonds.svg	10	yes	57	0	432
6.6.1	win	2022-12-15	13:07:56	13:19:09	672161	62aa26592478d039ddeaaa4c	38423591	1	main_z	11	main_z	155	stimuli_target_squaretriangles.svg	stimuli_distractor_diamondtriangles.svg	7	yes	44	1	1224
6.6.1	win	2022-12-15	13:07:56	13:19:09	672161	62aa26592478d039ddeaaa4c	38423591	1	main_z	11	advance_on_keypress_ZEE	156	stimuli_target_squaretriangles.svg	stimuli_distractor_diamondtriangles.svg	7	yes	57	0	476
6.6.1	win	2022-12-15	13:07:56	13:19:12	674301	62aa26592478d039ddeaaa4c	38423591	1	main_z	11	main_z	157	stimuli_target_squaretriangles.svg	stimuli_distractor_trianglediamonds.svg	3	yes	44	1	1025
6.6.1	win	2022-12-15	13:07:56	13:19:12	674301	62aa26592478d039ddeaaa4c	38423591	1	main_z	11	advance_on_keypress_ZEE	158	stimuli_target_squaretriangles.svg	stimuli_distractor_trianglediamonds.svg	3	yes	57	0	342
6.6.1	win	2022-12-15	13:07:56	13:19:14	676364	62aa26592478d039ddeaaa4c	38423591	1	main_z	11	main_z	159	stimuli_target_diamondcircles.svg	stimuli_distractor_diamondtriangles.svg	23	yes	44	1	1053
6.6.1	win	2022-12-15	13:07:56	13:19:14	676364	62aa26592478d039ddeaaa4c	38423591	1	main_z	11	advance_on_keypress_ZEE	160	stimuli_target_diamondcircles.svg	stimuli_distractor_diamondtriangles.svg	23	yes	57	0	412