build	computer.platform	date	time	timestamp	time_elapsed_ms	subject	group	session	blockcode	blocknum	trialcode	trialnum	stimulus_left	stimulus_right	stim_index	target_present	response	correct	latency
6.6.1	mac	2022-12-15	16:03:43	16:06:58	193788	612c365b952c2a5244a9bee6	638061986	1	practice_z	5	practice_z	1	stimuli_distractor_diamondtriangles.svg	stimuli_distractor_diamondtriangles.svg	13	no	0	1	2000
6.6.1	mac	2022-12-15	16:03:43	16:06:58	193788	612c365b952c2a5244a9bee6	638061986	1	practice_z	5	advance_on_keypress_ZEE	2	stimuli_distractor_diamondtriangles.svg	stimuli_distractor_diamondtriangles.svg	13	no	57	0	1765
6.6.1	mac	2022-12-15	16:03:43	16:07:03	199188	612c365b952c2a5244a9bee6	638061986	1	practice_z	5	practice_z	3	stimuli_target_diamondsquares.svg	stimuli_distractor_trianglediamonds.svg	6	yes	0	0	2000
6.6.1	mac	2022-12-15	16:03:43	16:07:03	199188	612c365b952c2a5244a9bee6	638061986	1	practice_z	5	advance_on_keypress_ZEE	4	stimuli_target_diamondsquares.svg	stimuli_distractor_trianglediamonds.svg	6	yes	57	0	2614
6.6.1	mac	2022-12-15	16:03:43	16:07:08	204126	612c365b952c2a5244a9bee6	638061986	1	practice_z	5	practice_z	5	stimuli_target_circlediamonds.svg	stimuli_distractor_trianglediamonds.svg	4	yes	44	1	687
6.6.1	mac	2022-12-15	16:03:43	16:07:08	204126	612c365b952c2a5244a9bee6	638061986	1	practice_z	5	advance_on_keypress_ZEE	6	stimuli_target_circlediamonds.svg	stimuli_distractor_trianglediamonds.svg	4	yes	57	0	852
6.6.1	mac	2022-12-15	16:03:43	16:07:12	207297	612c365b952c2a5244a9bee6	638061986	1	practice_z	5	practice_z	7	stimuli_target_squarediamonds.svg	stimuli_distractor_diamondtriangles.svg	2	yes	44	1	691
6.6.1	mac	2022-12-15	16:03:43	16:07:12	207297	612c365b952c2a5244a9bee6	638061986	1	practice_z	5	advance_on_keypress_ZEE	8	stimuli_target_squarediamonds.svg	stimuli_distractor_diamondtriangles.svg	2	yes	57	0	373
6.6.1	mac	2022-12-15	16:03:43	16:07:16	211288	612c365b952c2a5244a9bee6	638061986	1	practice_z	5	practice_z	9	stimuli_target_diamondsquares.svg	stimuli_distractor_diamondtriangles.svg	3	yes	0	0	2000
6.6.1	mac	2022-12-15	16:03:43	16:07:16	211288	612c365b952c2a5244a9bee6	638061986	1	practice_z	5	advance_on_keypress_ZEE	10	stimuli_target_diamondsquares.svg	stimuli_distractor_diamondtriangles.svg	3	yes	57	0	691
6.6.1	mac	2022-12-15	16:03:43	16:07:19	214425	612c365b952c2a5244a9bee6	638061986	1	practice_z	5	practice_z	11	stimuli_distractor_trianglediamonds.svg	stimuli_target_circlediamonds.svg	10	yes	44	1	819
6.6.1	mac	2022-12-15	16:03:43	16:07:19	214425	612c365b952c2a5244a9bee6	638061986	1	practice_z	5	advance_on_keypress_ZEE	12	stimuli_distractor_trianglediamonds.svg	stimuli_target_circlediamonds.svg	10	yes	57	0	444
6.6.1	mac	2022-12-15	16:03:43	16:07:22	217409	612c365b952c2a5244a9bee6	638061986	1	practice_z	5	practice_z	13	stimuli_distractor_diamondtriangles.svg	stimuli_target_circletriangles.svg	7	yes	44	1	902
6.6.1	mac	2022-12-15	16:03:43	16:07:22	217409	612c365b952c2a5244a9bee6	638061986	1	practice_z	5	advance_on_keypress_ZEE	14	stimuli_distractor_diamondtriangles.svg	stimuli_target_circletriangles.svg	7	yes	57	0	681
6.6.1	mac	2022-12-15	16:03:43	16:07:25	220715	612c365b952c2a5244a9bee6	638061986	1	practice_z	5	practice_z	15	stimuli_distractor_trianglediamonds.svg	stimuli_target_diamondcircles.svg	12	yes	44	1	992
6.6.1	mac	2022-12-15	16:03:43	16:07:25	220715	612c365b952c2a5244a9bee6	638061986	1	practice_z	5	advance_on_keypress_ZEE	16	stimuli_distractor_trianglediamonds.svg	stimuli_target_diamondcircles.svg	12	yes	57	0	460
6.6.1	mac	2022-12-15	16:03:43	16:07:29	224788	612c365b952c2a5244a9bee6	638061986	1	practice_z	5	practice_z	17	stimuli_distractor_trianglediamonds.svg	stimuli_distractor_trianglediamonds.svg	15	no	0	1	2000
6.6.1	mac	2022-12-15	16:03:43	16:07:29	224788	612c365b952c2a5244a9bee6	638061986	1	practice_z	5	advance_on_keypress_ZEE	18	stimuli_distractor_trianglediamonds.svg	stimuli_distractor_trianglediamonds.svg	15	no	57	0	395
6.6.1	mac	2022-12-15	16:03:43	16:07:32	227573	612c365b952c2a5244a9bee6	638061986	1	practice_z	5	practice_z	19	stimuli_target_squarediamonds.svg	stimuli_distractor_trianglediamonds.svg	5	yes	44	1	751
6.6.1	mac	2022-12-15	16:03:43	16:07:32	227573	612c365b952c2a5244a9bee6	638061986	1	practice_z	5	advance_on_keypress_ZEE	20	stimuli_target_squarediamonds.svg	stimuli_distractor_trianglediamonds.svg	5	yes	57	0	354
6.6.1	mac	2022-12-15	16:03:43	16:07:35	230505	612c365b952c2a5244a9bee6	638061986	1	practice_z	5	practice_z	21	stimuli_distractor_diamondtriangles.svg	stimuli_target_diamondcircles.svg	8	yes	44	1	950
6.6.1	mac	2022-12-15	16:03:43	16:07:35	230505	612c365b952c2a5244a9bee6	638061986	1	practice_z	5	advance_on_keypress_ZEE	22	stimuli_distractor_diamondtriangles.svg	stimuli_target_diamondcircles.svg	8	yes	57	0	373
6.6.1	mac	2022-12-15	16:03:43	16:07:38	233742	612c365b952c2a5244a9bee6	638061986	1	practice_z	5	practice_z	23	stimuli_distractor_trianglediamonds.svg	stimuli_distractor_diamondtriangles.svg	16	no	44	0	1235
6.6.1	mac	2022-12-15	16:03:43	16:07:38	233742	612c365b952c2a5244a9bee6	638061986	1	practice_z	5	advance_on_keypress_ZEE	24	stimuli_distractor_trianglediamonds.svg	stimuli_distractor_diamondtriangles.svg	16	no	57	0	733
6.6.1	mac	2022-12-15	16:03:43	16:07:42	238105	612c365b952c2a5244a9bee6	638061986	1	practice_z	5	practice_z	25	stimuli_distractor_diamondtriangles.svg	stimuli_distractor_trianglediamonds.svg	14	no	0	1	2000
6.6.1	mac	2022-12-15	16:03:43	16:07:42	238105	612c365b952c2a5244a9bee6	638061986	1	practice_z	5	advance_on_keypress_ZEE	26	stimuli_distractor_diamondtriangles.svg	stimuli_distractor_trianglediamonds.svg	14	no	57	0	467
6.6.1	mac	2022-12-15	16:03:43	16:07:45	241007	612c365b952c2a5244a9bee6	638061986	1	practice_z	5	practice_z	27	stimuli_target_circlediamonds.svg	stimuli_distractor_diamondtriangles.svg	1	yes	44	1	801
6.6.1	mac	2022-12-15	16:03:43	16:07:45	241007	612c365b952c2a5244a9bee6	638061986	1	practice_z	5	advance_on_keypress_ZEE	28	stimuli_target_circlediamonds.svg	stimuli_distractor_diamondtriangles.svg	1	yes	57	0	573
6.6.1	mac	2022-12-15	16:03:43	16:07:48	244055	612c365b952c2a5244a9bee6	638061986	1	practice_z	5	practice_z	29	stimuli_distractor_trianglediamonds.svg	stimuli_target_squarediamonds.svg	11	yes	44	1	849
6.6.1	mac	2022-12-15	16:03:43	16:07:48	244055	612c365b952c2a5244a9bee6	638061986	1	practice_z	5	advance_on_keypress_ZEE	30	stimuli_distractor_trianglediamonds.svg	stimuli_target_squarediamonds.svg	11	yes	57	0	504
6.6.1	mac	2022-12-15	16:03:43	16:07:51	247022	612c365b952c2a5244a9bee6	638061986	1	practice_z	5	practice_z	31	stimuli_distractor_diamondtriangles.svg	stimuli_target_trianglecircles.svg	9	yes	44	1	832
6.6.1	mac	2022-12-15	16:03:43	16:07:51	247022	612c365b952c2a5244a9bee6	638061986	1	practice_z	5	advance_on_keypress_ZEE	32	stimuli_distractor_diamondtriangles.svg	stimuli_target_trianglecircles.svg	9	yes	57	0	418
6.6.1	mac	2022-12-15	16:03:43	16:08:09	264779	612c365b952c2a5244a9bee6	638061986	1	main_z	7	main_z	1	stimuli_distractor_diamondtriangles.svg	stimuli_target_squarediamonds.svg	16	yes	44	1	740
6.6.1	mac	2022-12-15	16:03:43	16:08:09	264779	612c365b952c2a5244a9bee6	638061986	1	main_z	7	advance_on_keypress_ZEE	2	stimuli_distractor_diamondtriangles.svg	stimuli_target_squarediamonds.svg	16	yes	57	0	1669
6.6.1	mac	2022-12-15	16:03:43	16:08:12	267827	612c365b952c2a5244a9bee6	638061986	1	main_z	7	main_z	3	stimuli_target_trianglesquares.svg	stimuli_distractor_trianglediamonds.svg	18	yes	44	1	754
6.6.1	mac	2022-12-15	16:03:43	16:08:12	267827	612c365b952c2a5244a9bee6	638061986	1	main_z	7	advance_on_keypress_ZEE	4	stimuli_target_trianglesquares.svg	stimuli_distractor_trianglediamonds.svg	18	yes	57	0	2918
6.6.1	mac	2022-12-15	16:03:43	16:08:18	273372	612c365b952c2a5244a9bee6	638061986	1	main_z	7	main_z	5	stimuli_target_squarediamonds.svg	stimuli_distractor_diamondtriangles.svg	8	yes	0	0	2000
6.6.1	mac	2022-12-15	16:03:43	16:08:18	273372	612c365b952c2a5244a9bee6	638061986	1	main_z	7	advance_on_keypress_ZEE	6	stimuli_target_squarediamonds.svg	stimuli_distractor_diamondtriangles.svg	8	yes	57	0	619
6.6.1	mac	2022-12-15	16:03:43	16:08:20	275218	612c365b952c2a5244a9bee6	638061986	1	main_z	7	main_z	7	stimuli_target_squarediamonds.svg	stimuli_distractor_trianglediamonds.svg	4	yes	44	1	595
6.6.1	mac	2022-12-15	16:03:43	16:08:20	275218	612c365b952c2a5244a9bee6	638061986	1	main_z	7	advance_on_keypress_ZEE	8	stimuli_target_squarediamonds.svg	stimuli_distractor_trianglediamonds.svg	4	yes	57	0	1045
6.6.1	mac	2022-12-15	16:03:43	16:08:22	277520	612c365b952c2a5244a9bee6	638061986	1	main_z	7	main_z	9	stimuli_distractor_trianglediamonds.svg	stimuli_target_squarediamonds.svg	12	yes	44	1	647
6.6.1	mac	2022-12-15	16:03:43	16:08:22	277520	612c365b952c2a5244a9bee6	638061986	1	main_z	7	advance_on_keypress_ZEE	10	stimuli_distractor_trianglediamonds.svg	stimuli_target_squarediamonds.svg	12	yes	57	0	762
6.6.1	mac	2022-12-15	16:03:43	16:08:24	279713	612c365b952c2a5244a9bee6	638061986	1	main_z	7	main_z	11	stimuli_distractor_trianglediamonds.svg	stimuli_distractor_diamondtriangles.svg	35	no	44	0	807
6.6.1	mac	2022-12-15	16:03:43	16:08:24	279713	612c365b952c2a5244a9bee6	638061986	1	main_z	7	advance_on_keypress_ZEE	12	stimuli_distractor_trianglediamonds.svg	stimuli_distractor_diamondtriangles.svg	35	no	57	0	875
6.6.1	mac	2022-12-15	16:03:43	16:08:26	282013	612c365b952c2a5244a9bee6	638061986	1	main_z	7	main_z	13	stimuli_target_diamondcircles.svg	stimuli_distractor_diamondtriangles.svg	23	yes	44	1	806
6.6.1	mac	2022-12-15	16:03:43	16:08:26	282013	612c365b952c2a5244a9bee6	638061986	1	main_z	7	advance_on_keypress_ZEE	14	stimuli_target_diamondcircles.svg	stimuli_distractor_diamondtriangles.svg	23	yes	57	0	770
6.6.1	mac	2022-12-15	16:03:43	16:08:28	284090	612c365b952c2a5244a9bee6	638061986	1	main_z	7	main_z	15	stimuli_target_diamondcircles.svg	stimuli_distractor_trianglediamonds.svg	19	yes	44	1	683
6.6.1	mac	2022-12-15	16:03:43	16:08:28	284090	612c365b952c2a5244a9bee6	638061986	1	main_z	7	advance_on_keypress_ZEE	16	stimuli_target_diamondcircles.svg	stimuli_distractor_trianglediamonds.svg	19	yes	57	0	826
6.6.1	mac	2022-12-15	16:03:43	16:08:31	286213	612c365b952c2a5244a9bee6	638061986	1	main_z	7	main_z	17	stimuli_target_circlediamonds.svg	stimuli_distractor_trianglediamonds.svg	2	yes	44	1	673
6.6.1	mac	2022-12-15	16:03:43	16:08:31	286213	612c365b952c2a5244a9bee6	638061986	1	main_z	7	advance_on_keypress_ZEE	18	stimuli_target_circlediamonds.svg	stimuli_distractor_trianglediamonds.svg	2	yes	57	0	886
6.6.1	mac	2022-12-15	16:03:43	16:08:33	288327	612c365b952c2a5244a9bee6	638061986	1	main_z	7	main_z	19	stimuli_target_circlediamonds.svg	stimuli_distractor_diamondtriangles.svg	6	yes	44	1	604
6.6.1	mac	2022-12-15	16:03:43	16:08:33	288327	612c365b952c2a5244a9bee6	638061986	1	main_z	7	advance_on_keypress_ZEE	20	stimuli_target_circlediamonds.svg	stimuli_distractor_diamondtriangles.svg	6	yes	57	0	810
6.6.1	mac	2022-12-15	16:03:43	16:08:35	290535	612c365b952c2a5244a9bee6	638061986	1	main_z	7	main_z	21	stimuli_target_squaretriangles.svg	stimuli_distractor_diamondtriangles.svg	7	yes	44	1	777
6.6.1	mac	2022-12-15	16:03:43	16:08:35	290535	612c365b952c2a5244a9bee6	638061986	1	main_z	7	advance_on_keypress_ZEE	22	stimuli_target_squaretriangles.svg	stimuli_distractor_diamondtriangles.svg	7	yes	57	0	923
6.6.1	mac	2022-12-15	16:03:43	16:08:38	294072	612c365b952c2a5244a9bee6	638061986	1	main_z	7	main_z	23	stimuli_distractor_diamondtriangles.svg	stimuli_distractor_trianglediamonds.svg	38	no	0	1	2000
6.6.1	mac	2022-12-15	16:03:43	16:08:38	294072	612c365b952c2a5244a9bee6	638061986	1	main_z	7	advance_on_keypress_ZEE	24	stimuli_distractor_diamondtriangles.svg	stimuli_distractor_trianglediamonds.svg	38	no	57	0	547
6.6.1	mac	2022-12-15	16:03:43	16:08:40	296181	612c365b952c2a5244a9bee6	638061986	1	main_z	7	main_z	25	stimuli_distractor_trianglediamonds.svg	stimuli_target_trianglesquares.svg	26	yes	44	1	924
6.6.1	mac	2022-12-15	16:03:43	16:08:40	296181	612c365b952c2a5244a9bee6	638061986	1	main_z	7	advance_on_keypress_ZEE	26	stimuli_distractor_trianglediamonds.svg	stimuli_target_trianglesquares.svg	26	yes	57	0	955
6.6.1	mac	2022-12-15	16:03:43	16:08:44	299756	612c365b952c2a5244a9bee6	638061986	1	main_z	7	main_z	27	stimuli_distractor_trianglediamonds.svg	stimuli_target_trianglecircles.svg	25	yes	0	0	2000
6.6.1	mac	2022-12-15	16:03:43	16:08:44	299756	612c365b952c2a5244a9bee6	638061986	1	main_z	7	advance_on_keypress_ZEE	28	stimuli_distractor_trianglediamonds.svg	stimuli_target_trianglecircles.svg	25	yes	57	0	530
6.6.1	mac	2022-12-15	16:03:43	16:08:46	301642	612c365b952c2a5244a9bee6	638061986	1	main_z	7	main_z	29	stimuli_distractor_diamondtriangles.svg	stimuli_target_trianglecircles.svg	29	yes	44	1	718
6.6.1	mac	2022-12-15	16:03:43	16:08:46	301642	612c365b952c2a5244a9bee6	638061986	1	main_z	7	advance_on_keypress_ZEE	30	stimuli_distractor_diamondtriangles.svg	stimuli_target_trianglecircles.svg	29	yes	57	0	1034
6.6.1	mac	2022-12-15	16:03:43	16:08:50	305306	612c365b952c2a5244a9bee6	638061986	1	main_z	7	main_z	31	stimuli_distractor_diamondtriangles.svg	stimuli_distractor_diamondtriangles.svg	40	no	0	1	2000
6.6.1	mac	2022-12-15	16:03:43	16:08:50	305306	612c365b952c2a5244a9bee6	638061986	1	main_z	7	advance_on_keypress_ZEE	32	stimuli_distractor_diamondtriangles.svg	stimuli_distractor_diamondtriangles.svg	40	no	57	0	544
6.6.1	mac	2022-12-15	16:03:43	16:08:53	308472	612c365b952c2a5244a9bee6	638061986	1	main_z	7	main_z	33	stimuli_distractor_diamondtriangles.svg	stimuli_distractor_trianglediamonds.svg	37	no	0	1	2000
6.6.1	mac	2022-12-15	16:03:43	16:08:53	308472	612c365b952c2a5244a9bee6	638061986	1	main_z	7	advance_on_keypress_ZEE	34	stimuli_distractor_diamondtriangles.svg	stimuli_distractor_trianglediamonds.svg	37	no	57	0	424
6.6.1	mac	2022-12-15	16:03:43	16:08:55	310228	612c365b952c2a5244a9bee6	638061986	1	main_z	7	main_z	35	stimuli_target_circletriangles.svg	stimuli_distractor_diamondtriangles.svg	5	yes	44	1	704
6.6.1	mac	2022-12-15	16:03:43	16:08:55	310228	612c365b952c2a5244a9bee6	638061986	1	main_z	7	advance_on_keypress_ZEE	36	stimuli_target_circletriangles.svg	stimuli_distractor_diamondtriangles.svg	5	yes	57	0	1019
6.6.1	mac	2022-12-15	16:03:43	16:08:57	312523	612c365b952c2a5244a9bee6	638061986	1	main_z	7	main_z	37	stimuli_distractor_trianglediamonds.svg	stimuli_target_circlediamonds.svg	10	yes	44	1	650
6.6.1	mac	2022-12-15	16:03:43	16:08:57	312523	612c365b952c2a5244a9bee6	638061986	1	main_z	7	advance_on_keypress_ZEE	38	stimuli_distractor_trianglediamonds.svg	stimuli_target_circlediamonds.svg	10	yes	57	0	763
6.6.1	mac	2022-12-15	16:03:43	16:08:59	314565	612c365b952c2a5244a9bee6	638061986	1	main_z	7	main_z	39	stimuli_distractor_trianglediamonds.svg	stimuli_target_diamondcircles.svg	27	yes	44	1	642
6.6.1	mac	2022-12-15	16:03:43	16:08:59	314565	612c365b952c2a5244a9bee6	638061986	1	main_z	7	advance_on_keypress_ZEE	40	stimuli_distractor_trianglediamonds.svg	stimuli_target_diamondcircles.svg	27	yes	57	0	695
6.6.1	mac	2022-12-15	16:03:43	16:09:02	317888	612c365b952c2a5244a9bee6	638061986	1	main_z	7	main_z	41	stimuli_distractor_trianglediamonds.svg	stimuli_target_diamondsquares.svg	28	yes	0	0	2000
6.6.1	mac	2022-12-15	16:03:43	16:09:02	317888	612c365b952c2a5244a9bee6	638061986	1	main_z	7	advance_on_keypress_ZEE	42	stimuli_distractor_trianglediamonds.svg	stimuli_target_diamondsquares.svg	28	yes	57	0	666
6.6.1	mac	2022-12-15	16:03:43	16:09:04	320102	612c365b952c2a5244a9bee6	638061986	1	main_z	7	main_z	43	stimuli_distractor_diamondtriangles.svg	stimuli_target_diamondcircles.svg	31	yes	44	1	910
6.6.1	mac	2022-12-15	16:03:43	16:09:04	320102	612c365b952c2a5244a9bee6	638061986	1	main_z	7	advance_on_keypress_ZEE	44	stimuli_distractor_diamondtriangles.svg	stimuli_target_diamondcircles.svg	31	yes	57	0	789
6.6.1	mac	2022-12-15	16:03:43	16:09:08	323506	612c365b952c2a5244a9bee6	638061986	1	main_z	7	main_z	45	stimuli_target_diamondsquares.svg	stimuli_distractor_trianglediamonds.svg	20	yes	0	0	2000
6.6.1	mac	2022-12-15	16:03:43	16:09:08	323506	612c365b952c2a5244a9bee6	638061986	1	main_z	7	advance_on_keypress_ZEE	46	stimuli_target_diamondsquares.svg	stimuli_distractor_trianglediamonds.svg	20	yes	57	0	493
6.6.1	mac	2022-12-15	16:03:43	16:09:11	326622	612c365b952c2a5244a9bee6	638061986	1	main_z	7	main_z	47	stimuli_distractor_trianglediamonds.svg	stimuli_distractor_trianglediamonds.svg	33	no	0	1	2000
6.6.1	mac	2022-12-15	16:03:43	16:09:11	326622	612c365b952c2a5244a9bee6	638061986	1	main_z	7	advance_on_keypress_ZEE	48	stimuli_distractor_trianglediamonds.svg	stimuli_distractor_trianglediamonds.svg	33	no	57	0	459
6.6.1	mac	2022-12-15	16:03:43	16:09:13	328379	612c365b952c2a5244a9bee6	638061986	1	main_z	7	main_z	49	stimuli_distractor_trianglediamonds.svg	stimuli_target_circletriangles.svg	9	yes	44	1	672
6.6.1	mac	2022-12-15	16:03:43	16:09:13	328379	612c365b952c2a5244a9bee6	638061986	1	main_z	7	advance_on_keypress_ZEE	50	stimuli_distractor_trianglediamonds.svg	stimuli_target_circletriangles.svg	9	yes	57	0	970
6.6.1	mac	2022-12-15	16:03:43	16:09:16	331973	612c365b952c2a5244a9bee6	638061986	1	main_z	7	main_z	51	stimuli_distractor_trianglediamonds.svg	stimuli_distractor_diamondtriangles.svg	36	no	0	1	2000
6.6.1	mac	2022-12-15	16:03:43	16:09:16	331973	612c365b952c2a5244a9bee6	638061986	1	main_z	7	advance_on_keypress_ZEE	52	stimuli_distractor_trianglediamonds.svg	stimuli_distractor_diamondtriangles.svg	36	no	57	0	437
6.6.1	mac	2022-12-15	16:03:43	16:09:19	335039	612c365b952c2a5244a9bee6	638061986	1	main_z	7	main_z	53	stimuli_target_diamondsquares.svg	stimuli_distractor_diamondtriangles.svg	24	yes	0	0	2000
6.6.1	mac	2022-12-15	16:03:43	16:09:19	335039	612c365b952c2a5244a9bee6	638061986	1	main_z	7	advance_on_keypress_ZEE	54	stimuli_target_diamondsquares.svg	stimuli_distractor_diamondtriangles.svg	24	yes	57	0	363
6.6.1	mac	2022-12-15	16:03:43	16:09:22	338039	612c365b952c2a5244a9bee6	638061986	1	main_z	7	main_z	55	stimuli_distractor_diamondtriangles.svg	stimuli_distractor_diamondtriangles.svg	39	no	0	1	2000
6.6.1	mac	2022-12-15	16:03:43	16:09:22	338039	612c365b952c2a5244a9bee6	638061986	1	main_z	7	advance_on_keypress_ZEE	56	stimuli_distractor_diamondtriangles.svg	stimuli_distractor_diamondtriangles.svg	39	no	57	0	1435
6.6.1	mac	2022-12-15	16:03:43	16:09:25	340845	612c365b952c2a5244a9bee6	638061986	1	main_z	7	main_z	57	stimuli_distractor_diamondtriangles.svg	stimuli_target_circlediamonds.svg	14	yes	44	1	738
6.6.1	mac	2022-12-15	16:03:43	16:09:25	340845	612c365b952c2a5244a9bee6	638061986	1	main_z	7	advance_on_keypress_ZEE	58	stimuli_distractor_diamondtriangles.svg	stimuli_target_circlediamonds.svg	14	yes	57	0	1219
6.6.1	mac	2022-12-15	16:03:43	16:09:28	343633	612c365b952c2a5244a9bee6	638061986	1	main_z	7	main_z	59	stimuli_distractor_diamondtriangles.svg	stimuli_target_diamondsquares.svg	32	yes	44	1	943
6.6.1	mac	2022-12-15	16:03:43	16:09:28	343633	612c365b952c2a5244a9bee6	638061986	1	main_z	7	advance_on_keypress_ZEE	60	stimuli_distractor_diamondtriangles.svg	stimuli_target_diamondsquares.svg	32	yes	57	0	660
6.6.1	mac	2022-12-15	16:03:43	16:09:30	345878	612c365b952c2a5244a9bee6	638061986	1	main_z	7	main_z	61	stimuli_distractor_diamondtriangles.svg	stimuli_target_squaretriangles.svg	15	yes	44	1	971
6.6.1	mac	2022-12-15	16:03:43	16:09:30	345878	612c365b952c2a5244a9bee6	638061986	1	main_z	7	advance_on_keypress_ZEE	62	stimuli_distractor_diamondtriangles.svg	stimuli_target_squaretriangles.svg	15	yes	57	0	752
6.6.1	mac	2022-12-15	16:03:43	16:09:34	349256	612c365b952c2a5244a9bee6	638061986	1	main_z	7	main_z	63	stimuli_distractor_trianglediamonds.svg	stimuli_distractor_trianglediamonds.svg	34	no	0	1	2000
6.6.1	mac	2022-12-15	16:03:43	16:09:34	349256	612c365b952c2a5244a9bee6	638061986	1	main_z	7	advance_on_keypress_ZEE	64	stimuli_distractor_trianglediamonds.svg	stimuli_distractor_trianglediamonds.svg	34	no	57	0	393
6.6.1	mac	2022-12-15	16:03:43	16:09:36	351412	612c365b952c2a5244a9bee6	638061986	1	main_z	7	main_z	65	stimuli_target_trianglecircles.svg	stimuli_distractor_diamondtriangles.svg	21	yes	44	1	1138
6.6.1	mac	2022-12-15	16:03:43	16:09:36	351412	612c365b952c2a5244a9bee6	638061986	1	main_z	7	advance_on_keypress_ZEE	66	stimuli_target_trianglecircles.svg	stimuli_distractor_diamondtriangles.svg	21	yes	57	0	886
6.6.1	mac	2022-12-15	16:03:43	16:09:38	353991	612c365b952c2a5244a9bee6	638061986	1	main_z	7	main_z	67	stimuli_distractor_diamondtriangles.svg	stimuli_target_trianglesquares.svg	30	yes	44	1	1068
6.6.1	mac	2022-12-15	16:03:43	16:09:38	353991	612c365b952c2a5244a9bee6	638061986	1	main_z	7	advance_on_keypress_ZEE	68	stimuli_distractor_diamondtriangles.svg	stimuli_target_trianglesquares.svg	30	yes	57	0	745
6.6.1	mac	2022-12-15	16:03:43	16:09:42	357356	612c365b952c2a5244a9bee6	638061986	1	main_z	7	main_z	69	stimuli_target_circletriangles.svg	stimuli_distractor_trianglediamonds.svg	1	yes	0	0	2000
6.6.1	mac	2022-12-15	16:03:43	16:09:42	357356	612c365b952c2a5244a9bee6	638061986	1	main_z	7	advance_on_keypress_ZEE	70	stimuli_target_circletriangles.svg	stimuli_distractor_trianglediamonds.svg	1	yes	57	0	412
6.6.1	mac	2022-12-15	16:03:43	16:09:43	359167	612c365b952c2a5244a9bee6	638061986	1	main_z	7	main_z	71	stimuli_target_trianglesquares.svg	stimuli_distractor_diamondtriangles.svg	22	yes	44	1	776
6.6.1	mac	2022-12-15	16:03:43	16:09:43	359167	612c365b952c2a5244a9bee6	638061986	1	main_z	7	advance_on_keypress_ZEE	72	stimuli_target_trianglesquares.svg	stimuli_distractor_diamondtriangles.svg	22	yes	57	0	681
6.6.1	mac	2022-12-15	16:03:43	16:09:45	361102	612c365b952c2a5244a9bee6	638061986	1	main_z	7	main_z	73	stimuli_target_trianglecircles.svg	stimuli_distractor_trianglediamonds.svg	17	yes	44	1	628
6.6.1	mac	2022-12-15	16:03:43	16:09:45	361102	612c365b952c2a5244a9bee6	638061986	1	main_z	7	advance_on_keypress_ZEE	74	stimuli_target_trianglecircles.svg	stimuli_distractor_trianglediamonds.svg	17	yes	57	0	706
6.6.1	mac	2022-12-15	16:03:43	16:09:47	363180	612c365b952c2a5244a9bee6	638061986	1	main_z	7	main_z	75	stimuli_target_squaretriangles.svg	stimuli_distractor_trianglediamonds.svg	3	yes	44	1	756
6.6.1	mac	2022-12-15	16:03:43	16:09:47	363180	612c365b952c2a5244a9bee6	638061986	1	main_z	7	advance_on_keypress_ZEE	76	stimuli_target_squaretriangles.svg	stimuli_distractor_trianglediamonds.svg	3	yes	57	0	795
6.6.1	mac	2022-12-15	16:03:43	16:09:50	365230	612c365b952c2a5244a9bee6	638061986	1	main_z	7	main_z	77	stimuli_distractor_diamondtriangles.svg	stimuli_target_circletriangles.svg	13	yes	44	1	640
6.6.1	mac	2022-12-15	16:03:43	16:09:50	365230	612c365b952c2a5244a9bee6	638061986	1	main_z	7	advance_on_keypress_ZEE	78	stimuli_distractor_diamondtriangles.svg	stimuli_target_circletriangles.svg	13	yes	57	0	707
6.6.1	mac	2022-12-15	16:03:43	16:09:52	367451	612c365b952c2a5244a9bee6	638061986	1	main_z	7	main_z	79	stimuli_distractor_trianglediamonds.svg	stimuli_target_squaretriangles.svg	11	yes	44	1	894
6.6.1	mac	2022-12-15	16:03:43	16:09:52	367451	612c365b952c2a5244a9bee6	638061986	1	main_z	7	advance_on_keypress_ZEE	80	stimuli_distractor_trianglediamonds.svg	stimuli_target_squaretriangles.svg	11	yes	57	0	603
6.6.1	mac	2022-12-15	16:03:43	16:09:54	369638	612c365b952c2a5244a9bee6	638061986	1	main_z	7	main_z	81	stimuli_distractor_trianglediamonds.svg	stimuli_target_squaretriangles.svg	11	yes	44	1	964
6.6.1	mac	2022-12-15	16:03:43	16:09:54	369638	612c365b952c2a5244a9bee6	638061986	1	main_z	7	advance_on_keypress_ZEE	82	stimuli_distractor_trianglediamonds.svg	stimuli_target_squaretriangles.svg	11	yes	57	0	594
6.6.1	mac	2022-12-15	16:03:43	16:09:57	372856	612c365b952c2a5244a9bee6	638061986	1	main_z	7	main_z	83	stimuli_target_diamondsquares.svg	stimuli_distractor_diamondtriangles.svg	24	yes	0	0	2000
6.6.1	mac	2022-12-15	16:03:43	16:09:57	372856	612c365b952c2a5244a9bee6	638061986	1	main_z	7	advance_on_keypress_ZEE	84	stimuli_target_diamondsquares.svg	stimuli_distractor_diamondtriangles.svg	24	yes	57	0	410
6.6.1	mac	2022-12-15	16:03:43	16:10:00	375890	612c365b952c2a5244a9bee6	638061986	1	main_z	7	main_z	85	stimuli_distractor_diamondtriangles.svg	stimuli_target_diamondsquares.svg	32	yes	0	0	2000
6.6.1	mac	2022-12-15	16:03:43	16:10:00	375890	612c365b952c2a5244a9bee6	638061986	1	main_z	7	advance_on_keypress_ZEE	86	stimuli_distractor_diamondtriangles.svg	stimuli_target_diamondsquares.svg	32	yes	57	0	433
6.6.1	mac	2022-12-15	16:03:43	16:10:02	377592	612c365b952c2a5244a9bee6	638061986	1	main_z	7	main_z	87	stimuli_target_squaretriangles.svg	stimuli_distractor_diamondtriangles.svg	7	yes	44	1	635
6.6.1	mac	2022-12-15	16:03:43	16:10:02	377592	612c365b952c2a5244a9bee6	638061986	1	main_z	7	advance_on_keypress_ZEE	88	stimuli_target_squaretriangles.svg	stimuli_distractor_diamondtriangles.svg	7	yes	57	0	655
6.6.1	mac	2022-12-15	16:03:43	16:10:04	379694	612c365b952c2a5244a9bee6	638061986	1	main_z	7	main_z	89	stimuli_target_circlediamonds.svg	stimuli_distractor_diamondtriangles.svg	6	yes	44	1	820
6.6.1	mac	2022-12-15	16:03:43	16:10:04	379694	612c365b952c2a5244a9bee6	638061986	1	main_z	7	advance_on_keypress_ZEE	90	stimuli_target_circlediamonds.svg	stimuli_distractor_diamondtriangles.svg	6	yes	57	0	694
6.6.1	mac	2022-12-15	16:03:43	16:10:07	383006	612c365b952c2a5244a9bee6	638061986	1	main_z	7	main_z	91	stimuli_distractor_diamondtriangles.svg	stimuli_distractor_trianglediamonds.svg	38	no	0	1	2000
6.6.1	mac	2022-12-15	16:03:43	16:10:07	383006	612c365b952c2a5244a9bee6	638061986	1	main_z	7	advance_on_keypress_ZEE	92	stimuli_distractor_diamondtriangles.svg	stimuli_distractor_trianglediamonds.svg	38	no	57	0	415
6.6.1	mac	2022-12-15	16:03:43	16:10:09	385133	612c365b952c2a5244a9bee6	638061986	1	main_z	7	main_z	93	stimuli_distractor_diamondtriangles.svg	stimuli_target_trianglesquares.svg	30	yes	44	1	1076
6.6.1	mac	2022-12-15	16:03:43	16:10:09	385133	612c365b952c2a5244a9bee6	638061986	1	main_z	7	advance_on_keypress_ZEE	94	stimuli_distractor_diamondtriangles.svg	stimuli_target_trianglesquares.svg	30	yes	57	0	657
6.6.1	mac	2022-12-15	16:03:43	16:10:11	387168	612c365b952c2a5244a9bee6	638061986	1	main_z	7	main_z	95	stimuli_distractor_trianglediamonds.svg	stimuli_target_diamondcircles.svg	27	yes	44	1	761
6.6.1	mac	2022-12-15	16:03:43	16:10:11	387168	612c365b952c2a5244a9bee6	638061986	1	main_z	7	advance_on_keypress_ZEE	96	stimuli_distractor_trianglediamonds.svg	stimuli_target_diamondcircles.svg	27	yes	57	0	692
6.6.1	mac	2022-12-15	16:03:43	16:10:14	389342	612c365b952c2a5244a9bee6	638061986	1	main_z	7	main_z	97	stimuli_target_diamondcircles.svg	stimuli_distractor_diamondtriangles.svg	23	yes	44	1	867
6.6.1	mac	2022-12-15	16:03:43	16:10:14	389342	612c365b952c2a5244a9bee6	638061986	1	main_z	7	advance_on_keypress_ZEE	98	stimuli_target_diamondcircles.svg	stimuli_distractor_diamondtriangles.svg	23	yes	57	0	679
6.6.1	mac	2022-12-15	16:03:43	16:10:16	391391	612c365b952c2a5244a9bee6	638061986	1	main_z	7	main_z	99	stimuli_distractor_diamondtriangles.svg	stimuli_target_circletriangles.svg	13	yes	44	1	750
6.6.1	mac	2022-12-15	16:03:43	16:10:16	391391	612c365b952c2a5244a9bee6	638061986	1	main_z	7	advance_on_keypress_ZEE	100	stimuli_distractor_diamondtriangles.svg	stimuli_target_circletriangles.svg	13	yes	57	0	730
6.6.1	mac	2022-12-15	16:03:43	16:10:19	394739	612c365b952c2a5244a9bee6	638061986	1	main_z	7	main_z	101	stimuli_distractor_trianglediamonds.svg	stimuli_distractor_diamondtriangles.svg	36	no	0	1	2000
6.6.1	mac	2022-12-15	16:03:43	16:10:19	394739	612c365b952c2a5244a9bee6	638061986	1	main_z	7	advance_on_keypress_ZEE	102	stimuli_distractor_trianglediamonds.svg	stimuli_distractor_diamondtriangles.svg	36	no	57	0	657
6.6.1	mac	2022-12-15	16:03:43	16:10:21	396833	612c365b952c2a5244a9bee6	638061986	1	main_z	7	main_z	103	stimuli_target_squarediamonds.svg	stimuli_distractor_trianglediamonds.svg	4	yes	44	1	809
6.6.1	mac	2022-12-15	16:03:43	16:10:21	396833	612c365b952c2a5244a9bee6	638061986	1	main_z	7	advance_on_keypress_ZEE	104	stimuli_target_squarediamonds.svg	stimuli_distractor_trianglediamonds.svg	4	yes	57	0	1040
6.6.1	mac	2022-12-15	16:03:43	16:10:23	399150	612c365b952c2a5244a9bee6	638061986	1	main_z	7	main_z	105	stimuli_target_diamondcircles.svg	stimuli_distractor_trianglediamonds.svg	19	yes	44	1	659
6.6.1	mac	2022-12-15	16:03:43	16:10:23	399150	612c365b952c2a5244a9bee6	638061986	1	main_z	7	advance_on_keypress_ZEE	106	stimuli_target_diamondcircles.svg	stimuli_distractor_trianglediamonds.svg	19	yes	57	0	860
6.6.1	mac	2022-12-15	16:03:43	16:10:27	402623	612c365b952c2a5244a9bee6	638061986	1	main_z	7	main_z	107	stimuli_distractor_diamondtriangles.svg	stimuli_distractor_trianglediamonds.svg	37	no	0	1	2000
6.6.1	mac	2022-12-15	16:03:43	16:10:27	402623	612c365b952c2a5244a9bee6	638061986	1	main_z	7	advance_on_keypress_ZEE	108	stimuli_distractor_diamondtriangles.svg	stimuli_distractor_trianglediamonds.svg	37	no	57	0	577
6.6.1	mac	2022-12-15	16:03:43	16:10:29	404395	612c365b952c2a5244a9bee6	638061986	1	main_z	7	main_z	109	stimuli_distractor_trianglediamonds.svg	stimuli_target_squarediamonds.svg	12	yes	44	1	570
6.6.1	mac	2022-12-15	16:03:43	16:10:29	404395	612c365b952c2a5244a9bee6	638061986	1	main_z	7	advance_on_keypress_ZEE	110	stimuli_distractor_trianglediamonds.svg	stimuli_target_squarediamonds.svg	12	yes	57	0	632
6.6.1	mac	2022-12-15	16:03:43	16:10:31	406478	612c365b952c2a5244a9bee6	638061986	1	main_z	7	main_z	111	stimuli_distractor_trianglediamonds.svg	stimuli_target_trianglesquares.svg	26	yes	44	1	821
6.6.1	mac	2022-12-15	16:03:43	16:10:31	406478	612c365b952c2a5244a9bee6	638061986	1	main_z	7	advance_on_keypress_ZEE	112	stimuli_distractor_trianglediamonds.svg	stimuli_target_trianglesquares.svg	26	yes	57	0	599
6.6.1	mac	2022-12-15	16:03:43	16:10:33	408428	612c365b952c2a5244a9bee6	638061986	1	main_z	7	main_z	113	stimuli_target_trianglesquares.svg	stimuli_distractor_trianglediamonds.svg	18	yes	44	1	720
6.6.1	mac	2022-12-15	16:03:43	16:10:33	408428	612c365b952c2a5244a9bee6	638061986	1	main_z	7	advance_on_keypress_ZEE	114	stimuli_target_trianglesquares.svg	stimuli_distractor_trianglediamonds.svg	18	yes	57	0	643
6.6.1	mac	2022-12-15	16:03:43	16:10:35	410502	612c365b952c2a5244a9bee6	638061986	1	main_z	7	main_z	115	stimuli_target_squaretriangles.svg	stimuli_distractor_trianglediamonds.svg	3	yes	44	1	811
6.6.1	mac	2022-12-15	16:03:43	16:10:35	410502	612c365b952c2a5244a9bee6	638061986	1	main_z	7	advance_on_keypress_ZEE	116	stimuli_target_squaretriangles.svg	stimuli_distractor_trianglediamonds.svg	3	yes	57	0	830
6.6.1	mac	2022-12-15	16:03:43	16:10:37	412550	612c365b952c2a5244a9bee6	638061986	1	main_z	7	main_z	117	stimuli_distractor_trianglediamonds.svg	stimuli_target_circletriangles.svg	9	yes	44	1	592
6.6.1	mac	2022-12-15	16:03:43	16:10:37	412550	612c365b952c2a5244a9bee6	638061986	1	main_z	7	advance_on_keypress_ZEE	118	stimuli_distractor_trianglediamonds.svg	stimuli_target_circletriangles.svg	9	yes	57	0	693
6.6.1	mac	2022-12-15	16:03:43	16:10:40	415856	612c365b952c2a5244a9bee6	638061986	1	main_z	7	main_z	119	stimuli_distractor_diamondtriangles.svg	stimuli_distractor_diamondtriangles.svg	40	no	0	1	2000
6.6.1	mac	2022-12-15	16:03:43	16:10:40	415856	612c365b952c2a5244a9bee6	638061986	1	main_z	7	advance_on_keypress_ZEE	120	stimuli_distractor_diamondtriangles.svg	stimuli_distractor_diamondtriangles.svg	40	no	57	0	932
6.6.1	mac	2022-12-15	16:03:43	16:10:42	417979	612c365b952c2a5244a9bee6	638061986	1	main_z	7	main_z	121	stimuli_target_circlediamonds.svg	stimuli_distractor_trianglediamonds.svg	2	yes	44	1	555
6.6.1	mac	2022-12-15	16:03:43	16:10:42	417979	612c365b952c2a5244a9bee6	638061986	1	main_z	7	advance_on_keypress_ZEE	122	stimuli_target_circlediamonds.svg	stimuli_distractor_trianglediamonds.svg	2	yes	57	0	683
6.6.1	mac	2022-12-15	16:03:43	16:10:44	419919	612c365b952c2a5244a9bee6	638061986	1	main_z	7	main_z	123	stimuli_distractor_diamondtriangles.svg	stimuli_target_diamondcircles.svg	31	yes	44	1	628
6.6.1	mac	2022-12-15	16:03:43	16:10:44	419919	612c365b952c2a5244a9bee6	638061986	1	main_z	7	advance_on_keypress_ZEE	124	stimuli_distractor_diamondtriangles.svg	stimuli_target_diamondcircles.svg	31	yes	57	0	1061
6.6.1	mac	2022-12-15	16:03:43	16:10:47	422325	612c365b952c2a5244a9bee6	638061986	1	main_z	7	main_z	125	stimuli_target_trianglecircles.svg	stimuli_distractor_diamondtriangles.svg	21	yes	44	1	733
6.6.1	mac	2022-12-15	16:03:43	16:10:47	422325	612c365b952c2a5244a9bee6	638061986	1	main_z	7	advance_on_keypress_ZEE	126	stimuli_target_trianglecircles.svg	stimuli_distractor_diamondtriangles.svg	21	yes	57	0	601
6.6.1	mac	2022-12-15	16:03:43	16:10:50	425556	612c365b952c2a5244a9bee6	638061986	1	main_z	7	main_z	127	stimuli_distractor_diamondtriangles.svg	stimuli_distractor_diamondtriangles.svg	39	no	0	1	2000
6.6.1	mac	2022-12-15	16:03:43	16:10:50	425556	612c365b952c2a5244a9bee6	638061986	1	main_z	7	advance_on_keypress_ZEE	128	stimuli_distractor_diamondtriangles.svg	stimuli_distractor_diamondtriangles.svg	39	no	57	0	778
6.6.1	mac	2022-12-15	16:03:43	16:10:52	427978	612c365b952c2a5244a9bee6	638061986	1	main_z	7	main_z	129	stimuli_distractor_trianglediamonds.svg	stimuli_target_diamondsquares.svg	28	yes	44	1	1020
6.6.1	mac	2022-12-15	16:03:43	16:10:52	427978	612c365b952c2a5244a9bee6	638061986	1	main_z	7	advance_on_keypress_ZEE	130	stimuli_distractor_trianglediamonds.svg	stimuli_target_diamondsquares.svg	28	yes	57	0	712
6.6.1	mac	2022-12-15	16:03:43	16:10:54	429982	612c365b952c2a5244a9bee6	638061986	1	main_z	7	main_z	131	stimuli_distractor_diamondtriangles.svg	stimuli_target_squarediamonds.svg	16	yes	44	1	674
6.6.1	mac	2022-12-15	16:03:43	16:10:54	429982	612c365b952c2a5244a9bee6	638061986	1	main_z	7	advance_on_keypress_ZEE	132	stimuli_distractor_diamondtriangles.svg	stimuli_target_squarediamonds.svg	16	yes	57	0	633
6.6.1	mac	2022-12-15	16:03:43	16:10:58	433239	612c365b952c2a5244a9bee6	638061986	1	main_z	7	main_z	133	stimuli_target_trianglesquares.svg	stimuli_distractor_diamondtriangles.svg	22	yes	0	0	2000
6.6.1	mac	2022-12-15	16:03:43	16:10:58	433239	612c365b952c2a5244a9bee6	638061986	1	main_z	7	advance_on_keypress_ZEE	134	stimuli_target_trianglesquares.svg	stimuli_distractor_diamondtriangles.svg	22	yes	57	0	553
6.6.1	mac	2022-12-15	16:03:43	16:11:01	436424	612c365b952c2a5244a9bee6	638061986	1	main_z	7	main_z	135	stimuli_distractor_trianglediamonds.svg	stimuli_distractor_trianglediamonds.svg	34	no	0	1	2000
6.6.1	mac	2022-12-15	16:03:43	16:11:01	436424	612c365b952c2a5244a9bee6	638061986	1	main_z	7	advance_on_keypress_ZEE	136	stimuli_distractor_trianglediamonds.svg	stimuli_distractor_trianglediamonds.svg	34	no	57	0	701
6.6.1	mac	2022-12-15	16:03:43	16:11:04	439757	612c365b952c2a5244a9bee6	638061986	1	main_z	7	main_z	137	stimuli_distractor_trianglediamonds.svg	stimuli_distractor_trianglediamonds.svg	33	no	0	1	2000
6.6.1	mac	2022-12-15	16:03:43	16:11:04	439757	612c365b952c2a5244a9bee6	638061986	1	main_z	7	advance_on_keypress_ZEE	138	stimuli_distractor_trianglediamonds.svg	stimuli_distractor_trianglediamonds.svg	33	no	57	0	425
6.6.1	mac	2022-12-15	16:03:43	16:11:07	442807	612c365b952c2a5244a9bee6	638061986	1	main_z	7	main_z	139	stimuli_target_circletriangles.svg	stimuli_distractor_diamondtriangles.svg	5	yes	0	0	2000
6.6.1	mac	2022-12-15	16:03:43	16:11:07	442807	612c365b952c2a5244a9bee6	638061986	1	main_z	7	advance_on_keypress_ZEE	140	stimuli_target_circletriangles.svg	stimuli_distractor_diamondtriangles.svg	5	yes	57	0	811
6.6.1	mac	2022-12-15	16:03:43	16:11:09	444892	612c365b952c2a5244a9bee6	638061986	1	main_z	7	main_z	141	stimuli_target_diamondsquares.svg	stimuli_distractor_trianglediamonds.svg	20	yes	44	1	650
6.6.1	mac	2022-12-15	16:03:43	16:11:09	444892	612c365b952c2a5244a9bee6	638061986	1	main_z	7	advance_on_keypress_ZEE	142	stimuli_target_diamondsquares.svg	stimuli_distractor_trianglediamonds.svg	20	yes	57	0	800
6.6.1	mac	2022-12-15	16:03:43	16:11:11	446924	612c365b952c2a5244a9bee6	638061986	1	main_z	7	main_z	143	stimuli_distractor_trianglediamonds.svg	stimuli_target_trianglecircles.svg	25	yes	44	1	599
6.6.1	mac	2022-12-15	16:03:43	16:11:11	446924	612c365b952c2a5244a9bee6	638061986	1	main_z	7	advance_on_keypress_ZEE	144	stimuli_distractor_trianglediamonds.svg	stimuli_target_trianglecircles.svg	25	yes	57	0	672
6.6.1	mac	2022-12-15	16:03:43	16:11:14	449506	612c365b952c2a5244a9bee6	638061986	1	main_z	7	main_z	145	stimuli_target_squarediamonds.svg	stimuli_distractor_diamondtriangles.svg	8	yes	44	1	1281
6.6.1	mac	2022-12-15	16:03:43	16:11:14	449506	612c365b952c2a5244a9bee6	638061986	1	main_z	7	advance_on_keypress_ZEE	146	stimuli_target_squarediamonds.svg	stimuli_distractor_diamondtriangles.svg	8	yes	57	0	703
6.6.1	mac	2022-12-15	16:03:43	16:11:16	451599	612c365b952c2a5244a9bee6	638061986	1	main_z	7	main_z	147	stimuli_distractor_diamondtriangles.svg	stimuli_target_squaretriangles.svg	15	yes	44	1	756
6.6.1	mac	2022-12-15	16:03:43	16:11:16	451599	612c365b952c2a5244a9bee6	638061986	1	main_z	7	advance_on_keypress_ZEE	148	stimuli_distractor_diamondtriangles.svg	stimuli_target_squaretriangles.svg	15	yes	57	0	524
6.6.1	mac	2022-12-15	16:03:43	16:11:18	453510	612c365b952c2a5244a9bee6	638061986	1	main_z	7	main_z	149	stimuli_distractor_diamondtriangles.svg	stimuli_target_circlediamonds.svg	14	yes	44	1	769
6.6.1	mac	2022-12-15	16:03:43	16:11:18	453510	612c365b952c2a5244a9bee6	638061986	1	main_z	7	advance_on_keypress_ZEE	150	stimuli_distractor_diamondtriangles.svg	stimuli_target_circlediamonds.svg	14	yes	57	0	541
6.6.1	mac	2022-12-15	16:03:43	16:11:20	455205	612c365b952c2a5244a9bee6	638061986	1	main_z	7	main_z	151	stimuli_distractor_diamondtriangles.svg	stimuli_target_trianglecircles.svg	29	yes	44	1	530
6.6.1	mac	2022-12-15	16:03:43	16:11:20	455205	612c365b952c2a5244a9bee6	638061986	1	main_z	7	advance_on_keypress_ZEE	152	stimuli_distractor_diamondtriangles.svg	stimuli_target_trianglecircles.svg	29	yes	57	0	683
6.6.1	mac	2022-12-15	16:03:43	16:11:22	457252	612c365b952c2a5244a9bee6	638061986	1	main_z	7	main_z	153	stimuli_target_trianglecircles.svg	stimuli_distractor_trianglediamonds.svg	17	yes	44	1	727
6.6.1	mac	2022-12-15	16:03:43	16:11:22	457252	612c365b952c2a5244a9bee6	638061986	1	main_z	7	advance_on_keypress_ZEE	154	stimuli_target_trianglecircles.svg	stimuli_distractor_trianglediamonds.svg	17	yes	57	0	740
6.6.1	mac	2022-12-15	16:03:43	16:11:23	459143	612c365b952c2a5244a9bee6	638061986	1	main_z	7	main_z	155	stimuli_target_circletriangles.svg	stimuli_distractor_trianglediamonds.svg	1	yes	44	1	534
6.6.1	mac	2022-12-15	16:03:43	16:11:23	459143	612c365b952c2a5244a9bee6	638061986	1	main_z	7	advance_on_keypress_ZEE	156	stimuli_target_circletriangles.svg	stimuli_distractor_trianglediamonds.svg	1	yes	57	0	912
6.6.1	mac	2022-12-15	16:03:43	16:11:27	462673	612c365b952c2a5244a9bee6	638061986	1	main_z	7	main_z	157	stimuli_distractor_trianglediamonds.svg	stimuli_distractor_diamondtriangles.svg	35	no	0	1	2000
6.6.1	mac	2022-12-15	16:03:43	16:11:27	462673	612c365b952c2a5244a9bee6	638061986	1	main_z	7	advance_on_keypress_ZEE	158	stimuli_distractor_trianglediamonds.svg	stimuli_distractor_diamondtriangles.svg	35	no	57	0	433
6.6.1	mac	2022-12-15	16:03:43	16:11:29	464323	612c365b952c2a5244a9bee6	638061986	1	main_z	7	main_z	159	stimuli_distractor_trianglediamonds.svg	stimuli_target_circlediamonds.svg	10	yes	44	1	581
6.6.1	mac	2022-12-15	16:03:43	16:11:29	464323	612c365b952c2a5244a9bee6	638061986	1	main_z	7	advance_on_keypress_ZEE	160	stimuli_distractor_trianglediamonds.svg	stimuli_target_circlediamonds.svg	10	yes	57	0	596
6.6.1	mac	2022-12-15	16:03:43	16:11:43	478438	612c365b952c2a5244a9bee6	638061986	1	practice_slash	9	practice_slash	1	stimuli_target_diamondsquares.svg	stimuli_distractor_trianglediamonds.svg	6	yes	53	1	645
6.6.1	mac	2022-12-15	16:03:43	16:11:43	478438	612c365b952c2a5244a9bee6	638061986	1	practice_slash	9	advance_on_keypress_SLASH	2	stimuli_target_diamondsquares.svg	stimuli_distractor_trianglediamonds.svg	6	yes	57	0	673
6.6.1	mac	2022-12-15	16:03:43	16:11:46	481271	612c365b952c2a5244a9bee6	638061986	1	practice_slash	9	practice_slash	3	stimuli_distractor_trianglediamonds.svg	stimuli_target_squarediamonds.svg	11	yes	53	1	545
6.6.1	mac	2022-12-15	16:03:43	16:11:46	481271	612c365b952c2a5244a9bee6	638061986	1	practice_slash	9	advance_on_keypress_SLASH	4	stimuli_distractor_trianglediamonds.svg	stimuli_target_squarediamonds.svg	11	yes	57	0	429
6.6.1	mac	2022-12-15	16:03:43	16:11:48	483817	612c365b952c2a5244a9bee6	638061986	1	practice_slash	9	practice_slash	5	stimuli_target_circlediamonds.svg	stimuli_distractor_diamondtriangles.svg	1	yes	53	1	509
6.6.1	mac	2022-12-15	16:03:43	16:11:48	483817	612c365b952c2a5244a9bee6	638061986	1	practice_slash	9	advance_on_keypress_SLASH	6	stimuli_target_circlediamonds.svg	stimuli_distractor_diamondtriangles.svg	1	yes	57	0	469
6.6.1	mac	2022-12-15	16:03:43	16:11:52	487908	612c365b952c2a5244a9bee6	638061986	1	practice_slash	9	practice_slash	7	stimuli_distractor_trianglediamonds.svg	stimuli_distractor_trianglediamonds.svg	15	no	0	1	2000
6.6.1	mac	2022-12-15	16:03:43	16:11:52	487908	612c365b952c2a5244a9bee6	638061986	1	practice_slash	9	advance_on_keypress_SLASH	8	stimuli_distractor_trianglediamonds.svg	stimuli_distractor_trianglediamonds.svg	15	no	57	0	454
6.6.1	mac	2022-12-15	16:03:43	16:11:56	491991	612c365b952c2a5244a9bee6	638061986	1	practice_slash	9	practice_slash	9	stimuli_distractor_trianglediamonds.svg	stimuli_distractor_diamondtriangles.svg	16	no	0	1	2000
6.6.1	mac	2022-12-15	16:03:43	16:11:56	491991	612c365b952c2a5244a9bee6	638061986	1	practice_slash	9	advance_on_keypress_SLASH	10	stimuli_distractor_trianglediamonds.svg	stimuli_distractor_diamondtriangles.svg	16	no	57	0	489
6.6.1	mac	2022-12-15	16:03:43	16:12:00	496108	612c365b952c2a5244a9bee6	638061986	1	practice_slash	9	practice_slash	11	stimuli_target_squarediamonds.svg	stimuli_distractor_diamondtriangles.svg	2	yes	0	0	2000
6.6.1	mac	2022-12-15	16:03:43	16:12:00	496108	612c365b952c2a5244a9bee6	638061986	1	practice_slash	9	advance_on_keypress_SLASH	12	stimuli_target_squarediamonds.svg	stimuli_distractor_diamondtriangles.svg	2	yes	57	0	446
6.6.1	mac	2022-12-15	16:03:43	16:12:03	498764	612c365b952c2a5244a9bee6	638061986	1	practice_slash	9	practice_slash	13	stimuli_distractor_trianglediamonds.svg	stimuli_target_diamondcircles.svg	12	yes	53	1	571
6.6.1	mac	2022-12-15	16:03:43	16:12:03	498764	612c365b952c2a5244a9bee6	638061986	1	practice_slash	9	advance_on_keypress_SLASH	14	stimuli_distractor_trianglediamonds.svg	stimuli_target_diamondcircles.svg	12	yes	57	0	676
6.6.1	mac	2022-12-15	16:03:43	16:12:07	503057	612c365b952c2a5244a9bee6	638061986	1	practice_slash	9	practice_slash	15	stimuli_distractor_diamondtriangles.svg	stimuli_distractor_trianglediamonds.svg	14	no	0	1	2000
6.6.1	mac	2022-12-15	16:03:43	16:12:07	503057	612c365b952c2a5244a9bee6	638061986	1	practice_slash	9	advance_on_keypress_SLASH	16	stimuli_distractor_diamondtriangles.svg	stimuli_distractor_trianglediamonds.svg	14	no	57	0	431
6.6.1	mac	2022-12-15	16:03:43	16:12:11	507124	612c365b952c2a5244a9bee6	638061986	1	practice_slash	9	practice_slash	17	stimuli_distractor_diamondtriangles.svg	stimuli_distractor_diamondtriangles.svg	13	no	0	1	2000
6.6.1	mac	2022-12-15	16:03:43	16:12:11	507124	612c365b952c2a5244a9bee6	638061986	1	practice_slash	9	advance_on_keypress_SLASH	18	stimuli_distractor_diamondtriangles.svg	stimuli_distractor_diamondtriangles.svg	13	no	57	0	486
6.6.1	mac	2022-12-15	16:03:43	16:12:14	509755	612c365b952c2a5244a9bee6	638061986	1	practice_slash	9	practice_slash	19	stimuli_distractor_diamondtriangles.svg	stimuli_target_trianglecircles.svg	9	yes	53	1	513
6.6.1	mac	2022-12-15	16:03:43	16:12:14	509755	612c365b952c2a5244a9bee6	638061986	1	practice_slash	9	advance_on_keypress_SLASH	20	stimuli_distractor_diamondtriangles.svg	stimuli_target_trianglecircles.svg	9	yes	57	0	448
6.6.1	mac	2022-12-15	16:03:43	16:12:17	512404	612c365b952c2a5244a9bee6	638061986	1	practice_slash	9	practice_slash	21	stimuli_distractor_diamondtriangles.svg	stimuli_target_circletriangles.svg	7	yes	53	1	579
6.6.1	mac	2022-12-15	16:03:43	16:12:17	512404	612c365b952c2a5244a9bee6	638061986	1	practice_slash	9	advance_on_keypress_SLASH	22	stimuli_distractor_diamondtriangles.svg	stimuli_target_circletriangles.svg	7	yes	57	0	751
6.6.1	mac	2022-12-15	16:03:43	16:12:20	515288	612c365b952c2a5244a9bee6	638061986	1	practice_slash	9	practice_slash	23	stimuli_distractor_trianglediamonds.svg	stimuli_target_circlediamonds.svg	10	yes	53	1	513
6.6.1	mac	2022-12-15	16:03:43	16:12:20	515288	612c365b952c2a5244a9bee6	638061986	1	practice_slash	9	advance_on_keypress_SLASH	24	stimuli_distractor_trianglediamonds.svg	stimuli_target_circlediamonds.svg	10	yes	57	0	457
6.6.1	mac	2022-12-15	16:03:43	16:12:22	517929	612c365b952c2a5244a9bee6	638061986	1	practice_slash	9	practice_slash	25	stimuli_target_circlediamonds.svg	stimuli_distractor_trianglediamonds.svg	4	yes	53	1	570
6.6.1	mac	2022-12-15	16:03:43	16:12:22	517929	612c365b952c2a5244a9bee6	638061986	1	practice_slash	9	advance_on_keypress_SLASH	26	stimuli_target_circlediamonds.svg	stimuli_distractor_trianglediamonds.svg	4	yes	57	0	440
6.6.1	mac	2022-12-15	16:03:43	16:12:25	520442	612c365b952c2a5244a9bee6	638061986	1	practice_slash	9	practice_slash	27	stimuli_distractor_diamondtriangles.svg	stimuli_target_diamondcircles.svg	8	yes	53	1	450
6.6.1	mac	2022-12-15	16:03:43	16:12:25	520442	612c365b952c2a5244a9bee6	638061986	1	practice_slash	9	advance_on_keypress_SLASH	28	stimuli_distractor_diamondtriangles.svg	stimuli_target_diamondcircles.svg	8	yes	57	0	483
6.6.1	mac	2022-12-15	16:03:43	16:12:28	523760	612c365b952c2a5244a9bee6	638061986	1	practice_slash	9	practice_slash	29	stimuli_target_diamondsquares.svg	stimuli_distractor_diamondtriangles.svg	3	yes	53	1	1200
6.6.1	mac	2022-12-15	16:03:43	16:12:28	523760	612c365b952c2a5244a9bee6	638061986	1	practice_slash	9	advance_on_keypress_SLASH	30	stimuli_target_diamondsquares.svg	stimuli_distractor_diamondtriangles.svg	3	yes	57	0	384
6.6.1	mac	2022-12-15	16:03:43	16:12:31	526429	612c365b952c2a5244a9bee6	638061986	1	practice_slash	9	practice_slash	31	stimuli_target_squarediamonds.svg	stimuli_distractor_trianglediamonds.svg	5	yes	53	1	653
6.6.1	mac	2022-12-15	16:03:43	16:12:31	526429	612c365b952c2a5244a9bee6	638061986	1	practice_slash	9	advance_on_keypress_SLASH	32	stimuli_target_squarediamonds.svg	stimuli_distractor_trianglediamonds.svg	5	yes	57	0	442
6.6.1	mac	2022-12-15	16:03:43	16:12:34	529977	612c365b952c2a5244a9bee6	638061986	1	main_slash	11	main_slash	1	stimuli_distractor_diamondtriangles.svg	stimuli_target_trianglesquares.svg	30	yes	53	1	601
6.6.1	mac	2022-12-15	16:03:43	16:12:34	529977	612c365b952c2a5244a9bee6	638061986	1	main_slash	11	advance_on_keypress_SLASH	2	stimuli_distractor_diamondtriangles.svg	stimuli_target_trianglesquares.svg	30	yes	57	0	669
6.6.1	mac	2022-12-15	16:03:43	16:12:36	531861	612c365b952c2a5244a9bee6	638061986	1	main_slash	11	main_slash	3	stimuli_target_circlediamonds.svg	stimuli_distractor_trianglediamonds.svg	2	yes	53	1	585
6.6.1	mac	2022-12-15	16:03:43	16:12:36	531861	612c365b952c2a5244a9bee6	638061986	1	main_slash	11	advance_on_keypress_SLASH	4	stimuli_target_circlediamonds.svg	stimuli_distractor_trianglediamonds.svg	2	yes	57	0	542
6.6.1	mac	2022-12-15	16:03:43	16:12:38	533447	612c365b952c2a5244a9bee6	638061986	1	main_slash	11	main_slash	5	stimuli_target_trianglecircles.svg	stimuli_distractor_diamondtriangles.svg	21	yes	53	1	421
6.6.1	mac	2022-12-15	16:03:43	16:12:38	533447	612c365b952c2a5244a9bee6	638061986	1	main_slash	11	advance_on_keypress_SLASH	6	stimuli_target_trianglecircles.svg	stimuli_distractor_diamondtriangles.svg	21	yes	57	0	580
6.6.1	mac	2022-12-15	16:03:43	16:12:39	535051	612c365b952c2a5244a9bee6	638061986	1	main_slash	11	main_slash	7	stimuli_target_diamondcircles.svg	stimuli_distractor_trianglediamonds.svg	19	yes	53	1	393
6.6.1	mac	2022-12-15	16:03:43	16:12:39	535051	612c365b952c2a5244a9bee6	638061986	1	main_slash	11	advance_on_keypress_SLASH	8	stimuli_target_diamondcircles.svg	stimuli_distractor_trianglediamonds.svg	19	yes	57	0	526
6.6.1	mac	2022-12-15	16:03:43	16:12:41	536728	612c365b952c2a5244a9bee6	638061986	1	main_slash	11	main_slash	9	stimuli_target_squaretriangles.svg	stimuli_distractor_trianglediamonds.svg	3	yes	53	1	520
6.6.1	mac	2022-12-15	16:03:43	16:12:41	536728	612c365b952c2a5244a9bee6	638061986	1	main_slash	11	advance_on_keypress_SLASH	10	stimuli_target_squaretriangles.svg	stimuli_distractor_trianglediamonds.svg	3	yes	57	0	466
6.6.1	mac	2022-12-15	16:03:43	16:12:43	538221	612c365b952c2a5244a9bee6	638061986	1	main_slash	11	main_slash	11	stimuli_distractor_trianglediamonds.svg	stimuli_target_diamondcircles.svg	27	yes	53	1	396
6.6.1	mac	2022-12-15	16:03:43	16:12:43	538221	612c365b952c2a5244a9bee6	638061986	1	main_slash	11	advance_on_keypress_SLASH	12	stimuli_distractor_trianglediamonds.svg	stimuli_target_diamondcircles.svg	27	yes	57	0	509
6.6.1	mac	2022-12-15	16:03:43	16:12:44	539731	612c365b952c2a5244a9bee6	638061986	1	main_slash	11	main_slash	13	stimuli_distractor_diamondtriangles.svg	stimuli_target_squarediamonds.svg	16	yes	53	1	371
6.6.1	mac	2022-12-15	16:03:43	16:12:44	539731	612c365b952c2a5244a9bee6	638061986	1	main_slash	11	advance_on_keypress_SLASH	14	stimuli_distractor_diamondtriangles.svg	stimuli_target_squarediamonds.svg	16	yes	57	0	523
6.6.1	mac	2022-12-15	16:03:43	16:12:46	541410	612c365b952c2a5244a9bee6	638061986	1	main_slash	11	main_slash	15	stimuli_distractor_trianglediamonds.svg	stimuli_distractor_diamondtriangles.svg	36	no	53	0	534
6.6.1	mac	2022-12-15	16:03:43	16:12:46	541410	612c365b952c2a5244a9bee6	638061986	1	main_slash	11	advance_on_keypress_SLASH	16	stimuli_distractor_trianglediamonds.svg	stimuli_distractor_diamondtriangles.svg	36	no	57	0	484
6.6.1	mac	2022-12-15	16:03:43	16:12:48	543358	612c365b952c2a5244a9bee6	638061986	1	main_slash	11	main_slash	17	stimuli_target_circletriangles.svg	stimuli_distractor_diamondtriangles.svg	5	yes	53	1	832
6.6.1	mac	2022-12-15	16:03:43	16:12:48	543358	612c365b952c2a5244a9bee6	638061986	1	main_slash	11	advance_on_keypress_SLASH	18	stimuli_target_circletriangles.svg	stimuli_distractor_diamondtriangles.svg	5	yes	57	0	510
6.6.1	mac	2022-12-15	16:03:43	16:12:50	545313	612c365b952c2a5244a9bee6	638061986	1	main_slash	11	main_slash	19	stimuli_distractor_diamondtriangles.svg	stimuli_target_squaretriangles.svg	15	yes	53	1	820
6.6.1	mac	2022-12-15	16:03:43	16:12:50	545313	612c365b952c2a5244a9bee6	638061986	1	main_slash	11	advance_on_keypress_SLASH	20	stimuli_distractor_diamondtriangles.svg	stimuli_target_squaretriangles.svg	15	yes	57	0	647
6.6.1	mac	2022-12-15	16:03:43	16:12:51	547118	612c365b952c2a5244a9bee6	638061986	1	main_slash	11	main_slash	21	stimuli_target_circlediamonds.svg	stimuli_distractor_diamondtriangles.svg	6	yes	53	1	527
6.6.1	mac	2022-12-15	16:03:43	16:12:51	547118	612c365b952c2a5244a9bee6	638061986	1	main_slash	11	advance_on_keypress_SLASH	22	stimuli_target_circlediamonds.svg	stimuli_distractor_diamondtriangles.svg	6	yes	57	0	571
6.6.1	mac	2022-12-15	16:03:43	16:12:53	548847	612c365b952c2a5244a9bee6	638061986	1	main_slash	11	main_slash	23	stimuli_target_squarediamonds.svg	stimuli_distractor_diamondtriangles.svg	8	yes	53	1	538
6.6.1	mac	2022-12-15	16:03:43	16:12:53	548847	612c365b952c2a5244a9bee6	638061986	1	main_slash	11	advance_on_keypress_SLASH	24	stimuli_target_squarediamonds.svg	stimuli_distractor_diamondtriangles.svg	8	yes	57	0	596
6.6.1	mac	2022-12-15	16:03:43	16:12:55	550509	612c365b952c2a5244a9bee6	638061986	1	main_slash	11	main_slash	25	stimuli_target_squaretriangles.svg	stimuli_distractor_diamondtriangles.svg	7	yes	53	1	433
6.6.1	mac	2022-12-15	16:03:43	16:12:55	550509	612c365b952c2a5244a9bee6	638061986	1	main_slash	11	advance_on_keypress_SLASH	26	stimuli_target_squaretriangles.svg	stimuli_distractor_diamondtriangles.svg	7	yes	57	0	555
6.6.1	mac	2022-12-15	16:03:43	16:12:57	552972	612c365b952c2a5244a9bee6	638061986	1	main_slash	11	main_slash	27	stimuli_target_trianglesquares.svg	stimuli_distractor_diamondtriangles.svg	22	yes	53	1	1279
6.6.1	mac	2022-12-15	16:03:43	16:12:57	552972	612c365b952c2a5244a9bee6	638061986	1	main_slash	11	advance_on_keypress_SLASH	28	stimuli_target_trianglesquares.svg	stimuli_distractor_diamondtriangles.svg	22	yes	57	0	634
6.6.1	mac	2022-12-15	16:03:43	16:12:59	554760	612c365b952c2a5244a9bee6	638061986	1	main_slash	11	main_slash	29	stimuli_distractor_trianglediamonds.svg	stimuli_target_squaretriangles.svg	11	yes	53	1	534
6.6.1	mac	2022-12-15	16:03:43	16:12:59	554760	612c365b952c2a5244a9bee6	638061986	1	main_slash	11	advance_on_keypress_SLASH	30	stimuli_distractor_trianglediamonds.svg	stimuli_target_squaretriangles.svg	11	yes	57	0	659
6.6.1	mac	2022-12-15	16:03:43	16:13:01	556838	612c365b952c2a5244a9bee6	638061986	1	main_slash	11	main_slash	31	stimuli_distractor_trianglediamonds.svg	stimuli_target_diamondsquares.svg	28	yes	53	1	796
6.6.1	mac	2022-12-15	16:03:43	16:13:01	556838	612c365b952c2a5244a9bee6	638061986	1	main_slash	11	advance_on_keypress_SLASH	32	stimuli_distractor_trianglediamonds.svg	stimuli_target_diamondsquares.svg	28	yes	57	0	900
6.6.1	mac	2022-12-15	16:03:43	16:13:03	558832	612c365b952c2a5244a9bee6	638061986	1	main_slash	11	main_slash	33	stimuli_distractor_diamondtriangles.svg	stimuli_target_diamondcircles.svg	31	yes	53	1	472
6.6.1	mac	2022-12-15	16:03:43	16:13:03	558832	612c365b952c2a5244a9bee6	638061986	1	main_slash	11	advance_on_keypress_SLASH	34	stimuli_distractor_diamondtriangles.svg	stimuli_target_diamondcircles.svg	31	yes	57	0	565
6.6.1	mac	2022-12-15	16:03:43	16:13:05	560574	612c365b952c2a5244a9bee6	638061986	1	main_slash	11	main_slash	35	stimuli_target_diamondcircles.svg	stimuli_distractor_diamondtriangles.svg	23	yes	53	1	547
6.6.1	mac	2022-12-15	16:03:43	16:13:05	560574	612c365b952c2a5244a9bee6	638061986	1	main_slash	11	advance_on_keypress_SLASH	36	stimuli_target_diamondcircles.svg	stimuli_distractor_diamondtriangles.svg	23	yes	57	0	1172
6.6.1	mac	2022-12-15	16:03:43	16:13:07	562938	612c365b952c2a5244a9bee6	638061986	1	main_slash	11	main_slash	37	stimuli_distractor_trianglediamonds.svg	stimuli_target_squarediamonds.svg	12	yes	53	1	561
6.6.1	mac	2022-12-15	16:03:43	16:13:07	562938	612c365b952c2a5244a9bee6	638061986	1	main_slash	11	advance_on_keypress_SLASH	38	stimuli_distractor_trianglediamonds.svg	stimuli_target_squarediamonds.svg	12	yes	57	0	656
6.6.1	mac	2022-12-15	16:03:43	16:13:09	564982	612c365b952c2a5244a9bee6	638061986	1	main_slash	11	main_slash	39	stimuli_distractor_diamondtriangles.svg	stimuli_distractor_diamondtriangles.svg	40	no	53	0	773
6.6.1	mac	2022-12-15	16:03:43	16:13:09	564982	612c365b952c2a5244a9bee6	638061986	1	main_slash	11	advance_on_keypress_SLASH	40	stimuli_distractor_diamondtriangles.svg	stimuli_distractor_diamondtriangles.svg	40	no	57	0	1021
6.6.1	mac	2022-12-15	16:03:43	16:13:13	568625	612c365b952c2a5244a9bee6	638061986	1	main_slash	11	main_slash	41	stimuli_distractor_trianglediamonds.svg	stimuli_distractor_trianglediamonds.svg	34	no	0	1	2000
6.6.1	mac	2022-12-15	16:03:43	16:13:13	568625	612c365b952c2a5244a9bee6	638061986	1	main_slash	11	advance_on_keypress_SLASH	42	stimuli_distractor_trianglediamonds.svg	stimuli_distractor_trianglediamonds.svg	34	no	57	0	544
6.6.1	mac	2022-12-15	16:03:43	16:13:15	570202	612c365b952c2a5244a9bee6	638061986	1	main_slash	11	main_slash	43	stimuli_distractor_diamondtriangles.svg	stimuli_target_trianglecircles.svg	29	yes	53	1	409
6.6.1	mac	2022-12-15	16:03:43	16:13:15	570202	612c365b952c2a5244a9bee6	638061986	1	main_slash	11	advance_on_keypress_SLASH	44	stimuli_distractor_diamondtriangles.svg	stimuli_target_trianglecircles.svg	29	yes	57	0	592
6.6.1	mac	2022-12-15	16:03:43	16:13:17	572401	612c365b952c2a5244a9bee6	638061986	1	main_slash	11	main_slash	45	stimuli_target_diamondsquares.svg	stimuli_distractor_diamondtriangles.svg	24	yes	53	1	975
6.6.1	mac	2022-12-15	16:03:43	16:13:17	572401	612c365b952c2a5244a9bee6	638061986	1	main_slash	11	advance_on_keypress_SLASH	46	stimuli_target_diamondsquares.svg	stimuli_distractor_diamondtriangles.svg	24	yes	57	0	1280
6.6.1	mac	2022-12-15	16:03:43	16:13:21	576309	612c365b952c2a5244a9bee6	638061986	1	main_slash	11	main_slash	47	stimuli_distractor_diamondtriangles.svg	stimuli_distractor_trianglediamonds.svg	37	no	0	1	2000
6.6.1	mac	2022-12-15	16:03:43	16:13:21	576309	612c365b952c2a5244a9bee6	638061986	1	main_slash	11	advance_on_keypress_SLASH	48	stimuli_distractor_diamondtriangles.svg	stimuli_distractor_trianglediamonds.svg	37	no	57	0	471
6.6.1	mac	2022-12-15	16:03:43	16:13:22	578165	612c365b952c2a5244a9bee6	638061986	1	main_slash	11	main_slash	49	stimuli_distractor_diamondtriangles.svg	stimuli_target_diamondsquares.svg	32	yes	53	1	756
6.6.1	mac	2022-12-15	16:03:43	16:13:22	578165	612c365b952c2a5244a9bee6	638061986	1	main_slash	11	advance_on_keypress_SLASH	50	stimuli_distractor_diamondtriangles.svg	stimuli_target_diamondsquares.svg	32	yes	57	0	1376
6.6.1	mac	2022-12-15	16:03:43	16:13:25	580664	612c365b952c2a5244a9bee6	638061986	1	main_slash	11	main_slash	51	stimuli_distractor_trianglediamonds.svg	stimuli_target_circletriangles.svg	9	yes	53	1	504
6.6.1	mac	2022-12-15	16:03:43	16:13:25	580664	612c365b952c2a5244a9bee6	638061986	1	main_slash	11	advance_on_keypress_SLASH	52	stimuli_distractor_trianglediamonds.svg	stimuli_target_circletriangles.svg	9	yes	57	0	732
6.6.1	mac	2022-12-15	16:03:43	16:13:28	584025	612c365b952c2a5244a9bee6	638061986	1	main_slash	11	main_slash	53	stimuli_distractor_diamondtriangles.svg	stimuli_distractor_diamondtriangles.svg	39	no	0	1	2000
6.6.1	mac	2022-12-15	16:03:43	16:13:28	584025	612c365b952c2a5244a9bee6	638061986	1	main_slash	11	advance_on_keypress_SLASH	54	stimuli_distractor_diamondtriangles.svg	stimuli_distractor_diamondtriangles.svg	39	no	57	0	694
6.6.1	mac	2022-12-15	16:03:43	16:13:31	586441	612c365b952c2a5244a9bee6	638061986	1	main_slash	11	main_slash	55	stimuli_target_diamondsquares.svg	stimuli_distractor_trianglediamonds.svg	20	yes	53	1	1097
6.6.1	mac	2022-12-15	16:03:43	16:13:31	586441	612c365b952c2a5244a9bee6	638061986	1	main_slash	11	advance_on_keypress_SLASH	56	stimuli_target_diamondsquares.svg	stimuli_distractor_trianglediamonds.svg	20	yes	57	0	791
6.6.1	mac	2022-12-15	16:03:43	16:13:34	589858	612c365b952c2a5244a9bee6	638061986	1	main_slash	11	main_slash	57	stimuli_distractor_diamondtriangles.svg	stimuli_distractor_trianglediamonds.svg	38	no	0	1	2000
6.6.1	mac	2022-12-15	16:03:43	16:13:34	589858	612c365b952c2a5244a9bee6	638061986	1	main_slash	11	advance_on_keypress_SLASH	58	stimuli_distractor_diamondtriangles.svg	stimuli_distractor_trianglediamonds.svg	38	no	57	0	472
6.6.1	mac	2022-12-15	16:03:43	16:13:36	591448	612c365b952c2a5244a9bee6	638061986	1	main_slash	11	main_slash	59	stimuli_distractor_diamondtriangles.svg	stimuli_target_circletriangles.svg	13	yes	53	1	488
6.6.1	mac	2022-12-15	16:03:43	16:13:36	591448	612c365b952c2a5244a9bee6	638061986	1	main_slash	11	advance_on_keypress_SLASH	60	stimuli_distractor_diamondtriangles.svg	stimuli_target_circletriangles.svg	13	yes	57	0	576
6.6.1	mac	2022-12-15	16:03:43	16:13:37	593171	612c365b952c2a5244a9bee6	638061986	1	main_slash	11	main_slash	61	stimuli_target_squarediamonds.svg	stimuli_distractor_trianglediamonds.svg	4	yes	53	1	529
6.6.1	mac	2022-12-15	16:03:43	16:13:37	593171	612c365b952c2a5244a9bee6	638061986	1	main_slash	11	advance_on_keypress_SLASH	62	stimuli_target_squarediamonds.svg	stimuli_distractor_trianglediamonds.svg	4	yes	57	0	554
6.6.1	mac	2022-12-15	16:03:43	16:13:39	594845	612c365b952c2a5244a9bee6	638061986	1	main_slash	11	main_slash	63	stimuli_distractor_trianglediamonds.svg	stimuli_target_trianglesquares.svg	26	yes	53	1	501
6.6.1	mac	2022-12-15	16:03:43	16:13:39	594845	612c365b952c2a5244a9bee6	638061986	1	main_slash	11	advance_on_keypress_SLASH	64	stimuli_distractor_trianglediamonds.svg	stimuli_target_trianglesquares.svg	26	yes	57	0	561
6.6.1	mac	2022-12-15	16:03:43	16:13:41	596552	612c365b952c2a5244a9bee6	638061986	1	main_slash	11	main_slash	65	stimuli_distractor_trianglediamonds.svg	stimuli_target_trianglecircles.svg	25	yes	53	1	527
6.6.1	mac	2022-12-15	16:03:43	16:13:41	596552	612c365b952c2a5244a9bee6	638061986	1	main_slash	11	advance_on_keypress_SLASH	66	stimuli_distractor_trianglediamonds.svg	stimuli_target_trianglecircles.svg	25	yes	57	0	479
6.6.1	mac	2022-12-15	16:03:43	16:13:43	598207	612c365b952c2a5244a9bee6	638061986	1	main_slash	11	main_slash	67	stimuli_target_trianglecircles.svg	stimuli_distractor_trianglediamonds.svg	17	yes	53	1	547
6.6.1	mac	2022-12-15	16:03:43	16:13:43	598207	612c365b952c2a5244a9bee6	638061986	1	main_slash	11	advance_on_keypress_SLASH	68	stimuli_target_trianglecircles.svg	stimuli_distractor_trianglediamonds.svg	17	yes	57	0	465
6.6.1	mac	2022-12-15	16:03:43	16:13:46	601309	612c365b952c2a5244a9bee6	638061986	1	main_slash	11	main_slash	69	stimuli_distractor_trianglediamonds.svg	stimuli_distractor_diamondtriangles.svg	35	no	0	1	2000
6.6.1	mac	2022-12-15	16:03:43	16:13:46	601309	612c365b952c2a5244a9bee6	638061986	1	main_slash	11	advance_on_keypress_SLASH	70	stimuli_distractor_trianglediamonds.svg	stimuli_distractor_diamondtriangles.svg	35	no	57	0	421
6.6.1	mac	2022-12-15	16:03:43	16:13:47	602963	612c365b952c2a5244a9bee6	638061986	1	main_slash	11	main_slash	71	stimuli_distractor_trianglediamonds.svg	stimuli_target_circlediamonds.svg	10	yes	53	1	604
6.6.1	mac	2022-12-15	16:03:43	16:13:47	602963	612c365b952c2a5244a9bee6	638061986	1	main_slash	11	advance_on_keypress_SLASH	72	stimuli_distractor_trianglediamonds.svg	stimuli_target_circlediamonds.svg	10	yes	57	0	806
6.6.1	mac	2022-12-15	16:03:43	16:13:51	606392	612c365b952c2a5244a9bee6	638061986	1	main_slash	11	main_slash	73	stimuli_distractor_trianglediamonds.svg	stimuli_distractor_trianglediamonds.svg	33	no	0	1	2000
6.6.1	mac	2022-12-15	16:03:43	16:13:51	606392	612c365b952c2a5244a9bee6	638061986	1	main_slash	11	advance_on_keypress_SLASH	74	stimuli_distractor_trianglediamonds.svg	stimuli_distractor_trianglediamonds.svg	33	no	57	0	379
6.6.1	mac	2022-12-15	16:03:43	16:13:52	607905	612c365b952c2a5244a9bee6	638061986	1	main_slash	11	main_slash	75	stimuli_distractor_diamondtriangles.svg	stimuli_target_circlediamonds.svg	14	yes	53	1	511
6.6.1	mac	2022-12-15	16:03:43	16:13:52	607905	612c365b952c2a5244a9bee6	638061986	1	main_slash	11	advance_on_keypress_SLASH	76	stimuli_distractor_diamondtriangles.svg	stimuli_target_circlediamonds.svg	14	yes	57	0	577
6.6.1	mac	2022-12-15	16:03:43	16:13:54	609655	612c365b952c2a5244a9bee6	638061986	1	main_slash	11	main_slash	77	stimuli_target_circletriangles.svg	stimuli_distractor_trianglediamonds.svg	1	yes	53	1	562
6.6.1	mac	2022-12-15	16:03:43	16:13:54	609655	612c365b952c2a5244a9bee6	638061986	1	main_slash	11	advance_on_keypress_SLASH	78	stimuli_target_circletriangles.svg	stimuli_distractor_trianglediamonds.svg	1	yes	57	0	470
6.6.1	mac	2022-12-15	16:03:43	16:13:56	611532	612c365b952c2a5244a9bee6	638061986	1	main_slash	11	main_slash	79	stimuli_target_trianglesquares.svg	stimuli_distractor_trianglediamonds.svg	18	yes	53	1	789
6.6.1	mac	2022-12-15	16:03:43	16:13:56	611532	612c365b952c2a5244a9bee6	638061986	1	main_slash	11	advance_on_keypress_SLASH	80	stimuli_target_trianglesquares.svg	stimuli_distractor_trianglediamonds.svg	18	yes	57	0	484
6.6.1	mac	2022-12-15	16:03:43	16:13:58	613205	612c365b952c2a5244a9bee6	638061986	1	main_slash	11	main_slash	81	stimuli_target_circletriangles.svg	stimuli_distractor_trianglediamonds.svg	1	yes	53	1	561
6.6.1	mac	2022-12-15	16:03:43	16:13:58	613205	612c365b952c2a5244a9bee6	638061986	1	main_slash	11	advance_on_keypress_SLASH	82	stimuli_target_circletriangles.svg	stimuli_distractor_trianglediamonds.svg	1	yes	57	0	478
6.6.1	mac	2022-12-15	16:03:43	16:14:01	616309	612c365b952c2a5244a9bee6	638061986	1	main_slash	11	main_slash	83	stimuli_distractor_trianglediamonds.svg	stimuli_distractor_diamondtriangles.svg	35	no	0	1	2000
6.6.1	mac	2022-12-15	16:03:43	16:14:01	616309	612c365b952c2a5244a9bee6	638061986	1	main_slash	11	advance_on_keypress_SLASH	84	stimuli_distractor_trianglediamonds.svg	stimuli_distractor_diamondtriangles.svg	35	no	57	0	496
6.6.1	mac	2022-12-15	16:03:43	16:14:02	617957	612c365b952c2a5244a9bee6	638061986	1	main_slash	11	main_slash	85	stimuli_target_squaretriangles.svg	stimuli_distractor_diamondtriangles.svg	7	yes	53	1	531
6.6.1	mac	2022-12-15	16:03:43	16:14:02	617957	612c365b952c2a5244a9bee6	638061986	1	main_slash	11	advance_on_keypress_SLASH	86	stimuli_target_squaretriangles.svg	stimuli_distractor_diamondtriangles.svg	7	yes	57	0	516
6.6.1	mac	2022-12-15	16:03:43	16:14:04	619624	612c365b952c2a5244a9bee6	638061986	1	main_slash	11	main_slash	87	stimuli_distractor_diamondtriangles.svg	stimuli_target_trianglesquares.svg	30	yes	53	1	514
6.6.1	mac	2022-12-15	16:03:43	16:14:04	619624	612c365b952c2a5244a9bee6	638061986	1	main_slash	11	advance_on_keypress_SLASH	88	stimuli_distractor_diamondtriangles.svg	stimuli_target_trianglesquares.svg	30	yes	57	0	594
6.6.1	mac	2022-12-15	16:03:43	16:14:06	621617	612c365b952c2a5244a9bee6	638061986	1	main_slash	11	main_slash	89	stimuli_target_squarediamonds.svg	stimuli_distractor_diamondtriangles.svg	8	yes	53	1	772
6.6.1	mac	2022-12-15	16:03:43	16:14:06	621617	612c365b952c2a5244a9bee6	638061986	1	main_slash	11	advance_on_keypress_SLASH	90	stimuli_target_squarediamonds.svg	stimuli_distractor_diamondtriangles.svg	8	yes	57	0	613
6.6.1	mac	2022-12-15	16:03:43	16:14:08	623465	612c365b952c2a5244a9bee6	638061986	1	main_slash	11	main_slash	91	stimuli_target_circlediamonds.svg	stimuli_distractor_diamondtriangles.svg	6	yes	53	1	605
6.6.1	mac	2022-12-15	16:03:43	16:14:08	623465	612c365b952c2a5244a9bee6	638061986	1	main_slash	11	advance_on_keypress_SLASH	92	stimuli_target_circlediamonds.svg	stimuli_distractor_diamondtriangles.svg	6	yes	57	0	488
6.6.1	mac	2022-12-15	16:03:43	16:14:09	625118	612c365b952c2a5244a9bee6	638061986	1	main_slash	11	main_slash	93	stimuli_distractor_diamondtriangles.svg	stimuli_target_circlediamonds.svg	14	yes	53	1	541
6.6.1	mac	2022-12-15	16:03:43	16:14:09	625118	612c365b952c2a5244a9bee6	638061986	1	main_slash	11	advance_on_keypress_SLASH	94	stimuli_distractor_diamondtriangles.svg	stimuli_target_circlediamonds.svg	14	yes	57	0	460
6.6.1	mac	2022-12-15	16:03:43	16:14:11	626995	612c365b952c2a5244a9bee6	638061986	1	main_slash	11	main_slash	95	stimuli_target_diamondsquares.svg	stimuli_distractor_trianglediamonds.svg	20	yes	53	1	785
6.6.1	mac	2022-12-15	16:03:43	16:14:11	626995	612c365b952c2a5244a9bee6	638061986	1	main_slash	11	advance_on_keypress_SLASH	96	stimuli_target_diamondsquares.svg	stimuli_distractor_trianglediamonds.svg	20	yes	57	0	471
6.6.1	mac	2022-12-15	16:03:43	16:14:13	628662	612c365b952c2a5244a9bee6	638061986	1	main_slash	11	main_slash	97	stimuli_distractor_trianglediamonds.svg	stimuli_target_squarediamonds.svg	12	yes	53	1	568
6.6.1	mac	2022-12-15	16:03:43	16:14:13	628662	612c365b952c2a5244a9bee6	638061986	1	main_slash	11	advance_on_keypress_SLASH	98	stimuli_distractor_trianglediamonds.svg	stimuli_target_squarediamonds.svg	12	yes	57	0	429
6.6.1	mac	2022-12-15	16:03:43	16:14:15	630258	612c365b952c2a5244a9bee6	638061986	1	main_slash	11	main_slash	99	stimuli_distractor_diamondtriangles.svg	stimuli_target_trianglecircles.svg	29	yes	53	1	548
6.6.1	mac	2022-12-15	16:03:43	16:14:15	630258	612c365b952c2a5244a9bee6	638061986	1	main_slash	11	advance_on_keypress_SLASH	100	stimuli_distractor_diamondtriangles.svg	stimuli_target_trianglecircles.svg	29	yes	57	0	441
6.6.1	mac	2022-12-15	16:03:43	16:14:17	632237	612c365b952c2a5244a9bee6	638061986	1	main_slash	11	main_slash	101	stimuli_target_trianglesquares.svg	stimuli_distractor_trianglediamonds.svg	18	yes	53	1	910
6.6.1	mac	2022-12-15	16:03:43	16:14:17	632237	612c365b952c2a5244a9bee6	638061986	1	main_slash	11	advance_on_keypress_SLASH	102	stimuli_target_trianglesquares.svg	stimuli_distractor_trianglediamonds.svg	18	yes	57	0	440
6.6.1	mac	2022-12-15	16:03:43	16:14:18	633827	612c365b952c2a5244a9bee6	638061986	1	main_slash	11	main_slash	103	stimuli_target_diamondcircles.svg	stimuli_distractor_diamondtriangles.svg	23	yes	53	1	534
6.6.1	mac	2022-12-15	16:03:43	16:14:18	633827	612c365b952c2a5244a9bee6	638061986	1	main_slash	11	advance_on_keypress_SLASH	104	stimuli_target_diamondcircles.svg	stimuli_distractor_diamondtriangles.svg	23	yes	57	0	396
6.6.1	mac	2022-12-15	16:03:43	16:14:20	635411	612c365b952c2a5244a9bee6	638061986	1	main_slash	11	main_slash	105	stimuli_target_squaretriangles.svg	stimuli_distractor_trianglediamonds.svg	3	yes	53	1	567
6.6.1	mac	2022-12-15	16:03:43	16:14:20	635411	612c365b952c2a5244a9bee6	638061986	1	main_slash	11	advance_on_keypress_SLASH	106	stimuli_target_squaretriangles.svg	stimuli_distractor_trianglediamonds.svg	3	yes	57	0	520
6.6.1	mac	2022-12-15	16:03:43	16:14:22	637283	612c365b952c2a5244a9bee6	638061986	1	main_slash	11	main_slash	107	stimuli_target_diamondsquares.svg	stimuli_distractor_diamondtriangles.svg	24	yes	53	1	722
6.6.1	mac	2022-12-15	16:03:43	16:14:22	637283	612c365b952c2a5244a9bee6	638061986	1	main_slash	11	advance_on_keypress_SLASH	108	stimuli_target_diamondsquares.svg	stimuli_distractor_diamondtriangles.svg	24	yes	57	0	536
6.6.1	mac	2022-12-15	16:03:43	16:14:23	638991	612c365b952c2a5244a9bee6	638061986	1	main_slash	11	main_slash	109	stimuli_target_trianglecircles.svg	stimuli_distractor_trianglediamonds.svg	17	yes	53	1	548
6.6.1	mac	2022-12-15	16:03:43	16:14:23	638991	612c365b952c2a5244a9bee6	638061986	1	main_slash	11	advance_on_keypress_SLASH	110	stimuli_target_trianglecircles.svg	stimuli_distractor_trianglediamonds.svg	17	yes	57	0	474
6.6.1	mac	2022-12-15	16:03:43	16:14:25	640682	612c365b952c2a5244a9bee6	638061986	1	main_slash	11	main_slash	111	stimuli_target_circletriangles.svg	stimuli_distractor_diamondtriangles.svg	5	yes	53	1	589
6.6.1	mac	2022-12-15	16:03:43	16:14:25	640682	612c365b952c2a5244a9bee6	638061986	1	main_slash	11	advance_on_keypress_SLASH	112	stimuli_target_circletriangles.svg	stimuli_distractor_diamondtriangles.svg	5	yes	57	0	544
6.6.1	mac	2022-12-15	16:03:43	16:14:27	642472	612c365b952c2a5244a9bee6	638061986	1	main_slash	11	main_slash	113	stimuli_distractor_diamondtriangles.svg	stimuli_distractor_diamondtriangles.svg	40	no	53	0	629
6.6.1	mac	2022-12-15	16:03:43	16:14:27	642472	612c365b952c2a5244a9bee6	638061986	1	main_slash	11	advance_on_keypress_SLASH	114	stimuli_distractor_diamondtriangles.svg	stimuli_distractor_diamondtriangles.svg	40	no	57	0	855
6.6.1	mac	2022-12-15	16:03:43	16:14:29	644426	612c365b952c2a5244a9bee6	638061986	1	main_slash	11	main_slash	115	stimuli_distractor_diamondtriangles.svg	stimuli_target_circletriangles.svg	13	yes	53	1	482
6.6.1	mac	2022-12-15	16:03:43	16:14:29	644426	612c365b952c2a5244a9bee6	638061986	1	main_slash	11	advance_on_keypress_SLASH	116	stimuli_distractor_diamondtriangles.svg	stimuli_target_circletriangles.svg	13	yes	57	0	484
6.6.1	mac	2022-12-15	16:03:43	16:14:30	646184	612c365b952c2a5244a9bee6	638061986	1	main_slash	11	main_slash	117	stimuli_target_circlediamonds.svg	stimuli_distractor_trianglediamonds.svg	2	yes	53	1	641
6.6.1	mac	2022-12-15	16:03:43	16:14:30	646184	612c365b952c2a5244a9bee6	638061986	1	main_slash	11	advance_on_keypress_SLASH	118	stimuli_target_circlediamonds.svg	stimuli_distractor_trianglediamonds.svg	2	yes	57	0	483
6.6.1	mac	2022-12-15	16:03:43	16:14:32	647837	612c365b952c2a5244a9bee6	638061986	1	main_slash	11	main_slash	119	stimuli_distractor_trianglediamonds.svg	stimuli_target_trianglesquares.svg	26	yes	53	1	543
6.6.1	mac	2022-12-15	16:03:43	16:14:32	647837	612c365b952c2a5244a9bee6	638061986	1	main_slash	11	advance_on_keypress_SLASH	120	stimuli_distractor_trianglediamonds.svg	stimuli_target_trianglesquares.svg	26	yes	57	0	416
6.6.1	mac	2022-12-15	16:03:43	16:14:34	649472	612c365b952c2a5244a9bee6	638061986	1	main_slash	11	main_slash	121	stimuli_distractor_trianglediamonds.svg	stimuli_target_circletriangles.svg	9	yes	53	1	594
6.6.1	mac	2022-12-15	16:03:43	16:14:34	649472	612c365b952c2a5244a9bee6	638061986	1	main_slash	11	advance_on_keypress_SLASH	122	stimuli_distractor_trianglediamonds.svg	stimuli_target_circletriangles.svg	9	yes	57	0	611
6.6.1	mac	2022-12-15	16:03:43	16:14:36	651393	612c365b952c2a5244a9bee6	638061986	1	main_slash	11	main_slash	123	stimuli_distractor_diamondtriangles.svg	stimuli_distractor_trianglediamonds.svg	37	no	53	0	699
6.6.1	mac	2022-12-15	16:03:43	16:14:36	651393	612c365b952c2a5244a9bee6	638061986	1	main_slash	11	advance_on_keypress_SLASH	124	stimuli_distractor_diamondtriangles.svg	stimuli_distractor_trianglediamonds.svg	37	no	57	0	509
6.6.1	mac	2022-12-15	16:03:43	16:14:37	653051	612c365b952c2a5244a9bee6	638061986	1	main_slash	11	main_slash	125	stimuli_distractor_trianglediamonds.svg	stimuli_target_squaretriangles.svg	11	yes	53	1	524
6.6.1	mac	2022-12-15	16:03:43	16:14:37	653051	612c365b952c2a5244a9bee6	638061986	1	main_slash	11	advance_on_keypress_SLASH	126	stimuli_distractor_trianglediamonds.svg	stimuli_target_squaretriangles.svg	11	yes	57	0	425
6.6.1	mac	2022-12-15	16:03:43	16:14:40	656109	612c365b952c2a5244a9bee6	638061986	1	main_slash	11	main_slash	127	stimuli_distractor_trianglediamonds.svg	stimuli_distractor_trianglediamonds.svg	34	no	0	1	2000
6.6.1	mac	2022-12-15	16:03:43	16:14:40	656109	612c365b952c2a5244a9bee6	638061986	1	main_slash	11	advance_on_keypress_SLASH	128	stimuli_distractor_trianglediamonds.svg	stimuli_distractor_trianglediamonds.svg	34	no	57	0	440
6.6.1	mac	2022-12-15	16:03:43	16:14:42	657932	612c365b952c2a5244a9bee6	638061986	1	main_slash	11	main_slash	129	stimuli_distractor_trianglediamonds.svg	stimuli_target_diamondsquares.svg	28	yes	53	1	755
6.6.1	mac	2022-12-15	16:03:43	16:14:42	657932	612c365b952c2a5244a9bee6	638061986	1	main_slash	11	advance_on_keypress_SLASH	130	stimuli_distractor_trianglediamonds.svg	stimuli_target_diamondsquares.svg	28	yes	57	0	550
6.6.1	mac	2022-12-15	16:03:43	16:14:44	659652	612c365b952c2a5244a9bee6	638061986	1	main_slash	11	main_slash	131	stimuli_distractor_diamondtriangles.svg	stimuli_target_squaretriangles.svg	15	yes	53	1	541
6.6.1	mac	2022-12-15	16:03:43	16:14:44	659652	612c365b952c2a5244a9bee6	638061986	1	main_slash	11	advance_on_keypress_SLASH	132	stimuli_distractor_diamondtriangles.svg	stimuli_target_squaretriangles.svg	15	yes	57	0	424
6.6.1	mac	2022-12-15	16:03:43	16:14:47	662709	612c365b952c2a5244a9bee6	638061986	1	main_slash	11	main_slash	133	stimuli_distractor_trianglediamonds.svg	stimuli_distractor_diamondtriangles.svg	36	no	0	1	2000
6.6.1	mac	2022-12-15	16:03:43	16:14:47	662709	612c365b952c2a5244a9bee6	638061986	1	main_slash	11	advance_on_keypress_SLASH	134	stimuli_distractor_trianglediamonds.svg	stimuli_distractor_diamondtriangles.svg	36	no	57	0	468
6.6.1	mac	2022-12-15	16:03:43	16:14:49	664296	612c365b952c2a5244a9bee6	638061986	1	main_slash	11	main_slash	135	stimuli_distractor_diamondtriangles.svg	stimuli_target_squarediamonds.svg	16	yes	53	1	485
6.6.1	mac	2022-12-15	16:03:43	16:14:49	664296	612c365b952c2a5244a9bee6	638061986	1	main_slash	11	advance_on_keypress_SLASH	136	stimuli_distractor_diamondtriangles.svg	stimuli_target_squarediamonds.svg	16	yes	57	0	425
6.6.1	mac	2022-12-15	16:03:43	16:14:50	665839	612c365b952c2a5244a9bee6	638061986	1	main_slash	11	main_slash	137	stimuli_distractor_diamondtriangles.svg	stimuli_target_diamondsquares.svg	32	yes	53	1	495
6.6.1	mac	2022-12-15	16:03:43	16:14:50	665839	612c365b952c2a5244a9bee6	638061986	1	main_slash	11	advance_on_keypress_SLASH	138	stimuli_distractor_diamondtriangles.svg	stimuli_target_diamondsquares.svg	32	yes	57	0	1026
6.6.1	mac	2022-12-15	16:03:43	16:14:54	669476	612c365b952c2a5244a9bee6	638061986	1	main_slash	11	main_slash	139	stimuli_distractor_trianglediamonds.svg	stimuli_distractor_trianglediamonds.svg	33	no	0	1	2000
6.6.1	mac	2022-12-15	16:03:43	16:14:54	669476	612c365b952c2a5244a9bee6	638061986	1	main_slash	11	advance_on_keypress_SLASH	140	stimuli_distractor_trianglediamonds.svg	stimuli_distractor_trianglediamonds.svg	33	no	57	0	420
6.6.1	mac	2022-12-15	16:03:43	16:14:55	671038	612c365b952c2a5244a9bee6	638061986	1	main_slash	11	main_slash	141	stimuli_distractor_trianglediamonds.svg	stimuli_target_trianglecircles.svg	25	yes	53	1	510
6.6.1	mac	2022-12-15	16:03:43	16:14:55	671038	612c365b952c2a5244a9bee6	638061986	1	main_slash	11	advance_on_keypress_SLASH	142	stimuli_distractor_trianglediamonds.svg	stimuli_target_trianglecircles.svg	25	yes	57	0	473
6.6.1	mac	2022-12-15	16:03:43	16:14:57	672698	612c365b952c2a5244a9bee6	638061986	1	main_slash	11	main_slash	143	stimuli_target_squarediamonds.svg	stimuli_distractor_trianglediamonds.svg	4	yes	53	1	570
6.6.1	mac	2022-12-15	16:03:43	16:14:57	672698	612c365b952c2a5244a9bee6	638061986	1	main_slash	11	advance_on_keypress_SLASH	144	stimuli_target_squarediamonds.svg	stimuli_distractor_trianglediamonds.svg	4	yes	57	0	419
6.6.1	mac	2022-12-15	16:03:43	16:14:59	674273	612c365b952c2a5244a9bee6	638061986	1	main_slash	11	main_slash	145	stimuli_target_trianglecircles.svg	stimuli_distractor_diamondtriangles.svg	21	yes	53	1	529
6.6.1	mac	2022-12-15	16:03:43	16:14:59	674273	612c365b952c2a5244a9bee6	638061986	1	main_slash	11	advance_on_keypress_SLASH	146	stimuli_target_trianglecircles.svg	stimuli_distractor_diamondtriangles.svg	21	yes	57	0	559
6.6.1	mac	2022-12-15	16:03:43	16:15:02	677460	612c365b952c2a5244a9bee6	638061986	1	main_slash	11	main_slash	147	stimuli_distractor_diamondtriangles.svg	stimuli_distractor_trianglediamonds.svg	38	no	0	1	2000
6.6.1	mac	2022-12-15	16:03:43	16:15:02	677460	612c365b952c2a5244a9bee6	638061986	1	main_slash	11	advance_on_keypress_SLASH	148	stimuli_distractor_diamondtriangles.svg	stimuli_distractor_trianglediamonds.svg	38	no	57	0	410
6.6.1	mac	2022-12-15	16:03:43	16:15:03	679130	612c365b952c2a5244a9bee6	638061986	1	main_slash	11	main_slash	149	stimuli_target_trianglesquares.svg	stimuli_distractor_diamondtriangles.svg	22	yes	53	1	635
6.6.1	mac	2022-12-15	16:03:43	16:15:03	679130	612c365b952c2a5244a9bee6	638061986	1	main_slash	11	advance_on_keypress_SLASH	150	stimuli_target_trianglesquares.svg	stimuli_distractor_diamondtriangles.svg	22	yes	57	0	567
6.6.1	mac	2022-12-15	16:03:43	16:15:05	680821	612c365b952c2a5244a9bee6	638061986	1	main_slash	11	main_slash	151	stimuli_distractor_trianglediamonds.svg	stimuli_target_circlediamonds.svg	10	yes	53	1	493
6.6.1	mac	2022-12-15	16:03:43	16:15:05	680821	612c365b952c2a5244a9bee6	638061986	1	main_slash	11	advance_on_keypress_SLASH	152	stimuli_distractor_trianglediamonds.svg	stimuli_target_circlediamonds.svg	10	yes	57	0	484
6.6.1	mac	2022-12-15	16:03:43	16:15:07	682471	612c365b952c2a5244a9bee6	638061986	1	main_slash	11	main_slash	153	stimuli_distractor_trianglediamonds.svg	stimuli_target_diamondcircles.svg	27	yes	53	1	543
6.6.1	mac	2022-12-15	16:03:43	16:15:07	682471	612c365b952c2a5244a9bee6	638061986	1	main_slash	11	advance_on_keypress_SLASH	154	stimuli_distractor_trianglediamonds.svg	stimuli_target_diamondcircles.svg	27	yes	57	0	587
6.6.1	mac	2022-12-15	16:03:43	16:15:09	684219	612c365b952c2a5244a9bee6	638061986	1	main_slash	11	main_slash	155	stimuli_distractor_diamondtriangles.svg	stimuli_target_diamondcircles.svg	31	yes	53	1	541
6.6.1	mac	2022-12-15	16:03:43	16:15:09	684219	612c365b952c2a5244a9bee6	638061986	1	main_slash	11	advance_on_keypress_SLASH	156	stimuli_distractor_diamondtriangles.svg	stimuli_target_diamondcircles.svg	31	yes	57	0	442
6.6.1	mac	2022-12-15	16:03:43	16:15:10	685772	612c365b952c2a5244a9bee6	638061986	1	main_slash	11	main_slash	157	stimuli_target_diamondcircles.svg	stimuli_distractor_trianglediamonds.svg	19	yes	53	1	477
6.6.1	mac	2022-12-15	16:03:43	16:15:10	685772	612c365b952c2a5244a9bee6	638061986	1	main_slash	11	advance_on_keypress_SLASH	158	stimuli_target_diamondcircles.svg	stimuli_distractor_trianglediamonds.svg	19	yes	57	0	346
6.6.1	mac	2022-12-15	16:03:43	16:15:13	688726	612c365b952c2a5244a9bee6	638061986	1	main_slash	11	main_slash	159	stimuli_distractor_diamondtriangles.svg	stimuli_distractor_diamondtriangles.svg	39	no	0	1	2000
6.6.1	mac	2022-12-15	16:03:43	16:15:13	688726	612c365b952c2a5244a9bee6	638061986	1	main_slash	11	advance_on_keypress_SLASH	160	stimuli_distractor_diamondtriangles.svg	stimuli_distractor_diamondtriangles.svg	39	no	57	0	771