build	computer.platform	date	time	timestamp	time_elapsed_ms	subject	group	session	blockcode	blocknum	trialcode	trialnum	stimulus_left	stimulus_right	stim_index	target_present	response	correct	latency
6.6.1	win	2022-12-25	19:40:44	19:42:58	133388	5fcbe82a12a0c80009d6e9cf	877994248	1	practice_z	5	practice_z	1	stimuli_target_squarediamonds.svg	stimuli_distractor_diamondtriangles.svg	2	yes	0	0	2000
6.6.1	win	2022-12-25	19:40:44	19:42:58	133388	5fcbe82a12a0c80009d6e9cf	877994248	1	practice_z	5	advance_on_keypress_ZEE	2	stimuli_target_squarediamonds.svg	stimuli_distractor_diamondtriangles.svg	2	yes	57	0	4148
6.6.1	win	2022-12-25	19:40:44	19:43:05	139823	5fcbe82a12a0c80009d6e9cf	877994248	1	practice_z	5	practice_z	3	stimuli_target_circlediamonds.svg	stimuli_distractor_trianglediamonds.svg	4	yes	44	1	630
6.6.1	win	2022-12-25	19:40:44	19:43:05	139823	5fcbe82a12a0c80009d6e9cf	877994248	1	practice_z	5	advance_on_keypress_ZEE	4	stimuli_target_circlediamonds.svg	stimuli_distractor_trianglediamonds.svg	4	yes	57	0	1674
6.6.1	win	2022-12-25	19:40:44	19:43:09	144499	5fcbe82a12a0c80009d6e9cf	877994248	1	practice_z	5	practice_z	5	stimuli_distractor_trianglediamonds.svg	stimuli_distractor_trianglediamonds.svg	15	no	44	0	1382
6.6.1	win	2022-12-25	19:40:44	19:43:09	144499	5fcbe82a12a0c80009d6e9cf	877994248	1	practice_z	5	advance_on_keypress_ZEE	6	stimuli_distractor_trianglediamonds.svg	stimuli_distractor_trianglediamonds.svg	15	no	57	0	1946
6.6.1	win	2022-12-25	19:40:44	19:43:13	148395	5fcbe82a12a0c80009d6e9cf	877994248	1	practice_z	5	practice_z	7	stimuli_distractor_trianglediamonds.svg	stimuli_target_circlediamonds.svg	10	yes	44	1	331
6.6.1	win	2022-12-25	19:40:44	19:43:13	148395	5fcbe82a12a0c80009d6e9cf	877994248	1	practice_z	5	advance_on_keypress_ZEE	8	stimuli_distractor_trianglediamonds.svg	stimuli_target_circlediamonds.svg	10	yes	57	0	582
6.6.1	win	2022-12-25	19:40:44	19:43:16	150771	5fcbe82a12a0c80009d6e9cf	877994248	1	practice_z	5	practice_z	9	stimuli_target_diamondsquares.svg	stimuli_distractor_diamondtriangles.svg	3	yes	44	1	153
6.6.1	win	2022-12-25	19:40:44	19:43:16	150771	5fcbe82a12a0c80009d6e9cf	877994248	1	practice_z	5	advance_on_keypress_ZEE	10	stimuli_target_diamondsquares.svg	stimuli_distractor_diamondtriangles.svg	3	yes	57	0	958
6.6.1	win	2022-12-25	19:40:44	19:43:18	153543	5fcbe82a12a0c80009d6e9cf	877994248	1	practice_z	5	practice_z	11	stimuli_distractor_trianglediamonds.svg	stimuli_target_diamondcircles.svg	12	yes	44	1	198
6.6.1	win	2022-12-25	19:40:44	19:43:18	153543	5fcbe82a12a0c80009d6e9cf	877994248	1	practice_z	5	advance_on_keypress_ZEE	12	stimuli_distractor_trianglediamonds.svg	stimuli_target_diamondcircles.svg	12	yes	57	0	506
6.6.1	win	2022-12-25	19:40:44	19:43:21	155919	5fcbe82a12a0c80009d6e9cf	877994248	1	practice_z	5	practice_z	13	stimuli_distractor_diamondtriangles.svg	stimuli_target_trianglecircles.svg	9	yes	44	1	251
6.6.1	win	2022-12-25	19:40:44	19:43:21	155919	5fcbe82a12a0c80009d6e9cf	877994248	1	practice_z	5	advance_on_keypress_ZEE	14	stimuli_distractor_diamondtriangles.svg	stimuli_target_trianglecircles.svg	9	yes	57	0	359
6.6.1	win	2022-12-25	19:40:44	19:43:23	158079	5fcbe82a12a0c80009d6e9cf	877994248	1	practice_z	5	practice_z	15	stimuli_distractor_diamondtriangles.svg	stimuli_distractor_trianglediamonds.svg	14	no	44	0	183
6.6.1	win	2022-12-25	19:40:44	19:43:23	158079	5fcbe82a12a0c80009d6e9cf	877994248	1	practice_z	5	advance_on_keypress_ZEE	16	stimuli_distractor_diamondtriangles.svg	stimuli_distractor_trianglediamonds.svg	14	no	57	0	477
6.6.1	win	2022-12-25	19:40:44	19:43:25	160561	5fcbe82a12a0c80009d6e9cf	877994248	1	practice_z	5	practice_z	17	stimuli_target_squarediamonds.svg	stimuli_distractor_trianglediamonds.svg	5	yes	44	1	382
6.6.1	win	2022-12-25	19:40:44	19:43:25	160561	5fcbe82a12a0c80009d6e9cf	877994248	1	practice_z	5	advance_on_keypress_ZEE	18	stimuli_target_squarediamonds.svg	stimuli_distractor_trianglediamonds.svg	5	yes	57	0	399
6.6.1	win	2022-12-25	19:40:44	19:43:28	162891	5fcbe82a12a0c80009d6e9cf	877994248	1	practice_z	5	practice_z	19	stimuli_distractor_trianglediamonds.svg	stimuli_target_squarediamonds.svg	11	yes	44	1	311
6.6.1	win	2022-12-25	19:40:44	19:43:28	162891	5fcbe82a12a0c80009d6e9cf	877994248	1	practice_z	5	advance_on_keypress_ZEE	20	stimuli_distractor_trianglediamonds.svg	stimuli_target_squarediamonds.svg	11	yes	57	0	317
6.6.1	win	2022-12-25	19:40:44	19:43:30	164983	5fcbe82a12a0c80009d6e9cf	877994248	1	practice_z	5	practice_z	21	stimuli_distractor_diamondtriangles.svg	stimuli_distractor_diamondtriangles.svg	13	no	44	0	158
6.6.1	win	2022-12-25	19:40:44	19:43:30	164983	5fcbe82a12a0c80009d6e9cf	877994248	1	practice_z	5	advance_on_keypress_ZEE	22	stimuli_distractor_diamondtriangles.svg	stimuli_distractor_diamondtriangles.svg	13	no	57	0	320
6.6.1	win	2022-12-25	19:40:44	19:43:32	167127	5fcbe82a12a0c80009d6e9cf	877994248	1	practice_z	5	practice_z	23	stimuli_target_circlediamonds.svg	stimuli_distractor_diamondtriangles.svg	1	yes	44	1	205
6.6.1	win	2022-12-25	19:40:44	19:43:32	167127	5fcbe82a12a0c80009d6e9cf	877994248	1	practice_z	5	advance_on_keypress_ZEE	24	stimuli_target_circlediamonds.svg	stimuli_distractor_diamondtriangles.svg	1	yes	57	0	311
6.6.1	win	2022-12-25	19:40:44	19:43:34	169595	5fcbe82a12a0c80009d6e9cf	877994248	1	practice_z	5	practice_z	25	stimuli_distractor_trianglediamonds.svg	stimuli_distractor_diamondtriangles.svg	16	no	44	0	538
6.6.1	win	2022-12-25	19:40:44	19:43:34	169595	5fcbe82a12a0c80009d6e9cf	877994248	1	practice_z	5	advance_on_keypress_ZEE	26	stimuli_distractor_trianglediamonds.svg	stimuli_distractor_diamondtriangles.svg	16	no	57	0	348
6.6.1	win	2022-12-25	19:40:44	19:43:37	172615	5fcbe82a12a0c80009d6e9cf	877994248	1	practice_z	5	practice_z	27	stimuli_target_diamondsquares.svg	stimuli_distractor_trianglediamonds.svg	6	yes	44	1	1050
6.6.1	win	2022-12-25	19:40:44	19:43:37	172615	5fcbe82a12a0c80009d6e9cf	877994248	1	practice_z	5	advance_on_keypress_ZEE	28	stimuli_target_diamondsquares.svg	stimuli_distractor_trianglediamonds.svg	6	yes	57	0	1409
6.6.1	win	2022-12-25	19:40:44	19:43:41	176607	5fcbe82a12a0c80009d6e9cf	877994248	1	practice_z	5	practice_z	29	stimuli_distractor_diamondtriangles.svg	stimuli_target_circletriangles.svg	7	yes	44	1	966
6.6.1	win	2022-12-25	19:40:44	19:43:41	176607	5fcbe82a12a0c80009d6e9cf	877994248	1	practice_z	5	advance_on_keypress_ZEE	30	stimuli_distractor_diamondtriangles.svg	stimuli_target_circletriangles.svg	7	yes	57	0	580
6.6.1	win	2022-12-25	19:40:44	19:43:44	179703	5fcbe82a12a0c80009d6e9cf	877994248	1	practice_z	5	practice_z	31	stimuli_distractor_diamondtriangles.svg	stimuli_target_diamondcircles.svg	8	yes	44	1	894
6.6.1	win	2022-12-25	19:40:44	19:43:44	179703	5fcbe82a12a0c80009d6e9cf	877994248	1	practice_z	5	advance_on_keypress_ZEE	32	stimuli_distractor_diamondtriangles.svg	stimuli_target_diamondcircles.svg	8	yes	57	0	835
6.6.1	win	2022-12-25	19:40:44	19:43:58	193471	5fcbe82a12a0c80009d6e9cf	877994248	1	main_z	7	main_z	1	stimuli_target_diamondcircles.svg	stimuli_distractor_diamondtriangles.svg	23	yes	44	1	368
6.6.1	win	2022-12-25	19:40:44	19:43:58	193471	5fcbe82a12a0c80009d6e9cf	877994248	1	main_z	7	advance_on_keypress_ZEE	2	stimuli_target_diamondcircles.svg	stimuli_distractor_diamondtriangles.svg	23	yes	57	0	1716
6.6.1	win	2022-12-25	19:40:44	19:44:01	196082	5fcbe82a12a0c80009d6e9cf	877994248	1	main_z	7	main_z	3	stimuli_distractor_trianglediamonds.svg	stimuli_target_trianglesquares.svg	26	yes	44	1	278
6.6.1	win	2022-12-25	19:40:44	19:44:01	196082	5fcbe82a12a0c80009d6e9cf	877994248	1	main_z	7	advance_on_keypress_ZEE	4	stimuli_distractor_trianglediamonds.svg	stimuli_target_trianglesquares.svg	26	yes	57	0	1067
6.6.1	win	2022-12-25	19:40:44	19:44:03	197946	5fcbe82a12a0c80009d6e9cf	877994248	1	main_z	7	main_z	5	stimuli_target_squaretriangles.svg	stimuli_distractor_trianglediamonds.svg	3	yes	44	1	182
6.6.1	win	2022-12-25	19:40:44	19:44:03	197946	5fcbe82a12a0c80009d6e9cf	877994248	1	main_z	7	advance_on_keypress_ZEE	6	stimuli_target_squaretriangles.svg	stimuli_distractor_trianglediamonds.svg	3	yes	57	0	1023
6.6.1	win	2022-12-25	19:40:44	19:44:05	199746	5fcbe82a12a0c80009d6e9cf	877994248	1	main_z	7	main_z	7	stimuli_distractor_diamondtriangles.svg	stimuli_distractor_diamondtriangles.svg	40	no	44	0	162
6.6.1	win	2022-12-25	19:40:44	19:44:05	199746	5fcbe82a12a0c80009d6e9cf	877994248	1	main_z	7	advance_on_keypress_ZEE	8	stimuli_distractor_diamondtriangles.svg	stimuli_distractor_diamondtriangles.svg	40	no	57	0	929
6.6.1	win	2022-12-25	19:40:44	19:44:06	201334	5fcbe82a12a0c80009d6e9cf	877994248	1	main_z	7	main_z	9	stimuli_target_circletriangles.svg	stimuli_distractor_diamondtriangles.svg	5	yes	44	1	43
6.6.1	win	2022-12-25	19:40:44	19:44:06	201334	5fcbe82a12a0c80009d6e9cf	877994248	1	main_z	7	advance_on_keypress_ZEE	10	stimuli_target_circletriangles.svg	stimuli_distractor_diamondtriangles.svg	5	yes	57	0	703
6.6.1	win	2022-12-25	19:40:44	19:44:08	202822	5fcbe82a12a0c80009d6e9cf	877994248	1	main_z	7	main_z	11	stimuli_target_diamondcircles.svg	stimuli_distractor_trianglediamonds.svg	19	yes	44	1	176
6.6.1	win	2022-12-25	19:40:44	19:44:08	202822	5fcbe82a12a0c80009d6e9cf	877994248	1	main_z	7	advance_on_keypress_ZEE	12	stimuli_target_diamondcircles.svg	stimuli_distractor_trianglediamonds.svg	19	yes	57	0	771
6.6.1	win	2022-12-25	19:40:44	19:44:09	204254	5fcbe82a12a0c80009d6e9cf	877994248	1	main_z	7	main_z	13	stimuli_distractor_trianglediamonds.svg	stimuli_target_circlediamonds.svg	10	yes	44	1	52
6.6.1	win	2022-12-25	19:40:44	19:44:09	204254	5fcbe82a12a0c80009d6e9cf	877994248	1	main_z	7	advance_on_keypress_ZEE	14	stimuli_distractor_trianglediamonds.svg	stimuli_target_circlediamonds.svg	10	yes	57	0	759
6.6.1	win	2022-12-25	19:40:44	19:44:11	205806	5fcbe82a12a0c80009d6e9cf	877994248	1	main_z	7	main_z	15	stimuli_distractor_trianglediamonds.svg	stimuli_target_trianglecircles.svg	25	yes	44	1	184
6.6.1	win	2022-12-25	19:40:44	19:44:11	205806	5fcbe82a12a0c80009d6e9cf	877994248	1	main_z	7	advance_on_keypress_ZEE	16	stimuli_distractor_trianglediamonds.svg	stimuli_target_trianglecircles.svg	25	yes	57	0	715
6.6.1	win	2022-12-25	19:40:44	19:44:12	207230	5fcbe82a12a0c80009d6e9cf	877994248	1	main_z	7	main_z	17	stimuli_distractor_trianglediamonds.svg	stimuli_distractor_diamondtriangles.svg	36	no	44	0	94
6.6.1	win	2022-12-25	19:40:44	19:44:12	207230	5fcbe82a12a0c80009d6e9cf	877994248	1	main_z	7	advance_on_keypress_ZEE	18	stimuli_distractor_trianglediamonds.svg	stimuli_distractor_diamondtriangles.svg	36	no	57	0	786
6.6.1	win	2022-12-25	19:40:44	19:44:13	208666	5fcbe82a12a0c80009d6e9cf	877994248	1	main_z	7	main_z	19	stimuli_distractor_trianglediamonds.svg	stimuli_distractor_trianglediamonds.svg	34	no	44	0	30
6.6.1	win	2022-12-25	19:40:44	19:44:13	208666	5fcbe82a12a0c80009d6e9cf	877994248	1	main_z	7	advance_on_keypress_ZEE	20	stimuli_distractor_trianglediamonds.svg	stimuli_distractor_trianglediamonds.svg	34	no	57	0	630
6.6.1	win	2022-12-25	19:40:44	19:44:15	209919	5fcbe82a12a0c80009d6e9cf	877994248	1	main_z	7	main_z	21	stimuli_target_diamondsquares.svg	stimuli_distractor_trianglediamonds.svg	20	yes	44	1	9
6.6.1	win	2022-12-25	19:40:44	19:44:15	209919	5fcbe82a12a0c80009d6e9cf	877994248	1	main_z	7	advance_on_keypress_ZEE	22	stimuli_target_diamondsquares.svg	stimuli_distractor_trianglediamonds.svg	20	yes	57	0	604
6.6.1	win	2022-12-25	19:40:44	19:44:16	211286	5fcbe82a12a0c80009d6e9cf	877994248	1	main_z	7	main_z	23	stimuli_distractor_diamondtriangles.svg	stimuli_target_squaretriangles.svg	15	yes	44	1	145
6.6.1	win	2022-12-25	19:40:44	19:44:16	211286	5fcbe82a12a0c80009d6e9cf	877994248	1	main_z	7	advance_on_keypress_ZEE	24	stimuli_distractor_diamondtriangles.svg	stimuli_target_squaretriangles.svg	15	yes	57	0	695
6.6.1	win	2022-12-25	19:40:44	19:44:17	212678	5fcbe82a12a0c80009d6e9cf	877994248	1	main_z	7	main_z	25	stimuli_distractor_trianglediamonds.svg	stimuli_distractor_diamondtriangles.svg	35	no	44	0	82
6.6.1	win	2022-12-25	19:40:44	19:44:17	212678	5fcbe82a12a0c80009d6e9cf	877994248	1	main_z	7	advance_on_keypress_ZEE	26	stimuli_distractor_trianglediamonds.svg	stimuli_distractor_diamondtriangles.svg	35	no	57	0	579
6.6.1	win	2022-12-25	19:40:44	19:44:19	214211	5fcbe82a12a0c80009d6e9cf	877994248	1	main_z	7	main_z	27	stimuli_target_diamondsquares.svg	stimuli_distractor_diamondtriangles.svg	24	yes	44	1	344
6.6.1	win	2022-12-25	19:40:44	19:44:19	214211	5fcbe82a12a0c80009d6e9cf	877994248	1	main_z	7	advance_on_keypress_ZEE	28	stimuli_target_diamondsquares.svg	stimuli_distractor_diamondtriangles.svg	24	yes	57	0	538
6.6.1	win	2022-12-25	19:40:44	19:44:20	215622	5fcbe82a12a0c80009d6e9cf	877994248	1	main_z	7	main_z	29	stimuli_distractor_diamondtriangles.svg	stimuli_distractor_diamondtriangles.svg	39	no	44	0	264
6.6.1	win	2022-12-25	19:40:44	19:44:20	215622	5fcbe82a12a0c80009d6e9cf	877994248	1	main_z	7	advance_on_keypress_ZEE	30	stimuli_distractor_diamondtriangles.svg	stimuli_distractor_diamondtriangles.svg	39	no	57	0	639
6.6.1	win	2022-12-25	19:40:44	19:44:22	217074	5fcbe82a12a0c80009d6e9cf	877994248	1	main_z	7	main_z	31	stimuli_distractor_trianglediamonds.svg	stimuli_target_squarediamonds.svg	12	yes	44	1	200
6.6.1	win	2022-12-25	19:40:44	19:44:22	217074	5fcbe82a12a0c80009d6e9cf	877994248	1	main_z	7	advance_on_keypress_ZEE	32	stimuli_distractor_trianglediamonds.svg	stimuli_target_squarediamonds.svg	12	yes	57	0	516
6.6.1	win	2022-12-25	19:40:44	19:44:23	218431	5fcbe82a12a0c80009d6e9cf	877994248	1	main_z	7	main_z	33	stimuli_distractor_diamondtriangles.svg	stimuli_target_diamondsquares.svg	32	yes	44	1	222
6.6.1	win	2022-12-25	19:40:44	19:44:23	218431	5fcbe82a12a0c80009d6e9cf	877994248	1	main_z	7	advance_on_keypress_ZEE	34	stimuli_distractor_diamondtriangles.svg	stimuli_target_diamondsquares.svg	32	yes	57	0	574
6.6.1	win	2022-12-25	19:40:44	19:44:25	219739	5fcbe82a12a0c80009d6e9cf	877994248	1	main_z	7	main_z	35	stimuli_target_trianglesquares.svg	stimuli_distractor_trianglediamonds.svg	18	yes	44	1	118
6.6.1	win	2022-12-25	19:40:44	19:44:25	219739	5fcbe82a12a0c80009d6e9cf	877994248	1	main_z	7	advance_on_keypress_ZEE	36	stimuli_target_trianglesquares.svg	stimuli_distractor_trianglediamonds.svg	18	yes	57	0	684
6.6.1	win	2022-12-25	19:40:44	19:44:26	221179	5fcbe82a12a0c80009d6e9cf	877994248	1	main_z	7	main_z	37	stimuli_distractor_trianglediamonds.svg	stimuli_target_diamondcircles.svg	27	yes	44	1	134
6.6.1	win	2022-12-25	19:40:44	19:44:26	221179	5fcbe82a12a0c80009d6e9cf	877994248	1	main_z	7	advance_on_keypress_ZEE	38	stimuli_distractor_trianglediamonds.svg	stimuli_target_diamondcircles.svg	27	yes	57	0	589
6.6.1	win	2022-12-25	19:40:44	19:44:27	222542	5fcbe82a12a0c80009d6e9cf	877994248	1	main_z	7	main_z	39	stimuli_target_trianglesquares.svg	stimuli_distractor_diamondtriangles.svg	22	yes	44	1	157
6.6.1	win	2022-12-25	19:40:44	19:44:27	222542	5fcbe82a12a0c80009d6e9cf	877994248	1	main_z	7	advance_on_keypress_ZEE	40	stimuli_target_trianglesquares.svg	stimuli_distractor_diamondtriangles.svg	22	yes	57	0	603
6.6.1	win	2022-12-25	19:40:44	19:44:29	223919	5fcbe82a12a0c80009d6e9cf	877994248	1	main_z	7	main_z	41	stimuli_distractor_trianglediamonds.svg	stimuli_distractor_trianglediamonds.svg	33	no	44	0	159
6.6.1	win	2022-12-25	19:40:44	19:44:29	223919	5fcbe82a12a0c80009d6e9cf	877994248	1	main_z	7	advance_on_keypress_ZEE	42	stimuli_distractor_trianglediamonds.svg	stimuli_distractor_trianglediamonds.svg	33	no	57	0	614
6.6.1	win	2022-12-25	19:40:44	19:44:30	225303	5fcbe82a12a0c80009d6e9cf	877994248	1	main_z	7	main_z	43	stimuli_distractor_diamondtriangles.svg	stimuli_target_circletriangles.svg	13	yes	44	1	154
6.6.1	win	2022-12-25	19:40:44	19:44:30	225303	5fcbe82a12a0c80009d6e9cf	877994248	1	main_z	7	advance_on_keypress_ZEE	44	stimuli_distractor_diamondtriangles.svg	stimuli_target_circletriangles.svg	13	yes	57	0	694
6.6.1	win	2022-12-25	19:40:44	19:44:32	226778	5fcbe82a12a0c80009d6e9cf	877994248	1	main_z	7	main_z	45	stimuli_target_circlediamonds.svg	stimuli_distractor_trianglediamonds.svg	2	yes	44	1	166
6.6.1	win	2022-12-25	19:40:44	19:44:32	226778	5fcbe82a12a0c80009d6e9cf	877994248	1	main_z	7	advance_on_keypress_ZEE	46	stimuli_target_circlediamonds.svg	stimuli_distractor_trianglediamonds.svg	2	yes	57	0	631
6.6.1	win	2022-12-25	19:40:44	19:44:33	228202	5fcbe82a12a0c80009d6e9cf	877994248	1	main_z	7	main_z	47	stimuli_distractor_diamondtriangles.svg	stimuli_target_diamondcircles.svg	31	yes	44	1	179
6.6.1	win	2022-12-25	19:40:44	19:44:33	228202	5fcbe82a12a0c80009d6e9cf	877994248	1	main_z	7	advance_on_keypress_ZEE	48	stimuli_distractor_diamondtriangles.svg	stimuli_target_diamondcircles.svg	31	yes	57	0	555
6.6.1	win	2022-12-25	19:40:44	19:44:34	229554	5fcbe82a12a0c80009d6e9cf	877994248	1	main_z	7	main_z	49	stimuli_distractor_diamondtriangles.svg	stimuli_target_circlediamonds.svg	14	yes	44	1	183
6.6.1	win	2022-12-25	19:40:44	19:44:34	229554	5fcbe82a12a0c80009d6e9cf	877994248	1	main_z	7	advance_on_keypress_ZEE	50	stimuli_distractor_diamondtriangles.svg	stimuli_target_circlediamonds.svg	14	yes	57	0	622
6.6.1	win	2022-12-25	19:40:44	19:44:36	230918	5fcbe82a12a0c80009d6e9cf	877994248	1	main_z	7	main_z	51	stimuli_target_squaretriangles.svg	stimuli_distractor_diamondtriangles.svg	7	yes	44	1	130
6.6.1	win	2022-12-25	19:40:44	19:44:36	230918	5fcbe82a12a0c80009d6e9cf	877994248	1	main_z	7	advance_on_keypress_ZEE	52	stimuli_target_squaretriangles.svg	stimuli_distractor_diamondtriangles.svg	7	yes	57	0	647
6.6.1	win	2022-12-25	19:40:44	19:44:37	232322	5fcbe82a12a0c80009d6e9cf	877994248	1	main_z	7	main_z	53	stimuli_target_circlediamonds.svg	stimuli_distractor_diamondtriangles.svg	6	yes	44	1	138
6.6.1	win	2022-12-25	19:40:44	19:44:37	232322	5fcbe82a12a0c80009d6e9cf	877994248	1	main_z	7	advance_on_keypress_ZEE	54	stimuli_target_circlediamonds.svg	stimuli_distractor_diamondtriangles.svg	6	yes	57	0	635
6.6.1	win	2022-12-25	19:40:44	19:44:38	233691	5fcbe82a12a0c80009d6e9cf	877994248	1	main_z	7	main_z	55	stimuli_target_squarediamonds.svg	stimuli_distractor_diamondtriangles.svg	8	yes	44	1	125
6.6.1	win	2022-12-25	19:40:44	19:44:38	233691	5fcbe82a12a0c80009d6e9cf	877994248	1	main_z	7	advance_on_keypress_ZEE	56	stimuli_target_squarediamonds.svg	stimuli_distractor_diamondtriangles.svg	8	yes	57	0	578
6.6.1	win	2022-12-25	19:40:44	19:44:40	235070	5fcbe82a12a0c80009d6e9cf	877994248	1	main_z	7	main_z	57	stimuli_distractor_trianglediamonds.svg	stimuli_target_circletriangles.svg	9	yes	44	1	186
6.6.1	win	2022-12-25	19:40:44	19:44:40	235070	5fcbe82a12a0c80009d6e9cf	877994248	1	main_z	7	advance_on_keypress_ZEE	58	stimuli_distractor_trianglediamonds.svg	stimuli_target_circletriangles.svg	9	yes	57	0	567
6.6.1	win	2022-12-25	19:40:44	19:44:41	236351	5fcbe82a12a0c80009d6e9cf	877994248	1	main_z	7	main_z	59	stimuli_distractor_trianglediamonds.svg	stimuli_target_squaretriangles.svg	11	yes	44	1	105
6.6.1	win	2022-12-25	19:40:44	19:44:41	236351	5fcbe82a12a0c80009d6e9cf	877994248	1	main_z	7	advance_on_keypress_ZEE	60	stimuli_distractor_trianglediamonds.svg	stimuli_target_squaretriangles.svg	11	yes	57	0	618
6.6.1	win	2022-12-25	19:40:44	19:44:42	237686	5fcbe82a12a0c80009d6e9cf	877994248	1	main_z	7	main_z	61	stimuli_target_trianglecircles.svg	stimuli_distractor_trianglediamonds.svg	17	yes	44	1	102
6.6.1	win	2022-12-25	19:40:44	19:44:42	237686	5fcbe82a12a0c80009d6e9cf	877994248	1	main_z	7	advance_on_keypress_ZEE	62	stimuli_target_trianglecircles.svg	stimuli_distractor_trianglediamonds.svg	17	yes	57	0	591
6.6.1	win	2022-12-25	19:40:44	19:44:44	238982	5fcbe82a12a0c80009d6e9cf	877994248	1	main_z	7	main_z	63	stimuli_distractor_diamondtriangles.svg	stimuli_target_trianglesquares.svg	30	yes	44	1	93
6.6.1	win	2022-12-25	19:40:44	19:44:44	238982	5fcbe82a12a0c80009d6e9cf	877994248	1	main_z	7	advance_on_keypress_ZEE	64	stimuli_distractor_diamondtriangles.svg	stimuli_target_trianglesquares.svg	30	yes	57	0	573
6.6.1	win	2022-12-25	19:40:44	19:44:45	240282	5fcbe82a12a0c80009d6e9cf	877994248	1	main_z	7	main_z	65	stimuli_target_trianglecircles.svg	stimuli_distractor_diamondtriangles.svg	21	yes	44	1	102
6.6.1	win	2022-12-25	19:40:44	19:44:45	240282	5fcbe82a12a0c80009d6e9cf	877994248	1	main_z	7	advance_on_keypress_ZEE	66	stimuli_target_trianglecircles.svg	stimuli_distractor_diamondtriangles.svg	21	yes	57	0	566
6.6.1	win	2022-12-25	19:40:44	19:44:46	241598	5fcbe82a12a0c80009d6e9cf	877994248	1	main_z	7	main_z	67	stimuli_distractor_diamondtriangles.svg	stimuli_target_trianglecircles.svg	29	yes	44	1	141
6.6.1	win	2022-12-25	19:40:44	19:44:46	241598	5fcbe82a12a0c80009d6e9cf	877994248	1	main_z	7	advance_on_keypress_ZEE	68	stimuli_distractor_diamondtriangles.svg	stimuli_target_trianglecircles.svg	29	yes	57	0	642
6.6.1	win	2022-12-25	19:40:44	19:44:48	242971	5fcbe82a12a0c80009d6e9cf	877994248	1	main_z	7	main_z	69	stimuli_distractor_trianglediamonds.svg	stimuli_target_diamondsquares.svg	28	yes	44	1	120
6.6.1	win	2022-12-25	19:40:44	19:44:48	242971	5fcbe82a12a0c80009d6e9cf	877994248	1	main_z	7	advance_on_keypress_ZEE	70	stimuli_distractor_trianglediamonds.svg	stimuli_target_diamondsquares.svg	28	yes	57	0	572
6.6.1	win	2022-12-25	19:40:44	19:44:49	244262	5fcbe82a12a0c80009d6e9cf	877994248	1	main_z	7	main_z	71	stimuli_distractor_diamondtriangles.svg	stimuli_target_squarediamonds.svg	16	yes	44	1	104
6.6.1	win	2022-12-25	19:40:44	19:44:49	244262	5fcbe82a12a0c80009d6e9cf	877994248	1	main_z	7	advance_on_keypress_ZEE	72	stimuli_distractor_diamondtriangles.svg	stimuli_target_squarediamonds.svg	16	yes	57	0	699
6.6.1	win	2022-12-25	19:40:44	19:44:50	245670	5fcbe82a12a0c80009d6e9cf	877994248	1	main_z	7	main_z	73	stimuli_distractor_diamondtriangles.svg	stimuli_distractor_trianglediamonds.svg	37	no	44	0	100
6.6.1	win	2022-12-25	19:40:44	19:44:50	245670	5fcbe82a12a0c80009d6e9cf	877994248	1	main_z	7	advance_on_keypress_ZEE	74	stimuli_distractor_diamondtriangles.svg	stimuli_distractor_trianglediamonds.svg	37	no	57	0	603
6.6.1	win	2022-12-25	19:40:44	19:44:52	247002	5fcbe82a12a0c80009d6e9cf	877994248	1	main_z	7	main_z	75	stimuli_target_squarediamonds.svg	stimuli_distractor_trianglediamonds.svg	4	yes	44	1	120
6.6.1	win	2022-12-25	19:40:44	19:44:52	247002	5fcbe82a12a0c80009d6e9cf	877994248	1	main_z	7	advance_on_keypress_ZEE	76	stimuli_target_squarediamonds.svg	stimuli_distractor_trianglediamonds.svg	4	yes	57	0	647
6.6.1	win	2022-12-25	19:40:44	19:44:53	248379	5fcbe82a12a0c80009d6e9cf	877994248	1	main_z	7	main_z	77	stimuli_distractor_diamondtriangles.svg	stimuli_distractor_trianglediamonds.svg	38	no	44	0	116
6.6.1	win	2022-12-25	19:40:44	19:44:53	248379	5fcbe82a12a0c80009d6e9cf	877994248	1	main_z	7	advance_on_keypress_ZEE	78	stimuli_distractor_diamondtriangles.svg	stimuli_distractor_trianglediamonds.svg	38	no	57	0	688
6.6.1	win	2022-12-25	19:40:44	19:44:55	249822	5fcbe82a12a0c80009d6e9cf	877994248	1	main_z	7	main_z	79	stimuli_target_circletriangles.svg	stimuli_distractor_trianglediamonds.svg	1	yes	44	1	140
6.6.1	win	2022-12-25	19:40:44	19:44:55	249822	5fcbe82a12a0c80009d6e9cf	877994248	1	main_z	7	advance_on_keypress_ZEE	80	stimuli_target_circletriangles.svg	stimuli_distractor_trianglediamonds.svg	1	yes	57	0	631
6.6.1	win	2022-12-25	19:40:44	19:44:56	251186	5fcbe82a12a0c80009d6e9cf	877994248	1	main_z	7	main_z	81	stimuli_distractor_trianglediamonds.svg	stimuli_target_squaretriangles.svg	11	yes	44	1	118
6.6.1	win	2022-12-25	19:40:44	19:44:56	251186	5fcbe82a12a0c80009d6e9cf	877994248	1	main_z	7	advance_on_keypress_ZEE	82	stimuli_distractor_trianglediamonds.svg	stimuli_target_squaretriangles.svg	11	yes	57	0	619
6.6.1	win	2022-12-25	19:40:44	19:44:57	252607	5fcbe82a12a0c80009d6e9cf	877994248	1	main_z	7	main_z	83	stimuli_target_squarediamonds.svg	stimuli_distractor_diamondtriangles.svg	8	yes	44	1	192
6.6.1	win	2022-12-25	19:40:44	19:44:57	252607	5fcbe82a12a0c80009d6e9cf	877994248	1	main_z	7	advance_on_keypress_ZEE	84	stimuli_target_squarediamonds.svg	stimuli_distractor_diamondtriangles.svg	8	yes	57	0	670
6.6.1	win	2022-12-25	19:40:44	19:44:59	254106	5fcbe82a12a0c80009d6e9cf	877994248	1	main_z	7	main_z	85	stimuli_distractor_diamondtriangles.svg	stimuli_target_diamondsquares.svg	32	yes	44	1	214
6.6.1	win	2022-12-25	19:40:44	19:44:59	254106	5fcbe82a12a0c80009d6e9cf	877994248	1	main_z	7	advance_on_keypress_ZEE	86	stimuli_distractor_diamondtriangles.svg	stimuli_target_diamondsquares.svg	32	yes	57	0	635
6.6.1	win	2022-12-25	19:40:44	19:45:00	255487	5fcbe82a12a0c80009d6e9cf	877994248	1	main_z	7	main_z	87	stimuli_distractor_trianglediamonds.svg	stimuli_target_diamondcircles.svg	27	yes	44	1	131
6.6.1	win	2022-12-25	19:40:44	19:45:00	255487	5fcbe82a12a0c80009d6e9cf	877994248	1	main_z	7	advance_on_keypress_ZEE	88	stimuli_distractor_trianglediamonds.svg	stimuli_target_diamondcircles.svg	27	yes	57	0	647
6.6.1	win	2022-12-25	19:40:44	19:45:02	256822	5fcbe82a12a0c80009d6e9cf	877994248	1	main_z	7	main_z	89	stimuli_target_trianglesquares.svg	stimuli_distractor_diamondtriangles.svg	22	yes	44	1	69
6.6.1	win	2022-12-25	19:40:44	19:45:02	256822	5fcbe82a12a0c80009d6e9cf	877994248	1	main_z	7	advance_on_keypress_ZEE	90	stimuli_target_trianglesquares.svg	stimuli_distractor_diamondtriangles.svg	22	yes	57	0	586
6.6.1	win	2022-12-25	19:40:44	19:45:03	258133	5fcbe82a12a0c80009d6e9cf	877994248	1	main_z	7	main_z	91	stimuli_target_diamondcircles.svg	stimuli_distractor_diamondtriangles.svg	23	yes	44	1	109
6.6.1	win	2022-12-25	19:40:44	19:45:03	258133	5fcbe82a12a0c80009d6e9cf	877994248	1	main_z	7	advance_on_keypress_ZEE	92	stimuli_target_diamondcircles.svg	stimuli_distractor_diamondtriangles.svg	23	yes	57	0	737
6.6.1	win	2022-12-25	19:40:44	19:45:04	259622	5fcbe82a12a0c80009d6e9cf	877994248	1	main_z	7	main_z	93	stimuli_distractor_diamondtriangles.svg	stimuli_target_trianglesquares.svg	30	yes	44	1	138
6.6.1	win	2022-12-25	19:40:44	19:45:04	259622	5fcbe82a12a0c80009d6e9cf	877994248	1	main_z	7	advance_on_keypress_ZEE	94	stimuli_distractor_diamondtriangles.svg	stimuli_target_trianglesquares.svg	30	yes	57	0	529
6.6.1	win	2022-12-25	19:40:44	19:45:06	260922	5fcbe82a12a0c80009d6e9cf	877994248	1	main_z	7	main_z	95	stimuli_distractor_trianglediamonds.svg	stimuli_distractor_diamondtriangles.svg	36	no	44	0	154
6.6.1	win	2022-12-25	19:40:44	19:45:06	260922	5fcbe82a12a0c80009d6e9cf	877994248	1	main_z	7	advance_on_keypress_ZEE	96	stimuli_distractor_trianglediamonds.svg	stimuli_distractor_diamondtriangles.svg	36	no	57	0	618
6.6.1	win	2022-12-25	19:40:44	19:45:07	262226	5fcbe82a12a0c80009d6e9cf	877994248	1	main_z	7	main_z	97	stimuli_target_circletriangles.svg	stimuli_distractor_diamondtriangles.svg	5	yes	44	1	70
6.6.1	win	2022-12-25	19:40:44	19:45:07	262226	5fcbe82a12a0c80009d6e9cf	877994248	1	main_z	7	advance_on_keypress_ZEE	98	stimuli_target_circletriangles.svg	stimuli_distractor_diamondtriangles.svg	5	yes	57	0	555
6.6.1	win	2022-12-25	19:40:44	19:45:08	263522	5fcbe82a12a0c80009d6e9cf	877994248	1	main_z	7	main_z	99	stimuli_distractor_diamondtriangles.svg	stimuli_target_diamondcircles.svg	31	yes	44	1	127
6.6.1	win	2022-12-25	19:40:44	19:45:08	263522	5fcbe82a12a0c80009d6e9cf	877994248	1	main_z	7	advance_on_keypress_ZEE	100	stimuli_distractor_diamondtriangles.svg	stimuli_target_diamondcircles.svg	31	yes	57	0	555
6.6.1	win	2022-12-25	19:40:44	19:45:10	264774	5fcbe82a12a0c80009d6e9cf	877994248	1	main_z	7	main_z	101	stimuli_target_diamondsquares.svg	stimuli_distractor_diamondtriangles.svg	24	yes	44	1	89
6.6.1	win	2022-12-25	19:40:44	19:45:10	264774	5fcbe82a12a0c80009d6e9cf	877994248	1	main_z	7	advance_on_keypress_ZEE	102	stimuli_target_diamondsquares.svg	stimuli_distractor_diamondtriangles.svg	24	yes	57	0	611
6.6.1	win	2022-12-25	19:40:44	19:45:11	266030	5fcbe82a12a0c80009d6e9cf	877994248	1	main_z	7	main_z	103	stimuli_target_circlediamonds.svg	stimuli_distractor_diamondtriangles.svg	6	yes	44	1	36
6.6.1	win	2022-12-25	19:40:44	19:45:11	266030	5fcbe82a12a0c80009d6e9cf	877994248	1	main_z	7	advance_on_keypress_ZEE	104	stimuli_target_circlediamonds.svg	stimuli_distractor_diamondtriangles.svg	6	yes	57	0	575
6.6.1	win	2022-12-25	19:40:44	19:45:12	267370	5fcbe82a12a0c80009d6e9cf	877994248	1	main_z	7	main_z	105	stimuli_distractor_trianglediamonds.svg	stimuli_target_squarediamonds.svg	12	yes	44	1	152
6.6.1	win	2022-12-25	19:40:44	19:45:12	267370	5fcbe82a12a0c80009d6e9cf	877994248	1	main_z	7	advance_on_keypress_ZEE	106	stimuli_distractor_trianglediamonds.svg	stimuli_target_squarediamonds.svg	12	yes	57	0	623
6.6.1	win	2022-12-25	19:40:44	19:45:15	269827	5fcbe82a12a0c80009d6e9cf	877994248	1	main_z	7	main_z	107	stimuli_distractor_trianglediamonds.svg	stimuli_distractor_diamondtriangles.svg	35	no	44	0	1219
6.6.1	win	2022-12-25	19:40:44	19:45:15	269827	5fcbe82a12a0c80009d6e9cf	877994248	1	main_z	7	advance_on_keypress_ZEE	108	stimuli_distractor_trianglediamonds.svg	stimuli_distractor_diamondtriangles.svg	35	no	57	0	436
6.6.1	win	2022-12-25	19:40:44	19:45:16	271126	5fcbe82a12a0c80009d6e9cf	877994248	1	main_z	7	main_z	109	stimuli_target_trianglecircles.svg	stimuli_distractor_trianglediamonds.svg	17	yes	44	1	242
6.6.1	win	2022-12-25	19:40:44	19:45:16	271126	5fcbe82a12a0c80009d6e9cf	877994248	1	main_z	7	advance_on_keypress_ZEE	110	stimuli_target_trianglecircles.svg	stimuli_distractor_trianglediamonds.svg	17	yes	57	0	679
6.6.1	win	2022-12-25	19:40:44	19:45:17	272650	5fcbe82a12a0c80009d6e9cf	877994248	1	main_z	7	main_z	111	stimuli_target_diamondcircles.svg	stimuli_distractor_trianglediamonds.svg	19	yes	44	1	232
6.6.1	win	2022-12-25	19:40:44	19:45:17	272650	5fcbe82a12a0c80009d6e9cf	877994248	1	main_z	7	advance_on_keypress_ZEE	112	stimuli_target_diamondcircles.svg	stimuli_distractor_trianglediamonds.svg	19	yes	57	0	571
6.6.1	win	2022-12-25	19:40:44	19:45:19	274003	5fcbe82a12a0c80009d6e9cf	877994248	1	main_z	7	main_z	113	stimuli_distractor_diamondtriangles.svg	stimuli_distractor_diamondtriangles.svg	39	no	44	0	166
6.6.1	win	2022-12-25	19:40:44	19:45:19	274003	5fcbe82a12a0c80009d6e9cf	877994248	1	main_z	7	advance_on_keypress_ZEE	114	stimuli_distractor_diamondtriangles.svg	stimuli_distractor_diamondtriangles.svg	39	no	57	0	638
6.6.1	win	2022-12-25	19:40:44	19:45:20	275502	5fcbe82a12a0c80009d6e9cf	877994248	1	main_z	7	main_z	115	stimuli_distractor_trianglediamonds.svg	stimuli_distractor_trianglediamonds.svg	34	no	44	0	242
6.6.1	win	2022-12-25	19:40:44	19:45:20	275502	5fcbe82a12a0c80009d6e9cf	877994248	1	main_z	7	advance_on_keypress_ZEE	116	stimuli_distractor_trianglediamonds.svg	stimuli_distractor_trianglediamonds.svg	34	no	57	0	664
6.6.1	win	2022-12-25	19:40:44	19:45:22	276966	5fcbe82a12a0c80009d6e9cf	877994248	1	main_z	7	main_z	117	stimuli_target_trianglesquares.svg	stimuli_distractor_trianglediamonds.svg	18	yes	44	1	189
6.6.1	win	2022-12-25	19:40:44	19:45:22	276966	5fcbe82a12a0c80009d6e9cf	877994248	1	main_z	7	advance_on_keypress_ZEE	118	stimuli_target_trianglesquares.svg	stimuli_distractor_trianglediamonds.svg	18	yes	57	0	543
6.6.1	win	2022-12-25	19:40:44	19:45:23	278290	5fcbe82a12a0c80009d6e9cf	877994248	1	main_z	7	main_z	119	stimuli_target_diamondsquares.svg	stimuli_distractor_trianglediamonds.svg	20	yes	44	1	168
6.6.1	win	2022-12-25	19:40:44	19:45:23	278290	5fcbe82a12a0c80009d6e9cf	877994248	1	main_z	7	advance_on_keypress_ZEE	120	stimuli_target_diamondsquares.svg	stimuli_distractor_trianglediamonds.svg	20	yes	57	0	603
6.6.1	win	2022-12-25	19:40:44	19:45:24	279671	5fcbe82a12a0c80009d6e9cf	877994248	1	main_z	7	main_z	121	stimuli_distractor_diamondtriangles.svg	stimuli_distractor_diamondtriangles.svg	40	no	44	0	168
6.6.1	win	2022-12-25	19:40:44	19:45:24	279671	5fcbe82a12a0c80009d6e9cf	877994248	1	main_z	7	advance_on_keypress_ZEE	122	stimuli_distractor_diamondtriangles.svg	stimuli_distractor_diamondtriangles.svg	40	no	57	0	598
6.6.1	win	2022-12-25	19:40:44	19:45:26	281167	5fcbe82a12a0c80009d6e9cf	877994248	1	main_z	7	main_z	123	stimuli_distractor_trianglediamonds.svg	stimuli_target_diamondsquares.svg	28	yes	44	1	282
6.6.1	win	2022-12-25	19:40:44	19:45:26	281167	5fcbe82a12a0c80009d6e9cf	877994248	1	main_z	7	advance_on_keypress_ZEE	124	stimuli_distractor_trianglediamonds.svg	stimuli_target_diamondsquares.svg	28	yes	57	0	414
6.6.1	win	2022-12-25	19:40:44	19:45:27	282442	5fcbe82a12a0c80009d6e9cf	877994248	1	main_z	7	main_z	125	stimuli_distractor_diamondtriangles.svg	stimuli_target_circlediamonds.svg	14	yes	44	1	253
6.6.1	win	2022-12-25	19:40:44	19:45:27	282442	5fcbe82a12a0c80009d6e9cf	877994248	1	main_z	7	advance_on_keypress_ZEE	126	stimuli_distractor_diamondtriangles.svg	stimuli_target_circlediamonds.svg	14	yes	57	0	467
6.6.1	win	2022-12-25	19:40:44	19:45:29	284035	5fcbe82a12a0c80009d6e9cf	877994248	1	main_z	7	main_z	127	stimuli_target_squarediamonds.svg	stimuli_distractor_trianglediamonds.svg	4	yes	44	1	511
6.6.1	win	2022-12-25	19:40:44	19:45:29	284035	5fcbe82a12a0c80009d6e9cf	877994248	1	main_z	7	advance_on_keypress_ZEE	128	stimuli_target_squarediamonds.svg	stimuli_distractor_trianglediamonds.svg	4	yes	57	0	566
6.6.1	win	2022-12-25	19:40:44	19:45:30	285414	5fcbe82a12a0c80009d6e9cf	877994248	1	main_z	7	main_z	129	stimuli_distractor_diamondtriangles.svg	stimuli_target_trianglecircles.svg	29	yes	44	1	198
6.6.1	win	2022-12-25	19:40:44	19:45:30	285414	5fcbe82a12a0c80009d6e9cf	877994248	1	main_z	7	advance_on_keypress_ZEE	130	stimuli_distractor_diamondtriangles.svg	stimuli_target_trianglecircles.svg	29	yes	57	0	507
6.6.1	win	2022-12-25	19:40:44	19:45:31	286694	5fcbe82a12a0c80009d6e9cf	877994248	1	main_z	7	main_z	131	stimuli_distractor_trianglediamonds.svg	stimuli_target_trianglesquares.svg	26	yes	44	1	162
6.6.1	win	2022-12-25	19:40:44	19:45:31	286694	5fcbe82a12a0c80009d6e9cf	877994248	1	main_z	7	advance_on_keypress_ZEE	132	stimuli_distractor_trianglediamonds.svg	stimuli_target_trianglesquares.svg	26	yes	57	0	539
6.6.1	win	2022-12-25	19:40:44	19:45:33	288038	5fcbe82a12a0c80009d6e9cf	877994248	1	main_z	7	main_z	133	stimuli_distractor_diamondtriangles.svg	stimuli_distractor_trianglediamonds.svg	38	no	44	0	197
6.6.1	win	2022-12-25	19:40:44	19:45:33	288038	5fcbe82a12a0c80009d6e9cf	877994248	1	main_z	7	advance_on_keypress_ZEE	134	stimuli_distractor_diamondtriangles.svg	stimuli_distractor_trianglediamonds.svg	38	no	57	0	595
6.6.1	win	2022-12-25	19:40:44	19:45:34	289459	5fcbe82a12a0c80009d6e9cf	877994248	1	main_z	7	main_z	135	stimuli_distractor_diamondtriangles.svg	stimuli_target_circletriangles.svg	13	yes	44	1	214
6.6.1	win	2022-12-25	19:40:44	19:45:34	289459	5fcbe82a12a0c80009d6e9cf	877994248	1	main_z	7	advance_on_keypress_ZEE	136	stimuli_distractor_diamondtriangles.svg	stimuli_target_circletriangles.svg	13	yes	57	0	560
6.6.1	win	2022-12-25	19:40:44	19:45:36	290847	5fcbe82a12a0c80009d6e9cf	877994248	1	main_z	7	main_z	137	stimuli_target_trianglecircles.svg	stimuli_distractor_diamondtriangles.svg	21	yes	44	1	206
6.6.1	win	2022-12-25	19:40:44	19:45:36	290847	5fcbe82a12a0c80009d6e9cf	877994248	1	main_z	7	advance_on_keypress_ZEE	138	stimuli_target_trianglecircles.svg	stimuli_distractor_diamondtriangles.svg	21	yes	57	0	494
6.6.1	win	2022-12-25	19:40:44	19:45:37	292179	5fcbe82a12a0c80009d6e9cf	877994248	1	main_z	7	main_z	139	stimuli_target_squaretriangles.svg	stimuli_distractor_trianglediamonds.svg	3	yes	44	1	229
6.6.1	win	2022-12-25	19:40:44	19:45:37	292179	5fcbe82a12a0c80009d6e9cf	877994248	1	main_z	7	advance_on_keypress_ZEE	140	stimuli_target_squaretriangles.svg	stimuli_distractor_trianglediamonds.svg	3	yes	57	0	488
6.6.1	win	2022-12-25	19:40:44	19:45:38	293490	5fcbe82a12a0c80009d6e9cf	877994248	1	main_z	7	main_z	141	stimuli_target_squaretriangles.svg	stimuli_distractor_diamondtriangles.svg	7	yes	44	1	208
6.6.1	win	2022-12-25	19:40:44	19:45:38	293490	5fcbe82a12a0c80009d6e9cf	877994248	1	main_z	7	advance_on_keypress_ZEE	142	stimuli_target_squaretriangles.svg	stimuli_distractor_diamondtriangles.svg	7	yes	57	0	475
6.6.1	win	2022-12-25	19:40:44	19:45:39	294710	5fcbe82a12a0c80009d6e9cf	877994248	1	main_z	7	main_z	143	stimuli_distractor_diamondtriangles.svg	stimuli_distractor_trianglediamonds.svg	37	no	44	0	130
6.6.1	win	2022-12-25	19:40:44	19:45:39	294710	5fcbe82a12a0c80009d6e9cf	877994248	1	main_z	7	advance_on_keypress_ZEE	144	stimuli_distractor_diamondtriangles.svg	stimuli_distractor_trianglediamonds.svg	37	no	57	0	502
6.6.1	win	2022-12-25	19:40:44	19:45:41	295978	5fcbe82a12a0c80009d6e9cf	877994248	1	main_z	7	main_z	145	stimuli_distractor_trianglediamonds.svg	stimuli_distractor_trianglediamonds.svg	33	no	44	0	156
6.6.1	win	2022-12-25	19:40:44	19:45:41	295978	5fcbe82a12a0c80009d6e9cf	877994248	1	main_z	7	advance_on_keypress_ZEE	146	stimuli_distractor_trianglediamonds.svg	stimuli_distractor_trianglediamonds.svg	33	no	57	0	515
6.6.1	win	2022-12-25	19:40:44	19:45:42	297250	5fcbe82a12a0c80009d6e9cf	877994248	1	main_z	7	main_z	147	stimuli_target_circletriangles.svg	stimuli_distractor_trianglediamonds.svg	1	yes	44	1	148
6.6.1	win	2022-12-25	19:40:44	19:45:42	297250	5fcbe82a12a0c80009d6e9cf	877994248	1	main_z	7	advance_on_keypress_ZEE	148	stimuli_target_circletriangles.svg	stimuli_distractor_trianglediamonds.svg	1	yes	57	0	507
6.6.1	win	2022-12-25	19:40:44	19:45:43	298543	5fcbe82a12a0c80009d6e9cf	877994248	1	main_z	7	main_z	149	stimuli_distractor_trianglediamonds.svg	stimuli_target_circlediamonds.svg	10	yes	44	1	176
6.6.1	win	2022-12-25	19:40:44	19:45:43	298543	5fcbe82a12a0c80009d6e9cf	877994248	1	main_z	7	advance_on_keypress_ZEE	150	stimuli_distractor_trianglediamonds.svg	stimuli_target_circlediamonds.svg	10	yes	57	0	490
6.6.1	win	2022-12-25	19:40:44	19:45:45	299838	5fcbe82a12a0c80009d6e9cf	877994248	1	main_z	7	main_z	151	stimuli_distractor_diamondtriangles.svg	stimuli_target_squaretriangles.svg	15	yes	44	1	190
6.6.1	win	2022-12-25	19:40:44	19:45:45	299838	5fcbe82a12a0c80009d6e9cf	877994248	1	main_z	7	advance_on_keypress_ZEE	152	stimuli_distractor_diamondtriangles.svg	stimuli_target_squaretriangles.svg	15	yes	57	0	412
6.6.1	win	2022-12-25	19:40:44	19:45:46	301102	5fcbe82a12a0c80009d6e9cf	877994248	1	main_z	7	main_z	153	stimuli_distractor_diamondtriangles.svg	stimuli_target_squarediamonds.svg	16	yes	44	1	240
6.6.1	win	2022-12-25	19:40:44	19:45:46	301102	5fcbe82a12a0c80009d6e9cf	877994248	1	main_z	7	advance_on_keypress_ZEE	154	stimuli_distractor_diamondtriangles.svg	stimuli_target_squarediamonds.svg	16	yes	57	0	495
6.6.1	win	2022-12-25	19:40:44	19:45:47	302419	5fcbe82a12a0c80009d6e9cf	877994248	1	main_z	7	main_z	155	stimuli_distractor_trianglediamonds.svg	stimuli_target_trianglecircles.svg	25	yes	44	1	213
6.6.1	win	2022-12-25	19:40:44	19:45:47	302419	5fcbe82a12a0c80009d6e9cf	877994248	1	main_z	7	advance_on_keypress_ZEE	156	stimuli_distractor_trianglediamonds.svg	stimuli_target_trianglecircles.svg	25	yes	57	0	462
6.6.1	win	2022-12-25	19:40:44	19:45:48	303719	5fcbe82a12a0c80009d6e9cf	877994248	1	main_z	7	main_z	157	stimuli_target_circlediamonds.svg	stimuli_distractor_trianglediamonds.svg	2	yes	44	1	227
6.6.1	win	2022-12-25	19:40:44	19:45:48	303719	5fcbe82a12a0c80009d6e9cf	877994248	1	main_z	7	advance_on_keypress_ZEE	158	stimuli_target_circlediamonds.svg	stimuli_distractor_trianglediamonds.svg	2	yes	57	0	422
6.6.1	win	2022-12-25	19:40:44	19:45:50	304951	5fcbe82a12a0c80009d6e9cf	877994248	1	main_z	7	main_z	159	stimuli_distractor_trianglediamonds.svg	stimuli_target_circletriangles.svg	9	yes	44	1	195
6.6.1	win	2022-12-25	19:40:44	19:45:50	304951	5fcbe82a12a0c80009d6e9cf	877994248	1	main_z	7	advance_on_keypress_ZEE	160	stimuli_distractor_trianglediamonds.svg	stimuli_target_circletriangles.svg	9	yes	57	0	490
6.6.1	win	2022-12-25	19:40:44	19:46:11	326343	5fcbe82a12a0c80009d6e9cf	877994248	1	practice_slash	9	practice_slash	1	stimuli_distractor_trianglediamonds.svg	stimuli_distractor_trianglediamonds.svg	15	no	53	0	393
6.6.1	win	2022-12-25	19:40:44	19:46:11	326343	5fcbe82a12a0c80009d6e9cf	877994248	1	practice_slash	9	advance_on_keypress_SLASH	2	stimuli_distractor_trianglediamonds.svg	stimuli_distractor_trianglediamonds.svg	15	no	57	0	528
6.6.1	win	2022-12-25	19:40:44	19:46:13	328703	5fcbe82a12a0c80009d6e9cf	877994248	1	practice_slash	9	practice_slash	3	stimuli_target_diamondsquares.svg	stimuli_distractor_diamondtriangles.svg	3	yes	53	1	210
6.6.1	win	2022-12-25	19:40:44	19:46:13	328703	5fcbe82a12a0c80009d6e9cf	877994248	1	practice_slash	9	advance_on_keypress_SLASH	4	stimuli_target_diamondsquares.svg	stimuli_distractor_diamondtriangles.svg	3	yes	57	0	616
6.6.1	win	2022-12-25	19:40:44	19:46:16	331190	5fcbe82a12a0c80009d6e9cf	877994248	1	practice_slash	9	practice_slash	5	stimuli_target_diamondsquares.svg	stimuli_distractor_trianglediamonds.svg	6	yes	53	1	250
6.6.1	win	2022-12-25	19:40:44	19:46:16	331190	5fcbe82a12a0c80009d6e9cf	877994248	1	practice_slash	9	advance_on_keypress_SLASH	6	stimuli_target_diamondsquares.svg	stimuli_distractor_trianglediamonds.svg	6	yes	57	0	525
6.6.1	win	2022-12-25	19:40:44	19:46:18	333535	5fcbe82a12a0c80009d6e9cf	877994248	1	practice_slash	9	practice_slash	7	stimuli_distractor_trianglediamonds.svg	stimuli_target_diamondcircles.svg	12	yes	53	1	203
6.6.1	win	2022-12-25	19:40:44	19:46:18	333535	5fcbe82a12a0c80009d6e9cf	877994248	1	practice_slash	9	advance_on_keypress_SLASH	8	stimuli_distractor_trianglediamonds.svg	stimuli_target_diamondcircles.svg	12	yes	57	0	356
6.6.1	win	2022-12-25	19:40:44	19:46:20	335726	5fcbe82a12a0c80009d6e9cf	877994248	1	practice_slash	9	practice_slash	9	stimuli_distractor_trianglediamonds.svg	stimuli_target_circlediamonds.svg	10	yes	53	1	214
6.6.1	win	2022-12-25	19:40:44	19:46:20	335726	5fcbe82a12a0c80009d6e9cf	877994248	1	practice_slash	9	advance_on_keypress_SLASH	10	stimuli_distractor_trianglediamonds.svg	stimuli_target_circlediamonds.svg	10	yes	57	0	409
6.6.1	win	2022-12-25	19:40:44	19:46:23	338090	5fcbe82a12a0c80009d6e9cf	877994248	1	practice_slash	9	practice_slash	11	stimuli_distractor_trianglediamonds.svg	stimuli_distractor_diamondtriangles.svg	16	no	53	0	334
6.6.1	win	2022-12-25	19:40:44	19:46:23	338090	5fcbe82a12a0c80009d6e9cf	877994248	1	practice_slash	9	advance_on_keypress_SLASH	12	stimuli_distractor_trianglediamonds.svg	stimuli_distractor_diamondtriangles.svg	16	no	57	0	319
6.6.1	win	2022-12-25	19:40:44	19:46:25	340210	5fcbe82a12a0c80009d6e9cf	877994248	1	practice_slash	9	practice_slash	13	stimuli_target_squarediamonds.svg	stimuli_distractor_diamondtriangles.svg	2	yes	53	1	186
6.6.1	win	2022-12-25	19:40:44	19:46:25	340210	5fcbe82a12a0c80009d6e9cf	877994248	1	practice_slash	9	advance_on_keypress_SLASH	14	stimuli_target_squarediamonds.svg	stimuli_distractor_diamondtriangles.svg	2	yes	57	0	305
6.6.1	win	2022-12-25	19:40:44	19:46:27	342352	5fcbe82a12a0c80009d6e9cf	877994248	1	practice_slash	9	practice_slash	15	stimuli_distractor_diamondtriangles.svg	stimuli_target_trianglecircles.svg	9	yes	53	1	190
6.6.1	win	2022-12-25	19:40:44	19:46:27	342352	5fcbe82a12a0c80009d6e9cf	877994248	1	practice_slash	9	advance_on_keypress_SLASH	16	stimuli_distractor_diamondtriangles.svg	stimuli_target_trianglecircles.svg	9	yes	57	0	373
6.6.1	win	2022-12-25	19:40:44	19:46:29	344591	5fcbe82a12a0c80009d6e9cf	877994248	1	practice_slash	9	practice_slash	17	stimuli_distractor_diamondtriangles.svg	stimuli_target_circletriangles.svg	7	yes	53	1	250
6.6.1	win	2022-12-25	19:40:44	19:46:29	344591	5fcbe82a12a0c80009d6e9cf	877994248	1	practice_slash	9	advance_on_keypress_SLASH	18	stimuli_distractor_diamondtriangles.svg	stimuli_target_circletriangles.svg	7	yes	57	0	280
6.6.1	win	2022-12-25	19:40:44	19:46:31	346679	5fcbe82a12a0c80009d6e9cf	877994248	1	practice_slash	9	practice_slash	19	stimuli_target_squarediamonds.svg	stimuli_distractor_trianglediamonds.svg	5	yes	53	1	187
6.6.1	win	2022-12-25	19:40:44	19:46:31	346679	5fcbe82a12a0c80009d6e9cf	877994248	1	practice_slash	9	advance_on_keypress_SLASH	20	stimuli_target_squarediamonds.svg	stimuli_distractor_trianglediamonds.svg	5	yes	57	0	370
6.6.1	win	2022-12-25	19:40:44	19:46:34	348823	5fcbe82a12a0c80009d6e9cf	877994248	1	practice_slash	9	practice_slash	21	stimuli_target_circlediamonds.svg	stimuli_distractor_trianglediamonds.svg	4	yes	53	1	158
6.6.1	win	2022-12-25	19:40:44	19:46:34	348823	5fcbe82a12a0c80009d6e9cf	877994248	1	practice_slash	9	advance_on_keypress_SLASH	22	stimuli_target_circlediamonds.svg	stimuli_distractor_trianglediamonds.svg	4	yes	57	0	294
6.6.1	win	2022-12-25	19:40:44	19:46:36	350895	5fcbe82a12a0c80009d6e9cf	877994248	1	practice_slash	9	practice_slash	23	stimuli_distractor_diamondtriangles.svg	stimuli_target_diamondcircles.svg	8	yes	53	1	162
6.6.1	win	2022-12-25	19:40:44	19:46:36	350895	5fcbe82a12a0c80009d6e9cf	877994248	1	practice_slash	9	advance_on_keypress_SLASH	24	stimuli_distractor_diamondtriangles.svg	stimuli_target_diamondcircles.svg	8	yes	57	0	313
6.6.1	win	2022-12-25	19:40:44	19:46:38	352979	5fcbe82a12a0c80009d6e9cf	877994248	1	practice_slash	9	practice_slash	25	stimuli_distractor_diamondtriangles.svg	stimuli_distractor_trianglediamonds.svg	14	no	53	0	125
6.6.1	win	2022-12-25	19:40:44	19:46:38	352979	5fcbe82a12a0c80009d6e9cf	877994248	1	practice_slash	9	advance_on_keypress_SLASH	26	stimuli_distractor_diamondtriangles.svg	stimuli_distractor_trianglediamonds.svg	14	no	57	0	316
6.6.1	win	2022-12-25	19:40:44	19:46:40	355007	5fcbe82a12a0c80009d6e9cf	877994248	1	practice_slash	9	practice_slash	27	stimuli_distractor_trianglediamonds.svg	stimuli_target_squarediamonds.svg	11	yes	53	1	90
6.6.1	win	2022-12-25	19:40:44	19:46:40	355007	5fcbe82a12a0c80009d6e9cf	877994248	1	practice_slash	9	advance_on_keypress_SLASH	28	stimuli_distractor_trianglediamonds.svg	stimuli_target_squarediamonds.svg	11	yes	57	0	288
6.6.1	win	2022-12-25	19:40:44	19:46:42	357126	5fcbe82a12a0c80009d6e9cf	877994248	1	practice_slash	9	practice_slash	29	stimuli_target_circlediamonds.svg	stimuli_distractor_diamondtriangles.svg	1	yes	53	1	188
6.6.1	win	2022-12-25	19:40:44	19:46:42	357126	5fcbe82a12a0c80009d6e9cf	877994248	1	practice_slash	9	advance_on_keypress_SLASH	30	stimuli_target_circlediamonds.svg	stimuli_distractor_diamondtriangles.svg	1	yes	57	0	235
6.6.1	win	2022-12-25	19:40:44	19:46:44	359035	5fcbe82a12a0c80009d6e9cf	877994248	1	practice_slash	9	practice_slash	31	stimuli_distractor_diamondtriangles.svg	stimuli_distractor_diamondtriangles.svg	13	no	53	0	58
6.6.1	win	2022-12-25	19:40:44	19:46:44	359035	5fcbe82a12a0c80009d6e9cf	877994248	1	practice_slash	9	advance_on_keypress_SLASH	32	stimuli_distractor_diamondtriangles.svg	stimuli_distractor_diamondtriangles.svg	13	no	57	0	269
6.6.1	win	2022-12-25	19:40:44	19:46:48	363066	5fcbe82a12a0c80009d6e9cf	877994248	1	main_slash	11	main_slash	1	stimuli_distractor_diamondtriangles.svg	stimuli_target_circlediamonds.svg	14	yes	53	1	223
6.6.1	win	2022-12-25	19:40:44	19:46:48	363066	5fcbe82a12a0c80009d6e9cf	877994248	1	main_slash	11	advance_on_keypress_SLASH	2	stimuli_distractor_diamondtriangles.svg	stimuli_target_circlediamonds.svg	14	yes	57	0	885
6.6.1	win	2022-12-25	19:40:44	19:46:50	364746	5fcbe82a12a0c80009d6e9cf	877994248	1	main_slash	11	main_slash	3	stimuli_target_diamondcircles.svg	stimuli_distractor_diamondtriangles.svg	23	yes	53	1	174
6.6.1	win	2022-12-25	19:40:44	19:46:50	364746	5fcbe82a12a0c80009d6e9cf	877994248	1	main_slash	11	advance_on_keypress_SLASH	4	stimuli_target_diamondcircles.svg	stimuli_distractor_diamondtriangles.svg	23	yes	57	0	603
6.6.1	win	2022-12-25	19:40:44	19:46:51	366110	5fcbe82a12a0c80009d6e9cf	877994248	1	main_slash	11	main_slash	5	stimuli_target_diamondsquares.svg	stimuli_distractor_trianglediamonds.svg	20	yes	53	1	148
6.6.1	win	2022-12-25	19:40:44	19:46:51	366110	5fcbe82a12a0c80009d6e9cf	877994248	1	main_slash	11	advance_on_keypress_SLASH	6	stimuli_target_diamondsquares.svg	stimuli_distractor_trianglediamonds.svg	20	yes	57	0	567
6.6.1	win	2022-12-25	19:40:44	19:46:52	367435	5fcbe82a12a0c80009d6e9cf	877994248	1	main_slash	11	main_slash	7	stimuli_distractor_trianglediamonds.svg	stimuli_target_squarediamonds.svg	12	yes	53	1	148
6.6.1	win	2022-12-25	19:40:44	19:46:52	367435	5fcbe82a12a0c80009d6e9cf	877994248	1	main_slash	11	advance_on_keypress_SLASH	8	stimuli_distractor_trianglediamonds.svg	stimuli_target_squarediamonds.svg	12	yes	57	0	614
6.6.1	win	2022-12-25	19:40:44	19:46:54	368822	5fcbe82a12a0c80009d6e9cf	877994248	1	main_slash	11	main_slash	9	stimuli_target_squarediamonds.svg	stimuli_distractor_diamondtriangles.svg	8	yes	53	1	160
6.6.1	win	2022-12-25	19:40:44	19:46:54	368822	5fcbe82a12a0c80009d6e9cf	877994248	1	main_slash	11	advance_on_keypress_SLASH	10	stimuli_target_squarediamonds.svg	stimuli_distractor_diamondtriangles.svg	8	yes	57	0	586
6.6.1	win	2022-12-25	19:40:44	19:46:55	370186	5fcbe82a12a0c80009d6e9cf	877994248	1	main_slash	11	main_slash	11	stimuli_target_trianglesquares.svg	stimuli_distractor_diamondtriangles.svg	22	yes	53	1	166
6.6.1	win	2022-12-25	19:40:44	19:46:55	370186	5fcbe82a12a0c80009d6e9cf	877994248	1	main_slash	11	advance_on_keypress_SLASH	12	stimuli_target_trianglesquares.svg	stimuli_distractor_diamondtriangles.svg	22	yes	57	0	563
6.6.1	win	2022-12-25	19:40:44	19:46:56	371526	5fcbe82a12a0c80009d6e9cf	877994248	1	main_slash	11	main_slash	13	stimuli_target_squarediamonds.svg	stimuli_distractor_trianglediamonds.svg	4	yes	53	1	168
6.6.1	win	2022-12-25	19:40:44	19:46:56	371526	5fcbe82a12a0c80009d6e9cf	877994248	1	main_slash	11	advance_on_keypress_SLASH	14	stimuli_target_squarediamonds.svg	stimuli_distractor_trianglediamonds.svg	4	yes	57	0	591
6.6.1	win	2022-12-25	19:40:44	19:46:58	372839	5fcbe82a12a0c80009d6e9cf	877994248	1	main_slash	11	main_slash	15	stimuli_distractor_trianglediamonds.svg	stimuli_distractor_diamondtriangles.svg	36	no	53	0	106
6.6.1	win	2022-12-25	19:40:44	19:46:58	372839	5fcbe82a12a0c80009d6e9cf	877994248	1	main_slash	11	advance_on_keypress_SLASH	16	stimuli_distractor_trianglediamonds.svg	stimuli_distractor_diamondtriangles.svg	36	no	57	0	628
6.6.1	win	2022-12-25	19:40:44	19:46:59	374174	5fcbe82a12a0c80009d6e9cf	877994248	1	main_slash	11	main_slash	17	stimuli_distractor_diamondtriangles.svg	stimuli_distractor_diamondtriangles.svg	40	no	53	0	86
6.6.1	win	2022-12-25	19:40:44	19:46:59	374174	5fcbe82a12a0c80009d6e9cf	877994248	1	main_slash	11	advance_on_keypress_SLASH	18	stimuli_distractor_diamondtriangles.svg	stimuli_distractor_diamondtriangles.svg	40	no	57	0	597
6.6.1	win	2022-12-25	19:40:44	19:47:00	375554	5fcbe82a12a0c80009d6e9cf	877994248	1	main_slash	11	main_slash	19	stimuli_distractor_trianglediamonds.svg	stimuli_target_trianglecircles.svg	25	yes	53	1	163
6.6.1	win	2022-12-25	19:40:44	19:47:00	375554	5fcbe82a12a0c80009d6e9cf	877994248	1	main_slash	11	advance_on_keypress_SLASH	20	stimuli_distractor_trianglediamonds.svg	stimuli_target_trianglecircles.svg	25	yes	57	0	610
6.6.1	win	2022-12-25	19:40:44	19:47:02	376903	5fcbe82a12a0c80009d6e9cf	877994248	1	main_slash	11	main_slash	21	stimuli_distractor_trianglediamonds.svg	stimuli_target_diamondsquares.svg	28	yes	53	1	128
6.6.1	win	2022-12-25	19:40:44	19:47:02	376903	5fcbe82a12a0c80009d6e9cf	877994248	1	main_slash	11	advance_on_keypress_SLASH	22	stimuli_distractor_trianglediamonds.svg	stimuli_target_diamondsquares.svg	28	yes	57	0	610
6.6.1	win	2022-12-25	19:40:44	19:47:03	378282	5fcbe82a12a0c80009d6e9cf	877994248	1	main_slash	11	main_slash	23	stimuli_distractor_diamondtriangles.svg	stimuli_distractor_diamondtriangles.svg	39	no	53	0	154
6.6.1	win	2022-12-25	19:40:44	19:47:03	378282	5fcbe82a12a0c80009d6e9cf	877994248	1	main_slash	11	advance_on_keypress_SLASH	24	stimuli_distractor_diamondtriangles.svg	stimuli_distractor_diamondtriangles.svg	39	no	57	0	599
6.6.1	win	2022-12-25	19:40:44	19:47:04	379623	5fcbe82a12a0c80009d6e9cf	877994248	1	main_slash	11	main_slash	25	stimuli_distractor_diamondtriangles.svg	stimuli_distractor_trianglediamonds.svg	38	no	53	0	126
6.6.1	win	2022-12-25	19:40:44	19:47:04	379623	5fcbe82a12a0c80009d6e9cf	877994248	1	main_slash	11	advance_on_keypress_SLASH	26	stimuli_distractor_diamondtriangles.svg	stimuli_distractor_trianglediamonds.svg	38	no	57	0	638
6.6.1	win	2022-12-25	19:40:44	19:47:06	380954	5fcbe82a12a0c80009d6e9cf	877994248	1	main_slash	11	main_slash	27	stimuli_distractor_diamondtriangles.svg	stimuli_target_squarediamonds.svg	16	yes	53	1	84
6.6.1	win	2022-12-25	19:40:44	19:47:06	380954	5fcbe82a12a0c80009d6e9cf	877994248	1	main_slash	11	advance_on_keypress_SLASH	28	stimuli_distractor_diamondtriangles.svg	stimuli_target_squarediamonds.svg	16	yes	57	0	587
6.6.1	win	2022-12-25	19:40:44	19:47:07	382215	5fcbe82a12a0c80009d6e9cf	877994248	1	main_slash	11	main_slash	29	stimuli_distractor_diamondtriangles.svg	stimuli_target_squaretriangles.svg	15	yes	53	1	58
6.6.1	win	2022-12-25	19:40:44	19:47:07	382215	5fcbe82a12a0c80009d6e9cf	877994248	1	main_slash	11	advance_on_keypress_SLASH	30	stimuli_distractor_diamondtriangles.svg	stimuli_target_squaretriangles.svg	15	yes	57	0	598
6.6.1	win	2022-12-25	19:40:44	19:47:08	383511	5fcbe82a12a0c80009d6e9cf	877994248	1	main_slash	11	main_slash	31	stimuli_target_trianglecircles.svg	stimuli_distractor_trianglediamonds.svg	17	yes	53	1	83
6.6.1	win	2022-12-25	19:40:44	19:47:08	383511	5fcbe82a12a0c80009d6e9cf	877994248	1	main_slash	11	advance_on_keypress_SLASH	32	stimuli_target_trianglecircles.svg	stimuli_distractor_trianglediamonds.svg	17	yes	57	0	606
6.6.1	win	2022-12-25	19:40:44	19:47:10	384831	5fcbe82a12a0c80009d6e9cf	877994248	1	main_slash	11	main_slash	33	stimuli_distractor_diamondtriangles.svg	stimuli_target_circletriangles.svg	13	yes	53	1	98
6.6.1	win	2022-12-25	19:40:44	19:47:10	384831	5fcbe82a12a0c80009d6e9cf	877994248	1	main_slash	11	advance_on_keypress_SLASH	34	stimuli_distractor_diamondtriangles.svg	stimuli_target_circletriangles.svg	13	yes	57	0	590
6.6.1	win	2022-12-25	19:40:44	19:47:11	386174	5fcbe82a12a0c80009d6e9cf	877994248	1	main_slash	11	main_slash	35	stimuli_target_squaretriangles.svg	stimuli_distractor_trianglediamonds.svg	3	yes	53	1	138
6.6.1	win	2022-12-25	19:40:44	19:47:11	386174	5fcbe82a12a0c80009d6e9cf	877994248	1	main_slash	11	advance_on_keypress_SLASH	36	stimuli_target_squaretriangles.svg	stimuli_distractor_trianglediamonds.svg	3	yes	57	0	610
6.6.1	win	2022-12-25	19:40:44	19:47:12	387486	5fcbe82a12a0c80009d6e9cf	877994248	1	main_slash	11	main_slash	37	stimuli_distractor_diamondtriangles.svg	stimuli_target_trianglesquares.svg	30	yes	53	1	87
6.6.1	win	2022-12-25	19:40:44	19:47:12	387486	5fcbe82a12a0c80009d6e9cf	877994248	1	main_slash	11	advance_on_keypress_SLASH	38	stimuli_distractor_diamondtriangles.svg	stimuli_target_trianglesquares.svg	30	yes	57	0	241
6.6.1	win	2022-12-25	19:40:44	19:47:13	388534	5fcbe82a12a0c80009d6e9cf	877994248	1	main_slash	11	main_slash	39	stimuli_target_diamondsquares.svg	stimuli_distractor_diamondtriangles.svg	24	yes	53	1	186
6.6.1	win	2022-12-25	19:40:44	19:47:13	388534	5fcbe82a12a0c80009d6e9cf	877994248	1	main_slash	11	advance_on_keypress_SLASH	40	stimuli_target_diamondsquares.svg	stimuli_distractor_diamondtriangles.svg	24	yes	57	0	221
6.6.1	win	2022-12-25	19:40:44	19:47:14	389558	5fcbe82a12a0c80009d6e9cf	877994248	1	main_slash	11	main_slash	41	stimuli_distractor_diamondtriangles.svg	stimuli_target_trianglecircles.svg	29	yes	53	1	182
6.6.1	win	2022-12-25	19:40:44	19:47:14	389558	5fcbe82a12a0c80009d6e9cf	877994248	1	main_slash	11	advance_on_keypress_SLASH	42	stimuli_distractor_diamondtriangles.svg	stimuli_target_trianglecircles.svg	29	yes	57	0	184
6.6.1	win	2022-12-25	19:40:44	19:47:15	390546	5fcbe82a12a0c80009d6e9cf	877994248	1	main_slash	11	main_slash	43	stimuli_target_circlediamonds.svg	stimuli_distractor_trianglediamonds.svg	2	yes	53	1	182
6.6.1	win	2022-12-25	19:40:44	19:47:15	390546	5fcbe82a12a0c80009d6e9cf	877994248	1	main_slash	11	advance_on_keypress_SLASH	44	stimuli_target_circlediamonds.svg	stimuli_distractor_trianglediamonds.svg	2	yes	57	0	227
6.6.1	win	2022-12-25	19:40:44	19:47:16	391574	5fcbe82a12a0c80009d6e9cf	877994248	1	main_slash	11	main_slash	45	stimuli_target_trianglesquares.svg	stimuli_distractor_trianglediamonds.svg	18	yes	53	1	191
6.6.1	win	2022-12-25	19:40:44	19:47:16	391574	5fcbe82a12a0c80009d6e9cf	877994248	1	main_slash	11	advance_on_keypress_SLASH	46	stimuli_target_trianglesquares.svg	stimuli_distractor_trianglediamonds.svg	18	yes	57	0	176
6.6.1	win	2022-12-25	19:40:44	19:47:17	392530	5fcbe82a12a0c80009d6e9cf	877994248	1	main_slash	11	main_slash	47	stimuli_distractor_trianglediamonds.svg	stimuli_target_trianglesquares.svg	26	yes	53	1	159
6.6.1	win	2022-12-25	19:40:44	19:47:17	392530	5fcbe82a12a0c80009d6e9cf	877994248	1	main_slash	11	advance_on_keypress_SLASH	48	stimuli_distractor_trianglediamonds.svg	stimuli_target_trianglesquares.svg	26	yes	57	0	183
6.6.1	win	2022-12-25	19:40:44	19:47:18	393462	5fcbe82a12a0c80009d6e9cf	877994248	1	main_slash	11	main_slash	49	stimuli_target_circletriangles.svg	stimuli_distractor_diamondtriangles.svg	5	yes	53	1	135
6.6.1	win	2022-12-25	19:40:44	19:47:18	393462	5fcbe82a12a0c80009d6e9cf	877994248	1	main_slash	11	advance_on_keypress_SLASH	50	stimuli_target_circletriangles.svg	stimuli_distractor_diamondtriangles.svg	5	yes	57	0	189
6.6.1	win	2022-12-25	19:40:44	19:47:19	394454	5fcbe82a12a0c80009d6e9cf	877994248	1	main_slash	11	main_slash	51	stimuli_distractor_diamondtriangles.svg	stimuli_target_diamondsquares.svg	32	yes	53	1	188
6.6.1	win	2022-12-25	19:40:44	19:47:19	394454	5fcbe82a12a0c80009d6e9cf	877994248	1	main_slash	11	advance_on_keypress_SLASH	52	stimuli_distractor_diamondtriangles.svg	stimuli_target_diamondsquares.svg	32	yes	57	0	189
6.6.1	win	2022-12-25	19:40:44	19:47:20	395427	5fcbe82a12a0c80009d6e9cf	877994248	1	main_slash	11	main_slash	53	stimuli_distractor_trianglediamonds.svg	stimuli_target_circlediamonds.svg	10	yes	53	1	162
6.6.1	win	2022-12-25	19:40:44	19:47:20	395427	5fcbe82a12a0c80009d6e9cf	877994248	1	main_slash	11	advance_on_keypress_SLASH	54	stimuli_distractor_trianglediamonds.svg	stimuli_target_circlediamonds.svg	10	yes	57	0	156
6.6.1	win	2022-12-25	19:40:44	19:47:21	396287	5fcbe82a12a0c80009d6e9cf	877994248	1	main_slash	11	main_slash	55	stimuli_distractor_diamondtriangles.svg	stimuli_distractor_trianglediamonds.svg	37	no	53	0	83
6.6.1	win	2022-12-25	19:40:44	19:47:21	396287	5fcbe82a12a0c80009d6e9cf	877994248	1	main_slash	11	advance_on_keypress_SLASH	56	stimuli_distractor_diamondtriangles.svg	stimuli_distractor_trianglediamonds.svg	37	no	57	0	202
6.6.1	win	2022-12-25	19:40:44	19:47:22	397206	5fcbe82a12a0c80009d6e9cf	877994248	1	main_slash	11	main_slash	57	stimuli_target_circletriangles.svg	stimuli_distractor_trianglediamonds.svg	1	yes	53	1	106
6.6.1	win	2022-12-25	19:40:44	19:47:22	397206	5fcbe82a12a0c80009d6e9cf	877994248	1	main_slash	11	advance_on_keypress_SLASH	58	stimuli_target_circletriangles.svg	stimuli_distractor_trianglediamonds.svg	1	yes	57	0	215
6.6.1	win	2022-12-25	19:40:44	19:47:23	398243	5fcbe82a12a0c80009d6e9cf	877994248	1	main_slash	11	main_slash	59	stimuli_distractor_diamondtriangles.svg	stimuli_target_diamondcircles.svg	31	yes	53	1	202
6.6.1	win	2022-12-25	19:40:44	19:47:23	398243	5fcbe82a12a0c80009d6e9cf	877994248	1	main_slash	11	advance_on_keypress_SLASH	60	stimuli_distractor_diamondtriangles.svg	stimuli_target_diamondcircles.svg	31	yes	57	0	160
6.6.1	win	2022-12-25	19:40:44	19:47:24	399187	5fcbe82a12a0c80009d6e9cf	877994248	1	main_slash	11	main_slash	61	stimuli_distractor_trianglediamonds.svg	stimuli_target_diamondcircles.svg	27	yes	53	1	162
6.6.1	win	2022-12-25	19:40:44	19:47:24	399187	5fcbe82a12a0c80009d6e9cf	877994248	1	main_slash	11	advance_on_keypress_SLASH	62	stimuli_distractor_trianglediamonds.svg	stimuli_target_diamondcircles.svg	27	yes	57	0	238
6.6.1	win	2022-12-25	19:40:44	19:47:25	400210	5fcbe82a12a0c80009d6e9cf	877994248	1	main_slash	11	main_slash	63	stimuli_target_squaretriangles.svg	stimuli_distractor_diamondtriangles.svg	7	yes	53	1	170
6.6.1	win	2022-12-25	19:40:44	19:47:25	400210	5fcbe82a12a0c80009d6e9cf	877994248	1	main_slash	11	advance_on_keypress_SLASH	64	stimuli_target_squaretriangles.svg	stimuli_distractor_diamondtriangles.svg	7	yes	57	0	235
6.6.1	win	2022-12-25	19:40:44	19:47:26	401192	5fcbe82a12a0c80009d6e9cf	877994248	1	main_slash	11	main_slash	65	stimuli_target_circlediamonds.svg	stimuli_distractor_diamondtriangles.svg	6	yes	53	1	128
6.6.1	win	2022-12-25	19:40:44	19:47:26	401192	5fcbe82a12a0c80009d6e9cf	877994248	1	main_slash	11	advance_on_keypress_SLASH	66	stimuli_target_circlediamonds.svg	stimuli_distractor_diamondtriangles.svg	6	yes	57	0	224
6.6.1	win	2022-12-25	19:40:44	19:47:27	402186	5fcbe82a12a0c80009d6e9cf	877994248	1	main_slash	11	main_slash	67	stimuli_target_diamondcircles.svg	stimuli_distractor_trianglediamonds.svg	19	yes	53	1	157
6.6.1	win	2022-12-25	19:40:44	19:47:27	402186	5fcbe82a12a0c80009d6e9cf	877994248	1	main_slash	11	advance_on_keypress_SLASH	68	stimuli_target_diamondcircles.svg	stimuli_distractor_trianglediamonds.svg	19	yes	57	0	211
6.6.1	win	2022-12-25	19:40:44	19:47:28	403122	5fcbe82a12a0c80009d6e9cf	877994248	1	main_slash	11	main_slash	69	stimuli_distractor_trianglediamonds.svg	stimuli_distractor_diamondtriangles.svg	35	no	53	0	113
6.6.1	win	2022-12-25	19:40:44	19:47:28	403122	5fcbe82a12a0c80009d6e9cf	877994248	1	main_slash	11	advance_on_keypress_SLASH	70	stimuli_distractor_trianglediamonds.svg	stimuli_distractor_diamondtriangles.svg	35	no	57	0	275
6.6.1	win	2022-12-25	19:40:44	19:47:29	404094	5fcbe82a12a0c80009d6e9cf	877994248	1	main_slash	11	main_slash	71	stimuli_distractor_trianglediamonds.svg	stimuli_target_circletriangles.svg	9	yes	53	1	88
6.6.1	win	2022-12-25	19:40:44	19:47:29	404094	5fcbe82a12a0c80009d6e9cf	877994248	1	main_slash	11	advance_on_keypress_SLASH	72	stimuli_distractor_trianglediamonds.svg	stimuli_target_circletriangles.svg	9	yes	57	0	295
6.6.1	win	2022-12-25	19:40:44	19:47:30	405090	5fcbe82a12a0c80009d6e9cf	877994248	1	main_slash	11	main_slash	73	stimuli_distractor_trianglediamonds.svg	stimuli_target_squaretriangles.svg	11	yes	53	1	93
6.6.1	win	2022-12-25	19:40:44	19:47:30	405090	5fcbe82a12a0c80009d6e9cf	877994248	1	main_slash	11	advance_on_keypress_SLASH	74	stimuli_distractor_trianglediamonds.svg	stimuli_target_squaretriangles.svg	11	yes	57	0	287
6.6.1	win	2022-12-25	19:40:44	19:47:31	406086	5fcbe82a12a0c80009d6e9cf	877994248	1	main_slash	11	main_slash	75	stimuli_distractor_trianglediamonds.svg	stimuli_distractor_trianglediamonds.svg	34	no	53	0	96
6.6.1	win	2022-12-25	19:40:44	19:47:31	406086	5fcbe82a12a0c80009d6e9cf	877994248	1	main_slash	11	advance_on_keypress_SLASH	76	stimuli_distractor_trianglediamonds.svg	stimuli_distractor_trianglediamonds.svg	34	no	57	0	303
6.6.1	win	2022-12-25	19:40:44	19:47:32	407138	5fcbe82a12a0c80009d6e9cf	877994248	1	main_slash	11	main_slash	77	stimuli_distractor_trianglediamonds.svg	stimuli_distractor_trianglediamonds.svg	33	no	53	0	140
6.6.1	win	2022-12-25	19:40:44	19:47:32	407138	5fcbe82a12a0c80009d6e9cf	877994248	1	main_slash	11	advance_on_keypress_SLASH	78	stimuli_distractor_trianglediamonds.svg	stimuli_distractor_trianglediamonds.svg	33	no	57	0	255
6.6.1	win	2022-12-25	19:40:44	19:47:33	408142	5fcbe82a12a0c80009d6e9cf	877994248	1	main_slash	11	main_slash	79	stimuli_target_trianglecircles.svg	stimuli_distractor_diamondtriangles.svg	21	yes	53	1	140
6.6.1	win	2022-12-25	19:40:44	19:47:33	408142	5fcbe82a12a0c80009d6e9cf	877994248	1	main_slash	11	advance_on_keypress_SLASH	80	stimuli_target_trianglecircles.svg	stimuli_distractor_diamondtriangles.svg	21	yes	57	0	252
6.6.1	win	2022-12-25	19:40:44	19:47:34	409143	5fcbe82a12a0c80009d6e9cf	877994248	1	main_slash	11	main_slash	81	stimuli_target_diamondcircles.svg	stimuli_distractor_trianglediamonds.svg	19	yes	53	1	126
6.6.1	win	2022-12-25	19:40:44	19:47:34	409143	5fcbe82a12a0c80009d6e9cf	877994248	1	main_slash	11	advance_on_keypress_SLASH	82	stimuli_target_diamondcircles.svg	stimuli_distractor_trianglediamonds.svg	19	yes	57	0	274
6.6.1	win	2022-12-25	19:40:44	19:47:35	410183	5fcbe82a12a0c80009d6e9cf	877994248	1	main_slash	11	main_slash	83	stimuli_distractor_trianglediamonds.svg	stimuli_target_trianglesquares.svg	26	yes	53	1	153
6.6.1	win	2022-12-25	19:40:44	19:47:35	410183	5fcbe82a12a0c80009d6e9cf	877994248	1	main_slash	11	advance_on_keypress_SLASH	84	stimuli_distractor_trianglediamonds.svg	stimuli_target_trianglesquares.svg	26	yes	57	0	266
6.6.1	win	2022-12-25	19:40:44	19:47:36	411171	5fcbe82a12a0c80009d6e9cf	877994248	1	main_slash	11	main_slash	85	stimuli_target_circlediamonds.svg	stimuli_distractor_diamondtriangles.svg	6	yes	53	1	112
6.6.1	win	2022-12-25	19:40:44	19:47:36	411171	5fcbe82a12a0c80009d6e9cf	877994248	1	main_slash	11	advance_on_keypress_SLASH	86	stimuli_target_circlediamonds.svg	stimuli_distractor_diamondtriangles.svg	6	yes	57	0	266
6.6.1	win	2022-12-25	19:40:44	19:47:37	412190	5fcbe82a12a0c80009d6e9cf	877994248	1	main_slash	11	main_slash	87	stimuli_distractor_diamondtriangles.svg	stimuli_distractor_diamondtriangles.svg	39	no	53	0	145
6.6.1	win	2022-12-25	19:40:44	19:47:37	412190	5fcbe82a12a0c80009d6e9cf	877994248	1	main_slash	11	advance_on_keypress_SLASH	88	stimuli_distractor_diamondtriangles.svg	stimuli_distractor_diamondtriangles.svg	39	no	57	0	267
6.6.1	win	2022-12-25	19:40:44	19:47:38	413254	5fcbe82a12a0c80009d6e9cf	877994248	1	main_slash	11	main_slash	89	stimuli_distractor_trianglediamonds.svg	stimuli_target_diamondcircles.svg	27	yes	53	1	186
6.6.1	win	2022-12-25	19:40:44	19:47:38	413254	5fcbe82a12a0c80009d6e9cf	877994248	1	main_slash	11	advance_on_keypress_SLASH	90	stimuli_distractor_trianglediamonds.svg	stimuli_target_diamondcircles.svg	27	yes	57	0	227
6.6.1	win	2022-12-25	19:40:44	19:47:39	414290	5fcbe82a12a0c80009d6e9cf	877994248	1	main_slash	11	main_slash	91	stimuli_target_trianglesquares.svg	stimuli_distractor_diamondtriangles.svg	22	yes	53	1	200
6.6.1	win	2022-12-25	19:40:44	19:47:39	414290	5fcbe82a12a0c80009d6e9cf	877994248	1	main_slash	11	advance_on_keypress_SLASH	92	stimuli_target_trianglesquares.svg	stimuli_distractor_diamondtriangles.svg	22	yes	57	0	275
6.6.1	win	2022-12-25	19:40:44	19:47:40	415275	5fcbe82a12a0c80009d6e9cf	877994248	1	main_slash	11	main_slash	93	stimuli_distractor_diamondtriangles.svg	stimuli_target_trianglecircles.svg	29	yes	53	1	94
6.6.1	win	2022-12-25	19:40:44	19:47:40	415275	5fcbe82a12a0c80009d6e9cf	877994248	1	main_slash	11	advance_on_keypress_SLASH	94	stimuli_distractor_diamondtriangles.svg	stimuli_target_trianglecircles.svg	29	yes	57	0	335
6.6.1	win	2022-12-25	19:40:44	19:47:41	416339	5fcbe82a12a0c80009d6e9cf	877994248	1	main_slash	11	main_slash	95	stimuli_target_circletriangles.svg	stimuli_distractor_diamondtriangles.svg	5	yes	53	1	116
6.6.1	win	2022-12-25	19:40:44	19:47:41	416339	5fcbe82a12a0c80009d6e9cf	877994248	1	main_slash	11	advance_on_keypress_SLASH	96	stimuli_target_circletriangles.svg	stimuli_distractor_diamondtriangles.svg	5	yes	57	0	258
6.6.1	win	2022-12-25	19:40:44	19:47:42	417330	5fcbe82a12a0c80009d6e9cf	877994248	1	main_slash	11	main_slash	97	stimuli_distractor_diamondtriangles.svg	stimuli_distractor_trianglediamonds.svg	37	no	53	0	118
6.6.1	win	2022-12-25	19:40:44	19:47:42	417330	5fcbe82a12a0c80009d6e9cf	877994248	1	main_slash	11	advance_on_keypress_SLASH	98	stimuli_distractor_diamondtriangles.svg	stimuli_distractor_trianglediamonds.svg	37	no	57	0	267
6.6.1	win	2022-12-25	19:40:44	19:47:43	418354	5fcbe82a12a0c80009d6e9cf	877994248	1	main_slash	11	main_slash	99	stimuli_distractor_trianglediamonds.svg	stimuli_target_circlediamonds.svg	10	yes	53	1	148
6.6.1	win	2022-12-25	19:40:44	19:47:43	418354	5fcbe82a12a0c80009d6e9cf	877994248	1	main_slash	11	advance_on_keypress_SLASH	100	stimuli_distractor_trianglediamonds.svg	stimuli_target_circlediamonds.svg	10	yes	57	0	271
6.6.1	win	2022-12-25	19:40:44	19:47:44	419367	5fcbe82a12a0c80009d6e9cf	877994248	1	main_slash	11	main_slash	101	stimuli_target_trianglecircles.svg	stimuli_distractor_trianglediamonds.svg	17	yes	53	1	126
6.6.1	win	2022-12-25	19:40:44	19:47:44	419367	5fcbe82a12a0c80009d6e9cf	877994248	1	main_slash	11	advance_on_keypress_SLASH	102	stimuli_target_trianglecircles.svg	stimuli_distractor_trianglediamonds.svg	17	yes	57	0	286
6.6.1	win	2022-12-25	19:40:44	19:47:45	420439	5fcbe82a12a0c80009d6e9cf	877994248	1	main_slash	11	main_slash	103	stimuli_distractor_trianglediamonds.svg	stimuli_target_trianglecircles.svg	25	yes	53	1	170
6.6.1	win	2022-12-25	19:40:44	19:47:45	420439	5fcbe82a12a0c80009d6e9cf	877994248	1	main_slash	11	advance_on_keypress_SLASH	104	stimuli_distractor_trianglediamonds.svg	stimuli_target_trianglecircles.svg	25	yes	57	0	276
6.6.1	win	2022-12-25	19:40:44	19:47:46	421419	5fcbe82a12a0c80009d6e9cf	877994248	1	main_slash	11	main_slash	105	stimuli_target_diamondsquares.svg	stimuli_distractor_trianglediamonds.svg	20	yes	53	1	82
6.6.1	win	2022-12-25	19:40:44	19:47:46	421419	5fcbe82a12a0c80009d6e9cf	877994248	1	main_slash	11	advance_on_keypress_SLASH	106	stimuli_target_diamondsquares.svg	stimuli_distractor_trianglediamonds.svg	20	yes	57	0	318
6.6.1	win	2022-12-25	19:40:44	19:47:47	422414	5fcbe82a12a0c80009d6e9cf	877994248	1	main_slash	11	main_slash	107	stimuli_distractor_diamondtriangles.svg	stimuli_target_trianglesquares.svg	30	yes	53	1	62
6.6.1	win	2022-12-25	19:40:44	19:47:47	422414	5fcbe82a12a0c80009d6e9cf	877994248	1	main_slash	11	advance_on_keypress_SLASH	108	stimuli_distractor_diamondtriangles.svg	stimuli_target_trianglesquares.svg	30	yes	57	0	291
6.6.1	win	2022-12-25	19:40:44	19:47:48	423406	5fcbe82a12a0c80009d6e9cf	877994248	1	main_slash	11	main_slash	109	stimuli_distractor_diamondtriangles.svg	stimuli_target_diamondsquares.svg	32	yes	53	1	91
6.6.1	win	2022-12-25	19:40:44	19:47:48	423406	5fcbe82a12a0c80009d6e9cf	877994248	1	main_slash	11	advance_on_keypress_SLASH	110	stimuli_distractor_diamondtriangles.svg	stimuli_target_diamondsquares.svg	32	yes	57	0	311
6.6.1	win	2022-12-25	19:40:44	19:47:49	424459	5fcbe82a12a0c80009d6e9cf	877994248	1	main_slash	11	main_slash	111	stimuli_target_diamondsquares.svg	stimuli_distractor_diamondtriangles.svg	24	yes	53	1	126
6.6.1	win	2022-12-25	19:40:44	19:47:49	424459	5fcbe82a12a0c80009d6e9cf	877994248	1	main_slash	11	advance_on_keypress_SLASH	112	stimuli_target_diamondsquares.svg	stimuli_distractor_diamondtriangles.svg	24	yes	57	0	244
6.6.1	win	2022-12-25	19:40:44	19:47:50	425434	5fcbe82a12a0c80009d6e9cf	877994248	1	main_slash	11	main_slash	113	stimuli_distractor_diamondtriangles.svg	stimuli_distractor_diamondtriangles.svg	40	no	53	0	110
6.6.1	win	2022-12-25	19:40:44	19:47:50	425434	5fcbe82a12a0c80009d6e9cf	877994248	1	main_slash	11	advance_on_keypress_SLASH	114	stimuli_distractor_diamondtriangles.svg	stimuli_distractor_diamondtriangles.svg	40	no	57	0	243
6.6.1	win	2022-12-25	19:40:44	19:47:51	426402	5fcbe82a12a0c80009d6e9cf	877994248	1	main_slash	11	main_slash	115	stimuli_distractor_trianglediamonds.svg	stimuli_distractor_trianglediamonds.svg	34	no	53	0	110
6.6.1	win	2022-12-25	19:40:44	19:47:51	426402	5fcbe82a12a0c80009d6e9cf	877994248	1	main_slash	11	advance_on_keypress_SLASH	116	stimuli_distractor_trianglediamonds.svg	stimuli_distractor_trianglediamonds.svg	34	no	57	0	267
6.6.1	win	2022-12-25	19:40:44	19:47:52	427419	5fcbe82a12a0c80009d6e9cf	877994248	1	main_slash	11	main_slash	117	stimuli_distractor_trianglediamonds.svg	stimuli_target_squaretriangles.svg	11	yes	53	1	138
6.6.1	win	2022-12-25	19:40:44	19:47:52	427419	5fcbe82a12a0c80009d6e9cf	877994248	1	main_slash	11	advance_on_keypress_SLASH	118	stimuli_distractor_trianglediamonds.svg	stimuli_target_squaretriangles.svg	11	yes	57	0	230
6.6.1	win	2022-12-25	19:40:44	19:47:53	428367	5fcbe82a12a0c80009d6e9cf	877994248	1	main_slash	11	main_slash	119	stimuli_target_diamondcircles.svg	stimuli_distractor_diamondtriangles.svg	23	yes	53	1	102
6.6.1	win	2022-12-25	19:40:44	19:47:53	428367	5fcbe82a12a0c80009d6e9cf	877994248	1	main_slash	11	advance_on_keypress_SLASH	120	stimuli_target_diamondcircles.svg	stimuli_distractor_diamondtriangles.svg	23	yes	57	0	350
6.6.1	win	2022-12-25	19:40:44	19:47:54	429426	5fcbe82a12a0c80009d6e9cf	877994248	1	main_slash	11	main_slash	121	stimuli_distractor_trianglediamonds.svg	stimuli_distractor_trianglediamonds.svg	33	no	53	0	95
6.6.1	win	2022-12-25	19:40:44	19:47:54	429426	5fcbe82a12a0c80009d6e9cf	877994248	1	main_slash	11	advance_on_keypress_SLASH	122	stimuli_distractor_trianglediamonds.svg	stimuli_distractor_trianglediamonds.svg	33	no	57	0	283
6.6.1	win	2022-12-25	19:40:44	19:47:55	430426	5fcbe82a12a0c80009d6e9cf	877994248	1	main_slash	11	main_slash	123	stimuli_distractor_trianglediamonds.svg	stimuli_target_circletriangles.svg	9	yes	53	1	102
6.6.1	win	2022-12-25	19:40:44	19:47:55	430426	5fcbe82a12a0c80009d6e9cf	877994248	1	main_slash	11	advance_on_keypress_SLASH	124	stimuli_distractor_trianglediamonds.svg	stimuli_target_circletriangles.svg	9	yes	57	0	271
6.6.1	win	2022-12-25	19:40:44	19:47:56	431482	5fcbe82a12a0c80009d6e9cf	877994248	1	main_slash	11	main_slash	125	stimuli_distractor_diamondtriangles.svg	stimuli_target_circletriangles.svg	13	yes	53	1	177
6.6.1	win	2022-12-25	19:40:44	19:47:56	431482	5fcbe82a12a0c80009d6e9cf	877994248	1	main_slash	11	advance_on_keypress_SLASH	126	stimuli_distractor_diamondtriangles.svg	stimuli_target_circletriangles.svg	13	yes	57	0	219
6.6.1	win	2022-12-25	19:40:44	19:47:57	432466	5fcbe82a12a0c80009d6e9cf	877994248	1	main_slash	11	main_slash	127	stimuli_distractor_trianglediamonds.svg	stimuli_target_diamondsquares.svg	28	yes	53	1	156
6.6.1	win	2022-12-25	19:40:44	19:47:57	432466	5fcbe82a12a0c80009d6e9cf	877994248	1	main_slash	11	advance_on_keypress_SLASH	128	stimuli_distractor_trianglediamonds.svg	stimuli_target_diamondsquares.svg	28	yes	57	0	167
6.6.1	win	2022-12-25	19:40:44	19:47:58	433463	5fcbe82a12a0c80009d6e9cf	877994248	1	main_slash	11	main_slash	129	stimuli_distractor_diamondtriangles.svg	stimuli_target_squaretriangles.svg	15	yes	53	1	217
6.6.1	win	2022-12-25	19:40:44	19:47:58	433463	5fcbe82a12a0c80009d6e9cf	877994248	1	main_slash	11	advance_on_keypress_SLASH	130	stimuli_distractor_diamondtriangles.svg	stimuli_target_squaretriangles.svg	15	yes	57	0	198
6.6.1	win	2022-12-25	19:40:44	19:47:59	434446	5fcbe82a12a0c80009d6e9cf	877994248	1	main_slash	11	main_slash	131	stimuli_distractor_trianglediamonds.svg	stimuli_target_squarediamonds.svg	12	yes	53	1	176
6.6.1	win	2022-12-25	19:40:44	19:47:59	434446	5fcbe82a12a0c80009d6e9cf	877994248	1	main_slash	11	advance_on_keypress_SLASH	132	stimuli_distractor_trianglediamonds.svg	stimuli_target_squarediamonds.svg	12	yes	57	0	261
6.6.1	win	2022-12-25	19:40:44	19:48:00	435431	5fcbe82a12a0c80009d6e9cf	877994248	1	main_slash	11	main_slash	133	stimuli_distractor_diamondtriangles.svg	stimuli_distractor_trianglediamonds.svg	38	no	53	0	109
6.6.1	win	2022-12-25	19:40:44	19:48:00	435431	5fcbe82a12a0c80009d6e9cf	877994248	1	main_slash	11	advance_on_keypress_SLASH	134	stimuli_distractor_diamondtriangles.svg	stimuli_distractor_trianglediamonds.svg	38	no	57	0	274
6.6.1	win	2022-12-25	19:40:44	19:48:01	436434	5fcbe82a12a0c80009d6e9cf	877994248	1	main_slash	11	main_slash	135	stimuli_distractor_diamondtriangles.svg	stimuli_target_circlediamonds.svg	14	yes	53	1	121
6.6.1	win	2022-12-25	19:40:44	19:48:01	436434	5fcbe82a12a0c80009d6e9cf	877994248	1	main_slash	11	advance_on_keypress_SLASH	136	stimuli_distractor_diamondtriangles.svg	stimuli_target_circlediamonds.svg	14	yes	57	0	235
6.6.1	win	2022-12-25	19:40:44	19:48:02	437419	5fcbe82a12a0c80009d6e9cf	877994248	1	main_slash	11	main_slash	137	stimuli_distractor_trianglediamonds.svg	stimuli_distractor_diamondtriangles.svg	36	no	53	0	138
6.6.1	win	2022-12-25	19:40:44	19:48:02	437419	5fcbe82a12a0c80009d6e9cf	877994248	1	main_slash	11	advance_on_keypress_SLASH	138	stimuli_distractor_trianglediamonds.svg	stimuli_distractor_diamondtriangles.svg	36	no	57	0	250
6.6.1	win	2022-12-25	19:40:44	19:48:03	438458	5fcbe82a12a0c80009d6e9cf	877994248	1	main_slash	11	main_slash	139	stimuli_target_circletriangles.svg	stimuli_distractor_trianglediamonds.svg	1	yes	53	1	181
6.6.1	win	2022-12-25	19:40:44	19:48:03	438458	5fcbe82a12a0c80009d6e9cf	877994248	1	main_slash	11	advance_on_keypress_SLASH	140	stimuli_target_circletriangles.svg	stimuli_distractor_trianglediamonds.svg	1	yes	57	0	275
6.6.1	win	2022-12-25	19:40:44	19:48:04	439459	5fcbe82a12a0c80009d6e9cf	877994248	1	main_slash	11	main_slash	141	stimuli_distractor_trianglediamonds.svg	stimuli_distractor_diamondtriangles.svg	35	no	53	0	111
6.6.1	win	2022-12-25	19:40:44	19:48:04	439459	5fcbe82a12a0c80009d6e9cf	877994248	1	main_slash	11	advance_on_keypress_SLASH	142	stimuli_distractor_trianglediamonds.svg	stimuli_distractor_diamondtriangles.svg	35	no	57	0	302
6.6.1	win	2022-12-25	19:40:44	19:48:05	440498	5fcbe82a12a0c80009d6e9cf	877994248	1	main_slash	11	main_slash	143	stimuli_target_squarediamonds.svg	stimuli_distractor_trianglediamonds.svg	4	yes	53	1	122
6.6.1	win	2022-12-25	19:40:44	19:48:05	440498	5fcbe82a12a0c80009d6e9cf	877994248	1	main_slash	11	advance_on_keypress_SLASH	144	stimuli_target_squarediamonds.svg	stimuli_distractor_trianglediamonds.svg	4	yes	57	0	236
6.6.1	win	2022-12-25	19:40:44	19:48:06	441470	5fcbe82a12a0c80009d6e9cf	877994248	1	main_slash	11	main_slash	145	stimuli_target_trianglesquares.svg	stimuli_distractor_trianglediamonds.svg	18	yes	53	1	119
6.6.1	win	2022-12-25	19:40:44	19:48:06	441470	5fcbe82a12a0c80009d6e9cf	877994248	1	main_slash	11	advance_on_keypress_SLASH	146	stimuli_target_trianglesquares.svg	stimuli_distractor_trianglediamonds.svg	18	yes	57	0	159
6.6.1	win	2022-12-25	19:40:44	19:48:07	442370	5fcbe82a12a0c80009d6e9cf	877994248	1	main_slash	11	main_slash	147	stimuli_target_circlediamonds.svg	stimuli_distractor_trianglediamonds.svg	2	yes	53	1	133
6.6.1	win	2022-12-25	19:40:44	19:48:07	442370	5fcbe82a12a0c80009d6e9cf	877994248	1	main_slash	11	advance_on_keypress_SLASH	148	stimuli_target_circlediamonds.svg	stimuli_distractor_trianglediamonds.svg	2	yes	57	0	198
6.6.1	win	2022-12-25	19:40:44	19:48:08	443318	5fcbe82a12a0c80009d6e9cf	877994248	1	main_slash	11	main_slash	149	stimuli_distractor_diamondtriangles.svg	stimuli_target_diamondcircles.svg	31	yes	53	1	134
6.6.1	win	2022-12-25	19:40:44	19:48:08	443318	5fcbe82a12a0c80009d6e9cf	877994248	1	main_slash	11	advance_on_keypress_SLASH	150	stimuli_distractor_diamondtriangles.svg	stimuli_target_diamondcircles.svg	31	yes	57	0	355
6.6.1	win	2022-12-25	19:40:44	19:48:09	444351	5fcbe82a12a0c80009d6e9cf	877994248	1	main_slash	11	main_slash	151	stimuli_distractor_diamondtriangles.svg	stimuli_target_squarediamonds.svg	16	yes	53	1	60
6.6.1	win	2022-12-25	19:40:44	19:48:09	444351	5fcbe82a12a0c80009d6e9cf	877994248	1	main_slash	11	advance_on_keypress_SLASH	152	stimuli_distractor_diamondtriangles.svg	stimuli_target_squarediamonds.svg	16	yes	57	0	320
6.6.1	win	2022-12-25	19:40:44	19:48:10	445503	5fcbe82a12a0c80009d6e9cf	877994248	1	main_slash	11	main_slash	153	stimuli_target_trianglecircles.svg	stimuli_distractor_diamondtriangles.svg	21	yes	53	1	214
6.6.1	win	2022-12-25	19:40:44	19:48:10	445503	5fcbe82a12a0c80009d6e9cf	877994248	1	main_slash	11	advance_on_keypress_SLASH	154	stimuli_target_trianglecircles.svg	stimuli_distractor_diamondtriangles.svg	21	yes	57	0	474
6.6.1	win	2022-12-25	19:40:44	19:48:12	446742	5fcbe82a12a0c80009d6e9cf	877994248	1	main_slash	11	main_slash	155	stimuli_target_squarediamonds.svg	stimuli_distractor_diamondtriangles.svg	8	yes	53	1	157
6.6.1	win	2022-12-25	19:40:44	19:48:12	446742	5fcbe82a12a0c80009d6e9cf	877994248	1	main_slash	11	advance_on_keypress_SLASH	156	stimuli_target_squarediamonds.svg	stimuli_distractor_diamondtriangles.svg	8	yes	57	0	365
6.6.1	win	2022-12-25	19:40:44	19:48:13	447850	5fcbe82a12a0c80009d6e9cf	877994248	1	main_slash	11	main_slash	157	stimuli_target_squaretriangles.svg	stimuli_distractor_trianglediamonds.svg	3	yes	53	1	124
6.6.1	win	2022-12-25	19:40:44	19:48:13	447850	5fcbe82a12a0c80009d6e9cf	877994248	1	main_slash	11	advance_on_keypress_SLASH	158	stimuli_target_squaretriangles.svg	stimuli_distractor_trianglediamonds.svg	3	yes	57	0	591
6.6.1	win	2022-12-25	19:40:44	19:48:14	449163	5fcbe82a12a0c80009d6e9cf	877994248	1	main_slash	11	main_slash	159	stimuli_target_squaretriangles.svg	stimuli_distractor_diamondtriangles.svg	7	yes	53	1	112
6.6.1	win	2022-12-25	19:40:44	19:48:14	449163	5fcbe82a12a0c80009d6e9cf	877994248	1	main_slash	11	advance_on_keypress_SLASH	160	stimuli_target_squaretriangles.svg	stimuli_distractor_diamondtriangles.svg	7	yes	57	0	374