build	computer.platform	date	time	timestamp	time_elapsed_ms	subject	group	session	blockcode	blocknum	trialcode	trialnum	stimulus_left	stimulus_right	stim_index	target_present	response	correct	latency
6.6.1	win	2022-12-14	14:26:18	14:29:25	185349	5d4b265b72db9d0015e8aac6	374091998	1	practice_z	5	practice_z	1	stimuli_distractor_diamondtriangles.svg	stimuli_target_diamondcircles.svg	8	yes	0	0	2000
6.6.1	win	2022-12-14	14:26:18	14:29:25	185349	5d4b265b72db9d0015e8aac6	374091998	1	practice_z	5	advance_on_keypress_ZEE	2	stimuli_distractor_diamondtriangles.svg	stimuli_target_diamondcircles.svg	8	yes	57	0	839
6.6.1	win	2022-12-14	14:26:18	14:29:29	189020	5d4b265b72db9d0015e8aac6	374091998	1	practice_z	5	practice_z	3	stimuli_distractor_diamondtriangles.svg	stimuli_target_circletriangles.svg	7	yes	44	1	1187
6.6.1	win	2022-12-14	14:26:18	14:29:29	189020	5d4b265b72db9d0015e8aac6	374091998	1	practice_z	5	advance_on_keypress_ZEE	4	stimuli_distractor_diamondtriangles.svg	stimuli_target_circletriangles.svg	7	yes	57	0	419
6.6.1	win	2022-12-14	14:26:18	14:29:32	191979	5d4b265b72db9d0015e8aac6	374091998	1	practice_z	5	practice_z	5	stimuli_target_circlediamonds.svg	stimuli_distractor_diamondtriangles.svg	1	yes	44	1	897
6.6.1	win	2022-12-14	14:26:18	14:29:32	191979	5d4b265b72db9d0015e8aac6	374091998	1	practice_z	5	advance_on_keypress_ZEE	6	stimuli_target_circlediamonds.svg	stimuli_distractor_diamondtriangles.svg	1	yes	57	0	388
6.6.1	win	2022-12-14	14:26:18	14:29:36	196016	5d4b265b72db9d0015e8aac6	374091998	1	practice_z	5	practice_z	7	stimuli_distractor_trianglediamonds.svg	stimuli_distractor_diamondtriangles.svg	16	no	0	1	2000
6.6.1	win	2022-12-14	14:26:18	14:29:36	196016	5d4b265b72db9d0015e8aac6	374091998	1	practice_z	5	advance_on_keypress_ZEE	8	stimuli_distractor_trianglediamonds.svg	stimuli_distractor_diamondtriangles.svg	16	no	57	0	379
6.6.1	win	2022-12-14	14:26:18	14:29:39	198707	5d4b265b72db9d0015e8aac6	374091998	1	practice_z	5	practice_z	9	stimuli_target_squarediamonds.svg	stimuli_distractor_diamondtriangles.svg	2	yes	44	1	658
6.6.1	win	2022-12-14	14:26:18	14:29:39	198707	5d4b265b72db9d0015e8aac6	374091998	1	practice_z	5	advance_on_keypress_ZEE	10	stimuli_target_squarediamonds.svg	stimuli_distractor_diamondtriangles.svg	2	yes	57	0	440
6.6.1	win	2022-12-14	14:26:18	14:29:43	202782	5d4b265b72db9d0015e8aac6	374091998	1	practice_z	5	practice_z	11	stimuli_distractor_trianglediamonds.svg	stimuli_target_squarediamonds.svg	11	yes	0	0	2000
6.6.1	win	2022-12-14	14:26:18	14:29:43	202782	5d4b265b72db9d0015e8aac6	374091998	1	practice_z	5	advance_on_keypress_ZEE	12	stimuli_distractor_trianglediamonds.svg	stimuli_target_squarediamonds.svg	11	yes	57	0	340
6.6.1	win	2022-12-14	14:26:18	14:29:45	205571	5d4b265b72db9d0015e8aac6	374091998	1	practice_z	5	practice_z	13	stimuli_target_circlediamonds.svg	stimuli_distractor_trianglediamonds.svg	4	yes	44	1	806
6.6.1	win	2022-12-14	14:26:18	14:29:45	205571	5d4b265b72db9d0015e8aac6	374091998	1	practice_z	5	advance_on_keypress_ZEE	14	stimuli_target_circlediamonds.svg	stimuli_distractor_trianglediamonds.svg	4	yes	57	0	301
6.6.1	win	2022-12-14	14:26:18	14:29:48	208475	5d4b265b72db9d0015e8aac6	374091998	1	practice_z	5	practice_z	15	stimuli_distractor_trianglediamonds.svg	stimuli_target_circlediamonds.svg	10	yes	44	1	960
6.6.1	win	2022-12-14	14:26:18	14:29:48	208475	5d4b265b72db9d0015e8aac6	374091998	1	practice_z	5	advance_on_keypress_ZEE	16	stimuli_distractor_trianglediamonds.svg	stimuli_target_circlediamonds.svg	10	yes	57	0	273
6.6.1	win	2022-12-14	14:26:18	14:29:51	211187	5d4b265b72db9d0015e8aac6	374091998	1	practice_z	5	practice_z	17	stimuli_target_squarediamonds.svg	stimuli_distractor_trianglediamonds.svg	5	yes	44	1	788
6.6.1	win	2022-12-14	14:26:18	14:29:51	211187	5d4b265b72db9d0015e8aac6	374091998	1	practice_z	5	advance_on_keypress_ZEE	18	stimuli_target_squarediamonds.svg	stimuli_distractor_trianglediamonds.svg	5	yes	57	0	324
6.6.1	win	2022-12-14	14:26:18	14:29:54	214035	5d4b265b72db9d0015e8aac6	374091998	1	practice_z	5	practice_z	19	stimuli_target_diamondsquares.svg	stimuli_distractor_trianglediamonds.svg	6	yes	44	1	869
6.6.1	win	2022-12-14	14:26:18	14:29:54	214035	5d4b265b72db9d0015e8aac6	374091998	1	practice_z	5	advance_on_keypress_ZEE	20	stimuli_target_diamondsquares.svg	stimuli_distractor_trianglediamonds.svg	6	yes	57	0	242
6.6.1	win	2022-12-14	14:26:18	14:29:57	216707	5d4b265b72db9d0015e8aac6	374091998	1	practice_z	5	practice_z	21	stimuli_target_diamondsquares.svg	stimuli_distractor_diamondtriangles.svg	3	yes	44	1	793
6.6.1	win	2022-12-14	14:26:18	14:29:57	216707	5d4b265b72db9d0015e8aac6	374091998	1	practice_z	5	advance_on_keypress_ZEE	22	stimuli_target_diamondsquares.svg	stimuli_distractor_diamondtriangles.svg	3	yes	57	0	1032
6.6.1	win	2022-12-14	14:26:18	14:30:01	221382	5d4b265b72db9d0015e8aac6	374091998	1	practice_z	5	practice_z	23	stimuli_distractor_diamondtriangles.svg	stimuli_distractor_diamondtriangles.svg	13	no	0	1	2000
6.6.1	win	2022-12-14	14:26:18	14:30:01	221382	5d4b265b72db9d0015e8aac6	374091998	1	practice_z	5	advance_on_keypress_ZEE	24	stimuli_distractor_diamondtriangles.svg	stimuli_distractor_diamondtriangles.svg	13	no	57	0	44
6.6.1	win	2022-12-14	14:26:18	14:30:04	223947	5d4b265b72db9d0015e8aac6	374091998	1	practice_z	5	practice_z	25	stimuli_distractor_trianglediamonds.svg	stimuli_distractor_trianglediamonds.svg	15	no	44	0	882
6.6.1	win	2022-12-14	14:26:18	14:30:04	223947	5d4b265b72db9d0015e8aac6	374091998	1	practice_z	5	advance_on_keypress_ZEE	26	stimuli_distractor_trianglediamonds.svg	stimuli_distractor_trianglediamonds.svg	15	no	57	0	390
6.6.1	win	2022-12-14	14:26:18	14:30:07	226763	5d4b265b72db9d0015e8aac6	374091998	1	practice_z	5	practice_z	27	stimuli_distractor_diamondtriangles.svg	stimuli_target_trianglecircles.svg	9	yes	44	1	781
6.6.1	win	2022-12-14	14:26:18	14:30:07	226763	5d4b265b72db9d0015e8aac6	374091998	1	practice_z	5	advance_on_keypress_ZEE	28	stimuli_distractor_diamondtriangles.svg	stimuli_target_trianglecircles.svg	9	yes	57	0	334
6.6.1	win	2022-12-14	14:26:18	14:30:09	229547	5d4b265b72db9d0015e8aac6	374091998	1	practice_z	5	practice_z	29	stimuli_distractor_diamondtriangles.svg	stimuli_distractor_trianglediamonds.svg	14	no	44	0	798
6.6.1	win	2022-12-14	14:26:18	14:30:09	229547	5d4b265b72db9d0015e8aac6	374091998	1	practice_z	5	advance_on_keypress_ZEE	30	stimuli_distractor_diamondtriangles.svg	stimuli_distractor_trianglediamonds.svg	14	no	57	0	286
6.6.1	win	2022-12-14	14:26:18	14:30:12	232364	5d4b265b72db9d0015e8aac6	374091998	1	practice_z	5	practice_z	31	stimuli_distractor_trianglediamonds.svg	stimuli_target_diamondcircles.svg	12	yes	44	1	881
6.6.1	win	2022-12-14	14:26:18	14:30:12	232364	5d4b265b72db9d0015e8aac6	374091998	1	practice_z	5	advance_on_keypress_ZEE	32	stimuli_distractor_trianglediamonds.svg	stimuli_target_diamondcircles.svg	12	yes	57	0	317
6.6.1	win	2022-12-14	14:26:18	14:32:31	371497	5d4b265b72db9d0015e8aac6	374091998	1	main_z	7	main_z	1	stimuli_target_trianglesquares.svg	stimuli_distractor_diamondtriangles.svg	22	yes	0	0	2000
6.6.1	win	2022-12-14	14:26:18	14:32:31	371497	5d4b265b72db9d0015e8aac6	374091998	1	main_z	7	advance_on_keypress_ZEE	2	stimuli_target_trianglesquares.svg	stimuli_distractor_diamondtriangles.svg	22	yes	57	0	1663
6.6.1	win	2022-12-14	14:26:18	14:32:36	375813	5d4b265b72db9d0015e8aac6	374091998	1	main_z	7	main_z	3	stimuli_distractor_diamondtriangles.svg	stimuli_distractor_diamondtriangles.svg	39	no	0	1	2000
6.6.1	win	2022-12-14	14:26:18	14:32:36	375813	5d4b265b72db9d0015e8aac6	374091998	1	main_z	7	advance_on_keypress_ZEE	4	stimuli_distractor_diamondtriangles.svg	stimuli_distractor_diamondtriangles.svg	39	no	57	0	475
6.6.1	win	2022-12-14	14:26:18	14:32:38	377673	5d4b265b72db9d0015e8aac6	374091998	1	main_z	7	main_z	5	stimuli_distractor_diamondtriangles.svg	stimuli_distractor_trianglediamonds.svg	38	no	44	0	743
6.6.1	win	2022-12-14	14:26:18	14:32:38	377673	5d4b265b72db9d0015e8aac6	374091998	1	main_z	7	advance_on_keypress_ZEE	6	stimuli_distractor_diamondtriangles.svg	stimuli_distractor_trianglediamonds.svg	38	no	57	0	521
6.6.1	win	2022-12-14	14:26:18	14:32:39	379584	5d4b265b72db9d0015e8aac6	374091998	1	main_z	7	main_z	7	stimuli_distractor_trianglediamonds.svg	stimuli_target_circletriangles.svg	9	yes	44	1	755
6.6.1	win	2022-12-14	14:26:18	14:32:39	379584	5d4b265b72db9d0015e8aac6	374091998	1	main_z	7	advance_on_keypress_ZEE	8	stimuli_distractor_trianglediamonds.svg	stimuli_target_circletriangles.svg	9	yes	57	0	476
6.6.1	win	2022-12-14	14:26:18	14:32:41	381297	5d4b265b72db9d0015e8aac6	374091998	1	main_z	7	main_z	9	stimuli_target_squarediamonds.svg	stimuli_distractor_trianglediamonds.svg	4	yes	44	1	600
6.6.1	win	2022-12-14	14:26:18	14:32:41	381297	5d4b265b72db9d0015e8aac6	374091998	1	main_z	7	advance_on_keypress_ZEE	10	stimuli_target_squarediamonds.svg	stimuli_distractor_trianglediamonds.svg	4	yes	57	0	448
6.6.1	win	2022-12-14	14:26:18	14:32:43	383040	5d4b265b72db9d0015e8aac6	374091998	1	main_z	7	main_z	11	stimuli_distractor_diamondtriangles.svg	stimuli_target_circlediamonds.svg	14	yes	44	1	644
6.6.1	win	2022-12-14	14:26:18	14:32:43	383040	5d4b265b72db9d0015e8aac6	374091998	1	main_z	7	advance_on_keypress_ZEE	12	stimuli_distractor_diamondtriangles.svg	stimuli_target_circlediamonds.svg	14	yes	57	0	395
6.6.1	win	2022-12-14	14:26:18	14:32:45	384648	5d4b265b72db9d0015e8aac6	374091998	1	main_z	7	main_z	13	stimuli_distractor_trianglediamonds.svg	stimuli_target_circlediamonds.svg	10	yes	44	1	585
6.6.1	win	2022-12-14	14:26:18	14:32:45	384648	5d4b265b72db9d0015e8aac6	374091998	1	main_z	7	advance_on_keypress_ZEE	14	stimuli_distractor_trianglediamonds.svg	stimuli_target_circlediamonds.svg	10	yes	57	0	386
6.6.1	win	2022-12-14	14:26:18	14:32:48	387680	5d4b265b72db9d0015e8aac6	374091998	1	main_z	7	main_z	15	stimuli_distractor_diamondtriangles.svg	stimuli_distractor_diamondtriangles.svg	40	no	0	1	2000
6.6.1	win	2022-12-14	14:26:18	14:32:48	387680	5d4b265b72db9d0015e8aac6	374091998	1	main_z	7	advance_on_keypress_ZEE	16	stimuli_distractor_diamondtriangles.svg	stimuli_distractor_diamondtriangles.svg	40	no	57	0	448
6.6.1	win	2022-12-14	14:26:18	14:32:49	389593	5d4b265b72db9d0015e8aac6	374091998	1	main_z	7	main_z	17	stimuli_distractor_trianglediamonds.svg	stimuli_target_squaretriangles.svg	11	yes	44	1	813
6.6.1	win	2022-12-14	14:26:18	14:32:49	389593	5d4b265b72db9d0015e8aac6	374091998	1	main_z	7	advance_on_keypress_ZEE	18	stimuli_distractor_trianglediamonds.svg	stimuli_target_squaretriangles.svg	11	yes	57	0	355
6.6.1	win	2022-12-14	14:26:18	14:32:51	391192	5d4b265b72db9d0015e8aac6	374091998	1	main_z	7	main_z	19	stimuli_distractor_diamondtriangles.svg	stimuli_target_diamondcircles.svg	31	yes	44	1	596
6.6.1	win	2022-12-14	14:26:18	14:32:51	391192	5d4b265b72db9d0015e8aac6	374091998	1	main_z	7	advance_on_keypress_ZEE	20	stimuli_distractor_diamondtriangles.svg	stimuli_target_diamondcircles.svg	31	yes	57	0	300
6.6.1	win	2022-12-14	14:26:18	14:32:53	392681	5d4b265b72db9d0015e8aac6	374091998	1	main_z	7	main_z	21	stimuli_distractor_trianglediamonds.svg	stimuli_target_diamondcircles.svg	27	yes	44	1	534
6.6.1	win	2022-12-14	14:26:18	14:32:53	392681	5d4b265b72db9d0015e8aac6	374091998	1	main_z	7	advance_on_keypress_ZEE	22	stimuli_distractor_trianglediamonds.svg	stimuli_target_diamondcircles.svg	27	yes	57	0	352
6.6.1	win	2022-12-14	14:26:18	14:32:54	394273	5d4b265b72db9d0015e8aac6	374091998	1	main_z	7	main_z	23	stimuli_target_squaretriangles.svg	stimuli_distractor_trianglediamonds.svg	3	yes	44	1	593
6.6.1	win	2022-12-14	14:26:18	14:32:54	394273	5d4b265b72db9d0015e8aac6	374091998	1	main_z	7	advance_on_keypress_ZEE	24	stimuli_target_squaretriangles.svg	stimuli_distractor_trianglediamonds.svg	3	yes	57	0	297
6.6.1	win	2022-12-14	14:26:18	14:32:56	395833	5d4b265b72db9d0015e8aac6	374091998	1	main_z	7	main_z	25	stimuli_distractor_trianglediamonds.svg	stimuli_target_squarediamonds.svg	12	yes	44	1	620
6.6.1	win	2022-12-14	14:26:18	14:32:56	395833	5d4b265b72db9d0015e8aac6	374091998	1	main_z	7	advance_on_keypress_ZEE	26	stimuli_distractor_trianglediamonds.svg	stimuli_target_squarediamonds.svg	12	yes	57	0	322
6.6.1	win	2022-12-14	14:26:18	14:32:57	397360	5d4b265b72db9d0015e8aac6	374091998	1	main_z	7	main_z	27	stimuli_target_trianglecircles.svg	stimuli_distractor_diamondtriangles.svg	21	yes	44	1	564
6.6.1	win	2022-12-14	14:26:18	14:32:57	397360	5d4b265b72db9d0015e8aac6	374091998	1	main_z	7	advance_on_keypress_ZEE	28	stimuli_target_trianglecircles.svg	stimuli_distractor_diamondtriangles.svg	21	yes	57	0	261
6.6.1	win	2022-12-14	14:26:18	14:32:59	398969	5d4b265b72db9d0015e8aac6	374091998	1	main_z	7	main_z	29	stimuli_distractor_diamondtriangles.svg	stimuli_target_diamondsquares.svg	32	yes	44	1	705
6.6.1	win	2022-12-14	14:26:18	14:32:59	398969	5d4b265b72db9d0015e8aac6	374091998	1	main_z	7	advance_on_keypress_ZEE	30	stimuli_distractor_diamondtriangles.svg	stimuli_target_diamondsquares.svg	32	yes	57	0	301
6.6.1	win	2022-12-14	14:26:18	14:33:00	400481	5d4b265b72db9d0015e8aac6	374091998	1	main_z	7	main_z	31	stimuli_target_squarediamonds.svg	stimuli_distractor_diamondtriangles.svg	8	yes	44	1	568
6.6.1	win	2022-12-14	14:26:18	14:33:00	400481	5d4b265b72db9d0015e8aac6	374091998	1	main_z	7	advance_on_keypress_ZEE	32	stimuli_target_squarediamonds.svg	stimuli_distractor_diamondtriangles.svg	8	yes	57	0	224
6.6.1	win	2022-12-14	14:26:18	14:33:03	403346	5d4b265b72db9d0015e8aac6	374091998	1	main_z	7	main_z	33	stimuli_distractor_trianglediamonds.svg	stimuli_distractor_diamondtriangles.svg	36	no	0	1	2000
6.6.1	win	2022-12-14	14:26:18	14:33:03	403346	5d4b265b72db9d0015e8aac6	374091998	1	main_z	7	advance_on_keypress_ZEE	34	stimuli_distractor_trianglediamonds.svg	stimuli_distractor_diamondtriangles.svg	36	no	57	0	589
6.6.1	win	2022-12-14	14:26:18	14:33:05	405297	5d4b265b72db9d0015e8aac6	374091998	1	main_z	7	main_z	35	stimuli_target_trianglesquares.svg	stimuli_distractor_trianglediamonds.svg	18	yes	44	1	717
6.6.1	win	2022-12-14	14:26:18	14:33:05	405297	5d4b265b72db9d0015e8aac6	374091998	1	main_z	7	advance_on_keypress_ZEE	36	stimuli_target_trianglesquares.svg	stimuli_distractor_trianglediamonds.svg	18	yes	57	0	248
6.6.1	win	2022-12-14	14:26:18	14:33:07	406824	5d4b265b72db9d0015e8aac6	374091998	1	main_z	7	main_z	37	stimuli_target_diamondsquares.svg	stimuli_distractor_trianglediamonds.svg	20	yes	44	1	628
6.6.1	win	2022-12-14	14:26:18	14:33:07	406824	5d4b265b72db9d0015e8aac6	374091998	1	main_z	7	advance_on_keypress_ZEE	38	stimuli_target_diamondsquares.svg	stimuli_distractor_trianglediamonds.svg	20	yes	57	0	227
6.6.1	win	2022-12-14	14:26:18	14:33:08	408369	5d4b265b72db9d0015e8aac6	374091998	1	main_z	7	main_z	39	stimuli_distractor_diamondtriangles.svg	stimuli_target_trianglesquares.svg	30	yes	44	1	689
6.6.1	win	2022-12-14	14:26:18	14:33:08	408369	5d4b265b72db9d0015e8aac6	374091998	1	main_z	7	advance_on_keypress_ZEE	40	stimuli_distractor_diamondtriangles.svg	stimuli_target_trianglesquares.svg	30	yes	57	0	261
6.6.1	win	2022-12-14	14:26:18	14:33:11	411263	5d4b265b72db9d0015e8aac6	374091998	1	main_z	7	main_z	41	stimuli_distractor_trianglediamonds.svg	stimuli_distractor_trianglediamonds.svg	33	no	0	1	2000
6.6.1	win	2022-12-14	14:26:18	14:33:11	411263	5d4b265b72db9d0015e8aac6	374091998	1	main_z	7	advance_on_keypress_ZEE	42	stimuli_distractor_trianglediamonds.svg	stimuli_distractor_trianglediamonds.svg	33	no	57	0	409
6.6.1	win	2022-12-14	14:26:18	14:33:13	412897	5d4b265b72db9d0015e8aac6	374091998	1	main_z	7	main_z	43	stimuli_target_diamondcircles.svg	stimuli_distractor_trianglediamonds.svg	19	yes	44	1	584
6.6.1	win	2022-12-14	14:26:18	14:33:13	412897	5d4b265b72db9d0015e8aac6	374091998	1	main_z	7	advance_on_keypress_ZEE	44	stimuli_target_diamondcircles.svg	stimuli_distractor_trianglediamonds.svg	19	yes	57	0	231
6.6.1	win	2022-12-14	14:26:18	14:33:14	414329	5d4b265b72db9d0015e8aac6	374091998	1	main_z	7	main_z	45	stimuli_distractor_trianglediamonds.svg	stimuli_target_trianglecircles.svg	25	yes	44	1	549
6.6.1	win	2022-12-14	14:26:18	14:33:14	414329	5d4b265b72db9d0015e8aac6	374091998	1	main_z	7	advance_on_keypress_ZEE	46	stimuli_distractor_trianglediamonds.svg	stimuli_target_trianglecircles.svg	25	yes	57	0	198
6.6.1	win	2022-12-14	14:26:18	14:33:16	415849	5d4b265b72db9d0015e8aac6	374091998	1	main_z	7	main_z	47	stimuli_distractor_diamondtriangles.svg	stimuli_target_squaretriangles.svg	15	yes	44	1	669
6.6.1	win	2022-12-14	14:26:18	14:33:16	415849	5d4b265b72db9d0015e8aac6	374091998	1	main_z	7	advance_on_keypress_ZEE	48	stimuli_distractor_diamondtriangles.svg	stimuli_target_squaretriangles.svg	15	yes	57	0	281
6.6.1	win	2022-12-14	14:26:18	14:33:17	417361	5d4b265b72db9d0015e8aac6	374091998	1	main_z	7	main_z	49	stimuli_target_trianglecircles.svg	stimuli_distractor_trianglediamonds.svg	17	yes	44	1	581
6.6.1	win	2022-12-14	14:26:18	14:33:17	417361	5d4b265b72db9d0015e8aac6	374091998	1	main_z	7	advance_on_keypress_ZEE	50	stimuli_target_trianglecircles.svg	stimuli_distractor_trianglediamonds.svg	17	yes	57	0	269
6.6.1	win	2022-12-14	14:26:18	14:33:19	418953	5d4b265b72db9d0015e8aac6	374091998	1	main_z	7	main_z	51	stimuli_target_diamondsquares.svg	stimuli_distractor_diamondtriangles.svg	24	yes	44	1	673
6.6.1	win	2022-12-14	14:26:18	14:33:19	418953	5d4b265b72db9d0015e8aac6	374091998	1	main_z	7	advance_on_keypress_ZEE	52	stimuli_target_diamondsquares.svg	stimuli_distractor_diamondtriangles.svg	24	yes	57	0	221
6.6.1	win	2022-12-14	14:26:18	14:33:22	421813	5d4b265b72db9d0015e8aac6	374091998	1	main_z	7	main_z	53	stimuli_distractor_diamondtriangles.svg	stimuli_target_circletriangles.svg	13	yes	0	0	2000
6.6.1	win	2022-12-14	14:26:18	14:33:22	421813	5d4b265b72db9d0015e8aac6	374091998	1	main_z	7	advance_on_keypress_ZEE	54	stimuli_distractor_diamondtriangles.svg	stimuli_target_circletriangles.svg	13	yes	57	0	539
6.6.1	win	2022-12-14	14:26:18	14:33:23	423569	5d4b265b72db9d0015e8aac6	374091998	1	main_z	7	main_z	55	stimuli_target_circletriangles.svg	stimuli_distractor_trianglediamonds.svg	1	yes	44	1	572
6.6.1	win	2022-12-14	14:26:18	14:33:23	423569	5d4b265b72db9d0015e8aac6	374091998	1	main_z	7	advance_on_keypress_ZEE	56	stimuli_target_circletriangles.svg	stimuli_distractor_trianglediamonds.svg	1	yes	57	0	213
6.6.1	win	2022-12-14	14:26:18	14:33:25	425233	5d4b265b72db9d0015e8aac6	374091998	1	main_z	7	main_z	57	stimuli_distractor_trianglediamonds.svg	stimuli_distractor_trianglediamonds.svg	34	no	44	0	803
6.6.1	win	2022-12-14	14:26:18	14:33:25	425233	5d4b265b72db9d0015e8aac6	374091998	1	main_z	7	advance_on_keypress_ZEE	58	stimuli_distractor_trianglediamonds.svg	stimuli_distractor_trianglediamonds.svg	34	no	57	0	218
6.6.1	win	2022-12-14	14:26:18	14:33:28	428097	5d4b265b72db9d0015e8aac6	374091998	1	main_z	7	main_z	59	stimuli_distractor_diamondtriangles.svg	stimuli_distractor_trianglediamonds.svg	37	no	0	1	2000
6.6.1	win	2022-12-14	14:26:18	14:33:28	428097	5d4b265b72db9d0015e8aac6	374091998	1	main_z	7	advance_on_keypress_ZEE	60	stimuli_distractor_diamondtriangles.svg	stimuli_distractor_trianglediamonds.svg	37	no	57	0	416
6.6.1	win	2022-12-14	14:26:18	14:33:30	429713	5d4b265b72db9d0015e8aac6	374091998	1	main_z	7	main_z	61	stimuli_distractor_trianglediamonds.svg	stimuli_target_trianglesquares.svg	26	yes	44	1	549
6.6.1	win	2022-12-14	14:26:18	14:33:30	429713	5d4b265b72db9d0015e8aac6	374091998	1	main_z	7	advance_on_keypress_ZEE	62	stimuli_distractor_trianglediamonds.svg	stimuli_target_trianglesquares.svg	26	yes	57	0	199
6.6.1	win	2022-12-14	14:26:18	14:33:31	431145	5d4b265b72db9d0015e8aac6	374091998	1	main_z	7	main_z	63	stimuli_target_circlediamonds.svg	stimuli_distractor_trianglediamonds.svg	2	yes	44	1	581
6.6.1	win	2022-12-14	14:26:18	14:33:31	431145	5d4b265b72db9d0015e8aac6	374091998	1	main_z	7	advance_on_keypress_ZEE	64	stimuli_target_circlediamonds.svg	stimuli_distractor_trianglediamonds.svg	2	yes	57	0	221
6.6.1	win	2022-12-14	14:26:18	14:33:32	432593	5d4b265b72db9d0015e8aac6	374091998	1	main_z	7	main_z	65	stimuli_target_circletriangles.svg	stimuli_distractor_diamondtriangles.svg	5	yes	44	1	580
6.6.1	win	2022-12-14	14:26:18	14:33:32	432593	5d4b265b72db9d0015e8aac6	374091998	1	main_z	7	advance_on_keypress_ZEE	66	stimuli_target_circletriangles.svg	stimuli_distractor_diamondtriangles.svg	5	yes	57	0	187
6.6.1	win	2022-12-14	14:26:18	14:33:34	434072	5d4b265b72db9d0015e8aac6	374091998	1	main_z	7	main_z	67	stimuli_target_diamondcircles.svg	stimuli_distractor_diamondtriangles.svg	23	yes	44	1	643
6.6.1	win	2022-12-14	14:26:18	14:33:34	434072	5d4b265b72db9d0015e8aac6	374091998	1	main_z	7	advance_on_keypress_ZEE	68	stimuli_target_diamondcircles.svg	stimuli_distractor_diamondtriangles.svg	23	yes	57	0	217
6.6.1	win	2022-12-14	14:26:18	14:33:35	435609	5d4b265b72db9d0015e8aac6	374091998	1	main_z	7	main_z	69	stimuli_distractor_diamondtriangles.svg	stimuli_target_squarediamonds.svg	16	yes	44	1	679
6.6.1	win	2022-12-14	14:26:18	14:33:35	435609	5d4b265b72db9d0015e8aac6	374091998	1	main_z	7	advance_on_keypress_ZEE	70	stimuli_distractor_diamondtriangles.svg	stimuli_target_squarediamonds.svg	16	yes	57	0	203
6.6.1	win	2022-12-14	14:26:18	14:33:37	437033	5d4b265b72db9d0015e8aac6	374091998	1	main_z	7	main_z	71	stimuli_target_circlediamonds.svg	stimuli_distractor_diamondtriangles.svg	6	yes	44	1	569
6.6.1	win	2022-12-14	14:26:18	14:33:37	437033	5d4b265b72db9d0015e8aac6	374091998	1	main_z	7	advance_on_keypress_ZEE	72	stimuli_target_circlediamonds.svg	stimuli_distractor_diamondtriangles.svg	6	yes	57	0	186
6.6.1	win	2022-12-14	14:26:18	14:33:38	438497	5d4b265b72db9d0015e8aac6	374091998	1	main_z	7	main_z	73	stimuli_distractor_trianglediamonds.svg	stimuli_target_diamondsquares.svg	28	yes	44	1	633
6.6.1	win	2022-12-14	14:26:18	14:33:38	438497	5d4b265b72db9d0015e8aac6	374091998	1	main_z	7	advance_on_keypress_ZEE	74	stimuli_distractor_trianglediamonds.svg	stimuli_target_diamondsquares.svg	28	yes	57	0	224
6.6.1	win	2022-12-14	14:26:18	14:33:40	439985	5d4b265b72db9d0015e8aac6	374091998	1	main_z	7	main_z	75	stimuli_distractor_diamondtriangles.svg	stimuli_target_trianglecircles.svg	29	yes	44	1	622
6.6.1	win	2022-12-14	14:26:18	14:33:40	439985	5d4b265b72db9d0015e8aac6	374091998	1	main_z	7	advance_on_keypress_ZEE	76	stimuli_distractor_diamondtriangles.svg	stimuli_target_trianglecircles.svg	29	yes	57	0	236
6.6.1	win	2022-12-14	14:26:18	14:33:41	441512	5d4b265b72db9d0015e8aac6	374091998	1	main_z	7	main_z	77	stimuli_target_squaretriangles.svg	stimuli_distractor_diamondtriangles.svg	7	yes	44	1	649
6.6.1	win	2022-12-14	14:26:18	14:33:41	441512	5d4b265b72db9d0015e8aac6	374091998	1	main_z	7	advance_on_keypress_ZEE	78	stimuli_target_squaretriangles.svg	stimuli_distractor_diamondtriangles.svg	7	yes	57	0	215
6.6.1	win	2022-12-14	14:26:18	14:33:44	444380	5d4b265b72db9d0015e8aac6	374091998	1	main_z	7	main_z	79	stimuli_distractor_trianglediamonds.svg	stimuli_distractor_diamondtriangles.svg	35	no	0	1	2000
6.6.1	win	2022-12-14	14:26:18	14:33:44	444380	5d4b265b72db9d0015e8aac6	374091998	1	main_z	7	advance_on_keypress_ZEE	80	stimuli_distractor_trianglediamonds.svg	stimuli_distractor_diamondtriangles.svg	35	no	57	0	500
6.6.1	win	2022-12-14	14:26:18	14:33:46	446137	5d4b265b72db9d0015e8aac6	374091998	1	main_z	7	main_z	81	stimuli_distractor_trianglediamonds.svg	stimuli_target_circlediamonds.svg	10	yes	44	1	607
6.6.1	win	2022-12-14	14:26:18	14:33:46	446137	5d4b265b72db9d0015e8aac6	374091998	1	main_z	7	advance_on_keypress_ZEE	82	stimuli_distractor_trianglediamonds.svg	stimuli_target_circlediamonds.svg	10	yes	57	0	222
6.6.1	win	2022-12-14	14:26:18	14:33:47	447544	5d4b265b72db9d0015e8aac6	374091998	1	main_z	7	main_z	83	stimuli_target_diamondsquares.svg	stimuli_distractor_trianglediamonds.svg	20	yes	44	1	548
6.6.1	win	2022-12-14	14:26:18	14:33:47	447544	5d4b265b72db9d0015e8aac6	374091998	1	main_z	7	advance_on_keypress_ZEE	84	stimuli_target_diamondsquares.svg	stimuli_distractor_trianglediamonds.svg	20	yes	57	0	230
6.6.1	win	2022-12-14	14:26:18	14:33:49	448969	5d4b265b72db9d0015e8aac6	374091998	1	main_z	7	main_z	85	stimuli_distractor_diamondtriangles.svg	stimuli_target_circlediamonds.svg	14	yes	44	1	539
6.6.1	win	2022-12-14	14:26:18	14:33:49	448969	5d4b265b72db9d0015e8aac6	374091998	1	main_z	7	advance_on_keypress_ZEE	86	stimuli_distractor_diamondtriangles.svg	stimuli_target_circlediamonds.svg	14	yes	57	0	221
6.6.1	win	2022-12-14	14:26:18	14:33:50	450417	5d4b265b72db9d0015e8aac6	374091998	1	main_z	7	main_z	87	stimuli_target_diamondcircles.svg	stimuli_distractor_trianglediamonds.svg	19	yes	44	1	587
6.6.1	win	2022-12-14	14:26:18	14:33:50	450417	5d4b265b72db9d0015e8aac6	374091998	1	main_z	7	advance_on_keypress_ZEE	88	stimuli_target_diamondcircles.svg	stimuli_distractor_trianglediamonds.svg	19	yes	57	0	235
6.6.1	win	2022-12-14	14:26:18	14:33:52	451952	5d4b265b72db9d0015e8aac6	374091998	1	main_z	7	main_z	89	stimuli_distractor_diamondtriangles.svg	stimuli_target_circletriangles.svg	13	yes	44	1	656
6.6.1	win	2022-12-14	14:26:18	14:33:52	451952	5d4b265b72db9d0015e8aac6	374091998	1	main_z	7	advance_on_keypress_ZEE	90	stimuli_distractor_diamondtriangles.svg	stimuli_target_circletriangles.svg	13	yes	57	0	237
6.6.1	win	2022-12-14	14:26:18	14:33:53	453401	5d4b265b72db9d0015e8aac6	374091998	1	main_z	7	main_z	91	stimuli_distractor_trianglediamonds.svg	stimuli_target_diamondsquares.svg	28	yes	44	1	571
6.6.1	win	2022-12-14	14:26:18	14:33:53	453401	5d4b265b72db9d0015e8aac6	374091998	1	main_z	7	advance_on_keypress_ZEE	92	stimuli_distractor_trianglediamonds.svg	stimuli_target_diamondsquares.svg	28	yes	57	0	235
6.6.1	win	2022-12-14	14:26:18	14:33:55	454857	5d4b265b72db9d0015e8aac6	374091998	1	main_z	7	main_z	93	stimuli_target_diamondcircles.svg	stimuli_distractor_diamondtriangles.svg	23	yes	44	1	577
6.6.1	win	2022-12-14	14:26:18	14:33:55	454857	5d4b265b72db9d0015e8aac6	374091998	1	main_z	7	advance_on_keypress_ZEE	94	stimuli_target_diamondcircles.svg	stimuli_distractor_diamondtriangles.svg	23	yes	57	0	234
6.6.1	win	2022-12-14	14:26:18	14:33:56	456312	5d4b265b72db9d0015e8aac6	374091998	1	main_z	7	main_z	95	stimuli_distractor_diamondtriangles.svg	stimuli_target_trianglesquares.svg	30	yes	44	1	583
6.6.1	win	2022-12-14	14:26:18	14:33:56	456312	5d4b265b72db9d0015e8aac6	374091998	1	main_z	7	advance_on_keypress_ZEE	96	stimuli_distractor_diamondtriangles.svg	stimuli_target_trianglesquares.svg	30	yes	57	0	271
6.6.1	win	2022-12-14	14:26:18	14:33:58	457801	5d4b265b72db9d0015e8aac6	374091998	1	main_z	7	main_z	97	stimuli_distractor_diamondtriangles.svg	stimuli_target_squarediamonds.svg	16	yes	44	1	571
6.6.1	win	2022-12-14	14:26:18	14:33:58	457801	5d4b265b72db9d0015e8aac6	374091998	1	main_z	7	advance_on_keypress_ZEE	98	stimuli_distractor_diamondtriangles.svg	stimuli_target_squarediamonds.svg	16	yes	57	0	228
6.6.1	win	2022-12-14	14:26:18	14:33:59	459249	5d4b265b72db9d0015e8aac6	374091998	1	main_z	7	main_z	99	stimuli_target_circletriangles.svg	stimuli_distractor_diamondtriangles.svg	5	yes	44	1	585
6.6.1	win	2022-12-14	14:26:18	14:33:59	459249	5d4b265b72db9d0015e8aac6	374091998	1	main_z	7	advance_on_keypress_ZEE	100	stimuli_target_circletriangles.svg	stimuli_distractor_diamondtriangles.svg	5	yes	57	0	233
6.6.1	win	2022-12-14	14:26:18	14:34:01	460712	5d4b265b72db9d0015e8aac6	374091998	1	main_z	7	main_z	101	stimuli_distractor_trianglediamonds.svg	stimuli_target_diamondcircles.svg	27	yes	44	1	583
6.6.1	win	2022-12-14	14:26:18	14:34:01	460712	5d4b265b72db9d0015e8aac6	374091998	1	main_z	7	advance_on_keypress_ZEE	102	stimuli_distractor_trianglediamonds.svg	stimuli_target_diamondcircles.svg	27	yes	57	0	239
6.6.1	win	2022-12-14	14:26:18	14:34:02	462225	5d4b265b72db9d0015e8aac6	374091998	1	main_z	7	main_z	103	stimuli_target_circlediamonds.svg	stimuli_distractor_diamondtriangles.svg	6	yes	44	1	628
6.6.1	win	2022-12-14	14:26:18	14:34:02	462225	5d4b265b72db9d0015e8aac6	374091998	1	main_z	7	advance_on_keypress_ZEE	104	stimuli_target_circlediamonds.svg	stimuli_distractor_diamondtriangles.svg	6	yes	57	0	235
6.6.1	win	2022-12-14	14:26:18	14:34:04	463689	5d4b265b72db9d0015e8aac6	374091998	1	main_z	7	main_z	105	stimuli_distractor_trianglediamonds.svg	stimuli_target_trianglecircles.svg	25	yes	44	1	592
6.6.1	win	2022-12-14	14:26:18	14:34:04	463689	5d4b265b72db9d0015e8aac6	374091998	1	main_z	7	advance_on_keypress_ZEE	106	stimuli_distractor_trianglediamonds.svg	stimuli_target_trianglecircles.svg	25	yes	57	0	248
6.6.1	win	2022-12-14	14:26:18	14:34:05	465168	5d4b265b72db9d0015e8aac6	374091998	1	main_z	7	main_z	107	stimuli_distractor_diamondtriangles.svg	stimuli_target_diamondcircles.svg	31	yes	44	1	589
6.6.1	win	2022-12-14	14:26:18	14:34:05	465168	5d4b265b72db9d0015e8aac6	374091998	1	main_z	7	advance_on_keypress_ZEE	108	stimuli_distractor_diamondtriangles.svg	stimuli_target_diamondcircles.svg	31	yes	57	0	213
6.6.1	win	2022-12-14	14:26:18	14:34:07	466665	5d4b265b72db9d0015e8aac6	374091998	1	main_z	7	main_z	109	stimuli_target_squaretriangles.svg	stimuli_distractor_trianglediamonds.svg	3	yes	44	1	635
6.6.1	win	2022-12-14	14:26:18	14:34:07	466665	5d4b265b72db9d0015e8aac6	374091998	1	main_z	7	advance_on_keypress_ZEE	110	stimuli_target_squaretriangles.svg	stimuli_distractor_trianglediamonds.svg	3	yes	57	0	241
6.6.1	win	2022-12-14	14:26:18	14:34:08	468168	5d4b265b72db9d0015e8aac6	374091998	1	main_z	7	main_z	111	stimuli_target_circletriangles.svg	stimuli_distractor_trianglediamonds.svg	1	yes	44	1	622
6.6.1	win	2022-12-14	14:26:18	14:34:08	468168	5d4b265b72db9d0015e8aac6	374091998	1	main_z	7	advance_on_keypress_ZEE	112	stimuli_target_circletriangles.svg	stimuli_distractor_trianglediamonds.svg	1	yes	57	0	221
6.6.1	win	2022-12-14	14:26:18	14:34:10	469665	5d4b265b72db9d0015e8aac6	374091998	1	main_z	7	main_z	113	stimuli_target_circlediamonds.svg	stimuli_distractor_trianglediamonds.svg	2	yes	44	1	635
6.6.1	win	2022-12-14	14:26:18	14:34:10	469665	5d4b265b72db9d0015e8aac6	374091998	1	main_z	7	advance_on_keypress_ZEE	114	stimuli_target_circlediamonds.svg	stimuli_distractor_trianglediamonds.svg	2	yes	57	0	233
6.6.1	win	2022-12-14	14:26:18	14:34:12	472547	5d4b265b72db9d0015e8aac6	374091998	1	main_z	7	main_z	115	stimuli_distractor_trianglediamonds.svg	stimuli_distractor_trianglediamonds.svg	33	no	0	1	2000
6.6.1	win	2022-12-14	14:26:18	14:34:12	472547	5d4b265b72db9d0015e8aac6	374091998	1	main_z	7	advance_on_keypress_ZEE	116	stimuli_distractor_trianglediamonds.svg	stimuli_distractor_trianglediamonds.svg	33	no	57	0	445
6.6.1	win	2022-12-14	14:26:18	14:34:14	474232	5d4b265b72db9d0015e8aac6	374091998	1	main_z	7	main_z	117	stimuli_target_squarediamonds.svg	stimuli_distractor_trianglediamonds.svg	4	yes	44	1	586
6.6.1	win	2022-12-14	14:26:18	14:34:14	474232	5d4b265b72db9d0015e8aac6	374091998	1	main_z	7	advance_on_keypress_ZEE	118	stimuli_target_squarediamonds.svg	stimuli_distractor_trianglediamonds.svg	4	yes	57	0	266
6.6.1	win	2022-12-14	14:26:18	14:34:17	477146	5d4b265b72db9d0015e8aac6	374091998	1	main_z	7	main_z	119	stimuli_distractor_trianglediamonds.svg	stimuli_distractor_diamondtriangles.svg	36	no	0	1	2000
6.6.1	win	2022-12-14	14:26:18	14:34:17	477146	5d4b265b72db9d0015e8aac6	374091998	1	main_z	7	advance_on_keypress_ZEE	120	stimuli_distractor_trianglediamonds.svg	stimuli_distractor_diamondtriangles.svg	36	no	57	0	517
6.6.1	win	2022-12-14	14:26:18	14:34:19	478961	5d4b265b72db9d0015e8aac6	374091998	1	main_z	7	main_z	121	stimuli_distractor_trianglediamonds.svg	stimuli_target_squarediamonds.svg	12	yes	44	1	648
6.6.1	win	2022-12-14	14:26:18	14:34:19	478961	5d4b265b72db9d0015e8aac6	374091998	1	main_z	7	advance_on_keypress_ZEE	122	stimuli_distractor_trianglediamonds.svg	stimuli_target_squarediamonds.svg	12	yes	57	0	229
6.6.1	win	2022-12-14	14:26:18	14:34:22	481846	5d4b265b72db9d0015e8aac6	374091998	1	main_z	7	main_z	123	stimuli_distractor_trianglediamonds.svg	stimuli_distractor_trianglediamonds.svg	34	no	0	1	2000
6.6.1	win	2022-12-14	14:26:18	14:34:22	481846	5d4b265b72db9d0015e8aac6	374091998	1	main_z	7	advance_on_keypress_ZEE	124	stimuli_distractor_trianglediamonds.svg	stimuli_distractor_trianglediamonds.svg	34	no	57	0	393
6.6.1	win	2022-12-14	14:26:18	14:34:23	483504	5d4b265b72db9d0015e8aac6	374091998	1	main_z	7	main_z	125	stimuli_target_diamondsquares.svg	stimuli_distractor_diamondtriangles.svg	24	yes	44	1	625
6.6.1	win	2022-12-14	14:26:18	14:34:23	483504	5d4b265b72db9d0015e8aac6	374091998	1	main_z	7	advance_on_keypress_ZEE	126	stimuli_target_diamondsquares.svg	stimuli_distractor_diamondtriangles.svg	24	yes	57	0	232
6.6.1	win	2022-12-14	14:26:18	14:34:26	486380	5d4b265b72db9d0015e8aac6	374091998	1	main_z	7	main_z	127	stimuli_distractor_diamondtriangles.svg	stimuli_distractor_trianglediamonds.svg	38	no	0	1	2000
6.6.1	win	2022-12-14	14:26:18	14:34:26	486380	5d4b265b72db9d0015e8aac6	374091998	1	main_z	7	advance_on_keypress_ZEE	128	stimuli_distractor_diamondtriangles.svg	stimuli_distractor_trianglediamonds.svg	38	no	57	0	300
6.6.1	win	2022-12-14	14:26:18	14:34:29	489330	5d4b265b72db9d0015e8aac6	374091998	1	main_z	7	main_z	129	stimuli_distractor_diamondtriangles.svg	stimuli_distractor_diamondtriangles.svg	40	no	0	1	2000
6.6.1	win	2022-12-14	14:26:18	14:34:29	489330	5d4b265b72db9d0015e8aac6	374091998	1	main_z	7	advance_on_keypress_ZEE	130	stimuli_distractor_diamondtriangles.svg	stimuli_distractor_diamondtriangles.svg	40	no	57	0	358
6.6.1	win	2022-12-14	14:26:18	14:34:31	490992	5d4b265b72db9d0015e8aac6	374091998	1	main_z	7	main_z	131	stimuli_distractor_trianglediamonds.svg	stimuli_target_squaretriangles.svg	11	yes	44	1	646
6.6.1	win	2022-12-14	14:26:18	14:34:31	490992	5d4b265b72db9d0015e8aac6	374091998	1	main_z	7	advance_on_keypress_ZEE	132	stimuli_distractor_trianglediamonds.svg	stimuli_target_squaretriangles.svg	11	yes	57	0	196
6.6.1	win	2022-12-14	14:26:18	14:34:32	492440	5d4b265b72db9d0015e8aac6	374091998	1	main_z	7	main_z	133	stimuli_distractor_trianglediamonds.svg	stimuli_target_trianglesquares.svg	26	yes	44	1	594
6.6.1	win	2022-12-14	14:26:18	14:34:32	492440	5d4b265b72db9d0015e8aac6	374091998	1	main_z	7	advance_on_keypress_ZEE	134	stimuli_distractor_trianglediamonds.svg	stimuli_target_trianglesquares.svg	26	yes	57	0	226
6.6.1	win	2022-12-14	14:26:18	14:34:34	493897	5d4b265b72db9d0015e8aac6	374091998	1	main_z	7	main_z	135	stimuli_target_trianglecircles.svg	stimuli_distractor_trianglediamonds.svg	17	yes	44	1	600
6.6.1	win	2022-12-14	14:26:18	14:34:34	493897	5d4b265b72db9d0015e8aac6	374091998	1	main_z	7	advance_on_keypress_ZEE	136	stimuli_target_trianglecircles.svg	stimuli_distractor_trianglediamonds.svg	17	yes	57	0	215
6.6.1	win	2022-12-14	14:26:18	14:34:37	496763	5d4b265b72db9d0015e8aac6	374091998	1	main_z	7	main_z	137	stimuli_distractor_trianglediamonds.svg	stimuli_distractor_diamondtriangles.svg	35	no	0	1	2000
6.6.1	win	2022-12-14	14:26:18	14:34:37	496763	5d4b265b72db9d0015e8aac6	374091998	1	main_z	7	advance_on_keypress_ZEE	138	stimuli_distractor_trianglediamonds.svg	stimuli_distractor_diamondtriangles.svg	35	no	57	0	285
6.6.1	win	2022-12-14	14:26:18	14:34:38	498304	5d4b265b72db9d0015e8aac6	374091998	1	main_z	7	main_z	139	stimuli_target_trianglecircles.svg	stimuli_distractor_diamondtriangles.svg	21	yes	44	1	608
6.6.1	win	2022-12-14	14:26:18	14:34:38	498304	5d4b265b72db9d0015e8aac6	374091998	1	main_z	7	advance_on_keypress_ZEE	140	stimuli_target_trianglecircles.svg	stimuli_distractor_diamondtriangles.svg	21	yes	57	0	256
6.6.1	win	2022-12-14	14:26:18	14:34:40	499856	5d4b265b72db9d0015e8aac6	374091998	1	main_z	7	main_z	141	stimuli_target_trianglesquares.svg	stimuli_distractor_trianglediamonds.svg	18	yes	44	1	660
6.6.1	win	2022-12-14	14:26:18	14:34:40	499856	5d4b265b72db9d0015e8aac6	374091998	1	main_z	7	advance_on_keypress_ZEE	142	stimuli_target_trianglesquares.svg	stimuli_distractor_trianglediamonds.svg	18	yes	57	0	233
6.6.1	win	2022-12-14	14:26:18	14:34:41	501336	5d4b265b72db9d0015e8aac6	374091998	1	main_z	7	main_z	143	stimuli_distractor_diamondtriangles.svg	stimuli_target_diamondsquares.svg	32	yes	44	1	607
6.6.1	win	2022-12-14	14:26:18	14:34:41	501336	5d4b265b72db9d0015e8aac6	374091998	1	main_z	7	advance_on_keypress_ZEE	144	stimuli_distractor_diamondtriangles.svg	stimuli_target_diamondsquares.svg	32	yes	57	0	238
6.6.1	win	2022-12-14	14:26:18	14:34:43	502968	5d4b265b72db9d0015e8aac6	374091998	1	main_z	7	main_z	145	stimuli_distractor_diamondtriangles.svg	stimuli_distractor_trianglediamonds.svg	37	no	44	0	755
6.6.1	win	2022-12-14	14:26:18	14:34:43	502968	5d4b265b72db9d0015e8aac6	374091998	1	main_z	7	advance_on_keypress_ZEE	146	stimuli_distractor_diamondtriangles.svg	stimuli_distractor_trianglediamonds.svg	37	no	57	0	397
6.6.1	win	2022-12-14	14:26:18	14:34:45	504657	5d4b265b72db9d0015e8aac6	374091998	1	main_z	7	main_z	147	stimuli_distractor_diamondtriangles.svg	stimuli_target_trianglecircles.svg	29	yes	44	1	644
6.6.1	win	2022-12-14	14:26:18	14:34:45	504657	5d4b265b72db9d0015e8aac6	374091998	1	main_z	7	advance_on_keypress_ZEE	148	stimuli_distractor_diamondtriangles.svg	stimuli_target_trianglecircles.svg	29	yes	57	0	249
6.6.1	win	2022-12-14	14:26:18	14:34:46	506192	5d4b265b72db9d0015e8aac6	374091998	1	main_z	7	main_z	149	stimuli_target_squarediamonds.svg	stimuli_distractor_diamondtriangles.svg	8	yes	44	1	646
6.6.1	win	2022-12-14	14:26:18	14:34:46	506192	5d4b265b72db9d0015e8aac6	374091998	1	main_z	7	advance_on_keypress_ZEE	150	stimuli_target_squarediamonds.svg	stimuli_distractor_diamondtriangles.svg	8	yes	57	0	164
6.6.1	win	2022-12-14	14:26:18	14:34:49	509013	5d4b265b72db9d0015e8aac6	374091998	1	main_z	7	main_z	151	stimuli_distractor_diamondtriangles.svg	stimuli_target_squaretriangles.svg	15	yes	0	0	2000
6.6.1	win	2022-12-14	14:26:18	14:34:49	509013	5d4b265b72db9d0015e8aac6	374091998	1	main_z	7	advance_on_keypress_ZEE	152	stimuli_distractor_diamondtriangles.svg	stimuli_target_squaretriangles.svg	15	yes	57	0	595
6.6.1	win	2022-12-14	14:26:18	14:34:52	512246	5d4b265b72db9d0015e8aac6	374091998	1	main_z	7	main_z	153	stimuli_distractor_trianglediamonds.svg	stimuli_target_circletriangles.svg	9	yes	0	0	2000
6.6.1	win	2022-12-14	14:26:18	14:34:52	512246	5d4b265b72db9d0015e8aac6	374091998	1	main_z	7	advance_on_keypress_ZEE	154	stimuli_distractor_trianglediamonds.svg	stimuli_target_circletriangles.svg	9	yes	57	0	473
6.6.1	win	2022-12-14	14:26:18	14:34:54	514008	5d4b265b72db9d0015e8aac6	374091998	1	main_z	7	main_z	155	stimuli_target_squaretriangles.svg	stimuli_distractor_diamondtriangles.svg	7	yes	44	1	646
6.6.1	win	2022-12-14	14:26:18	14:34:54	514008	5d4b265b72db9d0015e8aac6	374091998	1	main_z	7	advance_on_keypress_ZEE	156	stimuli_target_squaretriangles.svg	stimuli_distractor_diamondtriangles.svg	7	yes	57	0	211
6.6.1	win	2022-12-14	14:26:18	14:34:57	516846	5d4b265b72db9d0015e8aac6	374091998	1	main_z	7	main_z	157	stimuli_distractor_diamondtriangles.svg	stimuli_distractor_diamondtriangles.svg	39	no	0	1	2000
6.6.1	win	2022-12-14	14:26:18	14:34:57	516846	5d4b265b72db9d0015e8aac6	374091998	1	main_z	7	advance_on_keypress_ZEE	158	stimuli_distractor_diamondtriangles.svg	stimuli_distractor_diamondtriangles.svg	39	no	57	0	377
6.6.1	win	2022-12-14	14:26:18	14:34:58	518497	5d4b265b72db9d0015e8aac6	374091998	1	main_z	7	main_z	159	stimuli_target_trianglesquares.svg	stimuli_distractor_diamondtriangles.svg	22	yes	44	1	633
6.6.1	win	2022-12-14	14:26:18	14:34:58	518497	5d4b265b72db9d0015e8aac6	374091998	1	main_z	7	advance_on_keypress_ZEE	160	stimuli_target_trianglesquares.svg	stimuli_distractor_diamondtriangles.svg	22	yes	57	0	215
6.6.1	win	2022-12-14	14:26:18	14:35:28	548068	5d4b265b72db9d0015e8aac6	374091998	1	practice_slash	9	practice_slash	1	stimuli_distractor_trianglediamonds.svg	stimuli_target_diamondcircles.svg	12	yes	53	1	818
6.6.1	win	2022-12-14	14:26:18	14:35:28	548068	5d4b265b72db9d0015e8aac6	374091998	1	practice_slash	9	advance_on_keypress_SLASH	2	stimuli_distractor_trianglediamonds.svg	stimuli_target_diamondcircles.svg	12	yes	57	0	641
6.6.1	win	2022-12-14	14:26:18	14:35:31	551611	5d4b265b72db9d0015e8aac6	374091998	1	practice_slash	9	practice_slash	3	stimuli_distractor_diamondtriangles.svg	stimuli_target_circletriangles.svg	7	yes	53	1	1262
6.6.1	win	2022-12-14	14:26:18	14:35:31	551611	5d4b265b72db9d0015e8aac6	374091998	1	practice_slash	9	advance_on_keypress_SLASH	4	stimuli_distractor_diamondtriangles.svg	stimuli_target_circletriangles.svg	7	yes	57	0	427
6.6.1	win	2022-12-14	14:26:18	14:35:34	554347	5d4b265b72db9d0015e8aac6	374091998	1	practice_slash	9	practice_slash	5	stimuli_target_circlediamonds.svg	stimuli_distractor_trianglediamonds.svg	4	yes	53	1	665
6.6.1	win	2022-12-14	14:26:18	14:35:34	554347	5d4b265b72db9d0015e8aac6	374091998	1	practice_slash	9	advance_on_keypress_SLASH	6	stimuli_target_circlediamonds.svg	stimuli_distractor_trianglediamonds.svg	4	yes	57	0	390
6.6.1	win	2022-12-14	14:26:18	14:35:37	556971	5d4b265b72db9d0015e8aac6	374091998	1	practice_slash	9	practice_slash	7	stimuli_target_squarediamonds.svg	stimuli_distractor_diamondtriangles.svg	2	yes	53	1	589
6.6.1	win	2022-12-14	14:26:18	14:35:37	556971	5d4b265b72db9d0015e8aac6	374091998	1	practice_slash	9	advance_on_keypress_SLASH	8	stimuli_target_squarediamonds.svg	stimuli_distractor_diamondtriangles.svg	2	yes	57	0	389
6.6.1	win	2022-12-14	14:26:18	14:35:41	560999	5d4b265b72db9d0015e8aac6	374091998	1	practice_slash	9	practice_slash	9	stimuli_distractor_trianglediamonds.svg	stimuli_distractor_trianglediamonds.svg	15	no	0	1	2000
6.6.1	win	2022-12-14	14:26:18	14:35:41	560999	5d4b265b72db9d0015e8aac6	374091998	1	practice_slash	9	advance_on_keypress_SLASH	10	stimuli_distractor_trianglediamonds.svg	stimuli_distractor_trianglediamonds.svg	15	no	57	0	332
6.6.1	win	2022-12-14	14:26:18	14:35:45	564983	5d4b265b72db9d0015e8aac6	374091998	1	practice_slash	9	practice_slash	11	stimuli_distractor_trianglediamonds.svg	stimuli_distractor_diamondtriangles.svg	16	no	0	1	2000
6.6.1	win	2022-12-14	14:26:18	14:35:45	564983	5d4b265b72db9d0015e8aac6	374091998	1	practice_slash	9	advance_on_keypress_SLASH	12	stimuli_distractor_trianglediamonds.svg	stimuli_distractor_diamondtriangles.svg	16	no	57	0	180
6.6.1	win	2022-12-14	14:26:18	14:35:47	567459	5d4b265b72db9d0015e8aac6	374091998	1	practice_slash	9	practice_slash	13	stimuli_distractor_diamondtriangles.svg	stimuli_target_diamondcircles.svg	8	yes	53	1	644
6.6.1	win	2022-12-14	14:26:18	14:35:47	567459	5d4b265b72db9d0015e8aac6	374091998	1	practice_slash	9	advance_on_keypress_SLASH	14	stimuli_distractor_diamondtriangles.svg	stimuli_target_diamondcircles.svg	8	yes	57	0	401
6.6.1	win	2022-12-14	14:26:18	14:35:50	570164	5d4b265b72db9d0015e8aac6	374091998	1	practice_slash	9	practice_slash	15	stimuli_target_diamondsquares.svg	stimuli_distractor_diamondtriangles.svg	3	yes	53	1	648
6.6.1	win	2022-12-14	14:26:18	14:35:50	570164	5d4b265b72db9d0015e8aac6	374091998	1	practice_slash	9	advance_on_keypress_SLASH	16	stimuli_target_diamondsquares.svg	stimuli_distractor_diamondtriangles.svg	3	yes	57	0	413
6.6.1	win	2022-12-14	14:26:18	14:35:53	572891	5d4b265b72db9d0015e8aac6	374091998	1	practice_slash	9	practice_slash	17	stimuli_distractor_diamondtriangles.svg	stimuli_target_trianglecircles.svg	9	yes	53	1	659
6.6.1	win	2022-12-14	14:26:18	14:35:53	572891	5d4b265b72db9d0015e8aac6	374091998	1	practice_slash	9	advance_on_keypress_SLASH	18	stimuli_distractor_diamondtriangles.svg	stimuli_target_trianglecircles.svg	9	yes	57	0	360
6.6.1	win	2022-12-14	14:26:18	14:35:55	575611	5d4b265b72db9d0015e8aac6	374091998	1	practice_slash	9	practice_slash	19	stimuli_distractor_trianglediamonds.svg	stimuli_target_circlediamonds.svg	10	yes	53	1	729
6.6.1	win	2022-12-14	14:26:18	14:35:55	575611	5d4b265b72db9d0015e8aac6	374091998	1	practice_slash	9	advance_on_keypress_SLASH	20	stimuli_distractor_trianglediamonds.svg	stimuli_target_circlediamonds.svg	10	yes	57	0	483
6.6.1	win	2022-12-14	14:26:18	14:35:58	578428	5d4b265b72db9d0015e8aac6	374091998	1	practice_slash	9	practice_slash	21	stimuli_target_squarediamonds.svg	stimuli_distractor_trianglediamonds.svg	5	yes	53	1	678
6.6.1	win	2022-12-14	14:26:18	14:35:58	578428	5d4b265b72db9d0015e8aac6	374091998	1	practice_slash	9	advance_on_keypress_SLASH	22	stimuli_target_squarediamonds.svg	stimuli_distractor_trianglediamonds.svg	5	yes	57	0	426
6.6.1	win	2022-12-14	14:26:18	14:36:01	581163	5d4b265b72db9d0015e8aac6	374091998	1	practice_slash	9	practice_slash	23	stimuli_target_circlediamonds.svg	stimuli_distractor_diamondtriangles.svg	1	yes	53	1	664
6.6.1	win	2022-12-14	14:26:18	14:36:01	581163	5d4b265b72db9d0015e8aac6	374091998	1	practice_slash	9	advance_on_keypress_SLASH	24	stimuli_target_circlediamonds.svg	stimuli_distractor_diamondtriangles.svg	1	yes	57	0	365
6.6.1	win	2022-12-14	14:26:18	14:36:04	583891	5d4b265b72db9d0015e8aac6	374091998	1	practice_slash	9	practice_slash	25	stimuli_distractor_trianglediamonds.svg	stimuli_target_squarediamonds.svg	11	yes	53	1	709
6.6.1	win	2022-12-14	14:26:18	14:36:04	583891	5d4b265b72db9d0015e8aac6	374091998	1	practice_slash	9	advance_on_keypress_SLASH	26	stimuli_distractor_trianglediamonds.svg	stimuli_target_squarediamonds.svg	11	yes	57	0	328
6.6.1	win	2022-12-14	14:26:18	14:36:08	587865	5d4b265b72db9d0015e8aac6	374091998	1	practice_slash	9	practice_slash	27	stimuli_distractor_diamondtriangles.svg	stimuli_distractor_trianglediamonds.svg	14	no	0	1	2000
6.6.1	win	2022-12-14	14:26:18	14:36:08	587865	5d4b265b72db9d0015e8aac6	374091998	1	practice_slash	9	advance_on_keypress_SLASH	28	stimuli_distractor_diamondtriangles.svg	stimuli_distractor_trianglediamonds.svg	14	no	57	0	265
6.6.1	win	2022-12-14	14:26:18	14:36:12	591782	5d4b265b72db9d0015e8aac6	374091998	1	practice_slash	9	practice_slash	29	stimuli_distractor_diamondtriangles.svg	stimuli_distractor_diamondtriangles.svg	13	no	0	1	2000
6.6.1	win	2022-12-14	14:26:18	14:36:12	591782	5d4b265b72db9d0015e8aac6	374091998	1	practice_slash	9	advance_on_keypress_SLASH	30	stimuli_distractor_diamondtriangles.svg	stimuli_distractor_diamondtriangles.svg	13	no	57	0	204
6.6.1	win	2022-12-14	14:26:18	14:36:14	594371	5d4b265b72db9d0015e8aac6	374091998	1	practice_slash	9	practice_slash	31	stimuli_target_diamondsquares.svg	stimuli_distractor_trianglediamonds.svg	6	yes	53	1	739
6.6.1	win	2022-12-14	14:26:18	14:36:14	594371	5d4b265b72db9d0015e8aac6	374091998	1	practice_slash	9	advance_on_keypress_SLASH	32	stimuli_target_diamondsquares.svg	stimuli_distractor_trianglediamonds.svg	6	yes	57	0	389
6.6.1	win	2022-12-14	14:26:18	14:36:21	601025	5d4b265b72db9d0015e8aac6	374091998	1	main_slash	11	main_slash	1	stimuli_target_trianglecircles.svg	stimuli_distractor_trianglediamonds.svg	17	yes	53	1	1412
6.6.1	win	2022-12-14	14:26:18	14:36:21	601025	5d4b265b72db9d0015e8aac6	374091998	1	main_slash	11	advance_on_keypress_SLASH	2	stimuli_target_trianglecircles.svg	stimuli_distractor_trianglediamonds.svg	17	yes	57	0	1234
6.6.1	win	2022-12-14	14:26:18	14:36:25	604913	5d4b265b72db9d0015e8aac6	374091998	1	main_slash	11	main_slash	3	stimuli_distractor_trianglediamonds.svg	stimuli_distractor_trianglediamonds.svg	33	no	0	1	2000
6.6.1	win	2022-12-14	14:26:18	14:36:25	604913	5d4b265b72db9d0015e8aac6	374091998	1	main_slash	11	advance_on_keypress_SLASH	4	stimuli_distractor_trianglediamonds.svg	stimuli_distractor_trianglediamonds.svg	33	no	57	0	751
6.6.1	win	2022-12-14	14:26:18	14:36:27	607120	5d4b265b72db9d0015e8aac6	374091998	1	main_slash	11	main_slash	5	stimuli_target_squaretriangles.svg	stimuli_distractor_trianglediamonds.svg	3	yes	53	1	808
6.6.1	win	2022-12-14	14:26:18	14:36:27	607120	5d4b265b72db9d0015e8aac6	374091998	1	main_slash	11	advance_on_keypress_SLASH	6	stimuli_target_squaretriangles.svg	stimuli_distractor_trianglediamonds.svg	3	yes	57	0	679
6.6.1	win	2022-12-14	14:26:18	14:36:30	610446	5d4b265b72db9d0015e8aac6	374091998	1	main_slash	11	main_slash	7	stimuli_distractor_diamondtriangles.svg	stimuli_distractor_trianglediamonds.svg	38	no	0	1	2000
6.6.1	win	2022-12-14	14:26:18	14:36:30	610446	5d4b265b72db9d0015e8aac6	374091998	1	main_slash	11	advance_on_keypress_SLASH	8	stimuli_distractor_diamondtriangles.svg	stimuli_distractor_trianglediamonds.svg	38	no	57	0	393
6.6.1	win	2022-12-14	14:26:18	14:36:32	612200	5d4b265b72db9d0015e8aac6	374091998	1	main_slash	11	main_slash	9	stimuli_distractor_diamondtriangles.svg	stimuli_target_trianglecircles.svg	29	yes	53	1	721
6.6.1	win	2022-12-14	14:26:18	14:36:32	612200	5d4b265b72db9d0015e8aac6	374091998	1	main_slash	11	advance_on_keypress_SLASH	10	stimuli_distractor_diamondtriangles.svg	stimuli_target_trianglecircles.svg	29	yes	57	0	627
6.6.1	win	2022-12-14	14:26:18	14:36:34	614257	5d4b265b72db9d0015e8aac6	374091998	1	main_slash	11	main_slash	11	stimuli_distractor_trianglediamonds.svg	stimuli_target_trianglecircles.svg	25	yes	53	1	793
6.6.1	win	2022-12-14	14:26:18	14:36:34	614257	5d4b265b72db9d0015e8aac6	374091998	1	main_slash	11	advance_on_keypress_SLASH	12	stimuli_distractor_trianglediamonds.svg	stimuli_target_trianglecircles.svg	25	yes	57	0	529
6.6.1	win	2022-12-14	14:26:18	14:36:36	616305	5d4b265b72db9d0015e8aac6	374091998	1	main_slash	11	main_slash	13	stimuli_distractor_trianglediamonds.svg	stimuli_target_circletriangles.svg	9	yes	53	1	875
6.6.1	win	2022-12-14	14:26:18	14:36:36	616305	5d4b265b72db9d0015e8aac6	374091998	1	main_slash	11	advance_on_keypress_SLASH	14	stimuli_distractor_trianglediamonds.svg	stimuli_target_circletriangles.svg	9	yes	57	0	512
6.6.1	win	2022-12-14	14:26:18	14:36:38	618376	5d4b265b72db9d0015e8aac6	374091998	1	main_slash	11	main_slash	15	stimuli_distractor_diamondtriangles.svg	stimuli_target_squaretriangles.svg	15	yes	53	1	930
6.6.1	win	2022-12-14	14:26:18	14:36:38	618376	5d4b265b72db9d0015e8aac6	374091998	1	main_slash	11	advance_on_keypress_SLASH	16	stimuli_distractor_diamondtriangles.svg	stimuli_target_squaretriangles.svg	15	yes	57	0	468
6.6.1	win	2022-12-14	14:26:18	14:36:40	620377	5d4b265b72db9d0015e8aac6	374091998	1	main_slash	11	main_slash	17	stimuli_distractor_trianglediamonds.svg	stimuli_target_diamondcircles.svg	27	yes	53	1	880
6.6.1	win	2022-12-14	14:26:18	14:36:40	620377	5d4b265b72db9d0015e8aac6	374091998	1	main_slash	11	advance_on_keypress_SLASH	18	stimuli_distractor_trianglediamonds.svg	stimuli_target_diamondcircles.svg	27	yes	57	0	388
6.6.1	win	2022-12-14	14:26:18	14:36:43	623413	5d4b265b72db9d0015e8aac6	374091998	1	main_slash	11	main_slash	19	stimuli_distractor_diamondtriangles.svg	stimuli_distractor_diamondtriangles.svg	40	no	0	1	2000
6.6.1	win	2022-12-14	14:26:18	14:36:43	623413	5d4b265b72db9d0015e8aac6	374091998	1	main_slash	11	advance_on_keypress_SLASH	20	stimuli_distractor_diamondtriangles.svg	stimuli_distractor_diamondtriangles.svg	40	no	57	0	171
6.6.1	win	2022-12-14	14:26:18	14:36:45	624960	5d4b265b72db9d0015e8aac6	374091998	1	main_slash	11	main_slash	21	stimuli_target_diamondcircles.svg	stimuli_distractor_diamondtriangles.svg	23	yes	53	1	731
6.6.1	win	2022-12-14	14:26:18	14:36:45	624960	5d4b265b72db9d0015e8aac6	374091998	1	main_slash	11	advance_on_keypress_SLASH	22	stimuli_target_diamondcircles.svg	stimuli_distractor_diamondtriangles.svg	23	yes	57	0	381
6.6.1	win	2022-12-14	14:26:18	14:36:47	626864	5d4b265b72db9d0015e8aac6	374091998	1	main_slash	11	main_slash	23	stimuli_target_diamondsquares.svg	stimuli_distractor_trianglediamonds.svg	20	yes	53	1	868
6.6.1	win	2022-12-14	14:26:18	14:36:47	626864	5d4b265b72db9d0015e8aac6	374091998	1	main_slash	11	advance_on_keypress_SLASH	24	stimuli_target_diamondsquares.svg	stimuli_distractor_trianglediamonds.svg	20	yes	57	0	337
6.6.1	win	2022-12-14	14:26:18	14:36:49	628624	5d4b265b72db9d0015e8aac6	374091998	1	main_slash	11	main_slash	25	stimuli_target_circlediamonds.svg	stimuli_distractor_diamondtriangles.svg	6	yes	53	1	778
6.6.1	win	2022-12-14	14:26:18	14:36:49	628624	5d4b265b72db9d0015e8aac6	374091998	1	main_slash	11	advance_on_keypress_SLASH	26	stimuli_target_circlediamonds.svg	stimuli_distractor_diamondtriangles.svg	6	yes	57	0	307
6.6.1	win	2022-12-14	14:26:18	14:36:50	630328	5d4b265b72db9d0015e8aac6	374091998	1	main_slash	11	main_slash	27	stimuli_target_diamondsquares.svg	stimuli_distractor_diamondtriangles.svg	24	yes	53	1	766
6.6.1	win	2022-12-14	14:26:18	14:36:50	630328	5d4b265b72db9d0015e8aac6	374091998	1	main_slash	11	advance_on_keypress_SLASH	28	stimuli_target_diamondsquares.svg	stimuli_distractor_diamondtriangles.svg	24	yes	57	0	286
6.6.1	win	2022-12-14	14:26:18	14:36:52	631960	5d4b265b72db9d0015e8aac6	374091998	1	main_slash	11	main_slash	29	stimuli_distractor_diamondtriangles.svg	stimuli_target_diamondcircles.svg	31	yes	53	1	697
6.6.1	win	2022-12-14	14:26:18	14:36:52	631960	5d4b265b72db9d0015e8aac6	374091998	1	main_slash	11	advance_on_keypress_SLASH	30	stimuli_distractor_diamondtriangles.svg	stimuli_target_diamondcircles.svg	31	yes	57	0	349
6.6.1	win	2022-12-14	14:26:18	14:36:54	633648	5d4b265b72db9d0015e8aac6	374091998	1	main_slash	11	main_slash	31	stimuli_distractor_diamondtriangles.svg	stimuli_target_circlediamonds.svg	14	yes	53	1	685
6.6.1	win	2022-12-14	14:26:18	14:36:54	633648	5d4b265b72db9d0015e8aac6	374091998	1	main_slash	11	advance_on_keypress_SLASH	32	stimuli_distractor_diamondtriangles.svg	stimuli_target_circlediamonds.svg	14	yes	57	0	297
6.6.1	win	2022-12-14	14:26:18	14:36:55	635320	5d4b265b72db9d0015e8aac6	374091998	1	main_slash	11	main_slash	33	stimuli_target_squaretriangles.svg	stimuli_distractor_diamondtriangles.svg	7	yes	53	1	724
6.6.1	win	2022-12-14	14:26:18	14:36:55	635320	5d4b265b72db9d0015e8aac6	374091998	1	main_slash	11	advance_on_keypress_SLASH	34	stimuli_target_squaretriangles.svg	stimuli_distractor_diamondtriangles.svg	7	yes	57	0	287
6.6.1	win	2022-12-14	14:26:18	14:36:57	636944	5d4b265b72db9d0015e8aac6	374091998	1	main_slash	11	main_slash	35	stimuli_target_trianglecircles.svg	stimuli_distractor_diamondtriangles.svg	21	yes	53	1	698
6.6.1	win	2022-12-14	14:26:18	14:36:57	636944	5d4b265b72db9d0015e8aac6	374091998	1	main_slash	11	advance_on_keypress_SLASH	36	stimuli_target_trianglecircles.svg	stimuli_distractor_diamondtriangles.svg	21	yes	57	0	262
6.6.1	win	2022-12-14	14:26:18	14:37:00	639846	5d4b265b72db9d0015e8aac6	374091998	1	main_slash	11	main_slash	37	stimuli_distractor_trianglediamonds.svg	stimuli_distractor_trianglediamonds.svg	34	no	0	1	2000
6.6.1	win	2022-12-14	14:26:18	14:37:00	639846	5d4b265b72db9d0015e8aac6	374091998	1	main_slash	11	advance_on_keypress_SLASH	38	stimuli_distractor_trianglediamonds.svg	stimuli_distractor_trianglediamonds.svg	34	no	57	0	281
6.6.1	win	2022-12-14	14:26:18	14:37:01	641432	5d4b265b72db9d0015e8aac6	374091998	1	main_slash	11	main_slash	39	stimuli_target_trianglesquares.svg	stimuli_distractor_diamondtriangles.svg	22	yes	53	1	653
6.6.1	win	2022-12-14	14:26:18	14:37:01	641432	5d4b265b72db9d0015e8aac6	374091998	1	main_slash	11	advance_on_keypress_SLASH	40	stimuli_target_trianglesquares.svg	stimuli_distractor_diamondtriangles.svg	22	yes	57	0	362
6.6.1	win	2022-12-14	14:26:18	14:37:03	643168	5d4b265b72db9d0015e8aac6	374091998	1	main_slash	11	main_slash	41	stimuli_target_squarediamonds.svg	stimuli_distractor_trianglediamonds.svg	4	yes	53	1	722
6.6.1	win	2022-12-14	14:26:18	14:37:03	643168	5d4b265b72db9d0015e8aac6	374091998	1	main_slash	11	advance_on_keypress_SLASH	42	stimuli_target_squarediamonds.svg	stimuli_distractor_trianglediamonds.svg	4	yes	57	0	221
6.6.1	win	2022-12-14	14:26:18	14:37:05	644712	5d4b265b72db9d0015e8aac6	374091998	1	main_slash	11	main_slash	43	stimuli_target_circletriangles.svg	stimuli_distractor_diamondtriangles.svg	5	yes	53	1	683
6.6.1	win	2022-12-14	14:26:18	14:37:05	644712	5d4b265b72db9d0015e8aac6	374091998	1	main_slash	11	advance_on_keypress_SLASH	44	stimuli_target_circletriangles.svg	stimuli_distractor_diamondtriangles.svg	5	yes	57	0	199
6.6.1	win	2022-12-14	14:26:18	14:37:07	647564	5d4b265b72db9d0015e8aac6	374091998	1	main_slash	11	main_slash	45	stimuli_distractor_trianglediamonds.svg	stimuli_distractor_diamondtriangles.svg	35	no	0	1	2000
6.6.1	win	2022-12-14	14:26:18	14:37:07	647564	5d4b265b72db9d0015e8aac6	374091998	1	main_slash	11	advance_on_keypress_SLASH	46	stimuli_distractor_trianglediamonds.svg	stimuli_distractor_diamondtriangles.svg	35	no	57	0	373
6.6.1	win	2022-12-14	14:26:18	14:37:09	649152	5d4b265b72db9d0015e8aac6	374091998	1	main_slash	11	main_slash	47	stimuli_target_circlediamonds.svg	stimuli_distractor_trianglediamonds.svg	2	yes	53	1	573
6.6.1	win	2022-12-14	14:26:18	14:37:09	649152	5d4b265b72db9d0015e8aac6	374091998	1	main_slash	11	advance_on_keypress_SLASH	48	stimuli_target_circlediamonds.svg	stimuli_distractor_trianglediamonds.svg	2	yes	57	0	294
6.6.1	win	2022-12-14	14:26:18	14:37:12	652080	5d4b265b72db9d0015e8aac6	374091998	1	main_slash	11	main_slash	49	stimuli_distractor_diamondtriangles.svg	stimuli_distractor_diamondtriangles.svg	39	no	0	1	2000
6.6.1	win	2022-12-14	14:26:18	14:37:12	652080	5d4b265b72db9d0015e8aac6	374091998	1	main_slash	11	advance_on_keypress_SLASH	50	stimuli_distractor_diamondtriangles.svg	stimuli_distractor_diamondtriangles.svg	39	no	57	0	392
6.6.1	win	2022-12-14	14:26:18	14:37:14	653648	5d4b265b72db9d0015e8aac6	374091998	1	main_slash	11	main_slash	51	stimuli_target_diamondcircles.svg	stimuli_distractor_trianglediamonds.svg	19	yes	53	1	535
6.6.1	win	2022-12-14	14:26:18	14:37:14	653648	5d4b265b72db9d0015e8aac6	374091998	1	main_slash	11	advance_on_keypress_SLASH	52	stimuli_target_diamondcircles.svg	stimuli_distractor_trianglediamonds.svg	19	yes	57	0	369
6.6.1	win	2022-12-14	14:26:18	14:37:15	655272	5d4b265b72db9d0015e8aac6	374091998	1	main_slash	11	main_slash	53	stimuli_target_squarediamonds.svg	stimuli_distractor_diamondtriangles.svg	8	yes	53	1	609
6.6.1	win	2022-12-14	14:26:18	14:37:15	655272	5d4b265b72db9d0015e8aac6	374091998	1	main_slash	11	advance_on_keypress_SLASH	54	stimuli_target_squarediamonds.svg	stimuli_distractor_diamondtriangles.svg	8	yes	57	0	233
6.6.1	win	2022-12-14	14:26:18	14:37:17	656793	5d4b265b72db9d0015e8aac6	374091998	1	main_slash	11	main_slash	55	stimuli_distractor_trianglediamonds.svg	stimuli_target_circlediamonds.svg	10	yes	53	1	646
6.6.1	win	2022-12-14	14:26:18	14:37:17	656793	5d4b265b72db9d0015e8aac6	374091998	1	main_slash	11	advance_on_keypress_SLASH	56	stimuli_distractor_trianglediamonds.svg	stimuli_target_circlediamonds.svg	10	yes	57	0	283
6.6.1	win	2022-12-14	14:26:18	14:37:20	659730	5d4b265b72db9d0015e8aac6	374091998	1	main_slash	11	main_slash	57	stimuli_distractor_diamondtriangles.svg	stimuli_distractor_trianglediamonds.svg	37	no	0	1	2000
6.6.1	win	2022-12-14	14:26:18	14:37:20	659730	5d4b265b72db9d0015e8aac6	374091998	1	main_slash	11	advance_on_keypress_SLASH	58	stimuli_distractor_diamondtriangles.svg	stimuli_distractor_trianglediamonds.svg	37	no	57	0	406
6.6.1	win	2022-12-14	14:26:18	14:37:21	661384	5d4b265b72db9d0015e8aac6	374091998	1	main_slash	11	main_slash	59	stimuli_target_trianglesquares.svg	stimuli_distractor_trianglediamonds.svg	18	yes	53	1	605
6.6.1	win	2022-12-14	14:26:18	14:37:21	661384	5d4b265b72db9d0015e8aac6	374091998	1	main_slash	11	advance_on_keypress_SLASH	60	stimuli_target_trianglesquares.svg	stimuli_distractor_trianglediamonds.svg	18	yes	57	0	244
6.6.1	win	2022-12-14	14:26:18	14:37:23	662856	5d4b265b72db9d0015e8aac6	374091998	1	main_slash	11	main_slash	61	stimuli_target_circletriangles.svg	stimuli_distractor_trianglediamonds.svg	1	yes	53	1	594
6.6.1	win	2022-12-14	14:26:18	14:37:23	662856	5d4b265b72db9d0015e8aac6	374091998	1	main_slash	11	advance_on_keypress_SLASH	62	stimuli_target_circletriangles.svg	stimuli_distractor_trianglediamonds.svg	1	yes	57	0	233
6.6.1	win	2022-12-14	14:26:18	14:37:24	664352	5d4b265b72db9d0015e8aac6	374091998	1	main_slash	11	main_slash	63	stimuli_distractor_diamondtriangles.svg	stimuli_target_diamondsquares.svg	32	yes	53	1	623
6.6.1	win	2022-12-14	14:26:18	14:37:24	664352	5d4b265b72db9d0015e8aac6	374091998	1	main_slash	11	advance_on_keypress_SLASH	64	stimuli_distractor_diamondtriangles.svg	stimuli_target_diamondsquares.svg	32	yes	57	0	245
6.6.1	win	2022-12-14	14:26:18	14:37:26	665920	5d4b265b72db9d0015e8aac6	374091998	1	main_slash	11	main_slash	65	stimuli_distractor_trianglediamonds.svg	stimuli_target_diamondsquares.svg	28	yes	53	1	674
6.6.1	win	2022-12-14	14:26:18	14:37:26	665920	5d4b265b72db9d0015e8aac6	374091998	1	main_slash	11	advance_on_keypress_SLASH	66	stimuli_distractor_trianglediamonds.svg	stimuli_target_diamondsquares.svg	28	yes	57	0	215
6.6.1	win	2022-12-14	14:26:18	14:37:27	667473	5d4b265b72db9d0015e8aac6	374091998	1	main_slash	11	main_slash	67	stimuli_distractor_diamondtriangles.svg	stimuli_target_trianglesquares.svg	30	yes	53	1	693
6.6.1	win	2022-12-14	14:26:18	14:37:27	667473	5d4b265b72db9d0015e8aac6	374091998	1	main_slash	11	advance_on_keypress_SLASH	68	stimuli_distractor_diamondtriangles.svg	stimuli_target_trianglesquares.svg	30	yes	57	0	201
6.6.1	win	2022-12-14	14:26:18	14:37:29	669008	5d4b265b72db9d0015e8aac6	374091998	1	main_slash	11	main_slash	69	stimuli_distractor_trianglediamonds.svg	stimuli_distractor_diamondtriangles.svg	36	no	53	0	696
6.6.1	win	2022-12-14	14:26:18	14:37:29	669008	5d4b265b72db9d0015e8aac6	374091998	1	main_slash	11	advance_on_keypress_SLASH	70	stimuli_distractor_trianglediamonds.svg	stimuli_distractor_diamondtriangles.svg	36	no	57	0	244
6.6.1	win	2022-12-14	14:26:18	14:37:30	670600	5d4b265b72db9d0015e8aac6	374091998	1	main_slash	11	main_slash	71	stimuli_distractor_diamondtriangles.svg	stimuli_target_squarediamonds.svg	16	yes	53	1	721
6.6.1	win	2022-12-14	14:26:18	14:37:30	670600	5d4b265b72db9d0015e8aac6	374091998	1	main_slash	11	advance_on_keypress_SLASH	72	stimuli_distractor_diamondtriangles.svg	stimuli_target_squarediamonds.svg	16	yes	57	0	227
6.6.1	win	2022-12-14	14:26:18	14:37:32	672217	5d4b265b72db9d0015e8aac6	374091998	1	main_slash	11	main_slash	73	stimuli_distractor_trianglediamonds.svg	stimuli_target_squarediamonds.svg	12	yes	53	1	753
6.6.1	win	2022-12-14	14:26:18	14:37:32	672217	5d4b265b72db9d0015e8aac6	374091998	1	main_slash	11	advance_on_keypress_SLASH	74	stimuli_distractor_trianglediamonds.svg	stimuli_target_squarediamonds.svg	12	yes	57	0	235
6.6.1	win	2022-12-14	14:26:18	14:37:34	673776	5d4b265b72db9d0015e8aac6	374091998	1	main_slash	11	main_slash	75	stimuli_distractor_diamondtriangles.svg	stimuli_target_circletriangles.svg	13	yes	53	1	680
6.6.1	win	2022-12-14	14:26:18	14:37:34	673776	5d4b265b72db9d0015e8aac6	374091998	1	main_slash	11	advance_on_keypress_SLASH	76	stimuli_distractor_diamondtriangles.svg	stimuli_target_circletriangles.svg	13	yes	57	0	205
6.6.1	win	2022-12-14	14:26:18	14:37:35	675345	5d4b265b72db9d0015e8aac6	374091998	1	main_slash	11	main_slash	77	stimuli_distractor_trianglediamonds.svg	stimuli_target_squaretriangles.svg	11	yes	53	1	715
6.6.1	win	2022-12-14	14:26:18	14:37:35	675345	5d4b265b72db9d0015e8aac6	374091998	1	main_slash	11	advance_on_keypress_SLASH	78	stimuli_distractor_trianglediamonds.svg	stimuli_target_squaretriangles.svg	11	yes	57	0	253
6.6.1	win	2022-12-14	14:26:18	14:37:37	676913	5d4b265b72db9d0015e8aac6	374091998	1	main_slash	11	main_slash	79	stimuli_distractor_trianglediamonds.svg	stimuli_target_trianglesquares.svg	26	yes	53	1	666
6.6.1	win	2022-12-14	14:26:18	14:37:37	676913	5d4b265b72db9d0015e8aac6	374091998	1	main_slash	11	advance_on_keypress_SLASH	80	stimuli_distractor_trianglediamonds.svg	stimuli_target_trianglesquares.svg	26	yes	57	0	198
6.6.1	win	2022-12-14	14:26:18	14:37:38	678488	5d4b265b72db9d0015e8aac6	374091998	1	main_slash	11	main_slash	81	stimuli_target_circlediamonds.svg	stimuli_distractor_trianglediamonds.svg	2	yes	53	1	726
6.6.1	win	2022-12-14	14:26:18	14:37:38	678488	5d4b265b72db9d0015e8aac6	374091998	1	main_slash	11	advance_on_keypress_SLASH	82	stimuli_target_circlediamonds.svg	stimuli_distractor_trianglediamonds.svg	2	yes	57	0	224
6.6.1	win	2022-12-14	14:26:18	14:37:40	680065	5d4b265b72db9d0015e8aac6	374091998	1	main_slash	11	main_slash	83	stimuli_distractor_diamondtriangles.svg	stimuli_target_circlediamonds.svg	14	yes	53	1	718
6.6.1	win	2022-12-14	14:26:18	14:37:40	680065	5d4b265b72db9d0015e8aac6	374091998	1	main_slash	11	advance_on_keypress_SLASH	84	stimuli_distractor_diamondtriangles.svg	stimuli_target_circlediamonds.svg	14	yes	57	0	201
6.6.1	win	2022-12-14	14:26:18	14:37:43	682913	5d4b265b72db9d0015e8aac6	374091998	1	main_slash	11	main_slash	85	stimuli_distractor_diamondtriangles.svg	stimuli_distractor_trianglediamonds.svg	38	no	0	1	2000
6.6.1	win	2022-12-14	14:26:18	14:37:43	682913	5d4b265b72db9d0015e8aac6	374091998	1	main_slash	11	advance_on_keypress_SLASH	86	stimuli_distractor_diamondtriangles.svg	stimuli_distractor_trianglediamonds.svg	38	no	57	0	455
6.6.1	win	2022-12-14	14:26:18	14:37:45	684704	5d4b265b72db9d0015e8aac6	374091998	1	main_slash	11	main_slash	87	stimuli_distractor_diamondtriangles.svg	stimuli_target_trianglesquares.svg	30	yes	53	1	692
6.6.1	win	2022-12-14	14:26:18	14:37:45	684704	5d4b265b72db9d0015e8aac6	374091998	1	main_slash	11	advance_on_keypress_SLASH	88	stimuli_distractor_diamondtriangles.svg	stimuli_target_trianglesquares.svg	30	yes	57	0	216
6.6.1	win	2022-12-14	14:26:18	14:37:46	686217	5d4b265b72db9d0015e8aac6	374091998	1	main_slash	11	main_slash	89	stimuli_distractor_diamondtriangles.svg	stimuli_target_diamondcircles.svg	31	yes	53	1	654
6.6.1	win	2022-12-14	14:26:18	14:37:46	686217	5d4b265b72db9d0015e8aac6	374091998	1	main_slash	11	advance_on_keypress_SLASH	90	stimuli_distractor_diamondtriangles.svg	stimuli_target_diamondcircles.svg	31	yes	57	0	227
6.6.1	win	2022-12-14	14:26:18	14:37:48	687744	5d4b265b72db9d0015e8aac6	374091998	1	main_slash	11	main_slash	91	stimuli_distractor_diamondtriangles.svg	stimuli_target_squarediamonds.svg	16	yes	53	1	665
6.6.1	win	2022-12-14	14:26:18	14:37:48	687744	5d4b265b72db9d0015e8aac6	374091998	1	main_slash	11	advance_on_keypress_SLASH	92	stimuli_distractor_diamondtriangles.svg	stimuli_target_squarediamonds.svg	16	yes	57	0	157
6.6.1	win	2022-12-14	14:26:18	14:37:49	689240	5d4b265b72db9d0015e8aac6	374091998	1	main_slash	11	main_slash	93	stimuli_distractor_diamondtriangles.svg	stimuli_target_trianglecircles.svg	29	yes	53	1	694
6.6.1	win	2022-12-14	14:26:18	14:37:49	689240	5d4b265b72db9d0015e8aac6	374091998	1	main_slash	11	advance_on_keypress_SLASH	94	stimuli_distractor_diamondtriangles.svg	stimuli_target_trianglecircles.svg	29	yes	57	0	218
6.6.1	win	2022-12-14	14:26:18	14:37:51	690777	5d4b265b72db9d0015e8aac6	374091998	1	main_slash	11	main_slash	95	stimuli_distractor_trianglediamonds.svg	stimuli_target_circlediamonds.svg	10	yes	53	1	680
6.6.1	win	2022-12-14	14:26:18	14:37:51	690777	5d4b265b72db9d0015e8aac6	374091998	1	main_slash	11	advance_on_keypress_SLASH	96	stimuli_distractor_trianglediamonds.svg	stimuli_target_circlediamonds.svg	10	yes	57	0	204
6.6.1	win	2022-12-14	14:26:18	14:37:52	692368	5d4b265b72db9d0015e8aac6	374091998	1	main_slash	11	main_slash	97	stimuli_target_diamondsquares.svg	stimuli_distractor_diamondtriangles.svg	24	yes	53	1	739
6.6.1	win	2022-12-14	14:26:18	14:37:52	692368	5d4b265b72db9d0015e8aac6	374091998	1	main_slash	11	advance_on_keypress_SLASH	98	stimuli_target_diamondsquares.svg	stimuli_distractor_diamondtriangles.svg	24	yes	57	0	245
6.6.1	win	2022-12-14	14:26:18	14:37:54	693880	5d4b265b72db9d0015e8aac6	374091998	1	main_slash	11	main_slash	99	stimuli_target_circlediamonds.svg	stimuli_distractor_diamondtriangles.svg	6	yes	53	1	634
6.6.1	win	2022-12-14	14:26:18	14:37:54	693880	5d4b265b72db9d0015e8aac6	374091998	1	main_slash	11	advance_on_keypress_SLASH	100	stimuli_target_circlediamonds.svg	stimuli_distractor_diamondtriangles.svg	6	yes	57	0	176
6.6.1	win	2022-12-14	14:26:18	14:37:55	695392	5d4b265b72db9d0015e8aac6	374091998	1	main_slash	11	main_slash	101	stimuli_distractor_trianglediamonds.svg	stimuli_target_diamondcircles.svg	27	yes	53	1	696
6.6.1	win	2022-12-14	14:26:18	14:37:55	695392	5d4b265b72db9d0015e8aac6	374091998	1	main_slash	11	advance_on_keypress_SLASH	102	stimuli_distractor_trianglediamonds.svg	stimuli_target_diamondcircles.svg	27	yes	57	0	196
6.6.1	win	2022-12-14	14:26:18	14:37:57	696889	5d4b265b72db9d0015e8aac6	374091998	1	main_slash	11	main_slash	103	stimuli_distractor_trianglediamonds.svg	stimuli_target_circletriangles.svg	9	yes	53	1	642
6.6.1	win	2022-12-14	14:26:18	14:37:57	696889	5d4b265b72db9d0015e8aac6	374091998	1	main_slash	11	advance_on_keypress_SLASH	104	stimuli_distractor_trianglediamonds.svg	stimuli_target_circletriangles.svg	9	yes	57	0	192
6.6.1	win	2022-12-14	14:26:18	14:37:58	698416	5d4b265b72db9d0015e8aac6	374091998	1	main_slash	11	main_slash	105	stimuli_target_circletriangles.svg	stimuli_distractor_diamondtriangles.svg	5	yes	53	1	703
6.6.1	win	2022-12-14	14:26:18	14:37:58	698416	5d4b265b72db9d0015e8aac6	374091998	1	main_slash	11	advance_on_keypress_SLASH	106	stimuli_target_circletriangles.svg	stimuli_distractor_diamondtriangles.svg	5	yes	57	0	211
6.6.1	win	2022-12-14	14:26:18	14:38:00	699928	5d4b265b72db9d0015e8aac6	374091998	1	main_slash	11	main_slash	107	stimuli_target_diamondcircles.svg	stimuli_distractor_trianglediamonds.svg	19	yes	53	1	665
6.6.1	win	2022-12-14	14:26:18	14:38:00	699928	5d4b265b72db9d0015e8aac6	374091998	1	main_slash	11	advance_on_keypress_SLASH	108	stimuli_target_diamondcircles.svg	stimuli_distractor_trianglediamonds.svg	19	yes	57	0	182
6.6.1	win	2022-12-14	14:26:18	14:38:01	701400	5d4b265b72db9d0015e8aac6	374091998	1	main_slash	11	main_slash	109	stimuli_target_squaretriangles.svg	stimuli_distractor_trianglediamonds.svg	3	yes	53	1	637
6.6.1	win	2022-12-14	14:26:18	14:38:01	701400	5d4b265b72db9d0015e8aac6	374091998	1	main_slash	11	advance_on_keypress_SLASH	110	stimuli_target_squaretriangles.svg	stimuli_distractor_trianglediamonds.svg	3	yes	57	0	203
6.6.1	win	2022-12-14	14:26:18	14:38:03	702912	5d4b265b72db9d0015e8aac6	374091998	1	main_slash	11	main_slash	111	stimuli_distractor_diamondtriangles.svg	stimuli_target_diamondsquares.svg	32	yes	53	1	666
6.6.1	win	2022-12-14	14:26:18	14:38:03	702912	5d4b265b72db9d0015e8aac6	374091998	1	main_slash	11	advance_on_keypress_SLASH	112	stimuli_distractor_diamondtriangles.svg	stimuli_target_diamondsquares.svg	32	yes	57	0	223
6.6.1	win	2022-12-14	14:26:18	14:38:06	705780	5d4b265b72db9d0015e8aac6	374091998	1	main_slash	11	main_slash	113	stimuli_distractor_trianglediamonds.svg	stimuli_distractor_trianglediamonds.svg	34	no	0	1	2000
6.6.1	win	2022-12-14	14:26:18	14:38:06	705780	5d4b265b72db9d0015e8aac6	374091998	1	main_slash	11	advance_on_keypress_SLASH	114	stimuli_distractor_trianglediamonds.svg	stimuli_distractor_trianglediamonds.svg	34	no	57	0	452
6.6.1	win	2022-12-14	14:26:18	14:38:07	707496	5d4b265b72db9d0015e8aac6	374091998	1	main_slash	11	main_slash	115	stimuli_distractor_trianglediamonds.svg	stimuli_target_trianglesquares.svg	26	yes	53	1	617
6.6.1	win	2022-12-14	14:26:18	14:38:07	707496	5d4b265b72db9d0015e8aac6	374091998	1	main_slash	11	advance_on_keypress_SLASH	116	stimuli_distractor_trianglediamonds.svg	stimuli_target_trianglesquares.svg	26	yes	57	0	190
6.6.1	win	2022-12-14	14:26:18	14:38:10	710330	5d4b265b72db9d0015e8aac6	374091998	1	main_slash	11	main_slash	117	stimuli_distractor_diamondtriangles.svg	stimuli_distractor_diamondtriangles.svg	40	no	0	1	2000
6.6.1	win	2022-12-14	14:26:18	14:38:10	710330	5d4b265b72db9d0015e8aac6	374091998	1	main_slash	11	advance_on_keypress_SLASH	118	stimuli_distractor_diamondtriangles.svg	stimuli_distractor_diamondtriangles.svg	40	no	57	0	262
6.6.1	win	2022-12-14	14:26:18	14:38:12	711896	5d4b265b72db9d0015e8aac6	374091998	1	main_slash	11	main_slash	119	stimuli_distractor_trianglediamonds.svg	stimuli_target_squarediamonds.svg	12	yes	53	1	650
6.6.1	win	2022-12-14	14:26:18	14:38:12	711896	5d4b265b72db9d0015e8aac6	374091998	1	main_slash	11	advance_on_keypress_SLASH	120	stimuli_distractor_trianglediamonds.svg	stimuli_target_squarediamonds.svg	12	yes	57	0	176
6.6.1	win	2022-12-14	14:26:18	14:38:13	713313	5d4b265b72db9d0015e8aac6	374091998	1	main_slash	11	main_slash	121	stimuli_distractor_trianglediamonds.svg	stimuli_target_trianglecircles.svg	25	yes	53	1	599
6.6.1	win	2022-12-14	14:26:18	14:38:13	713313	5d4b265b72db9d0015e8aac6	374091998	1	main_slash	11	advance_on_keypress_SLASH	122	stimuli_distractor_trianglediamonds.svg	stimuli_target_trianglecircles.svg	25	yes	57	0	159
6.6.1	win	2022-12-14	14:26:18	14:38:15	714696	5d4b265b72db9d0015e8aac6	374091998	1	main_slash	11	main_slash	123	stimuli_target_diamondcircles.svg	stimuli_distractor_diamondtriangles.svg	23	yes	53	1	584
6.6.1	win	2022-12-14	14:26:18	14:38:15	714696	5d4b265b72db9d0015e8aac6	374091998	1	main_slash	11	advance_on_keypress_SLASH	124	stimuli_target_diamondcircles.svg	stimuli_distractor_diamondtriangles.svg	23	yes	57	0	191
6.6.1	win	2022-12-14	14:26:18	14:38:16	716136	5d4b265b72db9d0015e8aac6	374091998	1	main_slash	11	main_slash	125	stimuli_target_trianglecircles.svg	stimuli_distractor_diamondtriangles.svg	21	yes	53	1	607
6.6.1	win	2022-12-14	14:26:18	14:38:16	716136	5d4b265b72db9d0015e8aac6	374091998	1	main_slash	11	advance_on_keypress_SLASH	126	stimuli_target_trianglecircles.svg	stimuli_distractor_diamondtriangles.svg	21	yes	57	0	190
6.6.1	win	2022-12-14	14:26:18	14:38:17	717584	5d4b265b72db9d0015e8aac6	374091998	1	main_slash	11	main_slash	127	stimuli_distractor_diamondtriangles.svg	stimuli_target_squaretriangles.svg	15	yes	53	1	621
6.6.1	win	2022-12-14	14:26:18	14:38:17	717584	5d4b265b72db9d0015e8aac6	374091998	1	main_slash	11	advance_on_keypress_SLASH	128	stimuli_distractor_diamondtriangles.svg	stimuli_target_squaretriangles.svg	15	yes	57	0	196
6.6.1	win	2022-12-14	14:26:18	14:38:19	719000	5d4b265b72db9d0015e8aac6	374091998	1	main_slash	11	main_slash	129	stimuli_target_trianglesquares.svg	stimuli_distractor_diamondtriangles.svg	22	yes	53	1	571
6.6.1	win	2022-12-14	14:26:18	14:38:19	719000	5d4b265b72db9d0015e8aac6	374091998	1	main_slash	11	advance_on_keypress_SLASH	130	stimuli_target_trianglesquares.svg	stimuli_distractor_diamondtriangles.svg	22	yes	57	0	196
6.6.1	win	2022-12-14	14:26:18	14:38:22	721847	5d4b265b72db9d0015e8aac6	374091998	1	main_slash	11	main_slash	131	stimuli_distractor_trianglediamonds.svg	stimuli_distractor_trianglediamonds.svg	33	no	0	1	2000
6.6.1	win	2022-12-14	14:26:18	14:38:22	721847	5d4b265b72db9d0015e8aac6	374091998	1	main_slash	11	advance_on_keypress_SLASH	132	stimuli_distractor_trianglediamonds.svg	stimuli_distractor_trianglediamonds.svg	33	no	57	0	257
6.6.1	win	2022-12-14	14:26:18	14:38:23	723360	5d4b265b72db9d0015e8aac6	374091998	1	main_slash	11	main_slash	133	stimuli_target_squarediamonds.svg	stimuli_distractor_diamondtriangles.svg	8	yes	53	1	614
6.6.1	win	2022-12-14	14:26:18	14:38:23	723360	5d4b265b72db9d0015e8aac6	374091998	1	main_slash	11	advance_on_keypress_SLASH	134	stimuli_target_squarediamonds.svg	stimuli_distractor_diamondtriangles.svg	8	yes	57	0	181
6.6.1	win	2022-12-14	14:26:18	14:38:25	724761	5d4b265b72db9d0015e8aac6	374091998	1	main_slash	11	main_slash	135	stimuli_target_squaretriangles.svg	stimuli_distractor_diamondtriangles.svg	7	yes	53	1	564
6.6.1	win	2022-12-14	14:26:18	14:38:25	724761	5d4b265b72db9d0015e8aac6	374091998	1	main_slash	11	advance_on_keypress_SLASH	136	stimuli_target_squaretriangles.svg	stimuli_distractor_diamondtriangles.svg	7	yes	57	0	165
6.6.1	win	2022-12-14	14:26:18	14:38:27	727580	5d4b265b72db9d0015e8aac6	374091998	1	main_slash	11	main_slash	137	stimuli_distractor_trianglediamonds.svg	stimuli_distractor_diamondtriangles.svg	35	no	0	1	2000
6.6.1	win	2022-12-14	14:26:18	14:38:27	727580	5d4b265b72db9d0015e8aac6	374091998	1	main_slash	11	advance_on_keypress_SLASH	138	stimuli_distractor_trianglediamonds.svg	stimuli_distractor_diamondtriangles.svg	35	no	57	0	260
6.6.1	win	2022-12-14	14:26:18	14:38:30	730479	5d4b265b72db9d0015e8aac6	374091998	1	main_slash	11	main_slash	139	stimuli_distractor_diamondtriangles.svg	stimuli_distractor_diamondtriangles.svg	39	no	0	1	2000
6.6.1	win	2022-12-14	14:26:18	14:38:30	730479	5d4b265b72db9d0015e8aac6	374091998	1	main_slash	11	advance_on_keypress_SLASH	140	stimuli_distractor_diamondtriangles.svg	stimuli_distractor_diamondtriangles.svg	39	no	57	0	288
6.6.1	win	2022-12-14	14:26:18	14:38:32	732113	5d4b265b72db9d0015e8aac6	374091998	1	main_slash	11	main_slash	141	stimuli_distractor_trianglediamonds.svg	stimuli_target_diamondsquares.svg	28	yes	53	1	700
6.6.1	win	2022-12-14	14:26:18	14:38:32	732113	5d4b265b72db9d0015e8aac6	374091998	1	main_slash	11	advance_on_keypress_SLASH	142	stimuli_distractor_trianglediamonds.svg	stimuli_target_diamondsquares.svg	28	yes	57	0	207
6.6.1	win	2022-12-14	14:26:18	14:38:35	734963	5d4b265b72db9d0015e8aac6	374091998	1	main_slash	11	main_slash	143	stimuli_distractor_trianglediamonds.svg	stimuli_distractor_diamondtriangles.svg	36	no	0	1	2000
6.6.1	win	2022-12-14	14:26:18	14:38:35	734963	5d4b265b72db9d0015e8aac6	374091998	1	main_slash	11	advance_on_keypress_SLASH	144	stimuli_distractor_trianglediamonds.svg	stimuli_distractor_diamondtriangles.svg	36	no	57	0	261
6.6.1	win	2022-12-14	14:26:18	14:38:36	736536	5d4b265b72db9d0015e8aac6	374091998	1	main_slash	11	main_slash	145	stimuli_target_trianglecircles.svg	stimuli_distractor_trianglediamonds.svg	17	yes	53	1	672
6.6.1	win	2022-12-14	14:26:18	14:38:36	736536	5d4b265b72db9d0015e8aac6	374091998	1	main_slash	11	advance_on_keypress_SLASH	146	stimuli_target_trianglecircles.svg	stimuli_distractor_trianglediamonds.svg	17	yes	57	0	230
6.6.1	win	2022-12-14	14:26:18	14:38:39	739413	5d4b265b72db9d0015e8aac6	374091998	1	main_slash	11	main_slash	147	stimuli_distractor_diamondtriangles.svg	stimuli_distractor_trianglediamonds.svg	37	no	0	1	2000
6.6.1	win	2022-12-14	14:26:18	14:38:39	739413	5d4b265b72db9d0015e8aac6	374091998	1	main_slash	11	advance_on_keypress_SLASH	148	stimuli_distractor_diamondtriangles.svg	stimuli_distractor_trianglediamonds.svg	37	no	57	0	251
6.6.1	win	2022-12-14	14:26:18	14:38:41	740912	5d4b265b72db9d0015e8aac6	374091998	1	main_slash	11	main_slash	149	stimuli_target_circletriangles.svg	stimuli_distractor_trianglediamonds.svg	1	yes	53	1	600
6.6.1	win	2022-12-14	14:26:18	14:38:41	740912	5d4b265b72db9d0015e8aac6	374091998	1	main_slash	11	advance_on_keypress_SLASH	150	stimuli_target_circletriangles.svg	stimuli_distractor_trianglediamonds.svg	1	yes	57	0	199
6.6.1	win	2022-12-14	14:26:18	14:38:42	742360	5d4b265b72db9d0015e8aac6	374091998	1	main_slash	11	main_slash	151	stimuli_target_diamondsquares.svg	stimuli_distractor_trianglediamonds.svg	20	yes	53	1	597
6.6.1	win	2022-12-14	14:26:18	14:38:42	742360	5d4b265b72db9d0015e8aac6	374091998	1	main_slash	11	advance_on_keypress_SLASH	152	stimuli_target_diamondsquares.svg	stimuli_distractor_trianglediamonds.svg	20	yes	57	0	157
6.6.1	win	2022-12-14	14:26:18	14:38:44	743984	5d4b265b72db9d0015e8aac6	374091998	1	main_slash	11	main_slash	153	stimuli_distractor_diamondtriangles.svg	stimuli_target_circletriangles.svg	13	yes	53	1	821
6.6.1	win	2022-12-14	14:26:18	14:38:44	743984	5d4b265b72db9d0015e8aac6	374091998	1	main_slash	11	advance_on_keypress_SLASH	154	stimuli_distractor_diamondtriangles.svg	stimuli_target_circletriangles.svg	13	yes	57	0	196
6.6.1	win	2022-12-14	14:26:18	14:38:45	745425	5d4b265b72db9d0015e8aac6	374091998	1	main_slash	11	main_slash	155	stimuli_target_trianglesquares.svg	stimuli_distractor_trianglediamonds.svg	18	yes	53	1	595
6.6.1	win	2022-12-14	14:26:18	14:38:45	745425	5d4b265b72db9d0015e8aac6	374091998	1	main_slash	11	advance_on_keypress_SLASH	156	stimuli_target_trianglesquares.svg	stimuli_distractor_trianglediamonds.svg	18	yes	57	0	154
6.6.1	win	2022-12-14	14:26:18	14:38:47	746856	5d4b265b72db9d0015e8aac6	374091998	1	main_slash	11	main_slash	157	stimuli_distractor_trianglediamonds.svg	stimuli_target_squaretriangles.svg	11	yes	53	1	643
6.6.1	win	2022-12-14	14:26:18	14:38:47	746856	5d4b265b72db9d0015e8aac6	374091998	1	main_slash	11	advance_on_keypress_SLASH	158	stimuli_distractor_trianglediamonds.svg	stimuli_target_squaretriangles.svg	11	yes	57	0	209
6.6.1	win	2022-12-14	14:26:18	14:38:48	748257	5d4b265b72db9d0015e8aac6	374091998	1	main_slash	11	main_slash	159	stimuli_target_squarediamonds.svg	stimuli_distractor_trianglediamonds.svg	4	yes	53	1	560
6.6.1	win	2022-12-14	14:26:18	14:38:48	748257	5d4b265b72db9d0015e8aac6	374091998	1	main_slash	11	advance_on_keypress_SLASH	160	stimuli_target_squarediamonds.svg	stimuli_distractor_trianglediamonds.svg	4	yes	57	0	193