build	computer.platform	date	time	timestamp	time_elapsed_ms	subject	group	session	blockcode	blocknum	trialcode	trialnum	stimulus_left	stimulus_right	stim_index	target_present	response	correct	latency
6.6.1	win	2022-12-19	18:21:07	18:22:53	102444	60a1e1f4a3707c983a98f185	847547205	1	practice_slash	5	practice_slash	1	stimuli_target_diamondsquares.svg	stimuli_distractor_diamondtriangles.svg	3	yes	0	0	2000
6.6.1	win	2022-12-19	18:21:07	18:22:53	102444	60a1e1f4a3707c983a98f185	847547205	1	practice_slash	5	advance_on_keypress_SLASH	2	stimuli_target_diamondsquares.svg	stimuli_distractor_diamondtriangles.svg	3	yes	57	0	957
6.6.1	win	2022-12-19	18:21:07	18:22:57	107090	60a1e1f4a3707c983a98f185	847547205	1	practice_slash	5	practice_slash	3	stimuli_distractor_diamondtriangles.svg	stimuli_distractor_trianglediamonds.svg	14	no	0	1	2000
6.6.1	win	2022-12-19	18:21:07	18:22:57	107090	60a1e1f4a3707c983a98f185	847547205	1	practice_slash	5	advance_on_keypress_SLASH	4	stimuli_distractor_diamondtriangles.svg	stimuli_distractor_trianglediamonds.svg	14	no	57	0	665
6.6.1	win	2022-12-19	18:21:07	18:23:01	110259	60a1e1f4a3707c983a98f185	847547205	1	practice_slash	5	practice_slash	5	stimuli_distractor_trianglediamonds.svg	stimuli_target_circlediamonds.svg	10	yes	53	1	857
6.6.1	win	2022-12-19	18:21:07	18:23:01	110259	60a1e1f4a3707c983a98f185	847547205	1	practice_slash	5	advance_on_keypress_SLASH	6	stimuli_distractor_trianglediamonds.svg	stimuli_target_circlediamonds.svg	10	yes	57	0	634
6.6.1	win	2022-12-19	18:21:07	18:23:04	113270	60a1e1f4a3707c983a98f185	847547205	1	practice_slash	5	practice_slash	7	stimuli_distractor_trianglediamonds.svg	stimuli_target_diamondcircles.svg	12	yes	53	1	721
6.6.1	win	2022-12-19	18:21:07	18:23:04	113270	60a1e1f4a3707c983a98f185	847547205	1	practice_slash	5	advance_on_keypress_SLASH	8	stimuli_distractor_trianglediamonds.svg	stimuli_target_diamondcircles.svg	12	yes	57	0	663
6.6.1	win	2022-12-19	18:21:07	18:23:06	115935	60a1e1f4a3707c983a98f185	847547205	1	practice_slash	5	practice_slash	9	stimuli_target_diamondsquares.svg	stimuli_distractor_trianglediamonds.svg	6	yes	53	1	355
6.6.1	win	2022-12-19	18:21:07	18:23:06	115935	60a1e1f4a3707c983a98f185	847547205	1	practice_slash	5	advance_on_keypress_SLASH	10	stimuli_target_diamondsquares.svg	stimuli_distractor_trianglediamonds.svg	6	yes	57	0	505
6.6.1	win	2022-12-19	18:21:07	18:23:09	118380	60a1e1f4a3707c983a98f185	847547205	1	practice_slash	5	practice_slash	11	stimuli_target_circlediamonds.svg	stimuli_distractor_trianglediamonds.svg	4	yes	53	1	302
6.6.1	win	2022-12-19	18:21:07	18:23:09	118380	60a1e1f4a3707c983a98f185	847547205	1	practice_slash	5	advance_on_keypress_SLASH	12	stimuli_target_circlediamonds.svg	stimuli_distractor_trianglediamonds.svg	4	yes	57	0	381
6.6.1	win	2022-12-19	18:21:07	18:23:13	122444	60a1e1f4a3707c983a98f185	847547205	1	practice_slash	5	practice_slash	13	stimuli_distractor_trianglediamonds.svg	stimuli_distractor_trianglediamonds.svg	15	no	0	1	2000
6.6.1	win	2022-12-19	18:21:07	18:23:13	122444	60a1e1f4a3707c983a98f185	847547205	1	practice_slash	5	advance_on_keypress_SLASH	14	stimuli_distractor_trianglediamonds.svg	stimuli_distractor_trianglediamonds.svg	15	no	57	0	604
6.6.1	win	2022-12-19	18:21:07	18:23:17	126688	60a1e1f4a3707c983a98f185	847547205	1	practice_slash	5	practice_slash	15	stimuli_distractor_diamondtriangles.svg	stimuli_distractor_diamondtriangles.svg	13	no	0	1	2000
6.6.1	win	2022-12-19	18:21:07	18:23:17	126688	60a1e1f4a3707c983a98f185	847547205	1	practice_slash	5	advance_on_keypress_SLASH	16	stimuli_distractor_diamondtriangles.svg	stimuli_distractor_diamondtriangles.svg	13	no	57	0	287
6.6.1	win	2022-12-19	18:21:07	18:23:20	129523	60a1e1f4a3707c983a98f185	847547205	1	practice_slash	5	practice_slash	17	stimuli_target_squarediamonds.svg	stimuli_distractor_diamondtriangles.svg	2	yes	53	1	905
6.6.1	win	2022-12-19	18:21:07	18:23:20	129523	60a1e1f4a3707c983a98f185	847547205	1	practice_slash	5	advance_on_keypress_SLASH	18	stimuli_target_squarediamonds.svg	stimuli_distractor_diamondtriangles.svg	2	yes	57	0	425
6.6.1	win	2022-12-19	18:21:07	18:23:24	133583	60a1e1f4a3707c983a98f185	847547205	1	practice_slash	5	practice_slash	19	stimuli_distractor_trianglediamonds.svg	stimuli_distractor_diamondtriangles.svg	16	no	0	1	2000
6.6.1	win	2022-12-19	18:21:07	18:23:24	133583	60a1e1f4a3707c983a98f185	847547205	1	practice_slash	5	advance_on_keypress_SLASH	20	stimuli_distractor_trianglediamonds.svg	stimuli_distractor_diamondtriangles.svg	16	no	57	0	378
6.6.1	win	2022-12-19	18:21:07	18:23:27	136318	60a1e1f4a3707c983a98f185	847547205	1	practice_slash	5	practice_slash	21	stimuli_distractor_diamondtriangles.svg	stimuli_target_circletriangles.svg	7	yes	53	1	705
6.6.1	win	2022-12-19	18:21:07	18:23:27	136318	60a1e1f4a3707c983a98f185	847547205	1	practice_slash	5	advance_on_keypress_SLASH	22	stimuli_distractor_diamondtriangles.svg	stimuli_target_circletriangles.svg	7	yes	57	0	426
6.6.1	win	2022-12-19	18:21:07	18:23:30	139230	60a1e1f4a3707c983a98f185	847547205	1	practice_slash	5	practice_slash	23	stimuli_target_squarediamonds.svg	stimuli_distractor_trianglediamonds.svg	5	yes	53	1	853
6.6.1	win	2022-12-19	18:21:07	18:23:30	139230	60a1e1f4a3707c983a98f185	847547205	1	practice_slash	5	advance_on_keypress_SLASH	24	stimuli_target_squarediamonds.svg	stimuli_distractor_trianglediamonds.svg	5	yes	57	0	353
6.6.1	win	2022-12-19	18:21:07	18:23:32	142040	60a1e1f4a3707c983a98f185	847547205	1	practice_slash	5	practice_slash	25	stimuli_distractor_diamondtriangles.svg	stimuli_target_diamondcircles.svg	8	yes	53	1	812
6.6.1	win	2022-12-19	18:21:07	18:23:32	142040	60a1e1f4a3707c983a98f185	847547205	1	practice_slash	5	advance_on_keypress_SLASH	26	stimuli_distractor_diamondtriangles.svg	stimuli_target_diamondcircles.svg	8	yes	57	0	350
6.6.1	win	2022-12-19	18:21:07	18:23:35	144978	60a1e1f4a3707c983a98f185	847547205	1	practice_slash	5	practice_slash	27	stimuli_distractor_diamondtriangles.svg	stimuli_target_trianglecircles.svg	9	yes	53	1	939
6.6.1	win	2022-12-19	18:21:07	18:23:35	144978	60a1e1f4a3707c983a98f185	847547205	1	practice_slash	5	advance_on_keypress_SLASH	28	stimuli_distractor_diamondtriangles.svg	stimuli_target_trianglecircles.svg	9	yes	57	0	374
6.6.1	win	2022-12-19	18:21:07	18:23:38	147779	60a1e1f4a3707c983a98f185	847547205	1	practice_slash	5	practice_slash	29	stimuli_distractor_trianglediamonds.svg	stimuli_target_squarediamonds.svg	11	yes	53	1	794
6.6.1	win	2022-12-19	18:21:07	18:23:38	147779	60a1e1f4a3707c983a98f185	847547205	1	practice_slash	5	advance_on_keypress_SLASH	30	stimuli_distractor_trianglediamonds.svg	stimuli_target_squarediamonds.svg	11	yes	57	0	385
6.6.1	win	2022-12-19	18:21:07	18:23:41	150889	60a1e1f4a3707c983a98f185	847547205	1	practice_slash	5	practice_slash	31	stimuli_target_circlediamonds.svg	stimuli_distractor_diamondtriangles.svg	1	yes	53	1	1072
6.6.1	win	2022-12-19	18:21:07	18:23:41	150889	60a1e1f4a3707c983a98f185	847547205	1	practice_slash	5	advance_on_keypress_SLASH	32	stimuli_target_circlediamonds.svg	stimuli_distractor_diamondtriangles.svg	1	yes	57	0	356
6.6.1	win	2022-12-19	18:21:07	18:23:50	160136	60a1e1f4a3707c983a98f185	847547205	1	main_slash	7	main_slash	1	stimuli_target_squaretriangles.svg	stimuli_distractor_trianglediamonds.svg	3	yes	53	1	330
6.6.1	win	2022-12-19	18:21:07	18:23:50	160136	60a1e1f4a3707c983a98f185	847547205	1	main_slash	7	advance_on_keypress_SLASH	2	stimuli_target_squaretriangles.svg	stimuli_distractor_trianglediamonds.svg	3	yes	57	0	893
6.6.1	win	2022-12-19	18:21:07	18:23:54	163671	60a1e1f4a3707c983a98f185	847547205	1	main_slash	7	main_slash	3	stimuli_distractor_diamondtriangles.svg	stimuli_distractor_diamondtriangles.svg	40	no	0	1	2000
6.6.1	win	2022-12-19	18:21:07	18:23:54	163671	60a1e1f4a3707c983a98f185	847547205	1	main_slash	7	advance_on_keypress_SLASH	4	stimuli_distractor_diamondtriangles.svg	stimuli_distractor_diamondtriangles.svg	40	no	57	0	252
6.6.1	win	2022-12-19	18:21:07	18:23:56	165227	60a1e1f4a3707c983a98f185	847547205	1	main_slash	7	main_slash	5	stimuli_target_squaretriangles.svg	stimuli_distractor_diamondtriangles.svg	7	yes	53	1	658
6.6.1	win	2022-12-19	18:21:07	18:23:56	165227	60a1e1f4a3707c983a98f185	847547205	1	main_slash	7	advance_on_keypress_SLASH	6	stimuli_target_squaretriangles.svg	stimuli_distractor_diamondtriangles.svg	7	yes	57	0	1016
6.6.1	win	2022-12-19	18:21:07	18:23:59	168883	60a1e1f4a3707c983a98f185	847547205	1	main_slash	7	main_slash	7	stimuli_distractor_trianglediamonds.svg	stimuli_distractor_diamondtriangles.svg	36	no	0	1	2000
6.6.1	win	2022-12-19	18:21:07	18:23:59	168883	60a1e1f4a3707c983a98f185	847547205	1	main_slash	7	advance_on_keypress_SLASH	8	stimuli_distractor_trianglediamonds.svg	stimuli_distractor_diamondtriangles.svg	36	no	57	0	415
6.6.1	win	2022-12-19	18:21:07	18:24:01	170309	60a1e1f4a3707c983a98f185	847547205	1	main_slash	7	main_slash	9	stimuli_target_circlediamonds.svg	stimuli_distractor_diamondtriangles.svg	6	yes	53	1	362
6.6.1	win	2022-12-19	18:21:07	18:24:01	170309	60a1e1f4a3707c983a98f185	847547205	1	main_slash	7	advance_on_keypress_SLASH	10	stimuli_target_circlediamonds.svg	stimuli_distractor_diamondtriangles.svg	6	yes	57	0	4
6.6.1	win	2022-12-19	18:21:07	18:24:02	172005	60a1e1f4a3707c983a98f185	847547205	1	main_slash	7	main_slash	11	stimuli_distractor_trianglediamonds.svg	stimuli_distractor_diamondtriangles.svg	35	no	53	0	1026
6.6.1	win	2022-12-19	18:21:07	18:24:02	172005	60a1e1f4a3707c983a98f185	847547205	1	main_slash	7	advance_on_keypress_SLASH	12	stimuli_distractor_trianglediamonds.svg	stimuli_distractor_diamondtriangles.svg	35	no	57	0	499
6.6.1	win	2022-12-19	18:21:07	18:24:04	173869	60a1e1f4a3707c983a98f185	847547205	1	main_slash	7	main_slash	13	stimuli_distractor_diamondtriangles.svg	stimuli_target_diamondcircles.svg	31	yes	53	1	725
6.6.1	win	2022-12-19	18:21:07	18:24:04	173869	60a1e1f4a3707c983a98f185	847547205	1	main_slash	7	advance_on_keypress_SLASH	14	stimuli_distractor_diamondtriangles.svg	stimuli_target_diamondcircles.svg	31	yes	57	0	854
6.6.1	win	2022-12-19	18:21:07	18:24:06	175923	60a1e1f4a3707c983a98f185	847547205	1	main_slash	7	main_slash	15	stimuli_distractor_trianglediamonds.svg	stimuli_target_trianglesquares.svg	26	yes	53	1	565
6.6.1	win	2022-12-19	18:21:07	18:24:06	175923	60a1e1f4a3707c983a98f185	847547205	1	main_slash	7	advance_on_keypress_SLASH	16	stimuli_distractor_trianglediamonds.svg	stimuli_target_trianglesquares.svg	26	yes	57	0	929
6.6.1	win	2022-12-19	18:21:07	18:24:10	179508	60a1e1f4a3707c983a98f185	847547205	1	main_slash	7	main_slash	17	stimuli_distractor_trianglediamonds.svg	stimuli_distractor_trianglediamonds.svg	34	no	0	1	2000
6.6.1	win	2022-12-19	18:21:07	18:24:10	179508	60a1e1f4a3707c983a98f185	847547205	1	main_slash	7	advance_on_keypress_SLASH	18	stimuli_distractor_trianglediamonds.svg	stimuli_distractor_trianglediamonds.svg	34	no	57	0	416
6.6.1	win	2022-12-19	18:21:07	18:24:11	180881	60a1e1f4a3707c983a98f185	847547205	1	main_slash	7	main_slash	19	stimuli_distractor_trianglediamonds.svg	stimuli_target_circletriangles.svg	9	yes	53	1	311
6.6.1	win	2022-12-19	18:21:07	18:24:11	180881	60a1e1f4a3707c983a98f185	847547205	1	main_slash	7	advance_on_keypress_SLASH	20	stimuli_distractor_trianglediamonds.svg	stimuli_target_circletriangles.svg	9	yes	57	0	1022
6.6.1	win	2022-12-19	18:21:07	18:24:15	184537	60a1e1f4a3707c983a98f185	847547205	1	main_slash	7	main_slash	21	stimuli_distractor_trianglediamonds.svg	stimuli_distractor_trianglediamonds.svg	33	no	0	1	2000
6.6.1	win	2022-12-19	18:21:07	18:24:15	184537	60a1e1f4a3707c983a98f185	847547205	1	main_slash	7	advance_on_keypress_SLASH	22	stimuli_distractor_trianglediamonds.svg	stimuli_distractor_trianglediamonds.svg	33	no	57	0	394
6.6.1	win	2022-12-19	18:21:07	18:24:18	187567	60a1e1f4a3707c983a98f185	847547205	1	main_slash	7	main_slash	23	stimuli_distractor_diamondtriangles.svg	stimuli_distractor_diamondtriangles.svg	39	no	0	1	2000
6.6.1	win	2022-12-19	18:21:07	18:24:18	187567	60a1e1f4a3707c983a98f185	847547205	1	main_slash	7	advance_on_keypress_SLASH	24	stimuli_distractor_diamondtriangles.svg	stimuli_distractor_diamondtriangles.svg	39	no	57	0	259
6.6.1	win	2022-12-19	18:21:07	18:24:19	189167	60a1e1f4a3707c983a98f185	847547205	1	main_slash	7	main_slash	25	stimuli_target_circletriangles.svg	stimuli_distractor_diamondtriangles.svg	5	yes	53	1	702
6.6.1	win	2022-12-19	18:21:07	18:24:19	189167	60a1e1f4a3707c983a98f185	847547205	1	main_slash	7	advance_on_keypress_SLASH	26	stimuli_target_circletriangles.svg	stimuli_distractor_diamondtriangles.svg	5	yes	57	0	997
6.6.1	win	2022-12-19	18:21:07	18:24:22	191914	60a1e1f4a3707c983a98f185	847547205	1	main_slash	7	main_slash	27	stimuli_target_trianglesquares.svg	stimuli_distractor_diamondtriangles.svg	22	yes	53	1	1102
6.6.1	win	2022-12-19	18:21:07	18:24:22	191914	60a1e1f4a3707c983a98f185	847547205	1	main_slash	7	advance_on_keypress_SLASH	28	stimuli_target_trianglesquares.svg	stimuli_distractor_diamondtriangles.svg	22	yes	57	0	739
6.6.1	win	2022-12-19	18:21:07	18:24:25	194278	60a1e1f4a3707c983a98f185	847547205	1	main_slash	7	main_slash	29	stimuli_distractor_diamondtriangles.svg	stimuli_target_circlediamonds.svg	14	yes	53	1	984
6.6.1	win	2022-12-19	18:21:07	18:24:25	194278	60a1e1f4a3707c983a98f185	847547205	1	main_slash	7	advance_on_keypress_SLASH	30	stimuli_distractor_diamondtriangles.svg	stimuli_target_circlediamonds.svg	14	yes	57	0	770
6.6.1	win	2022-12-19	18:21:07	18:24:28	197456	60a1e1f4a3707c983a98f185	847547205	1	main_slash	7	main_slash	31	stimuli_distractor_trianglediamonds.svg	stimuli_target_squarediamonds.svg	12	yes	53	1	1764
6.6.1	win	2022-12-19	18:21:07	18:24:28	197456	60a1e1f4a3707c983a98f185	847547205	1	main_slash	7	advance_on_keypress_SLASH	32	stimuli_distractor_trianglediamonds.svg	stimuli_target_squarediamonds.svg	12	yes	57	0	568
6.6.1	win	2022-12-19	18:21:07	18:24:30	199363	60a1e1f4a3707c983a98f185	847547205	1	main_slash	7	main_slash	33	stimuli_target_diamondcircles.svg	stimuli_distractor_trianglediamonds.svg	19	yes	53	1	691
6.6.1	win	2022-12-19	18:21:07	18:24:30	199363	60a1e1f4a3707c983a98f185	847547205	1	main_slash	7	advance_on_keypress_SLASH	34	stimuli_target_diamondcircles.svg	stimuli_distractor_trianglediamonds.svg	19	yes	57	0	769
6.6.1	win	2022-12-19	18:21:07	18:24:32	201357	60a1e1f4a3707c983a98f185	847547205	1	main_slash	7	main_slash	35	stimuli_target_circletriangles.svg	stimuli_distractor_trianglediamonds.svg	1	yes	53	1	587
6.6.1	win	2022-12-19	18:21:07	18:24:32	201357	60a1e1f4a3707c983a98f185	847547205	1	main_slash	7	advance_on_keypress_SLASH	36	stimuli_target_circletriangles.svg	stimuli_distractor_trianglediamonds.svg	1	yes	57	0	758
6.6.1	win	2022-12-19	18:21:07	18:24:34	203492	60a1e1f4a3707c983a98f185	847547205	1	main_slash	7	main_slash	37	stimuli_distractor_diamondtriangles.svg	stimuli_target_squarediamonds.svg	16	yes	53	1	740
6.6.1	win	2022-12-19	18:21:07	18:24:34	203492	60a1e1f4a3707c983a98f185	847547205	1	main_slash	7	advance_on_keypress_SLASH	38	stimuli_distractor_diamondtriangles.svg	stimuli_target_squarediamonds.svg	16	yes	57	0	823
6.6.1	win	2022-12-19	18:21:07	18:24:36	205977	60a1e1f4a3707c983a98f185	847547205	1	main_slash	7	main_slash	39	stimuli_distractor_trianglediamonds.svg	stimuli_target_diamondcircles.svg	27	yes	53	1	1027
6.6.1	win	2022-12-19	18:21:07	18:24:36	205977	60a1e1f4a3707c983a98f185	847547205	1	main_slash	7	advance_on_keypress_SLASH	40	stimuli_distractor_trianglediamonds.svg	stimuli_target_diamondcircles.svg	27	yes	57	0	824
6.6.1	win	2022-12-19	18:21:07	18:24:38	208136	60a1e1f4a3707c983a98f185	847547205	1	main_slash	7	main_slash	41	stimuli_target_diamondcircles.svg	stimuli_distractor_diamondtriangles.svg	23	yes	53	1	704
6.6.1	win	2022-12-19	18:21:07	18:24:38	208136	60a1e1f4a3707c983a98f185	847547205	1	main_slash	7	advance_on_keypress_SLASH	42	stimuli_target_diamondcircles.svg	stimuli_distractor_diamondtriangles.svg	23	yes	57	0	740
6.6.1	win	2022-12-19	18:21:07	18:24:41	210320	60a1e1f4a3707c983a98f185	847547205	1	main_slash	7	main_slash	43	stimuli_distractor_diamondtriangles.svg	stimuli_target_trianglesquares.svg	30	yes	53	1	808
6.6.1	win	2022-12-19	18:21:07	18:24:41	210320	60a1e1f4a3707c983a98f185	847547205	1	main_slash	7	advance_on_keypress_SLASH	44	stimuli_distractor_diamondtriangles.svg	stimuli_target_trianglesquares.svg	30	yes	57	0	800
6.6.1	win	2022-12-19	18:21:07	18:24:43	212679	60a1e1f4a3707c983a98f185	847547205	1	main_slash	7	main_slash	45	stimuli_distractor_trianglediamonds.svg	stimuli_target_squaretriangles.svg	11	yes	53	1	919
6.6.1	win	2022-12-19	18:21:07	18:24:43	212679	60a1e1f4a3707c983a98f185	847547205	1	main_slash	7	advance_on_keypress_SLASH	46	stimuli_distractor_trianglediamonds.svg	stimuli_target_squaretriangles.svg	11	yes	57	0	706
6.6.1	win	2022-12-19	18:21:07	18:24:45	214961	60a1e1f4a3707c983a98f185	847547205	1	main_slash	7	main_slash	47	stimuli_target_trianglecircles.svg	stimuli_distractor_trianglediamonds.svg	17	yes	53	1	934
6.6.1	win	2022-12-19	18:21:07	18:24:45	214961	60a1e1f4a3707c983a98f185	847547205	1	main_slash	7	advance_on_keypress_SLASH	48	stimuli_target_trianglecircles.svg	stimuli_distractor_trianglediamonds.svg	17	yes	57	0	735
6.6.1	win	2022-12-19	18:21:07	18:24:48	217326	60a1e1f4a3707c983a98f185	847547205	1	main_slash	7	main_slash	49	stimuli_distractor_diamondtriangles.svg	stimuli_target_squaretriangles.svg	15	yes	53	1	985
6.6.1	win	2022-12-19	18:21:07	18:24:48	217326	60a1e1f4a3707c983a98f185	847547205	1	main_slash	7	advance_on_keypress_SLASH	50	stimuli_distractor_diamondtriangles.svg	stimuli_target_squaretriangles.svg	15	yes	57	0	627
6.6.1	win	2022-12-19	18:21:07	18:24:50	219414	60a1e1f4a3707c983a98f185	847547205	1	main_slash	7	main_slash	51	stimuli_target_circlediamonds.svg	stimuli_distractor_trianglediamonds.svg	2	yes	53	1	824
6.6.1	win	2022-12-19	18:21:07	18:24:50	219414	60a1e1f4a3707c983a98f185	847547205	1	main_slash	7	advance_on_keypress_SLASH	52	stimuli_target_circlediamonds.svg	stimuli_distractor_trianglediamonds.svg	2	yes	57	0	671
6.6.1	win	2022-12-19	18:21:07	18:24:52	221506	60a1e1f4a3707c983a98f185	847547205	1	main_slash	7	main_slash	53	stimuli_distractor_trianglediamonds.svg	stimuli_target_trianglecircles.svg	25	yes	53	1	787
6.6.1	win	2022-12-19	18:21:07	18:24:52	221506	60a1e1f4a3707c983a98f185	847547205	1	main_slash	7	advance_on_keypress_SLASH	54	stimuli_distractor_trianglediamonds.svg	stimuli_target_trianglecircles.svg	25	yes	57	0	633
6.6.1	win	2022-12-19	18:21:07	18:24:54	223848	60a1e1f4a3707c983a98f185	847547205	1	main_slash	7	main_slash	55	stimuli_target_diamondsquares.svg	stimuli_distractor_trianglediamonds.svg	20	yes	53	1	1063
6.6.1	win	2022-12-19	18:21:07	18:24:54	223848	60a1e1f4a3707c983a98f185	847547205	1	main_slash	7	advance_on_keypress_SLASH	56	stimuli_target_diamondsquares.svg	stimuli_distractor_trianglediamonds.svg	20	yes	57	0	702
6.6.1	win	2022-12-19	18:21:07	18:24:57	227200	60a1e1f4a3707c983a98f185	847547205	1	main_slash	7	main_slash	57	stimuli_distractor_trianglediamonds.svg	stimuli_target_circlediamonds.svg	10	yes	0	0	2000
6.6.1	win	2022-12-19	18:21:07	18:24:57	227200	60a1e1f4a3707c983a98f185	847547205	1	main_slash	7	advance_on_keypress_SLASH	58	stimuli_distractor_trianglediamonds.svg	stimuli_target_circlediamonds.svg	10	yes	57	0	579
6.6.1	win	2022-12-19	18:21:07	18:25:00	229985	60a1e1f4a3707c983a98f185	847547205	1	main_slash	7	main_slash	59	stimuli_target_diamondsquares.svg	stimuli_distractor_diamondtriangles.svg	24	yes	53	1	1554
6.6.1	win	2022-12-19	18:21:07	18:25:00	229985	60a1e1f4a3707c983a98f185	847547205	1	main_slash	7	advance_on_keypress_SLASH	60	stimuli_target_diamondsquares.svg	stimuli_distractor_diamondtriangles.svg	24	yes	57	0	446
6.6.1	win	2022-12-19	18:21:07	18:25:03	232982	60a1e1f4a3707c983a98f185	847547205	1	main_slash	7	main_slash	61	stimuli_distractor_trianglediamonds.svg	stimuli_target_diamondsquares.svg	28	yes	53	1	1904
6.6.1	win	2022-12-19	18:21:07	18:25:03	232982	60a1e1f4a3707c983a98f185	847547205	1	main_slash	7	advance_on_keypress_SLASH	62	stimuli_distractor_trianglediamonds.svg	stimuli_target_diamondsquares.svg	28	yes	57	0	468
6.6.1	win	2022-12-19	18:21:07	18:25:05	235145	60a1e1f4a3707c983a98f185	847547205	1	main_slash	7	main_slash	63	stimuli_target_squarediamonds.svg	stimuli_distractor_trianglediamonds.svg	4	yes	53	1	1054
6.6.1	win	2022-12-19	18:21:07	18:25:05	235145	60a1e1f4a3707c983a98f185	847547205	1	main_slash	7	advance_on_keypress_SLASH	64	stimuli_target_squarediamonds.svg	stimuli_distractor_trianglediamonds.svg	4	yes	57	0	592
6.6.1	win	2022-12-19	18:21:07	18:25:08	237431	60a1e1f4a3707c983a98f185	847547205	1	main_slash	7	main_slash	65	stimuli_target_trianglesquares.svg	stimuli_distractor_trianglediamonds.svg	18	yes	53	1	1058
6.6.1	win	2022-12-19	18:21:07	18:25:08	237431	60a1e1f4a3707c983a98f185	847547205	1	main_slash	7	advance_on_keypress_SLASH	66	stimuli_target_trianglesquares.svg	stimuli_distractor_trianglediamonds.svg	18	yes	57	0	682
6.6.1	win	2022-12-19	18:21:07	18:25:11	240755	60a1e1f4a3707c983a98f185	847547205	1	main_slash	7	main_slash	67	stimuli_distractor_diamondtriangles.svg	stimuli_distractor_trianglediamonds.svg	38	no	0	1	2000
6.6.1	win	2022-12-19	18:21:07	18:25:11	240755	60a1e1f4a3707c983a98f185	847547205	1	main_slash	7	advance_on_keypress_SLASH	68	stimuli_distractor_diamondtriangles.svg	stimuli_distractor_trianglediamonds.svg	38	no	57	0	501
6.6.1	win	2022-12-19	18:21:07	18:25:13	242920	60a1e1f4a3707c983a98f185	847547205	1	main_slash	7	main_slash	69	stimuli_target_trianglecircles.svg	stimuli_distractor_diamondtriangles.svg	21	yes	53	1	1018
6.6.1	win	2022-12-19	18:21:07	18:25:13	242920	60a1e1f4a3707c983a98f185	847547205	1	main_slash	7	advance_on_keypress_SLASH	70	stimuli_target_trianglecircles.svg	stimuli_distractor_diamondtriangles.svg	21	yes	57	0	747
6.6.1	win	2022-12-19	18:21:07	18:25:16	245269	60a1e1f4a3707c983a98f185	847547205	1	main_slash	7	main_slash	71	stimuli_distractor_diamondtriangles.svg	stimuli_target_trianglecircles.svg	29	yes	53	1	952
6.6.1	win	2022-12-19	18:21:07	18:25:16	245269	60a1e1f4a3707c983a98f185	847547205	1	main_slash	7	advance_on_keypress_SLASH	72	stimuli_distractor_diamondtriangles.svg	stimuli_target_trianglecircles.svg	29	yes	57	0	665
6.6.1	win	2022-12-19	18:21:07	18:25:18	247574	60a1e1f4a3707c983a98f185	847547205	1	main_slash	7	main_slash	73	stimuli_distractor_diamondtriangles.svg	stimuli_target_diamondsquares.svg	32	yes	53	1	993
6.6.1	win	2022-12-19	18:21:07	18:25:18	247574	60a1e1f4a3707c983a98f185	847547205	1	main_slash	7	advance_on_keypress_SLASH	74	stimuli_distractor_diamondtriangles.svg	stimuli_target_diamondsquares.svg	32	yes	57	0	543
6.6.1	win	2022-12-19	18:21:07	18:25:20	249938	60a1e1f4a3707c983a98f185	847547205	1	main_slash	7	main_slash	75	stimuli_target_squarediamonds.svg	stimuli_distractor_diamondtriangles.svg	8	yes	53	1	1191
6.6.1	win	2022-12-19	18:21:07	18:25:20	249938	60a1e1f4a3707c983a98f185	847547205	1	main_slash	7	advance_on_keypress_SLASH	76	stimuli_target_squarediamonds.svg	stimuli_distractor_diamondtriangles.svg	8	yes	57	0	506
6.6.1	win	2022-12-19	18:21:07	18:25:22	252022	60a1e1f4a3707c983a98f185	847547205	1	main_slash	7	main_slash	77	stimuli_distractor_diamondtriangles.svg	stimuli_target_circletriangles.svg	13	yes	53	1	946
6.6.1	win	2022-12-19	18:21:07	18:25:22	252022	60a1e1f4a3707c983a98f185	847547205	1	main_slash	7	advance_on_keypress_SLASH	78	stimuli_distractor_diamondtriangles.svg	stimuli_target_circletriangles.svg	13	yes	57	0	678
6.6.1	win	2022-12-19	18:21:07	18:25:26	255359	60a1e1f4a3707c983a98f185	847547205	1	main_slash	7	main_slash	79	stimuli_distractor_diamondtriangles.svg	stimuli_distractor_trianglediamonds.svg	37	no	0	1	2000
6.6.1	win	2022-12-19	18:21:07	18:25:26	255359	60a1e1f4a3707c983a98f185	847547205	1	main_slash	7	advance_on_keypress_SLASH	80	stimuli_distractor_diamondtriangles.svg	stimuli_distractor_trianglediamonds.svg	37	no	57	0	490
6.6.1	win	2022-12-19	18:21:07	18:25:28	257249	60a1e1f4a3707c983a98f185	847547205	1	main_slash	7	main_slash	81	stimuli_target_trianglecircles.svg	stimuli_distractor_trianglediamonds.svg	17	yes	53	1	760
6.6.1	win	2022-12-19	18:21:07	18:25:28	257249	60a1e1f4a3707c983a98f185	847547205	1	main_slash	7	advance_on_keypress_SLASH	82	stimuli_target_trianglecircles.svg	stimuli_distractor_trianglediamonds.svg	17	yes	57	0	462
6.6.1	win	2022-12-19	18:21:07	18:25:30	259263	60a1e1f4a3707c983a98f185	847547205	1	main_slash	7	main_slash	83	stimuli_target_squarediamonds.svg	stimuli_distractor_trianglediamonds.svg	4	yes	53	1	909
6.6.1	win	2022-12-19	18:21:07	18:25:30	259263	60a1e1f4a3707c983a98f185	847547205	1	main_slash	7	advance_on_keypress_SLASH	84	stimuli_target_squarediamonds.svg	stimuli_distractor_trianglediamonds.svg	4	yes	57	0	605
6.6.1	win	2022-12-19	18:21:07	18:25:32	262155	60a1e1f4a3707c983a98f185	847547205	1	main_slash	7	main_slash	85	stimuli_distractor_trianglediamonds.svg	stimuli_target_diamondsquares.svg	28	yes	53	1	1652
6.6.1	win	2022-12-19	18:21:07	18:25:32	262155	60a1e1f4a3707c983a98f185	847547205	1	main_slash	7	advance_on_keypress_SLASH	86	stimuli_distractor_trianglediamonds.svg	stimuli_target_diamondsquares.svg	28	yes	57	0	399
6.6.1	win	2022-12-19	18:21:07	18:25:35	264718	60a1e1f4a3707c983a98f185	847547205	1	main_slash	7	main_slash	87	stimuli_target_circletriangles.svg	stimuli_distractor_diamondtriangles.svg	5	yes	53	1	1518
6.6.1	win	2022-12-19	18:21:07	18:25:35	264718	60a1e1f4a3707c983a98f185	847547205	1	main_slash	7	advance_on_keypress_SLASH	88	stimuli_target_circletriangles.svg	stimuli_distractor_diamondtriangles.svg	5	yes	57	0	480
6.6.1	win	2022-12-19	18:21:07	18:25:37	266787	60a1e1f4a3707c983a98f185	847547205	1	main_slash	7	main_slash	89	stimuli_distractor_trianglediamonds.svg	stimuli_target_squarediamonds.svg	12	yes	53	1	939
6.6.1	win	2022-12-19	18:21:07	18:25:37	266787	60a1e1f4a3707c983a98f185	847547205	1	main_slash	7	advance_on_keypress_SLASH	90	stimuli_distractor_trianglediamonds.svg	stimuli_target_squarediamonds.svg	12	yes	57	0	698
6.6.1	win	2022-12-19	18:21:07	18:25:39	269077	60a1e1f4a3707c983a98f185	847547205	1	main_slash	7	main_slash	91	stimuli_distractor_trianglediamonds.svg	stimuli_target_diamondcircles.svg	27	yes	53	1	949
6.6.1	win	2022-12-19	18:21:07	18:25:39	269077	60a1e1f4a3707c983a98f185	847547205	1	main_slash	7	advance_on_keypress_SLASH	92	stimuli_distractor_trianglediamonds.svg	stimuli_target_diamondcircles.svg	27	yes	57	0	664
6.6.1	win	2022-12-19	18:21:07	18:25:42	271318	60a1e1f4a3707c983a98f185	847547205	1	main_slash	7	main_slash	93	stimuli_distractor_diamondtriangles.svg	stimuli_target_circlediamonds.svg	14	yes	53	1	925
6.6.1	win	2022-12-19	18:21:07	18:25:42	271318	60a1e1f4a3707c983a98f185	847547205	1	main_slash	7	advance_on_keypress_SLASH	94	stimuli_distractor_diamondtriangles.svg	stimuli_target_circlediamonds.svg	14	yes	57	0	654
6.6.1	win	2022-12-19	18:21:07	18:25:45	274608	60a1e1f4a3707c983a98f185	847547205	1	main_slash	7	main_slash	95	stimuli_distractor_trianglediamonds.svg	stimuli_distractor_trianglediamonds.svg	34	no	0	1	2000
6.6.1	win	2022-12-19	18:21:07	18:25:45	274608	60a1e1f4a3707c983a98f185	847547205	1	main_slash	7	advance_on_keypress_SLASH	96	stimuli_distractor_trianglediamonds.svg	stimuli_distractor_trianglediamonds.svg	34	no	57	0	318
6.6.1	win	2022-12-19	18:21:07	18:25:47	276264	60a1e1f4a3707c983a98f185	847547205	1	main_slash	7	main_slash	97	stimuli_target_circletriangles.svg	stimuli_distractor_trianglediamonds.svg	1	yes	53	1	691
6.6.1	win	2022-12-19	18:21:07	18:25:47	276264	60a1e1f4a3707c983a98f185	847547205	1	main_slash	7	advance_on_keypress_SLASH	98	stimuli_target_circletriangles.svg	stimuli_distractor_trianglediamonds.svg	1	yes	57	0	608
6.6.1	win	2022-12-19	18:21:07	18:25:49	278482	60a1e1f4a3707c983a98f185	847547205	1	main_slash	7	main_slash	99	stimuli_target_diamondcircles.svg	stimuli_distractor_diamondtriangles.svg	23	yes	53	1	977
6.6.1	win	2022-12-19	18:21:07	18:25:49	278482	60a1e1f4a3707c983a98f185	847547205	1	main_slash	7	advance_on_keypress_SLASH	100	stimuli_target_diamondcircles.svg	stimuli_distractor_diamondtriangles.svg	23	yes	57	0	552
6.6.1	win	2022-12-19	18:21:07	18:25:51	280530	60a1e1f4a3707c983a98f185	847547205	1	main_slash	7	main_slash	101	stimuli_target_trianglecircles.svg	stimuli_distractor_diamondtriangles.svg	21	yes	53	1	845
6.6.1	win	2022-12-19	18:21:07	18:25:51	280530	60a1e1f4a3707c983a98f185	847547205	1	main_slash	7	advance_on_keypress_SLASH	102	stimuli_target_trianglecircles.svg	stimuli_distractor_diamondtriangles.svg	21	yes	57	0	592
6.6.1	win	2022-12-19	18:21:07	18:25:53	282569	60a1e1f4a3707c983a98f185	847547205	1	main_slash	7	main_slash	103	stimuli_distractor_trianglediamonds.svg	stimuli_target_circlediamonds.svg	10	yes	53	1	801
6.6.1	win	2022-12-19	18:21:07	18:25:53	282569	60a1e1f4a3707c983a98f185	847547205	1	main_slash	7	advance_on_keypress_SLASH	104	stimuli_distractor_trianglediamonds.svg	stimuli_target_circlediamonds.svg	10	yes	57	0	706
6.6.1	win	2022-12-19	18:21:07	18:25:55	284865	60a1e1f4a3707c983a98f185	847547205	1	main_slash	7	main_slash	105	stimuli_distractor_diamondtriangles.svg	stimuli_target_diamondsquares.svg	32	yes	53	1	950
6.6.1	win	2022-12-19	18:21:07	18:25:55	284865	60a1e1f4a3707c983a98f185	847547205	1	main_slash	7	advance_on_keypress_SLASH	106	stimuli_distractor_diamondtriangles.svg	stimuli_target_diamondsquares.svg	32	yes	57	0	509
6.6.1	win	2022-12-19	18:21:07	18:25:58	288014	60a1e1f4a3707c983a98f185	847547205	1	main_slash	7	main_slash	107	stimuli_distractor_diamondtriangles.svg	stimuli_distractor_diamondtriangles.svg	39	no	0	1	2000
6.6.1	win	2022-12-19	18:21:07	18:25:58	288014	60a1e1f4a3707c983a98f185	847547205	1	main_slash	7	advance_on_keypress_SLASH	108	stimuli_distractor_diamondtriangles.svg	stimuli_distractor_diamondtriangles.svg	39	no	57	0	757
6.6.1	win	2022-12-19	18:21:07	18:26:00	290079	60a1e1f4a3707c983a98f185	847547205	1	main_slash	7	main_slash	109	stimuli_target_squarediamonds.svg	stimuli_distractor_diamondtriangles.svg	8	yes	53	1	667
6.6.1	win	2022-12-19	18:21:07	18:26:00	290079	60a1e1f4a3707c983a98f185	847547205	1	main_slash	7	advance_on_keypress_SLASH	110	stimuli_target_squarediamonds.svg	stimuli_distractor_diamondtriangles.svg	8	yes	57	0	701
6.6.1	win	2022-12-19	18:21:07	18:26:03	292421	60a1e1f4a3707c983a98f185	847547205	1	main_slash	7	main_slash	111	stimuli_distractor_diamondtriangles.svg	stimuli_target_squarediamonds.svg	16	yes	53	1	995
6.6.1	win	2022-12-19	18:21:07	18:26:03	292421	60a1e1f4a3707c983a98f185	847547205	1	main_slash	7	advance_on_keypress_SLASH	112	stimuli_distractor_diamondtriangles.svg	stimuli_target_squarediamonds.svg	16	yes	57	0	694
6.6.1	win	2022-12-19	18:21:07	18:26:05	294707	60a1e1f4a3707c983a98f185	847547205	1	main_slash	7	main_slash	113	stimuli_distractor_trianglediamonds.svg	stimuli_target_trianglesquares.svg	26	yes	53	1	950
6.6.1	win	2022-12-19	18:21:07	18:26:05	294707	60a1e1f4a3707c983a98f185	847547205	1	main_slash	7	advance_on_keypress_SLASH	114	stimuli_distractor_trianglediamonds.svg	stimuli_target_trianglesquares.svg	26	yes	57	0	557
6.6.1	win	2022-12-19	18:21:07	18:26:07	296841	60a1e1f4a3707c983a98f185	847547205	1	main_slash	7	main_slash	115	stimuli_target_trianglesquares.svg	stimuli_distractor_trianglediamonds.svg	18	yes	53	1	935
6.6.1	win	2022-12-19	18:21:07	18:26:07	296841	60a1e1f4a3707c983a98f185	847547205	1	main_slash	7	advance_on_keypress_SLASH	116	stimuli_target_trianglesquares.svg	stimuli_distractor_trianglediamonds.svg	18	yes	57	0	542
6.6.1	win	2022-12-19	18:21:07	18:26:09	298982	60a1e1f4a3707c983a98f185	847547205	1	main_slash	7	main_slash	117	stimuli_target_diamondsquares.svg	stimuli_distractor_trianglediamonds.svg	20	yes	53	1	962
6.6.1	win	2022-12-19	18:21:07	18:26:09	298982	60a1e1f4a3707c983a98f185	847547205	1	main_slash	7	advance_on_keypress_SLASH	118	stimuli_target_diamondsquares.svg	stimuli_distractor_trianglediamonds.svg	20	yes	57	0	469
6.6.1	win	2022-12-19	18:21:07	18:26:11	301081	60a1e1f4a3707c983a98f185	847547205	1	main_slash	7	main_slash	119	stimuli_target_circlediamonds.svg	stimuli_distractor_trianglediamonds.svg	2	yes	53	1	979
6.6.1	win	2022-12-19	18:21:07	18:26:11	301081	60a1e1f4a3707c983a98f185	847547205	1	main_slash	7	advance_on_keypress_SLASH	120	stimuli_target_circlediamonds.svg	stimuli_distractor_trianglediamonds.svg	2	yes	57	0	568
6.6.1	win	2022-12-19	18:21:07	18:26:14	303231	60a1e1f4a3707c983a98f185	847547205	1	main_slash	7	main_slash	121	stimuli_target_diamondsquares.svg	stimuli_distractor_diamondtriangles.svg	24	yes	53	1	931
6.6.1	win	2022-12-19	18:21:07	18:26:14	303231	60a1e1f4a3707c983a98f185	847547205	1	main_slash	7	advance_on_keypress_SLASH	122	stimuli_target_diamondsquares.svg	stimuli_distractor_diamondtriangles.svg	24	yes	57	0	672
6.6.1	win	2022-12-19	18:21:07	18:26:16	305564	60a1e1f4a3707c983a98f185	847547205	1	main_slash	7	main_slash	123	stimuli_target_squaretriangles.svg	stimuli_distractor_diamondtriangles.svg	7	yes	53	1	1016
6.6.1	win	2022-12-19	18:21:07	18:26:16	305564	60a1e1f4a3707c983a98f185	847547205	1	main_slash	7	advance_on_keypress_SLASH	124	stimuli_target_squaretriangles.svg	stimuli_distractor_diamondtriangles.svg	7	yes	57	0	527
6.6.1	win	2022-12-19	18:21:07	18:26:18	307830	60a1e1f4a3707c983a98f185	847547205	1	main_slash	7	main_slash	125	stimuli_distractor_trianglediamonds.svg	stimuli_distractor_diamondtriangles.svg	35	no	53	0	1100
6.6.1	win	2022-12-19	18:21:07	18:26:18	307830	60a1e1f4a3707c983a98f185	847547205	1	main_slash	7	advance_on_keypress_SLASH	126	stimuli_distractor_trianglediamonds.svg	stimuli_distractor_diamondtriangles.svg	35	no	57	0	468
6.6.1	win	2022-12-19	18:21:07	18:26:20	309772	60a1e1f4a3707c983a98f185	847547205	1	main_slash	7	main_slash	127	stimuli_distractor_diamondtriangles.svg	stimuli_target_diamondcircles.svg	31	yes	53	1	829
6.6.1	win	2022-12-19	18:21:07	18:26:20	309772	60a1e1f4a3707c983a98f185	847547205	1	main_slash	7	advance_on_keypress_SLASH	128	stimuli_distractor_diamondtriangles.svg	stimuli_target_diamondcircles.svg	31	yes	57	0	450
6.6.1	win	2022-12-19	18:21:07	18:26:22	311933	60a1e1f4a3707c983a98f185	847547205	1	main_slash	7	main_slash	129	stimuli_target_circlediamonds.svg	stimuli_distractor_diamondtriangles.svg	6	yes	53	1	1058
6.6.1	win	2022-12-19	18:21:07	18:26:22	311933	60a1e1f4a3707c983a98f185	847547205	1	main_slash	7	advance_on_keypress_SLASH	130	stimuli_target_circlediamonds.svg	stimuli_distractor_diamondtriangles.svg	6	yes	57	0	617
6.6.1	win	2022-12-19	18:21:07	18:26:24	314143	60a1e1f4a3707c983a98f185	847547205	1	main_slash	7	main_slash	131	stimuli_distractor_trianglediamonds.svg	stimuli_target_circletriangles.svg	9	yes	53	1	953
6.6.1	win	2022-12-19	18:21:07	18:26:24	314143	60a1e1f4a3707c983a98f185	847547205	1	main_slash	7	advance_on_keypress_SLASH	132	stimuli_distractor_trianglediamonds.svg	stimuli_target_circletriangles.svg	9	yes	57	0	598
6.6.1	win	2022-12-19	18:21:07	18:26:27	316823	60a1e1f4a3707c983a98f185	847547205	1	main_slash	7	main_slash	133	stimuli_distractor_trianglediamonds.svg	stimuli_target_trianglecircles.svg	25	yes	53	1	1434
6.6.1	win	2022-12-19	18:21:07	18:26:27	316823	60a1e1f4a3707c983a98f185	847547205	1	main_slash	7	advance_on_keypress_SLASH	134	stimuli_distractor_trianglediamonds.svg	stimuli_target_trianglecircles.svg	25	yes	57	0	531
6.6.1	win	2022-12-19	18:21:07	18:26:30	320003	60a1e1f4a3707c983a98f185	847547205	1	main_slash	7	main_slash	135	stimuli_distractor_trianglediamonds.svg	stimuli_distractor_trianglediamonds.svg	33	no	0	1	2000
6.6.1	win	2022-12-19	18:21:07	18:26:30	320003	60a1e1f4a3707c983a98f185	847547205	1	main_slash	7	advance_on_keypress_SLASH	136	stimuli_distractor_trianglediamonds.svg	stimuli_distractor_trianglediamonds.svg	33	no	57	0	328
6.6.1	win	2022-12-19	18:21:07	18:26:33	322984	60a1e1f4a3707c983a98f185	847547205	1	main_slash	7	main_slash	137	stimuli_distractor_trianglediamonds.svg	stimuli_distractor_diamondtriangles.svg	36	no	0	1	2000
6.6.1	win	2022-12-19	18:21:07	18:26:33	322984	60a1e1f4a3707c983a98f185	847547205	1	main_slash	7	advance_on_keypress_SLASH	138	stimuli_distractor_trianglediamonds.svg	stimuli_distractor_diamondtriangles.svg	36	no	57	0	266
6.6.1	win	2022-12-19	18:21:07	18:26:35	324789	60a1e1f4a3707c983a98f185	847547205	1	main_slash	7	main_slash	139	stimuli_target_diamondcircles.svg	stimuli_distractor_trianglediamonds.svg	19	yes	53	1	891
6.6.1	win	2022-12-19	18:21:07	18:26:35	324789	60a1e1f4a3707c983a98f185	847547205	1	main_slash	7	advance_on_keypress_SLASH	140	stimuli_target_diamondcircles.svg	stimuli_distractor_trianglediamonds.svg	19	yes	57	0	435
6.6.1	win	2022-12-19	18:21:07	18:26:37	326823	60a1e1f4a3707c983a98f185	847547205	1	main_slash	7	main_slash	141	stimuli_distractor_diamondtriangles.svg	stimuli_target_trianglesquares.svg	30	yes	53	1	961
6.6.1	win	2022-12-19	18:21:07	18:26:37	326823	60a1e1f4a3707c983a98f185	847547205	1	main_slash	7	advance_on_keypress_SLASH	142	stimuli_distractor_diamondtriangles.svg	stimuli_target_trianglesquares.svg	30	yes	57	0	376
6.6.1	win	2022-12-19	18:21:07	18:26:39	328666	60a1e1f4a3707c983a98f185	847547205	1	main_slash	7	main_slash	143	stimuli_distractor_diamondtriangles.svg	stimuli_target_circletriangles.svg	13	yes	53	1	838
6.6.1	win	2022-12-19	18:21:07	18:26:39	328666	60a1e1f4a3707c983a98f185	847547205	1	main_slash	7	advance_on_keypress_SLASH	144	stimuli_distractor_diamondtriangles.svg	stimuli_target_circletriangles.svg	13	yes	57	0	374
6.6.1	win	2022-12-19	18:21:07	18:26:42	331676	60a1e1f4a3707c983a98f185	847547205	1	main_slash	7	main_slash	145	stimuli_distractor_diamondtriangles.svg	stimuli_distractor_trianglediamonds.svg	37	no	0	1	2000
6.6.1	win	2022-12-19	18:21:07	18:26:42	331676	60a1e1f4a3707c983a98f185	847547205	1	main_slash	7	advance_on_keypress_SLASH	146	stimuli_distractor_diamondtriangles.svg	stimuli_distractor_trianglediamonds.svg	37	no	57	0	255
6.6.1	win	2022-12-19	18:21:07	18:26:44	333461	60a1e1f4a3707c983a98f185	847547205	1	main_slash	7	main_slash	147	stimuli_target_trianglesquares.svg	stimuli_distractor_diamondtriangles.svg	22	yes	53	1	887
6.6.1	win	2022-12-19	18:21:07	18:26:44	333461	60a1e1f4a3707c983a98f185	847547205	1	main_slash	7	advance_on_keypress_SLASH	148	stimuli_target_trianglesquares.svg	stimuli_distractor_diamondtriangles.svg	22	yes	57	0	438
6.6.1	win	2022-12-19	18:21:07	18:26:47	336539	60a1e1f4a3707c983a98f185	847547205	1	main_slash	7	main_slash	149	stimuli_distractor_diamondtriangles.svg	stimuli_distractor_trianglediamonds.svg	38	no	0	1	2000
6.6.1	win	2022-12-19	18:21:07	18:26:47	336539	60a1e1f4a3707c983a98f185	847547205	1	main_slash	7	advance_on_keypress_SLASH	150	stimuli_distractor_diamondtriangles.svg	stimuli_distractor_trianglediamonds.svg	38	no	57	0	251
6.6.1	win	2022-12-19	18:21:07	18:26:48	338154	60a1e1f4a3707c983a98f185	847547205	1	main_slash	7	main_slash	151	stimuli_distractor_diamondtriangles.svg	stimuli_target_trianglecircles.svg	29	yes	53	1	718
6.6.1	win	2022-12-19	18:21:07	18:26:48	338154	60a1e1f4a3707c983a98f185	847547205	1	main_slash	7	advance_on_keypress_SLASH	152	stimuli_distractor_diamondtriangles.svg	stimuli_target_trianglecircles.svg	29	yes	57	0	438
6.6.1	win	2022-12-19	18:21:07	18:26:50	340112	60a1e1f4a3707c983a98f185	847547205	1	main_slash	7	main_slash	153	stimuli_target_squaretriangles.svg	stimuli_distractor_trianglediamonds.svg	3	yes	53	1	878
6.6.1	win	2022-12-19	18:21:07	18:26:50	340112	60a1e1f4a3707c983a98f185	847547205	1	main_slash	7	advance_on_keypress_SLASH	154	stimuli_target_squaretriangles.svg	stimuli_distractor_trianglediamonds.svg	3	yes	57	0	530
6.6.1	win	2022-12-19	18:21:07	18:26:54	343283	60a1e1f4a3707c983a98f185	847547205	1	main_slash	7	main_slash	155	stimuli_distractor_diamondtriangles.svg	stimuli_distractor_diamondtriangles.svg	40	no	0	1	2000
6.6.1	win	2022-12-19	18:21:07	18:26:54	343283	60a1e1f4a3707c983a98f185	847547205	1	main_slash	7	advance_on_keypress_SLASH	156	stimuli_distractor_diamondtriangles.svg	stimuli_distractor_diamondtriangles.svg	40	no	57	0	274
6.6.1	win	2022-12-19	18:21:07	18:26:55	345064	60a1e1f4a3707c983a98f185	847547205	1	main_slash	7	main_slash	157	stimuli_distractor_diamondtriangles.svg	stimuli_target_squaretriangles.svg	15	yes	53	1	867
6.6.1	win	2022-12-19	18:21:07	18:26:55	345064	60a1e1f4a3707c983a98f185	847547205	1	main_slash	7	advance_on_keypress_SLASH	158	stimuli_distractor_diamondtriangles.svg	stimuli_target_squaretriangles.svg	15	yes	57	0	573
6.6.1	win	2022-12-19	18:21:07	18:26:57	347123	60a1e1f4a3707c983a98f185	847547205	1	main_slash	7	main_slash	159	stimuli_distractor_trianglediamonds.svg	stimuli_target_squaretriangles.svg	11	yes	53	1	845
6.6.1	win	2022-12-19	18:21:07	18:26:57	347123	60a1e1f4a3707c983a98f185	847547205	1	main_slash	7	advance_on_keypress_SLASH	160	stimuli_distractor_trianglediamonds.svg	stimuli_target_squaretriangles.svg	11	yes	57	0	585
6.6.1	win	2022-12-19	18:21:07	18:27:14	364179	60a1e1f4a3707c983a98f185	847547205	1	practice_z	9	practice_z	1	stimuli_target_squarediamonds.svg	stimuli_distractor_diamondtriangles.svg	2	yes	44	1	563
6.6.1	win	2022-12-19	18:21:07	18:27:14	364179	60a1e1f4a3707c983a98f185	847547205	1	practice_z	9	advance_on_keypress_ZEE	2	stimuli_target_squarediamonds.svg	stimuli_distractor_diamondtriangles.svg	2	yes	57	0	537
6.6.1	win	2022-12-19	18:21:07	18:27:17	366689	60a1e1f4a3707c983a98f185	847547205	1	practice_z	9	practice_z	3	stimuli_target_circlediamonds.svg	stimuli_distractor_trianglediamonds.svg	4	yes	44	1	323
6.6.1	win	2022-12-19	18:21:07	18:27:17	366689	60a1e1f4a3707c983a98f185	847547205	1	practice_z	9	advance_on_keypress_ZEE	4	stimuli_target_circlediamonds.svg	stimuli_distractor_trianglediamonds.svg	4	yes	57	0	328
6.6.1	win	2022-12-19	18:21:07	18:27:21	370679	60a1e1f4a3707c983a98f185	847547205	1	practice_z	9	practice_z	5	stimuli_distractor_trianglediamonds.svg	stimuli_distractor_trianglediamonds.svg	15	no	0	1	2000
6.6.1	win	2022-12-19	18:21:07	18:27:21	370679	60a1e1f4a3707c983a98f185	847547205	1	practice_z	9	advance_on_keypress_ZEE	6	stimuli_distractor_trianglediamonds.svg	stimuli_distractor_trianglediamonds.svg	15	no	57	0	219
6.6.1	win	2022-12-19	18:21:07	18:27:23	372963	60a1e1f4a3707c983a98f185	847547205	1	practice_z	9	practice_z	7	stimuli_target_diamondsquares.svg	stimuli_distractor_trianglediamonds.svg	6	yes	44	1	422
6.6.1	win	2022-12-19	18:21:07	18:27:23	372963	60a1e1f4a3707c983a98f185	847547205	1	practice_z	9	advance_on_keypress_ZEE	8	stimuli_target_diamondsquares.svg	stimuli_distractor_trianglediamonds.svg	6	yes	57	0	337
6.6.1	win	2022-12-19	18:21:07	18:27:26	375323	60a1e1f4a3707c983a98f185	847547205	1	practice_z	9	practice_z	9	stimuli_target_squarediamonds.svg	stimuli_distractor_trianglediamonds.svg	5	yes	44	1	377
6.6.1	win	2022-12-19	18:21:07	18:27:26	375323	60a1e1f4a3707c983a98f185	847547205	1	practice_z	9	advance_on_keypress_ZEE	10	stimuli_target_squarediamonds.svg	stimuli_distractor_trianglediamonds.svg	5	yes	57	0	257
6.6.1	win	2022-12-19	18:21:07	18:27:30	379222	60a1e1f4a3707c983a98f185	847547205	1	practice_z	9	practice_z	11	stimuli_distractor_trianglediamonds.svg	stimuli_distractor_diamondtriangles.svg	16	no	0	1	2000
6.6.1	win	2022-12-19	18:21:07	18:27:30	379222	60a1e1f4a3707c983a98f185	847547205	1	practice_z	9	advance_on_keypress_ZEE	12	stimuli_distractor_trianglediamonds.svg	stimuli_distractor_diamondtriangles.svg	16	no	57	0	370
6.6.1	win	2022-12-19	18:21:07	18:27:34	383235	60a1e1f4a3707c983a98f185	847547205	1	practice_z	9	practice_z	13	stimuli_distractor_diamondtriangles.svg	stimuli_distractor_diamondtriangles.svg	13	no	0	1	2000
6.6.1	win	2022-12-19	18:21:07	18:27:34	383235	60a1e1f4a3707c983a98f185	847547205	1	practice_z	9	advance_on_keypress_ZEE	14	stimuli_distractor_diamondtriangles.svg	stimuli_distractor_diamondtriangles.svg	13	no	57	0	264
6.6.1	win	2022-12-19	18:21:07	18:27:36	385751	60a1e1f4a3707c983a98f185	847547205	1	practice_z	9	practice_z	15	stimuli_target_diamondsquares.svg	stimuli_distractor_diamondtriangles.svg	3	yes	44	1	604
6.6.1	win	2022-12-19	18:21:07	18:27:36	385751	60a1e1f4a3707c983a98f185	847547205	1	practice_z	9	advance_on_keypress_ZEE	16	stimuli_target_diamondsquares.svg	stimuli_distractor_diamondtriangles.svg	3	yes	57	0	357
6.6.1	win	2022-12-19	18:21:07	18:27:38	388136	60a1e1f4a3707c983a98f185	847547205	1	practice_z	9	practice_z	17	stimuli_target_circlediamonds.svg	stimuli_distractor_diamondtriangles.svg	1	yes	44	1	391
6.6.1	win	2022-12-19	18:21:07	18:27:38	388136	60a1e1f4a3707c983a98f185	847547205	1	practice_z	9	advance_on_keypress_ZEE	18	stimuli_target_circlediamonds.svg	stimuli_distractor_diamondtriangles.svg	1	yes	57	0	289
6.6.1	win	2022-12-19	18:21:07	18:27:41	390634	60a1e1f4a3707c983a98f185	847547205	1	practice_z	9	practice_z	19	stimuli_distractor_trianglediamonds.svg	stimuli_target_circlediamonds.svg	10	yes	44	1	575
6.6.1	win	2022-12-19	18:21:07	18:27:41	390634	60a1e1f4a3707c983a98f185	847547205	1	practice_z	9	advance_on_keypress_ZEE	20	stimuli_distractor_trianglediamonds.svg	stimuli_target_circlediamonds.svg	10	yes	57	0	257
6.6.1	win	2022-12-19	18:21:07	18:27:45	394525	60a1e1f4a3707c983a98f185	847547205	1	practice_z	9	practice_z	21	stimuli_distractor_diamondtriangles.svg	stimuli_distractor_trianglediamonds.svg	14	no	0	1	2000
6.6.1	win	2022-12-19	18:21:07	18:27:45	394525	60a1e1f4a3707c983a98f185	847547205	1	practice_z	9	advance_on_keypress_ZEE	22	stimuli_distractor_diamondtriangles.svg	stimuli_distractor_trianglediamonds.svg	14	no	57	0	375
6.6.1	win	2022-12-19	18:21:07	18:27:47	396921	60a1e1f4a3707c983a98f185	847547205	1	practice_z	9	practice_z	23	stimuli_distractor_diamondtriangles.svg	stimuli_target_diamondcircles.svg	8	yes	44	1	370
6.6.1	win	2022-12-19	18:21:07	18:27:47	396921	60a1e1f4a3707c983a98f185	847547205	1	practice_z	9	advance_on_keypress_ZEE	24	stimuli_distractor_diamondtriangles.svg	stimuli_target_diamondcircles.svg	8	yes	57	0	338
6.6.1	win	2022-12-19	18:21:07	18:27:50	399458	60a1e1f4a3707c983a98f185	847547205	1	practice_z	9	practice_z	25	stimuli_distractor_diamondtriangles.svg	stimuli_target_circletriangles.svg	7	yes	44	1	555
6.6.1	win	2022-12-19	18:21:07	18:27:50	399458	60a1e1f4a3707c983a98f185	847547205	1	practice_z	9	advance_on_keypress_ZEE	26	stimuli_distractor_diamondtriangles.svg	stimuli_target_circletriangles.svg	7	yes	57	0	265
6.6.1	win	2022-12-19	18:21:07	18:27:52	401950	60a1e1f4a3707c983a98f185	847547205	1	practice_z	9	practice_z	27	stimuli_distractor_diamondtriangles.svg	stimuli_target_trianglecircles.svg	9	yes	44	1	582
6.6.1	win	2022-12-19	18:21:07	18:27:52	401950	60a1e1f4a3707c983a98f185	847547205	1	practice_z	9	advance_on_keypress_ZEE	28	stimuli_distractor_diamondtriangles.svg	stimuli_target_trianglecircles.svg	9	yes	57	0	263
6.6.1	win	2022-12-19	18:21:07	18:27:55	404403	60a1e1f4a3707c983a98f185	847547205	1	practice_z	9	practice_z	29	stimuli_distractor_trianglediamonds.svg	stimuli_target_squarediamonds.svg	11	yes	44	1	538
6.6.1	win	2022-12-19	18:21:07	18:27:55	404403	60a1e1f4a3707c983a98f185	847547205	1	practice_z	9	advance_on_keypress_ZEE	30	stimuli_distractor_trianglediamonds.svg	stimuli_target_squarediamonds.svg	11	yes	57	0	242
6.6.1	win	2022-12-19	18:21:07	18:27:57	406796	60a1e1f4a3707c983a98f185	847547205	1	practice_z	9	practice_z	31	stimuli_distractor_trianglediamonds.svg	stimuli_target_diamondcircles.svg	12	yes	44	1	509
6.6.1	win	2022-12-19	18:21:07	18:27:57	406796	60a1e1f4a3707c983a98f185	847547205	1	practice_z	9	advance_on_keypress_ZEE	32	stimuli_distractor_trianglediamonds.svg	stimuli_target_diamondcircles.svg	12	yes	57	0	313
6.6.1	win	2022-12-19	18:21:07	18:28:03	412307	60a1e1f4a3707c983a98f185	847547205	1	main_z	11	main_z	1	stimuli_distractor_diamondtriangles.svg	stimuli_target_squaretriangles.svg	15	yes	44	1	1385
6.6.1	win	2022-12-19	18:21:07	18:28:03	412307	60a1e1f4a3707c983a98f185	847547205	1	main_z	11	advance_on_keypress_ZEE	2	stimuli_distractor_diamondtriangles.svg	stimuli_target_squaretriangles.svg	15	yes	57	0	607
6.6.1	win	2022-12-19	18:21:07	18:28:04	414080	60a1e1f4a3707c983a98f185	847547205	1	main_z	11	main_z	3	stimuli_target_diamondsquares.svg	stimuli_distractor_trianglediamonds.svg	20	yes	44	1	527
6.6.1	win	2022-12-19	18:21:07	18:28:04	414080	60a1e1f4a3707c983a98f185	847547205	1	main_z	11	advance_on_keypress_ZEE	4	stimuli_target_diamondsquares.svg	stimuli_distractor_trianglediamonds.svg	20	yes	57	0	492
6.6.1	win	2022-12-19	18:21:07	18:28:07	417204	60a1e1f4a3707c983a98f185	847547205	1	main_z	11	main_z	5	stimuli_distractor_diamondtriangles.svg	stimuli_distractor_diamondtriangles.svg	39	no	0	1	2000
6.6.1	win	2022-12-19	18:21:07	18:28:07	417204	60a1e1f4a3707c983a98f185	847547205	1	main_z	11	advance_on_keypress_ZEE	6	stimuli_distractor_diamondtriangles.svg	stimuli_distractor_diamondtriangles.svg	39	no	57	0	652
6.6.1	win	2022-12-19	18:21:07	18:28:11	420500	60a1e1f4a3707c983a98f185	847547205	1	main_z	11	main_z	7	stimuli_distractor_diamondtriangles.svg	stimuli_distractor_trianglediamonds.svg	38	no	0	1	2000
6.6.1	win	2022-12-19	18:21:07	18:28:11	420500	60a1e1f4a3707c983a98f185	847547205	1	main_z	11	advance_on_keypress_ZEE	8	stimuli_distractor_diamondtriangles.svg	stimuli_distractor_trianglediamonds.svg	38	no	57	0	269
6.6.1	win	2022-12-19	18:21:07	18:28:12	421764	60a1e1f4a3707c983a98f185	847547205	1	main_z	11	main_z	9	stimuli_distractor_diamondtriangles.svg	stimuli_target_trianglesquares.svg	30	yes	44	1	351
6.6.1	win	2022-12-19	18:21:07	18:28:12	421764	60a1e1f4a3707c983a98f185	847547205	1	main_z	11	advance_on_keypress_ZEE	10	stimuli_distractor_diamondtriangles.svg	stimuli_target_trianglesquares.svg	30	yes	57	0	428
6.6.1	win	2022-12-19	18:21:07	18:28:14	423529	60a1e1f4a3707c983a98f185	847547205	1	main_z	11	main_z	11	stimuli_target_circletriangles.svg	stimuli_distractor_trianglediamonds.svg	1	yes	44	1	683
6.6.1	win	2022-12-19	18:21:07	18:28:14	423529	60a1e1f4a3707c983a98f185	847547205	1	main_z	11	advance_on_keypress_ZEE	12	stimuli_target_circletriangles.svg	stimuli_distractor_trianglediamonds.svg	1	yes	57	0	451
6.6.1	win	2022-12-19	18:21:07	18:28:16	425300	60a1e1f4a3707c983a98f185	847547205	1	main_z	11	main_z	13	stimuli_distractor_trianglediamonds.svg	stimuli_distractor_diamondtriangles.svg	35	no	44	0	672
6.6.1	win	2022-12-19	18:21:07	18:28:16	425300	60a1e1f4a3707c983a98f185	847547205	1	main_z	11	advance_on_keypress_ZEE	14	stimuli_distractor_trianglediamonds.svg	stimuli_distractor_diamondtriangles.svg	35	no	57	0	404
6.6.1	win	2022-12-19	18:21:07	18:28:17	426754	60a1e1f4a3707c983a98f185	847547205	1	main_z	11	main_z	15	stimuli_target_squarediamonds.svg	stimuli_distractor_trianglediamonds.svg	4	yes	44	1	412
6.6.1	win	2022-12-19	18:21:07	18:28:17	426754	60a1e1f4a3707c983a98f185	847547205	1	main_z	11	advance_on_keypress_ZEE	16	stimuli_target_squarediamonds.svg	stimuli_distractor_trianglediamonds.svg	4	yes	57	0	455
6.6.1	win	2022-12-19	18:21:07	18:28:19	428256	60a1e1f4a3707c983a98f185	847547205	1	main_z	11	main_z	17	stimuli_distractor_trianglediamonds.svg	stimuli_target_circlediamonds.svg	10	yes	44	1	414
6.6.1	win	2022-12-19	18:21:07	18:28:19	428256	60a1e1f4a3707c983a98f185	847547205	1	main_z	11	advance_on_keypress_ZEE	18	stimuli_distractor_trianglediamonds.svg	stimuli_target_circlediamonds.svg	10	yes	57	0	385
6.6.1	win	2022-12-19	18:21:07	18:28:20	429706	60a1e1f4a3707c983a98f185	847547205	1	main_z	11	main_z	19	stimuli_target_trianglecircles.svg	stimuli_distractor_trianglediamonds.svg	17	yes	44	1	416
6.6.1	win	2022-12-19	18:21:07	18:28:20	429706	60a1e1f4a3707c983a98f185	847547205	1	main_z	11	advance_on_keypress_ZEE	20	stimuli_target_trianglecircles.svg	stimuli_distractor_trianglediamonds.svg	17	yes	57	0	380
6.6.1	win	2022-12-19	18:21:07	18:28:21	431138	60a1e1f4a3707c983a98f185	847547205	1	main_z	11	main_z	21	stimuli_distractor_diamondtriangles.svg	stimuli_target_circlediamonds.svg	14	yes	44	1	375
6.6.1	win	2022-12-19	18:21:07	18:28:21	431138	60a1e1f4a3707c983a98f185	847547205	1	main_z	11	advance_on_keypress_ZEE	22	stimuli_distractor_diamondtriangles.svg	stimuli_target_circlediamonds.svg	14	yes	57	0	405
6.6.1	win	2022-12-19	18:21:07	18:28:23	432762	60a1e1f4a3707c983a98f185	847547205	1	main_z	11	main_z	23	stimuli_target_trianglesquares.svg	stimuli_distractor_diamondtriangles.svg	22	yes	44	1	575
6.6.1	win	2022-12-19	18:21:07	18:28:23	432762	60a1e1f4a3707c983a98f185	847547205	1	main_z	11	advance_on_keypress_ZEE	24	stimuli_target_trianglesquares.svg	stimuli_distractor_diamondtriangles.svg	22	yes	57	0	452
6.6.1	win	2022-12-19	18:21:07	18:28:25	434409	60a1e1f4a3707c983a98f185	847547205	1	main_z	11	main_z	25	stimuli_target_diamondcircles.svg	stimuli_distractor_diamondtriangles.svg	23	yes	44	1	556
6.6.1	win	2022-12-19	18:21:07	18:28:25	434409	60a1e1f4a3707c983a98f185	847547205	1	main_z	11	advance_on_keypress_ZEE	26	stimuli_target_diamondcircles.svg	stimuli_distractor_diamondtriangles.svg	23	yes	57	0	373
6.6.1	win	2022-12-19	18:21:07	18:28:26	436020	60a1e1f4a3707c983a98f185	847547205	1	main_z	11	main_z	27	stimuli_distractor_diamondtriangles.svg	stimuli_target_trianglecircles.svg	29	yes	44	1	602
6.6.1	win	2022-12-19	18:21:07	18:28:26	436020	60a1e1f4a3707c983a98f185	847547205	1	main_z	11	advance_on_keypress_ZEE	28	stimuli_distractor_diamondtriangles.svg	stimuli_target_trianglecircles.svg	29	yes	57	0	403
6.6.1	win	2022-12-19	18:21:07	18:28:28	437692	60a1e1f4a3707c983a98f185	847547205	1	main_z	11	main_z	29	stimuli_target_circlediamonds.svg	stimuli_distractor_trianglediamonds.svg	2	yes	44	1	625
6.6.1	win	2022-12-19	18:21:07	18:28:28	437692	60a1e1f4a3707c983a98f185	847547205	1	main_z	11	advance_on_keypress_ZEE	30	stimuli_target_circlediamonds.svg	stimuli_distractor_trianglediamonds.svg	2	yes	57	0	395
6.6.1	win	2022-12-19	18:21:07	18:28:31	440733	60a1e1f4a3707c983a98f185	847547205	1	main_z	11	main_z	31	stimuli_distractor_diamondtriangles.svg	stimuli_distractor_trianglediamonds.svg	37	no	0	1	2000
6.6.1	win	2022-12-19	18:21:07	18:28:31	440733	60a1e1f4a3707c983a98f185	847547205	1	main_z	11	advance_on_keypress_ZEE	32	stimuli_distractor_diamondtriangles.svg	stimuli_distractor_trianglediamonds.svg	37	no	57	0	803
6.6.1	win	2022-12-19	18:21:07	18:28:33	442773	60a1e1f4a3707c983a98f185	847547205	1	main_z	11	main_z	33	stimuli_distractor_trianglediamonds.svg	stimuli_target_circletriangles.svg	9	yes	44	1	593
6.6.1	win	2022-12-19	18:21:07	18:28:33	442773	60a1e1f4a3707c983a98f185	847547205	1	main_z	11	advance_on_keypress_ZEE	34	stimuli_distractor_trianglediamonds.svg	stimuli_target_circletriangles.svg	9	yes	57	0	434
6.6.1	win	2022-12-19	18:21:07	18:28:35	444656	60a1e1f4a3707c983a98f185	847547205	1	main_z	11	main_z	35	stimuli_distractor_diamondtriangles.svg	stimuli_target_diamondsquares.svg	32	yes	44	1	811
6.6.1	win	2022-12-19	18:21:07	18:28:35	444656	60a1e1f4a3707c983a98f185	847547205	1	main_z	11	advance_on_keypress_ZEE	36	stimuli_distractor_diamondtriangles.svg	stimuli_target_diamondsquares.svg	32	yes	57	0	380
6.6.1	win	2022-12-19	18:21:07	18:28:37	446617	60a1e1f4a3707c983a98f185	847547205	1	main_z	11	main_z	37	stimuli_target_circlediamonds.svg	stimuli_distractor_diamondtriangles.svg	6	yes	44	1	941
6.6.1	win	2022-12-19	18:21:07	18:28:37	446617	60a1e1f4a3707c983a98f185	847547205	1	main_z	11	advance_on_keypress_ZEE	38	stimuli_target_circlediamonds.svg	stimuli_distractor_diamondtriangles.svg	6	yes	57	0	403
6.6.1	win	2022-12-19	18:21:07	18:28:39	448485	60a1e1f4a3707c983a98f185	847547205	1	main_z	11	main_z	39	stimuli_distractor_trianglediamonds.svg	stimuli_target_trianglesquares.svg	26	yes	44	1	827
6.6.1	win	2022-12-19	18:21:07	18:28:39	448485	60a1e1f4a3707c983a98f185	847547205	1	main_z	11	advance_on_keypress_ZEE	40	stimuli_distractor_trianglediamonds.svg	stimuli_target_trianglesquares.svg	26	yes	57	0	358
6.6.1	win	2022-12-19	18:21:07	18:28:41	450429	60a1e1f4a3707c983a98f185	847547205	1	main_z	11	main_z	41	stimuli_target_diamondsquares.svg	stimuli_distractor_diamondtriangles.svg	24	yes	44	1	956
6.6.1	win	2022-12-19	18:21:07	18:28:41	450429	60a1e1f4a3707c983a98f185	847547205	1	main_z	11	advance_on_keypress_ZEE	42	stimuli_target_diamondsquares.svg	stimuli_distractor_diamondtriangles.svg	24	yes	57	0	421
6.6.1	win	2022-12-19	18:21:07	18:28:44	453489	60a1e1f4a3707c983a98f185	847547205	1	main_z	11	main_z	43	stimuli_distractor_trianglediamonds.svg	stimuli_target_diamondsquares.svg	28	yes	0	0	2000
6.6.1	win	2022-12-19	18:21:07	18:28:44	453489	60a1e1f4a3707c983a98f185	847547205	1	main_z	11	advance_on_keypress_ZEE	44	stimuli_distractor_trianglediamonds.svg	stimuli_target_diamondsquares.svg	28	yes	57	0	496
6.6.1	win	2022-12-19	18:21:07	18:28:45	455187	60a1e1f4a3707c983a98f185	847547205	1	main_z	11	main_z	45	stimuli_distractor_trianglediamonds.svg	stimuli_target_squarediamonds.svg	12	yes	44	1	552
6.6.1	win	2022-12-19	18:21:07	18:28:45	455187	60a1e1f4a3707c983a98f185	847547205	1	main_z	11	advance_on_keypress_ZEE	46	stimuli_distractor_trianglediamonds.svg	stimuli_target_squarediamonds.svg	12	yes	57	0	535
6.6.1	win	2022-12-19	18:21:07	18:28:49	458367	60a1e1f4a3707c983a98f185	847547205	1	main_z	11	main_z	47	stimuli_distractor_diamondtriangles.svg	stimuli_distractor_diamondtriangles.svg	40	no	0	1	2000
6.6.1	win	2022-12-19	18:21:07	18:28:49	458367	60a1e1f4a3707c983a98f185	847547205	1	main_z	11	advance_on_keypress_ZEE	48	stimuli_distractor_diamondtriangles.svg	stimuli_distractor_diamondtriangles.svg	40	no	57	0	275
6.6.1	win	2022-12-19	18:21:07	18:28:50	459903	60a1e1f4a3707c983a98f185	847547205	1	main_z	11	main_z	49	stimuli_distractor_trianglediamonds.svg	stimuli_target_diamondcircles.svg	27	yes	44	1	622
6.6.1	win	2022-12-19	18:21:07	18:28:50	459903	60a1e1f4a3707c983a98f185	847547205	1	main_z	11	advance_on_keypress_ZEE	50	stimuli_distractor_trianglediamonds.svg	stimuli_target_diamondcircles.svg	27	yes	57	0	405
6.6.1	win	2022-12-19	18:21:07	18:28:52	461798	60a1e1f4a3707c983a98f185	847547205	1	main_z	11	main_z	51	stimuli_target_circletriangles.svg	stimuli_distractor_diamondtriangles.svg	5	yes	44	1	850
6.6.1	win	2022-12-19	18:21:07	18:28:52	461798	60a1e1f4a3707c983a98f185	847547205	1	main_z	11	advance_on_keypress_ZEE	52	stimuli_target_circletriangles.svg	stimuli_distractor_diamondtriangles.svg	5	yes	57	0	398
6.6.1	win	2022-12-19	18:21:07	18:28:55	464845	60a1e1f4a3707c983a98f185	847547205	1	main_z	11	main_z	53	stimuli_distractor_trianglediamonds.svg	stimuli_distractor_diamondtriangles.svg	36	no	0	1	2000
6.6.1	win	2022-12-19	18:21:07	18:28:55	464845	60a1e1f4a3707c983a98f185	847547205	1	main_z	11	advance_on_keypress_ZEE	54	stimuli_distractor_trianglediamonds.svg	stimuli_distractor_diamondtriangles.svg	36	no	57	0	429
6.6.1	win	2022-12-19	18:21:07	18:28:57	466441	60a1e1f4a3707c983a98f185	847547205	1	main_z	11	main_z	55	stimuli_target_diamondcircles.svg	stimuli_distractor_trianglediamonds.svg	19	yes	44	1	504
6.6.1	win	2022-12-19	18:21:07	18:28:57	466441	60a1e1f4a3707c983a98f185	847547205	1	main_z	11	advance_on_keypress_ZEE	56	stimuli_target_diamondcircles.svg	stimuli_distractor_trianglediamonds.svg	19	yes	57	0	378
6.6.1	win	2022-12-19	18:21:07	18:28:58	468041	60a1e1f4a3707c983a98f185	847547205	1	main_z	11	main_z	57	stimuli_distractor_diamondtriangles.svg	stimuli_target_squarediamonds.svg	16	yes	44	1	583
6.6.1	win	2022-12-19	18:21:07	18:28:58	468041	60a1e1f4a3707c983a98f185	847547205	1	main_z	11	advance_on_keypress_ZEE	58	stimuli_distractor_diamondtriangles.svg	stimuli_target_squarediamonds.svg	16	yes	57	0	379
6.6.1	win	2022-12-19	18:21:07	18:29:00	469642	60a1e1f4a3707c983a98f185	847547205	1	main_z	11	main_z	59	stimuli_target_trianglecircles.svg	stimuli_distractor_diamondtriangles.svg	21	yes	44	1	569
6.6.1	win	2022-12-19	18:21:07	18:29:00	469642	60a1e1f4a3707c983a98f185	847547205	1	main_z	11	advance_on_keypress_ZEE	60	stimuli_target_trianglecircles.svg	stimuli_distractor_diamondtriangles.svg	21	yes	57	0	349
6.6.1	win	2022-12-19	18:21:07	18:29:02	471253	60a1e1f4a3707c983a98f185	847547205	1	main_z	11	main_z	61	stimuli_target_trianglesquares.svg	stimuli_distractor_trianglediamonds.svg	18	yes	44	1	615
6.6.1	win	2022-12-19	18:21:07	18:29:02	471253	60a1e1f4a3707c983a98f185	847547205	1	main_z	11	advance_on_keypress_ZEE	62	stimuli_target_trianglesquares.svg	stimuli_distractor_trianglediamonds.svg	18	yes	57	0	402
6.6.1	win	2022-12-19	18:21:07	18:29:04	473509	60a1e1f4a3707c983a98f185	847547205	1	main_z	11	main_z	63	stimuli_target_squarediamonds.svg	stimuli_distractor_diamondtriangles.svg	8	yes	44	1	1206
6.6.1	win	2022-12-19	18:21:07	18:29:04	473509	60a1e1f4a3707c983a98f185	847547205	1	main_z	11	advance_on_keypress_ZEE	64	stimuli_target_squarediamonds.svg	stimuli_distractor_diamondtriangles.svg	8	yes	57	0	341
6.6.1	win	2022-12-19	18:21:07	18:29:05	474934	60a1e1f4a3707c983a98f185	847547205	1	main_z	11	main_z	65	stimuli_distractor_diamondtriangles.svg	stimuli_target_diamondcircles.svg	31	yes	44	1	450
6.6.1	win	2022-12-19	18:21:07	18:29:05	474934	60a1e1f4a3707c983a98f185	847547205	1	main_z	11	advance_on_keypress_ZEE	66	stimuli_distractor_diamondtriangles.svg	stimuli_target_diamondcircles.svg	31	yes	57	0	363
6.6.1	win	2022-12-19	18:21:07	18:29:07	476545	60a1e1f4a3707c983a98f185	847547205	1	main_z	11	main_z	67	stimuli_target_squaretriangles.svg	stimuli_distractor_trianglediamonds.svg	3	yes	44	1	595
6.6.1	win	2022-12-19	18:21:07	18:29:07	476545	60a1e1f4a3707c983a98f185	847547205	1	main_z	11	advance_on_keypress_ZEE	68	stimuli_target_squaretriangles.svg	stimuli_distractor_trianglediamonds.svg	3	yes	57	0	378
6.6.1	win	2022-12-19	18:21:07	18:29:08	478142	60a1e1f4a3707c983a98f185	847547205	1	main_z	11	main_z	69	stimuli_distractor_diamondtriangles.svg	stimuli_target_circletriangles.svg	13	yes	44	1	577
6.6.1	win	2022-12-19	18:21:07	18:29:08	478142	60a1e1f4a3707c983a98f185	847547205	1	main_z	11	advance_on_keypress_ZEE	70	stimuli_distractor_diamondtriangles.svg	stimuli_target_circletriangles.svg	13	yes	57	0	340
6.6.1	win	2022-12-19	18:21:07	18:29:10	479814	60a1e1f4a3707c983a98f185	847547205	1	main_z	11	main_z	71	stimuli_target_squaretriangles.svg	stimuli_distractor_diamondtriangles.svg	7	yes	44	1	699
6.6.1	win	2022-12-19	18:21:07	18:29:10	479814	60a1e1f4a3707c983a98f185	847547205	1	main_z	11	advance_on_keypress_ZEE	72	stimuli_target_squaretriangles.svg	stimuli_distractor_diamondtriangles.svg	7	yes	57	0	352
6.6.1	win	2022-12-19	18:21:07	18:29:13	482813	60a1e1f4a3707c983a98f185	847547205	1	main_z	11	main_z	73	stimuli_distractor_trianglediamonds.svg	stimuli_distractor_trianglediamonds.svg	34	no	0	1	2000
6.6.1	win	2022-12-19	18:21:07	18:29:13	482813	60a1e1f4a3707c983a98f185	847547205	1	main_z	11	advance_on_keypress_ZEE	74	stimuli_distractor_trianglediamonds.svg	stimuli_distractor_trianglediamonds.svg	34	no	57	0	295
6.6.1	win	2022-12-19	18:21:07	18:29:14	484199	60a1e1f4a3707c983a98f185	847547205	1	main_z	11	main_z	75	stimuli_distractor_trianglediamonds.svg	stimuli_target_squaretriangles.svg	11	yes	44	1	456
6.6.1	win	2022-12-19	18:21:07	18:29:14	484199	60a1e1f4a3707c983a98f185	847547205	1	main_z	11	advance_on_keypress_ZEE	76	stimuli_distractor_trianglediamonds.svg	stimuli_target_squaretriangles.svg	11	yes	57	0	349
6.6.1	win	2022-12-19	18:21:07	18:29:16	485616	60a1e1f4a3707c983a98f185	847547205	1	main_z	11	main_z	77	stimuli_distractor_trianglediamonds.svg	stimuli_target_trianglecircles.svg	25	yes	44	1	424
6.6.1	win	2022-12-19	18:21:07	18:29:16	485616	60a1e1f4a3707c983a98f185	847547205	1	main_z	11	advance_on_keypress_ZEE	78	stimuli_distractor_trianglediamonds.svg	stimuli_target_trianglecircles.svg	25	yes	57	0	399
6.6.1	win	2022-12-19	18:21:07	18:29:19	488658	60a1e1f4a3707c983a98f185	847547205	1	main_z	11	main_z	79	stimuli_distractor_trianglediamonds.svg	stimuli_distractor_trianglediamonds.svg	33	no	0	1	2000
6.6.1	win	2022-12-19	18:21:07	18:29:19	488658	60a1e1f4a3707c983a98f185	847547205	1	main_z	11	advance_on_keypress_ZEE	80	stimuli_distractor_trianglediamonds.svg	stimuli_distractor_trianglediamonds.svg	33	no	57	0	226
6.6.1	win	2022-12-19	18:21:07	18:29:20	490055	60a1e1f4a3707c983a98f185	847547205	1	main_z	11	main_z	81	stimuli_target_squarediamonds.svg	stimuli_distractor_diamondtriangles.svg	8	yes	44	1	534
6.6.1	win	2022-12-19	18:21:07	18:29:20	490055	60a1e1f4a3707c983a98f185	847547205	1	main_z	11	advance_on_keypress_ZEE	82	stimuli_target_squarediamonds.svg	stimuli_distractor_diamondtriangles.svg	8	yes	57	0	368
6.6.1	win	2022-12-19	18:21:07	18:29:22	491698	60a1e1f4a3707c983a98f185	847547205	1	main_z	11	main_z	83	stimuli_distractor_diamondtriangles.svg	stimuli_target_diamondsquares.svg	32	yes	44	1	627
6.6.1	win	2022-12-19	18:21:07	18:29:22	491698	60a1e1f4a3707c983a98f185	847547205	1	main_z	11	advance_on_keypress_ZEE	84	stimuli_distractor_diamondtriangles.svg	stimuli_target_diamondsquares.svg	32	yes	57	0	362
6.6.1	win	2022-12-19	18:21:07	18:29:24	493314	60a1e1f4a3707c983a98f185	847547205	1	main_z	11	main_z	85	stimuli_target_squaretriangles.svg	stimuli_distractor_diamondtriangles.svg	7	yes	44	1	628
6.6.1	win	2022-12-19	18:21:07	18:29:24	493314	60a1e1f4a3707c983a98f185	847547205	1	main_z	11	advance_on_keypress_ZEE	86	stimuli_target_squaretriangles.svg	stimuli_distractor_diamondtriangles.svg	7	yes	57	0	346
6.6.1	win	2022-12-19	18:21:07	18:29:27	496318	60a1e1f4a3707c983a98f185	847547205	1	main_z	11	main_z	87	stimuli_distractor_trianglediamonds.svg	stimuli_distractor_diamondtriangles.svg	35	no	0	1	2000
6.6.1	win	2022-12-19	18:21:07	18:29:27	496318	60a1e1f4a3707c983a98f185	847547205	1	main_z	11	advance_on_keypress_ZEE	88	stimuli_distractor_trianglediamonds.svg	stimuli_distractor_diamondtriangles.svg	35	no	57	0	748
6.6.1	win	2022-12-19	18:21:07	18:29:28	498107	60a1e1f4a3707c983a98f185	847547205	1	main_z	11	main_z	89	stimuli_target_trianglesquares.svg	stimuli_distractor_trianglediamonds.svg	18	yes	44	1	393
6.6.1	win	2022-12-19	18:21:07	18:29:28	498107	60a1e1f4a3707c983a98f185	847547205	1	main_z	11	advance_on_keypress_ZEE	90	stimuli_target_trianglesquares.svg	stimuli_distractor_trianglediamonds.svg	18	yes	57	0	437
6.6.1	win	2022-12-19	18:21:07	18:29:30	499608	60a1e1f4a3707c983a98f185	847547205	1	main_z	11	main_z	91	stimuli_distractor_trianglediamonds.svg	stimuli_target_squarediamonds.svg	12	yes	44	1	428
6.6.1	win	2022-12-19	18:21:07	18:29:30	499608	60a1e1f4a3707c983a98f185	847547205	1	main_z	11	advance_on_keypress_ZEE	92	stimuli_distractor_trianglediamonds.svg	stimuli_target_squarediamonds.svg	12	yes	57	0	393
6.6.1	win	2022-12-19	18:21:07	18:29:31	501039	60a1e1f4a3707c983a98f185	847547205	1	main_z	11	main_z	93	stimuli_distractor_trianglediamonds.svg	stimuli_target_circletriangles.svg	9	yes	44	1	411
6.6.1	win	2022-12-19	18:21:07	18:29:31	501039	60a1e1f4a3707c983a98f185	847547205	1	main_z	11	advance_on_keypress_ZEE	94	stimuli_distractor_trianglediamonds.svg	stimuli_target_circletriangles.svg	9	yes	57	0	366
6.6.1	win	2022-12-19	18:21:07	18:29:33	502541	60a1e1f4a3707c983a98f185	847547205	1	main_z	11	main_z	95	stimuli_distractor_diamondtriangles.svg	stimuli_target_circletriangles.svg	13	yes	44	1	496
6.6.1	win	2022-12-19	18:21:07	18:29:33	502541	60a1e1f4a3707c983a98f185	847547205	1	main_z	11	advance_on_keypress_ZEE	96	stimuli_distractor_diamondtriangles.svg	stimuli_target_circletriangles.svg	13	yes	57	0	312
6.6.1	win	2022-12-19	18:21:07	18:29:34	504085	60a1e1f4a3707c983a98f185	847547205	1	main_z	11	main_z	97	stimuli_distractor_trianglediamonds.svg	stimuli_distractor_diamondtriangles.svg	36	no	44	0	575
6.6.1	win	2022-12-19	18:21:07	18:29:34	504085	60a1e1f4a3707c983a98f185	847547205	1	main_z	11	advance_on_keypress_ZEE	98	stimuli_distractor_trianglediamonds.svg	stimuli_distractor_diamondtriangles.svg	36	no	57	0	536
6.6.1	win	2022-12-19	18:21:07	18:29:38	507258	60a1e1f4a3707c983a98f185	847547205	1	main_z	11	main_z	99	stimuli_distractor_diamondtriangles.svg	stimuli_distractor_diamondtriangles.svg	39	no	0	1	2000
6.6.1	win	2022-12-19	18:21:07	18:29:38	507258	60a1e1f4a3707c983a98f185	847547205	1	main_z	11	advance_on_keypress_ZEE	100	stimuli_distractor_diamondtriangles.svg	stimuli_distractor_diamondtriangles.svg	39	no	57	0	459
6.6.1	win	2022-12-19	18:21:07	18:29:39	508827	60a1e1f4a3707c983a98f185	847547205	1	main_z	11	main_z	101	stimuli_distractor_trianglediamonds.svg	stimuli_target_trianglecircles.svg	25	yes	44	1	472
6.6.1	win	2022-12-19	18:21:07	18:29:39	508827	60a1e1f4a3707c983a98f185	847547205	1	main_z	11	advance_on_keypress_ZEE	102	stimuli_distractor_trianglediamonds.svg	stimuli_target_trianglecircles.svg	25	yes	57	0	391
6.6.1	win	2022-12-19	18:21:07	18:29:41	510529	60a1e1f4a3707c983a98f185	847547205	1	main_z	11	main_z	103	stimuli_target_trianglecircles.svg	stimuli_distractor_diamondtriangles.svg	21	yes	44	1	675
6.6.1	win	2022-12-19	18:21:07	18:29:41	510529	60a1e1f4a3707c983a98f185	847547205	1	main_z	11	advance_on_keypress_ZEE	104	stimuli_target_trianglecircles.svg	stimuli_distractor_diamondtriangles.svg	21	yes	57	0	358
6.6.1	win	2022-12-19	18:21:07	18:29:42	511989	60a1e1f4a3707c983a98f185	847547205	1	main_z	11	main_z	105	stimuli_distractor_diamondtriangles.svg	stimuli_target_circlediamonds.svg	14	yes	44	1	470
6.6.1	win	2022-12-19	18:21:07	18:29:42	511989	60a1e1f4a3707c983a98f185	847547205	1	main_z	11	advance_on_keypress_ZEE	106	stimuli_distractor_diamondtriangles.svg	stimuli_target_circlediamonds.svg	14	yes	57	0	330
6.6.1	win	2022-12-19	18:21:07	18:29:44	513711	60a1e1f4a3707c983a98f185	847547205	1	main_z	11	main_z	107	stimuli_target_circlediamonds.svg	stimuli_distractor_trianglediamonds.svg	2	yes	44	1	743
6.6.1	win	2022-12-19	18:21:07	18:29:44	513711	60a1e1f4a3707c983a98f185	847547205	1	main_z	11	advance_on_keypress_ZEE	108	stimuli_target_circlediamonds.svg	stimuli_distractor_trianglediamonds.svg	2	yes	57	0	321
6.6.1	win	2022-12-19	18:21:07	18:29:46	515304	60a1e1f4a3707c983a98f185	847547205	1	main_z	11	main_z	109	stimuli_distractor_diamondtriangles.svg	stimuli_target_squaretriangles.svg	15	yes	44	1	637
6.6.1	win	2022-12-19	18:21:07	18:29:46	515304	60a1e1f4a3707c983a98f185	847547205	1	main_z	11	advance_on_keypress_ZEE	110	stimuli_distractor_diamondtriangles.svg	stimuli_target_squaretriangles.svg	15	yes	57	0	342
6.6.1	win	2022-12-19	18:21:07	18:29:47	516869	60a1e1f4a3707c983a98f185	847547205	1	main_z	11	main_z	111	stimuli_target_circletriangles.svg	stimuli_distractor_trianglediamonds.svg	1	yes	44	1	586
6.6.1	win	2022-12-19	18:21:07	18:29:47	516869	60a1e1f4a3707c983a98f185	847547205	1	main_z	11	advance_on_keypress_ZEE	112	stimuli_target_circletriangles.svg	stimuli_distractor_trianglediamonds.svg	1	yes	57	0	335
6.6.1	win	2022-12-19	18:21:07	18:29:49	518501	60a1e1f4a3707c983a98f185	847547205	1	main_z	11	main_z	113	stimuli_target_diamondsquares.svg	stimuli_distractor_trianglediamonds.svg	20	yes	44	1	653
6.6.1	win	2022-12-19	18:21:07	18:29:49	518501	60a1e1f4a3707c983a98f185	847547205	1	main_z	11	advance_on_keypress_ZEE	114	stimuli_target_diamondsquares.svg	stimuli_distractor_trianglediamonds.svg	20	yes	57	0	355
6.6.1	win	2022-12-19	18:21:07	18:29:50	520113	60a1e1f4a3707c983a98f185	847547205	1	main_z	11	main_z	115	stimuli_distractor_diamondtriangles.svg	stimuli_target_trianglecircles.svg	29	yes	44	1	617
6.6.1	win	2022-12-19	18:21:07	18:29:50	520113	60a1e1f4a3707c983a98f185	847547205	1	main_z	11	advance_on_keypress_ZEE	116	stimuli_distractor_diamondtriangles.svg	stimuli_target_trianglecircles.svg	29	yes	57	0	357
6.6.1	win	2022-12-19	18:21:07	18:29:52	521703	60a1e1f4a3707c983a98f185	847547205	1	main_z	11	main_z	117	stimuli_target_diamondsquares.svg	stimuli_distractor_diamondtriangles.svg	24	yes	44	1	591
6.6.1	win	2022-12-19	18:21:07	18:29:52	521703	60a1e1f4a3707c983a98f185	847547205	1	main_z	11	advance_on_keypress_ZEE	118	stimuli_target_diamondsquares.svg	stimuli_distractor_diamondtriangles.svg	24	yes	57	0	365
6.6.1	win	2022-12-19	18:21:07	18:29:55	524710	60a1e1f4a3707c983a98f185	847547205	1	main_z	11	main_z	119	stimuli_distractor_trianglediamonds.svg	stimuli_distractor_trianglediamonds.svg	34	no	0	1	2000
6.6.1	win	2022-12-19	18:21:07	18:29:55	524710	60a1e1f4a3707c983a98f185	847547205	1	main_z	11	advance_on_keypress_ZEE	120	stimuli_distractor_trianglediamonds.svg	stimuli_distractor_trianglediamonds.svg	34	no	57	0	389
6.6.1	win	2022-12-19	18:21:07	18:29:56	526199	60a1e1f4a3707c983a98f185	847547205	1	main_z	11	main_z	121	stimuli_target_trianglecircles.svg	stimuli_distractor_trianglediamonds.svg	17	yes	44	1	442
6.6.1	win	2022-12-19	18:21:07	18:29:56	526199	60a1e1f4a3707c983a98f185	847547205	1	main_z	11	advance_on_keypress_ZEE	122	stimuli_target_trianglecircles.svg	stimuli_distractor_trianglediamonds.svg	17	yes	57	0	382
6.6.1	win	2022-12-19	18:21:07	18:30:00	529223	60a1e1f4a3707c983a98f185	847547205	1	main_z	11	main_z	123	stimuli_distractor_diamondtriangles.svg	stimuli_distractor_diamondtriangles.svg	40	no	0	1	2000
6.6.1	win	2022-12-19	18:21:07	18:30:00	529223	60a1e1f4a3707c983a98f185	847547205	1	main_z	11	advance_on_keypress_ZEE	124	stimuli_distractor_diamondtriangles.svg	stimuli_distractor_diamondtriangles.svg	40	no	57	0	255
6.6.1	win	2022-12-19	18:21:07	18:30:01	530520	60a1e1f4a3707c983a98f185	847547205	1	main_z	11	main_z	125	stimuli_distractor_trianglediamonds.svg	stimuli_target_squaretriangles.svg	11	yes	44	1	400
6.6.1	win	2022-12-19	18:21:07	18:30:01	530520	60a1e1f4a3707c983a98f185	847547205	1	main_z	11	advance_on_keypress_ZEE	126	stimuli_distractor_trianglediamonds.svg	stimuli_target_squaretriangles.svg	11	yes	57	0	335
6.6.1	win	2022-12-19	18:21:07	18:30:02	532162	60a1e1f4a3707c983a98f185	847547205	1	main_z	11	main_z	127	stimuli_distractor_trianglediamonds.svg	stimuli_target_diamondsquares.svg	28	yes	44	1	659
6.6.1	win	2022-12-19	18:21:07	18:30:02	532162	60a1e1f4a3707c983a98f185	847547205	1	main_z	11	advance_on_keypress_ZEE	128	stimuli_distractor_trianglediamonds.svg	stimuli_target_diamondsquares.svg	28	yes	57	0	361
6.6.1	win	2022-12-19	18:21:07	18:30:05	535151	60a1e1f4a3707c983a98f185	847547205	1	main_z	11	main_z	129	stimuli_distractor_trianglediamonds.svg	stimuli_distractor_trianglediamonds.svg	33	no	0	1	2000
6.6.1	win	2022-12-19	18:21:07	18:30:05	535151	60a1e1f4a3707c983a98f185	847547205	1	main_z	11	advance_on_keypress_ZEE	130	stimuli_distractor_trianglediamonds.svg	stimuli_distractor_trianglediamonds.svg	33	no	57	0	264
6.6.1	win	2022-12-19	18:21:07	18:30:07	536408	60a1e1f4a3707c983a98f185	847547205	1	main_z	11	main_z	131	stimuli_distractor_diamondtriangles.svg	stimuli_target_diamondcircles.svg	31	yes	44	1	342
6.6.1	win	2022-12-19	18:21:07	18:30:07	536408	60a1e1f4a3707c983a98f185	847547205	1	main_z	11	advance_on_keypress_ZEE	132	stimuli_distractor_diamondtriangles.svg	stimuli_target_diamondcircles.svg	31	yes	57	0	335
6.6.1	win	2022-12-19	18:21:07	18:30:08	537962	60a1e1f4a3707c983a98f185	847547205	1	main_z	11	main_z	133	stimuli_target_trianglesquares.svg	stimuli_distractor_diamondtriangles.svg	22	yes	44	1	580
6.6.1	win	2022-12-19	18:21:07	18:30:08	537962	60a1e1f4a3707c983a98f185	847547205	1	main_z	11	advance_on_keypress_ZEE	134	stimuli_target_trianglesquares.svg	stimuli_distractor_diamondtriangles.svg	22	yes	57	0	332
6.6.1	win	2022-12-19	18:21:07	18:30:10	539528	60a1e1f4a3707c983a98f185	847547205	1	main_z	11	main_z	135	stimuli_distractor_trianglediamonds.svg	stimuli_target_diamondcircles.svg	27	yes	44	1	582
6.6.1	win	2022-12-19	18:21:07	18:30:10	539528	60a1e1f4a3707c983a98f185	847547205	1	main_z	11	advance_on_keypress_ZEE	136	stimuli_distractor_trianglediamonds.svg	stimuli_target_diamondcircles.svg	27	yes	57	0	352
6.6.1	win	2022-12-19	18:21:07	18:30:11	541089	60a1e1f4a3707c983a98f185	847547205	1	main_z	11	main_z	137	stimuli_target_squaretriangles.svg	stimuli_distractor_trianglediamonds.svg	3	yes	44	1	561
6.6.1	win	2022-12-19	18:21:07	18:30:11	541089	60a1e1f4a3707c983a98f185	847547205	1	main_z	11	advance_on_keypress_ZEE	138	stimuli_target_squaretriangles.svg	stimuli_distractor_trianglediamonds.svg	3	yes	57	0	375
6.6.1	win	2022-12-19	18:21:07	18:30:13	542548	60a1e1f4a3707c983a98f185	847547205	1	main_z	11	main_z	139	stimuli_target_circlediamonds.svg	stimuli_distractor_diamondtriangles.svg	6	yes	44	1	455
6.6.1	win	2022-12-19	18:21:07	18:30:13	542548	60a1e1f4a3707c983a98f185	847547205	1	main_z	11	advance_on_keypress_ZEE	140	stimuli_target_circlediamonds.svg	stimuli_distractor_diamondtriangles.svg	6	yes	57	0	380
6.6.1	win	2022-12-19	18:21:07	18:30:14	544099	60a1e1f4a3707c983a98f185	847547205	1	main_z	11	main_z	141	stimuli_target_diamondcircles.svg	stimuli_distractor_trianglediamonds.svg	19	yes	44	1	524
6.6.1	win	2022-12-19	18:21:07	18:30:14	544099	60a1e1f4a3707c983a98f185	847547205	1	main_z	11	advance_on_keypress_ZEE	142	stimuli_target_diamondcircles.svg	stimuli_distractor_trianglediamonds.svg	19	yes	57	0	330
6.6.1	win	2022-12-19	18:21:07	18:30:16	545610	60a1e1f4a3707c983a98f185	847547205	1	main_z	11	main_z	143	stimuli_target_circletriangles.svg	stimuli_distractor_diamondtriangles.svg	5	yes	44	1	537
6.6.1	win	2022-12-19	18:21:07	18:30:16	545610	60a1e1f4a3707c983a98f185	847547205	1	main_z	11	advance_on_keypress_ZEE	144	stimuli_target_circletriangles.svg	stimuli_distractor_diamondtriangles.svg	5	yes	57	0	339
6.6.1	win	2022-12-19	18:21:07	18:30:17	547122	60a1e1f4a3707c983a98f185	847547205	1	main_z	11	main_z	145	stimuli_distractor_trianglediamonds.svg	stimuli_target_trianglesquares.svg	26	yes	44	1	532
6.6.1	win	2022-12-19	18:21:07	18:30:17	547122	60a1e1f4a3707c983a98f185	847547205	1	main_z	11	advance_on_keypress_ZEE	146	stimuli_distractor_trianglediamonds.svg	stimuli_target_trianglesquares.svg	26	yes	57	0	330
6.6.1	win	2022-12-19	18:21:07	18:30:20	550105	60a1e1f4a3707c983a98f185	847547205	1	main_z	11	main_z	147	stimuli_distractor_diamondtriangles.svg	stimuli_distractor_trianglediamonds.svg	38	no	0	1	2000
6.6.1	win	2022-12-19	18:21:07	18:30:20	550105	60a1e1f4a3707c983a98f185	847547205	1	main_z	11	advance_on_keypress_ZEE	148	stimuli_distractor_diamondtriangles.svg	stimuli_distractor_trianglediamonds.svg	38	no	57	0	331
6.6.1	win	2022-12-19	18:21:07	18:30:22	551478	60a1e1f4a3707c983a98f185	847547205	1	main_z	11	main_z	149	stimuli_target_diamondcircles.svg	stimuli_distractor_diamondtriangles.svg	23	yes	44	1	393
6.6.1	win	2022-12-19	18:21:07	18:30:22	551478	60a1e1f4a3707c983a98f185	847547205	1	main_z	11	advance_on_keypress_ZEE	150	stimuli_target_diamondcircles.svg	stimuli_distractor_diamondtriangles.svg	23	yes	57	0	315
6.6.1	win	2022-12-19	18:21:07	18:30:23	552981	60a1e1f4a3707c983a98f185	847547205	1	main_z	11	main_z	151	stimuli_target_squarediamonds.svg	stimuli_distractor_trianglediamonds.svg	4	yes	44	1	547
6.6.1	win	2022-12-19	18:21:07	18:30:23	552981	60a1e1f4a3707c983a98f185	847547205	1	main_z	11	advance_on_keypress_ZEE	152	stimuli_target_squarediamonds.svg	stimuli_distractor_trianglediamonds.svg	4	yes	57	0	274
6.6.1	win	2022-12-19	18:21:07	18:30:25	554503	60a1e1f4a3707c983a98f185	847547205	1	main_z	11	main_z	153	stimuli_distractor_trianglediamonds.svg	stimuli_target_circlediamonds.svg	10	yes	44	1	603
6.6.1	win	2022-12-19	18:21:07	18:30:25	554503	60a1e1f4a3707c983a98f185	847547205	1	main_z	11	advance_on_keypress_ZEE	154	stimuli_distractor_trianglediamonds.svg	stimuli_target_circlediamonds.svg	10	yes	57	0	478
6.6.1	win	2022-12-19	18:21:07	18:30:26	556164	60a1e1f4a3707c983a98f185	847547205	1	main_z	11	main_z	155	stimuli_distractor_diamondtriangles.svg	stimuli_target_squarediamonds.svg	16	yes	44	1	533
6.6.1	win	2022-12-19	18:21:07	18:30:26	556164	60a1e1f4a3707c983a98f185	847547205	1	main_z	11	advance_on_keypress_ZEE	156	stimuli_distractor_diamondtriangles.svg	stimuli_target_squarediamonds.svg	16	yes	57	0	317
6.6.1	win	2022-12-19	18:21:07	18:30:29	559131	60a1e1f4a3707c983a98f185	847547205	1	main_z	11	main_z	157	stimuli_distractor_diamondtriangles.svg	stimuli_distractor_trianglediamonds.svg	37	no	0	1	2000
6.6.1	win	2022-12-19	18:21:07	18:30:29	559131	60a1e1f4a3707c983a98f185	847547205	1	main_z	11	advance_on_keypress_ZEE	158	stimuli_distractor_diamondtriangles.svg	stimuli_distractor_trianglediamonds.svg	37	no	57	0	283
6.6.1	win	2022-12-19	18:21:07	18:30:31	560612	60a1e1f4a3707c983a98f185	847547205	1	main_z	11	main_z	159	stimuli_distractor_diamondtriangles.svg	stimuli_target_trianglesquares.svg	30	yes	44	1	551
6.6.1	win	2022-12-19	18:21:07	18:30:31	560612	60a1e1f4a3707c983a98f185	847547205	1	main_z	11	advance_on_keypress_ZEE	160	stimuli_distractor_diamondtriangles.svg	stimuli_target_trianglesquares.svg	30	yes	57	0	346