build	computer.platform	date	time	timestamp	time_elapsed_ms	subject	group	session	blockcode	blocknum	trialcode	trialnum	stimulus_left	stimulus_right	stim_index	target_present	response	correct	latency
6.6.1	mac	2022-12-14	16:59:48	17:02:20	151471	5d7e7207461e51001c5c236c	823496461	1	practice_slash	5	practice_slash	1	stimuli_distractor_trianglediamonds.svg	stimuli_distractor_trianglediamonds.svg	15	no	53	0	499
6.6.1	mac	2022-12-14	16:59:48	17:02:20	151471	5d7e7207461e51001c5c236c	823496461	1	practice_slash	5	advance_on_keypress_SLASH	2	stimuli_distractor_trianglediamonds.svg	stimuli_distractor_trianglediamonds.svg	15	no	57	0	1221
6.6.1	mac	2022-12-14	16:59:48	17:02:24	154911	5d7e7207461e51001c5c236c	823496461	1	practice_slash	5	practice_slash	3	stimuli_target_diamondsquares.svg	stimuli_distractor_diamondtriangles.svg	3	yes	53	1	586
6.6.1	mac	2022-12-14	16:59:48	17:02:24	154911	5d7e7207461e51001c5c236c	823496461	1	practice_slash	5	advance_on_keypress_SLASH	4	stimuli_target_diamondsquares.svg	stimuli_distractor_diamondtriangles.svg	3	yes	57	0	403
6.6.1	mac	2022-12-14	16:59:48	17:02:26	157414	5d7e7207461e51001c5c236c	823496461	1	practice_slash	5	practice_slash	5	stimuli_target_circlediamonds.svg	stimuli_distractor_diamondtriangles.svg	1	yes	53	1	474
6.6.1	mac	2022-12-14	16:59:48	17:02:26	157414	5d7e7207461e51001c5c236c	823496461	1	practice_slash	5	advance_on_keypress_SLASH	6	stimuli_target_circlediamonds.svg	stimuli_distractor_diamondtriangles.svg	1	yes	57	0	357
6.6.1	mac	2022-12-14	16:59:48	17:02:29	160006	5d7e7207461e51001c5c236c	823496461	1	practice_slash	5	practice_slash	7	stimuli_target_squarediamonds.svg	stimuli_distractor_trianglediamonds.svg	5	yes	53	1	597
6.6.1	mac	2022-12-14	16:59:48	17:02:29	160006	5d7e7207461e51001c5c236c	823496461	1	practice_slash	5	advance_on_keypress_SLASH	8	stimuli_target_squarediamonds.svg	stimuli_distractor_trianglediamonds.svg	5	yes	57	0	380
6.6.1	mac	2022-12-14	16:59:48	17:02:33	163878	5d7e7207461e51001c5c236c	823496461	1	practice_slash	5	practice_slash	9	stimuli_distractor_diamondtriangles.svg	stimuli_distractor_trianglediamonds.svg	14	no	53	0	1852
6.6.1	mac	2022-12-14	16:59:48	17:02:33	163878	5d7e7207461e51001c5c236c	823496461	1	practice_slash	5	advance_on_keypress_SLASH	10	stimuli_distractor_diamondtriangles.svg	stimuli_distractor_trianglediamonds.svg	14	no	57	0	1608
6.6.1	mac	2022-12-14	16:59:48	17:02:37	167918	5d7e7207461e51001c5c236c	823496461	1	practice_slash	5	practice_slash	11	stimuli_target_squarediamonds.svg	stimuli_distractor_diamondtriangles.svg	2	yes	53	1	806
6.6.1	mac	2022-12-14	16:59:48	17:02:37	167918	5d7e7207461e51001c5c236c	823496461	1	practice_slash	5	advance_on_keypress_SLASH	12	stimuli_target_squarediamonds.svg	stimuli_distractor_diamondtriangles.svg	2	yes	57	0	380
6.6.1	mac	2022-12-14	16:59:48	17:02:40	170814	5d7e7207461e51001c5c236c	823496461	1	practice_slash	5	practice_slash	13	stimuli_distractor_trianglediamonds.svg	stimuli_target_diamondcircles.svg	12	yes	53	1	884
6.6.1	mac	2022-12-14	16:59:48	17:02:40	170814	5d7e7207461e51001c5c236c	823496461	1	practice_slash	5	advance_on_keypress_SLASH	14	stimuli_distractor_trianglediamonds.svg	stimuli_target_diamondcircles.svg	12	yes	57	0	320
6.6.1	mac	2022-12-14	16:59:48	17:02:44	174762	5d7e7207461e51001c5c236c	823496461	1	practice_slash	5	practice_slash	15	stimuli_target_diamondsquares.svg	stimuli_distractor_trianglediamonds.svg	6	yes	0	0	2000
6.6.1	mac	2022-12-14	16:59:48	17:02:44	174762	5d7e7207461e51001c5c236c	823496461	1	practice_slash	5	advance_on_keypress_SLASH	16	stimuli_target_diamondsquares.svg	stimuli_distractor_trianglediamonds.svg	6	yes	57	0	472
6.6.1	mac	2022-12-14	16:59:48	17:02:47	177727	5d7e7207461e51001c5c236c	823496461	1	practice_slash	5	practice_slash	17	stimuli_target_circlediamonds.svg	stimuli_distractor_trianglediamonds.svg	4	yes	53	1	860
6.6.1	mac	2022-12-14	16:59:48	17:02:47	177727	5d7e7207461e51001c5c236c	823496461	1	practice_slash	5	advance_on_keypress_SLASH	18	stimuli_target_circlediamonds.svg	stimuli_distractor_trianglediamonds.svg	4	yes	57	0	313
6.6.1	mac	2022-12-14	16:59:48	17:02:49	180311	5d7e7207461e51001c5c236c	823496461	1	practice_slash	5	practice_slash	19	stimuli_distractor_diamondtriangles.svg	stimuli_target_trianglecircles.svg	9	yes	53	1	643
6.6.1	mac	2022-12-14	16:59:48	17:02:49	180311	5d7e7207461e51001c5c236c	823496461	1	practice_slash	5	advance_on_keypress_SLASH	20	stimuli_distractor_diamondtriangles.svg	stimuli_target_trianglecircles.svg	9	yes	57	0	384
6.6.1	mac	2022-12-14	16:59:48	17:02:52	183174	5d7e7207461e51001c5c236c	823496461	1	practice_slash	5	practice_slash	21	stimuli_distractor_trianglediamonds.svg	stimuli_distractor_diamondtriangles.svg	16	no	53	0	855
6.6.1	mac	2022-12-14	16:59:48	17:02:52	183174	5d7e7207461e51001c5c236c	823496461	1	practice_slash	5	advance_on_keypress_SLASH	22	stimuli_distractor_trianglediamonds.svg	stimuli_distractor_diamondtriangles.svg	16	no	57	0	394
6.6.1	mac	2022-12-14	16:59:48	17:02:55	186606	5d7e7207461e51001c5c236c	823496461	1	practice_slash	5	practice_slash	23	stimuli_distractor_trianglediamonds.svg	stimuli_target_circlediamonds.svg	10	yes	53	1	1403
6.6.1	mac	2022-12-14	16:59:48	17:02:55	186606	5d7e7207461e51001c5c236c	823496461	1	practice_slash	5	advance_on_keypress_SLASH	24	stimuli_distractor_trianglediamonds.svg	stimuli_target_circlediamonds.svg	10	yes	57	0	449
6.6.1	mac	2022-12-14	16:59:48	17:02:58	189551	5d7e7207461e51001c5c236c	823496461	1	practice_slash	5	practice_slash	25	stimuli_distractor_diamondtriangles.svg	stimuli_target_diamondcircles.svg	8	yes	53	1	862
6.6.1	mac	2022-12-14	16:59:48	17:02:58	189551	5d7e7207461e51001c5c236c	823496461	1	practice_slash	5	advance_on_keypress_SLASH	26	stimuli_distractor_diamondtriangles.svg	stimuli_target_diamondcircles.svg	8	yes	57	0	358
6.6.1	mac	2022-12-14	16:59:48	17:03:01	192350	5d7e7207461e51001c5c236c	823496461	1	practice_slash	5	practice_slash	27	stimuli_distractor_diamondtriangles.svg	stimuli_target_circletriangles.svg	7	yes	53	1	795
6.6.1	mac	2022-12-14	16:59:48	17:03:01	192350	5d7e7207461e51001c5c236c	823496461	1	practice_slash	5	advance_on_keypress_SLASH	28	stimuli_distractor_diamondtriangles.svg	stimuli_target_circletriangles.svg	7	yes	57	0	394
6.6.1	mac	2022-12-14	16:59:48	17:03:04	195302	5d7e7207461e51001c5c236c	823496461	1	practice_slash	5	practice_slash	29	stimuli_distractor_diamondtriangles.svg	stimuli_distractor_diamondtriangles.svg	13	no	53	0	928
6.6.1	mac	2022-12-14	16:59:48	17:03:04	195302	5d7e7207461e51001c5c236c	823496461	1	practice_slash	5	advance_on_keypress_SLASH	30	stimuli_distractor_diamondtriangles.svg	stimuli_distractor_diamondtriangles.svg	13	no	57	0	378
6.6.1	mac	2022-12-14	16:59:48	17:03:07	197983	5d7e7207461e51001c5c236c	823496461	1	practice_slash	5	practice_slash	31	stimuli_distractor_trianglediamonds.svg	stimuli_target_squarediamonds.svg	11	yes	53	1	673
6.6.1	mac	2022-12-14	16:59:48	17:03:07	197983	5d7e7207461e51001c5c236c	823496461	1	practice_slash	5	advance_on_keypress_SLASH	32	stimuli_distractor_trianglediamonds.svg	stimuli_target_squarediamonds.svg	11	yes	57	0	412
6.6.1	mac	2022-12-14	16:59:48	17:03:12	203302	5d7e7207461e51001c5c236c	823496461	1	main_slash	7	main_slash	1	stimuli_distractor_trianglediamonds.svg	stimuli_distractor_trianglediamonds.svg	33	no	53	0	924
6.6.1	mac	2022-12-14	16:59:48	17:03:12	203302	5d7e7207461e51001c5c236c	823496461	1	main_slash	7	advance_on_keypress_SLASH	2	stimuli_distractor_trianglediamonds.svg	stimuli_distractor_trianglediamonds.svg	33	no	57	0	989
6.6.1	mac	2022-12-14	16:59:48	17:03:15	205830	5d7e7207461e51001c5c236c	823496461	1	main_slash	7	main_slash	3	stimuli_distractor_diamondtriangles.svg	stimuli_distractor_trianglediamonds.svg	37	no	53	0	917
6.6.1	mac	2022-12-14	16:59:48	17:03:15	205830	5d7e7207461e51001c5c236c	823496461	1	main_slash	7	advance_on_keypress_SLASH	4	stimuli_distractor_diamondtriangles.svg	stimuli_distractor_trianglediamonds.svg	37	no	57	0	632
6.6.1	mac	2022-12-14	16:59:48	17:03:16	207614	5d7e7207461e51001c5c236c	823496461	1	main_slash	7	main_slash	5	stimuli_target_squaretriangles.svg	stimuli_distractor_trianglediamonds.svg	3	yes	53	1	517
6.6.1	mac	2022-12-14	16:59:48	17:03:16	207614	5d7e7207461e51001c5c236c	823496461	1	main_slash	7	advance_on_keypress_SLASH	6	stimuli_target_squaretriangles.svg	stimuli_distractor_trianglediamonds.svg	3	yes	57	0	927
6.6.1	mac	2022-12-14	16:59:48	17:03:20	211163	5d7e7207461e51001c5c236c	823496461	1	main_slash	7	main_slash	7	stimuli_distractor_diamondtriangles.svg	stimuli_target_trianglesquares.svg	30	yes	0	0	2000
6.6.1	mac	2022-12-14	16:59:48	17:03:20	211163	5d7e7207461e51001c5c236c	823496461	1	main_slash	7	advance_on_keypress_SLASH	8	stimuli_distractor_diamondtriangles.svg	stimuli_target_trianglesquares.svg	30	yes	57	0	472
6.6.1	mac	2022-12-14	16:59:48	17:03:22	212774	5d7e7207461e51001c5c236c	823496461	1	main_slash	7	main_slash	9	stimuli_target_squarediamonds.svg	stimuli_distractor_diamondtriangles.svg	8	yes	53	1	508
6.6.1	mac	2022-12-14	16:59:48	17:03:22	212774	5d7e7207461e51001c5c236c	823496461	1	main_slash	7	advance_on_keypress_SLASH	10	stimuli_target_squarediamonds.svg	stimuli_distractor_diamondtriangles.svg	8	yes	57	0	568
6.6.1	mac	2022-12-14	16:59:48	17:03:25	215965	5d7e7207461e51001c5c236c	823496461	1	main_slash	7	main_slash	11	stimuli_distractor_trianglediamonds.svg	stimuli_distractor_trianglediamonds.svg	34	no	0	1	2000
6.6.1	mac	2022-12-14	16:59:48	17:03:25	215965	5d7e7207461e51001c5c236c	823496461	1	main_slash	7	advance_on_keypress_SLASH	12	stimuli_distractor_trianglediamonds.svg	stimuli_distractor_trianglediamonds.svg	34	no	57	0	12182
6.6.1	mac	2022-12-14	16:59:48	17:03:39	229750	5d7e7207461e51001c5c236c	823496461	1	main_slash	7	main_slash	13	stimuli_distractor_diamondtriangles.svg	stimuli_target_circlediamonds.svg	14	yes	53	1	978
6.6.1	mac	2022-12-14	16:59:48	17:03:39	229750	5d7e7207461e51001c5c236c	823496461	1	main_slash	7	advance_on_keypress_SLASH	14	stimuli_distractor_diamondtriangles.svg	stimuli_target_circlediamonds.svg	14	yes	57	0	376
6.6.1	mac	2022-12-14	16:59:48	17:03:42	232770	5d7e7207461e51001c5c236c	823496461	1	main_slash	7	main_slash	15	stimuli_distractor_diamondtriangles.svg	stimuli_distractor_diamondtriangles.svg	39	no	0	1	2000
6.6.1	mac	2022-12-14	16:59:48	17:03:42	232770	5d7e7207461e51001c5c236c	823496461	1	main_slash	7	advance_on_keypress_SLASH	16	stimuli_distractor_diamondtriangles.svg	stimuli_distractor_diamondtriangles.svg	39	no	57	0	433
6.6.1	mac	2022-12-14	16:59:48	17:03:43	234558	5d7e7207461e51001c5c236c	823496461	1	main_slash	7	main_slash	17	stimuli_distractor_trianglediamonds.svg	stimuli_target_circletriangles.svg	9	yes	53	1	719
6.6.1	mac	2022-12-14	16:59:48	17:03:43	234558	5d7e7207461e51001c5c236c	823496461	1	main_slash	7	advance_on_keypress_SLASH	18	stimuli_distractor_trianglediamonds.svg	stimuli_target_circletriangles.svg	9	yes	57	0	449
6.6.1	mac	2022-12-14	16:59:48	17:03:45	236382	5d7e7207461e51001c5c236c	823496461	1	main_slash	7	main_slash	19	stimuli_target_circletriangles.svg	stimuli_distractor_diamondtriangles.svg	5	yes	53	1	742
6.6.1	mac	2022-12-14	16:59:48	17:03:45	236382	5d7e7207461e51001c5c236c	823496461	1	main_slash	7	advance_on_keypress_SLASH	20	stimuli_target_circletriangles.svg	stimuli_distractor_diamondtriangles.svg	5	yes	57	0	983
6.6.1	mac	2022-12-14	16:59:48	17:03:49	239646	5d7e7207461e51001c5c236c	823496461	1	main_slash	7	main_slash	21	stimuli_target_trianglesquares.svg	stimuli_distractor_trianglediamonds.svg	18	yes	53	1	1655
6.6.1	mac	2022-12-14	16:59:48	17:03:49	239646	5d7e7207461e51001c5c236c	823496461	1	main_slash	7	advance_on_keypress_SLASH	22	stimuli_target_trianglesquares.svg	stimuli_distractor_trianglediamonds.svg	18	yes	57	0	355
6.6.1	mac	2022-12-14	16:59:48	17:03:51	242625	5d7e7207461e51001c5c236c	823496461	1	main_slash	7	main_slash	23	stimuli_distractor_diamondtriangles.svg	stimuli_distractor_trianglediamonds.svg	38	no	0	1	2000
6.6.1	mac	2022-12-14	16:59:48	17:03:51	242625	5d7e7207461e51001c5c236c	823496461	1	main_slash	7	advance_on_keypress_SLASH	24	stimuli_distractor_diamondtriangles.svg	stimuli_distractor_trianglediamonds.svg	38	no	57	0	482
6.6.1	mac	2022-12-14	16:59:48	17:03:55	245742	5d7e7207461e51001c5c236c	823496461	1	main_slash	7	main_slash	25	stimuli_target_diamondcircles.svg	stimuli_distractor_diamondtriangles.svg	23	yes	0	0	2000
6.6.1	mac	2022-12-14	16:59:48	17:03:55	245742	5d7e7207461e51001c5c236c	823496461	1	main_slash	7	advance_on_keypress_SLASH	26	stimuli_target_diamondcircles.svg	stimuli_distractor_diamondtriangles.svg	23	yes	57	0	1276
6.6.1	mac	2022-12-14	16:59:48	17:03:59	249643	5d7e7207461e51001c5c236c	823496461	1	main_slash	7	main_slash	27	stimuli_distractor_trianglediamonds.svg	stimuli_distractor_diamondtriangles.svg	36	no	0	1	2000
6.6.1	mac	2022-12-14	16:59:48	17:03:59	249643	5d7e7207461e51001c5c236c	823496461	1	main_slash	7	advance_on_keypress_SLASH	28	stimuli_distractor_trianglediamonds.svg	stimuli_distractor_diamondtriangles.svg	36	no	57	0	372
6.6.1	mac	2022-12-14	16:59:48	17:04:00	251430	5d7e7207461e51001c5c236c	823496461	1	main_slash	7	main_slash	29	stimuli_target_squarediamonds.svg	stimuli_distractor_trianglediamonds.svg	4	yes	53	1	783
6.6.1	mac	2022-12-14	16:59:48	17:04:00	251430	5d7e7207461e51001c5c236c	823496461	1	main_slash	7	advance_on_keypress_SLASH	30	stimuli_target_squarediamonds.svg	stimuli_distractor_trianglediamonds.svg	4	yes	57	0	614
6.6.1	mac	2022-12-14	16:59:48	17:04:04	254680	5d7e7207461e51001c5c236c	823496461	1	main_slash	7	main_slash	31	stimuli_distractor_trianglediamonds.svg	stimuli_target_trianglecircles.svg	25	yes	0	0	2000
6.6.1	mac	2022-12-14	16:59:48	17:04:04	254680	5d7e7207461e51001c5c236c	823496461	1	main_slash	7	advance_on_keypress_SLASH	32	stimuli_distractor_trianglediamonds.svg	stimuli_target_trianglecircles.svg	25	yes	57	0	553
6.6.1	mac	2022-12-14	16:59:48	17:04:05	256582	5d7e7207461e51001c5c236c	823496461	1	main_slash	7	main_slash	33	stimuli_distractor_trianglediamonds.svg	stimuli_target_squarediamonds.svg	12	yes	53	1	716
6.6.1	mac	2022-12-14	16:59:48	17:04:05	256582	5d7e7207461e51001c5c236c	823496461	1	main_slash	7	advance_on_keypress_SLASH	34	stimuli_distractor_trianglediamonds.svg	stimuli_target_squarediamonds.svg	12	yes	57	0	502
6.6.1	mac	2022-12-14	16:59:48	17:04:07	258590	5d7e7207461e51001c5c236c	823496461	1	main_slash	7	main_slash	35	stimuli_target_circletriangles.svg	stimuli_distractor_trianglediamonds.svg	1	yes	53	1	873
6.6.1	mac	2022-12-14	16:59:48	17:04:07	258590	5d7e7207461e51001c5c236c	823496461	1	main_slash	7	advance_on_keypress_SLASH	36	stimuli_target_circletriangles.svg	stimuli_distractor_trianglediamonds.svg	1	yes	57	0	476
6.6.1	mac	2022-12-14	16:59:48	17:04:11	261683	5d7e7207461e51001c5c236c	823496461	1	main_slash	7	main_slash	37	stimuli_distractor_diamondtriangles.svg	stimuli_distractor_diamondtriangles.svg	40	no	0	1	2000
6.6.1	mac	2022-12-14	16:59:48	17:04:11	261683	5d7e7207461e51001c5c236c	823496461	1	main_slash	7	advance_on_keypress_SLASH	38	stimuli_distractor_diamondtriangles.svg	stimuli_distractor_diamondtriangles.svg	40	no	57	0	416
6.6.1	mac	2022-12-14	16:59:48	17:04:12	263574	5d7e7207461e51001c5c236c	823496461	1	main_slash	7	main_slash	39	stimuli_distractor_diamondtriangles.svg	stimuli_target_diamondsquares.svg	32	yes	53	1	837
6.6.1	mac	2022-12-14	16:59:48	17:04:12	263574	5d7e7207461e51001c5c236c	823496461	1	main_slash	7	advance_on_keypress_SLASH	40	stimuli_distractor_diamondtriangles.svg	stimuli_target_diamondsquares.svg	32	yes	57	0	419
6.6.1	mac	2022-12-14	16:59:48	17:04:14	265502	5d7e7207461e51001c5c236c	823496461	1	main_slash	7	main_slash	41	stimuli_target_diamondsquares.svg	stimuli_distractor_diamondtriangles.svg	24	yes	53	1	881
6.6.1	mac	2022-12-14	16:59:48	17:04:14	265502	5d7e7207461e51001c5c236c	823496461	1	main_slash	7	advance_on_keypress_SLASH	42	stimuli_target_diamondsquares.svg	stimuli_distractor_diamondtriangles.svg	24	yes	57	0	453
6.6.1	mac	2022-12-14	16:59:48	17:04:17	268586	5d7e7207461e51001c5c236c	823496461	1	main_slash	7	main_slash	43	stimuli_distractor_trianglediamonds.svg	stimuli_target_diamondcircles.svg	27	yes	0	0	2000
6.6.1	mac	2022-12-14	16:59:48	17:04:17	268586	5d7e7207461e51001c5c236c	823496461	1	main_slash	7	advance_on_keypress_SLASH	44	stimuli_distractor_trianglediamonds.svg	stimuli_target_diamondcircles.svg	27	yes	57	0	553
6.6.1	mac	2022-12-14	16:59:48	17:04:21	271770	5d7e7207461e51001c5c236c	823496461	1	main_slash	7	main_slash	45	stimuli_target_trianglecircles.svg	stimuli_distractor_diamondtriangles.svg	21	yes	0	0	2000
6.6.1	mac	2022-12-14	16:59:48	17:04:21	271770	5d7e7207461e51001c5c236c	823496461	1	main_slash	7	advance_on_keypress_SLASH	46	stimuli_target_trianglecircles.svg	stimuli_distractor_diamondtriangles.svg	21	yes	57	0	381
6.6.1	mac	2022-12-14	16:59:48	17:04:23	273974	5d7e7207461e51001c5c236c	823496461	1	main_slash	7	main_slash	47	stimuli_target_circlediamonds.svg	stimuli_distractor_diamondtriangles.svg	6	yes	53	1	1184
6.6.1	mac	2022-12-14	16:59:48	17:04:23	273974	5d7e7207461e51001c5c236c	823496461	1	main_slash	7	advance_on_keypress_SLASH	48	stimuli_target_circlediamonds.svg	stimuli_distractor_diamondtriangles.svg	6	yes	57	0	488
6.6.1	mac	2022-12-14	16:59:48	17:04:25	275790	5d7e7207461e51001c5c236c	823496461	1	main_slash	7	main_slash	49	stimuli_target_squaretriangles.svg	stimuli_distractor_diamondtriangles.svg	7	yes	53	1	700
6.6.1	mac	2022-12-14	16:59:48	17:04:25	275790	5d7e7207461e51001c5c236c	823496461	1	main_slash	7	advance_on_keypress_SLASH	50	stimuli_target_squaretriangles.svg	stimuli_distractor_diamondtriangles.svg	7	yes	57	0	430
6.6.1	mac	2022-12-14	16:59:48	17:04:28	278856	5d7e7207461e51001c5c236c	823496461	1	main_slash	7	main_slash	51	stimuli_distractor_trianglediamonds.svg	stimuli_distractor_diamondtriangles.svg	35	no	0	1	2000
6.6.1	mac	2022-12-14	16:59:48	17:04:28	278856	5d7e7207461e51001c5c236c	823496461	1	main_slash	7	advance_on_keypress_SLASH	52	stimuli_distractor_trianglediamonds.svg	stimuli_distractor_diamondtriangles.svg	35	no	57	0	475
6.6.1	mac	2022-12-14	16:59:48	17:04:30	280662	5d7e7207461e51001c5c236c	823496461	1	main_slash	7	main_slash	53	stimuli_distractor_diamondtriangles.svg	stimuli_target_squarediamonds.svg	16	yes	53	1	702
6.6.1	mac	2022-12-14	16:59:48	17:04:30	280662	5d7e7207461e51001c5c236c	823496461	1	main_slash	7	advance_on_keypress_SLASH	54	stimuli_distractor_diamondtriangles.svg	stimuli_target_squarediamonds.svg	16	yes	57	0	392
6.6.1	mac	2022-12-14	16:59:48	17:04:33	283675	5d7e7207461e51001c5c236c	823496461	1	main_slash	7	main_slash	55	stimuli_distractor_trianglediamonds.svg	stimuli_target_trianglesquares.svg	26	yes	0	0	2000
6.6.1	mac	2022-12-14	16:59:48	17:04:33	283675	5d7e7207461e51001c5c236c	823496461	1	main_slash	7	advance_on_keypress_SLASH	56	stimuli_distractor_trianglediamonds.svg	stimuli_target_trianglesquares.svg	26	yes	57	0	405
6.6.1	mac	2022-12-14	16:59:48	17:04:35	285958	5d7e7207461e51001c5c236c	823496461	1	main_slash	7	main_slash	57	stimuli_distractor_diamondtriangles.svg	stimuli_target_diamondcircles.svg	31	yes	53	1	1246
6.6.1	mac	2022-12-14	16:59:48	17:04:35	285958	5d7e7207461e51001c5c236c	823496461	1	main_slash	7	advance_on_keypress_SLASH	58	stimuli_distractor_diamondtriangles.svg	stimuli_target_diamondcircles.svg	31	yes	57	0	391
6.6.1	mac	2022-12-14	16:59:48	17:04:38	288718	5d7e7207461e51001c5c236c	823496461	1	main_slash	7	main_slash	59	stimuli_target_trianglecircles.svg	stimuli_distractor_trianglediamonds.svg	17	yes	53	1	1721
6.6.1	mac	2022-12-14	16:59:48	17:04:38	288718	5d7e7207461e51001c5c236c	823496461	1	main_slash	7	advance_on_keypress_SLASH	60	stimuli_target_trianglecircles.svg	stimuli_distractor_trianglediamonds.svg	17	yes	57	0	379
6.6.1	mac	2022-12-14	16:59:48	17:04:41	291729	5d7e7207461e51001c5c236c	823496461	1	main_slash	7	main_slash	61	stimuli_target_diamondcircles.svg	stimuli_distractor_trianglediamonds.svg	19	yes	0	0	2000
6.6.1	mac	2022-12-14	16:59:48	17:04:41	291729	5d7e7207461e51001c5c236c	823496461	1	main_slash	7	advance_on_keypress_SLASH	62	stimuli_target_diamondcircles.svg	stimuli_distractor_trianglediamonds.svg	19	yes	57	0	854
6.6.1	mac	2022-12-14	16:59:48	17:04:44	295142	5d7e7207461e51001c5c236c	823496461	1	main_slash	7	main_slash	63	stimuli_target_circlediamonds.svg	stimuli_distractor_trianglediamonds.svg	2	yes	53	1	1925
6.6.1	mac	2022-12-14	16:59:48	17:04:44	295142	5d7e7207461e51001c5c236c	823496461	1	main_slash	7	advance_on_keypress_SLASH	64	stimuli_target_circlediamonds.svg	stimuli_distractor_trianglediamonds.svg	2	yes	57	0	3888
6.6.1	mac	2022-12-14	16:59:48	17:04:50	300982	5d7e7207461e51001c5c236c	823496461	1	main_slash	7	main_slash	65	stimuli_distractor_trianglediamonds.svg	stimuli_target_circlediamonds.svg	10	yes	53	1	1330
6.6.1	mac	2022-12-14	16:59:48	17:04:50	300982	5d7e7207461e51001c5c236c	823496461	1	main_slash	7	advance_on_keypress_SLASH	66	stimuli_distractor_trianglediamonds.svg	stimuli_target_circlediamonds.svg	10	yes	57	0	3128
6.6.1	mac	2022-12-14	16:59:48	17:04:54	305486	5d7e7207461e51001c5c236c	823496461	1	main_slash	7	main_slash	67	stimuli_distractor_trianglediamonds.svg	stimuli_target_squaretriangles.svg	11	yes	53	1	733
6.6.1	mac	2022-12-14	16:59:48	17:04:54	305486	5d7e7207461e51001c5c236c	823496461	1	main_slash	7	advance_on_keypress_SLASH	68	stimuli_distractor_trianglediamonds.svg	stimuli_target_squaretriangles.svg	11	yes	57	0	4319
6.6.1	mac	2022-12-14	16:59:48	17:05:00	311502	5d7e7207461e51001c5c236c	823496461	1	main_slash	7	main_slash	69	stimuli_target_diamondsquares.svg	stimuli_distractor_trianglediamonds.svg	20	yes	53	1	1064
6.6.1	mac	2022-12-14	16:59:48	17:05:00	311502	5d7e7207461e51001c5c236c	823496461	1	main_slash	7	advance_on_keypress_SLASH	70	stimuli_target_diamondsquares.svg	stimuli_distractor_trianglediamonds.svg	20	yes	57	0	449
6.6.1	mac	2022-12-14	16:59:48	17:05:03	314587	5d7e7207461e51001c5c236c	823496461	1	main_slash	7	main_slash	71	stimuli_distractor_diamondtriangles.svg	stimuli_target_circletriangles.svg	13	yes	0	0	2000
6.6.1	mac	2022-12-14	16:59:48	17:05:03	314587	5d7e7207461e51001c5c236c	823496461	1	main_slash	7	advance_on_keypress_SLASH	72	stimuli_distractor_diamondtriangles.svg	stimuli_target_circletriangles.svg	13	yes	57	0	3280
6.6.1	mac	2022-12-14	16:59:48	17:05:09	320505	5d7e7207461e51001c5c236c	823496461	1	main_slash	7	main_slash	73	stimuli_distractor_diamondtriangles.svg	stimuli_target_trianglecircles.svg	29	yes	0	0	2000
6.6.1	mac	2022-12-14	16:59:48	17:05:09	320505	5d7e7207461e51001c5c236c	823496461	1	main_slash	7	advance_on_keypress_SLASH	74	stimuli_distractor_diamondtriangles.svg	stimuli_target_trianglecircles.svg	29	yes	57	0	434
6.6.1	mac	2022-12-14	16:59:48	17:05:11	322358	5d7e7207461e51001c5c236c	823496461	1	main_slash	7	main_slash	75	stimuli_distractor_trianglediamonds.svg	stimuli_target_diamondsquares.svg	28	yes	53	1	784
6.6.1	mac	2022-12-14	16:59:48	17:05:11	322358	5d7e7207461e51001c5c236c	823496461	1	main_slash	7	advance_on_keypress_SLASH	76	stimuli_distractor_trianglediamonds.svg	stimuli_target_diamondsquares.svg	28	yes	57	0	455
6.6.1	mac	2022-12-14	16:59:48	17:05:13	324214	5d7e7207461e51001c5c236c	823496461	1	main_slash	7	main_slash	77	stimuli_distractor_diamondtriangles.svg	stimuli_target_squaretriangles.svg	15	yes	53	1	772
6.6.1	mac	2022-12-14	16:59:48	17:05:13	324214	5d7e7207461e51001c5c236c	823496461	1	main_slash	7	advance_on_keypress_SLASH	78	stimuli_distractor_diamondtriangles.svg	stimuli_target_squaretriangles.svg	15	yes	57	0	419
6.6.1	mac	2022-12-14	16:59:48	17:05:16	327258	5d7e7207461e51001c5c236c	823496461	1	main_slash	7	main_slash	79	stimuli_target_trianglesquares.svg	stimuli_distractor_diamondtriangles.svg	22	yes	0	0	2000
6.6.1	mac	2022-12-14	16:59:48	17:05:16	327258	5d7e7207461e51001c5c236c	823496461	1	main_slash	7	advance_on_keypress_SLASH	80	stimuli_target_trianglesquares.svg	stimuli_distractor_diamondtriangles.svg	22	yes	57	0	431
6.6.1	mac	2022-12-14	16:59:48	17:05:18	329102	5d7e7207461e51001c5c236c	823496461	1	main_slash	7	main_slash	81	stimuli_distractor_diamondtriangles.svg	stimuli_target_circletriangles.svg	13	yes	53	1	775
6.6.1	mac	2022-12-14	16:59:48	17:05:18	329102	5d7e7207461e51001c5c236c	823496461	1	main_slash	7	advance_on_keypress_SLASH	82	stimuli_distractor_diamondtriangles.svg	stimuli_target_circletriangles.svg	13	yes	57	0	358
6.6.1	mac	2022-12-14	16:59:48	17:05:20	330838	5d7e7207461e51001c5c236c	823496461	1	main_slash	7	main_slash	83	stimuli_target_circletriangles.svg	stimuli_distractor_diamondtriangles.svg	5	yes	53	1	759
6.6.1	mac	2022-12-14	16:59:48	17:05:20	330838	5d7e7207461e51001c5c236c	823496461	1	main_slash	7	advance_on_keypress_SLASH	84	stimuli_target_circletriangles.svg	stimuli_distractor_diamondtriangles.svg	5	yes	57	0	417
6.6.1	mac	2022-12-14	16:59:48	17:05:23	333878	5d7e7207461e51001c5c236c	823496461	1	main_slash	7	main_slash	85	stimuli_target_trianglesquares.svg	stimuli_distractor_trianglediamonds.svg	18	yes	0	0	2000
6.6.1	mac	2022-12-14	16:59:48	17:05:23	333878	5d7e7207461e51001c5c236c	823496461	1	main_slash	7	advance_on_keypress_SLASH	86	stimuli_target_trianglesquares.svg	stimuli_distractor_trianglediamonds.svg	18	yes	57	0	405
6.6.1	mac	2022-12-14	16:59:48	17:05:26	336912	5d7e7207461e51001c5c236c	823496461	1	main_slash	7	main_slash	87	stimuli_distractor_diamondtriangles.svg	stimuli_distractor_diamondtriangles.svg	39	no	0	1	2000
6.6.1	mac	2022-12-14	16:59:48	17:05:26	336912	5d7e7207461e51001c5c236c	823496461	1	main_slash	7	advance_on_keypress_SLASH	88	stimuli_distractor_diamondtriangles.svg	stimuli_distractor_diamondtriangles.svg	39	no	57	0	338
6.6.1	mac	2022-12-14	16:59:48	17:05:27	338486	5d7e7207461e51001c5c236c	823496461	1	main_slash	7	main_slash	89	stimuli_target_squaretriangles.svg	stimuli_distractor_trianglediamonds.svg	3	yes	53	1	603
6.6.1	mac	2022-12-14	16:59:48	17:05:27	338486	5d7e7207461e51001c5c236c	823496461	1	main_slash	7	advance_on_keypress_SLASH	90	stimuli_target_squaretriangles.svg	stimuli_distractor_trianglediamonds.svg	3	yes	57	0	401
6.6.1	mac	2022-12-14	16:59:48	17:05:30	341515	5d7e7207461e51001c5c236c	823496461	1	main_slash	7	main_slash	91	stimuli_target_diamondcircles.svg	stimuli_distractor_trianglediamonds.svg	19	yes	0	0	2000
6.6.1	mac	2022-12-14	16:59:48	17:05:30	341515	5d7e7207461e51001c5c236c	823496461	1	main_slash	7	advance_on_keypress_SLASH	92	stimuli_target_diamondcircles.svg	stimuli_distractor_trianglediamonds.svg	19	yes	57	0	454
6.6.1	mac	2022-12-14	16:59:48	17:05:32	343246	5d7e7207461e51001c5c236c	823496461	1	main_slash	7	main_slash	93	stimuli_distractor_trianglediamonds.svg	stimuli_target_squarediamonds.svg	12	yes	53	1	645
6.6.1	mac	2022-12-14	16:59:48	17:05:32	343246	5d7e7207461e51001c5c236c	823496461	1	main_slash	7	advance_on_keypress_SLASH	94	stimuli_distractor_trianglediamonds.svg	stimuli_target_squarediamonds.svg	12	yes	57	0	426
6.6.1	mac	2022-12-14	16:59:48	17:05:34	344942	5d7e7207461e51001c5c236c	823496461	1	main_slash	7	main_slash	95	stimuli_distractor_trianglediamonds.svg	stimuli_target_circlediamonds.svg	10	yes	53	1	657
6.6.1	mac	2022-12-14	16:59:48	17:05:34	344942	5d7e7207461e51001c5c236c	823496461	1	main_slash	7	advance_on_keypress_SLASH	96	stimuli_distractor_trianglediamonds.svg	stimuli_target_circlediamonds.svg	10	yes	57	0	317
6.6.1	mac	2022-12-14	16:59:48	17:05:35	346534	5d7e7207461e51001c5c236c	823496461	1	main_slash	7	main_slash	97	stimuli_distractor_trianglediamonds.svg	stimuli_target_squaretriangles.svg	11	yes	53	1	648
6.6.1	mac	2022-12-14	16:59:48	17:05:35	346534	5d7e7207461e51001c5c236c	823496461	1	main_slash	7	advance_on_keypress_SLASH	98	stimuli_distractor_trianglediamonds.svg	stimuli_target_squaretriangles.svg	11	yes	57	0	305
6.6.1	mac	2022-12-14	16:59:48	17:05:38	349468	5d7e7207461e51001c5c236c	823496461	1	main_slash	7	main_slash	99	stimuli_distractor_diamondtriangles.svg	stimuli_distractor_diamondtriangles.svg	40	no	0	1	2000
6.6.1	mac	2022-12-14	16:59:48	17:05:38	349468	5d7e7207461e51001c5c236c	823496461	1	main_slash	7	advance_on_keypress_SLASH	100	stimuli_distractor_diamondtriangles.svg	stimuli_distractor_diamondtriangles.svg	40	no	57	0	470
6.6.1	mac	2022-12-14	16:59:48	17:05:40	351222	5d7e7207461e51001c5c236c	823496461	1	main_slash	7	main_slash	101	stimuli_distractor_diamondtriangles.svg	stimuli_target_circlediamonds.svg	14	yes	53	1	650
6.6.1	mac	2022-12-14	16:59:48	17:05:40	351222	5d7e7207461e51001c5c236c	823496461	1	main_slash	7	advance_on_keypress_SLASH	102	stimuli_distractor_diamondtriangles.svg	stimuli_target_circlediamonds.svg	14	yes	57	0	368
6.6.1	mac	2022-12-14	16:59:48	17:05:43	354220	5d7e7207461e51001c5c236c	823496461	1	main_slash	7	main_slash	103	stimuli_distractor_trianglediamonds.svg	stimuli_distractor_trianglediamonds.svg	33	no	0	1	2000
6.6.1	mac	2022-12-14	16:59:48	17:05:43	354220	5d7e7207461e51001c5c236c	823496461	1	main_slash	7	advance_on_keypress_SLASH	104	stimuli_distractor_trianglediamonds.svg	stimuli_distractor_trianglediamonds.svg	33	no	57	0	861
6.6.1	mac	2022-12-14	16:59:48	17:05:45	356270	5d7e7207461e51001c5c236c	823496461	1	main_slash	7	main_slash	105	stimuli_target_circletriangles.svg	stimuli_distractor_trianglediamonds.svg	1	yes	53	1	547
6.6.1	mac	2022-12-14	16:59:48	17:05:45	356270	5d7e7207461e51001c5c236c	823496461	1	main_slash	7	advance_on_keypress_SLASH	106	stimuli_target_circletriangles.svg	stimuli_distractor_trianglediamonds.svg	1	yes	57	0	380
6.6.1	mac	2022-12-14	16:59:48	17:05:48	359289	5d7e7207461e51001c5c236c	823496461	1	main_slash	7	main_slash	107	stimuli_distractor_diamondtriangles.svg	stimuli_target_trianglesquares.svg	30	yes	0	0	2000
6.6.1	mac	2022-12-14	16:59:48	17:05:48	359289	5d7e7207461e51001c5c236c	823496461	1	main_slash	7	advance_on_keypress_SLASH	108	stimuli_distractor_diamondtriangles.svg	stimuli_target_trianglesquares.svg	30	yes	57	0	458
6.6.1	mac	2022-12-14	16:59:48	17:05:51	362373	5d7e7207461e51001c5c236c	823496461	1	main_slash	7	main_slash	109	stimuli_distractor_trianglediamonds.svg	stimuli_distractor_diamondtriangles.svg	36	no	0	1	2000
6.6.1	mac	2022-12-14	16:59:48	17:05:51	362373	5d7e7207461e51001c5c236c	823496461	1	main_slash	7	advance_on_keypress_SLASH	110	stimuli_distractor_trianglediamonds.svg	stimuli_distractor_diamondtriangles.svg	36	no	57	0	444
6.6.1	mac	2022-12-14	16:59:48	17:05:53	364542	5d7e7207461e51001c5c236c	823496461	1	main_slash	7	main_slash	111	stimuli_distractor_trianglediamonds.svg	stimuli_target_trianglecircles.svg	25	yes	53	1	1082
6.6.1	mac	2022-12-14	16:59:48	17:05:53	364542	5d7e7207461e51001c5c236c	823496461	1	main_slash	7	advance_on_keypress_SLASH	112	stimuli_distractor_trianglediamonds.svg	stimuli_target_trianglecircles.svg	25	yes	57	0	422
6.6.1	mac	2022-12-14	16:59:48	17:05:56	366974	5d7e7207461e51001c5c236c	823496461	1	main_slash	7	main_slash	113	stimuli_distractor_diamondtriangles.svg	stimuli_target_diamondsquares.svg	32	yes	53	1	1380
6.6.1	mac	2022-12-14	16:59:48	17:05:56	366974	5d7e7207461e51001c5c236c	823496461	1	main_slash	7	advance_on_keypress_SLASH	114	stimuli_distractor_diamondtriangles.svg	stimuli_target_diamondsquares.svg	32	yes	57	0	379
6.6.1	mac	2022-12-14	16:59:48	17:05:58	368782	5d7e7207461e51001c5c236c	823496461	1	main_slash	7	main_slash	115	stimuli_distractor_diamondtriangles.svg	stimuli_target_squarediamonds.svg	16	yes	53	1	787
6.6.1	mac	2022-12-14	16:59:48	17:05:58	368782	5d7e7207461e51001c5c236c	823496461	1	main_slash	7	advance_on_keypress_SLASH	116	stimuli_distractor_diamondtriangles.svg	stimuli_target_squarediamonds.svg	16	yes	57	0	370
6.6.1	mac	2022-12-14	16:59:48	17:06:00	371222	5d7e7207461e51001c5c236c	823496461	1	main_slash	7	main_slash	117	stimuli_distractor_diamondtriangles.svg	stimuli_target_diamondcircles.svg	31	yes	53	1	1443
6.6.1	mac	2022-12-14	16:59:48	17:06:00	371222	5d7e7207461e51001c5c236c	823496461	1	main_slash	7	advance_on_keypress_SLASH	118	stimuli_distractor_diamondtriangles.svg	stimuli_target_diamondcircles.svg	31	yes	57	0	361
6.6.1	mac	2022-12-14	16:59:48	17:06:03	374195	5d7e7207461e51001c5c236c	823496461	1	main_slash	7	main_slash	119	stimuli_distractor_diamondtriangles.svg	stimuli_distractor_trianglediamonds.svg	37	no	0	1	2000
6.6.1	mac	2022-12-14	16:59:48	17:06:03	374195	5d7e7207461e51001c5c236c	823496461	1	main_slash	7	advance_on_keypress_SLASH	120	stimuli_distractor_diamondtriangles.svg	stimuli_distractor_trianglediamonds.svg	37	no	57	0	431
6.6.1	mac	2022-12-14	16:59:48	17:06:06	377263	5d7e7207461e51001c5c236c	823496461	1	main_slash	7	main_slash	121	stimuli_distractor_diamondtriangles.svg	stimuli_distractor_trianglediamonds.svg	38	no	0	1	2000
6.6.1	mac	2022-12-14	16:59:48	17:06:06	377263	5d7e7207461e51001c5c236c	823496461	1	main_slash	7	advance_on_keypress_SLASH	122	stimuli_distractor_diamondtriangles.svg	stimuli_distractor_trianglediamonds.svg	38	no	57	0	449
6.6.1	mac	2022-12-14	16:59:48	17:06:09	380347	5d7e7207461e51001c5c236c	823496461	1	main_slash	7	main_slash	123	stimuli_distractor_trianglediamonds.svg	stimuli_distractor_trianglediamonds.svg	34	no	0	1	2000
6.6.1	mac	2022-12-14	16:59:48	17:06:09	380347	5d7e7207461e51001c5c236c	823496461	1	main_slash	7	advance_on_keypress_SLASH	124	stimuli_distractor_trianglediamonds.svg	stimuli_distractor_trianglediamonds.svg	34	no	57	0	407
6.6.1	mac	2022-12-14	16:59:48	17:06:11	382182	5d7e7207461e51001c5c236c	823496461	1	main_slash	7	main_slash	125	stimuli_target_circlediamonds.svg	stimuli_distractor_diamondtriangles.svg	6	yes	53	1	797
6.6.1	mac	2022-12-14	16:59:48	17:06:11	382182	5d7e7207461e51001c5c236c	823496461	1	main_slash	7	advance_on_keypress_SLASH	126	stimuli_target_circlediamonds.svg	stimuli_distractor_diamondtriangles.svg	6	yes	57	0	345
6.6.1	mac	2022-12-14	16:59:48	17:06:13	384310	5d7e7207461e51001c5c236c	823496461	1	main_slash	7	main_slash	127	stimuli_distractor_trianglediamonds.svg	stimuli_target_circletriangles.svg	9	yes	53	1	1141
6.6.1	mac	2022-12-14	16:59:48	17:06:13	384310	5d7e7207461e51001c5c236c	823496461	1	main_slash	7	advance_on_keypress_SLASH	128	stimuli_distractor_trianglediamonds.svg	stimuli_target_circletriangles.svg	9	yes	57	0	390
6.6.1	mac	2022-12-14	16:59:48	17:06:16	387318	5d7e7207461e51001c5c236c	823496461	1	main_slash	7	main_slash	129	stimuli_target_trianglecircles.svg	stimuli_distractor_diamondtriangles.svg	21	yes	0	0	2000
6.6.1	mac	2022-12-14	16:59:48	17:06:16	387318	5d7e7207461e51001c5c236c	823496461	1	main_slash	7	advance_on_keypress_SLASH	130	stimuli_target_trianglecircles.svg	stimuli_distractor_diamondtriangles.svg	21	yes	57	0	433
6.6.1	mac	2022-12-14	16:59:48	17:06:18	388950	5d7e7207461e51001c5c236c	823496461	1	main_slash	7	main_slash	131	stimuli_target_squarediamonds.svg	stimuli_distractor_trianglediamonds.svg	4	yes	53	1	563
6.6.1	mac	2022-12-14	16:59:48	17:06:18	388950	5d7e7207461e51001c5c236c	823496461	1	main_slash	7	advance_on_keypress_SLASH	132	stimuli_target_squarediamonds.svg	stimuli_distractor_trianglediamonds.svg	4	yes	57	0	455
6.6.1	mac	2022-12-14	16:59:48	17:06:20	390790	5d7e7207461e51001c5c236c	823496461	1	main_slash	7	main_slash	133	stimuli_target_squarediamonds.svg	stimuli_distractor_diamondtriangles.svg	8	yes	53	1	751
6.6.1	mac	2022-12-14	16:59:48	17:06:20	390790	5d7e7207461e51001c5c236c	823496461	1	main_slash	7	advance_on_keypress_SLASH	134	stimuli_target_squarediamonds.svg	stimuli_distractor_diamondtriangles.svg	8	yes	57	0	328
6.6.1	mac	2022-12-14	16:59:48	17:06:23	393755	5d7e7207461e51001c5c236c	823496461	1	main_slash	7	main_slash	135	stimuli_distractor_trianglediamonds.svg	stimuli_target_diamondcircles.svg	27	yes	0	0	2000
6.6.1	mac	2022-12-14	16:59:48	17:06:23	393755	5d7e7207461e51001c5c236c	823496461	1	main_slash	7	advance_on_keypress_SLASH	136	stimuli_distractor_trianglediamonds.svg	stimuli_target_diamondcircles.svg	27	yes	57	0	416
6.6.1	mac	2022-12-14	16:59:48	17:06:24	395310	5d7e7207461e51001c5c236c	823496461	1	main_slash	7	main_slash	137	stimuli_target_squaretriangles.svg	stimuli_distractor_diamondtriangles.svg	7	yes	53	1	503
6.6.1	mac	2022-12-14	16:59:48	17:06:24	395310	5d7e7207461e51001c5c236c	823496461	1	main_slash	7	advance_on_keypress_SLASH	138	stimuli_target_squaretriangles.svg	stimuli_distractor_diamondtriangles.svg	7	yes	57	0	345
6.6.1	mac	2022-12-14	16:59:48	17:06:27	398290	5d7e7207461e51001c5c236c	823496461	1	main_slash	7	main_slash	139	stimuli_distractor_trianglediamonds.svg	stimuli_target_trianglesquares.svg	26	yes	0	0	2000
6.6.1	mac	2022-12-14	16:59:48	17:06:27	398290	5d7e7207461e51001c5c236c	823496461	1	main_slash	7	advance_on_keypress_SLASH	140	stimuli_distractor_trianglediamonds.svg	stimuli_target_trianglesquares.svg	26	yes	57	0	361
6.6.1	mac	2022-12-14	16:59:48	17:06:29	400086	5d7e7207461e51001c5c236c	823496461	1	main_slash	7	main_slash	141	stimuli_target_diamondcircles.svg	stimuli_distractor_diamondtriangles.svg	23	yes	53	1	794
6.6.1	mac	2022-12-14	16:59:48	17:06:29	400086	5d7e7207461e51001c5c236c	823496461	1	main_slash	7	advance_on_keypress_SLASH	142	stimuli_target_diamondcircles.svg	stimuli_distractor_diamondtriangles.svg	23	yes	57	0	345
6.6.1	mac	2022-12-14	16:59:48	17:06:31	401918	5d7e7207461e51001c5c236c	823496461	1	main_slash	7	main_slash	143	stimuli_target_circlediamonds.svg	stimuli_distractor_trianglediamonds.svg	2	yes	53	1	858
6.6.1	mac	2022-12-14	16:59:48	17:06:31	401918	5d7e7207461e51001c5c236c	823496461	1	main_slash	7	advance_on_keypress_SLASH	144	stimuli_target_circlediamonds.svg	stimuli_distractor_trianglediamonds.svg	2	yes	57	0	343
6.6.1	mac	2022-12-14	16:59:48	17:06:34	404875	5d7e7207461e51001c5c236c	823496461	1	main_slash	7	main_slash	145	stimuli_target_diamondsquares.svg	stimuli_distractor_diamondtriangles.svg	24	yes	0	0	2000
6.6.1	mac	2022-12-14	16:59:48	17:06:34	404875	5d7e7207461e51001c5c236c	823496461	1	main_slash	7	advance_on_keypress_SLASH	146	stimuli_target_diamondsquares.svg	stimuli_distractor_diamondtriangles.svg	24	yes	57	0	407
6.6.1	mac	2022-12-14	16:59:48	17:06:36	406990	5d7e7207461e51001c5c236c	823496461	1	main_slash	7	main_slash	147	stimuli_target_trianglesquares.svg	stimuli_distractor_diamondtriangles.svg	22	yes	53	1	1078
6.6.1	mac	2022-12-14	16:59:48	17:06:36	406990	5d7e7207461e51001c5c236c	823496461	1	main_slash	7	advance_on_keypress_SLASH	148	stimuli_target_trianglesquares.svg	stimuli_distractor_diamondtriangles.svg	22	yes	57	0	354
6.6.1	mac	2022-12-14	16:59:48	17:06:38	408934	5d7e7207461e51001c5c236c	823496461	1	main_slash	7	main_slash	149	stimuli_distractor_diamondtriangles.svg	stimuli_target_trianglecircles.svg	29	yes	53	1	972
6.6.1	mac	2022-12-14	16:59:48	17:06:38	408934	5d7e7207461e51001c5c236c	823496461	1	main_slash	7	advance_on_keypress_SLASH	150	stimuli_distractor_diamondtriangles.svg	stimuli_target_trianglecircles.svg	29	yes	57	0	338
6.6.1	mac	2022-12-14	16:59:48	17:06:40	410710	5d7e7207461e51001c5c236c	823496461	1	main_slash	7	main_slash	151	stimuli_distractor_diamondtriangles.svg	stimuli_target_squaretriangles.svg	15	yes	53	1	812
6.6.1	mac	2022-12-14	16:59:48	17:06:40	410710	5d7e7207461e51001c5c236c	823496461	1	main_slash	7	advance_on_keypress_SLASH	152	stimuli_distractor_diamondtriangles.svg	stimuli_target_squaretriangles.svg	15	yes	57	0	376
6.6.1	mac	2022-12-14	16:59:48	17:06:43	413730	5d7e7207461e51001c5c236c	823496461	1	main_slash	7	main_slash	153	stimuli_target_diamondsquares.svg	stimuli_distractor_trianglediamonds.svg	20	yes	0	0	2000
6.6.1	mac	2022-12-14	16:59:48	17:06:43	413730	5d7e7207461e51001c5c236c	823496461	1	main_slash	7	advance_on_keypress_SLASH	154	stimuli_target_diamondsquares.svg	stimuli_distractor_trianglediamonds.svg	20	yes	57	0	401
6.6.1	mac	2022-12-14	16:59:48	17:06:45	415638	5d7e7207461e51001c5c236c	823496461	1	main_slash	7	main_slash	155	stimuli_distractor_trianglediamonds.svg	stimuli_target_diamondsquares.svg	28	yes	53	1	872
6.6.1	mac	2022-12-14	16:59:48	17:06:45	415638	5d7e7207461e51001c5c236c	823496461	1	main_slash	7	advance_on_keypress_SLASH	156	stimuli_distractor_trianglediamonds.svg	stimuli_target_diamondsquares.svg	28	yes	57	0	363
6.6.1	mac	2022-12-14	16:59:48	17:06:46	417262	5d7e7207461e51001c5c236c	823496461	1	main_slash	7	main_slash	157	stimuli_target_trianglecircles.svg	stimuli_distractor_trianglediamonds.svg	17	yes	53	1	628
6.6.1	mac	2022-12-14	16:59:48	17:06:46	417262	5d7e7207461e51001c5c236c	823496461	1	main_slash	7	advance_on_keypress_SLASH	158	stimuli_target_trianglecircles.svg	stimuli_distractor_trianglediamonds.svg	17	yes	57	0	294
6.6.1	mac	2022-12-14	16:59:48	17:06:49	420200	5d7e7207461e51001c5c236c	823496461	1	main_slash	7	main_slash	159	stimuli_distractor_trianglediamonds.svg	stimuli_distractor_diamondtriangles.svg	35	no	0	1	2000
6.6.1	mac	2022-12-14	16:59:48	17:06:49	420200	5d7e7207461e51001c5c236c	823496461	1	main_slash	7	advance_on_keypress_SLASH	160	stimuli_distractor_trianglediamonds.svg	stimuli_distractor_diamondtriangles.svg	35	no	57	0	562
6.6.1	mac	2022-12-14	16:59:48	17:07:07	438159	5d7e7207461e51001c5c236c	823496461	1	practice_z	9	practice_z	1	stimuli_distractor_diamondtriangles.svg	stimuli_target_trianglecircles.svg	9	yes	44	1	734
6.6.1	mac	2022-12-14	16:59:48	17:07:07	438159	5d7e7207461e51001c5c236c	823496461	1	practice_z	9	advance_on_keypress_ZEE	2	stimuli_distractor_diamondtriangles.svg	stimuli_target_trianglecircles.svg	9	yes	57	0	432
6.6.1	mac	2022-12-14	16:59:48	17:07:11	442222	5d7e7207461e51001c5c236c	823496461	1	practice_z	9	practice_z	3	stimuli_distractor_trianglediamonds.svg	stimuli_distractor_diamondtriangles.svg	16	no	0	1	2000
6.6.1	mac	2022-12-14	16:59:48	17:07:11	442222	5d7e7207461e51001c5c236c	823496461	1	practice_z	9	advance_on_keypress_ZEE	4	stimuli_distractor_trianglediamonds.svg	stimuli_distractor_diamondtriangles.svg	16	no	57	0	332
6.6.1	mac	2022-12-14	16:59:48	17:07:14	444887	5d7e7207461e51001c5c236c	823496461	1	practice_z	9	practice_z	5	stimuli_target_circlediamonds.svg	stimuli_distractor_diamondtriangles.svg	1	yes	44	1	695
6.6.1	mac	2022-12-14	16:59:48	17:07:14	444887	5d7e7207461e51001c5c236c	823496461	1	practice_z	9	advance_on_keypress_ZEE	6	stimuli_target_circlediamonds.svg	stimuli_distractor_diamondtriangles.svg	1	yes	57	0	386
6.6.1	mac	2022-12-14	16:59:48	17:07:18	448892	5d7e7207461e51001c5c236c	823496461	1	practice_z	9	practice_z	7	stimuli_distractor_diamondtriangles.svg	stimuli_distractor_trianglediamonds.svg	14	no	0	1	2000
6.6.1	mac	2022-12-14	16:59:48	17:07:18	448892	5d7e7207461e51001c5c236c	823496461	1	practice_z	9	advance_on_keypress_ZEE	8	stimuli_distractor_diamondtriangles.svg	stimuli_distractor_trianglediamonds.svg	14	no	57	0	279
6.6.1	mac	2022-12-14	16:59:48	17:07:20	451358	5d7e7207461e51001c5c236c	823496461	1	practice_z	9	practice_z	9	stimuli_target_circlediamonds.svg	stimuli_distractor_trianglediamonds.svg	4	yes	44	1	547
6.6.1	mac	2022-12-14	16:59:48	17:07:20	451358	5d7e7207461e51001c5c236c	823496461	1	practice_z	9	advance_on_keypress_ZEE	10	stimuli_target_circlediamonds.svg	stimuli_distractor_trianglediamonds.svg	4	yes	57	0	265
6.6.1	mac	2022-12-14	16:59:48	17:07:23	453710	5d7e7207461e51001c5c236c	823496461	1	practice_z	9	practice_z	11	stimuli_target_squarediamonds.svg	stimuli_distractor_diamondtriangles.svg	2	yes	44	1	449
6.6.1	mac	2022-12-14	16:59:48	17:07:23	453710	5d7e7207461e51001c5c236c	823496461	1	practice_z	9	advance_on_keypress_ZEE	12	stimuli_target_squarediamonds.svg	stimuli_distractor_diamondtriangles.svg	2	yes	57	0	340
6.6.1	mac	2022-12-14	16:59:48	17:07:27	457678	5d7e7207461e51001c5c236c	823496461	1	practice_z	9	practice_z	13	stimuli_distractor_trianglediamonds.svg	stimuli_target_squarediamonds.svg	11	yes	0	0	2000
6.6.1	mac	2022-12-14	16:59:48	17:07:27	457678	5d7e7207461e51001c5c236c	823496461	1	practice_z	9	advance_on_keypress_ZEE	14	stimuli_distractor_trianglediamonds.svg	stimuli_target_squarediamonds.svg	11	yes	57	0	420
6.6.1	mac	2022-12-14	16:59:48	17:07:30	460935	5d7e7207461e51001c5c236c	823496461	1	practice_z	9	practice_z	15	stimuli_target_diamondsquares.svg	stimuli_distractor_trianglediamonds.svg	6	yes	44	1	1202
6.6.1	mac	2022-12-14	16:59:48	17:07:30	460935	5d7e7207461e51001c5c236c	823496461	1	practice_z	9	advance_on_keypress_ZEE	16	stimuli_target_diamondsquares.svg	stimuli_distractor_trianglediamonds.svg	6	yes	57	0	353
6.6.1	mac	2022-12-14	16:59:48	17:07:33	463990	5d7e7207461e51001c5c236c	823496461	1	practice_z	9	practice_z	17	stimuli_distractor_diamondtriangles.svg	stimuli_target_diamondcircles.svg	8	yes	44	1	1074
6.6.1	mac	2022-12-14	16:59:48	17:07:33	463990	5d7e7207461e51001c5c236c	823496461	1	practice_z	9	advance_on_keypress_ZEE	18	stimuli_distractor_diamondtriangles.svg	stimuli_target_diamondcircles.svg	8	yes	57	0	365
6.6.1	mac	2022-12-14	16:59:48	17:07:36	466799	5d7e7207461e51001c5c236c	823496461	1	practice_z	9	practice_z	19	stimuli_distractor_trianglediamonds.svg	stimuli_target_circlediamonds.svg	10	yes	44	1	815
6.6.1	mac	2022-12-14	16:59:48	17:07:36	466799	5d7e7207461e51001c5c236c	823496461	1	practice_z	9	advance_on_keypress_ZEE	20	stimuli_distractor_trianglediamonds.svg	stimuli_target_circlediamonds.svg	10	yes	57	0	364
6.6.1	mac	2022-12-14	16:59:48	17:07:38	469422	5d7e7207461e51001c5c236c	823496461	1	practice_z	9	practice_z	21	stimuli_target_squarediamonds.svg	stimuli_distractor_trianglediamonds.svg	5	yes	44	1	621
6.6.1	mac	2022-12-14	16:59:48	17:07:38	469422	5d7e7207461e51001c5c236c	823496461	1	practice_z	9	advance_on_keypress_ZEE	22	stimuli_target_squarediamonds.svg	stimuli_distractor_trianglediamonds.svg	5	yes	57	0	362
6.6.1	mac	2022-12-14	16:59:48	17:07:41	472159	5d7e7207461e51001c5c236c	823496461	1	practice_z	9	practice_z	23	stimuli_target_diamondsquares.svg	stimuli_distractor_diamondtriangles.svg	3	yes	44	1	739
6.6.1	mac	2022-12-14	16:59:48	17:07:41	472159	5d7e7207461e51001c5c236c	823496461	1	practice_z	9	advance_on_keypress_ZEE	24	stimuli_target_diamondsquares.svg	stimuli_distractor_diamondtriangles.svg	3	yes	57	0	308
6.6.1	mac	2022-12-14	16:59:48	17:07:45	476086	5d7e7207461e51001c5c236c	823496461	1	practice_z	9	practice_z	25	stimuli_distractor_diamondtriangles.svg	stimuli_distractor_diamondtriangles.svg	13	no	0	1	2000
6.6.1	mac	2022-12-14	16:59:48	17:07:45	476086	5d7e7207461e51001c5c236c	823496461	1	practice_z	9	advance_on_keypress_ZEE	26	stimuli_distractor_diamondtriangles.svg	stimuli_distractor_diamondtriangles.svg	13	no	57	0	341
6.6.1	mac	2022-12-14	16:59:48	17:07:48	478830	5d7e7207461e51001c5c236c	823496461	1	practice_z	9	practice_z	27	stimuli_distractor_diamondtriangles.svg	stimuli_target_circletriangles.svg	7	yes	44	1	774
6.6.1	mac	2022-12-14	16:59:48	17:07:48	478830	5d7e7207461e51001c5c236c	823496461	1	practice_z	9	advance_on_keypress_ZEE	28	stimuli_distractor_diamondtriangles.svg	stimuli_target_circletriangles.svg	7	yes	57	0	309
6.6.1	mac	2022-12-14	16:59:48	17:07:50	481623	5d7e7207461e51001c5c236c	823496461	1	practice_z	9	practice_z	29	stimuli_distractor_trianglediamonds.svg	stimuli_target_diamondcircles.svg	12	yes	44	1	849
6.6.1	mac	2022-12-14	16:59:48	17:07:50	481623	5d7e7207461e51001c5c236c	823496461	1	practice_z	9	advance_on_keypress_ZEE	30	stimuli_distractor_trianglediamonds.svg	stimuli_target_diamondcircles.svg	12	yes	57	0	349
6.6.1	mac	2022-12-14	16:59:48	17:07:54	485606	5d7e7207461e51001c5c236c	823496461	1	practice_z	9	practice_z	31	stimuli_distractor_trianglediamonds.svg	stimuli_distractor_trianglediamonds.svg	15	no	0	1	2000
6.6.1	mac	2022-12-14	16:59:48	17:07:54	485606	5d7e7207461e51001c5c236c	823496461	1	practice_z	9	advance_on_keypress_ZEE	32	stimuli_distractor_trianglediamonds.svg	stimuli_distractor_trianglediamonds.svg	15	no	57	0	412
6.6.1	mac	2022-12-14	16:59:48	17:07:58	489198	5d7e7207461e51001c5c236c	823496461	1	main_z	11	main_z	1	stimuli_distractor_diamondtriangles.svg	stimuli_target_squaretriangles.svg	15	yes	44	1	721
6.6.1	mac	2022-12-14	16:59:48	17:07:58	489198	5d7e7207461e51001c5c236c	823496461	1	main_z	11	advance_on_keypress_ZEE	2	stimuli_distractor_diamondtriangles.svg	stimuli_target_squaretriangles.svg	15	yes	57	0	426
6.6.1	mac	2022-12-14	16:59:48	17:08:00	491006	5d7e7207461e51001c5c236c	823496461	1	main_z	11	main_z	3	stimuli_target_diamondsquares.svg	stimuli_distractor_diamondtriangles.svg	24	yes	44	1	762
6.6.1	mac	2022-12-14	16:59:48	17:08:00	491006	5d7e7207461e51001c5c236c	823496461	1	main_z	11	advance_on_keypress_ZEE	4	stimuli_target_diamondsquares.svg	stimuli_distractor_diamondtriangles.svg	24	yes	57	0	307
6.6.1	mac	2022-12-14	16:59:48	17:08:02	493038	5d7e7207461e51001c5c236c	823496461	1	main_z	11	main_z	5	stimuli_target_circletriangles.svg	stimuli_distractor_diamondtriangles.svg	5	yes	44	1	1109
6.6.1	mac	2022-12-14	16:59:48	17:08:02	493038	5d7e7207461e51001c5c236c	823496461	1	main_z	11	advance_on_keypress_ZEE	6	stimuli_target_circletriangles.svg	stimuli_distractor_diamondtriangles.svg	5	yes	57	0	304
6.6.1	mac	2022-12-14	16:59:48	17:08:04	494734	5d7e7207461e51001c5c236c	823496461	1	main_z	11	main_z	7	stimuli_distractor_trianglediamonds.svg	stimuli_target_trianglecircles.svg	25	yes	44	1	772
6.6.1	mac	2022-12-14	16:59:48	17:08:04	494734	5d7e7207461e51001c5c236c	823496461	1	main_z	11	advance_on_keypress_ZEE	8	stimuli_distractor_trianglediamonds.svg	stimuli_target_trianglecircles.svg	25	yes	57	0	283
6.6.1	mac	2022-12-14	16:59:48	17:08:07	497645	5d7e7207461e51001c5c236c	823496461	1	main_z	11	main_z	9	stimuli_distractor_trianglediamonds.svg	stimuli_distractor_trianglediamonds.svg	33	no	0	1	2000
6.6.1	mac	2022-12-14	16:59:48	17:08:07	497645	5d7e7207461e51001c5c236c	823496461	1	main_z	11	advance_on_keypress_ZEE	10	stimuli_distractor_trianglediamonds.svg	stimuli_distractor_trianglediamonds.svg	33	no	57	0	667
6.6.1	mac	2022-12-14	16:59:48	17:08:08	499566	5d7e7207461e51001c5c236c	823496461	1	main_z	11	main_z	11	stimuli_distractor_diamondtriangles.svg	stimuli_target_circlediamonds.svg	14	yes	44	1	618
6.6.1	mac	2022-12-14	16:59:48	17:08:08	499566	5d7e7207461e51001c5c236c	823496461	1	main_z	11	advance_on_keypress_ZEE	12	stimuli_distractor_diamondtriangles.svg	stimuli_target_circlediamonds.svg	14	yes	57	0	288
6.6.1	mac	2022-12-14	16:59:48	17:08:10	501078	5d7e7207461e51001c5c236c	823496461	1	main_z	11	main_z	13	stimuli_target_circletriangles.svg	stimuli_distractor_trianglediamonds.svg	1	yes	44	1	596
6.6.1	mac	2022-12-14	16:59:48	17:08:10	501078	5d7e7207461e51001c5c236c	823496461	1	main_z	11	advance_on_keypress_ZEE	14	stimuli_target_circletriangles.svg	stimuli_distractor_trianglediamonds.svg	1	yes	57	0	234
6.6.1	mac	2022-12-14	16:59:48	17:08:11	502462	5d7e7207461e51001c5c236c	823496461	1	main_z	11	main_z	15	stimuli_target_squaretriangles.svg	stimuli_distractor_trianglediamonds.svg	3	yes	44	1	513
6.6.1	mac	2022-12-14	16:59:48	17:08:11	502462	5d7e7207461e51001c5c236c	823496461	1	main_z	11	advance_on_keypress_ZEE	16	stimuli_target_squaretriangles.svg	stimuli_distractor_trianglediamonds.svg	3	yes	57	0	259
6.6.1	mac	2022-12-14	16:59:48	17:08:14	505348	5d7e7207461e51001c5c236c	823496461	1	main_z	11	main_z	17	stimuli_distractor_diamondtriangles.svg	stimuli_distractor_trianglediamonds.svg	38	no	0	1	2000
6.6.1	mac	2022-12-14	16:59:48	17:08:14	505348	5d7e7207461e51001c5c236c	823496461	1	main_z	11	advance_on_keypress_ZEE	18	stimuli_distractor_diamondtriangles.svg	stimuli_distractor_trianglediamonds.svg	38	no	57	0	406
6.6.1	mac	2022-12-14	16:59:48	17:08:16	506838	5d7e7207461e51001c5c236c	823496461	1	main_z	11	main_z	19	stimuli_target_squarediamonds.svg	stimuli_distractor_trianglediamonds.svg	4	yes	44	1	454
6.6.1	mac	2022-12-14	16:59:48	17:08:16	506838	5d7e7207461e51001c5c236c	823496461	1	main_z	11	advance_on_keypress_ZEE	20	stimuli_target_squarediamonds.svg	stimuli_distractor_trianglediamonds.svg	4	yes	57	0	354
6.6.1	mac	2022-12-14	16:59:48	17:08:17	508366	5d7e7207461e51001c5c236c	823496461	1	main_z	11	main_z	21	stimuli_target_trianglecircles.svg	stimuli_distractor_trianglediamonds.svg	17	yes	44	1	548
6.6.1	mac	2022-12-14	16:59:48	17:08:17	508366	5d7e7207461e51001c5c236c	823496461	1	main_z	11	advance_on_keypress_ZEE	22	stimuli_target_trianglecircles.svg	stimuli_distractor_trianglediamonds.svg	17	yes	57	0	236
6.6.1	mac	2022-12-14	16:59:48	17:08:19	509830	5d7e7207461e51001c5c236c	823496461	1	main_z	11	main_z	23	stimuli_distractor_trianglediamonds.svg	stimuli_target_diamondcircles.svg	27	yes	44	1	595
6.6.1	mac	2022-12-14	16:59:48	17:08:19	509830	5d7e7207461e51001c5c236c	823496461	1	main_z	11	advance_on_keypress_ZEE	24	stimuli_distractor_trianglediamonds.svg	stimuli_target_diamondcircles.svg	27	yes	57	0	251
6.6.1	mac	2022-12-14	16:59:48	17:08:22	512700	5d7e7207461e51001c5c236c	823496461	1	main_z	11	main_z	25	stimuli_distractor_diamondtriangles.svg	stimuli_distractor_diamondtriangles.svg	40	no	0	1	2000
6.6.1	mac	2022-12-14	16:59:48	17:08:22	512700	5d7e7207461e51001c5c236c	823496461	1	main_z	11	advance_on_keypress_ZEE	26	stimuli_distractor_diamondtriangles.svg	stimuli_distractor_diamondtriangles.svg	40	no	57	0	446
6.6.1	mac	2022-12-14	16:59:48	17:08:25	515785	5d7e7207461e51001c5c236c	823496461	1	main_z	11	main_z	27	stimuli_distractor_diamondtriangles.svg	stimuli_distractor_trianglediamonds.svg	37	no	0	1	2000
6.6.1	mac	2022-12-14	16:59:48	17:08:25	515785	5d7e7207461e51001c5c236c	823496461	1	main_z	11	advance_on_keypress_ZEE	28	stimuli_distractor_diamondtriangles.svg	stimuli_distractor_trianglediamonds.svg	37	no	57	0	448
6.6.1	mac	2022-12-14	16:59:48	17:08:27	517718	5d7e7207461e51001c5c236c	823496461	1	main_z	11	main_z	29	stimuli_distractor_diamondtriangles.svg	stimuli_target_squarediamonds.svg	16	yes	44	1	847
6.6.1	mac	2022-12-14	16:59:48	17:08:27	517718	5d7e7207461e51001c5c236c	823496461	1	main_z	11	advance_on_keypress_ZEE	30	stimuli_distractor_diamondtriangles.svg	stimuli_target_squarediamonds.svg	16	yes	57	0	304
6.6.1	mac	2022-12-14	16:59:48	17:08:28	519334	5d7e7207461e51001c5c236c	823496461	1	main_z	11	main_z	31	stimuli_distractor_diamondtriangles.svg	stimuli_target_trianglesquares.svg	30	yes	44	1	678
6.6.1	mac	2022-12-14	16:59:48	17:08:28	519334	5d7e7207461e51001c5c236c	823496461	1	main_z	11	advance_on_keypress_ZEE	32	stimuli_distractor_diamondtriangles.svg	stimuli_target_trianglesquares.svg	30	yes	57	0	492
6.6.1	mac	2022-12-14	16:59:48	17:08:31	522438	5d7e7207461e51001c5c236c	823496461	1	main_z	11	main_z	33	stimuli_distractor_diamondtriangles.svg	stimuli_distractor_diamondtriangles.svg	39	no	0	1	2000
6.6.1	mac	2022-12-14	16:59:48	17:08:31	522438	5d7e7207461e51001c5c236c	823496461	1	main_z	11	advance_on_keypress_ZEE	34	stimuli_distractor_diamondtriangles.svg	stimuli_distractor_diamondtriangles.svg	39	no	57	0	370
6.6.1	mac	2022-12-14	16:59:48	17:08:33	524118	5d7e7207461e51001c5c236c	823496461	1	main_z	11	main_z	35	stimuli_target_trianglesquares.svg	stimuli_distractor_trianglediamonds.svg	18	yes	44	1	676
6.6.1	mac	2022-12-14	16:59:48	17:08:33	524118	5d7e7207461e51001c5c236c	823496461	1	main_z	11	advance_on_keypress_ZEE	36	stimuli_target_trianglesquares.svg	stimuli_distractor_trianglediamonds.svg	18	yes	57	0	329
6.6.1	mac	2022-12-14	16:59:48	17:08:34	525614	5d7e7207461e51001c5c236c	823496461	1	main_z	11	main_z	37	stimuli_target_diamondcircles.svg	stimuli_distractor_trianglediamonds.svg	19	yes	44	1	538
6.6.1	mac	2022-12-14	16:59:48	17:08:34	525614	5d7e7207461e51001c5c236c	823496461	1	main_z	11	advance_on_keypress_ZEE	38	stimuli_target_diamondcircles.svg	stimuli_distractor_trianglediamonds.svg	19	yes	57	0	283
6.6.1	mac	2022-12-14	16:59:48	17:08:36	527342	5d7e7207461e51001c5c236c	823496461	1	main_z	11	main_z	39	stimuli_distractor_trianglediamonds.svg	stimuli_target_squarediamonds.svg	12	yes	44	1	817
6.6.1	mac	2022-12-14	16:59:48	17:08:36	527342	5d7e7207461e51001c5c236c	823496461	1	main_z	11	advance_on_keypress_ZEE	40	stimuli_distractor_trianglediamonds.svg	stimuli_target_squarediamonds.svg	12	yes	57	0	270
6.6.1	mac	2022-12-14	16:59:48	17:08:38	529110	5d7e7207461e51001c5c236c	823496461	1	main_z	11	main_z	41	stimuli_distractor_trianglediamonds.svg	stimuli_target_squaretriangles.svg	11	yes	44	1	867
6.6.1	mac	2022-12-14	16:59:48	17:08:38	529110	5d7e7207461e51001c5c236c	823496461	1	main_z	11	advance_on_keypress_ZEE	42	stimuli_distractor_trianglediamonds.svg	stimuli_target_squaretriangles.svg	11	yes	57	0	239
6.6.1	mac	2022-12-14	16:59:48	17:08:40	530694	5d7e7207461e51001c5c236c	823496461	1	main_z	11	main_z	43	stimuli_target_diamondsquares.svg	stimuli_distractor_trianglediamonds.svg	20	yes	44	1	716
6.6.1	mac	2022-12-14	16:59:48	17:08:40	530694	5d7e7207461e51001c5c236c	823496461	1	main_z	11	advance_on_keypress_ZEE	44	stimuli_target_diamondsquares.svg	stimuli_distractor_trianglediamonds.svg	20	yes	57	0	278
6.6.1	mac	2022-12-14	16:59:48	17:08:41	532294	5d7e7207461e51001c5c236c	823496461	1	main_z	11	main_z	45	stimuli_distractor_trianglediamonds.svg	stimuli_target_diamondsquares.svg	28	yes	44	1	682
6.6.1	mac	2022-12-14	16:59:48	17:08:41	532294	5d7e7207461e51001c5c236c	823496461	1	main_z	11	advance_on_keypress_ZEE	46	stimuli_distractor_trianglediamonds.svg	stimuli_target_diamondsquares.svg	28	yes	57	0	277
6.6.1	mac	2022-12-14	16:59:48	17:08:43	533886	5d7e7207461e51001c5c236c	823496461	1	main_z	11	main_z	47	stimuli_distractor_trianglediamonds.svg	stimuli_target_trianglesquares.svg	26	yes	44	1	691
6.6.1	mac	2022-12-14	16:59:48	17:08:43	533886	5d7e7207461e51001c5c236c	823496461	1	main_z	11	advance_on_keypress_ZEE	48	stimuli_distractor_trianglediamonds.svg	stimuli_target_trianglesquares.svg	26	yes	57	0	301
6.6.1	mac	2022-12-14	16:59:48	17:08:44	535430	5d7e7207461e51001c5c236c	823496461	1	main_z	11	main_z	49	stimuli_target_trianglecircles.svg	stimuli_distractor_diamondtriangles.svg	21	yes	44	1	617
6.6.1	mac	2022-12-14	16:59:48	17:08:44	535430	5d7e7207461e51001c5c236c	823496461	1	main_z	11	advance_on_keypress_ZEE	50	stimuli_target_trianglecircles.svg	stimuli_distractor_diamondtriangles.svg	21	yes	57	0	247
6.6.1	mac	2022-12-14	16:59:48	17:08:47	538312	5d7e7207461e51001c5c236c	823496461	1	main_z	11	main_z	51	stimuli_distractor_trianglediamonds.svg	stimuli_target_circlediamonds.svg	10	yes	0	0	2000
6.6.1	mac	2022-12-14	16:59:48	17:08:47	538312	5d7e7207461e51001c5c236c	823496461	1	main_z	11	advance_on_keypress_ZEE	52	stimuli_distractor_trianglediamonds.svg	stimuli_target_circlediamonds.svg	10	yes	57	0	419
6.6.1	mac	2022-12-14	16:59:48	17:08:49	540126	5d7e7207461e51001c5c236c	823496461	1	main_z	11	main_z	53	stimuli_distractor_trianglediamonds.svg	stimuli_target_circletriangles.svg	9	yes	44	1	762
6.6.1	mac	2022-12-14	16:59:48	17:08:49	540126	5d7e7207461e51001c5c236c	823496461	1	main_z	11	advance_on_keypress_ZEE	54	stimuli_distractor_trianglediamonds.svg	stimuli_target_circletriangles.svg	9	yes	57	0	291
6.6.1	mac	2022-12-14	16:59:48	17:08:51	541742	5d7e7207461e51001c5c236c	823496461	1	main_z	11	main_z	55	stimuli_target_trianglesquares.svg	stimuli_distractor_diamondtriangles.svg	22	yes	44	1	710
6.6.1	mac	2022-12-14	16:59:48	17:08:51	541742	5d7e7207461e51001c5c236c	823496461	1	main_z	11	advance_on_keypress_ZEE	56	stimuli_target_trianglesquares.svg	stimuli_distractor_diamondtriangles.svg	22	yes	57	0	314
6.6.1	mac	2022-12-14	16:59:48	17:08:54	544681	5d7e7207461e51001c5c236c	823496461	1	main_z	11	main_z	57	stimuli_distractor_trianglediamonds.svg	stimuli_distractor_trianglediamonds.svg	34	no	0	1	2000
6.6.1	mac	2022-12-14	16:59:48	17:08:54	544681	5d7e7207461e51001c5c236c	823496461	1	main_z	11	advance_on_keypress_ZEE	58	stimuli_distractor_trianglediamonds.svg	stimuli_distractor_trianglediamonds.svg	34	no	57	0	346
6.6.1	mac	2022-12-14	16:59:48	17:08:55	546358	5d7e7207461e51001c5c236c	823496461	1	main_z	11	main_z	59	stimuli_distractor_diamondtriangles.svg	stimuli_target_diamondsquares.svg	32	yes	44	1	692
6.6.1	mac	2022-12-14	16:59:48	17:08:55	546358	5d7e7207461e51001c5c236c	823496461	1	main_z	11	advance_on_keypress_ZEE	60	stimuli_distractor_diamondtriangles.svg	stimuli_target_diamondsquares.svg	32	yes	57	0	303
6.6.1	mac	2022-12-14	16:59:48	17:08:57	547910	5d7e7207461e51001c5c236c	823496461	1	main_z	11	main_z	61	stimuli_target_diamondcircles.svg	stimuli_distractor_diamondtriangles.svg	23	yes	44	1	626
6.6.1	mac	2022-12-14	16:59:48	17:08:57	547910	5d7e7207461e51001c5c236c	823496461	1	main_z	11	advance_on_keypress_ZEE	62	stimuli_target_diamondcircles.svg	stimuli_distractor_diamondtriangles.svg	23	yes	57	0	297
6.6.1	mac	2022-12-14	16:59:48	17:08:59	550070	5d7e7207461e51001c5c236c	823496461	1	main_z	11	main_z	63	stimuli_distractor_trianglediamonds.svg	stimuli_distractor_diamondtriangles.svg	35	no	44	0	1235
6.6.1	mac	2022-12-14	16:59:48	17:08:59	550070	5d7e7207461e51001c5c236c	823496461	1	main_z	11	advance_on_keypress_ZEE	64	stimuli_distractor_trianglediamonds.svg	stimuli_distractor_diamondtriangles.svg	35	no	57	0	289
6.6.1	mac	2022-12-14	16:59:48	17:09:00	551550	5d7e7207461e51001c5c236c	823496461	1	main_z	11	main_z	65	stimuli_distractor_diamondtriangles.svg	stimuli_target_trianglecircles.svg	29	yes	44	1	564
6.6.1	mac	2022-12-14	16:59:48	17:09:00	551550	5d7e7207461e51001c5c236c	823496461	1	main_z	11	advance_on_keypress_ZEE	66	stimuli_distractor_diamondtriangles.svg	stimuli_target_trianglecircles.svg	29	yes	57	0	273
6.6.1	mac	2022-12-14	16:59:48	17:09:02	553006	5d7e7207461e51001c5c236c	823496461	1	main_z	11	main_z	67	stimuli_distractor_diamondtriangles.svg	stimuli_target_circletriangles.svg	13	yes	44	1	554
6.6.1	mac	2022-12-14	16:59:48	17:09:02	553006	5d7e7207461e51001c5c236c	823496461	1	main_z	11	advance_on_keypress_ZEE	68	stimuli_distractor_diamondtriangles.svg	stimuli_target_circletriangles.svg	13	yes	57	0	273
6.6.1	mac	2022-12-14	16:59:48	17:09:03	554462	5d7e7207461e51001c5c236c	823496461	1	main_z	11	main_z	69	stimuli_distractor_diamondtriangles.svg	stimuli_target_diamondcircles.svg	31	yes	44	1	558
6.6.1	mac	2022-12-14	16:59:48	17:09:03	554462	5d7e7207461e51001c5c236c	823496461	1	main_z	11	advance_on_keypress_ZEE	70	stimuli_distractor_diamondtriangles.svg	stimuli_target_diamondcircles.svg	31	yes	57	0	279
6.6.1	mac	2022-12-14	16:59:48	17:09:05	555886	5d7e7207461e51001c5c236c	823496461	1	main_z	11	main_z	71	stimuli_target_squaretriangles.svg	stimuli_distractor_diamondtriangles.svg	7	yes	44	1	515
6.6.1	mac	2022-12-14	16:59:48	17:09:05	555886	5d7e7207461e51001c5c236c	823496461	1	main_z	11	advance_on_keypress_ZEE	72	stimuli_target_squaretriangles.svg	stimuli_distractor_diamondtriangles.svg	7	yes	57	0	285
6.6.1	mac	2022-12-14	16:59:48	17:09:06	557598	5d7e7207461e51001c5c236c	823496461	1	main_z	11	main_z	73	stimuli_target_squarediamonds.svg	stimuli_distractor_diamondtriangles.svg	8	yes	44	1	794
6.6.1	mac	2022-12-14	16:59:48	17:09:06	557598	5d7e7207461e51001c5c236c	823496461	1	main_z	11	advance_on_keypress_ZEE	74	stimuli_target_squarediamonds.svg	stimuli_distractor_diamondtriangles.svg	8	yes	57	0	257
6.6.1	mac	2022-12-14	16:59:48	17:09:08	559022	5d7e7207461e51001c5c236c	823496461	1	main_z	11	main_z	75	stimuli_target_circlediamonds.svg	stimuli_distractor_diamondtriangles.svg	6	yes	44	1	551
6.6.1	mac	2022-12-14	16:59:48	17:09:08	559022	5d7e7207461e51001c5c236c	823496461	1	main_z	11	advance_on_keypress_ZEE	76	stimuli_target_circlediamonds.svg	stimuli_distractor_diamondtriangles.svg	6	yes	57	0	264
6.6.1	mac	2022-12-14	16:59:48	17:09:09	560422	5d7e7207461e51001c5c236c	823496461	1	main_z	11	main_z	77	stimuli_target_circlediamonds.svg	stimuli_distractor_trianglediamonds.svg	2	yes	44	1	500
6.6.1	mac	2022-12-14	16:59:48	17:09:09	560422	5d7e7207461e51001c5c236c	823496461	1	main_z	11	advance_on_keypress_ZEE	78	stimuli_target_circlediamonds.svg	stimuli_distractor_trianglediamonds.svg	2	yes	57	0	287
6.6.1	mac	2022-12-14	16:59:48	17:09:11	562038	5d7e7207461e51001c5c236c	823496461	1	main_z	11	main_z	79	stimuli_distractor_trianglediamonds.svg	stimuli_distractor_diamondtriangles.svg	36	no	44	0	698
6.6.1	mac	2022-12-14	16:59:48	17:09:11	562038	5d7e7207461e51001c5c236c	823496461	1	main_z	11	advance_on_keypress_ZEE	80	stimuli_distractor_trianglediamonds.svg	stimuli_distractor_diamondtriangles.svg	36	no	57	0	254
6.6.1	mac	2022-12-14	16:59:48	17:09:12	563534	5d7e7207461e51001c5c236c	823496461	1	main_z	11	main_z	81	stimuli_target_squarediamonds.svg	stimuli_distractor_trianglediamonds.svg	4	yes	44	1	611
6.6.1	mac	2022-12-14	16:59:48	17:09:12	563534	5d7e7207461e51001c5c236c	823496461	1	main_z	11	advance_on_keypress_ZEE	82	stimuli_target_squarediamonds.svg	stimuli_distractor_trianglediamonds.svg	4	yes	57	0	259
6.6.1	mac	2022-12-14	16:59:48	17:09:14	565038	5d7e7207461e51001c5c236c	823496461	1	main_z	11	main_z	83	stimuli_distractor_diamondtriangles.svg	stimuli_target_diamondcircles.svg	31	yes	44	1	632
6.6.1	mac	2022-12-14	16:59:48	17:09:14	565038	5d7e7207461e51001c5c236c	823496461	1	main_z	11	advance_on_keypress_ZEE	84	stimuli_distractor_diamondtriangles.svg	stimuli_target_diamondcircles.svg	31	yes	57	0	261
6.6.1	mac	2022-12-14	16:59:48	17:09:15	566526	5d7e7207461e51001c5c236c	823496461	1	main_z	11	main_z	85	stimuli_distractor_diamondtriangles.svg	stimuli_target_circlediamonds.svg	14	yes	44	1	603
6.6.1	mac	2022-12-14	16:59:48	17:09:15	566526	5d7e7207461e51001c5c236c	823496461	1	main_z	11	advance_on_keypress_ZEE	86	stimuli_distractor_diamondtriangles.svg	stimuli_target_circlediamonds.svg	14	yes	57	0	226
6.6.1	mac	2022-12-14	16:59:48	17:09:17	567862	5d7e7207461e51001c5c236c	823496461	1	main_z	11	main_z	87	stimuli_target_squarediamonds.svg	stimuli_distractor_diamondtriangles.svg	8	yes	44	1	488
6.6.1	mac	2022-12-14	16:59:48	17:09:17	567862	5d7e7207461e51001c5c236c	823496461	1	main_z	11	advance_on_keypress_ZEE	88	stimuli_target_squarediamonds.svg	stimuli_distractor_diamondtriangles.svg	8	yes	57	0	242
6.6.1	mac	2022-12-14	16:59:48	17:09:20	570723	5d7e7207461e51001c5c236c	823496461	1	main_z	11	main_z	89	stimuli_distractor_trianglediamonds.svg	stimuli_distractor_trianglediamonds.svg	34	no	0	1	2000
6.6.1	mac	2022-12-14	16:59:48	17:09:20	570723	5d7e7207461e51001c5c236c	823496461	1	main_z	11	advance_on_keypress_ZEE	90	stimuli_distractor_trianglediamonds.svg	stimuli_distractor_trianglediamonds.svg	34	no	57	0	600
6.6.1	mac	2022-12-14	16:59:48	17:09:21	572446	5d7e7207461e51001c5c236c	823496461	1	main_z	11	main_z	91	stimuli_distractor_trianglediamonds.svg	stimuli_target_circlediamonds.svg	10	yes	44	1	487
6.6.1	mac	2022-12-14	16:59:48	17:09:21	572446	5d7e7207461e51001c5c236c	823496461	1	main_z	11	advance_on_keypress_ZEE	92	stimuli_distractor_trianglediamonds.svg	stimuli_target_circlediamonds.svg	10	yes	57	0	289
6.6.1	mac	2022-12-14	16:59:48	17:09:24	575359	5d7e7207461e51001c5c236c	823496461	1	main_z	11	main_z	93	stimuli_distractor_diamondtriangles.svg	stimuli_distractor_diamondtriangles.svg	39	no	0	1	2000
6.6.1	mac	2022-12-14	16:59:48	17:09:24	575359	5d7e7207461e51001c5c236c	823496461	1	main_z	11	advance_on_keypress_ZEE	94	stimuli_distractor_diamondtriangles.svg	stimuli_distractor_diamondtriangles.svg	39	no	57	0	405
6.6.1	mac	2022-12-14	16:59:48	17:09:26	576878	5d7e7207461e51001c5c236c	823496461	1	main_z	11	main_z	95	stimuli_target_trianglecircles.svg	stimuli_distractor_trianglediamonds.svg	17	yes	44	1	483
6.6.1	mac	2022-12-14	16:59:48	17:09:26	576878	5d7e7207461e51001c5c236c	823496461	1	main_z	11	advance_on_keypress_ZEE	96	stimuli_target_trianglecircles.svg	stimuli_distractor_trianglediamonds.svg	17	yes	57	0	239
6.6.1	mac	2022-12-14	16:59:48	17:09:27	578286	5d7e7207461e51001c5c236c	823496461	1	main_z	11	main_z	97	stimuli_target_circlediamonds.svg	stimuli_distractor_trianglediamonds.svg	2	yes	44	1	541
6.6.1	mac	2022-12-14	16:59:48	17:09:27	578286	5d7e7207461e51001c5c236c	823496461	1	main_z	11	advance_on_keypress_ZEE	98	stimuli_target_circlediamonds.svg	stimuli_distractor_trianglediamonds.svg	2	yes	57	0	229
6.6.1	mac	2022-12-14	16:59:48	17:09:30	581144	5d7e7207461e51001c5c236c	823496461	1	main_z	11	main_z	99	stimuli_distractor_diamondtriangles.svg	stimuli_distractor_diamondtriangles.svg	40	no	0	1	2000
6.6.1	mac	2022-12-14	16:59:48	17:09:30	581144	5d7e7207461e51001c5c236c	823496461	1	main_z	11	advance_on_keypress_ZEE	100	stimuli_distractor_diamondtriangles.svg	stimuli_distractor_diamondtriangles.svg	40	no	57	0	451
6.6.1	mac	2022-12-14	16:59:48	17:09:32	582702	5d7e7207461e51001c5c236c	823496461	1	main_z	11	main_z	101	stimuli_target_trianglecircles.svg	stimuli_distractor_diamondtriangles.svg	21	yes	44	1	472
6.6.1	mac	2022-12-14	16:59:48	17:09:32	582702	5d7e7207461e51001c5c236c	823496461	1	main_z	11	advance_on_keypress_ZEE	102	stimuli_target_trianglecircles.svg	stimuli_distractor_diamondtriangles.svg	21	yes	57	0	228
6.6.1	mac	2022-12-14	16:59:48	17:09:34	584966	5d7e7207461e51001c5c236c	823496461	1	main_z	11	main_z	103	stimuli_distractor_trianglediamonds.svg	stimuli_distractor_trianglediamonds.svg	33	no	44	0	1402
6.6.1	mac	2022-12-14	16:59:48	17:09:34	584966	5d7e7207461e51001c5c236c	823496461	1	main_z	11	advance_on_keypress_ZEE	104	stimuli_distractor_trianglediamonds.svg	stimuli_distractor_trianglediamonds.svg	33	no	57	0	264
6.6.1	mac	2022-12-14	16:59:48	17:09:36	587014	5d7e7207461e51001c5c236c	823496461	1	main_z	11	main_z	105	stimuli_target_trianglesquares.svg	stimuli_distractor_diamondtriangles.svg	22	yes	44	1	1149
6.6.1	mac	2022-12-14	16:59:48	17:09:36	587014	5d7e7207461e51001c5c236c	823496461	1	main_z	11	advance_on_keypress_ZEE	106	stimuli_target_trianglesquares.svg	stimuli_distractor_diamondtriangles.svg	22	yes	57	0	213
6.6.1	mac	2022-12-14	16:59:48	17:09:37	588494	5d7e7207461e51001c5c236c	823496461	1	main_z	11	main_z	107	stimuli_distractor_diamondtriangles.svg	stimuli_target_trianglecircles.svg	29	yes	44	1	629
6.6.1	mac	2022-12-14	16:59:48	17:09:37	588494	5d7e7207461e51001c5c236c	823496461	1	main_z	11	advance_on_keypress_ZEE	108	stimuli_distractor_diamondtriangles.svg	stimuli_target_trianglecircles.svg	29	yes	57	0	260
6.6.1	mac	2022-12-14	16:59:48	17:09:39	589982	5d7e7207461e51001c5c236c	823496461	1	main_z	11	main_z	109	stimuli_target_circletriangles.svg	stimuli_distractor_diamondtriangles.svg	5	yes	44	1	616
6.6.1	mac	2022-12-14	16:59:48	17:09:39	589982	5d7e7207461e51001c5c236c	823496461	1	main_z	11	advance_on_keypress_ZEE	110	stimuli_target_circletriangles.svg	stimuli_distractor_diamondtriangles.svg	5	yes	57	0	271
6.6.1	mac	2022-12-14	16:59:48	17:09:41	591694	5d7e7207461e51001c5c236c	823496461	1	main_z	11	main_z	111	stimuli_distractor_trianglediamonds.svg	stimuli_target_circletriangles.svg	9	yes	44	1	811
6.6.1	mac	2022-12-14	16:59:48	17:09:41	591694	5d7e7207461e51001c5c236c	823496461	1	main_z	11	advance_on_keypress_ZEE	112	stimuli_distractor_trianglediamonds.svg	stimuli_target_circletriangles.svg	9	yes	57	0	235
6.6.1	mac	2022-12-14	16:59:48	17:09:43	594548	5d7e7207461e51001c5c236c	823496461	1	main_z	11	main_z	113	stimuli_distractor_trianglediamonds.svg	stimuli_distractor_diamondtriangles.svg	36	no	0	1	2000
6.6.1	mac	2022-12-14	16:59:48	17:09:43	594548	5d7e7207461e51001c5c236c	823496461	1	main_z	11	advance_on_keypress_ZEE	114	stimuli_distractor_trianglediamonds.svg	stimuli_distractor_diamondtriangles.svg	36	no	57	0	691
6.6.1	mac	2022-12-14	16:59:48	17:09:45	596494	5d7e7207461e51001c5c236c	823496461	1	main_z	11	main_z	115	stimuli_target_trianglesquares.svg	stimuli_distractor_trianglediamonds.svg	18	yes	44	1	609
6.6.1	mac	2022-12-14	16:59:48	17:09:45	596494	5d7e7207461e51001c5c236c	823496461	1	main_z	11	advance_on_keypress_ZEE	116	stimuli_target_trianglesquares.svg	stimuli_distractor_trianglediamonds.svg	18	yes	57	0	224
6.6.1	mac	2022-12-14	16:59:48	17:09:47	597862	5d7e7207461e51001c5c236c	823496461	1	main_z	11	main_z	117	stimuli_distractor_trianglediamonds.svg	stimuli_target_trianglecircles.svg	25	yes	44	1	526
6.6.1	mac	2022-12-14	16:59:48	17:09:47	597862	5d7e7207461e51001c5c236c	823496461	1	main_z	11	advance_on_keypress_ZEE	118	stimuli_distractor_trianglediamonds.svg	stimuli_target_trianglecircles.svg	25	yes	57	0	224
6.6.1	mac	2022-12-14	16:59:48	17:09:48	599286	5d7e7207461e51001c5c236c	823496461	1	main_z	11	main_z	119	stimuli_target_diamondsquares.svg	stimuli_distractor_trianglediamonds.svg	20	yes	44	1	567
6.6.1	mac	2022-12-14	16:59:48	17:09:48	599286	5d7e7207461e51001c5c236c	823496461	1	main_z	11	advance_on_keypress_ZEE	120	stimuli_target_diamondsquares.svg	stimuli_distractor_trianglediamonds.svg	20	yes	57	0	303
6.6.1	mac	2022-12-14	16:59:48	17:09:50	601038	5d7e7207461e51001c5c236c	823496461	1	main_z	11	main_z	121	stimuli_distractor_trianglediamonds.svg	stimuli_target_diamondsquares.svg	28	yes	44	1	818
6.6.1	mac	2022-12-14	16:59:48	17:09:50	601038	5d7e7207461e51001c5c236c	823496461	1	main_z	11	advance_on_keypress_ZEE	122	stimuli_distractor_trianglediamonds.svg	stimuli_target_diamondsquares.svg	28	yes	57	0	201
6.6.1	mac	2022-12-14	16:59:48	17:09:51	602389	5d7e7207461e51001c5c236c	823496461	1	main_z	11	main_z	123	stimuli_target_squaretriangles.svg	stimuli_distractor_diamondtriangles.svg	7	yes	44	1	521
6.6.1	mac	2022-12-14	16:59:48	17:09:51	602389	5d7e7207461e51001c5c236c	823496461	1	main_z	11	advance_on_keypress_ZEE	124	stimuli_target_squaretriangles.svg	stimuli_distractor_diamondtriangles.svg	7	yes	57	0	218
6.6.1	mac	2022-12-14	16:59:48	17:09:53	603742	5d7e7207461e51001c5c236c	823496461	1	main_z	11	main_z	125	stimuli_distractor_diamondtriangles.svg	stimuli_target_squarediamonds.svg	16	yes	44	1	505
6.6.1	mac	2022-12-14	16:59:48	17:09:53	603742	5d7e7207461e51001c5c236c	823496461	1	main_z	11	advance_on_keypress_ZEE	126	stimuli_distractor_diamondtriangles.svg	stimuli_target_squarediamonds.svg	16	yes	57	0	227
6.6.1	mac	2022-12-14	16:59:48	17:09:54	605238	5d7e7207461e51001c5c236c	823496461	1	main_z	11	main_z	127	stimuli_distractor_trianglediamonds.svg	stimuli_target_squarediamonds.svg	12	yes	44	1	651
6.6.1	mac	2022-12-14	16:59:48	17:09:54	605238	5d7e7207461e51001c5c236c	823496461	1	main_z	11	advance_on_keypress_ZEE	128	stimuli_distractor_trianglediamonds.svg	stimuli_target_squarediamonds.svg	12	yes	57	0	198
6.6.1	mac	2022-12-14	16:59:48	17:09:56	607182	5d7e7207461e51001c5c236c	823496461	1	main_z	11	main_z	129	stimuli_distractor_diamondtriangles.svg	stimuli_target_circletriangles.svg	13	yes	44	1	1111
6.6.1	mac	2022-12-14	16:59:48	17:09:56	607182	5d7e7207461e51001c5c236c	823496461	1	main_z	11	advance_on_keypress_ZEE	130	stimuli_distractor_diamondtriangles.svg	stimuli_target_circletriangles.svg	13	yes	57	0	313
6.6.1	mac	2022-12-14	16:59:48	17:09:58	608758	5d7e7207461e51001c5c236c	823496461	1	main_z	11	main_z	131	stimuli_target_diamondcircles.svg	stimuli_distractor_diamondtriangles.svg	23	yes	44	1	636
6.6.1	mac	2022-12-14	16:59:48	17:09:58	608758	5d7e7207461e51001c5c236c	823496461	1	main_z	11	advance_on_keypress_ZEE	132	stimuli_target_diamondcircles.svg	stimuli_distractor_diamondtriangles.svg	23	yes	57	0	312
6.6.1	mac	2022-12-14	16:59:48	17:10:01	611706	5d7e7207461e51001c5c236c	823496461	1	main_z	11	main_z	133	stimuli_distractor_trianglediamonds.svg	stimuli_target_squaretriangles.svg	11	yes	0	0	2000
6.6.1	mac	2022-12-14	16:59:48	17:10:01	611706	5d7e7207461e51001c5c236c	823496461	1	main_z	11	advance_on_keypress_ZEE	134	stimuli_distractor_trianglediamonds.svg	stimuli_target_squaretriangles.svg	11	yes	57	0	386
6.6.1	mac	2022-12-14	16:59:48	17:10:02	613142	5d7e7207461e51001c5c236c	823496461	1	main_z	11	main_z	135	stimuli_target_squaretriangles.svg	stimuli_distractor_trianglediamonds.svg	3	yes	44	1	418
6.6.1	mac	2022-12-14	16:59:48	17:10:02	613142	5d7e7207461e51001c5c236c	823496461	1	main_z	11	advance_on_keypress_ZEE	136	stimuli_target_squaretriangles.svg	stimuli_distractor_trianglediamonds.svg	3	yes	57	0	264
6.6.1	mac	2022-12-14	16:59:48	17:10:03	614478	5d7e7207461e51001c5c236c	823496461	1	main_z	11	main_z	137	stimuli_distractor_diamondtriangles.svg	stimuli_target_squaretriangles.svg	15	yes	44	1	436
6.6.1	mac	2022-12-14	16:59:48	17:10:03	614478	5d7e7207461e51001c5c236c	823496461	1	main_z	11	advance_on_keypress_ZEE	138	stimuli_distractor_diamondtriangles.svg	stimuli_target_squaretriangles.svg	15	yes	57	0	250
6.6.1	mac	2022-12-14	16:59:48	17:10:05	615918	5d7e7207461e51001c5c236c	823496461	1	main_z	11	main_z	139	stimuli_distractor_diamondtriangles.svg	stimuli_distractor_trianglediamonds.svg	37	no	44	0	560
6.6.1	mac	2022-12-14	16:59:48	17:10:05	615918	5d7e7207461e51001c5c236c	823496461	1	main_z	11	advance_on_keypress_ZEE	140	stimuli_distractor_diamondtriangles.svg	stimuli_distractor_trianglediamonds.svg	37	no	57	0	311
6.6.1	mac	2022-12-14	16:59:48	17:10:08	618858	5d7e7207461e51001c5c236c	823496461	1	main_z	11	main_z	141	stimuli_distractor_diamondtriangles.svg	stimuli_distractor_trianglediamonds.svg	38	no	0	1	2000
6.6.1	mac	2022-12-14	16:59:48	17:10:08	618858	5d7e7207461e51001c5c236c	823496461	1	main_z	11	advance_on_keypress_ZEE	142	stimuli_distractor_diamondtriangles.svg	stimuli_distractor_trianglediamonds.svg	38	no	57	0	457
6.6.1	mac	2022-12-14	16:59:48	17:10:09	620390	5d7e7207461e51001c5c236c	823496461	1	main_z	11	main_z	143	stimuli_target_diamondsquares.svg	stimuli_distractor_diamondtriangles.svg	24	yes	44	1	446
6.6.1	mac	2022-12-14	16:59:48	17:10:09	620390	5d7e7207461e51001c5c236c	823496461	1	main_z	11	advance_on_keypress_ZEE	144	stimuli_target_diamondsquares.svg	stimuli_distractor_diamondtriangles.svg	24	yes	57	0	208
6.6.1	mac	2022-12-14	16:59:48	17:10:12	623225	5d7e7207461e51001c5c236c	823496461	1	main_z	11	main_z	145	stimuli_distractor_trianglediamonds.svg	stimuli_distractor_diamondtriangles.svg	35	no	0	1	2000
6.6.1	mac	2022-12-14	16:59:48	17:10:12	623225	5d7e7207461e51001c5c236c	823496461	1	main_z	11	advance_on_keypress_ZEE	146	stimuli_distractor_trianglediamonds.svg	stimuli_distractor_diamondtriangles.svg	35	no	57	0	382
6.6.1	mac	2022-12-14	16:59:48	17:10:14	624765	5d7e7207461e51001c5c236c	823496461	1	main_z	11	main_z	147	stimuli_distractor_trianglediamonds.svg	stimuli_target_trianglesquares.svg	26	yes	44	1	521
6.6.1	mac	2022-12-14	16:59:48	17:10:14	624765	5d7e7207461e51001c5c236c	823496461	1	main_z	11	advance_on_keypress_ZEE	148	stimuli_distractor_trianglediamonds.svg	stimuli_target_trianglesquares.svg	26	yes	57	0	242
6.6.1	mac	2022-12-14	16:59:48	17:10:15	626110	5d7e7207461e51001c5c236c	823496461	1	main_z	11	main_z	149	stimuli_target_circlediamonds.svg	stimuli_distractor_diamondtriangles.svg	6	yes	44	1	481
6.6.1	mac	2022-12-14	16:59:48	17:10:15	626110	5d7e7207461e51001c5c236c	823496461	1	main_z	11	advance_on_keypress_ZEE	150	stimuli_target_circlediamonds.svg	stimuli_distractor_diamondtriangles.svg	6	yes	57	0	180
6.6.1	mac	2022-12-14	16:59:48	17:10:18	628928	5d7e7207461e51001c5c236c	823496461	1	main_z	11	main_z	151	stimuli_distractor_diamondtriangles.svg	stimuli_target_trianglesquares.svg	30	yes	0	0	2000
6.6.1	mac	2022-12-14	16:59:48	17:10:18	628928	5d7e7207461e51001c5c236c	823496461	1	main_z	11	advance_on_keypress_ZEE	152	stimuli_distractor_diamondtriangles.svg	stimuli_target_trianglesquares.svg	30	yes	57	0	530
6.6.1	mac	2022-12-14	16:59:48	17:10:20	630654	5d7e7207461e51001c5c236c	823496461	1	main_z	11	main_z	153	stimuli_distractor_trianglediamonds.svg	stimuli_target_diamondcircles.svg	27	yes	44	1	556
6.6.1	mac	2022-12-14	16:59:48	17:10:20	630654	5d7e7207461e51001c5c236c	823496461	1	main_z	11	advance_on_keypress_ZEE	154	stimuli_distractor_trianglediamonds.svg	stimuli_target_diamondcircles.svg	27	yes	57	0	204
6.6.1	mac	2022-12-14	16:59:48	17:10:21	631942	5d7e7207461e51001c5c236c	823496461	1	main_z	11	main_z	155	stimuli_target_diamondcircles.svg	stimuli_distractor_trianglediamonds.svg	19	yes	44	1	444
6.6.1	mac	2022-12-14	16:59:48	17:10:21	631942	5d7e7207461e51001c5c236c	823496461	1	main_z	11	advance_on_keypress_ZEE	156	stimuli_target_diamondcircles.svg	stimuli_distractor_trianglediamonds.svg	19	yes	57	0	185
6.6.1	mac	2022-12-14	16:59:48	17:10:22	633254	5d7e7207461e51001c5c236c	823496461	1	main_z	11	main_z	157	stimuli_target_circletriangles.svg	stimuli_distractor_trianglediamonds.svg	1	yes	44	1	506
6.6.1	mac	2022-12-14	16:59:48	17:10:22	633254	5d7e7207461e51001c5c236c	823496461	1	main_z	11	advance_on_keypress_ZEE	158	stimuli_target_circletriangles.svg	stimuli_distractor_trianglediamonds.svg	1	yes	57	0	325
6.6.1	mac	2022-12-14	16:59:48	17:10:24	634958	5d7e7207461e51001c5c236c	823496461	1	main_z	11	main_z	159	stimuli_distractor_diamondtriangles.svg	stimuli_target_diamondsquares.svg	32	yes	44	1	759
6.6.1	mac	2022-12-14	16:59:48	17:10:24	634958	5d7e7207461e51001c5c236c	823496461	1	main_z	11	advance_on_keypress_ZEE	160	stimuli_distractor_diamondtriangles.svg	stimuli_target_diamondsquares.svg	32	yes	57	0	215