build	computer.platform	date	time	timestamp	time_elapsed_ms	subject	group	session	blockcode	blocknum	trialcode	trialnum	stimulus_left	stimulus_right	stim_index	target_present	response	correct	latency
6.6.1	win	2022-12-23	01:00:48	01:04:19	209375	62f8b410d6f862caef45f2ff	68401926	1	practice_z	5	practice_z	1	stimuli_distractor_trianglediamonds.svg	stimuli_target_circlediamonds.svg	10	yes	44	1	705
6.6.1	win	2022-12-23	01:00:48	01:04:19	209375	62f8b410d6f862caef45f2ff	68401926	1	practice_z	5	advance_on_keypress_ZEE	2	stimuli_distractor_trianglediamonds.svg	stimuli_target_circlediamonds.svg	10	yes	57	0	1779
6.6.1	win	2022-12-23	01:00:48	01:04:24	214804	62f8b410d6f862caef45f2ff	68401926	1	practice_z	5	practice_z	3	stimuli_target_diamondsquares.svg	stimuli_distractor_trianglediamonds.svg	6	yes	0	0	2000
6.6.1	win	2022-12-23	01:00:48	01:04:24	214804	62f8b410d6f862caef45f2ff	68401926	1	practice_z	5	advance_on_keypress_ZEE	4	stimuli_target_diamondsquares.svg	stimuli_distractor_trianglediamonds.svg	6	yes	57	0	1231
6.6.1	win	2022-12-23	01:00:48	01:04:28	218556	62f8b410d6f862caef45f2ff	68401926	1	practice_z	5	practice_z	5	stimuli_target_circlediamonds.svg	stimuli_distractor_diamondtriangles.svg	1	yes	44	1	868
6.6.1	win	2022-12-23	01:00:48	01:04:28	218556	62f8b410d6f862caef45f2ff	68401926	1	practice_z	5	advance_on_keypress_ZEE	6	stimuli_target_circlediamonds.svg	stimuli_distractor_diamondtriangles.svg	1	yes	57	0	2079
6.6.1	win	2022-12-23	01:00:48	01:04:33	223115	62f8b410d6f862caef45f2ff	68401926	1	practice_z	5	practice_z	7	stimuli_distractor_trianglediamonds.svg	stimuli_distractor_diamondtriangles.svg	16	no	44	0	826
6.6.1	win	2022-12-23	01:00:48	01:04:33	223115	62f8b410d6f862caef45f2ff	68401926	1	practice_z	5	advance_on_keypress_ZEE	8	stimuli_distractor_trianglediamonds.svg	stimuli_distractor_diamondtriangles.svg	16	no	57	0	959
6.6.1	win	2022-12-23	01:00:48	01:04:37	227720	62f8b410d6f862caef45f2ff	68401926	1	practice_z	5	practice_z	9	stimuli_distractor_diamondtriangles.svg	stimuli_distractor_diamondtriangles.svg	13	no	0	1	2000
6.6.1	win	2022-12-23	01:00:48	01:04:37	227720	62f8b410d6f862caef45f2ff	68401926	1	practice_z	5	advance_on_keypress_ZEE	10	stimuli_distractor_diamondtriangles.svg	stimuli_distractor_diamondtriangles.svg	13	no	57	0	764
6.6.1	win	2022-12-23	01:00:48	01:04:40	230806	62f8b410d6f862caef45f2ff	68401926	1	practice_z	5	practice_z	11	stimuli_distractor_trianglediamonds.svg	stimuli_target_squarediamonds.svg	11	yes	44	1	668
6.6.1	win	2022-12-23	01:00:48	01:04:40	230806	62f8b410d6f862caef45f2ff	68401926	1	practice_z	5	advance_on_keypress_ZEE	12	stimuli_distractor_trianglediamonds.svg	stimuli_target_squarediamonds.svg	11	yes	57	0	538
6.6.1	win	2022-12-23	01:00:48	01:04:43	233650	62f8b410d6f862caef45f2ff	68401926	1	practice_z	5	practice_z	13	stimuli_target_squarediamonds.svg	stimuli_distractor_trianglediamonds.svg	5	yes	44	1	661
6.6.1	win	2022-12-23	01:00:48	01:04:43	233650	62f8b410d6f862caef45f2ff	68401926	1	practice_z	5	advance_on_keypress_ZEE	14	stimuli_target_squarediamonds.svg	stimuli_distractor_trianglediamonds.svg	5	yes	57	0	633
6.6.1	win	2022-12-23	01:00:48	01:04:47	237938	62f8b410d6f862caef45f2ff	68401926	1	practice_z	5	practice_z	15	stimuli_distractor_diamondtriangles.svg	stimuli_target_trianglecircles.svg	9	yes	0	0	2000
6.6.1	win	2022-12-23	01:00:48	01:04:47	237938	62f8b410d6f862caef45f2ff	68401926	1	practice_z	5	advance_on_keypress_ZEE	16	stimuli_distractor_diamondtriangles.svg	stimuli_target_trianglecircles.svg	9	yes	57	0	508
6.6.1	win	2022-12-23	01:00:48	01:04:52	242090	62f8b410d6f862caef45f2ff	68401926	1	practice_z	5	practice_z	17	stimuli_distractor_trianglediamonds.svg	stimuli_distractor_trianglediamonds.svg	15	no	0	1	2000
6.6.1	win	2022-12-23	01:00:48	01:04:52	242090	62f8b410d6f862caef45f2ff	68401926	1	practice_z	5	advance_on_keypress_ZEE	18	stimuli_distractor_trianglediamonds.svg	stimuli_distractor_trianglediamonds.svg	15	no	57	0	454
6.6.1	win	2022-12-23	01:00:48	01:04:56	246190	62f8b410d6f862caef45f2ff	68401926	1	practice_z	5	practice_z	19	stimuli_distractor_diamondtriangles.svg	stimuli_distractor_trianglediamonds.svg	14	no	0	1	2000
6.6.1	win	2022-12-23	01:00:48	01:04:56	246190	62f8b410d6f862caef45f2ff	68401926	1	practice_z	5	advance_on_keypress_ZEE	20	stimuli_distractor_diamondtriangles.svg	stimuli_distractor_trianglediamonds.svg	14	no	57	0	479
6.6.1	win	2022-12-23	01:00:48	01:05:00	250323	62f8b410d6f862caef45f2ff	68401926	1	practice_z	5	practice_z	21	stimuli_target_diamondsquares.svg	stimuli_distractor_diamondtriangles.svg	3	yes	0	0	2000
6.6.1	win	2022-12-23	01:00:48	01:05:00	250323	62f8b410d6f862caef45f2ff	68401926	1	practice_z	5	advance_on_keypress_ZEE	22	stimuli_target_diamondsquares.svg	stimuli_distractor_diamondtriangles.svg	3	yes	57	0	566
6.6.1	win	2022-12-23	01:00:48	01:05:03	253261	62f8b410d6f862caef45f2ff	68401926	1	practice_z	5	practice_z	23	stimuli_target_circlediamonds.svg	stimuli_distractor_trianglediamonds.svg	4	yes	44	1	720
6.6.1	win	2022-12-23	01:00:48	01:05:03	253261	62f8b410d6f862caef45f2ff	68401926	1	practice_z	5	advance_on_keypress_ZEE	24	stimuli_target_circlediamonds.svg	stimuli_distractor_trianglediamonds.svg	4	yes	57	0	538
6.6.1	win	2022-12-23	01:00:48	01:05:06	256060	62f8b410d6f862caef45f2ff	68401926	1	practice_z	5	practice_z	25	stimuli_target_squarediamonds.svg	stimuli_distractor_diamondtriangles.svg	2	yes	44	1	619
6.6.1	win	2022-12-23	01:00:48	01:05:06	256060	62f8b410d6f862caef45f2ff	68401926	1	practice_z	5	advance_on_keypress_ZEE	26	stimuli_target_squarediamonds.svg	stimuli_distractor_diamondtriangles.svg	2	yes	57	0	441
6.6.1	win	2022-12-23	01:00:48	01:05:10	259995	62f8b410d6f862caef45f2ff	68401926	1	practice_z	5	practice_z	27	stimuli_distractor_diamondtriangles.svg	stimuli_target_diamondcircles.svg	8	yes	44	1	1855
6.6.1	win	2022-12-23	01:00:48	01:05:10	259995	62f8b410d6f862caef45f2ff	68401926	1	practice_z	5	advance_on_keypress_ZEE	28	stimuli_distractor_diamondtriangles.svg	stimuli_target_diamondcircles.svg	8	yes	57	0	517
6.6.1	win	2022-12-23	01:00:48	01:05:12	262694	62f8b410d6f862caef45f2ff	68401926	1	practice_z	5	practice_z	29	stimuli_distractor_diamondtriangles.svg	stimuli_target_circletriangles.svg	7	yes	44	1	536
6.6.1	win	2022-12-23	01:00:48	01:05:12	262694	62f8b410d6f862caef45f2ff	68401926	1	practice_z	5	advance_on_keypress_ZEE	30	stimuli_distractor_diamondtriangles.svg	stimuli_target_circletriangles.svg	7	yes	57	0	345
6.6.1	win	2022-12-23	01:00:48	01:05:15	265334	62f8b410d6f862caef45f2ff	68401926	1	practice_z	5	practice_z	31	stimuli_distractor_trianglediamonds.svg	stimuli_target_diamondcircles.svg	12	yes	44	1	642
6.6.1	win	2022-12-23	01:00:48	01:05:15	265334	62f8b410d6f862caef45f2ff	68401926	1	practice_z	5	advance_on_keypress_ZEE	32	stimuli_distractor_trianglediamonds.svg	stimuli_target_diamondcircles.svg	12	yes	57	0	400
6.6.1	win	2022-12-23	01:00:48	01:05:24	274177	62f8b410d6f862caef45f2ff	68401926	1	main_z	7	main_z	1	stimuli_target_trianglesquares.svg	stimuli_distractor_diamondtriangles.svg	22	yes	44	1	1453
6.6.1	win	2022-12-23	01:00:48	01:05:24	274177	62f8b410d6f862caef45f2ff	68401926	1	main_z	7	advance_on_keypress_ZEE	2	stimuli_target_trianglesquares.svg	stimuli_distractor_diamondtriangles.svg	22	yes	57	0	830
6.6.1	win	2022-12-23	01:00:48	01:05:26	276447	62f8b410d6f862caef45f2ff	68401926	1	main_z	7	main_z	3	stimuli_distractor_diamondtriangles.svg	stimuli_target_trianglecircles.svg	29	yes	44	1	788
6.6.1	win	2022-12-23	01:00:48	01:05:26	276447	62f8b410d6f862caef45f2ff	68401926	1	main_z	7	advance_on_keypress_ZEE	4	stimuli_distractor_diamondtriangles.svg	stimuli_target_trianglecircles.svg	29	yes	57	0	882
6.6.1	win	2022-12-23	01:00:48	01:05:30	279975	62f8b410d6f862caef45f2ff	68401926	1	main_z	7	main_z	5	stimuli_distractor_diamondtriangles.svg	stimuli_distractor_diamondtriangles.svg	40	no	0	1	2000
6.6.1	win	2022-12-23	01:00:48	01:05:30	279975	62f8b410d6f862caef45f2ff	68401926	1	main_z	7	advance_on_keypress_ZEE	6	stimuli_distractor_diamondtriangles.svg	stimuli_distractor_diamondtriangles.svg	40	no	57	0	494
6.6.1	win	2022-12-23	01:00:48	01:05:31	281728	62f8b410d6f862caef45f2ff	68401926	1	main_z	7	main_z	7	stimuli_target_trianglecircles.svg	stimuli_distractor_diamondtriangles.svg	21	yes	44	1	603
6.6.1	win	2022-12-23	01:00:48	01:05:31	281728	62f8b410d6f862caef45f2ff	68401926	1	main_z	7	advance_on_keypress_ZEE	8	stimuli_target_trianglecircles.svg	stimuli_distractor_diamondtriangles.svg	21	yes	57	0	832
6.6.1	win	2022-12-23	01:00:48	01:05:33	283868	62f8b410d6f862caef45f2ff	68401926	1	main_z	7	main_z	9	stimuli_distractor_trianglediamonds.svg	stimuli_target_squarediamonds.svg	12	yes	44	1	659
6.6.1	win	2022-12-23	01:00:48	01:05:33	283868	62f8b410d6f862caef45f2ff	68401926	1	main_z	7	advance_on_keypress_ZEE	10	stimuli_distractor_trianglediamonds.svg	stimuli_target_squarediamonds.svg	12	yes	57	0	1408
6.6.1	win	2022-12-23	01:00:48	01:05:36	286584	62f8b410d6f862caef45f2ff	68401926	1	main_z	7	main_z	11	stimuli_target_squarediamonds.svg	stimuli_distractor_trianglediamonds.svg	4	yes	44	1	675
6.6.1	win	2022-12-23	01:00:48	01:05:36	286584	62f8b410d6f862caef45f2ff	68401926	1	main_z	7	advance_on_keypress_ZEE	12	stimuli_target_squarediamonds.svg	stimuli_distractor_trianglediamonds.svg	4	yes	57	0	562
6.6.1	win	2022-12-23	01:00:48	01:05:39	289776	62f8b410d6f862caef45f2ff	68401926	1	main_z	7	main_z	13	stimuli_distractor_diamondtriangles.svg	stimuli_distractor_trianglediamonds.svg	38	no	0	1	2000
6.6.1	win	2022-12-23	01:00:48	01:05:39	289776	62f8b410d6f862caef45f2ff	68401926	1	main_z	7	advance_on_keypress_ZEE	14	stimuli_distractor_diamondtriangles.svg	stimuli_distractor_trianglediamonds.svg	38	no	57	0	299
6.6.1	win	2022-12-23	01:00:48	01:05:41	291283	62f8b410d6f862caef45f2ff	68401926	1	main_z	7	main_z	15	stimuli_distractor_trianglediamonds.svg	stimuli_target_diamondcircles.svg	27	yes	44	1	557
6.6.1	win	2022-12-23	01:00:48	01:05:41	291283	62f8b410d6f862caef45f2ff	68401926	1	main_z	7	advance_on_keypress_ZEE	16	stimuli_distractor_trianglediamonds.svg	stimuli_target_diamondcircles.svg	27	yes	57	0	838
6.6.1	win	2022-12-23	01:00:48	01:05:44	294760	62f8b410d6f862caef45f2ff	68401926	1	main_z	7	main_z	17	stimuli_distractor_diamondtriangles.svg	stimuli_distractor_trianglediamonds.svg	37	no	0	1	2000
6.6.1	win	2022-12-23	01:00:48	01:05:44	294760	62f8b410d6f862caef45f2ff	68401926	1	main_z	7	advance_on_keypress_ZEE	18	stimuli_distractor_diamondtriangles.svg	stimuli_distractor_trianglediamonds.svg	37	no	57	0	452
6.6.1	win	2022-12-23	01:00:48	01:05:47	297861	62f8b410d6f862caef45f2ff	68401926	1	main_z	7	main_z	19	stimuli_distractor_trianglediamonds.svg	stimuli_distractor_trianglediamonds.svg	33	no	0	1	2000
6.6.1	win	2022-12-23	01:00:48	01:05:47	297861	62f8b410d6f862caef45f2ff	68401926	1	main_z	7	advance_on_keypress_ZEE	20	stimuli_distractor_trianglediamonds.svg	stimuli_distractor_trianglediamonds.svg	33	no	57	0	304
6.6.1	win	2022-12-23	01:00:48	01:05:49	299485	62f8b410d6f862caef45f2ff	68401926	1	main_z	7	main_z	21	stimuli_distractor_trianglediamonds.svg	stimuli_target_trianglesquares.svg	26	yes	44	1	675
6.6.1	win	2022-12-23	01:00:48	01:05:49	299485	62f8b410d6f862caef45f2ff	68401926	1	main_z	7	advance_on_keypress_ZEE	22	stimuli_distractor_trianglediamonds.svg	stimuli_target_trianglesquares.svg	26	yes	57	0	555
6.6.1	win	2022-12-23	01:00:48	01:05:51	301553	62f8b410d6f862caef45f2ff	68401926	1	main_z	7	main_z	23	stimuli_target_diamondsquares.svg	stimuli_distractor_trianglediamonds.svg	20	yes	44	1	876
6.6.1	win	2022-12-23	01:00:48	01:05:51	301553	62f8b410d6f862caef45f2ff	68401926	1	main_z	7	advance_on_keypress_ZEE	24	stimuli_target_diamondsquares.svg	stimuli_distractor_trianglediamonds.svg	20	yes	57	0	660
6.6.1	win	2022-12-23	01:00:48	01:05:54	304861	62f8b410d6f862caef45f2ff	68401926	1	main_z	7	main_z	25	stimuli_target_squaretriangles.svg	stimuli_distractor_trianglediamonds.svg	3	yes	0	0	2000
6.6.1	win	2022-12-23	01:00:48	01:05:54	304861	62f8b410d6f862caef45f2ff	68401926	1	main_z	7	advance_on_keypress_ZEE	26	stimuli_target_squaretriangles.svg	stimuli_distractor_trianglediamonds.svg	3	yes	57	0	413
6.6.1	win	2022-12-23	01:00:48	01:05:56	306519	62f8b410d6f862caef45f2ff	68401926	1	main_z	7	main_z	27	stimuli_distractor_diamondtriangles.svg	stimuli_target_circletriangles.svg	13	yes	44	1	591
6.6.1	win	2022-12-23	01:00:48	01:05:56	306519	62f8b410d6f862caef45f2ff	68401926	1	main_z	7	advance_on_keypress_ZEE	28	stimuli_distractor_diamondtriangles.svg	stimuli_target_circletriangles.svg	13	yes	57	0	529
6.6.1	win	2022-12-23	01:00:48	01:05:58	308473	62f8b410d6f862caef45f2ff	68401926	1	main_z	7	main_z	29	stimuli_target_circletriangles.svg	stimuli_distractor_trianglediamonds.svg	1	yes	44	1	778
6.6.1	win	2022-12-23	01:00:48	01:05:58	308473	62f8b410d6f862caef45f2ff	68401926	1	main_z	7	advance_on_keypress_ZEE	30	stimuli_target_circletriangles.svg	stimuli_distractor_trianglediamonds.svg	1	yes	57	0	559
6.6.1	win	2022-12-23	01:00:48	01:06:01	311662	62f8b410d6f862caef45f2ff	68401926	1	main_z	7	main_z	31	stimuli_distractor_trianglediamonds.svg	stimuli_distractor_diamondtriangles.svg	36	no	0	1	2000
6.6.1	win	2022-12-23	01:00:48	01:06:01	311662	62f8b410d6f862caef45f2ff	68401926	1	main_z	7	advance_on_keypress_ZEE	32	stimuli_distractor_trianglediamonds.svg	stimuli_distractor_diamondtriangles.svg	36	no	57	0	443
6.6.1	win	2022-12-23	01:00:48	01:06:03	313272	62f8b410d6f862caef45f2ff	68401926	1	main_z	7	main_z	33	stimuli_distractor_diamondtriangles.svg	stimuli_target_squarediamonds.svg	16	yes	44	1	526
6.6.1	win	2022-12-23	01:00:48	01:06:03	313272	62f8b410d6f862caef45f2ff	68401926	1	main_z	7	advance_on_keypress_ZEE	34	stimuli_distractor_diamondtriangles.svg	stimuli_target_squarediamonds.svg	16	yes	57	0	539
6.6.1	win	2022-12-23	01:00:48	01:06:05	314978	62f8b410d6f862caef45f2ff	68401926	1	main_z	7	main_z	35	stimuli_distractor_trianglediamonds.svg	stimuli_target_circlediamonds.svg	10	yes	44	1	533
6.6.1	win	2022-12-23	01:00:48	01:06:05	314978	62f8b410d6f862caef45f2ff	68401926	1	main_z	7	advance_on_keypress_ZEE	36	stimuli_distractor_trianglediamonds.svg	stimuli_target_circlediamonds.svg	10	yes	57	0	390
6.6.1	win	2022-12-23	01:00:48	01:06:06	316631	62f8b410d6f862caef45f2ff	68401926	1	main_z	7	main_z	37	stimuli_target_circletriangles.svg	stimuli_distractor_diamondtriangles.svg	5	yes	44	1	619
6.6.1	win	2022-12-23	01:00:48	01:06:06	316631	62f8b410d6f862caef45f2ff	68401926	1	main_z	7	advance_on_keypress_ZEE	38	stimuli_target_circletriangles.svg	stimuli_distractor_diamondtriangles.svg	5	yes	57	0	397
6.6.1	win	2022-12-23	01:00:48	01:06:08	318936	62f8b410d6f862caef45f2ff	68401926	1	main_z	7	main_z	39	stimuli_distractor_trianglediamonds.svg	stimuli_target_circletriangles.svg	9	yes	44	1	1257
6.6.1	win	2022-12-23	01:00:48	01:06:08	318936	62f8b410d6f862caef45f2ff	68401926	1	main_z	7	advance_on_keypress_ZEE	40	stimuli_distractor_trianglediamonds.svg	stimuli_target_circletriangles.svg	9	yes	57	0	441
6.6.1	win	2022-12-23	01:00:48	01:06:10	320569	62f8b410d6f862caef45f2ff	68401926	1	main_z	7	main_z	41	stimuli_target_squarediamonds.svg	stimuli_distractor_diamondtriangles.svg	8	yes	44	1	557
6.6.1	win	2022-12-23	01:00:48	01:06:10	320569	62f8b410d6f862caef45f2ff	68401926	1	main_z	7	advance_on_keypress_ZEE	42	stimuli_target_squarediamonds.svg	stimuli_distractor_diamondtriangles.svg	8	yes	57	0	362
6.6.1	win	2022-12-23	01:00:48	01:06:12	322247	62f8b410d6f862caef45f2ff	68401926	1	main_z	7	main_z	43	stimuli_distractor_diamondtriangles.svg	stimuli_target_trianglesquares.svg	30	yes	44	1	668
6.6.1	win	2022-12-23	01:00:48	01:06:12	322247	62f8b410d6f862caef45f2ff	68401926	1	main_z	7	advance_on_keypress_ZEE	44	stimuli_distractor_diamondtriangles.svg	stimuli_target_trianglesquares.svg	30	yes	57	0	418
6.6.1	win	2022-12-23	01:00:48	01:06:14	324051	62f8b410d6f862caef45f2ff	68401926	1	main_z	7	main_z	45	stimuli_distractor_trianglediamonds.svg	stimuli_target_diamondsquares.svg	28	yes	44	1	738
6.6.1	win	2022-12-23	01:00:48	01:06:14	324051	62f8b410d6f862caef45f2ff	68401926	1	main_z	7	advance_on_keypress_ZEE	46	stimuli_distractor_trianglediamonds.svg	stimuli_target_diamondsquares.svg	28	yes	57	0	487
6.6.1	win	2022-12-23	01:00:48	01:06:15	325816	62f8b410d6f862caef45f2ff	68401926	1	main_z	7	main_z	47	stimuli_target_diamondcircles.svg	stimuli_distractor_diamondtriangles.svg	23	yes	44	1	635
6.6.1	win	2022-12-23	01:00:48	01:06:15	325816	62f8b410d6f862caef45f2ff	68401926	1	main_z	7	advance_on_keypress_ZEE	48	stimuli_target_diamondcircles.svg	stimuli_distractor_diamondtriangles.svg	23	yes	57	0	661
6.6.1	win	2022-12-23	01:00:48	01:06:18	327976	62f8b410d6f862caef45f2ff	68401926	1	main_z	7	main_z	49	stimuli_distractor_trianglediamonds.svg	stimuli_target_squaretriangles.svg	11	yes	44	1	863
6.6.1	win	2022-12-23	01:00:48	01:06:18	327976	62f8b410d6f862caef45f2ff	68401926	1	main_z	7	advance_on_keypress_ZEE	50	stimuli_distractor_trianglediamonds.svg	stimuli_target_squaretriangles.svg	11	yes	57	0	417
6.6.1	win	2022-12-23	01:00:48	01:06:19	329628	62f8b410d6f862caef45f2ff	68401926	1	main_z	7	main_z	51	stimuli_target_circlediamonds.svg	stimuli_distractor_diamondtriangles.svg	6	yes	44	1	597
6.6.1	win	2022-12-23	01:00:48	01:06:19	329628	62f8b410d6f862caef45f2ff	68401926	1	main_z	7	advance_on_keypress_ZEE	52	stimuli_target_circlediamonds.svg	stimuli_distractor_diamondtriangles.svg	6	yes	57	0	489
6.6.1	win	2022-12-23	01:00:48	01:06:22	332764	62f8b410d6f862caef45f2ff	68401926	1	main_z	7	main_z	53	stimuli_distractor_trianglediamonds.svg	stimuli_distractor_trianglediamonds.svg	34	no	0	1	2000
6.6.1	win	2022-12-23	01:00:48	01:06:22	332764	62f8b410d6f862caef45f2ff	68401926	1	main_z	7	advance_on_keypress_ZEE	54	stimuli_distractor_trianglediamonds.svg	stimuli_distractor_trianglediamonds.svg	34	no	57	0	303
6.6.1	win	2022-12-23	01:00:48	01:06:25	335714	62f8b410d6f862caef45f2ff	68401926	1	main_z	7	main_z	55	stimuli_target_diamondsquares.svg	stimuli_distractor_diamondtriangles.svg	24	yes	0	0	2000
6.6.1	win	2022-12-23	01:00:48	01:06:25	335714	62f8b410d6f862caef45f2ff	68401926	1	main_z	7	advance_on_keypress_ZEE	56	stimuli_target_diamondsquares.svg	stimuli_distractor_diamondtriangles.svg	24	yes	57	0	523
6.6.1	win	2022-12-23	01:00:48	01:06:27	337588	62f8b410d6f862caef45f2ff	68401926	1	main_z	7	main_z	57	stimuli_distractor_diamondtriangles.svg	stimuli_target_diamondsquares.svg	32	yes	44	1	707
6.6.1	win	2022-12-23	01:00:48	01:06:27	337588	62f8b410d6f862caef45f2ff	68401926	1	main_z	7	advance_on_keypress_ZEE	58	stimuli_distractor_diamondtriangles.svg	stimuli_target_diamondsquares.svg	32	yes	57	0	883
6.6.1	win	2022-12-23	01:00:48	01:06:29	339638	62f8b410d6f862caef45f2ff	68401926	1	main_z	7	main_z	59	stimuli_target_diamondcircles.svg	stimuli_distractor_trianglediamonds.svg	19	yes	44	1	524
6.6.1	win	2022-12-23	01:00:48	01:06:29	339638	62f8b410d6f862caef45f2ff	68401926	1	main_z	7	advance_on_keypress_ZEE	60	stimuli_target_diamondcircles.svg	stimuli_distractor_trianglediamonds.svg	19	yes	57	0	531
6.6.1	win	2022-12-23	01:00:48	01:06:31	341450	62f8b410d6f862caef45f2ff	68401926	1	main_z	7	main_z	61	stimuli_target_trianglecircles.svg	stimuli_distractor_trianglediamonds.svg	17	yes	44	1	635
6.6.1	win	2022-12-23	01:00:48	01:06:31	341450	62f8b410d6f862caef45f2ff	68401926	1	main_z	7	advance_on_keypress_ZEE	62	stimuli_target_trianglecircles.svg	stimuli_distractor_trianglediamonds.svg	17	yes	57	0	591
6.6.1	win	2022-12-23	01:00:48	01:06:33	343364	62f8b410d6f862caef45f2ff	68401926	1	main_z	7	main_z	63	stimuli_distractor_diamondtriangles.svg	stimuli_target_circlediamonds.svg	14	yes	44	1	683
6.6.1	win	2022-12-23	01:00:48	01:06:33	343364	62f8b410d6f862caef45f2ff	68401926	1	main_z	7	advance_on_keypress_ZEE	64	stimuli_distractor_diamondtriangles.svg	stimuli_target_circlediamonds.svg	14	yes	57	0	535
6.6.1	win	2022-12-23	01:00:48	01:06:35	345105	62f8b410d6f862caef45f2ff	68401926	1	main_z	7	main_z	65	stimuli_distractor_diamondtriangles.svg	stimuli_target_diamondcircles.svg	31	yes	44	1	557
6.6.1	win	2022-12-23	01:00:48	01:06:35	345105	62f8b410d6f862caef45f2ff	68401926	1	main_z	7	advance_on_keypress_ZEE	66	stimuli_distractor_diamondtriangles.svg	stimuli_target_diamondcircles.svg	31	yes	57	0	409
6.6.1	win	2022-12-23	01:00:48	01:06:38	348149	62f8b410d6f862caef45f2ff	68401926	1	main_z	7	main_z	67	stimuli_distractor_trianglediamonds.svg	stimuli_distractor_diamondtriangles.svg	35	no	0	1	2000
6.6.1	win	2022-12-23	01:00:48	01:06:38	348149	62f8b410d6f862caef45f2ff	68401926	1	main_z	7	advance_on_keypress_ZEE	68	stimuli_distractor_trianglediamonds.svg	stimuli_distractor_diamondtriangles.svg	35	no	57	0	339
6.6.1	win	2022-12-23	01:00:48	01:06:39	349725	62f8b410d6f862caef45f2ff	68401926	1	main_z	7	main_z	69	stimuli_target_circlediamonds.svg	stimuli_distractor_trianglediamonds.svg	2	yes	44	1	593
6.6.1	win	2022-12-23	01:00:48	01:06:39	349725	62f8b410d6f862caef45f2ff	68401926	1	main_z	7	advance_on_keypress_ZEE	70	stimuli_target_circlediamonds.svg	stimuli_distractor_trianglediamonds.svg	2	yes	57	0	476
6.6.1	win	2022-12-23	01:00:48	01:06:42	352832	62f8b410d6f862caef45f2ff	68401926	1	main_z	7	main_z	71	stimuli_distractor_diamondtriangles.svg	stimuli_distractor_diamondtriangles.svg	39	no	0	1	2000
6.6.1	win	2022-12-23	01:00:48	01:06:42	352832	62f8b410d6f862caef45f2ff	68401926	1	main_z	7	advance_on_keypress_ZEE	72	stimuli_distractor_diamondtriangles.svg	stimuli_distractor_diamondtriangles.svg	39	no	57	0	321
6.6.1	win	2022-12-23	01:00:48	01:06:44	354352	62f8b410d6f862caef45f2ff	68401926	1	main_z	7	main_z	73	stimuli_target_squaretriangles.svg	stimuli_distractor_diamondtriangles.svg	7	yes	44	1	553
6.6.1	win	2022-12-23	01:00:48	01:06:44	354352	62f8b410d6f862caef45f2ff	68401926	1	main_z	7	advance_on_keypress_ZEE	74	stimuli_target_squaretriangles.svg	stimuli_distractor_diamondtriangles.svg	7	yes	57	0	409
6.6.1	win	2022-12-23	01:00:48	01:06:46	356039	62f8b410d6f862caef45f2ff	68401926	1	main_z	7	main_z	75	stimuli_target_trianglesquares.svg	stimuli_distractor_trianglediamonds.svg	18	yes	44	1	640
6.6.1	win	2022-12-23	01:00:48	01:06:46	356039	62f8b410d6f862caef45f2ff	68401926	1	main_z	7	advance_on_keypress_ZEE	76	stimuli_target_trianglesquares.svg	stimuli_distractor_trianglediamonds.svg	18	yes	57	0	402
6.6.1	win	2022-12-23	01:00:48	01:06:47	357909	62f8b410d6f862caef45f2ff	68401926	1	main_z	7	main_z	77	stimuli_distractor_trianglediamonds.svg	stimuli_target_trianglecircles.svg	25	yes	44	1	825
6.6.1	win	2022-12-23	01:00:48	01:06:47	357909	62f8b410d6f862caef45f2ff	68401926	1	main_z	7	advance_on_keypress_ZEE	78	stimuli_distractor_trianglediamonds.svg	stimuli_target_trianglecircles.svg	25	yes	57	0	454
6.6.1	win	2022-12-23	01:00:48	01:06:49	359665	62f8b410d6f862caef45f2ff	68401926	1	main_z	7	main_z	79	stimuli_distractor_diamondtriangles.svg	stimuli_target_squaretriangles.svg	15	yes	44	1	665
6.6.1	win	2022-12-23	01:00:48	01:06:49	359665	62f8b410d6f862caef45f2ff	68401926	1	main_z	7	advance_on_keypress_ZEE	80	stimuli_distractor_diamondtriangles.svg	stimuli_target_squaretriangles.svg	15	yes	57	0	366
6.6.1	win	2022-12-23	01:00:48	01:06:51	361199	62f8b410d6f862caef45f2ff	68401926	1	main_z	7	main_z	81	stimuli_target_trianglecircles.svg	stimuli_distractor_diamondtriangles.svg	21	yes	44	1	506
6.6.1	win	2022-12-23	01:00:48	01:06:51	361199	62f8b410d6f862caef45f2ff	68401926	1	main_z	7	advance_on_keypress_ZEE	82	stimuli_target_trianglecircles.svg	stimuli_distractor_diamondtriangles.svg	21	yes	57	0	359
6.6.1	win	2022-12-23	01:00:48	01:06:52	362758	62f8b410d6f862caef45f2ff	68401926	1	main_z	7	main_z	83	stimuli_distractor_trianglediamonds.svg	stimuli_target_diamondcircles.svg	27	yes	44	1	558
6.6.1	win	2022-12-23	01:00:48	01:06:52	362758	62f8b410d6f862caef45f2ff	68401926	1	main_z	7	advance_on_keypress_ZEE	84	stimuli_distractor_trianglediamonds.svg	stimuli_target_diamondcircles.svg	27	yes	57	0	295
6.6.1	win	2022-12-23	01:00:48	01:06:54	364227	62f8b410d6f862caef45f2ff	68401926	1	main_z	7	main_z	85	stimuli_distractor_diamondtriangles.svg	stimuli_target_trianglecircles.svg	29	yes	44	1	544
6.6.1	win	2022-12-23	01:00:48	01:06:54	364227	62f8b410d6f862caef45f2ff	68401926	1	main_z	7	advance_on_keypress_ZEE	86	stimuli_distractor_diamondtriangles.svg	stimuli_target_trianglecircles.svg	29	yes	57	0	269
6.6.1	win	2022-12-23	01:00:48	01:06:55	365607	62f8b410d6f862caef45f2ff	68401926	1	main_z	7	main_z	87	stimuli_target_circlediamonds.svg	stimuli_distractor_trianglediamonds.svg	2	yes	44	1	473
6.6.1	win	2022-12-23	01:00:48	01:06:55	365607	62f8b410d6f862caef45f2ff	68401926	1	main_z	7	advance_on_keypress_ZEE	88	stimuli_target_circlediamonds.svg	stimuli_distractor_trianglediamonds.svg	2	yes	57	0	805
6.6.1	win	2022-12-23	01:00:48	01:06:59	369051	62f8b410d6f862caef45f2ff	68401926	1	main_z	7	main_z	89	stimuli_distractor_trianglediamonds.svg	stimuli_distractor_trianglediamonds.svg	34	no	0	1	2000
6.6.1	win	2022-12-23	01:00:48	01:06:59	369051	62f8b410d6f862caef45f2ff	68401926	1	main_z	7	advance_on_keypress_ZEE	90	stimuli_distractor_trianglediamonds.svg	stimuli_distractor_trianglediamonds.svg	34	no	57	0	351
6.6.1	win	2022-12-23	01:00:48	01:07:01	370968	62f8b410d6f862caef45f2ff	68401926	1	main_z	7	main_z	91	stimuli_target_squaretriangles.svg	stimuli_distractor_diamondtriangles.svg	7	yes	44	1	917
6.6.1	win	2022-12-23	01:00:48	01:07:01	370968	62f8b410d6f862caef45f2ff	68401926	1	main_z	7	advance_on_keypress_ZEE	92	stimuli_target_squaretriangles.svg	stimuli_distractor_diamondtriangles.svg	7	yes	57	0	434
6.6.1	win	2022-12-23	01:00:48	01:07:02	372557	62f8b410d6f862caef45f2ff	68401926	1	main_z	7	main_z	93	stimuli_distractor_diamondtriangles.svg	stimuli_target_circlediamonds.svg	14	yes	44	1	503
6.6.1	win	2022-12-23	01:00:48	01:07:02	372557	62f8b410d6f862caef45f2ff	68401926	1	main_z	7	advance_on_keypress_ZEE	94	stimuli_distractor_diamondtriangles.svg	stimuli_target_circlediamonds.svg	14	yes	57	0	360
6.6.1	win	2022-12-23	01:00:48	01:07:04	374233	62f8b410d6f862caef45f2ff	68401926	1	main_z	7	main_z	95	stimuli_distractor_trianglediamonds.svg	stimuli_target_diamondsquares.svg	28	yes	44	1	682
6.6.1	win	2022-12-23	01:00:48	01:07:04	374233	62f8b410d6f862caef45f2ff	68401926	1	main_z	7	advance_on_keypress_ZEE	96	stimuli_distractor_trianglediamonds.svg	stimuli_target_diamondsquares.svg	28	yes	57	0	374
6.6.1	win	2022-12-23	01:00:48	01:07:05	375790	62f8b410d6f862caef45f2ff	68401926	1	main_z	7	main_z	97	stimuli_target_circletriangles.svg	stimuli_distractor_trianglediamonds.svg	1	yes	44	1	539
6.6.1	win	2022-12-23	01:00:48	01:07:05	375790	62f8b410d6f862caef45f2ff	68401926	1	main_z	7	advance_on_keypress_ZEE	98	stimuli_target_circletriangles.svg	stimuli_distractor_trianglediamonds.svg	1	yes	57	0	345
6.6.1	win	2022-12-23	01:00:48	01:07:07	377306	62f8b410d6f862caef45f2ff	68401926	1	main_z	7	main_z	99	stimuli_target_trianglecircles.svg	stimuli_distractor_trianglediamonds.svg	17	yes	44	1	538
6.6.1	win	2022-12-23	01:00:48	01:07:07	377306	62f8b410d6f862caef45f2ff	68401926	1	main_z	7	advance_on_keypress_ZEE	100	stimuli_target_trianglecircles.svg	stimuli_distractor_trianglediamonds.svg	17	yes	57	0	300
6.6.1	win	2022-12-23	01:00:48	01:07:09	378983	62f8b410d6f862caef45f2ff	68401926	1	main_z	7	main_z	101	stimuli_target_diamondsquares.svg	stimuli_distractor_trianglediamonds.svg	20	yes	44	1	731
6.6.1	win	2022-12-23	01:00:48	01:07:09	378983	62f8b410d6f862caef45f2ff	68401926	1	main_z	7	advance_on_keypress_ZEE	102	stimuli_target_diamondsquares.svg	stimuli_distractor_trianglediamonds.svg	20	yes	57	0	438
6.6.1	win	2022-12-23	01:00:48	01:07:10	380636	62f8b410d6f862caef45f2ff	68401926	1	main_z	7	main_z	103	stimuli_distractor_diamondtriangles.svg	stimuli_target_diamondcircles.svg	31	yes	44	1	567
6.6.1	win	2022-12-23	01:00:48	01:07:10	380636	62f8b410d6f862caef45f2ff	68401926	1	main_z	7	advance_on_keypress_ZEE	104	stimuli_distractor_diamondtriangles.svg	stimuli_target_diamondcircles.svg	31	yes	57	0	540
6.6.1	win	2022-12-23	01:00:48	01:07:12	382393	62f8b410d6f862caef45f2ff	68401926	1	main_z	7	main_z	105	stimuli_distractor_trianglediamonds.svg	stimuli_target_circlediamonds.svg	10	yes	44	1	574
6.6.1	win	2022-12-23	01:00:48	01:07:12	382393	62f8b410d6f862caef45f2ff	68401926	1	main_z	7	advance_on_keypress_ZEE	106	stimuli_distractor_trianglediamonds.svg	stimuli_target_circlediamonds.svg	10	yes	57	0	344
6.6.1	win	2022-12-23	01:00:48	01:07:14	384051	62f8b410d6f862caef45f2ff	68401926	1	main_z	7	main_z	107	stimuli_target_squaretriangles.svg	stimuli_distractor_trianglediamonds.svg	3	yes	44	1	683
6.6.1	win	2022-12-23	01:00:48	01:07:14	384051	62f8b410d6f862caef45f2ff	68401926	1	main_z	7	advance_on_keypress_ZEE	108	stimuli_target_squaretriangles.svg	stimuli_distractor_trianglediamonds.svg	3	yes	57	0	335
6.6.1	win	2022-12-23	01:00:48	01:07:15	385656	62f8b410d6f862caef45f2ff	68401926	1	main_z	7	main_z	109	stimuli_distractor_trianglediamonds.svg	stimuli_target_trianglesquares.svg	26	yes	44	1	620
6.6.1	win	2022-12-23	01:00:48	01:07:15	385656	62f8b410d6f862caef45f2ff	68401926	1	main_z	7	advance_on_keypress_ZEE	110	stimuli_distractor_trianglediamonds.svg	stimuli_target_trianglesquares.svg	26	yes	57	0	589
6.6.1	win	2022-12-23	01:00:48	01:07:18	388886	62f8b410d6f862caef45f2ff	68401926	1	main_z	7	main_z	111	stimuli_distractor_trianglediamonds.svg	stimuli_distractor_diamondtriangles.svg	36	no	0	1	2000
6.6.1	win	2022-12-23	01:00:48	01:07:18	388886	62f8b410d6f862caef45f2ff	68401926	1	main_z	7	advance_on_keypress_ZEE	112	stimuli_distractor_trianglediamonds.svg	stimuli_distractor_diamondtriangles.svg	36	no	57	0	422
6.6.1	win	2022-12-23	01:00:48	01:07:20	390469	62f8b410d6f862caef45f2ff	68401926	1	main_z	7	main_z	113	stimuli_distractor_diamondtriangles.svg	stimuli_target_squaretriangles.svg	15	yes	44	1	516
6.6.1	win	2022-12-23	01:00:48	01:07:20	390469	62f8b410d6f862caef45f2ff	68401926	1	main_z	7	advance_on_keypress_ZEE	114	stimuli_distractor_diamondtriangles.svg	stimuli_target_squaretriangles.svg	15	yes	57	0	528
6.6.1	win	2022-12-23	01:00:48	01:07:22	392153	62f8b410d6f862caef45f2ff	68401926	1	main_z	7	main_z	115	stimuli_target_diamondcircles.svg	stimuli_distractor_diamondtriangles.svg	23	yes	44	1	517
6.6.1	win	2022-12-23	01:00:48	01:07:22	392153	62f8b410d6f862caef45f2ff	68401926	1	main_z	7	advance_on_keypress_ZEE	116	stimuli_target_diamondcircles.svg	stimuli_distractor_diamondtriangles.svg	23	yes	57	0	344
6.6.1	win	2022-12-23	01:00:48	01:07:23	393616	62f8b410d6f862caef45f2ff	68401926	1	main_z	7	main_z	117	stimuli_distractor_trianglediamonds.svg	stimuli_target_trianglecircles.svg	25	yes	44	1	479
6.6.1	win	2022-12-23	01:00:48	01:07:23	393616	62f8b410d6f862caef45f2ff	68401926	1	main_z	7	advance_on_keypress_ZEE	118	stimuli_distractor_trianglediamonds.svg	stimuli_target_trianglecircles.svg	25	yes	57	0	324
6.6.1	win	2022-12-23	01:00:48	01:07:25	395095	62f8b410d6f862caef45f2ff	68401926	1	main_z	7	main_z	119	stimuli_distractor_diamondtriangles.svg	stimuli_target_squarediamonds.svg	16	yes	44	1	505
6.6.1	win	2022-12-23	01:00:48	01:07:25	395095	62f8b410d6f862caef45f2ff	68401926	1	main_z	7	advance_on_keypress_ZEE	120	stimuli_distractor_diamondtriangles.svg	stimuli_target_squarediamonds.svg	16	yes	57	0	325
6.6.1	win	2022-12-23	01:00:48	01:07:26	396484	62f8b410d6f862caef45f2ff	68401926	1	main_z	7	main_z	121	stimuli_target_circlediamonds.svg	stimuli_distractor_diamondtriangles.svg	6	yes	44	1	431
6.6.1	win	2022-12-23	01:00:48	01:07:26	396484	62f8b410d6f862caef45f2ff	68401926	1	main_z	7	advance_on_keypress_ZEE	122	stimuli_target_circlediamonds.svg	stimuli_distractor_diamondtriangles.svg	6	yes	57	0	243
6.6.1	win	2022-12-23	01:00:48	01:07:27	397841	62f8b410d6f862caef45f2ff	68401926	1	main_z	7	main_z	123	stimuli_target_trianglesquares.svg	stimuli_distractor_trianglediamonds.svg	18	yes	44	1	471
6.6.1	win	2022-12-23	01:00:48	01:07:27	397841	62f8b410d6f862caef45f2ff	68401926	1	main_z	7	advance_on_keypress_ZEE	124	stimuli_target_trianglesquares.svg	stimuli_distractor_trianglediamonds.svg	18	yes	57	0	334
6.6.1	win	2022-12-23	01:00:48	01:07:29	399366	62f8b410d6f862caef45f2ff	68401926	1	main_z	7	main_z	125	stimuli_target_diamondsquares.svg	stimuli_distractor_diamondtriangles.svg	24	yes	44	1	545
6.6.1	win	2022-12-23	01:00:48	01:07:29	399366	62f8b410d6f862caef45f2ff	68401926	1	main_z	7	advance_on_keypress_ZEE	126	stimuli_target_diamondsquares.svg	stimuli_distractor_diamondtriangles.svg	24	yes	57	0	348
6.6.1	win	2022-12-23	01:00:48	01:07:31	401228	62f8b410d6f862caef45f2ff	68401926	1	main_z	7	main_z	127	stimuli_distractor_trianglediamonds.svg	stimuli_target_squarediamonds.svg	12	yes	44	1	857
6.6.1	win	2022-12-23	01:00:48	01:07:31	401228	62f8b410d6f862caef45f2ff	68401926	1	main_z	7	advance_on_keypress_ZEE	128	stimuli_distractor_trianglediamonds.svg	stimuli_target_squarediamonds.svg	12	yes	57	0	464
6.6.1	win	2022-12-23	01:00:48	01:07:34	404338	62f8b410d6f862caef45f2ff	68401926	1	main_z	7	main_z	129	stimuli_distractor_diamondtriangles.svg	stimuli_distractor_diamondtriangles.svg	40	no	0	1	2000
6.6.1	win	2022-12-23	01:00:48	01:07:34	404338	62f8b410d6f862caef45f2ff	68401926	1	main_z	7	advance_on_keypress_ZEE	130	stimuli_distractor_diamondtriangles.svg	stimuli_distractor_diamondtriangles.svg	40	no	57	0	283
6.6.1	win	2022-12-23	01:00:48	01:07:35	405692	62f8b410d6f862caef45f2ff	68401926	1	main_z	7	main_z	131	stimuli_target_squarediamonds.svg	stimuli_distractor_diamondtriangles.svg	8	yes	44	1	421
6.6.1	win	2022-12-23	01:00:48	01:07:35	405692	62f8b410d6f862caef45f2ff	68401926	1	main_z	7	advance_on_keypress_ZEE	132	stimuli_target_squarediamonds.svg	stimuli_distractor_diamondtriangles.svg	8	yes	57	0	352
6.6.1	win	2022-12-23	01:00:48	01:07:38	408688	62f8b410d6f862caef45f2ff	68401926	1	main_z	7	main_z	133	stimuli_distractor_diamondtriangles.svg	stimuli_distractor_trianglediamonds.svg	37	no	0	1	2000
6.6.1	win	2022-12-23	01:00:48	01:07:38	408688	62f8b410d6f862caef45f2ff	68401926	1	main_z	7	advance_on_keypress_ZEE	134	stimuli_distractor_diamondtriangles.svg	stimuli_distractor_trianglediamonds.svg	37	no	57	0	509
6.6.1	win	2022-12-23	01:00:48	01:07:41	411838	62f8b410d6f862caef45f2ff	68401926	1	main_z	7	main_z	135	stimuli_distractor_trianglediamonds.svg	stimuli_distractor_diamondtriangles.svg	35	no	0	1	2000
6.6.1	win	2022-12-23	01:00:48	01:07:41	411838	62f8b410d6f862caef45f2ff	68401926	1	main_z	7	advance_on_keypress_ZEE	136	stimuli_distractor_trianglediamonds.svg	stimuli_distractor_diamondtriangles.svg	35	no	57	0	275
6.6.1	win	2022-12-23	01:00:48	01:07:43	413210	62f8b410d6f862caef45f2ff	68401926	1	main_z	7	main_z	137	stimuli_target_squarediamonds.svg	stimuli_distractor_trianglediamonds.svg	4	yes	44	1	455
6.6.1	win	2022-12-23	01:00:48	01:07:43	413210	62f8b410d6f862caef45f2ff	68401926	1	main_z	7	advance_on_keypress_ZEE	138	stimuli_target_squarediamonds.svg	stimuli_distractor_trianglediamonds.svg	4	yes	57	0	381
6.6.1	win	2022-12-23	01:00:48	01:07:45	415015	62f8b410d6f862caef45f2ff	68401926	1	main_z	7	main_z	139	stimuli_distractor_trianglediamonds.svg	stimuli_target_squaretriangles.svg	11	yes	44	1	776
6.6.1	win	2022-12-23	01:00:48	01:07:45	415015	62f8b410d6f862caef45f2ff	68401926	1	main_z	7	advance_on_keypress_ZEE	140	stimuli_distractor_trianglediamonds.svg	stimuli_target_squaretriangles.svg	11	yes	57	0	433
6.6.1	win	2022-12-23	01:00:48	01:07:48	418089	62f8b410d6f862caef45f2ff	68401926	1	main_z	7	main_z	141	stimuli_distractor_diamondtriangles.svg	stimuli_distractor_diamondtriangles.svg	39	no	0	1	2000
6.6.1	win	2022-12-23	01:00:48	01:07:48	418089	62f8b410d6f862caef45f2ff	68401926	1	main_z	7	advance_on_keypress_ZEE	142	stimuli_distractor_diamondtriangles.svg	stimuli_distractor_diamondtriangles.svg	39	no	57	0	279
6.6.1	win	2022-12-23	01:00:48	01:07:49	419491	62f8b410d6f862caef45f2ff	68401926	1	main_z	7	main_z	143	stimuli_distractor_diamondtriangles.svg	stimuli_target_circletriangles.svg	13	yes	44	1	485
6.6.1	win	2022-12-23	01:00:48	01:07:49	419491	62f8b410d6f862caef45f2ff	68401926	1	main_z	7	advance_on_keypress_ZEE	144	stimuli_distractor_diamondtriangles.svg	stimuli_target_circletriangles.svg	13	yes	57	0	363
6.6.1	win	2022-12-23	01:00:48	01:07:52	422506	62f8b410d6f862caef45f2ff	68401926	1	main_z	7	main_z	145	stimuli_distractor_diamondtriangles.svg	stimuli_distractor_trianglediamonds.svg	38	no	0	1	2000
6.6.1	win	2022-12-23	01:00:48	01:07:52	422506	62f8b410d6f862caef45f2ff	68401926	1	main_z	7	advance_on_keypress_ZEE	146	stimuli_distractor_diamondtriangles.svg	stimuli_distractor_trianglediamonds.svg	38	no	57	0	249
6.6.1	win	2022-12-23	01:00:48	01:07:54	424496	62f8b410d6f862caef45f2ff	68401926	1	main_z	7	main_z	147	stimuli_distractor_diamondtriangles.svg	stimuli_target_diamondsquares.svg	32	yes	44	1	1090
6.6.1	win	2022-12-23	01:00:48	01:07:54	424496	62f8b410d6f862caef45f2ff	68401926	1	main_z	7	advance_on_keypress_ZEE	148	stimuli_distractor_diamondtriangles.svg	stimuli_target_diamondsquares.svg	32	yes	57	0	397
6.6.1	win	2022-12-23	01:00:48	01:07:57	427540	62f8b410d6f862caef45f2ff	68401926	1	main_z	7	main_z	149	stimuli_distractor_trianglediamonds.svg	stimuli_distractor_trianglediamonds.svg	33	no	0	1	2000
6.6.1	win	2022-12-23	01:00:48	01:07:57	427540	62f8b410d6f862caef45f2ff	68401926	1	main_z	7	advance_on_keypress_ZEE	150	stimuli_distractor_trianglediamonds.svg	stimuli_distractor_trianglediamonds.svg	33	no	57	0	254
6.6.1	win	2022-12-23	01:00:48	01:07:58	428887	62f8b410d6f862caef45f2ff	68401926	1	main_z	7	main_z	151	stimuli_target_trianglesquares.svg	stimuli_distractor_diamondtriangles.svg	22	yes	44	1	447
6.6.1	win	2022-12-23	01:00:48	01:07:58	428887	62f8b410d6f862caef45f2ff	68401926	1	main_z	7	advance_on_keypress_ZEE	152	stimuli_target_trianglesquares.svg	stimuli_distractor_diamondtriangles.svg	22	yes	57	0	465
6.6.1	win	2022-12-23	01:00:48	01:08:02	432007	62f8b410d6f862caef45f2ff	68401926	1	main_z	7	main_z	153	stimuli_target_diamondcircles.svg	stimuli_distractor_trianglediamonds.svg	19	yes	0	0	2000
6.6.1	win	2022-12-23	01:00:48	01:08:02	432007	62f8b410d6f862caef45f2ff	68401926	1	main_z	7	advance_on_keypress_ZEE	154	stimuli_target_diamondcircles.svg	stimuli_distractor_trianglediamonds.svg	19	yes	57	0	337
6.6.1	win	2022-12-23	01:00:48	01:08:03	433463	62f8b410d6f862caef45f2ff	68401926	1	main_z	7	main_z	155	stimuli_distractor_trianglediamonds.svg	stimuli_target_circletriangles.svg	9	yes	44	1	472
6.6.1	win	2022-12-23	01:00:48	01:08:03	433463	62f8b410d6f862caef45f2ff	68401926	1	main_z	7	advance_on_keypress_ZEE	156	stimuli_distractor_trianglediamonds.svg	stimuli_target_circletriangles.svg	9	yes	57	0	411
6.6.1	win	2022-12-23	01:00:48	01:08:05	435052	62f8b410d6f862caef45f2ff	68401926	1	main_z	7	main_z	157	stimuli_target_circletriangles.svg	stimuli_distractor_diamondtriangles.svg	5	yes	44	1	545
6.6.1	win	2022-12-23	01:00:48	01:08:05	435052	62f8b410d6f862caef45f2ff	68401926	1	main_z	7	advance_on_keypress_ZEE	158	stimuli_target_circletriangles.svg	stimuli_distractor_diamondtriangles.svg	5	yes	57	0	360
6.6.1	win	2022-12-23	01:00:48	01:08:06	436597	62f8b410d6f862caef45f2ff	68401926	1	main_z	7	main_z	159	stimuli_distractor_diamondtriangles.svg	stimuli_target_trianglesquares.svg	30	yes	44	1	556
6.6.1	win	2022-12-23	01:00:48	01:08:06	436597	62f8b410d6f862caef45f2ff	68401926	1	main_z	7	advance_on_keypress_ZEE	160	stimuli_distractor_diamondtriangles.svg	stimuli_target_trianglesquares.svg	30	yes	57	0	382
6.6.1	win	2022-12-23	01:00:48	01:08:34	464095	62f8b410d6f862caef45f2ff	68401926	1	practice_slash	9	practice_slash	1	stimuli_target_diamondsquares.svg	stimuli_distractor_diamondtriangles.svg	3	yes	53	1	567
6.6.1	win	2022-12-23	01:00:48	01:08:34	464095	62f8b410d6f862caef45f2ff	68401926	1	practice_slash	9	advance_on_keypress_SLASH	2	stimuli_target_diamondsquares.svg	stimuli_distractor_diamondtriangles.svg	3	yes	57	0	433
6.6.1	win	2022-12-23	01:00:48	01:08:38	468178	62f8b410d6f862caef45f2ff	68401926	1	practice_slash	9	practice_slash	3	stimuli_distractor_trianglediamonds.svg	stimuli_distractor_diamondtriangles.svg	16	no	0	1	2000
6.6.1	win	2022-12-23	01:00:48	01:08:38	468178	62f8b410d6f862caef45f2ff	68401926	1	practice_slash	9	advance_on_keypress_SLASH	4	stimuli_distractor_trianglediamonds.svg	stimuli_distractor_diamondtriangles.svg	16	no	57	0	282
6.6.1	win	2022-12-23	01:00:48	01:08:40	470700	62f8b410d6f862caef45f2ff	68401926	1	practice_slash	9	practice_slash	5	stimuli_distractor_diamondtriangles.svg	stimuli_target_trianglecircles.svg	9	yes	53	1	587
6.6.1	win	2022-12-23	01:00:48	01:08:40	470700	62f8b410d6f862caef45f2ff	68401926	1	practice_slash	9	advance_on_keypress_SLASH	6	stimuli_distractor_diamondtriangles.svg	stimuli_target_trianglecircles.svg	9	yes	57	0	1060
6.6.1	win	2022-12-23	01:00:48	01:08:43	473823	62f8b410d6f862caef45f2ff	68401926	1	practice_slash	9	practice_slash	7	stimuli_distractor_trianglediamonds.svg	stimuli_target_diamondcircles.svg	12	yes	53	1	428
6.6.1	win	2022-12-23	01:00:48	01:08:43	473823	62f8b410d6f862caef45f2ff	68401926	1	practice_slash	9	advance_on_keypress_SLASH	8	stimuli_distractor_trianglediamonds.svg	stimuli_target_diamondcircles.svg	12	yes	57	0	519
6.6.1	win	2022-12-23	01:00:48	01:08:46	476520	62f8b410d6f862caef45f2ff	68401926	1	practice_slash	9	practice_slash	9	stimuli_target_circlediamonds.svg	stimuli_distractor_diamondtriangles.svg	1	yes	53	1	541
6.6.1	win	2022-12-23	01:00:48	01:08:46	476520	62f8b410d6f862caef45f2ff	68401926	1	practice_slash	9	advance_on_keypress_SLASH	10	stimuli_target_circlediamonds.svg	stimuli_distractor_diamondtriangles.svg	1	yes	57	0	611
6.6.1	win	2022-12-23	01:00:48	01:08:49	479332	62f8b410d6f862caef45f2ff	68401926	1	practice_slash	9	practice_slash	11	stimuli_distractor_diamondtriangles.svg	stimuli_target_circletriangles.svg	7	yes	53	1	551
6.6.1	win	2022-12-23	01:00:48	01:08:49	479332	62f8b410d6f862caef45f2ff	68401926	1	practice_slash	9	advance_on_keypress_SLASH	12	stimuli_distractor_diamondtriangles.svg	stimuli_target_circletriangles.svg	7	yes	57	0	564
6.6.1	win	2022-12-23	01:00:48	01:08:52	482000	62f8b410d6f862caef45f2ff	68401926	1	practice_slash	9	practice_slash	13	stimuli_distractor_trianglediamonds.svg	stimuli_target_circlediamonds.svg	10	yes	53	1	452
6.6.1	win	2022-12-23	01:00:48	01:08:52	482000	62f8b410d6f862caef45f2ff	68401926	1	practice_slash	9	advance_on_keypress_SLASH	14	stimuli_distractor_trianglediamonds.svg	stimuli_target_circlediamonds.svg	10	yes	57	0	590
6.6.1	win	2022-12-23	01:00:48	01:08:56	486232	62f8b410d6f862caef45f2ff	68401926	1	practice_slash	9	practice_slash	15	stimuli_distractor_trianglediamonds.svg	stimuli_distractor_trianglediamonds.svg	15	no	0	1	2000
6.6.1	win	2022-12-23	01:00:48	01:08:56	486232	62f8b410d6f862caef45f2ff	68401926	1	practice_slash	9	advance_on_keypress_SLASH	16	stimuli_distractor_trianglediamonds.svg	stimuli_distractor_trianglediamonds.svg	15	no	57	0	630
6.6.1	win	2022-12-23	01:00:48	01:08:59	488982	62f8b410d6f862caef45f2ff	68401926	1	practice_slash	9	practice_slash	17	stimuli_target_circlediamonds.svg	stimuli_distractor_trianglediamonds.svg	4	yes	53	1	467
6.6.1	win	2022-12-23	01:00:48	01:08:59	488982	62f8b410d6f862caef45f2ff	68401926	1	practice_slash	9	advance_on_keypress_SLASH	18	stimuli_target_circlediamonds.svg	stimuli_distractor_trianglediamonds.svg	4	yes	57	0	667
6.6.1	win	2022-12-23	01:00:48	01:09:03	493298	62f8b410d6f862caef45f2ff	68401926	1	practice_slash	9	practice_slash	19	stimuli_distractor_diamondtriangles.svg	stimuli_distractor_trianglediamonds.svg	14	no	0	1	2000
6.6.1	win	2022-12-23	01:00:48	01:09:03	493298	62f8b410d6f862caef45f2ff	68401926	1	practice_slash	9	advance_on_keypress_SLASH	20	stimuli_distractor_diamondtriangles.svg	stimuli_distractor_trianglediamonds.svg	14	no	57	0	290
6.6.1	win	2022-12-23	01:00:48	01:09:05	495741	62f8b410d6f862caef45f2ff	68401926	1	practice_slash	9	practice_slash	21	stimuli_target_squarediamonds.svg	stimuli_distractor_trianglediamonds.svg	5	yes	53	1	509
6.6.1	win	2022-12-23	01:00:48	01:09:05	495741	62f8b410d6f862caef45f2ff	68401926	1	practice_slash	9	advance_on_keypress_SLASH	22	stimuli_target_squarediamonds.svg	stimuli_distractor_trianglediamonds.svg	5	yes	57	0	461
6.6.1	win	2022-12-23	01:00:48	01:09:08	498461	62f8b410d6f862caef45f2ff	68401926	1	practice_slash	9	practice_slash	23	stimuli_target_diamondsquares.svg	stimuli_distractor_trianglediamonds.svg	6	yes	53	1	612
6.6.1	win	2022-12-23	01:00:48	01:09:08	498461	62f8b410d6f862caef45f2ff	68401926	1	practice_slash	9	advance_on_keypress_SLASH	24	stimuli_target_diamondsquares.svg	stimuli_distractor_trianglediamonds.svg	6	yes	57	0	680
6.6.1	win	2022-12-23	01:00:48	01:09:12	502799	62f8b410d6f862caef45f2ff	68401926	1	practice_slash	9	practice_slash	25	stimuli_distractor_diamondtriangles.svg	stimuli_distractor_diamondtriangles.svg	13	no	0	1	2000
6.6.1	win	2022-12-23	01:00:48	01:09:12	502799	62f8b410d6f862caef45f2ff	68401926	1	practice_slash	9	advance_on_keypress_SLASH	26	stimuli_distractor_diamondtriangles.svg	stimuli_distractor_diamondtriangles.svg	13	no	57	0	430
6.6.1	win	2022-12-23	01:00:48	01:09:15	505403	62f8b410d6f862caef45f2ff	68401926	1	practice_slash	9	practice_slash	27	stimuli_distractor_trianglediamonds.svg	stimuli_target_squarediamonds.svg	11	yes	53	1	521
6.6.1	win	2022-12-23	01:00:48	01:09:15	505403	62f8b410d6f862caef45f2ff	68401926	1	practice_slash	9	advance_on_keypress_SLASH	28	stimuli_distractor_trianglediamonds.svg	stimuli_target_squarediamonds.svg	11	yes	57	0	472
6.6.1	win	2022-12-23	01:00:48	01:09:18	508146	62f8b410d6f862caef45f2ff	68401926	1	practice_slash	9	practice_slash	29	stimuli_distractor_diamondtriangles.svg	stimuli_target_diamondcircles.svg	8	yes	53	1	629
6.6.1	win	2022-12-23	01:00:48	01:09:18	508146	62f8b410d6f862caef45f2ff	68401926	1	practice_slash	9	advance_on_keypress_SLASH	30	stimuli_distractor_diamondtriangles.svg	stimuli_target_diamondcircles.svg	8	yes	57	0	465
6.6.1	win	2022-12-23	01:00:48	01:09:20	510866	62f8b410d6f862caef45f2ff	68401926	1	practice_slash	9	practice_slash	31	stimuli_target_squarediamonds.svg	stimuli_distractor_diamondtriangles.svg	2	yes	53	1	599
6.6.1	win	2022-12-23	01:00:48	01:09:20	510866	62f8b410d6f862caef45f2ff	68401926	1	practice_slash	9	advance_on_keypress_SLASH	32	stimuli_target_squarediamonds.svg	stimuli_distractor_diamondtriangles.svg	2	yes	57	0	525
6.6.1	win	2022-12-23	01:00:48	01:09:25	515634	62f8b410d6f862caef45f2ff	68401926	1	main_slash	11	main_slash	1	stimuli_distractor_diamondtriangles.svg	stimuli_target_trianglesquares.svg	30	yes	53	1	585
6.6.1	win	2022-12-23	01:00:48	01:09:25	515634	62f8b410d6f862caef45f2ff	68401926	1	main_slash	11	advance_on_keypress_SLASH	2	stimuli_distractor_diamondtriangles.svg	stimuli_target_trianglesquares.svg	30	yes	57	0	489
6.6.1	win	2022-12-23	01:00:48	01:09:27	517264	62f8b410d6f862caef45f2ff	68401926	1	main_slash	11	main_slash	3	stimuli_target_trianglesquares.svg	stimuli_distractor_diamondtriangles.svg	22	yes	53	1	498
6.6.1	win	2022-12-23	01:00:48	01:09:27	517264	62f8b410d6f862caef45f2ff	68401926	1	main_slash	11	advance_on_keypress_SLASH	4	stimuli_target_trianglesquares.svg	stimuli_distractor_diamondtriangles.svg	22	yes	57	0	307
6.6.1	win	2022-12-23	01:00:48	01:09:28	518627	62f8b410d6f862caef45f2ff	68401926	1	main_slash	11	main_slash	5	stimuli_target_trianglecircles.svg	stimuli_distractor_diamondtriangles.svg	21	yes	53	1	411
6.6.1	win	2022-12-23	01:00:48	01:09:28	518627	62f8b410d6f862caef45f2ff	68401926	1	main_slash	11	advance_on_keypress_SLASH	6	stimuli_target_trianglecircles.svg	stimuli_distractor_diamondtriangles.svg	21	yes	57	0	350
6.6.1	win	2022-12-23	01:00:48	01:09:30	520082	62f8b410d6f862caef45f2ff	68401926	1	main_slash	11	main_slash	7	stimuli_distractor_trianglediamonds.svg	stimuli_target_trianglecircles.svg	25	yes	53	1	466
6.6.1	win	2022-12-23	01:00:48	01:09:30	520082	62f8b410d6f862caef45f2ff	68401926	1	main_slash	11	advance_on_keypress_SLASH	8	stimuli_distractor_trianglediamonds.svg	stimuli_target_trianglecircles.svg	25	yes	57	0	391
6.6.1	win	2022-12-23	01:00:48	01:09:33	523117	62f8b410d6f862caef45f2ff	68401926	1	main_slash	11	main_slash	9	stimuli_distractor_diamondtriangles.svg	stimuli_distractor_trianglediamonds.svg	37	no	0	1	2000
6.6.1	win	2022-12-23	01:00:48	01:09:33	523117	62f8b410d6f862caef45f2ff	68401926	1	main_slash	11	advance_on_keypress_SLASH	10	stimuli_distractor_diamondtriangles.svg	stimuli_distractor_trianglediamonds.svg	37	no	57	0	530
6.6.1	win	2022-12-23	01:00:48	01:09:34	524827	62f8b410d6f862caef45f2ff	68401926	1	main_slash	11	main_slash	11	stimuli_target_squaretriangles.svg	stimuli_distractor_diamondtriangles.svg	7	yes	53	1	527
6.6.1	win	2022-12-23	01:00:48	01:09:34	524827	62f8b410d6f862caef45f2ff	68401926	1	main_slash	11	advance_on_keypress_SLASH	12	stimuli_target_squaretriangles.svg	stimuli_distractor_diamondtriangles.svg	7	yes	57	0	324
6.6.1	win	2022-12-23	01:00:48	01:09:36	526303	62f8b410d6f862caef45f2ff	68401926	1	main_slash	11	main_slash	13	stimuli_distractor_diamondtriangles.svg	stimuli_target_squaretriangles.svg	15	yes	53	1	520
6.6.1	win	2022-12-23	01:00:48	01:09:36	526303	62f8b410d6f862caef45f2ff	68401926	1	main_slash	11	advance_on_keypress_SLASH	14	stimuli_distractor_diamondtriangles.svg	stimuli_target_squaretriangles.svg	15	yes	57	0	327
6.6.1	win	2022-12-23	01:00:48	01:09:37	527720	62f8b410d6f862caef45f2ff	68401926	1	main_slash	11	main_slash	15	stimuli_distractor_diamondtriangles.svg	stimuli_target_squarediamonds.svg	16	yes	53	1	453
6.6.1	win	2022-12-23	01:00:48	01:09:37	527720	62f8b410d6f862caef45f2ff	68401926	1	main_slash	11	advance_on_keypress_SLASH	16	stimuli_distractor_diamondtriangles.svg	stimuli_target_squarediamonds.svg	16	yes	57	0	337
6.6.1	win	2022-12-23	01:00:48	01:09:39	529548	62f8b410d6f862caef45f2ff	68401926	1	main_slash	11	main_slash	17	stimuli_target_diamondsquares.svg	stimuli_distractor_diamondtriangles.svg	24	yes	53	1	848
6.6.1	win	2022-12-23	01:00:48	01:09:39	529548	62f8b410d6f862caef45f2ff	68401926	1	main_slash	11	advance_on_keypress_SLASH	18	stimuli_target_diamondsquares.svg	stimuli_distractor_diamondtriangles.svg	24	yes	57	0	417
6.6.1	win	2022-12-23	01:00:48	01:09:41	531138	62f8b410d6f862caef45f2ff	68401926	1	main_slash	11	main_slash	19	stimuli_distractor_diamondtriangles.svg	stimuli_target_circletriangles.svg	13	yes	53	1	521
6.6.1	win	2022-12-23	01:00:48	01:09:41	531138	62f8b410d6f862caef45f2ff	68401926	1	main_slash	11	advance_on_keypress_SLASH	20	stimuli_distractor_diamondtriangles.svg	stimuli_target_circletriangles.svg	13	yes	57	0	326
6.6.1	win	2022-12-23	01:00:48	01:09:44	534101	62f8b410d6f862caef45f2ff	68401926	1	main_slash	11	main_slash	21	stimuli_distractor_diamondtriangles.svg	stimuli_distractor_diamondtriangles.svg	40	no	0	1	2000
6.6.1	win	2022-12-23	01:00:48	01:09:44	534101	62f8b410d6f862caef45f2ff	68401926	1	main_slash	11	advance_on_keypress_SLASH	22	stimuli_distractor_diamondtriangles.svg	stimuli_distractor_diamondtriangles.svg	40	no	57	0	243
6.6.1	win	2022-12-23	01:00:48	01:09:45	535443	62f8b410d6f862caef45f2ff	68401926	1	main_slash	11	main_slash	23	stimuli_target_squarediamonds.svg	stimuli_distractor_diamondtriangles.svg	8	yes	53	1	442
6.6.1	win	2022-12-23	01:00:48	01:09:45	535443	62f8b410d6f862caef45f2ff	68401926	1	main_slash	11	advance_on_keypress_SLASH	24	stimuli_target_squarediamonds.svg	stimuli_distractor_diamondtriangles.svg	8	yes	57	0	283
6.6.1	win	2022-12-23	01:00:48	01:09:46	536831	62f8b410d6f862caef45f2ff	68401926	1	main_slash	11	main_slash	25	stimuli_target_circletriangles.svg	stimuli_distractor_trianglediamonds.svg	1	yes	53	1	463
6.6.1	win	2022-12-23	01:00:48	01:09:46	536831	62f8b410d6f862caef45f2ff	68401926	1	main_slash	11	advance_on_keypress_SLASH	26	stimuli_target_circletriangles.svg	stimuli_distractor_trianglediamonds.svg	1	yes	57	0	283
6.6.1	win	2022-12-23	01:00:48	01:09:49	539768	62f8b410d6f862caef45f2ff	68401926	1	main_slash	11	main_slash	27	stimuli_distractor_diamondtriangles.svg	stimuli_distractor_trianglediamonds.svg	38	no	0	1	2000
6.6.1	win	2022-12-23	01:00:48	01:09:49	539768	62f8b410d6f862caef45f2ff	68401926	1	main_slash	11	advance_on_keypress_SLASH	28	stimuli_distractor_diamondtriangles.svg	stimuli_distractor_trianglediamonds.svg	38	no	57	0	331
6.6.1	win	2022-12-23	01:00:48	01:09:51	541260	62f8b410d6f862caef45f2ff	68401926	1	main_slash	11	main_slash	29	stimuli_target_circlediamonds.svg	stimuli_distractor_diamondtriangles.svg	6	yes	53	1	505
6.6.1	win	2022-12-23	01:00:48	01:09:51	541260	62f8b410d6f862caef45f2ff	68401926	1	main_slash	11	advance_on_keypress_SLASH	30	stimuli_target_circlediamonds.svg	stimuli_distractor_diamondtriangles.svg	6	yes	57	0	310
6.6.1	win	2022-12-23	01:00:48	01:09:52	542807	62f8b410d6f862caef45f2ff	68401926	1	main_slash	11	main_slash	31	stimuli_distractor_trianglediamonds.svg	stimuli_target_diamondsquares.svg	28	yes	53	1	604
6.6.1	win	2022-12-23	01:00:48	01:09:52	542807	62f8b410d6f862caef45f2ff	68401926	1	main_slash	11	advance_on_keypress_SLASH	32	stimuli_distractor_trianglediamonds.svg	stimuli_target_diamondsquares.svg	28	yes	57	0	373
6.6.1	win	2022-12-23	01:00:48	01:09:54	544385	62f8b410d6f862caef45f2ff	68401926	1	main_slash	11	main_slash	33	stimuli_target_circlediamonds.svg	stimuli_distractor_trianglediamonds.svg	2	yes	53	1	566
6.6.1	win	2022-12-23	01:00:48	01:09:54	544385	62f8b410d6f862caef45f2ff	68401926	1	main_slash	11	advance_on_keypress_SLASH	34	stimuli_target_circlediamonds.svg	stimuli_distractor_trianglediamonds.svg	2	yes	57	0	319
6.6.1	win	2022-12-23	01:00:48	01:09:56	546725	62f8b410d6f862caef45f2ff	68401926	1	main_slash	11	main_slash	35	stimuli_distractor_diamondtriangles.svg	stimuli_target_circlediamonds.svg	14	yes	53	1	1373
6.6.1	win	2022-12-23	01:00:48	01:09:56	546725	62f8b410d6f862caef45f2ff	68401926	1	main_slash	11	advance_on_keypress_SLASH	36	stimuli_distractor_diamondtriangles.svg	stimuli_target_circlediamonds.svg	14	yes	57	0	576
6.6.1	win	2022-12-23	01:00:48	01:09:58	548428	62f8b410d6f862caef45f2ff	68401926	1	main_slash	11	main_slash	37	stimuli_distractor_trianglediamonds.svg	stimuli_target_circlediamonds.svg	10	yes	53	1	492
6.6.1	win	2022-12-23	01:00:48	01:09:58	548428	62f8b410d6f862caef45f2ff	68401926	1	main_slash	11	advance_on_keypress_SLASH	38	stimuli_distractor_trianglediamonds.svg	stimuli_target_circlediamonds.svg	10	yes	57	0	405
6.6.1	win	2022-12-23	01:00:48	01:10:00	550072	62f8b410d6f862caef45f2ff	68401926	1	main_slash	11	main_slash	39	stimuli_target_diamondcircles.svg	stimuli_distractor_diamondtriangles.svg	23	yes	53	1	603
6.6.1	win	2022-12-23	01:00:48	01:10:00	550072	62f8b410d6f862caef45f2ff	68401926	1	main_slash	11	advance_on_keypress_SLASH	40	stimuli_target_diamondcircles.svg	stimuli_distractor_diamondtriangles.svg	23	yes	57	0	315
6.6.1	win	2022-12-23	01:00:48	01:10:01	551822	62f8b410d6f862caef45f2ff	68401926	1	main_slash	11	main_slash	41	stimuli_distractor_trianglediamonds.svg	stimuli_target_trianglesquares.svg	26	yes	53	1	785
6.6.1	win	2022-12-23	01:00:48	01:10:01	551822	62f8b410d6f862caef45f2ff	68401926	1	main_slash	11	advance_on_keypress_SLASH	42	stimuli_distractor_trianglediamonds.svg	stimuli_target_trianglesquares.svg	26	yes	57	0	393
6.6.1	win	2022-12-23	01:00:48	01:10:04	554853	62f8b410d6f862caef45f2ff	68401926	1	main_slash	11	main_slash	43	stimuli_distractor_trianglediamonds.svg	stimuli_distractor_diamondtriangles.svg	36	no	0	1	2000
6.6.1	win	2022-12-23	01:00:48	01:10:04	554853	62f8b410d6f862caef45f2ff	68401926	1	main_slash	11	advance_on_keypress_SLASH	44	stimuli_distractor_trianglediamonds.svg	stimuli_distractor_diamondtriangles.svg	36	no	57	0	420
6.6.1	win	2022-12-23	01:00:48	01:10:06	556333	62f8b410d6f862caef45f2ff	68401926	1	main_slash	11	main_slash	45	stimuli_distractor_trianglediamonds.svg	stimuli_target_squaretriangles.svg	11	yes	53	1	413
6.6.1	win	2022-12-23	01:00:48	01:10:06	556333	62f8b410d6f862caef45f2ff	68401926	1	main_slash	11	advance_on_keypress_SLASH	46	stimuli_distractor_trianglediamonds.svg	stimuli_target_squaretriangles.svg	11	yes	57	0	296
6.6.1	win	2022-12-23	01:00:48	01:10:08	557967	62f8b410d6f862caef45f2ff	68401926	1	main_slash	11	main_slash	47	stimuli_target_diamondsquares.svg	stimuli_distractor_trianglediamonds.svg	20	yes	53	1	680
6.6.1	win	2022-12-23	01:00:48	01:10:08	557967	62f8b410d6f862caef45f2ff	68401926	1	main_slash	11	advance_on_keypress_SLASH	48	stimuli_target_diamondsquares.svg	stimuli_distractor_trianglediamonds.svg	20	yes	57	0	408
6.6.1	win	2022-12-23	01:00:48	01:10:11	561020	62f8b410d6f862caef45f2ff	68401926	1	main_slash	11	main_slash	49	stimuli_distractor_trianglediamonds.svg	stimuli_distractor_trianglediamonds.svg	34	no	0	1	2000
6.6.1	win	2022-12-23	01:00:48	01:10:11	561020	62f8b410d6f862caef45f2ff	68401926	1	main_slash	11	advance_on_keypress_SLASH	50	stimuli_distractor_trianglediamonds.svg	stimuli_distractor_trianglediamonds.svg	34	no	57	0	535
6.6.1	win	2022-12-23	01:00:48	01:10:12	562844	62f8b410d6f862caef45f2ff	68401926	1	main_slash	11	main_slash	51	stimuli_distractor_diamondtriangles.svg	stimuli_target_diamondcircles.svg	31	yes	53	1	640
6.6.1	win	2022-12-23	01:00:48	01:10:12	562844	62f8b410d6f862caef45f2ff	68401926	1	main_slash	11	advance_on_keypress_SLASH	52	stimuli_distractor_diamondtriangles.svg	stimuli_target_diamondcircles.svg	31	yes	57	0	549
6.6.1	win	2022-12-23	01:00:48	01:10:14	564636	62f8b410d6f862caef45f2ff	68401926	1	main_slash	11	main_slash	53	stimuli_target_trianglecircles.svg	stimuli_distractor_trianglediamonds.svg	17	yes	53	1	598
6.6.1	win	2022-12-23	01:00:48	01:10:14	564636	62f8b410d6f862caef45f2ff	68401926	1	main_slash	11	advance_on_keypress_SLASH	54	stimuli_target_trianglecircles.svg	stimuli_distractor_trianglediamonds.svg	17	yes	57	0	412
6.6.1	win	2022-12-23	01:00:48	01:10:17	567704	62f8b410d6f862caef45f2ff	68401926	1	main_slash	11	main_slash	55	stimuli_distractor_trianglediamonds.svg	stimuli_distractor_trianglediamonds.svg	33	no	0	1	2000
6.6.1	win	2022-12-23	01:00:48	01:10:17	567704	62f8b410d6f862caef45f2ff	68401926	1	main_slash	11	advance_on_keypress_SLASH	56	stimuli_distractor_trianglediamonds.svg	stimuli_distractor_trianglediamonds.svg	33	no	57	0	335
6.6.1	win	2022-12-23	01:00:48	01:10:19	569131	62f8b410d6f862caef45f2ff	68401926	1	main_slash	11	main_slash	57	stimuli_target_circletriangles.svg	stimuli_distractor_diamondtriangles.svg	5	yes	53	1	443
6.6.1	win	2022-12-23	01:00:48	01:10:19	569131	62f8b410d6f862caef45f2ff	68401926	1	main_slash	11	advance_on_keypress_SLASH	58	stimuli_target_circletriangles.svg	stimuli_distractor_diamondtriangles.svg	5	yes	57	0	395
6.6.1	win	2022-12-23	01:00:48	01:10:20	570661	62f8b410d6f862caef45f2ff	68401926	1	main_slash	11	main_slash	59	stimuli_distractor_trianglediamonds.svg	stimuli_target_diamondcircles.svg	27	yes	53	1	503
6.6.1	win	2022-12-23	01:00:48	01:10:20	570661	62f8b410d6f862caef45f2ff	68401926	1	main_slash	11	advance_on_keypress_SLASH	60	stimuli_distractor_trianglediamonds.svg	stimuli_target_diamondcircles.svg	27	yes	57	0	383
6.6.1	win	2022-12-23	01:00:48	01:10:22	572307	62f8b410d6f862caef45f2ff	68401926	1	main_slash	11	main_slash	61	stimuli_distractor_trianglediamonds.svg	stimuli_target_circletriangles.svg	9	yes	53	1	619
6.6.1	win	2022-12-23	01:00:48	01:10:22	572307	62f8b410d6f862caef45f2ff	68401926	1	main_slash	11	advance_on_keypress_SLASH	62	stimuli_distractor_trianglediamonds.svg	stimuli_target_circletriangles.svg	9	yes	57	0	374
6.6.1	win	2022-12-23	01:00:48	01:10:25	575322	62f8b410d6f862caef45f2ff	68401926	1	main_slash	11	main_slash	63	stimuli_distractor_trianglediamonds.svg	stimuli_distractor_diamondtriangles.svg	35	no	0	1	2000
6.6.1	win	2022-12-23	01:00:48	01:10:25	575322	62f8b410d6f862caef45f2ff	68401926	1	main_slash	11	advance_on_keypress_SLASH	64	stimuli_distractor_trianglediamonds.svg	stimuli_distractor_diamondtriangles.svg	35	no	57	0	314
6.6.1	win	2022-12-23	01:00:48	01:10:26	576740	62f8b410d6f862caef45f2ff	68401926	1	main_slash	11	main_slash	65	stimuli_distractor_diamondtriangles.svg	stimuli_target_trianglecircles.svg	29	yes	53	1	450
6.6.1	win	2022-12-23	01:00:48	01:10:26	576740	62f8b410d6f862caef45f2ff	68401926	1	main_slash	11	advance_on_keypress_SLASH	66	stimuli_distractor_diamondtriangles.svg	stimuli_target_trianglecircles.svg	29	yes	57	0	775
6.6.1	win	2022-12-23	01:00:48	01:10:28	578677	62f8b410d6f862caef45f2ff	68401926	1	main_slash	11	main_slash	67	stimuli_distractor_trianglediamonds.svg	stimuli_target_squarediamonds.svg	12	yes	53	1	522
6.6.1	win	2022-12-23	01:00:48	01:10:28	578677	62f8b410d6f862caef45f2ff	68401926	1	main_slash	11	advance_on_keypress_SLASH	68	stimuli_distractor_trianglediamonds.svg	stimuli_target_squarediamonds.svg	12	yes	57	0	317
6.6.1	win	2022-12-23	01:00:48	01:10:30	580169	62f8b410d6f862caef45f2ff	68401926	1	main_slash	11	main_slash	69	stimuli_target_squarediamonds.svg	stimuli_distractor_trianglediamonds.svg	4	yes	53	1	530
6.6.1	win	2022-12-23	01:00:48	01:10:30	580169	62f8b410d6f862caef45f2ff	68401926	1	main_slash	11	advance_on_keypress_SLASH	70	stimuli_target_squarediamonds.svg	stimuli_distractor_trianglediamonds.svg	4	yes	57	0	277
6.6.1	win	2022-12-23	01:00:48	01:10:31	581553	62f8b410d6f862caef45f2ff	68401926	1	main_slash	11	main_slash	71	stimuli_target_squaretriangles.svg	stimuli_distractor_trianglediamonds.svg	3	yes	53	1	464
6.6.1	win	2022-12-23	01:00:48	01:10:31	581553	62f8b410d6f862caef45f2ff	68401926	1	main_slash	11	advance_on_keypress_SLASH	72	stimuli_target_squaretriangles.svg	stimuli_distractor_trianglediamonds.svg	3	yes	57	0	302
6.6.1	win	2022-12-23	01:00:48	01:10:33	583043	62f8b410d6f862caef45f2ff	68401926	1	main_slash	11	main_slash	73	stimuli_distractor_diamondtriangles.svg	stimuli_target_diamondsquares.svg	32	yes	53	1	537
6.6.1	win	2022-12-23	01:00:48	01:10:33	583043	62f8b410d6f862caef45f2ff	68401926	1	main_slash	11	advance_on_keypress_SLASH	74	stimuli_distractor_diamondtriangles.svg	stimuli_target_diamondsquares.svg	32	yes	57	0	402
6.6.1	win	2022-12-23	01:00:48	01:10:36	586090	62f8b410d6f862caef45f2ff	68401926	1	main_slash	11	main_slash	75	stimuli_distractor_diamondtriangles.svg	stimuli_distractor_diamondtriangles.svg	39	no	0	1	2000
6.6.1	win	2022-12-23	01:00:48	01:10:36	586090	62f8b410d6f862caef45f2ff	68401926	1	main_slash	11	advance_on_keypress_SLASH	76	stimuli_distractor_diamondtriangles.svg	stimuli_distractor_diamondtriangles.svg	39	no	57	0	26
6.6.1	win	2022-12-23	01:00:48	01:10:37	587207	62f8b410d6f862caef45f2ff	68401926	1	main_slash	11	main_slash	77	stimuli_target_trianglesquares.svg	stimuli_distractor_trianglediamonds.svg	18	yes	53	1	451
6.6.1	win	2022-12-23	01:00:48	01:10:37	587207	62f8b410d6f862caef45f2ff	68401926	1	main_slash	11	advance_on_keypress_SLASH	78	stimuli_target_trianglesquares.svg	stimuli_distractor_trianglediamonds.svg	18	yes	57	0	279
6.6.1	win	2022-12-23	01:00:48	01:10:38	588664	62f8b410d6f862caef45f2ff	68401926	1	main_slash	11	main_slash	79	stimuli_target_diamondcircles.svg	stimuli_distractor_trianglediamonds.svg	19	yes	53	1	541
6.6.1	win	2022-12-23	01:00:48	01:10:38	588664	62f8b410d6f862caef45f2ff	68401926	1	main_slash	11	advance_on_keypress_SLASH	80	stimuli_target_diamondcircles.svg	stimuli_distractor_trianglediamonds.svg	19	yes	57	0	271
6.6.1	win	2022-12-23	01:00:48	01:10:40	590318	62f8b410d6f862caef45f2ff	68401926	1	main_slash	11	main_slash	81	stimuli_distractor_diamondtriangles.svg	stimuli_target_diamondsquares.svg	32	yes	53	1	744
6.6.1	win	2022-12-23	01:00:48	01:10:40	590318	62f8b410d6f862caef45f2ff	68401926	1	main_slash	11	advance_on_keypress_SLASH	82	stimuli_distractor_diamondtriangles.svg	stimuli_target_diamondsquares.svg	32	yes	57	0	383
6.6.1	win	2022-12-23	01:00:48	01:10:41	591862	62f8b410d6f862caef45f2ff	68401926	1	main_slash	11	main_slash	83	stimuli_distractor_diamondtriangles.svg	stimuli_target_circletriangles.svg	13	yes	53	1	522
6.6.1	win	2022-12-23	01:00:48	01:10:41	591862	62f8b410d6f862caef45f2ff	68401926	1	main_slash	11	advance_on_keypress_SLASH	84	stimuli_distractor_diamondtriangles.svg	stimuli_target_circletriangles.svg	13	yes	57	0	303
6.6.1	win	2022-12-23	01:00:48	01:10:43	593429	62f8b410d6f862caef45f2ff	68401926	1	main_slash	11	main_slash	85	stimuli_target_trianglesquares.svg	stimuli_distractor_trianglediamonds.svg	18	yes	53	1	622
6.6.1	win	2022-12-23	01:00:48	01:10:43	593429	62f8b410d6f862caef45f2ff	68401926	1	main_slash	11	advance_on_keypress_SLASH	86	stimuli_target_trianglesquares.svg	stimuli_distractor_trianglediamonds.svg	18	yes	57	0	567
6.6.1	win	2022-12-23	01:00:48	01:10:46	596640	62f8b410d6f862caef45f2ff	68401926	1	main_slash	11	main_slash	87	stimuli_distractor_diamondtriangles.svg	stimuli_distractor_diamondtriangles.svg	40	no	0	1	2000
6.6.1	win	2022-12-23	01:00:48	01:10:46	596640	62f8b410d6f862caef45f2ff	68401926	1	main_slash	11	advance_on_keypress_SLASH	88	stimuli_distractor_diamondtriangles.svg	stimuli_distractor_diamondtriangles.svg	40	no	57	0	608
6.6.1	win	2022-12-23	01:00:48	01:10:48	598386	62f8b410d6f862caef45f2ff	68401926	1	main_slash	11	main_slash	89	stimuli_distractor_trianglediamonds.svg	stimuli_target_trianglesquares.svg	26	yes	53	1	495
6.6.1	win	2022-12-23	01:00:48	01:10:48	598386	62f8b410d6f862caef45f2ff	68401926	1	main_slash	11	advance_on_keypress_SLASH	90	stimuli_distractor_trianglediamonds.svg	stimuli_target_trianglesquares.svg	26	yes	57	0	256
6.6.1	win	2022-12-23	01:00:48	01:10:49	599840	62f8b410d6f862caef45f2ff	68401926	1	main_slash	11	main_slash	91	stimuli_distractor_diamondtriangles.svg	stimuli_target_trianglesquares.svg	30	yes	53	1	549
6.6.1	win	2022-12-23	01:00:48	01:10:49	599840	62f8b410d6f862caef45f2ff	68401926	1	main_slash	11	advance_on_keypress_SLASH	92	stimuli_distractor_diamondtriangles.svg	stimuli_target_trianglesquares.svg	30	yes	57	0	294
6.6.1	win	2022-12-23	01:00:48	01:10:51	601319	62f8b410d6f862caef45f2ff	68401926	1	main_slash	11	main_slash	93	stimuli_target_diamondsquares.svg	stimuli_distractor_trianglediamonds.svg	20	yes	53	1	545
6.6.1	win	2022-12-23	01:00:48	01:10:51	601319	62f8b410d6f862caef45f2ff	68401926	1	main_slash	11	advance_on_keypress_SLASH	94	stimuli_target_diamondsquares.svg	stimuli_distractor_trianglediamonds.svg	20	yes	57	0	238
6.6.1	win	2022-12-23	01:00:48	01:10:54	604208	62f8b410d6f862caef45f2ff	68401926	1	main_slash	11	main_slash	95	stimuli_distractor_trianglediamonds.svg	stimuli_distractor_trianglediamonds.svg	34	no	0	1	2000
6.6.1	win	2022-12-23	01:00:48	01:10:54	604208	62f8b410d6f862caef45f2ff	68401926	1	main_slash	11	advance_on_keypress_SLASH	96	stimuli_distractor_trianglediamonds.svg	stimuli_distractor_trianglediamonds.svg	34	no	57	0	797
6.6.1	win	2022-12-23	01:00:48	01:10:56	606108	62f8b410d6f862caef45f2ff	68401926	1	main_slash	11	main_slash	97	stimuli_distractor_diamondtriangles.svg	stimuli_target_circlediamonds.svg	14	yes	53	1	450
6.6.1	win	2022-12-23	01:00:48	01:10:56	606108	62f8b410d6f862caef45f2ff	68401926	1	main_slash	11	advance_on_keypress_SLASH	98	stimuli_distractor_diamondtriangles.svg	stimuli_target_circlediamonds.svg	14	yes	57	0	218
6.6.1	win	2022-12-23	01:00:48	01:10:57	607560	62f8b410d6f862caef45f2ff	68401926	1	main_slash	11	main_slash	99	stimuli_distractor_diamondtriangles.svg	stimuli_target_diamondcircles.svg	31	yes	53	1	585
6.6.1	win	2022-12-23	01:00:48	01:10:57	607560	62f8b410d6f862caef45f2ff	68401926	1	main_slash	11	advance_on_keypress_SLASH	100	stimuli_distractor_diamondtriangles.svg	stimuli_target_diamondcircles.svg	31	yes	57	0	234
6.6.1	win	2022-12-23	01:00:48	01:10:58	608894	62f8b410d6f862caef45f2ff	68401926	1	main_slash	11	main_slash	101	stimuli_target_circletriangles.svg	stimuli_distractor_trianglediamonds.svg	1	yes	53	1	451
6.6.1	win	2022-12-23	01:00:48	01:10:58	608894	62f8b410d6f862caef45f2ff	68401926	1	main_slash	11	advance_on_keypress_SLASH	102	stimuli_target_circletriangles.svg	stimuli_distractor_trianglediamonds.svg	1	yes	57	0	207
6.6.1	win	2022-12-23	01:00:48	01:11:01	611742	62f8b410d6f862caef45f2ff	68401926	1	main_slash	11	main_slash	103	stimuli_distractor_trianglediamonds.svg	stimuli_distractor_diamondtriangles.svg	35	no	0	1	2000
6.6.1	win	2022-12-23	01:00:48	01:11:01	611742	62f8b410d6f862caef45f2ff	68401926	1	main_slash	11	advance_on_keypress_SLASH	104	stimuli_distractor_trianglediamonds.svg	stimuli_distractor_diamondtriangles.svg	35	no	57	0	383
6.6.1	win	2022-12-23	01:00:48	01:11:03	613235	62f8b410d6f862caef45f2ff	68401926	1	main_slash	11	main_slash	105	stimuli_distractor_trianglediamonds.svg	stimuli_target_trianglecircles.svg	25	yes	53	1	459
6.6.1	win	2022-12-23	01:00:48	01:11:03	613235	62f8b410d6f862caef45f2ff	68401926	1	main_slash	11	advance_on_keypress_SLASH	106	stimuli_distractor_trianglediamonds.svg	stimuli_target_trianglecircles.svg	25	yes	57	0	262
6.6.1	win	2022-12-23	01:00:48	01:11:04	614858	62f8b410d6f862caef45f2ff	68401926	1	main_slash	11	main_slash	107	stimuli_target_trianglesquares.svg	stimuli_distractor_diamondtriangles.svg	22	yes	53	1	732
6.6.1	win	2022-12-23	01:00:48	01:11:04	614858	62f8b410d6f862caef45f2ff	68401926	1	main_slash	11	advance_on_keypress_SLASH	108	stimuli_target_trianglesquares.svg	stimuli_distractor_diamondtriangles.svg	22	yes	57	0	361
6.6.1	win	2022-12-23	01:00:48	01:11:07	617860	62f8b410d6f862caef45f2ff	68401926	1	main_slash	11	main_slash	109	stimuli_distractor_diamondtriangles.svg	stimuli_distractor_trianglediamonds.svg	38	no	0	1	2000
6.6.1	win	2022-12-23	01:00:48	01:11:07	617860	62f8b410d6f862caef45f2ff	68401926	1	main_slash	11	advance_on_keypress_SLASH	110	stimuli_distractor_diamondtriangles.svg	stimuli_distractor_trianglediamonds.svg	38	no	57	0	319
6.6.1	win	2022-12-23	01:00:48	01:11:09	619253	62f8b410d6f862caef45f2ff	68401926	1	main_slash	11	main_slash	111	stimuli_distractor_diamondtriangles.svg	stimuli_target_squarediamonds.svg	16	yes	53	1	427
6.6.1	win	2022-12-23	01:00:48	01:11:09	619253	62f8b410d6f862caef45f2ff	68401926	1	main_slash	11	advance_on_keypress_SLASH	112	stimuli_distractor_diamondtriangles.svg	stimuli_target_squarediamonds.svg	16	yes	57	0	265
6.6.1	win	2022-12-23	01:00:48	01:11:10	620607	62f8b410d6f862caef45f2ff	68401926	1	main_slash	11	main_slash	113	stimuli_target_trianglecircles.svg	stimuli_distractor_diamondtriangles.svg	21	yes	53	1	447
6.6.1	win	2022-12-23	01:00:48	01:11:10	620607	62f8b410d6f862caef45f2ff	68401926	1	main_slash	11	advance_on_keypress_SLASH	114	stimuli_target_trianglecircles.svg	stimuli_distractor_diamondtriangles.svg	21	yes	57	0	210
6.6.1	win	2022-12-23	01:00:48	01:11:12	621990	62f8b410d6f862caef45f2ff	68401926	1	main_slash	11	main_slash	115	stimuli_distractor_diamondtriangles.svg	stimuli_target_squaretriangles.svg	15	yes	53	1	515
6.6.1	win	2022-12-23	01:00:48	01:11:12	621990	62f8b410d6f862caef45f2ff	68401926	1	main_slash	11	advance_on_keypress_SLASH	116	stimuli_distractor_diamondtriangles.svg	stimuli_target_squaretriangles.svg	15	yes	57	0	170
6.6.1	win	2022-12-23	01:00:48	01:11:13	623263	62f8b410d6f862caef45f2ff	68401926	1	main_slash	11	main_slash	117	stimuli_distractor_trianglediamonds.svg	stimuli_target_circletriangles.svg	9	yes	53	1	453
6.6.1	win	2022-12-23	01:00:48	01:11:13	623263	62f8b410d6f862caef45f2ff	68401926	1	main_slash	11	advance_on_keypress_SLASH	118	stimuli_distractor_trianglediamonds.svg	stimuli_target_circletriangles.svg	9	yes	57	0	216
6.6.1	win	2022-12-23	01:00:48	01:11:14	624559	62f8b410d6f862caef45f2ff	68401926	1	main_slash	11	main_slash	119	stimuli_target_trianglecircles.svg	stimuli_distractor_trianglediamonds.svg	17	yes	53	1	432
6.6.1	win	2022-12-23	01:00:48	01:11:14	624559	62f8b410d6f862caef45f2ff	68401926	1	main_slash	11	advance_on_keypress_SLASH	120	stimuli_target_trianglecircles.svg	stimuli_distractor_trianglediamonds.svg	17	yes	57	0	219
6.6.1	win	2022-12-23	01:00:48	01:11:15	625843	62f8b410d6f862caef45f2ff	68401926	1	main_slash	11	main_slash	121	stimuli_distractor_diamondtriangles.svg	stimuli_target_trianglecircles.svg	29	yes	53	1	416
6.6.1	win	2022-12-23	01:00:48	01:11:15	625843	62f8b410d6f862caef45f2ff	68401926	1	main_slash	11	advance_on_keypress_SLASH	122	stimuli_distractor_diamondtriangles.svg	stimuli_target_trianglecircles.svg	29	yes	57	0	183
6.6.1	win	2022-12-23	01:00:48	01:11:17	627332	62f8b410d6f862caef45f2ff	68401926	1	main_slash	11	main_slash	123	stimuli_target_squaretriangles.svg	stimuli_distractor_trianglediamonds.svg	3	yes	53	1	655
6.6.1	win	2022-12-23	01:00:48	01:11:17	627332	62f8b410d6f862caef45f2ff	68401926	1	main_slash	11	advance_on_keypress_SLASH	124	stimuli_target_squaretriangles.svg	stimuli_distractor_trianglediamonds.svg	3	yes	57	0	474
6.6.1	win	2022-12-23	01:00:48	01:11:18	628933	62f8b410d6f862caef45f2ff	68401926	1	main_slash	11	main_slash	125	stimuli_target_squarediamonds.svg	stimuli_distractor_trianglediamonds.svg	4	yes	53	1	489
6.6.1	win	2022-12-23	01:00:48	01:11:18	628933	62f8b410d6f862caef45f2ff	68401926	1	main_slash	11	advance_on_keypress_SLASH	126	stimuli_target_squarediamonds.svg	stimuli_distractor_trianglediamonds.svg	4	yes	57	0	273
6.6.1	win	2022-12-23	01:00:48	01:11:20	630360	62f8b410d6f862caef45f2ff	68401926	1	main_slash	11	main_slash	127	stimuli_target_circlediamonds.svg	stimuli_distractor_diamondtriangles.svg	6	yes	53	1	504
6.6.1	win	2022-12-23	01:00:48	01:11:20	630360	62f8b410d6f862caef45f2ff	68401926	1	main_slash	11	advance_on_keypress_SLASH	128	stimuli_target_circlediamonds.svg	stimuli_distractor_diamondtriangles.svg	6	yes	57	0	155
6.6.1	win	2022-12-23	01:00:48	01:11:21	631761	62f8b410d6f862caef45f2ff	68401926	1	main_slash	11	main_slash	129	stimuli_target_squaretriangles.svg	stimuli_distractor_diamondtriangles.svg	7	yes	53	1	600
6.6.1	win	2022-12-23	01:00:48	01:11:21	631761	62f8b410d6f862caef45f2ff	68401926	1	main_slash	11	advance_on_keypress_SLASH	130	stimuli_target_squaretriangles.svg	stimuli_distractor_diamondtriangles.svg	7	yes	57	0	133
6.6.1	win	2022-12-23	01:00:48	01:11:24	634545	62f8b410d6f862caef45f2ff	68401926	1	main_slash	11	main_slash	131	stimuli_distractor_trianglediamonds.svg	stimuli_distractor_trianglediamonds.svg	33	no	0	1	2000
6.6.1	win	2022-12-23	01:00:48	01:11:24	634545	62f8b410d6f862caef45f2ff	68401926	1	main_slash	11	advance_on_keypress_SLASH	132	stimuli_distractor_trianglediamonds.svg	stimuli_distractor_trianglediamonds.svg	33	no	57	0	433
6.6.1	win	2022-12-23	01:00:48	01:11:26	636080	62f8b410d6f862caef45f2ff	68401926	1	main_slash	11	main_slash	133	stimuli_target_diamondcircles.svg	stimuli_distractor_trianglediamonds.svg	19	yes	53	1	452
6.6.1	win	2022-12-23	01:00:48	01:11:26	636080	62f8b410d6f862caef45f2ff	68401926	1	main_slash	11	advance_on_keypress_SLASH	134	stimuli_target_diamondcircles.svg	stimuli_distractor_trianglediamonds.svg	19	yes	57	0	471
6.6.1	win	2022-12-23	01:00:48	01:11:27	637641	62f8b410d6f862caef45f2ff	68401926	1	main_slash	11	main_slash	135	stimuli_target_circletriangles.svg	stimuli_distractor_diamondtriangles.svg	5	yes	53	1	446
6.6.1	win	2022-12-23	01:00:48	01:11:27	637641	62f8b410d6f862caef45f2ff	68401926	1	main_slash	11	advance_on_keypress_SLASH	136	stimuli_target_circletriangles.svg	stimuli_distractor_diamondtriangles.svg	5	yes	57	0	235
6.6.1	win	2022-12-23	01:00:48	01:11:29	639044	62f8b410d6f862caef45f2ff	68401926	1	main_slash	11	main_slash	137	stimuli_distractor_trianglediamonds.svg	stimuli_target_diamondcircles.svg	27	yes	53	1	532
6.6.1	win	2022-12-23	01:00:48	01:11:29	639044	62f8b410d6f862caef45f2ff	68401926	1	main_slash	11	advance_on_keypress_SLASH	138	stimuli_distractor_trianglediamonds.svg	stimuli_target_diamondcircles.svg	27	yes	57	0	228
6.6.1	win	2022-12-23	01:00:48	01:11:30	640425	62f8b410d6f862caef45f2ff	68401926	1	main_slash	11	main_slash	139	stimuli_distractor_trianglediamonds.svg	stimuli_target_circlediamonds.svg	10	yes	53	1	512
6.6.1	win	2022-12-23	01:00:48	01:11:30	640425	62f8b410d6f862caef45f2ff	68401926	1	main_slash	11	advance_on_keypress_SLASH	140	stimuli_distractor_trianglediamonds.svg	stimuli_target_circlediamonds.svg	10	yes	57	0	243
6.6.1	win	2022-12-23	01:00:48	01:11:31	641853	62f8b410d6f862caef45f2ff	68401926	1	main_slash	11	main_slash	141	stimuli_distractor_trianglediamonds.svg	stimuli_target_squaretriangles.svg	11	yes	53	1	541
6.6.1	win	2022-12-23	01:00:48	01:11:31	641853	62f8b410d6f862caef45f2ff	68401926	1	main_slash	11	advance_on_keypress_SLASH	142	stimuli_distractor_trianglediamonds.svg	stimuli_target_squaretriangles.svg	11	yes	57	0	224
6.6.1	win	2022-12-23	01:00:48	01:11:33	643337	62f8b410d6f862caef45f2ff	68401926	1	main_slash	11	main_slash	143	stimuli_target_squarediamonds.svg	stimuli_distractor_diamondtriangles.svg	8	yes	53	1	625
6.6.1	win	2022-12-23	01:00:48	01:11:33	643337	62f8b410d6f862caef45f2ff	68401926	1	main_slash	11	advance_on_keypress_SLASH	144	stimuli_target_squarediamonds.svg	stimuli_distractor_diamondtriangles.svg	8	yes	57	0	165
6.6.1	win	2022-12-23	01:00:48	01:11:36	646146	62f8b410d6f862caef45f2ff	68401926	1	main_slash	11	main_slash	145	stimuli_distractor_diamondtriangles.svg	stimuli_distractor_diamondtriangles.svg	39	no	0	1	2000
6.6.1	win	2022-12-23	01:00:48	01:11:36	646146	62f8b410d6f862caef45f2ff	68401926	1	main_slash	11	advance_on_keypress_SLASH	146	stimuli_distractor_diamondtriangles.svg	stimuli_distractor_diamondtriangles.svg	39	no	57	0	639
6.6.1	win	2022-12-23	01:00:48	01:11:39	649429	62f8b410d6f862caef45f2ff	68401926	1	main_slash	11	main_slash	147	stimuli_distractor_diamondtriangles.svg	stimuli_distractor_trianglediamonds.svg	37	no	0	1	2000
6.6.1	win	2022-12-23	01:00:48	01:11:39	649429	62f8b410d6f862caef45f2ff	68401926	1	main_slash	11	advance_on_keypress_SLASH	148	stimuli_distractor_diamondtriangles.svg	stimuli_distractor_trianglediamonds.svg	37	no	57	0	293
6.6.1	win	2022-12-23	01:00:48	01:11:42	652363	62f8b410d6f862caef45f2ff	68401926	1	main_slash	11	main_slash	149	stimuli_distractor_trianglediamonds.svg	stimuli_distractor_diamondtriangles.svg	36	no	0	1	2000
6.6.1	win	2022-12-23	01:00:48	01:11:42	652363	62f8b410d6f862caef45f2ff	68401926	1	main_slash	11	advance_on_keypress_SLASH	150	stimuli_distractor_trianglediamonds.svg	stimuli_distractor_diamondtriangles.svg	36	no	57	0	300
6.6.1	win	2022-12-23	01:00:48	01:11:43	653900	62f8b410d6f862caef45f2ff	68401926	1	main_slash	11	main_slash	151	stimuli_distractor_trianglediamonds.svg	stimuli_target_diamondsquares.svg	28	yes	53	1	587
6.6.1	win	2022-12-23	01:00:48	01:11:43	653900	62f8b410d6f862caef45f2ff	68401926	1	main_slash	11	advance_on_keypress_SLASH	152	stimuli_distractor_trianglediamonds.svg	stimuli_target_diamondsquares.svg	28	yes	57	0	404
6.6.1	win	2022-12-23	01:00:48	01:11:45	655525	62f8b410d6f862caef45f2ff	68401926	1	main_slash	11	main_slash	153	stimuli_distractor_trianglediamonds.svg	stimuli_target_squarediamonds.svg	12	yes	53	1	579
6.6.1	win	2022-12-23	01:00:48	01:11:45	655525	62f8b410d6f862caef45f2ff	68401926	1	main_slash	11	advance_on_keypress_SLASH	154	stimuli_distractor_trianglediamonds.svg	stimuli_target_squarediamonds.svg	12	yes	57	0	215
6.6.1	win	2022-12-23	01:00:48	01:11:46	656871	62f8b410d6f862caef45f2ff	68401926	1	main_slash	11	main_slash	155	stimuli_target_circlediamonds.svg	stimuli_distractor_trianglediamonds.svg	2	yes	53	1	474
6.6.1	win	2022-12-23	01:00:48	01:11:46	656871	62f8b410d6f862caef45f2ff	68401926	1	main_slash	11	advance_on_keypress_SLASH	156	stimuli_target_circlediamonds.svg	stimuli_distractor_trianglediamonds.svg	2	yes	57	0	272
6.6.1	win	2022-12-23	01:00:48	01:11:48	658328	62f8b410d6f862caef45f2ff	68401926	1	main_slash	11	main_slash	157	stimuli_target_diamondcircles.svg	stimuli_distractor_diamondtriangles.svg	23	yes	53	1	548
6.6.1	win	2022-12-23	01:00:48	01:11:48	658328	62f8b410d6f862caef45f2ff	68401926	1	main_slash	11	advance_on_keypress_SLASH	158	stimuli_target_diamondcircles.svg	stimuli_distractor_diamondtriangles.svg	23	yes	57	0	196
6.6.1	win	2022-12-23	01:00:48	01:11:49	659762	62f8b410d6f862caef45f2ff	68401926	1	main_slash	11	main_slash	159	stimuli_target_diamondsquares.svg	stimuli_distractor_diamondtriangles.svg	24	yes	53	1	582
6.6.1	win	2022-12-23	01:00:48	01:11:49	659762	62f8b410d6f862caef45f2ff	68401926	1	main_slash	11	advance_on_keypress_SLASH	160	stimuli_target_diamondsquares.svg	stimuli_distractor_diamondtriangles.svg	24	yes	57	0	404