build	computer.platform	date	time	timestamp	time_elapsed_ms	subject	group	session	blockcode	blocknum	trialcode	trialnum	stimulus_left	stimulus_right	stim_index	target_present	response	correct	latency
6.6.1	win	2022-12-14	14:22:37	14:26:31	229784	5ea3694d838a642e5790ec0a	843890286	1	practice_z	5	practice_z	1	stimuli_target_squarediamonds.svg	stimuli_distractor_diamondtriangles.svg	2	yes	44	1	512
6.6.1	win	2022-12-14	14:22:37	14:26:31	229784	5ea3694d838a642e5790ec0a	843890286	1	practice_z	5	advance_on_keypress_ZEE	2	stimuli_target_squarediamonds.svg	stimuli_distractor_diamondtriangles.svg	2	yes	57	0	956
6.6.1	win	2022-12-14	14:22:37	14:26:36	234462	5ea3694d838a642e5790ec0a	843890286	1	practice_z	5	practice_z	3	stimuli_distractor_trianglediamonds.svg	stimuli_distractor_diamondtriangles.svg	16	no	0	1	2000
6.6.1	win	2022-12-14	14:22:37	14:26:36	234462	5ea3694d838a642e5790ec0a	843890286	1	practice_z	5	advance_on_keypress_ZEE	4	stimuli_distractor_trianglediamonds.svg	stimuli_distractor_diamondtriangles.svg	16	no	57	0	983
6.6.1	win	2022-12-14	14:22:37	14:26:40	239150	5ea3694d838a642e5790ec0a	843890286	1	practice_z	5	practice_z	5	stimuli_target_diamondsquares.svg	stimuli_distractor_diamondtriangles.svg	3	yes	0	0	2000
6.6.1	win	2022-12-14	14:22:37	14:26:40	239150	5ea3694d838a642e5790ec0a	843890286	1	practice_z	5	advance_on_keypress_ZEE	6	stimuli_target_diamondsquares.svg	stimuli_distractor_diamondtriangles.svg	3	yes	57	0	827
6.6.1	win	2022-12-14	14:22:37	14:26:44	242567	5ea3694d838a642e5790ec0a	843890286	1	practice_z	5	practice_z	7	stimuli_target_circlediamonds.svg	stimuli_distractor_diamondtriangles.svg	1	yes	44	1	886
6.6.1	win	2022-12-14	14:22:37	14:26:44	242567	5ea3694d838a642e5790ec0a	843890286	1	practice_z	5	advance_on_keypress_ZEE	8	stimuli_target_circlediamonds.svg	stimuli_distractor_diamondtriangles.svg	1	yes	57	0	1130
6.6.1	win	2022-12-14	14:22:37	14:26:48	246498	5ea3694d838a642e5790ec0a	843890286	1	practice_z	5	practice_z	9	stimuli_distractor_diamondtriangles.svg	stimuli_target_circletriangles.svg	7	yes	44	1	1097
6.6.1	win	2022-12-14	14:22:37	14:26:48	246498	5ea3694d838a642e5790ec0a	843890286	1	practice_z	5	advance_on_keypress_ZEE	10	stimuli_distractor_diamondtriangles.svg	stimuli_target_circletriangles.svg	7	yes	57	0	511
6.6.1	win	2022-12-14	14:22:37	14:26:51	249712	5ea3694d838a642e5790ec0a	843890286	1	practice_z	5	practice_z	11	stimuli_distractor_diamondtriangles.svg	stimuli_target_diamondcircles.svg	8	yes	44	1	999
6.6.1	win	2022-12-14	14:22:37	14:26:51	249712	5ea3694d838a642e5790ec0a	843890286	1	practice_z	5	advance_on_keypress_ZEE	12	stimuli_distractor_diamondtriangles.svg	stimuli_target_diamondcircles.svg	8	yes	57	0	470
6.6.1	win	2022-12-14	14:22:37	14:26:54	252864	5ea3694d838a642e5790ec0a	843890286	1	practice_z	5	practice_z	13	stimuli_target_diamondsquares.svg	stimuli_distractor_trianglediamonds.svg	6	yes	44	1	976
6.6.1	win	2022-12-14	14:22:37	14:26:54	252864	5ea3694d838a642e5790ec0a	843890286	1	practice_z	5	advance_on_keypress_ZEE	14	stimuli_target_diamondsquares.svg	stimuli_distractor_trianglediamonds.svg	6	yes	57	0	403
6.6.1	win	2022-12-14	14:22:37	14:26:57	255740	5ea3694d838a642e5790ec0a	843890286	1	practice_z	5	practice_z	15	stimuli_distractor_trianglediamonds.svg	stimuli_target_circlediamonds.svg	10	yes	44	1	768
6.6.1	win	2022-12-14	14:22:37	14:26:57	255740	5ea3694d838a642e5790ec0a	843890286	1	practice_z	5	advance_on_keypress_ZEE	16	stimuli_distractor_trianglediamonds.svg	stimuli_target_circlediamonds.svg	10	yes	57	0	441
6.6.1	win	2022-12-14	14:22:37	14:27:01	259887	5ea3694d838a642e5790ec0a	843890286	1	practice_z	5	practice_z	17	stimuli_distractor_diamondtriangles.svg	stimuli_distractor_diamondtriangles.svg	13	no	0	1	2000
6.6.1	win	2022-12-14	14:22:37	14:27:01	259887	5ea3694d838a642e5790ec0a	843890286	1	practice_z	5	advance_on_keypress_ZEE	18	stimuli_distractor_diamondtriangles.svg	stimuli_distractor_diamondtriangles.svg	13	no	57	0	378
6.6.1	win	2022-12-14	14:22:37	14:27:04	262803	5ea3694d838a642e5790ec0a	843890286	1	practice_z	5	practice_z	19	stimuli_distractor_trianglediamonds.svg	stimuli_target_squarediamonds.svg	11	yes	44	1	816
6.6.1	win	2022-12-14	14:22:37	14:27:04	262803	5ea3694d838a642e5790ec0a	843890286	1	practice_z	5	advance_on_keypress_ZEE	20	stimuli_distractor_trianglediamonds.svg	stimuli_target_squarediamonds.svg	11	yes	57	0	409
6.6.1	win	2022-12-14	14:22:37	14:27:08	266899	5ea3694d838a642e5790ec0a	843890286	1	practice_z	5	practice_z	21	stimuli_distractor_diamondtriangles.svg	stimuli_distractor_trianglediamonds.svg	14	no	0	1	2000
6.6.1	win	2022-12-14	14:22:37	14:27:08	266899	5ea3694d838a642e5790ec0a	843890286	1	practice_z	5	advance_on_keypress_ZEE	22	stimuli_distractor_diamondtriangles.svg	stimuli_distractor_trianglediamonds.svg	14	no	57	0	300
6.6.1	win	2022-12-14	14:22:37	14:27:12	270904	5ea3694d838a642e5790ec0a	843890286	1	practice_z	5	practice_z	23	stimuli_distractor_trianglediamonds.svg	stimuli_distractor_trianglediamonds.svg	15	no	0	1	2000
6.6.1	win	2022-12-14	14:22:37	14:27:12	270904	5ea3694d838a642e5790ec0a	843890286	1	practice_z	5	advance_on_keypress_ZEE	24	stimuli_distractor_trianglediamonds.svg	stimuli_distractor_trianglediamonds.svg	15	no	57	0	313
6.6.1	win	2022-12-14	14:22:37	14:27:16	274922	5ea3694d838a642e5790ec0a	843890286	1	practice_z	5	practice_z	25	stimuli_distractor_trianglediamonds.svg	stimuli_target_diamondcircles.svg	12	yes	0	0	2000
6.6.1	win	2022-12-14	14:22:37	14:27:16	274922	5ea3694d838a642e5790ec0a	843890286	1	practice_z	5	advance_on_keypress_ZEE	26	stimuli_distractor_trianglediamonds.svg	stimuli_target_diamondcircles.svg	12	yes	57	0	425
6.6.1	win	2022-12-14	14:22:37	14:27:19	278234	5ea3694d838a642e5790ec0a	843890286	1	practice_z	5	practice_z	27	stimuli_target_squarediamonds.svg	stimuli_distractor_trianglediamonds.svg	5	yes	44	1	1184
6.6.1	win	2022-12-14	14:22:37	14:27:19	278234	5ea3694d838a642e5790ec0a	843890286	1	practice_z	5	advance_on_keypress_ZEE	28	stimuli_target_squarediamonds.svg	stimuli_distractor_trianglediamonds.svg	5	yes	57	0	339
6.6.1	win	2022-12-14	14:22:37	14:27:22	281211	5ea3694d838a642e5790ec0a	843890286	1	practice_z	5	practice_z	29	stimuli_distractor_diamondtriangles.svg	stimuli_target_trianglecircles.svg	9	yes	44	1	952
6.6.1	win	2022-12-14	14:22:37	14:27:22	281211	5ea3694d838a642e5790ec0a	843890286	1	practice_z	5	advance_on_keypress_ZEE	30	stimuli_distractor_diamondtriangles.svg	stimuli_target_trianglecircles.svg	9	yes	57	0	585
6.6.1	win	2022-12-14	14:22:37	14:27:27	285430	5ea3694d838a642e5790ec0a	843890286	1	practice_z	5	practice_z	31	stimuli_target_circlediamonds.svg	stimuli_distractor_trianglediamonds.svg	4	yes	44	1	1946
6.6.1	win	2022-12-14	14:22:37	14:27:27	285430	5ea3694d838a642e5790ec0a	843890286	1	practice_z	5	advance_on_keypress_ZEE	32	stimuli_target_circlediamonds.svg	stimuli_distractor_trianglediamonds.svg	4	yes	57	0	401
6.6.1	win	2022-12-14	14:22:37	14:27:41	299920	5ea3694d838a642e5790ec0a	843890286	1	main_z	7	main_z	1	stimuli_target_diamondsquares.svg	stimuli_distractor_trianglediamonds.svg	20	yes	44	1	957
6.6.1	win	2022-12-14	14:22:37	14:27:41	299920	5ea3694d838a642e5790ec0a	843890286	1	main_z	7	advance_on_keypress_ZEE	2	stimuli_target_diamondsquares.svg	stimuli_distractor_trianglediamonds.svg	20	yes	57	0	1235
6.6.1	win	2022-12-14	14:22:37	14:27:44	302582	5ea3694d838a642e5790ec0a	843890286	1	main_z	7	main_z	3	stimuli_distractor_diamondtriangles.svg	stimuli_target_squaretriangles.svg	15	yes	44	1	731
6.6.1	win	2022-12-14	14:22:37	14:27:44	302582	5ea3694d838a642e5790ec0a	843890286	1	main_z	7	advance_on_keypress_ZEE	4	stimuli_distractor_diamondtriangles.svg	stimuli_target_squaretriangles.svg	15	yes	57	0	805
6.6.1	win	2022-12-14	14:22:37	14:27:46	304859	5ea3694d838a642e5790ec0a	843890286	1	main_z	7	main_z	5	stimuli_target_circlediamonds.svg	stimuli_distractor_diamondtriangles.svg	6	yes	44	1	810
6.6.1	win	2022-12-14	14:22:37	14:27:46	304859	5ea3694d838a642e5790ec0a	843890286	1	main_z	7	advance_on_keypress_ZEE	6	stimuli_target_circlediamonds.svg	stimuli_distractor_diamondtriangles.svg	6	yes	57	0	638
6.6.1	win	2022-12-14	14:22:37	14:27:49	308177	5ea3694d838a642e5790ec0a	843890286	1	main_z	7	main_z	7	stimuli_distractor_trianglediamonds.svg	stimuli_distractor_trianglediamonds.svg	34	no	0	1	2000
6.6.1	win	2022-12-14	14:22:37	14:27:49	308177	5ea3694d838a642e5790ec0a	843890286	1	main_z	7	advance_on_keypress_ZEE	8	stimuli_distractor_trianglediamonds.svg	stimuli_distractor_trianglediamonds.svg	34	no	57	0	492
6.6.1	win	2022-12-14	14:22:37	14:27:52	311152	5ea3694d838a642e5790ec0a	843890286	1	main_z	7	main_z	9	stimuli_distractor_trianglediamonds.svg	stimuli_target_diamondcircles.svg	27	yes	44	1	1804
6.6.1	win	2022-12-14	14:22:37	14:27:52	311152	5ea3694d838a642e5790ec0a	843890286	1	main_z	7	advance_on_keypress_ZEE	10	stimuli_distractor_trianglediamonds.svg	stimuli_target_diamondcircles.svg	27	yes	57	0	462
6.6.1	win	2022-12-14	14:22:37	14:27:54	313199	5ea3694d838a642e5790ec0a	843890286	1	main_z	7	main_z	11	stimuli_distractor_diamondtriangles.svg	stimuli_target_circlediamonds.svg	14	yes	44	1	905
6.6.1	win	2022-12-14	14:22:37	14:27:54	313199	5ea3694d838a642e5790ec0a	843890286	1	main_z	7	advance_on_keypress_ZEE	12	stimuli_distractor_diamondtriangles.svg	stimuli_target_circlediamonds.svg	14	yes	57	0	556
6.6.1	win	2022-12-14	14:22:37	14:27:57	316417	5ea3694d838a642e5790ec0a	843890286	1	main_z	7	main_z	13	stimuli_distractor_diamondtriangles.svg	stimuli_target_trianglecircles.svg	29	yes	0	0	2000
6.6.1	win	2022-12-14	14:22:37	14:27:57	316417	5ea3694d838a642e5790ec0a	843890286	1	main_z	7	advance_on_keypress_ZEE	14	stimuli_distractor_diamondtriangles.svg	stimuli_target_trianglecircles.svg	29	yes	57	0	359
6.6.1	win	2022-12-14	14:22:37	14:27:59	318277	5ea3694d838a642e5790ec0a	843890286	1	main_z	7	main_z	15	stimuli_target_circletriangles.svg	stimuli_distractor_diamondtriangles.svg	5	yes	44	1	821
6.6.1	win	2022-12-14	14:22:37	14:27:59	318277	5ea3694d838a642e5790ec0a	843890286	1	main_z	7	advance_on_keypress_ZEE	16	stimuli_target_circletriangles.svg	stimuli_distractor_diamondtriangles.svg	5	yes	57	0	732
6.6.1	win	2022-12-14	14:22:37	14:28:02	320688	5ea3694d838a642e5790ec0a	843890286	1	main_z	7	main_z	17	stimuli_target_trianglesquares.svg	stimuli_distractor_trianglediamonds.svg	18	yes	44	1	999
6.6.1	win	2022-12-14	14:22:37	14:28:02	320688	5ea3694d838a642e5790ec0a	843890286	1	main_z	7	advance_on_keypress_ZEE	18	stimuli_target_trianglesquares.svg	stimuli_distractor_trianglediamonds.svg	18	yes	57	0	499
6.6.1	win	2022-12-14	14:22:37	14:28:05	323867	5ea3694d838a642e5790ec0a	843890286	1	main_z	7	main_z	19	stimuli_distractor_trianglediamonds.svg	stimuli_distractor_diamondtriangles.svg	36	no	0	1	2000
6.6.1	win	2022-12-14	14:22:37	14:28:05	323867	5ea3694d838a642e5790ec0a	843890286	1	main_z	7	advance_on_keypress_ZEE	20	stimuli_distractor_trianglediamonds.svg	stimuli_distractor_diamondtriangles.svg	36	no	57	0	314
6.6.1	win	2022-12-14	14:22:37	14:28:08	326844	5ea3694d838a642e5790ec0a	843890286	1	main_z	7	main_z	21	stimuli_distractor_diamondtriangles.svg	stimuli_distractor_diamondtriangles.svg	40	no	0	1	2000
6.6.1	win	2022-12-14	14:22:37	14:28:08	326844	5ea3694d838a642e5790ec0a	843890286	1	main_z	7	advance_on_keypress_ZEE	22	stimuli_distractor_diamondtriangles.svg	stimuli_distractor_diamondtriangles.svg	40	no	57	0	377
6.6.1	win	2022-12-14	14:22:37	14:28:10	328682	5ea3694d838a642e5790ec0a	843890286	1	main_z	7	main_z	23	stimuli_distractor_diamondtriangles.svg	stimuli_target_trianglesquares.svg	30	yes	44	1	800
6.6.1	win	2022-12-14	14:22:37	14:28:10	328682	5ea3694d838a642e5790ec0a	843890286	1	main_z	7	advance_on_keypress_ZEE	24	stimuli_distractor_diamondtriangles.svg	stimuli_target_trianglesquares.svg	30	yes	57	0	654
6.6.1	win	2022-12-14	14:22:37	14:28:13	332016	5ea3694d838a642e5790ec0a	843890286	1	main_z	7	main_z	25	stimuli_distractor_trianglediamonds.svg	stimuli_distractor_diamondtriangles.svg	35	no	0	1	2000
6.6.1	win	2022-12-14	14:22:37	14:28:13	332016	5ea3694d838a642e5790ec0a	843890286	1	main_z	7	advance_on_keypress_ZEE	26	stimuli_distractor_trianglediamonds.svg	stimuli_distractor_diamondtriangles.svg	35	no	57	0	538
6.6.1	win	2022-12-14	14:22:37	14:28:15	334266	5ea3694d838a642e5790ec0a	843890286	1	main_z	7	main_z	27	stimuli_target_diamondsquares.svg	stimuli_distractor_diamondtriangles.svg	24	yes	44	1	1030
6.6.1	win	2022-12-14	14:22:37	14:28:15	334266	5ea3694d838a642e5790ec0a	843890286	1	main_z	7	advance_on_keypress_ZEE	28	stimuli_target_diamondsquares.svg	stimuli_distractor_diamondtriangles.svg	24	yes	57	0	620
6.6.1	win	2022-12-14	14:22:37	14:28:18	336940	5ea3694d838a642e5790ec0a	843890286	1	main_z	7	main_z	29	stimuli_distractor_diamondtriangles.svg	stimuli_target_circletriangles.svg	13	yes	44	1	1374
6.6.1	win	2022-12-14	14:22:37	14:28:18	336940	5ea3694d838a642e5790ec0a	843890286	1	main_z	7	advance_on_keypress_ZEE	30	stimuli_distractor_diamondtriangles.svg	stimuli_target_circletriangles.svg	13	yes	57	0	499
6.6.1	win	2022-12-14	14:22:37	14:28:20	339165	5ea3694d838a642e5790ec0a	843890286	1	main_z	7	main_z	31	stimuli_target_squarediamonds.svg	stimuli_distractor_diamondtriangles.svg	8	yes	44	1	1064
6.6.1	win	2022-12-14	14:22:37	14:28:20	339165	5ea3694d838a642e5790ec0a	843890286	1	main_z	7	advance_on_keypress_ZEE	32	stimuli_target_squarediamonds.svg	stimuli_distractor_diamondtriangles.svg	8	yes	57	0	580
6.6.1	win	2022-12-14	14:22:37	14:28:22	341343	5ea3694d838a642e5790ec0a	843890286	1	main_z	7	main_z	33	stimuli_distractor_trianglediamonds.svg	stimuli_target_squaretriangles.svg	11	yes	44	1	902
6.6.1	win	2022-12-14	14:22:37	14:28:22	341343	5ea3694d838a642e5790ec0a	843890286	1	main_z	7	advance_on_keypress_ZEE	34	stimuli_distractor_trianglediamonds.svg	stimuli_target_squaretriangles.svg	11	yes	57	0	490
6.6.1	win	2022-12-14	14:22:37	14:28:26	344513	5ea3694d838a642e5790ec0a	843890286	1	main_z	7	main_z	35	stimuli_distractor_trianglediamonds.svg	stimuli_target_squarediamonds.svg	12	yes	0	0	2000
6.6.1	win	2022-12-14	14:22:37	14:28:26	344513	5ea3694d838a642e5790ec0a	843890286	1	main_z	7	advance_on_keypress_ZEE	36	stimuli_distractor_trianglediamonds.svg	stimuli_target_squarediamonds.svg	12	yes	57	0	415
6.6.1	win	2022-12-14	14:22:37	14:28:28	346447	5ea3694d838a642e5790ec0a	843890286	1	main_z	7	main_z	37	stimuli_target_diamondcircles.svg	stimuli_distractor_diamondtriangles.svg	23	yes	44	1	840
6.6.1	win	2022-12-14	14:22:37	14:28:28	346447	5ea3694d838a642e5790ec0a	843890286	1	main_z	7	advance_on_keypress_ZEE	38	stimuli_target_diamondcircles.svg	stimuli_distractor_diamondtriangles.svg	23	yes	57	0	570
6.6.1	win	2022-12-14	14:22:37	14:28:30	348569	5ea3694d838a642e5790ec0a	843890286	1	main_z	7	main_z	39	stimuli_distractor_diamondtriangles.svg	stimuli_target_diamondsquares.svg	32	yes	44	1	887
6.6.1	win	2022-12-14	14:22:37	14:28:30	348569	5ea3694d838a642e5790ec0a	843890286	1	main_z	7	advance_on_keypress_ZEE	40	stimuli_distractor_diamondtriangles.svg	stimuli_target_diamondsquares.svg	32	yes	57	0	505
6.6.1	win	2022-12-14	14:22:37	14:28:32	350574	5ea3694d838a642e5790ec0a	843890286	1	main_z	7	main_z	41	stimuli_distractor_trianglediamonds.svg	stimuli_target_circletriangles.svg	9	yes	44	1	802
6.6.1	win	2022-12-14	14:22:37	14:28:32	350574	5ea3694d838a642e5790ec0a	843890286	1	main_z	7	advance_on_keypress_ZEE	42	stimuli_distractor_trianglediamonds.svg	stimuli_target_circletriangles.svg	9	yes	57	0	436
6.6.1	win	2022-12-14	14:22:37	14:28:35	353689	5ea3694d838a642e5790ec0a	843890286	1	main_z	7	main_z	43	stimuli_distractor_diamondtriangles.svg	stimuli_distractor_diamondtriangles.svg	39	no	0	1	2000
6.6.1	win	2022-12-14	14:22:37	14:28:35	353689	5ea3694d838a642e5790ec0a	843890286	1	main_z	7	advance_on_keypress_ZEE	44	stimuli_distractor_diamondtriangles.svg	stimuli_distractor_diamondtriangles.svg	39	no	57	0	535
6.6.1	win	2022-12-14	14:22:37	14:28:37	355682	5ea3694d838a642e5790ec0a	843890286	1	main_z	7	main_z	45	stimuli_target_diamondcircles.svg	stimuli_distractor_trianglediamonds.svg	19	yes	44	1	779
6.6.1	win	2022-12-14	14:22:37	14:28:37	355682	5ea3694d838a642e5790ec0a	843890286	1	main_z	7	advance_on_keypress_ZEE	46	stimuli_target_diamondcircles.svg	stimuli_distractor_trianglediamonds.svg	19	yes	57	0	569
6.6.1	win	2022-12-14	14:22:37	14:28:39	357820	5ea3694d838a642e5790ec0a	843890286	1	main_z	7	main_z	47	stimuli_distractor_trianglediamonds.svg	stimuli_target_trianglesquares.svg	26	yes	44	1	906
6.6.1	win	2022-12-14	14:22:37	14:28:39	357820	5ea3694d838a642e5790ec0a	843890286	1	main_z	7	advance_on_keypress_ZEE	48	stimuli_distractor_trianglediamonds.svg	stimuli_target_trianglesquares.svg	26	yes	57	0	483
6.6.1	win	2022-12-14	14:22:37	14:28:42	360983	5ea3694d838a642e5790ec0a	843890286	1	main_z	7	main_z	49	stimuli_distractor_diamondtriangles.svg	stimuli_distractor_trianglediamonds.svg	38	no	0	1	2000
6.6.1	win	2022-12-14	14:22:37	14:28:42	360983	5ea3694d838a642e5790ec0a	843890286	1	main_z	7	advance_on_keypress_ZEE	50	stimuli_distractor_diamondtriangles.svg	stimuli_distractor_trianglediamonds.svg	38	no	57	0	319
6.6.1	win	2022-12-14	14:22:37	14:28:44	362805	5ea3694d838a642e5790ec0a	843890286	1	main_z	7	main_z	51	stimuli_target_trianglesquares.svg	stimuli_distractor_diamondtriangles.svg	22	yes	44	1	822
6.6.1	win	2022-12-14	14:22:37	14:28:44	362805	5ea3694d838a642e5790ec0a	843890286	1	main_z	7	advance_on_keypress_ZEE	52	stimuli_target_trianglesquares.svg	stimuli_distractor_diamondtriangles.svg	22	yes	57	0	422
6.6.1	win	2022-12-14	14:22:37	14:28:47	365907	5ea3694d838a642e5790ec0a	843890286	1	main_z	7	main_z	53	stimuli_target_squaretriangles.svg	stimuli_distractor_trianglediamonds.svg	3	yes	0	0	2000
6.6.1	win	2022-12-14	14:22:37	14:28:47	365907	5ea3694d838a642e5790ec0a	843890286	1	main_z	7	advance_on_keypress_ZEE	54	stimuli_target_squaretriangles.svg	stimuli_distractor_trianglediamonds.svg	3	yes	57	0	452
6.6.1	win	2022-12-14	14:22:37	14:28:50	369039	5ea3694d838a642e5790ec0a	843890286	1	main_z	7	main_z	55	stimuli_distractor_diamondtriangles.svg	stimuli_distractor_trianglediamonds.svg	37	no	0	1	2000
6.6.1	win	2022-12-14	14:22:37	14:28:50	369039	5ea3694d838a642e5790ec0a	843890286	1	main_z	7	advance_on_keypress_ZEE	56	stimuli_distractor_diamondtriangles.svg	stimuli_distractor_trianglediamonds.svg	37	no	57	0	532
6.6.1	win	2022-12-14	14:22:37	14:28:52	371228	5ea3694d838a642e5790ec0a	843890286	1	main_z	7	main_z	57	stimuli_distractor_diamondtriangles.svg	stimuli_target_diamondcircles.svg	31	yes	44	1	977
6.6.1	win	2022-12-14	14:22:37	14:28:52	371228	5ea3694d838a642e5790ec0a	843890286	1	main_z	7	advance_on_keypress_ZEE	58	stimuli_distractor_diamondtriangles.svg	stimuli_target_diamondcircles.svg	31	yes	57	0	610
6.6.1	win	2022-12-14	14:22:37	14:28:55	373651	5ea3694d838a642e5790ec0a	843890286	1	main_z	7	main_z	59	stimuli_distractor_diamondtriangles.svg	stimuli_target_squarediamonds.svg	16	yes	44	1	1132
6.6.1	win	2022-12-14	14:22:37	14:28:55	373651	5ea3694d838a642e5790ec0a	843890286	1	main_z	7	advance_on_keypress_ZEE	60	stimuli_distractor_diamondtriangles.svg	stimuli_target_squarediamonds.svg	16	yes	57	0	535
6.6.1	win	2022-12-14	14:22:37	14:28:57	375702	5ea3694d838a642e5790ec0a	843890286	1	main_z	7	main_z	61	stimuli_distractor_trianglediamonds.svg	stimuli_target_trianglecircles.svg	25	yes	44	1	836
6.6.1	win	2022-12-14	14:22:37	14:28:57	375702	5ea3694d838a642e5790ec0a	843890286	1	main_z	7	advance_on_keypress_ZEE	62	stimuli_distractor_trianglediamonds.svg	stimuli_target_trianglecircles.svg	25	yes	57	0	437
6.6.1	win	2022-12-14	14:22:37	14:28:59	377678	5ea3694d838a642e5790ec0a	843890286	1	main_z	7	main_z	63	stimuli_target_trianglecircles.svg	stimuli_distractor_trianglediamonds.svg	17	yes	44	1	848
6.6.1	win	2022-12-14	14:22:37	14:28:59	377678	5ea3694d838a642e5790ec0a	843890286	1	main_z	7	advance_on_keypress_ZEE	64	stimuli_target_trianglecircles.svg	stimuli_distractor_trianglediamonds.svg	17	yes	57	0	444
6.6.1	win	2022-12-14	14:22:37	14:29:01	379931	5ea3694d838a642e5790ec0a	843890286	1	main_z	7	main_z	65	stimuli_distractor_trianglediamonds.svg	stimuli_target_circlediamonds.svg	10	yes	44	1	1146
6.6.1	win	2022-12-14	14:22:37	14:29:01	379931	5ea3694d838a642e5790ec0a	843890286	1	main_z	7	advance_on_keypress_ZEE	66	stimuli_distractor_trianglediamonds.svg	stimuli_target_circlediamonds.svg	10	yes	57	0	506
6.6.1	win	2022-12-14	14:22:37	14:29:04	383117	5ea3694d838a642e5790ec0a	843890286	1	main_z	7	main_z	67	stimuli_distractor_trianglediamonds.svg	stimuli_distractor_trianglediamonds.svg	33	no	0	1	2000
6.6.1	win	2022-12-14	14:22:37	14:29:04	383117	5ea3694d838a642e5790ec0a	843890286	1	main_z	7	advance_on_keypress_ZEE	68	stimuli_distractor_trianglediamonds.svg	stimuli_distractor_trianglediamonds.svg	33	no	57	0	415
6.6.1	win	2022-12-14	14:22:37	14:29:06	385020	5ea3694d838a642e5790ec0a	843890286	1	main_z	7	main_z	69	stimuli_distractor_trianglediamonds.svg	stimuli_target_diamondsquares.svg	28	yes	44	1	826
6.6.1	win	2022-12-14	14:22:37	14:29:06	385020	5ea3694d838a642e5790ec0a	843890286	1	main_z	7	advance_on_keypress_ZEE	70	stimuli_distractor_trianglediamonds.svg	stimuli_target_diamondsquares.svg	28	yes	57	0	550
6.6.1	win	2022-12-14	14:22:37	14:29:08	387273	5ea3694d838a642e5790ec0a	843890286	1	main_z	7	main_z	71	stimuli_target_squaretriangles.svg	stimuli_distractor_diamondtriangles.svg	7	yes	44	1	1023
6.6.1	win	2022-12-14	14:22:37	14:29:08	387273	5ea3694d838a642e5790ec0a	843890286	1	main_z	7	advance_on_keypress_ZEE	72	stimuli_target_squaretriangles.svg	stimuli_distractor_diamondtriangles.svg	7	yes	57	0	455
6.6.1	win	2022-12-14	14:22:37	14:29:10	389257	5ea3694d838a642e5790ec0a	843890286	1	main_z	7	main_z	73	stimuli_target_circletriangles.svg	stimuli_distractor_trianglediamonds.svg	1	yes	44	1	850
6.6.1	win	2022-12-14	14:22:37	14:29:10	389257	5ea3694d838a642e5790ec0a	843890286	1	main_z	7	advance_on_keypress_ZEE	74	stimuli_target_circletriangles.svg	stimuli_distractor_trianglediamonds.svg	1	yes	57	0	454
6.6.1	win	2022-12-14	14:22:37	14:29:13	392392	5ea3694d838a642e5790ec0a	843890286	1	main_z	7	main_z	75	stimuli_target_trianglecircles.svg	stimuli_distractor_diamondtriangles.svg	21	yes	0	0	2000
6.6.1	win	2022-12-14	14:22:37	14:29:13	392392	5ea3694d838a642e5790ec0a	843890286	1	main_z	7	advance_on_keypress_ZEE	76	stimuli_target_trianglecircles.svg	stimuli_distractor_diamondtriangles.svg	21	yes	57	0	523
6.6.1	win	2022-12-14	14:22:37	14:29:15	394378	5ea3694d838a642e5790ec0a	843890286	1	main_z	7	main_z	77	stimuli_target_circlediamonds.svg	stimuli_distractor_trianglediamonds.svg	2	yes	44	1	800
6.6.1	win	2022-12-14	14:22:37	14:29:15	394378	5ea3694d838a642e5790ec0a	843890286	1	main_z	7	advance_on_keypress_ZEE	78	stimuli_target_circlediamonds.svg	stimuli_distractor_trianglediamonds.svg	2	yes	57	0	446
6.6.1	win	2022-12-14	14:22:37	14:29:17	396368	5ea3694d838a642e5790ec0a	843890286	1	main_z	7	main_z	79	stimuli_target_squarediamonds.svg	stimuli_distractor_trianglediamonds.svg	4	yes	44	1	881
6.6.1	win	2022-12-14	14:22:37	14:29:17	396368	5ea3694d838a642e5790ec0a	843890286	1	main_z	7	advance_on_keypress_ZEE	80	stimuli_target_squarediamonds.svg	stimuli_distractor_trianglediamonds.svg	4	yes	57	0	416
6.6.1	win	2022-12-14	14:22:37	14:29:19	398330	5ea3694d838a642e5790ec0a	843890286	1	main_z	7	main_z	81	stimuli_distractor_diamondtriangles.svg	stimuli_target_squarediamonds.svg	16	yes	44	1	865
6.6.1	win	2022-12-14	14:22:37	14:29:19	398330	5ea3694d838a642e5790ec0a	843890286	1	main_z	7	advance_on_keypress_ZEE	82	stimuli_distractor_diamondtriangles.svg	stimuli_target_squarediamonds.svg	16	yes	57	0	411
6.6.1	win	2022-12-14	14:22:37	14:29:21	400271	5ea3694d838a642e5790ec0a	843890286	1	main_z	7	main_z	83	stimuli_target_circlediamonds.svg	stimuli_distractor_diamondtriangles.svg	6	yes	44	1	850
6.6.1	win	2022-12-14	14:22:37	14:29:21	400271	5ea3694d838a642e5790ec0a	843890286	1	main_z	7	advance_on_keypress_ZEE	84	stimuli_target_circlediamonds.svg	stimuli_distractor_diamondtriangles.svg	6	yes	57	0	451
6.6.1	win	2022-12-14	14:22:37	14:29:23	402300	5ea3694d838a642e5790ec0a	843890286	1	main_z	7	main_z	85	stimuli_distractor_diamondtriangles.svg	stimuli_target_diamondcircles.svg	31	yes	44	1	906
6.6.1	win	2022-12-14	14:22:37	14:29:23	402300	5ea3694d838a642e5790ec0a	843890286	1	main_z	7	advance_on_keypress_ZEE	86	stimuli_distractor_diamondtriangles.svg	stimuli_target_diamondcircles.svg	31	yes	57	0	389
6.6.1	win	2022-12-14	14:22:37	14:29:26	405352	5ea3694d838a642e5790ec0a	843890286	1	main_z	7	main_z	87	stimuli_distractor_diamondtriangles.svg	stimuli_distractor_trianglediamonds.svg	37	no	0	1	2000
6.6.1	win	2022-12-14	14:22:37	14:29:26	405352	5ea3694d838a642e5790ec0a	843890286	1	main_z	7	advance_on_keypress_ZEE	88	stimuli_distractor_diamondtriangles.svg	stimuli_distractor_trianglediamonds.svg	37	no	57	0	355
6.6.1	win	2022-12-14	14:22:37	14:29:28	407178	5ea3694d838a642e5790ec0a	843890286	1	main_z	7	main_z	89	stimuli_target_trianglecircles.svg	stimuli_distractor_diamondtriangles.svg	21	yes	44	1	791
6.6.1	win	2022-12-14	14:22:37	14:29:28	407178	5ea3694d838a642e5790ec0a	843890286	1	main_z	7	advance_on_keypress_ZEE	90	stimuli_target_trianglecircles.svg	stimuli_distractor_diamondtriangles.svg	21	yes	57	0	508
6.6.1	win	2022-12-14	14:22:37	14:29:30	409252	5ea3694d838a642e5790ec0a	843890286	1	main_z	7	main_z	91	stimuli_distractor_trianglediamonds.svg	stimuli_target_squarediamonds.svg	12	yes	44	1	887
6.6.1	win	2022-12-14	14:22:37	14:29:30	409252	5ea3694d838a642e5790ec0a	843890286	1	main_z	7	advance_on_keypress_ZEE	92	stimuli_distractor_trianglediamonds.svg	stimuli_target_squarediamonds.svg	12	yes	57	0	368
6.6.1	win	2022-12-14	14:22:37	14:29:32	411137	5ea3694d838a642e5790ec0a	843890286	1	main_z	7	main_z	93	stimuli_target_diamondcircles.svg	stimuli_distractor_diamondtriangles.svg	23	yes	44	1	837
6.6.1	win	2022-12-14	14:22:37	14:29:32	411137	5ea3694d838a642e5790ec0a	843890286	1	main_z	7	advance_on_keypress_ZEE	94	stimuli_target_diamondcircles.svg	stimuli_distractor_diamondtriangles.svg	23	yes	57	0	471
6.6.1	win	2022-12-14	14:22:37	14:29:35	414288	5ea3694d838a642e5790ec0a	843890286	1	main_z	7	main_z	95	stimuli_distractor_trianglediamonds.svg	stimuli_distractor_trianglediamonds.svg	34	no	0	1	2000
6.6.1	win	2022-12-14	14:22:37	14:29:35	414288	5ea3694d838a642e5790ec0a	843890286	1	main_z	7	advance_on_keypress_ZEE	96	stimuli_distractor_trianglediamonds.svg	stimuli_distractor_trianglediamonds.svg	34	no	57	0	368
6.6.1	win	2022-12-14	14:22:37	14:29:38	417335	5ea3694d838a642e5790ec0a	843890286	1	main_z	7	main_z	97	stimuli_distractor_diamondtriangles.svg	stimuli_distractor_diamondtriangles.svg	39	no	0	1	2000
6.6.1	win	2022-12-14	14:22:37	14:29:38	417335	5ea3694d838a642e5790ec0a	843890286	1	main_z	7	advance_on_keypress_ZEE	98	stimuli_distractor_diamondtriangles.svg	stimuli_distractor_diamondtriangles.svg	39	no	57	0	327
6.6.1	win	2022-12-14	14:22:37	14:29:40	419092	5ea3694d838a642e5790ec0a	843890286	1	main_z	7	main_z	99	stimuli_target_squaretriangles.svg	stimuli_distractor_trianglediamonds.svg	3	yes	44	1	751
6.6.1	win	2022-12-14	14:22:37	14:29:40	419092	5ea3694d838a642e5790ec0a	843890286	1	main_z	7	advance_on_keypress_ZEE	100	stimuli_target_squaretriangles.svg	stimuli_distractor_trianglediamonds.svg	3	yes	57	0	553
6.6.1	win	2022-12-14	14:22:37	14:29:42	421161	5ea3694d838a642e5790ec0a	843890286	1	main_z	7	main_z	101	stimuli_target_trianglesquares.svg	stimuli_distractor_diamondtriangles.svg	22	yes	44	1	835
6.6.1	win	2022-12-14	14:22:37	14:29:42	421161	5ea3694d838a642e5790ec0a	843890286	1	main_z	7	advance_on_keypress_ZEE	102	stimuli_target_trianglesquares.svg	stimuli_distractor_diamondtriangles.svg	22	yes	57	0	434
6.6.1	win	2022-12-14	14:22:37	14:29:45	424275	5ea3694d838a642e5790ec0a	843890286	1	main_z	7	main_z	103	stimuli_distractor_diamondtriangles.svg	stimuli_distractor_trianglediamonds.svg	38	no	0	1	2000
6.6.1	win	2022-12-14	14:22:37	14:29:45	424275	5ea3694d838a642e5790ec0a	843890286	1	main_z	7	advance_on_keypress_ZEE	104	stimuli_distractor_diamondtriangles.svg	stimuli_distractor_trianglediamonds.svg	38	no	57	0	381
6.6.1	win	2022-12-14	14:22:37	14:29:48	427336	5ea3694d838a642e5790ec0a	843890286	1	main_z	7	main_z	105	stimuli_distractor_diamondtriangles.svg	stimuli_distractor_diamondtriangles.svg	40	no	0	1	2000
6.6.1	win	2022-12-14	14:22:37	14:29:48	427336	5ea3694d838a642e5790ec0a	843890286	1	main_z	7	advance_on_keypress_ZEE	106	stimuli_distractor_diamondtriangles.svg	stimuli_distractor_diamondtriangles.svg	40	no	57	0	380
6.6.1	win	2022-12-14	14:22:37	14:29:50	429210	5ea3694d838a642e5790ec0a	843890286	1	main_z	7	main_z	107	stimuli_distractor_trianglediamonds.svg	stimuli_target_trianglesquares.svg	26	yes	44	1	815
6.6.1	win	2022-12-14	14:22:37	14:29:50	429210	5ea3694d838a642e5790ec0a	843890286	1	main_z	7	advance_on_keypress_ZEE	108	stimuli_distractor_trianglediamonds.svg	stimuli_target_trianglesquares.svg	26	yes	57	0	451
6.6.1	win	2022-12-14	14:22:37	14:29:53	432341	5ea3694d838a642e5790ec0a	843890286	1	main_z	7	main_z	109	stimuli_distractor_trianglediamonds.svg	stimuli_distractor_trianglediamonds.svg	33	no	0	1	2000
6.6.1	win	2022-12-14	14:22:37	14:29:53	432341	5ea3694d838a642e5790ec0a	843890286	1	main_z	7	advance_on_keypress_ZEE	110	stimuli_distractor_trianglediamonds.svg	stimuli_distractor_trianglediamonds.svg	33	no	57	0	325
6.6.1	win	2022-12-14	14:22:37	14:29:55	434173	5ea3694d838a642e5790ec0a	843890286	1	main_z	7	main_z	111	stimuli_target_trianglecircles.svg	stimuli_distractor_trianglediamonds.svg	17	yes	44	1	826
6.6.1	win	2022-12-14	14:22:37	14:29:55	434173	5ea3694d838a642e5790ec0a	843890286	1	main_z	7	advance_on_keypress_ZEE	112	stimuli_target_trianglecircles.svg	stimuli_distractor_trianglediamonds.svg	17	yes	57	0	403
6.6.1	win	2022-12-14	14:22:37	14:29:57	436063	5ea3694d838a642e5790ec0a	843890286	1	main_z	7	main_z	113	stimuli_target_circlediamonds.svg	stimuli_distractor_trianglediamonds.svg	2	yes	44	1	807
6.6.1	win	2022-12-14	14:22:37	14:29:57	436063	5ea3694d838a642e5790ec0a	843890286	1	main_z	7	advance_on_keypress_ZEE	114	stimuli_target_circlediamonds.svg	stimuli_distractor_trianglediamonds.svg	2	yes	57	0	382
6.6.1	win	2022-12-14	14:22:37	14:29:59	438017	5ea3694d838a642e5790ec0a	843890286	1	main_z	7	main_z	115	stimuli_target_trianglesquares.svg	stimuli_distractor_trianglediamonds.svg	18	yes	44	1	884
6.6.1	win	2022-12-14	14:22:37	14:29:59	438017	5ea3694d838a642e5790ec0a	843890286	1	main_z	7	advance_on_keypress_ZEE	116	stimuli_target_trianglesquares.svg	stimuli_distractor_trianglediamonds.svg	18	yes	57	0	359
6.6.1	win	2022-12-14	14:22:37	14:30:01	439900	5ea3694d838a642e5790ec0a	843890286	1	main_z	7	main_z	117	stimuli_distractor_diamondtriangles.svg	stimuli_target_circletriangles.svg	13	yes	44	1	828
6.6.1	win	2022-12-14	14:22:37	14:30:01	439900	5ea3694d838a642e5790ec0a	843890286	1	main_z	7	advance_on_keypress_ZEE	118	stimuli_distractor_diamondtriangles.svg	stimuli_target_circletriangles.svg	13	yes	57	0	397
6.6.1	win	2022-12-14	14:22:37	14:30:04	442643	5ea3694d838a642e5790ec0a	843890286	1	main_z	7	main_z	119	stimuli_target_diamondsquares.svg	stimuli_distractor_trianglediamonds.svg	20	yes	44	1	1667
6.6.1	win	2022-12-14	14:22:37	14:30:04	442643	5ea3694d838a642e5790ec0a	843890286	1	main_z	7	advance_on_keypress_ZEE	120	stimuli_target_diamondsquares.svg	stimuli_distractor_trianglediamonds.svg	20	yes	57	0	397
6.6.1	win	2022-12-14	14:22:37	14:30:07	445722	5ea3694d838a642e5790ec0a	843890286	1	main_z	7	main_z	121	stimuli_distractor_trianglediamonds.svg	stimuli_distractor_diamondtriangles.svg	36	no	0	1	2000
6.6.1	win	2022-12-14	14:22:37	14:30:07	445722	5ea3694d838a642e5790ec0a	843890286	1	main_z	7	advance_on_keypress_ZEE	122	stimuli_distractor_trianglediamonds.svg	stimuli_distractor_diamondtriangles.svg	36	no	57	0	376
6.6.1	win	2022-12-14	14:22:37	14:30:09	447667	5ea3694d838a642e5790ec0a	843890286	1	main_z	7	main_z	123	stimuli_target_squarediamonds.svg	stimuli_distractor_diamondtriangles.svg	8	yes	44	1	889
6.6.1	win	2022-12-14	14:22:37	14:30:09	447667	5ea3694d838a642e5790ec0a	843890286	1	main_z	7	advance_on_keypress_ZEE	124	stimuli_target_squarediamonds.svg	stimuli_distractor_diamondtriangles.svg	8	yes	57	0	381
6.6.1	win	2022-12-14	14:22:37	14:30:11	449551	5ea3694d838a642e5790ec0a	843890286	1	main_z	7	main_z	125	stimuli_distractor_diamondtriangles.svg	stimuli_target_diamondsquares.svg	32	yes	44	1	822
6.6.1	win	2022-12-14	14:22:37	14:30:11	449551	5ea3694d838a642e5790ec0a	843890286	1	main_z	7	advance_on_keypress_ZEE	126	stimuli_distractor_diamondtriangles.svg	stimuli_target_diamondsquares.svg	32	yes	57	0	333
6.6.1	win	2022-12-14	14:22:37	14:30:13	451666	5ea3694d838a642e5790ec0a	843890286	1	main_z	7	main_z	127	stimuli_target_squaretriangles.svg	stimuli_distractor_diamondtriangles.svg	7	yes	44	1	1103
6.6.1	win	2022-12-14	14:22:37	14:30:13	451666	5ea3694d838a642e5790ec0a	843890286	1	main_z	7	advance_on_keypress_ZEE	128	stimuli_target_squaretriangles.svg	stimuli_distractor_diamondtriangles.svg	7	yes	57	0	412
6.6.1	win	2022-12-14	14:22:37	14:30:15	453696	5ea3694d838a642e5790ec0a	843890286	1	main_z	7	main_z	129	stimuli_target_diamondsquares.svg	stimuli_distractor_diamondtriangles.svg	24	yes	44	1	955
6.6.1	win	2022-12-14	14:22:37	14:30:15	453696	5ea3694d838a642e5790ec0a	843890286	1	main_z	7	advance_on_keypress_ZEE	130	stimuli_target_diamondsquares.svg	stimuli_distractor_diamondtriangles.svg	24	yes	57	0	518
6.6.1	win	2022-12-14	14:22:37	14:30:17	455908	5ea3694d838a642e5790ec0a	843890286	1	main_z	7	main_z	131	stimuli_distractor_diamondtriangles.svg	stimuli_target_squaretriangles.svg	15	yes	44	1	1015
6.6.1	win	2022-12-14	14:22:37	14:30:17	455908	5ea3694d838a642e5790ec0a	843890286	1	main_z	7	advance_on_keypress_ZEE	132	stimuli_distractor_diamondtriangles.svg	stimuli_target_squaretriangles.svg	15	yes	57	0	375
6.6.1	win	2022-12-14	14:22:37	14:30:19	457734	5ea3694d838a642e5790ec0a	843890286	1	main_z	7	main_z	133	stimuli_distractor_trianglediamonds.svg	stimuli_target_diamondcircles.svg	27	yes	44	1	789
6.6.1	win	2022-12-14	14:22:37	14:30:19	457734	5ea3694d838a642e5790ec0a	843890286	1	main_z	7	advance_on_keypress_ZEE	134	stimuli_distractor_trianglediamonds.svg	stimuli_target_diamondcircles.svg	27	yes	57	0	430
6.6.1	win	2022-12-14	14:22:37	14:30:21	459725	5ea3694d838a642e5790ec0a	843890286	1	main_z	7	main_z	135	stimuli_distractor_trianglediamonds.svg	stimuli_target_circlediamonds.svg	10	yes	44	1	881
6.6.1	win	2022-12-14	14:22:37	14:30:21	459725	5ea3694d838a642e5790ec0a	843890286	1	main_z	7	advance_on_keypress_ZEE	136	stimuli_distractor_trianglediamonds.svg	stimuli_target_circlediamonds.svg	10	yes	57	0	399
6.6.1	win	2022-12-14	14:22:37	14:30:24	462804	5ea3694d838a642e5790ec0a	843890286	1	main_z	7	main_z	137	stimuli_distractor_trianglediamonds.svg	stimuli_distractor_diamondtriangles.svg	35	no	0	1	2000
6.6.1	win	2022-12-14	14:22:37	14:30:24	462804	5ea3694d838a642e5790ec0a	843890286	1	main_z	7	advance_on_keypress_ZEE	138	stimuli_distractor_trianglediamonds.svg	stimuli_distractor_diamondtriangles.svg	35	no	57	0	384
6.6.1	win	2022-12-14	14:22:37	14:30:26	464778	5ea3694d838a642e5790ec0a	843890286	1	main_z	7	main_z	139	stimuli_distractor_diamondtriangles.svg	stimuli_target_trianglesquares.svg	30	yes	44	1	910
6.6.1	win	2022-12-14	14:22:37	14:30:26	464778	5ea3694d838a642e5790ec0a	843890286	1	main_z	7	advance_on_keypress_ZEE	140	stimuli_distractor_diamondtriangles.svg	stimuli_target_trianglesquares.svg	30	yes	57	0	376
6.6.1	win	2022-12-14	14:22:37	14:30:28	466775	5ea3694d838a642e5790ec0a	843890286	1	main_z	7	main_z	141	stimuli_distractor_trianglediamonds.svg	stimuli_target_squaretriangles.svg	11	yes	44	1	941
6.6.1	win	2022-12-14	14:22:37	14:30:28	466775	5ea3694d838a642e5790ec0a	843890286	1	main_z	7	advance_on_keypress_ZEE	142	stimuli_distractor_trianglediamonds.svg	stimuli_target_squaretriangles.svg	11	yes	57	0	393
6.6.1	win	2022-12-14	14:22:37	14:30:30	468930	5ea3694d838a642e5790ec0a	843890286	1	main_z	7	main_z	143	stimuli_distractor_trianglediamonds.svg	stimuli_target_circletriangles.svg	9	yes	44	1	1082
6.6.1	win	2022-12-14	14:22:37	14:30:30	468930	5ea3694d838a642e5790ec0a	843890286	1	main_z	7	advance_on_keypress_ZEE	144	stimuli_distractor_trianglediamonds.svg	stimuli_target_circletriangles.svg	9	yes	57	0	387
6.6.1	win	2022-12-14	14:22:37	14:30:32	471187	5ea3694d838a642e5790ec0a	843890286	1	main_z	7	main_z	145	stimuli_distractor_diamondtriangles.svg	stimuli_target_trianglecircles.svg	29	yes	44	1	1191
6.6.1	win	2022-12-14	14:22:37	14:30:32	471187	5ea3694d838a642e5790ec0a	843890286	1	main_z	7	advance_on_keypress_ZEE	146	stimuli_distractor_diamondtriangles.svg	stimuli_target_trianglecircles.svg	29	yes	57	0	371
6.6.1	win	2022-12-14	14:22:37	14:30:34	473013	5ea3694d838a642e5790ec0a	843890286	1	main_z	7	main_z	147	stimuli_target_squarediamonds.svg	stimuli_distractor_trianglediamonds.svg	4	yes	44	1	793
6.6.1	win	2022-12-14	14:22:37	14:30:34	473013	5ea3694d838a642e5790ec0a	843890286	1	main_z	7	advance_on_keypress_ZEE	148	stimuli_target_squarediamonds.svg	stimuli_distractor_trianglediamonds.svg	4	yes	57	0	386
6.6.1	win	2022-12-14	14:22:37	14:30:37	476079	5ea3694d838a642e5790ec0a	843890286	1	main_z	7	main_z	149	stimuli_distractor_trianglediamonds.svg	stimuli_target_diamondsquares.svg	28	yes	0	0	2000
6.6.1	win	2022-12-14	14:22:37	14:30:37	476079	5ea3694d838a642e5790ec0a	843890286	1	main_z	7	advance_on_keypress_ZEE	150	stimuli_distractor_trianglediamonds.svg	stimuli_target_diamondsquares.svg	28	yes	57	0	410
6.6.1	win	2022-12-14	14:22:37	14:30:39	477803	5ea3694d838a642e5790ec0a	843890286	1	main_z	7	main_z	151	stimuli_distractor_trianglediamonds.svg	stimuli_target_trianglecircles.svg	25	yes	44	1	653
6.6.1	win	2022-12-14	14:22:37	14:30:39	477803	5ea3694d838a642e5790ec0a	843890286	1	main_z	7	advance_on_keypress_ZEE	152	stimuli_distractor_trianglediamonds.svg	stimuli_target_trianglecircles.svg	25	yes	57	0	438
6.6.1	win	2022-12-14	14:22:37	14:30:41	480200	5ea3694d838a642e5790ec0a	843890286	1	main_z	7	main_z	153	stimuli_target_circletriangles.svg	stimuli_distractor_diamondtriangles.svg	5	yes	44	1	1282
6.6.1	win	2022-12-14	14:22:37	14:30:41	480200	5ea3694d838a642e5790ec0a	843890286	1	main_z	7	advance_on_keypress_ZEE	154	stimuli_target_circletriangles.svg	stimuli_distractor_diamondtriangles.svg	5	yes	57	0	347
6.6.1	win	2022-12-14	14:22:37	14:30:43	482100	5ea3694d838a642e5790ec0a	843890286	1	main_z	7	main_z	155	stimuli_distractor_diamondtriangles.svg	stimuli_target_circlediamonds.svg	14	yes	44	1	875
6.6.1	win	2022-12-14	14:22:37	14:30:43	482100	5ea3694d838a642e5790ec0a	843890286	1	main_z	7	advance_on_keypress_ZEE	156	stimuli_distractor_diamondtriangles.svg	stimuli_target_circlediamonds.svg	14	yes	57	0	431
6.6.1	win	2022-12-14	14:22:37	14:30:45	484089	5ea3694d838a642e5790ec0a	843890286	1	main_z	7	main_z	157	stimuli_target_diamondcircles.svg	stimuli_distractor_trianglediamonds.svg	19	yes	44	1	895
6.6.1	win	2022-12-14	14:22:37	14:30:45	484089	5ea3694d838a642e5790ec0a	843890286	1	main_z	7	advance_on_keypress_ZEE	158	stimuli_target_diamondcircles.svg	stimuli_distractor_trianglediamonds.svg	19	yes	57	0	389
6.6.1	win	2022-12-14	14:22:37	14:30:47	485974	5ea3694d838a642e5790ec0a	843890286	1	main_z	7	main_z	159	stimuli_target_circletriangles.svg	stimuli_distractor_trianglediamonds.svg	1	yes	44	1	816
6.6.1	win	2022-12-14	14:22:37	14:30:47	485974	5ea3694d838a642e5790ec0a	843890286	1	main_z	7	advance_on_keypress_ZEE	160	stimuli_target_circletriangles.svg	stimuli_distractor_trianglediamonds.svg	1	yes	57	0	406
6.6.1	win	2022-12-14	14:22:37	14:31:26	525327	5ea3694d838a642e5790ec0a	843890286	1	practice_slash	9	practice_slash	1	stimuli_distractor_trianglediamonds.svg	stimuli_target_squarediamonds.svg	11	yes	53	1	960
6.6.1	win	2022-12-14	14:22:37	14:31:26	525327	5ea3694d838a642e5790ec0a	843890286	1	practice_slash	9	advance_on_keypress_SLASH	2	stimuli_distractor_trianglediamonds.svg	stimuli_target_squarediamonds.svg	11	yes	57	0	355
6.6.1	win	2022-12-14	14:22:37	14:31:29	528238	5ea3694d838a642e5790ec0a	843890286	1	practice_slash	9	practice_slash	3	stimuli_target_diamondsquares.svg	stimuli_distractor_diamondtriangles.svg	3	yes	53	1	853
6.6.1	win	2022-12-14	14:22:37	14:31:29	528238	5ea3694d838a642e5790ec0a	843890286	1	practice_slash	9	advance_on_keypress_SLASH	4	stimuli_target_diamondsquares.svg	stimuli_distractor_diamondtriangles.svg	3	yes	57	0	299
6.6.1	win	2022-12-14	14:22:37	14:31:32	530892	5ea3694d838a642e5790ec0a	843890286	1	practice_slash	9	practice_slash	5	stimuli_distractor_trianglediamonds.svg	stimuli_target_circlediamonds.svg	10	yes	53	1	669
6.6.1	win	2022-12-14	14:22:37	14:31:32	530892	5ea3694d838a642e5790ec0a	843890286	1	practice_slash	9	advance_on_keypress_SLASH	6	stimuli_distractor_trianglediamonds.svg	stimuli_target_circlediamonds.svg	10	yes	57	0	263
6.6.1	win	2022-12-14	14:22:37	14:31:36	534861	5ea3694d838a642e5790ec0a	843890286	1	practice_slash	9	practice_slash	7	stimuli_distractor_diamondtriangles.svg	stimuli_distractor_trianglediamonds.svg	14	no	0	1	2000
6.6.1	win	2022-12-14	14:22:37	14:31:36	534861	5ea3694d838a642e5790ec0a	843890286	1	practice_slash	9	advance_on_keypress_SLASH	8	stimuli_distractor_diamondtriangles.svg	stimuli_distractor_trianglediamonds.svg	14	no	57	0	216
6.6.1	win	2022-12-14	14:22:37	14:31:39	537901	5ea3694d838a642e5790ec0a	843890286	1	practice_slash	9	practice_slash	9	stimuli_distractor_diamondtriangles.svg	stimuli_target_diamondcircles.svg	8	yes	53	1	1119
6.6.1	win	2022-12-14	14:22:37	14:31:39	537901	5ea3694d838a642e5790ec0a	843890286	1	practice_slash	9	advance_on_keypress_SLASH	10	stimuli_distractor_diamondtriangles.svg	stimuli_target_diamondcircles.svg	8	yes	57	0	278
6.6.1	win	2022-12-14	14:22:37	14:31:43	541902	5ea3694d838a642e5790ec0a	843890286	1	practice_slash	9	practice_slash	11	stimuli_distractor_diamondtriangles.svg	stimuli_distractor_diamondtriangles.svg	13	no	0	1	2000
6.6.1	win	2022-12-14	14:22:37	14:31:43	541902	5ea3694d838a642e5790ec0a	843890286	1	practice_slash	9	advance_on_keypress_SLASH	12	stimuli_distractor_diamondtriangles.svg	stimuli_distractor_diamondtriangles.svg	13	no	57	0	58
6.6.1	win	2022-12-14	14:22:37	14:31:47	545658	5ea3694d838a642e5790ec0a	843890286	1	practice_slash	9	practice_slash	13	stimuli_distractor_trianglediamonds.svg	stimuli_distractor_diamondtriangles.svg	16	no	0	1	2000
6.6.1	win	2022-12-14	14:22:37	14:31:47	545658	5ea3694d838a642e5790ec0a	843890286	1	practice_slash	9	advance_on_keypress_SLASH	14	stimuli_distractor_trianglediamonds.svg	stimuli_distractor_diamondtriangles.svg	16	no	57	0	277
6.6.1	win	2022-12-14	14:22:37	14:31:50	548788	5ea3694d838a642e5790ec0a	843890286	1	practice_slash	9	practice_slash	15	stimuli_target_diamondsquares.svg	stimuli_distractor_trianglediamonds.svg	6	yes	53	1	1149
6.6.1	win	2022-12-14	14:22:37	14:31:50	548788	5ea3694d838a642e5790ec0a	843890286	1	practice_slash	9	advance_on_keypress_SLASH	16	stimuli_target_diamondsquares.svg	stimuli_distractor_trianglediamonds.svg	6	yes	57	0	342
6.6.1	win	2022-12-14	14:22:37	14:31:53	551902	5ea3694d838a642e5790ec0a	843890286	1	practice_slash	9	practice_slash	17	stimuli_target_squarediamonds.svg	stimuli_distractor_trianglediamonds.svg	5	yes	53	1	1069
6.6.1	win	2022-12-14	14:22:37	14:31:53	551902	5ea3694d838a642e5790ec0a	843890286	1	practice_slash	9	advance_on_keypress_SLASH	18	stimuli_target_squarediamonds.svg	stimuli_distractor_trianglediamonds.svg	5	yes	57	0	404
6.6.1	win	2022-12-14	14:22:37	14:31:56	554908	5ea3694d838a642e5790ec0a	843890286	1	practice_slash	9	practice_slash	19	stimuli_target_circlediamonds.svg	stimuli_distractor_trianglediamonds.svg	4	yes	53	1	895
6.6.1	win	2022-12-14	14:22:37	14:31:56	554908	5ea3694d838a642e5790ec0a	843890286	1	practice_slash	9	advance_on_keypress_SLASH	20	stimuli_target_circlediamonds.svg	stimuli_distractor_trianglediamonds.svg	4	yes	57	0	479
6.6.1	win	2022-12-14	14:22:37	14:32:00	559091	5ea3694d838a642e5790ec0a	843890286	1	practice_slash	9	practice_slash	21	stimuli_distractor_trianglediamonds.svg	stimuli_distractor_trianglediamonds.svg	15	no	0	1	2000
6.6.1	win	2022-12-14	14:22:37	14:32:00	559091	5ea3694d838a642e5790ec0a	843890286	1	practice_slash	9	advance_on_keypress_SLASH	22	stimuli_distractor_trianglediamonds.svg	stimuli_distractor_trianglediamonds.svg	15	no	57	0	240
6.6.1	win	2022-12-14	14:22:37	14:32:03	561869	5ea3694d838a642e5790ec0a	843890286	1	practice_slash	9	practice_slash	23	stimuli_distractor_diamondtriangles.svg	stimuli_target_trianglecircles.svg	9	yes	53	1	836
6.6.1	win	2022-12-14	14:22:37	14:32:03	561869	5ea3694d838a642e5790ec0a	843890286	1	practice_slash	9	advance_on_keypress_SLASH	24	stimuli_distractor_diamondtriangles.svg	stimuli_target_trianglecircles.svg	9	yes	57	0	399
6.6.1	win	2022-12-14	14:22:37	14:32:06	564761	5ea3694d838a642e5790ec0a	843890286	1	practice_slash	9	practice_slash	25	stimuli_distractor_trianglediamonds.svg	stimuli_target_diamondcircles.svg	12	yes	53	1	789
6.6.1	win	2022-12-14	14:22:37	14:32:06	564761	5ea3694d838a642e5790ec0a	843890286	1	practice_slash	9	advance_on_keypress_SLASH	26	stimuli_distractor_trianglediamonds.svg	stimuli_target_diamondcircles.svg	12	yes	57	0	199
6.6.1	win	2022-12-14	14:22:37	14:32:09	567459	5ea3694d838a642e5790ec0a	843890286	1	practice_slash	9	practice_slash	27	stimuli_target_squarediamonds.svg	stimuli_distractor_diamondtriangles.svg	2	yes	53	1	794
6.6.1	win	2022-12-14	14:22:37	14:32:09	567459	5ea3694d838a642e5790ec0a	843890286	1	practice_slash	9	advance_on_keypress_SLASH	28	stimuli_target_squarediamonds.svg	stimuli_distractor_diamondtriangles.svg	2	yes	57	0	264
6.6.1	win	2022-12-14	14:22:37	14:32:11	570201	5ea3694d838a642e5790ec0a	843890286	1	practice_slash	9	practice_slash	29	stimuli_target_circlediamonds.svg	stimuli_distractor_diamondtriangles.svg	1	yes	53	1	775
6.6.1	win	2022-12-14	14:22:37	14:32:11	570201	5ea3694d838a642e5790ec0a	843890286	1	practice_slash	9	advance_on_keypress_SLASH	30	stimuli_target_circlediamonds.svg	stimuli_distractor_diamondtriangles.svg	1	yes	57	0	572
6.6.1	win	2022-12-14	14:22:37	14:32:14	573118	5ea3694d838a642e5790ec0a	843890286	1	practice_slash	9	practice_slash	31	stimuli_distractor_diamondtriangles.svg	stimuli_target_circletriangles.svg	7	yes	53	1	641
6.6.1	win	2022-12-14	14:22:37	14:32:14	573118	5ea3694d838a642e5790ec0a	843890286	1	practice_slash	9	advance_on_keypress_SLASH	32	stimuli_distractor_diamondtriangles.svg	stimuli_target_circletriangles.svg	7	yes	57	0	173
6.6.1	win	2022-12-14	14:22:37	14:32:23	582249	5ea3694d838a642e5790ec0a	843890286	1	main_slash	11	main_slash	1	stimuli_distractor_trianglediamonds.svg	stimuli_distractor_trianglediamonds.svg	34	no	0	1	2000
6.6.1	win	2022-12-14	14:22:37	14:32:23	582249	5ea3694d838a642e5790ec0a	843890286	1	main_slash	11	advance_on_keypress_SLASH	2	stimuli_distractor_trianglediamonds.svg	stimuli_distractor_trianglediamonds.svg	34	no	57	0	330
6.6.1	win	2022-12-14	14:22:37	14:32:25	584112	5ea3694d838a642e5790ec0a	843890286	1	main_slash	11	main_slash	3	stimuli_target_circlediamonds.svg	stimuli_distractor_diamondtriangles.svg	6	yes	53	1	854
6.6.1	win	2022-12-14	14:22:37	14:32:25	584112	5ea3694d838a642e5790ec0a	843890286	1	main_slash	11	advance_on_keypress_SLASH	4	stimuli_target_circlediamonds.svg	stimuli_distractor_diamondtriangles.svg	6	yes	57	0	772
6.6.1	win	2022-12-14	14:22:37	14:32:27	586382	5ea3694d838a642e5790ec0a	843890286	1	main_slash	11	main_slash	5	stimuli_target_diamondsquares.svg	stimuli_distractor_trianglediamonds.svg	20	yes	53	1	835
6.6.1	win	2022-12-14	14:22:37	14:32:27	586382	5ea3694d838a642e5790ec0a	843890286	1	main_slash	11	advance_on_keypress_SLASH	6	stimuli_target_diamondsquares.svg	stimuli_distractor_trianglediamonds.svg	20	yes	57	0	801
6.6.1	win	2022-12-14	14:22:37	14:32:30	588467	5ea3694d838a642e5790ec0a	843890286	1	main_slash	11	main_slash	7	stimuli_target_diamondcircles.svg	stimuli_distractor_trianglediamonds.svg	19	yes	53	1	604
6.6.1	win	2022-12-14	14:22:37	14:32:30	588467	5ea3694d838a642e5790ec0a	843890286	1	main_slash	11	advance_on_keypress_SLASH	8	stimuli_target_diamondcircles.svg	stimuli_distractor_trianglediamonds.svg	19	yes	57	0	498
6.6.1	win	2022-12-14	14:22:37	14:32:32	590522	5ea3694d838a642e5790ec0a	843890286	1	main_slash	11	main_slash	9	stimuli_target_circletriangles.svg	stimuli_distractor_trianglediamonds.svg	1	yes	53	1	882
6.6.1	win	2022-12-14	14:22:37	14:32:32	590522	5ea3694d838a642e5790ec0a	843890286	1	main_slash	11	advance_on_keypress_SLASH	10	stimuli_target_circletriangles.svg	stimuli_distractor_trianglediamonds.svg	1	yes	57	0	548
6.6.1	win	2022-12-14	14:22:37	14:32:35	593750	5ea3694d838a642e5790ec0a	843890286	1	main_slash	11	main_slash	11	stimuli_distractor_diamondtriangles.svg	stimuli_distractor_diamondtriangles.svg	39	no	0	1	2000
6.6.1	win	2022-12-14	14:22:37	14:32:35	593750	5ea3694d838a642e5790ec0a	843890286	1	main_slash	11	advance_on_keypress_SLASH	12	stimuli_distractor_diamondtriangles.svg	stimuli_distractor_diamondtriangles.svg	39	no	57	0	326
6.6.1	win	2022-12-14	14:22:37	14:32:36	595379	5ea3694d838a642e5790ec0a	843890286	1	main_slash	11	main_slash	13	stimuli_distractor_diamondtriangles.svg	stimuli_target_squarediamonds.svg	16	yes	53	1	623
6.6.1	win	2022-12-14	14:22:37	14:32:36	595379	5ea3694d838a642e5790ec0a	843890286	1	main_slash	11	advance_on_keypress_SLASH	14	stimuli_distractor_diamondtriangles.svg	stimuli_target_squarediamonds.svg	16	yes	57	0	569
6.6.1	win	2022-12-14	14:22:37	14:32:40	598620	5ea3694d838a642e5790ec0a	843890286	1	main_slash	11	main_slash	15	stimuli_distractor_diamondtriangles.svg	stimuli_distractor_diamondtriangles.svg	40	no	0	1	2000
6.6.1	win	2022-12-14	14:22:37	14:32:40	598620	5ea3694d838a642e5790ec0a	843890286	1	main_slash	11	advance_on_keypress_SLASH	16	stimuli_distractor_diamondtriangles.svg	stimuli_distractor_diamondtriangles.svg	40	no	57	0	488
6.6.1	win	2022-12-14	14:22:37	14:32:42	600491	5ea3694d838a642e5790ec0a	843890286	1	main_slash	11	main_slash	17	stimuli_distractor_trianglediamonds.svg	stimuli_target_diamondcircles.svg	27	yes	53	1	720
6.6.1	win	2022-12-14	14:22:37	14:32:42	600491	5ea3694d838a642e5790ec0a	843890286	1	main_slash	11	advance_on_keypress_SLASH	18	stimuli_distractor_trianglediamonds.svg	stimuli_target_diamondcircles.svg	27	yes	57	0	695
6.6.1	win	2022-12-14	14:22:37	14:32:44	602818	5ea3694d838a642e5790ec0a	843890286	1	main_slash	11	main_slash	19	stimuli_distractor_trianglediamonds.svg	stimuli_target_diamondsquares.svg	28	yes	53	1	935
6.6.1	win	2022-12-14	14:22:37	14:32:44	602818	5ea3694d838a642e5790ec0a	843890286	1	main_slash	11	advance_on_keypress_SLASH	20	stimuli_distractor_trianglediamonds.svg	stimuli_target_diamondsquares.svg	28	yes	57	0	468
6.6.1	win	2022-12-14	14:22:37	14:32:46	604839	5ea3694d838a642e5790ec0a	843890286	1	main_slash	11	main_slash	21	stimuli_distractor_diamondtriangles.svg	stimuli_target_trianglecircles.svg	29	yes	53	1	875
6.6.1	win	2022-12-14	14:22:37	14:32:46	604839	5ea3694d838a642e5790ec0a	843890286	1	main_slash	11	advance_on_keypress_SLASH	22	stimuli_distractor_diamondtriangles.svg	stimuli_target_trianglecircles.svg	29	yes	57	0	438
6.6.1	win	2022-12-14	14:22:37	14:32:49	607961	5ea3694d838a642e5790ec0a	843890286	1	main_slash	11	main_slash	23	stimuli_distractor_trianglediamonds.svg	stimuli_distractor_diamondtriangles.svg	35	no	0	1	2000
6.6.1	win	2022-12-14	14:22:37	14:32:49	607961	5ea3694d838a642e5790ec0a	843890286	1	main_slash	11	advance_on_keypress_SLASH	24	stimuli_distractor_trianglediamonds.svg	stimuli_distractor_diamondtriangles.svg	35	no	57	0	341
6.6.1	win	2022-12-14	14:22:37	14:32:51	609728	5ea3694d838a642e5790ec0a	843890286	1	main_slash	11	main_slash	25	stimuli_target_circlediamonds.svg	stimuli_distractor_trianglediamonds.svg	2	yes	53	1	761
6.6.1	win	2022-12-14	14:22:37	14:32:51	609728	5ea3694d838a642e5790ec0a	843890286	1	main_slash	11	advance_on_keypress_SLASH	26	stimuli_target_circlediamonds.svg	stimuli_distractor_trianglediamonds.svg	2	yes	57	0	450
6.6.1	win	2022-12-14	14:22:37	14:32:53	611793	5ea3694d838a642e5790ec0a	843890286	1	main_slash	11	main_slash	27	stimuli_distractor_trianglediamonds.svg	stimuli_target_trianglesquares.svg	26	yes	53	1	936
6.6.1	win	2022-12-14	14:22:37	14:32:53	611793	5ea3694d838a642e5790ec0a	843890286	1	main_slash	11	advance_on_keypress_SLASH	28	stimuli_distractor_trianglediamonds.svg	stimuli_target_trianglesquares.svg	26	yes	57	0	468
6.6.1	win	2022-12-14	14:22:37	14:32:55	613798	5ea3694d838a642e5790ec0a	843890286	1	main_slash	11	main_slash	29	stimuli_target_trianglecircles.svg	stimuli_distractor_trianglediamonds.svg	17	yes	53	1	857
6.6.1	win	2022-12-14	14:22:37	14:32:55	613798	5ea3694d838a642e5790ec0a	843890286	1	main_slash	11	advance_on_keypress_SLASH	30	stimuli_target_trianglecircles.svg	stimuli_distractor_trianglediamonds.svg	17	yes	57	0	501
6.6.1	win	2022-12-14	14:22:37	14:32:57	616273	5ea3694d838a642e5790ec0a	843890286	1	main_slash	11	main_slash	31	stimuli_target_trianglesquares.svg	stimuli_distractor_trianglediamonds.svg	18	yes	53	1	1278
6.6.1	win	2022-12-14	14:22:37	14:32:57	616273	5ea3694d838a642e5790ec0a	843890286	1	main_slash	11	advance_on_keypress_SLASH	32	stimuli_target_trianglesquares.svg	stimuli_distractor_trianglediamonds.svg	18	yes	57	0	376
6.6.1	win	2022-12-14	14:22:37	14:33:00	619346	5ea3694d838a642e5790ec0a	843890286	1	main_slash	11	main_slash	33	stimuli_distractor_trianglediamonds.svg	stimuli_distractor_trianglediamonds.svg	33	no	0	1	2000
6.6.1	win	2022-12-14	14:22:37	14:33:00	619346	5ea3694d838a642e5790ec0a	843890286	1	main_slash	11	advance_on_keypress_SLASH	34	stimuli_distractor_trianglediamonds.svg	stimuli_distractor_trianglediamonds.svg	33	no	57	0	338
6.6.1	win	2022-12-14	14:22:37	14:33:02	621030	5ea3694d838a642e5790ec0a	843890286	1	main_slash	11	main_slash	35	stimuli_distractor_diamondtriangles.svg	stimuli_target_squaretriangles.svg	15	yes	53	1	652
6.6.1	win	2022-12-14	14:22:37	14:33:02	621030	5ea3694d838a642e5790ec0a	843890286	1	main_slash	11	advance_on_keypress_SLASH	36	stimuli_distractor_diamondtriangles.svg	stimuli_target_squaretriangles.svg	15	yes	57	0	498
6.6.1	win	2022-12-14	14:22:37	14:33:04	623006	5ea3694d838a642e5790ec0a	843890286	1	main_slash	11	main_slash	37	stimuli_distractor_diamondtriangles.svg	stimuli_target_diamondsquares.svg	32	yes	53	1	815
6.6.1	win	2022-12-14	14:22:37	14:33:04	623006	5ea3694d838a642e5790ec0a	843890286	1	main_slash	11	advance_on_keypress_SLASH	38	stimuli_distractor_diamondtriangles.svg	stimuli_target_diamondsquares.svg	32	yes	57	0	444
6.6.1	win	2022-12-14	14:22:37	14:33:06	624947	5ea3694d838a642e5790ec0a	843890286	1	main_slash	11	main_slash	39	stimuli_distractor_trianglediamonds.svg	stimuli_target_circletriangles.svg	9	yes	53	1	814
6.6.1	win	2022-12-14	14:22:37	14:33:06	624947	5ea3694d838a642e5790ec0a	843890286	1	main_slash	11	advance_on_keypress_SLASH	40	stimuli_distractor_trianglediamonds.svg	stimuli_target_circletriangles.svg	9	yes	57	0	382
6.6.1	win	2022-12-14	14:22:37	14:33:09	628008	5ea3694d838a642e5790ec0a	843890286	1	main_slash	11	main_slash	41	stimuli_distractor_trianglediamonds.svg	stimuli_distractor_diamondtriangles.svg	36	no	0	1	2000
6.6.1	win	2022-12-14	14:22:37	14:33:09	628008	5ea3694d838a642e5790ec0a	843890286	1	main_slash	11	advance_on_keypress_SLASH	42	stimuli_distractor_trianglediamonds.svg	stimuli_distractor_diamondtriangles.svg	36	no	57	0	385
6.6.1	win	2022-12-14	14:22:37	14:33:11	629889	5ea3694d838a642e5790ec0a	843890286	1	main_slash	11	main_slash	43	stimuli_distractor_diamondtriangles.svg	stimuli_target_circlediamonds.svg	14	yes	53	1	835
6.6.1	win	2022-12-14	14:22:37	14:33:11	629889	5ea3694d838a642e5790ec0a	843890286	1	main_slash	11	advance_on_keypress_SLASH	44	stimuli_distractor_diamondtriangles.svg	stimuli_target_circlediamonds.svg	14	yes	57	0	508
6.6.1	win	2022-12-14	14:22:37	14:33:13	632293	5ea3694d838a642e5790ec0a	843890286	1	main_slash	11	main_slash	45	stimuli_target_squarediamonds.svg	stimuli_distractor_trianglediamonds.svg	4	yes	53	1	1217
6.6.1	win	2022-12-14	14:22:37	14:33:13	632293	5ea3694d838a642e5790ec0a	843890286	1	main_slash	11	advance_on_keypress_SLASH	46	stimuli_target_squarediamonds.svg	stimuli_distractor_trianglediamonds.svg	4	yes	57	0	474
6.6.1	win	2022-12-14	14:22:37	14:33:15	634343	5ea3694d838a642e5790ec0a	843890286	1	main_slash	11	main_slash	47	stimuli_distractor_trianglediamonds.svg	stimuli_target_trianglecircles.svg	25	yes	53	1	897
6.6.1	win	2022-12-14	14:22:37	14:33:15	634343	5ea3694d838a642e5790ec0a	843890286	1	main_slash	11	advance_on_keypress_SLASH	48	stimuli_distractor_trianglediamonds.svg	stimuli_target_trianglecircles.svg	25	yes	57	0	355
6.6.1	win	2022-12-14	14:22:37	14:33:18	637379	5ea3694d838a642e5790ec0a	843890286	1	main_slash	11	main_slash	49	stimuli_distractor_diamondtriangles.svg	stimuli_distractor_trianglediamonds.svg	38	no	0	1	2000
6.6.1	win	2022-12-14	14:22:37	14:33:18	637379	5ea3694d838a642e5790ec0a	843890286	1	main_slash	11	advance_on_keypress_SLASH	50	stimuli_distractor_diamondtriangles.svg	stimuli_distractor_trianglediamonds.svg	38	no	57	0	382
6.6.1	win	2022-12-14	14:22:37	14:33:20	639161	5ea3694d838a642e5790ec0a	843890286	1	main_slash	11	main_slash	51	stimuli_target_diamondcircles.svg	stimuli_distractor_diamondtriangles.svg	23	yes	53	1	722
6.6.1	win	2022-12-14	14:22:37	14:33:20	639161	5ea3694d838a642e5790ec0a	843890286	1	main_slash	11	advance_on_keypress_SLASH	52	stimuli_target_diamondcircles.svg	stimuli_distractor_diamondtriangles.svg	23	yes	57	0	339
6.6.1	win	2022-12-14	14:22:37	14:33:22	640920	5ea3694d838a642e5790ec0a	843890286	1	main_slash	11	main_slash	53	stimuli_target_squaretriangles.svg	stimuli_distractor_diamondtriangles.svg	7	yes	53	1	740
6.6.1	win	2022-12-14	14:22:37	14:33:22	640920	5ea3694d838a642e5790ec0a	843890286	1	main_slash	11	advance_on_keypress_SLASH	54	stimuli_target_squaretriangles.svg	stimuli_distractor_diamondtriangles.svg	7	yes	57	0	432
6.6.1	win	2022-12-14	14:22:37	14:33:24	642829	5ea3694d838a642e5790ec0a	843890286	1	main_slash	11	main_slash	55	stimuli_target_squaretriangles.svg	stimuli_distractor_trianglediamonds.svg	3	yes	53	1	797
6.6.1	win	2022-12-14	14:22:37	14:33:24	642829	5ea3694d838a642e5790ec0a	843890286	1	main_slash	11	advance_on_keypress_SLASH	56	stimuli_target_squaretriangles.svg	stimuli_distractor_trianglediamonds.svg	3	yes	57	0	364
6.6.1	win	2022-12-14	14:22:37	14:33:26	644458	5ea3694d838a642e5790ec0a	843890286	1	main_slash	11	main_slash	57	stimuli_distractor_diamondtriangles.svg	stimuli_target_circletriangles.svg	13	yes	53	1	584
6.6.1	win	2022-12-14	14:22:37	14:33:26	644458	5ea3694d838a642e5790ec0a	843890286	1	main_slash	11	advance_on_keypress_SLASH	58	stimuli_distractor_diamondtriangles.svg	stimuli_target_circletriangles.svg	13	yes	57	0	459
6.6.1	win	2022-12-14	14:22:37	14:33:28	646454	5ea3694d838a642e5790ec0a	843890286	1	main_slash	11	main_slash	59	stimuli_target_trianglecircles.svg	stimuli_distractor_diamondtriangles.svg	21	yes	53	1	824
6.6.1	win	2022-12-14	14:22:37	14:33:28	646454	5ea3694d838a642e5790ec0a	843890286	1	main_slash	11	advance_on_keypress_SLASH	60	stimuli_target_trianglecircles.svg	stimuli_distractor_diamondtriangles.svg	21	yes	57	0	297
6.6.1	win	2022-12-14	14:22:37	14:33:29	648261	5ea3694d838a642e5790ec0a	843890286	1	main_slash	11	main_slash	61	stimuli_distractor_trianglediamonds.svg	stimuli_target_circlediamonds.svg	10	yes	53	1	813
6.6.1	win	2022-12-14	14:22:37	14:33:29	648261	5ea3694d838a642e5790ec0a	843890286	1	main_slash	11	advance_on_keypress_SLASH	62	stimuli_distractor_trianglediamonds.svg	stimuli_target_circlediamonds.svg	10	yes	57	0	367
6.6.1	win	2022-12-14	14:22:37	14:33:31	650348	5ea3694d838a642e5790ec0a	843890286	1	main_slash	11	main_slash	63	stimuli_target_squarediamonds.svg	stimuli_distractor_diamondtriangles.svg	8	yes	53	1	1024
6.6.1	win	2022-12-14	14:22:37	14:33:31	650348	5ea3694d838a642e5790ec0a	843890286	1	main_slash	11	advance_on_keypress_SLASH	64	stimuli_target_squarediamonds.svg	stimuli_distractor_diamondtriangles.svg	8	yes	57	0	2275
6.6.1	win	2022-12-14	14:22:37	14:33:35	654137	5ea3694d838a642e5790ec0a	843890286	1	main_slash	11	main_slash	65	stimuli_target_trianglesquares.svg	stimuli_distractor_diamondtriangles.svg	22	yes	53	1	835
6.6.1	win	2022-12-14	14:22:37	14:33:35	654137	5ea3694d838a642e5790ec0a	843890286	1	main_slash	11	advance_on_keypress_SLASH	66	stimuli_target_trianglesquares.svg	stimuli_distractor_diamondtriangles.svg	22	yes	57	0	369
6.6.1	win	2022-12-14	14:22:37	14:33:37	655889	5ea3694d838a642e5790ec0a	843890286	1	main_slash	11	main_slash	67	stimuli_target_circletriangles.svg	stimuli_distractor_diamondtriangles.svg	5	yes	53	1	703
6.6.1	win	2022-12-14	14:22:37	14:33:37	655889	5ea3694d838a642e5790ec0a	843890286	1	main_slash	11	advance_on_keypress_SLASH	68	stimuli_target_circletriangles.svg	stimuli_distractor_diamondtriangles.svg	5	yes	57	0	404
6.6.1	win	2022-12-14	14:22:37	14:33:40	658974	5ea3694d838a642e5790ec0a	843890286	1	main_slash	11	main_slash	69	stimuli_distractor_diamondtriangles.svg	stimuli_distractor_trianglediamonds.svg	37	no	0	1	2000
6.6.1	win	2022-12-14	14:22:37	14:33:40	658974	5ea3694d838a642e5790ec0a	843890286	1	main_slash	11	advance_on_keypress_SLASH	70	stimuli_distractor_diamondtriangles.svg	stimuli_distractor_trianglediamonds.svg	37	no	57	0	297
6.6.1	win	2022-12-14	14:22:37	14:33:42	660814	5ea3694d838a642e5790ec0a	843890286	1	main_slash	11	main_slash	71	stimuli_target_diamondsquares.svg	stimuli_distractor_diamondtriangles.svg	24	yes	53	1	881
6.6.1	win	2022-12-14	14:22:37	14:33:42	660814	5ea3694d838a642e5790ec0a	843890286	1	main_slash	11	advance_on_keypress_SLASH	72	stimuli_target_diamondsquares.svg	stimuli_distractor_diamondtriangles.svg	24	yes	57	0	389
6.6.1	win	2022-12-14	14:22:37	14:33:44	662632	5ea3694d838a642e5790ec0a	843890286	1	main_slash	11	main_slash	73	stimuli_distractor_trianglediamonds.svg	stimuli_target_squarediamonds.svg	12	yes	53	1	767
6.6.1	win	2022-12-14	14:22:37	14:33:44	662632	5ea3694d838a642e5790ec0a	843890286	1	main_slash	11	advance_on_keypress_SLASH	74	stimuli_distractor_trianglediamonds.svg	stimuli_target_squarediamonds.svg	12	yes	57	0	522
6.6.1	win	2022-12-14	14:22:37	14:33:46	664513	5ea3694d838a642e5790ec0a	843890286	1	main_slash	11	main_slash	75	stimuli_distractor_trianglediamonds.svg	stimuli_target_squaretriangles.svg	11	yes	53	1	679
6.6.1	win	2022-12-14	14:22:37	14:33:46	664513	5ea3694d838a642e5790ec0a	843890286	1	main_slash	11	advance_on_keypress_SLASH	76	stimuli_distractor_trianglediamonds.svg	stimuli_target_squaretriangles.svg	11	yes	57	0	464
6.6.1	win	2022-12-14	14:22:37	14:33:48	666498	5ea3694d838a642e5790ec0a	843890286	1	main_slash	11	main_slash	77	stimuli_distractor_diamondtriangles.svg	stimuli_target_trianglesquares.svg	30	yes	53	1	841
6.6.1	win	2022-12-14	14:22:37	14:33:48	666498	5ea3694d838a642e5790ec0a	843890286	1	main_slash	11	advance_on_keypress_SLASH	78	stimuli_distractor_diamondtriangles.svg	stimuli_target_trianglesquares.svg	30	yes	57	0	412
6.6.1	win	2022-12-14	14:22:37	14:33:49	668383	5ea3694d838a642e5790ec0a	843890286	1	main_slash	11	main_slash	79	stimuli_distractor_diamondtriangles.svg	stimuli_target_diamondcircles.svg	31	yes	53	1	794
6.6.1	win	2022-12-14	14:22:37	14:33:49	668383	5ea3694d838a642e5790ec0a	843890286	1	main_slash	11	advance_on_keypress_SLASH	80	stimuli_distractor_diamondtriangles.svg	stimuli_target_diamondcircles.svg	31	yes	57	0	403
6.6.1	win	2022-12-14	14:22:37	14:33:51	670178	5ea3694d838a642e5790ec0a	843890286	1	main_slash	11	main_slash	81	stimuli_distractor_trianglediamonds.svg	stimuli_target_diamondcircles.svg	27	yes	53	1	713
6.6.1	win	2022-12-14	14:22:37	14:33:51	670178	5ea3694d838a642e5790ec0a	843890286	1	main_slash	11	advance_on_keypress_SLASH	82	stimuli_distractor_trianglediamonds.svg	stimuli_target_diamondcircles.svg	27	yes	57	0	405
6.6.1	win	2022-12-14	14:22:37	14:33:53	672085	5ea3694d838a642e5790ec0a	843890286	1	main_slash	11	main_slash	83	stimuli_target_diamondsquares.svg	stimuli_distractor_diamondtriangles.svg	24	yes	53	1	822
6.6.1	win	2022-12-14	14:22:37	14:33:53	672085	5ea3694d838a642e5790ec0a	843890286	1	main_slash	11	advance_on_keypress_SLASH	84	stimuli_target_diamondsquares.svg	stimuli_distractor_diamondtriangles.svg	24	yes	57	0	381
6.6.1	win	2022-12-14	14:22:37	14:33:55	673901	5ea3694d838a642e5790ec0a	843890286	1	main_slash	11	main_slash	85	stimuli_target_squarediamonds.svg	stimuli_distractor_diamondtriangles.svg	8	yes	53	1	757
6.6.1	win	2022-12-14	14:22:37	14:33:55	673901	5ea3694d838a642e5790ec0a	843890286	1	main_slash	11	advance_on_keypress_SLASH	86	stimuli_target_squarediamonds.svg	stimuli_distractor_diamondtriangles.svg	8	yes	57	0	397
6.6.1	win	2022-12-14	14:22:37	14:33:57	675733	5ea3694d838a642e5790ec0a	843890286	1	main_slash	11	main_slash	87	stimuli_target_diamondcircles.svg	stimuli_distractor_trianglediamonds.svg	19	yes	53	1	757
6.6.1	win	2022-12-14	14:22:37	14:33:57	675733	5ea3694d838a642e5790ec0a	843890286	1	main_slash	11	advance_on_keypress_SLASH	88	stimuli_target_diamondcircles.svg	stimuli_distractor_trianglediamonds.svg	19	yes	57	0	405
6.6.1	win	2022-12-14	14:22:37	14:34:00	678799	5ea3694d838a642e5790ec0a	843890286	1	main_slash	11	main_slash	89	stimuli_distractor_trianglediamonds.svg	stimuli_distractor_diamondtriangles.svg	36	no	0	1	2000
6.6.1	win	2022-12-14	14:22:37	14:34:00	678799	5ea3694d838a642e5790ec0a	843890286	1	main_slash	11	advance_on_keypress_SLASH	90	stimuli_distractor_trianglediamonds.svg	stimuli_distractor_diamondtriangles.svg	36	no	57	0	326
6.6.1	win	2022-12-14	14:22:37	14:34:02	680970	5ea3694d838a642e5790ec0a	843890286	1	main_slash	11	main_slash	91	stimuli_target_circlediamonds.svg	stimuli_distractor_diamondtriangles.svg	6	yes	53	1	1165
6.6.1	win	2022-12-14	14:22:37	14:34:02	680970	5ea3694d838a642e5790ec0a	843890286	1	main_slash	11	advance_on_keypress_SLASH	92	stimuli_target_circlediamonds.svg	stimuli_distractor_diamondtriangles.svg	6	yes	57	0	342
6.6.1	win	2022-12-14	14:22:37	14:34:04	682875	5ea3694d838a642e5790ec0a	843890286	1	main_slash	11	main_slash	93	stimuli_target_squaretriangles.svg	stimuli_distractor_diamondtriangles.svg	7	yes	53	1	885
6.6.1	win	2022-12-14	14:22:37	14:34:04	682875	5ea3694d838a642e5790ec0a	843890286	1	main_slash	11	advance_on_keypress_SLASH	94	stimuli_target_squaretriangles.svg	stimuli_distractor_diamondtriangles.svg	7	yes	57	0	402
6.6.1	win	2022-12-14	14:22:37	14:34:06	684787	5ea3694d838a642e5790ec0a	843890286	1	main_slash	11	main_slash	95	stimuli_distractor_trianglediamonds.svg	stimuli_target_circlediamonds.svg	10	yes	53	1	831
6.6.1	win	2022-12-14	14:22:37	14:34:06	684787	5ea3694d838a642e5790ec0a	843890286	1	main_slash	11	advance_on_keypress_SLASH	96	stimuli_distractor_trianglediamonds.svg	stimuli_target_circlediamonds.svg	10	yes	57	0	434
6.6.1	win	2022-12-14	14:22:37	14:34:08	686637	5ea3694d838a642e5790ec0a	843890286	1	main_slash	11	main_slash	97	stimuli_distractor_trianglediamonds.svg	stimuli_target_circletriangles.svg	9	yes	53	1	737
6.6.1	win	2022-12-14	14:22:37	14:34:08	686637	5ea3694d838a642e5790ec0a	843890286	1	main_slash	11	advance_on_keypress_SLASH	98	stimuli_distractor_trianglediamonds.svg	stimuli_target_circletriangles.svg	9	yes	57	0	466
6.6.1	win	2022-12-14	14:22:37	14:34:10	688687	5ea3694d838a642e5790ec0a	843890286	1	main_slash	11	main_slash	99	stimuli_distractor_diamondtriangles.svg	stimuli_target_trianglecircles.svg	29	yes	53	1	906
6.6.1	win	2022-12-14	14:22:37	14:34:10	688687	5ea3694d838a642e5790ec0a	843890286	1	main_slash	11	advance_on_keypress_SLASH	100	stimuli_distractor_diamondtriangles.svg	stimuli_target_trianglecircles.svg	29	yes	57	0	441
6.6.1	win	2022-12-14	14:22:37	14:34:13	691807	5ea3694d838a642e5790ec0a	843890286	1	main_slash	11	main_slash	101	stimuli_distractor_diamondtriangles.svg	stimuli_distractor_trianglediamonds.svg	37	no	0	1	2000
6.6.1	win	2022-12-14	14:22:37	14:34:13	691807	5ea3694d838a642e5790ec0a	843890286	1	main_slash	11	advance_on_keypress_SLASH	102	stimuli_distractor_diamondtriangles.svg	stimuli_distractor_trianglediamonds.svg	37	no	57	0	352
6.6.1	win	2022-12-14	14:22:37	14:34:14	693408	5ea3694d838a642e5790ec0a	843890286	1	main_slash	11	main_slash	103	stimuli_target_squaretriangles.svg	stimuli_distractor_trianglediamonds.svg	3	yes	53	1	569
6.6.1	win	2022-12-14	14:22:37	14:34:14	693408	5ea3694d838a642e5790ec0a	843890286	1	main_slash	11	advance_on_keypress_SLASH	104	stimuli_target_squaretriangles.svg	stimuli_distractor_trianglediamonds.svg	3	yes	57	0	439
6.6.1	win	2022-12-14	14:22:37	14:34:16	695140	5ea3694d838a642e5790ec0a	843890286	1	main_slash	11	main_slash	105	stimuli_target_circlediamonds.svg	stimuli_distractor_trianglediamonds.svg	2	yes	53	1	618
6.6.1	win	2022-12-14	14:22:37	14:34:16	695140	5ea3694d838a642e5790ec0a	843890286	1	main_slash	11	advance_on_keypress_SLASH	106	stimuli_target_circlediamonds.svg	stimuli_distractor_trianglediamonds.svg	2	yes	57	0	394
6.6.1	win	2022-12-14	14:22:37	14:34:18	696862	5ea3694d838a642e5790ec0a	843890286	1	main_slash	11	main_slash	107	stimuli_target_circletriangles.svg	stimuli_distractor_diamondtriangles.svg	5	yes	53	1	616
6.6.1	win	2022-12-14	14:22:37	14:34:18	696862	5ea3694d838a642e5790ec0a	843890286	1	main_slash	11	advance_on_keypress_SLASH	108	stimuli_target_circletriangles.svg	stimuli_distractor_diamondtriangles.svg	5	yes	57	0	459
6.6.1	win	2022-12-14	14:22:37	14:34:20	698932	5ea3694d838a642e5790ec0a	843890286	1	main_slash	11	main_slash	109	stimuli_distractor_trianglediamonds.svg	stimuli_target_trianglecircles.svg	25	yes	53	1	932
6.6.1	win	2022-12-14	14:22:37	14:34:20	698932	5ea3694d838a642e5790ec0a	843890286	1	main_slash	11	advance_on_keypress_SLASH	110	stimuli_distractor_trianglediamonds.svg	stimuli_target_trianglecircles.svg	25	yes	57	0	382
6.6.1	win	2022-12-14	14:22:37	14:34:22	700832	5ea3694d838a642e5790ec0a	843890286	1	main_slash	11	main_slash	111	stimuli_distractor_diamondtriangles.svg	stimuli_target_squarediamonds.svg	16	yes	53	1	856
6.6.1	win	2022-12-14	14:22:37	14:34:22	700832	5ea3694d838a642e5790ec0a	843890286	1	main_slash	11	advance_on_keypress_SLASH	112	stimuli_distractor_diamondtriangles.svg	stimuli_target_squarediamonds.svg	16	yes	57	0	320
6.6.1	win	2022-12-14	14:22:37	14:34:24	702678	5ea3694d838a642e5790ec0a	843890286	1	main_slash	11	main_slash	113	stimuli_target_trianglecircles.svg	stimuli_distractor_trianglediamonds.svg	17	yes	53	1	847
6.6.1	win	2022-12-14	14:22:37	14:34:24	702678	5ea3694d838a642e5790ec0a	843890286	1	main_slash	11	advance_on_keypress_SLASH	114	stimuli_target_trianglecircles.svg	stimuli_distractor_trianglediamonds.svg	17	yes	57	0	361
6.6.1	win	2022-12-14	14:22:37	14:34:27	705718	5ea3694d838a642e5790ec0a	843890286	1	main_slash	11	main_slash	115	stimuli_distractor_diamondtriangles.svg	stimuli_distractor_diamondtriangles.svg	40	no	0	1	2000
6.6.1	win	2022-12-14	14:22:37	14:34:27	705718	5ea3694d838a642e5790ec0a	843890286	1	main_slash	11	advance_on_keypress_SLASH	116	stimuli_distractor_diamondtriangles.svg	stimuli_distractor_diamondtriangles.svg	40	no	57	0	354
6.6.1	win	2022-12-14	14:22:37	14:34:28	707402	5ea3694d838a642e5790ec0a	843890286	1	main_slash	11	main_slash	117	stimuli_distractor_diamondtriangles.svg	stimuli_target_circlediamonds.svg	14	yes	53	1	668
6.6.1	win	2022-12-14	14:22:37	14:34:28	707402	5ea3694d838a642e5790ec0a	843890286	1	main_slash	11	advance_on_keypress_SLASH	118	stimuli_distractor_diamondtriangles.svg	stimuli_target_circlediamonds.svg	14	yes	57	0	363
6.6.1	win	2022-12-14	14:22:37	14:34:30	709314	5ea3694d838a642e5790ec0a	843890286	1	main_slash	11	main_slash	119	stimuli_distractor_diamondtriangles.svg	stimuli_target_circletriangles.svg	13	yes	53	1	883
6.6.1	win	2022-12-14	14:22:37	14:34:30	709314	5ea3694d838a642e5790ec0a	843890286	1	main_slash	11	advance_on_keypress_SLASH	120	stimuli_distractor_diamondtriangles.svg	stimuli_target_circletriangles.svg	13	yes	57	0	389
6.6.1	win	2022-12-14	14:22:37	14:34:32	711182	5ea3694d838a642e5790ec0a	843890286	1	main_slash	11	main_slash	121	stimuli_target_circletriangles.svg	stimuli_distractor_trianglediamonds.svg	1	yes	53	1	799
6.6.1	win	2022-12-14	14:22:37	14:34:32	711182	5ea3694d838a642e5790ec0a	843890286	1	main_slash	11	advance_on_keypress_SLASH	122	stimuli_target_circletriangles.svg	stimuli_distractor_trianglediamonds.svg	1	yes	57	0	365
6.6.1	win	2022-12-14	14:22:37	14:34:34	713176	5ea3694d838a642e5790ec0a	843890286	1	main_slash	11	main_slash	123	stimuli_target_trianglesquares.svg	stimuli_distractor_trianglediamonds.svg	18	yes	53	1	949
6.6.1	win	2022-12-14	14:22:37	14:34:34	713176	5ea3694d838a642e5790ec0a	843890286	1	main_slash	11	advance_on_keypress_SLASH	124	stimuli_target_trianglesquares.svg	stimuli_distractor_trianglediamonds.svg	18	yes	57	0	405
6.6.1	win	2022-12-14	14:22:37	14:34:36	714988	5ea3694d838a642e5790ec0a	843890286	1	main_slash	11	main_slash	125	stimuli_target_trianglecircles.svg	stimuli_distractor_diamondtriangles.svg	21	yes	53	1	729
6.6.1	win	2022-12-14	14:22:37	14:34:36	714988	5ea3694d838a642e5790ec0a	843890286	1	main_slash	11	advance_on_keypress_SLASH	126	stimuli_target_trianglecircles.svg	stimuli_distractor_diamondtriangles.svg	21	yes	57	0	628
6.6.1	win	2022-12-14	14:22:37	14:34:38	717091	5ea3694d838a642e5790ec0a	843890286	1	main_slash	11	main_slash	127	stimuli_distractor_trianglediamonds.svg	stimuli_target_squarediamonds.svg	12	yes	53	1	795
6.6.1	win	2022-12-14	14:22:37	14:34:38	717091	5ea3694d838a642e5790ec0a	843890286	1	main_slash	11	advance_on_keypress_SLASH	128	stimuli_distractor_trianglediamonds.svg	stimuli_target_squarediamonds.svg	12	yes	57	0	407
6.6.1	win	2022-12-14	14:22:37	14:34:40	719065	5ea3694d838a642e5790ec0a	843890286	1	main_slash	11	main_slash	129	stimuli_distractor_diamondtriangles.svg	stimuli_target_diamondcircles.svg	31	yes	53	1	889
6.6.1	win	2022-12-14	14:22:37	14:34:40	719065	5ea3694d838a642e5790ec0a	843890286	1	main_slash	11	advance_on_keypress_SLASH	130	stimuli_distractor_diamondtriangles.svg	stimuli_target_diamondcircles.svg	31	yes	57	0	396
6.6.1	win	2022-12-14	14:22:37	14:34:42	720924	5ea3694d838a642e5790ec0a	843890286	1	main_slash	11	main_slash	131	stimuli_distractor_trianglediamonds.svg	stimuli_target_trianglesquares.svg	26	yes	53	1	784
6.6.1	win	2022-12-14	14:22:37	14:34:42	720924	5ea3694d838a642e5790ec0a	843890286	1	main_slash	11	advance_on_keypress_SLASH	132	stimuli_distractor_trianglediamonds.svg	stimuli_target_trianglesquares.svg	26	yes	57	0	352
6.6.1	win	2022-12-14	14:22:37	14:34:45	723956	5ea3694d838a642e5790ec0a	843890286	1	main_slash	11	main_slash	133	stimuli_distractor_diamondtriangles.svg	stimuli_distractor_trianglediamonds.svg	38	no	0	1	2000
6.6.1	win	2022-12-14	14:22:37	14:34:45	723956	5ea3694d838a642e5790ec0a	843890286	1	main_slash	11	advance_on_keypress_SLASH	134	stimuli_distractor_diamondtriangles.svg	stimuli_distractor_trianglediamonds.svg	38	no	57	0	410
6.6.1	win	2022-12-14	14:22:37	14:34:48	727061	5ea3694d838a642e5790ec0a	843890286	1	main_slash	11	main_slash	135	stimuli_distractor_trianglediamonds.svg	stimuli_distractor_diamondtriangles.svg	35	no	0	1	2000
6.6.1	win	2022-12-14	14:22:37	14:34:48	727061	5ea3694d838a642e5790ec0a	843890286	1	main_slash	11	advance_on_keypress_SLASH	136	stimuli_distractor_trianglediamonds.svg	stimuli_distractor_diamondtriangles.svg	35	no	57	0	322
6.6.1	win	2022-12-14	14:22:37	14:34:50	728863	5ea3694d838a642e5790ec0a	843890286	1	main_slash	11	main_slash	137	stimuli_target_trianglesquares.svg	stimuli_distractor_diamondtriangles.svg	22	yes	53	1	799
6.6.1	win	2022-12-14	14:22:37	14:34:50	728863	5ea3694d838a642e5790ec0a	843890286	1	main_slash	11	advance_on_keypress_SLASH	138	stimuli_target_trianglesquares.svg	stimuli_distractor_diamondtriangles.svg	22	yes	57	0	445
6.6.1	win	2022-12-14	14:22:37	14:34:52	730832	5ea3694d838a642e5790ec0a	843890286	1	main_slash	11	main_slash	139	stimuli_target_diamondsquares.svg	stimuli_distractor_trianglediamonds.svg	20	yes	53	1	846
6.6.1	win	2022-12-14	14:22:37	14:34:52	730832	5ea3694d838a642e5790ec0a	843890286	1	main_slash	11	advance_on_keypress_SLASH	140	stimuli_target_diamondsquares.svg	stimuli_distractor_trianglediamonds.svg	20	yes	57	0	405
6.6.1	win	2022-12-14	14:22:37	14:34:55	733916	5ea3694d838a642e5790ec0a	843890286	1	main_slash	11	main_slash	141	stimuli_distractor_trianglediamonds.svg	stimuli_distractor_trianglediamonds.svg	34	no	0	1	2000
6.6.1	win	2022-12-14	14:22:37	14:34:55	733916	5ea3694d838a642e5790ec0a	843890286	1	main_slash	11	advance_on_keypress_SLASH	142	stimuli_distractor_trianglediamonds.svg	stimuli_distractor_trianglediamonds.svg	34	no	57	0	333
6.6.1	win	2022-12-14	14:22:37	14:34:57	735767	5ea3694d838a642e5790ec0a	843890286	1	main_slash	11	main_slash	143	stimuli_distractor_diamondtriangles.svg	stimuli_target_squaretriangles.svg	15	yes	53	1	838
6.6.1	win	2022-12-14	14:22:37	14:34:57	735767	5ea3694d838a642e5790ec0a	843890286	1	main_slash	11	advance_on_keypress_SLASH	144	stimuli_distractor_diamondtriangles.svg	stimuli_target_squaretriangles.svg	15	yes	57	0	501
6.6.1	win	2022-12-14	14:22:37	14:34:59	737835	5ea3694d838a642e5790ec0a	843890286	1	main_slash	11	main_slash	145	stimuli_distractor_diamondtriangles.svg	stimuli_target_trianglesquares.svg	30	yes	53	1	871
6.6.1	win	2022-12-14	14:22:37	14:34:59	737835	5ea3694d838a642e5790ec0a	843890286	1	main_slash	11	advance_on_keypress_SLASH	146	stimuli_distractor_diamondtriangles.svg	stimuli_target_trianglesquares.svg	30	yes	57	0	503
6.6.1	win	2022-12-14	14:22:37	14:35:02	741019	5ea3694d838a642e5790ec0a	843890286	1	main_slash	11	main_slash	147	stimuli_distractor_trianglediamonds.svg	stimuli_distractor_trianglediamonds.svg	33	no	0	1	2000
6.6.1	win	2022-12-14	14:22:37	14:35:02	741019	5ea3694d838a642e5790ec0a	843890286	1	main_slash	11	advance_on_keypress_SLASH	148	stimuli_distractor_trianglediamonds.svg	stimuli_distractor_trianglediamonds.svg	33	no	57	0	329
6.6.1	win	2022-12-14	14:22:37	14:35:04	742853	5ea3694d838a642e5790ec0a	843890286	1	main_slash	11	main_slash	149	stimuli_target_diamondcircles.svg	stimuli_distractor_diamondtriangles.svg	23	yes	53	1	826
6.6.1	win	2022-12-14	14:22:37	14:35:04	742853	5ea3694d838a642e5790ec0a	843890286	1	main_slash	11	advance_on_keypress_SLASH	150	stimuli_target_diamondcircles.svg	stimuli_distractor_diamondtriangles.svg	23	yes	57	0	430
6.6.1	win	2022-12-14	14:22:37	14:35:06	744743	5ea3694d838a642e5790ec0a	843890286	1	main_slash	11	main_slash	151	stimuli_distractor_trianglediamonds.svg	stimuli_target_squaretriangles.svg	11	yes	53	1	781
6.6.1	win	2022-12-14	14:22:37	14:35:06	744743	5ea3694d838a642e5790ec0a	843890286	1	main_slash	11	advance_on_keypress_SLASH	152	stimuli_distractor_trianglediamonds.svg	stimuli_target_squaretriangles.svg	11	yes	57	0	410
6.6.1	win	2022-12-14	14:22:37	14:35:08	747165	5ea3694d838a642e5790ec0a	843890286	1	main_slash	11	main_slash	153	stimuli_distractor_trianglediamonds.svg	stimuli_target_diamondsquares.svg	28	yes	53	1	1333
6.6.1	win	2022-12-14	14:22:37	14:35:08	747165	5ea3694d838a642e5790ec0a	843890286	1	main_slash	11	advance_on_keypress_SLASH	154	stimuli_distractor_trianglediamonds.svg	stimuli_target_diamondsquares.svg	28	yes	57	0	388
6.6.1	win	2022-12-14	14:22:37	14:35:11	750231	5ea3694d838a642e5790ec0a	843890286	1	main_slash	11	main_slash	155	stimuli_distractor_diamondtriangles.svg	stimuli_distractor_diamondtriangles.svg	39	no	0	1	2000
6.6.1	win	2022-12-14	14:22:37	14:35:11	750231	5ea3694d838a642e5790ec0a	843890286	1	main_slash	11	advance_on_keypress_SLASH	156	stimuli_distractor_diamondtriangles.svg	stimuli_distractor_diamondtriangles.svg	39	no	57	0	309
6.6.1	win	2022-12-14	14:22:37	14:35:13	751990	5ea3694d838a642e5790ec0a	843890286	1	main_slash	11	main_slash	157	stimuli_distractor_diamondtriangles.svg	stimuli_target_diamondsquares.svg	32	yes	53	1	778
6.6.1	win	2022-12-14	14:22:37	14:35:13	751990	5ea3694d838a642e5790ec0a	843890286	1	main_slash	11	advance_on_keypress_SLASH	158	stimuli_distractor_diamondtriangles.svg	stimuli_target_diamondsquares.svg	32	yes	57	0	377
6.6.1	win	2022-12-14	14:22:37	14:35:15	753785	5ea3694d838a642e5790ec0a	843890286	1	main_slash	11	main_slash	159	stimuli_target_squarediamonds.svg	stimuli_distractor_trianglediamonds.svg	4	yes	53	1	738
6.6.1	win	2022-12-14	14:22:37	14:35:15	753785	5ea3694d838a642e5790ec0a	843890286	1	main_slash	11	advance_on_keypress_SLASH	160	stimuli_target_squarediamonds.svg	stimuli_distractor_trianglediamonds.svg	4	yes	57	0	387