build	computer.platform	date	time	timestamp	time_elapsed_ms	subject	group	session	blockcode	blocknum	trialcode	trialnum	stimulus_left	stimulus_right	stim_index	target_present	response	correct	latency
6.6.1	and	2022-12-14	13:27:57	13:30:58	167620	5e6813ada1c2de09bc51d9b2	819284958	1	practice_z	5	practice_z	1	stimuli_distractor_diamondtriangles.svg	stimuli_target_trianglecircles.svg	9	yes	0	0	2000
6.6.1	and	2022-12-14	13:27:57	13:30:58	167620	5e6813ada1c2de09bc51d9b2	819284958	1	practice_z	5	advance_on_keypress_ZEE	2	stimuli_distractor_diamondtriangles.svg	stimuli_target_trianglecircles.svg	9	yes	57	0	1962
6.6.1	and	2022-12-14	13:27:57	13:31:02	172223	5e6813ada1c2de09bc51d9b2	819284958	1	practice_z	5	practice_z	3	stimuli_target_circlediamonds.svg	stimuli_distractor_trianglediamonds.svg	4	yes	44	1	939
6.6.1	and	2022-12-14	13:27:57	13:31:02	172223	5e6813ada1c2de09bc51d9b2	819284958	1	practice_z	5	advance_on_keypress_ZEE	4	stimuli_target_circlediamonds.svg	stimuli_distractor_trianglediamonds.svg	4	yes	57	0	1084
6.6.1	and	2022-12-14	13:27:57	13:31:07	176946	5e6813ada1c2de09bc51d9b2	819284958	1	practice_z	5	practice_z	5	stimuli_distractor_trianglediamonds.svg	stimuli_distractor_diamondtriangles.svg	16	no	0	1	2000
6.6.1	and	2022-12-14	13:27:57	13:31:07	176946	5e6813ada1c2de09bc51d9b2	819284958	1	practice_z	5	advance_on_keypress_ZEE	6	stimuli_distractor_trianglediamonds.svg	stimuli_distractor_diamondtriangles.svg	16	no	57	0	597
6.6.1	and	2022-12-14	13:27:57	13:31:11	181186	5e6813ada1c2de09bc51d9b2	819284958	1	practice_z	5	practice_z	7	stimuli_distractor_trianglediamonds.svg	stimuli_target_squarediamonds.svg	11	yes	0	0	2000
6.6.1	and	2022-12-14	13:27:57	13:31:11	181186	5e6813ada1c2de09bc51d9b2	819284958	1	practice_z	5	advance_on_keypress_ZEE	8	stimuli_distractor_trianglediamonds.svg	stimuli_target_squarediamonds.svg	11	yes	57	0	797
6.6.1	and	2022-12-14	13:27:57	13:31:16	185636	5e6813ada1c2de09bc51d9b2	819284958	1	practice_z	5	practice_z	9	stimuli_distractor_trianglediamonds.svg	stimuli_target_diamondcircles.svg	12	yes	0	0	2000
6.6.1	and	2022-12-14	13:27:57	13:31:16	185636	5e6813ada1c2de09bc51d9b2	819284958	1	practice_z	5	advance_on_keypress_ZEE	10	stimuli_distractor_trianglediamonds.svg	stimuli_target_diamondcircles.svg	12	yes	57	0	685
6.6.1	and	2022-12-14	13:27:57	13:31:19	189367	5e6813ada1c2de09bc51d9b2	819284958	1	practice_z	5	practice_z	11	stimuli_distractor_diamondtriangles.svg	stimuli_target_diamondcircles.svg	8	yes	44	1	1384
6.6.1	and	2022-12-14	13:27:57	13:31:19	189367	5e6813ada1c2de09bc51d9b2	819284958	1	practice_z	5	advance_on_keypress_ZEE	12	stimuli_distractor_diamondtriangles.svg	stimuli_target_diamondcircles.svg	8	yes	57	0	673
6.6.1	and	2022-12-14	13:27:57	13:31:23	192772	5e6813ada1c2de09bc51d9b2	819284958	1	practice_z	5	practice_z	13	stimuli_target_diamondsquares.svg	stimuli_distractor_trianglediamonds.svg	6	yes	44	1	1044
6.6.1	and	2022-12-14	13:27:57	13:31:23	192772	5e6813ada1c2de09bc51d9b2	819284958	1	practice_z	5	advance_on_keypress_ZEE	14	stimuli_target_diamondsquares.svg	stimuli_distractor_trianglediamonds.svg	6	yes	57	0	1253
6.6.1	and	2022-12-14	13:27:57	13:31:28	197687	5e6813ada1c2de09bc51d9b2	819284958	1	practice_z	5	practice_z	15	stimuli_distractor_diamondtriangles.svg	stimuli_distractor_trianglediamonds.svg	14	no	0	1	2000
6.6.1	and	2022-12-14	13:27:57	13:31:28	197687	5e6813ada1c2de09bc51d9b2	819284958	1	practice_z	5	advance_on_keypress_ZEE	16	stimuli_distractor_diamondtriangles.svg	stimuli_distractor_trianglediamonds.svg	14	no	57	0	1025
6.6.1	and	2022-12-14	13:27:57	13:31:32	202369	5e6813ada1c2de09bc51d9b2	819284958	1	practice_z	5	practice_z	17	stimuli_target_squarediamonds.svg	stimuli_distractor_diamondtriangles.svg	2	yes	0	0	2000
6.6.1	and	2022-12-14	13:27:57	13:31:32	202369	5e6813ada1c2de09bc51d9b2	819284958	1	practice_z	5	advance_on_keypress_ZEE	18	stimuli_target_squarediamonds.svg	stimuli_distractor_diamondtriangles.svg	2	yes	57	0	2045
6.6.1	and	2022-12-14	13:27:57	13:31:38	208068	5e6813ada1c2de09bc51d9b2	819284958	1	practice_z	5	practice_z	19	stimuli_distractor_trianglediamonds.svg	stimuli_distractor_trianglediamonds.svg	15	no	0	1	2000
6.6.1	and	2022-12-14	13:27:57	13:31:38	208068	5e6813ada1c2de09bc51d9b2	819284958	1	practice_z	5	advance_on_keypress_ZEE	20	stimuli_distractor_trianglediamonds.svg	stimuli_distractor_trianglediamonds.svg	15	no	57	0	621
6.6.1	and	2022-12-14	13:27:57	13:31:42	212338	5e6813ada1c2de09bc51d9b2	819284958	1	practice_z	5	practice_z	21	stimuli_distractor_diamondtriangles.svg	stimuli_distractor_diamondtriangles.svg	13	no	0	1	2000
6.6.1	and	2022-12-14	13:27:57	13:31:42	212338	5e6813ada1c2de09bc51d9b2	819284958	1	practice_z	5	advance_on_keypress_ZEE	22	stimuli_distractor_diamondtriangles.svg	stimuli_distractor_diamondtriangles.svg	13	no	57	0	770
6.6.1	and	2022-12-14	13:27:57	13:31:46	215463	5e6813ada1c2de09bc51d9b2	819284958	1	practice_z	5	practice_z	23	stimuli_distractor_diamondtriangles.svg	stimuli_target_circletriangles.svg	7	yes	44	1	700
6.6.1	and	2022-12-14	13:27:57	13:31:46	215463	5e6813ada1c2de09bc51d9b2	819284958	1	practice_z	5	advance_on_keypress_ZEE	24	stimuli_distractor_diamondtriangles.svg	stimuli_target_circletriangles.svg	7	yes	57	0	615
6.6.1	and	2022-12-14	13:27:57	13:31:49	218537	5e6813ada1c2de09bc51d9b2	819284958	1	practice_z	5	practice_z	25	stimuli_target_squarediamonds.svg	stimuli_distractor_trianglediamonds.svg	5	yes	44	1	820
6.6.1	and	2022-12-14	13:27:57	13:31:49	218537	5e6813ada1c2de09bc51d9b2	819284958	1	practice_z	5	advance_on_keypress_ZEE	26	stimuli_target_squarediamonds.svg	stimuli_distractor_trianglediamonds.svg	5	yes	57	0	671
6.6.1	and	2022-12-14	13:27:57	13:31:52	221748	5e6813ada1c2de09bc51d9b2	819284958	1	practice_z	5	practice_z	27	stimuli_distractor_trianglediamonds.svg	stimuli_target_circlediamonds.svg	10	yes	44	1	897
6.6.1	and	2022-12-14	13:27:57	13:31:52	221748	5e6813ada1c2de09bc51d9b2	819284958	1	practice_z	5	advance_on_keypress_ZEE	28	stimuli_distractor_trianglediamonds.svg	stimuli_target_circlediamonds.svg	10	yes	57	0	666
6.6.1	and	2022-12-14	13:27:57	13:31:55	224896	5e6813ada1c2de09bc51d9b2	819284958	1	practice_z	5	practice_z	29	stimuli_target_diamondsquares.svg	stimuli_distractor_diamondtriangles.svg	3	yes	44	1	848
6.6.1	and	2022-12-14	13:27:57	13:31:55	224896	5e6813ada1c2de09bc51d9b2	819284958	1	practice_z	5	advance_on_keypress_ZEE	30	stimuli_target_diamondsquares.svg	stimuli_distractor_diamondtriangles.svg	3	yes	57	0	668
6.6.1	and	2022-12-14	13:27:57	13:31:58	228054	5e6813ada1c2de09bc51d9b2	819284958	1	practice_z	5	practice_z	31	stimuli_target_circlediamonds.svg	stimuli_distractor_diamondtriangles.svg	1	yes	44	1	852
6.6.1	and	2022-12-14	13:27:57	13:31:58	228054	5e6813ada1c2de09bc51d9b2	819284958	1	practice_z	5	advance_on_keypress_ZEE	32	stimuli_target_circlediamonds.svg	stimuli_distractor_diamondtriangles.svg	1	yes	57	0	530
6.6.1	and	2022-12-14	13:27:57	13:32:07	236999	5e6813ada1c2de09bc51d9b2	819284958	1	main_z	7	main_z	1	stimuli_target_circlediamonds.svg	stimuli_distractor_trianglediamonds.svg	2	yes	44	1	768
6.6.1	and	2022-12-14	13:27:57	13:32:07	236999	5e6813ada1c2de09bc51d9b2	819284958	1	main_z	7	advance_on_keypress_ZEE	2	stimuli_target_circlediamonds.svg	stimuli_distractor_trianglediamonds.svg	2	yes	57	0	996
6.6.1	and	2022-12-14	13:27:57	13:32:11	240678	5e6813ada1c2de09bc51d9b2	819284958	1	main_z	7	main_z	3	stimuli_distractor_diamondtriangles.svg	stimuli_distractor_trianglediamonds.svg	37	no	0	1	2000
6.6.1	and	2022-12-14	13:27:57	13:32:11	240678	5e6813ada1c2de09bc51d9b2	819284958	1	main_z	7	advance_on_keypress_ZEE	4	stimuli_distractor_diamondtriangles.svg	stimuli_distractor_trianglediamonds.svg	37	no	57	0	609
6.6.1	and	2022-12-14	13:27:57	13:32:14	243927	5e6813ada1c2de09bc51d9b2	819284958	1	main_z	7	main_z	5	stimuli_distractor_diamondtriangles.svg	stimuli_distractor_diamondtriangles.svg	40	no	44	0	1998
6.6.1	and	2022-12-14	13:27:57	13:32:14	243927	5e6813ada1c2de09bc51d9b2	819284958	1	main_z	7	advance_on_keypress_ZEE	6	stimuli_distractor_diamondtriangles.svg	stimuli_distractor_diamondtriangles.svg	40	no	57	0	875
6.6.1	and	2022-12-14	13:27:57	13:32:17	247446	5e6813ada1c2de09bc51d9b2	819284958	1	main_z	7	main_z	7	stimuli_distractor_trianglediamonds.svg	stimuli_distractor_trianglediamonds.svg	34	no	0	1	2000
6.6.1	and	2022-12-14	13:27:57	13:32:17	247446	5e6813ada1c2de09bc51d9b2	819284958	1	main_z	7	advance_on_keypress_ZEE	8	stimuli_distractor_trianglediamonds.svg	stimuli_distractor_trianglediamonds.svg	34	no	57	0	884
6.6.1	and	2022-12-14	13:27:57	13:32:21	250965	5e6813ada1c2de09bc51d9b2	819284958	1	main_z	7	main_z	9	stimuli_target_squarediamonds.svg	stimuli_distractor_trianglediamonds.svg	4	yes	0	0	2000
6.6.1	and	2022-12-14	13:27:57	13:32:21	250965	5e6813ada1c2de09bc51d9b2	819284958	1	main_z	7	advance_on_keypress_ZEE	10	stimuli_target_squarediamonds.svg	stimuli_distractor_trianglediamonds.svg	4	yes	57	0	1110
6.6.1	and	2022-12-14	13:27:57	13:32:24	254055	5e6813ada1c2de09bc51d9b2	819284958	1	main_z	7	main_z	11	stimuli_target_diamondsquares.svg	stimuli_distractor_trianglediamonds.svg	20	yes	44	1	1341
6.6.1	and	2022-12-14	13:27:57	13:32:24	254055	5e6813ada1c2de09bc51d9b2	819284958	1	main_z	7	advance_on_keypress_ZEE	12	stimuli_target_diamondsquares.svg	stimuli_distractor_trianglediamonds.svg	20	yes	57	0	1610
6.6.1	and	2022-12-14	13:27:57	13:32:27	257144	5e6813ada1c2de09bc51d9b2	819284958	1	main_z	7	main_z	13	stimuli_target_trianglecircles.svg	stimuli_distractor_diamondtriangles.svg	21	yes	44	1	829
6.6.1	and	2022-12-14	13:27:57	13:32:27	257144	5e6813ada1c2de09bc51d9b2	819284958	1	main_z	7	advance_on_keypress_ZEE	14	stimuli_target_trianglecircles.svg	stimuli_distractor_diamondtriangles.svg	21	yes	57	0	1285
6.6.1	and	2022-12-14	13:27:57	13:32:30	259895	5e6813ada1c2de09bc51d9b2	819284958	1	main_z	7	main_z	15	stimuli_target_circletriangles.svg	stimuli_distractor_diamondtriangles.svg	5	yes	44	1	831
6.6.1	and	2022-12-14	13:27:57	13:32:30	259895	5e6813ada1c2de09bc51d9b2	819284958	1	main_z	7	advance_on_keypress_ZEE	16	stimuli_target_circletriangles.svg	stimuli_distractor_diamondtriangles.svg	5	yes	57	0	1202
6.6.1	and	2022-12-14	13:27:57	13:32:33	262593	5e6813ada1c2de09bc51d9b2	819284958	1	main_z	7	main_z	17	stimuli_distractor_trianglediamonds.svg	stimuli_target_trianglecircles.svg	25	yes	44	1	846
6.6.1	and	2022-12-14	13:27:57	13:32:33	262593	5e6813ada1c2de09bc51d9b2	819284958	1	main_z	7	advance_on_keypress_ZEE	18	stimuli_distractor_trianglediamonds.svg	stimuli_target_trianglecircles.svg	25	yes	57	0	598
6.6.1	and	2022-12-14	13:27:57	13:32:36	265848	5e6813ada1c2de09bc51d9b2	819284958	1	main_z	7	main_z	19	stimuli_distractor_trianglediamonds.svg	stimuli_distractor_trianglediamonds.svg	33	no	0	1	2000
6.6.1	and	2022-12-14	13:27:57	13:32:36	265848	5e6813ada1c2de09bc51d9b2	819284958	1	main_z	7	advance_on_keypress_ZEE	20	stimuli_distractor_trianglediamonds.svg	stimuli_distractor_trianglediamonds.svg	33	no	57	0	622
6.6.1	and	2022-12-14	13:27:57	13:32:38	267787	5e6813ada1c2de09bc51d9b2	819284958	1	main_z	7	main_z	21	stimuli_distractor_diamondtriangles.svg	stimuli_target_circletriangles.svg	13	yes	44	1	671
6.6.1	and	2022-12-14	13:27:57	13:32:38	267787	5e6813ada1c2de09bc51d9b2	819284958	1	main_z	7	advance_on_keypress_ZEE	22	stimuli_distractor_diamondtriangles.svg	stimuli_target_circletriangles.svg	13	yes	57	0	937
6.6.1	and	2022-12-14	13:27:57	13:32:41	271383	5e6813ada1c2de09bc51d9b2	819284958	1	main_z	7	main_z	23	stimuli_target_squarediamonds.svg	stimuli_distractor_diamondtriangles.svg	8	yes	0	0	2000
6.6.1	and	2022-12-14	13:27:57	13:32:41	271383	5e6813ada1c2de09bc51d9b2	819284958	1	main_z	7	advance_on_keypress_ZEE	24	stimuli_target_squarediamonds.svg	stimuli_distractor_diamondtriangles.svg	8	yes	57	0	664
6.6.1	and	2022-12-14	13:27:57	13:32:44	273509	5e6813ada1c2de09bc51d9b2	819284958	1	main_z	7	main_z	25	stimuli_target_trianglesquares.svg	stimuli_distractor_diamondtriangles.svg	22	yes	44	1	830
6.6.1	and	2022-12-14	13:27:57	13:32:44	273509	5e6813ada1c2de09bc51d9b2	819284958	1	main_z	7	advance_on_keypress_ZEE	26	stimuli_target_trianglesquares.svg	stimuli_distractor_diamondtriangles.svg	22	yes	57	0	1511
6.6.1	and	2022-12-14	13:27:57	13:32:47	276615	5e6813ada1c2de09bc51d9b2	819284958	1	main_z	7	main_z	27	stimuli_target_circletriangles.svg	stimuli_distractor_trianglediamonds.svg	1	yes	44	1	954
6.6.1	and	2022-12-14	13:27:57	13:32:47	276615	5e6813ada1c2de09bc51d9b2	819284958	1	main_z	7	advance_on_keypress_ZEE	28	stimuli_target_circletriangles.svg	stimuli_distractor_trianglediamonds.svg	1	yes	57	0	1510
6.6.1	and	2022-12-14	13:27:57	13:32:50	279638	5e6813ada1c2de09bc51d9b2	819284958	1	main_z	7	main_z	29	stimuli_distractor_trianglediamonds.svg	stimuli_target_circletriangles.svg	9	yes	44	1	876
6.6.1	and	2022-12-14	13:27:57	13:32:50	279638	5e6813ada1c2de09bc51d9b2	819284958	1	main_z	7	advance_on_keypress_ZEE	30	stimuli_distractor_trianglediamonds.svg	stimuli_target_circletriangles.svg	9	yes	57	0	967
6.6.1	and	2022-12-14	13:27:57	13:32:53	283057	5e6813ada1c2de09bc51d9b2	819284958	1	main_z	7	main_z	31	stimuli_distractor_trianglediamonds.svg	stimuli_target_squaretriangles.svg	11	yes	44	1	1791
6.6.1	and	2022-12-14	13:27:57	13:32:53	283057	5e6813ada1c2de09bc51d9b2	819284958	1	main_z	7	advance_on_keypress_ZEE	32	stimuli_distractor_trianglediamonds.svg	stimuli_target_squaretriangles.svg	11	yes	57	0	652
6.6.1	and	2022-12-14	13:27:57	13:32:56	285859	5e6813ada1c2de09bc51d9b2	819284958	1	main_z	7	main_z	33	stimuli_target_diamondcircles.svg	stimuli_distractor_diamondtriangles.svg	23	yes	44	1	1496
6.6.1	and	2022-12-14	13:27:57	13:32:56	285859	5e6813ada1c2de09bc51d9b2	819284958	1	main_z	7	advance_on_keypress_ZEE	34	stimuli_target_diamondcircles.svg	stimuli_distractor_diamondtriangles.svg	23	yes	57	0	552
6.6.1	and	2022-12-14	13:27:57	13:32:58	287997	5e6813ada1c2de09bc51d9b2	819284958	1	main_z	7	main_z	35	stimuli_distractor_diamondtriangles.svg	stimuli_target_trianglesquares.svg	30	yes	44	1	933
6.6.1	and	2022-12-14	13:27:57	13:32:58	287997	5e6813ada1c2de09bc51d9b2	819284958	1	main_z	7	advance_on_keypress_ZEE	36	stimuli_distractor_diamondtriangles.svg	stimuli_target_trianglesquares.svg	30	yes	57	0	522
6.6.1	and	2022-12-14	13:27:57	13:33:00	290123	5e6813ada1c2de09bc51d9b2	819284958	1	main_z	7	main_z	37	stimuli_distractor_diamondtriangles.svg	stimuli_target_diamondsquares.svg	32	yes	44	1	944
6.6.1	and	2022-12-14	13:27:57	13:33:00	290123	5e6813ada1c2de09bc51d9b2	819284958	1	main_z	7	advance_on_keypress_ZEE	38	stimuli_distractor_diamondtriangles.svg	stimuli_target_diamondsquares.svg	32	yes	57	0	597
6.6.1	and	2022-12-14	13:27:57	13:33:02	292426	5e6813ada1c2de09bc51d9b2	819284958	1	main_z	7	main_z	39	stimuli_distractor_diamondtriangles.svg	stimuli_target_squaretriangles.svg	15	yes	44	1	1060
6.6.1	and	2022-12-14	13:27:57	13:33:02	292426	5e6813ada1c2de09bc51d9b2	819284958	1	main_z	7	advance_on_keypress_ZEE	40	stimuli_distractor_diamondtriangles.svg	stimuli_target_squaretriangles.svg	15	yes	57	0	620
6.6.1	and	2022-12-14	13:27:57	13:33:05	294897	5e6813ada1c2de09bc51d9b2	819284958	1	main_z	7	main_z	41	stimuli_target_diamondsquares.svg	stimuli_distractor_diamondtriangles.svg	24	yes	44	1	1200
6.6.1	and	2022-12-14	13:27:57	13:33:05	294897	5e6813ada1c2de09bc51d9b2	819284958	1	main_z	7	advance_on_keypress_ZEE	42	stimuli_target_diamondsquares.svg	stimuli_distractor_diamondtriangles.svg	24	yes	57	0	913
6.6.1	and	2022-12-14	13:27:57	13:33:07	297335	5e6813ada1c2de09bc51d9b2	819284958	1	main_z	7	main_z	43	stimuli_distractor_diamondtriangles.svg	stimuli_target_trianglecircles.svg	29	yes	44	1	889
6.6.1	and	2022-12-14	13:27:57	13:33:07	297335	5e6813ada1c2de09bc51d9b2	819284958	1	main_z	7	advance_on_keypress_ZEE	44	stimuli_distractor_diamondtriangles.svg	stimuli_target_trianglecircles.svg	29	yes	57	0	752
6.6.1	and	2022-12-14	13:27:57	13:33:10	299657	5e6813ada1c2de09bc51d9b2	819284958	1	main_z	7	main_z	45	stimuli_distractor_diamondtriangles.svg	stimuli_target_circlediamonds.svg	14	yes	44	1	926
6.6.1	and	2022-12-14	13:27:57	13:33:10	299657	5e6813ada1c2de09bc51d9b2	819284958	1	main_z	7	advance_on_keypress_ZEE	46	stimuli_distractor_diamondtriangles.svg	stimuli_target_circlediamonds.svg	14	yes	57	0	849
6.6.1	and	2022-12-14	13:27:57	13:33:13	303148	5e6813ada1c2de09bc51d9b2	819284958	1	main_z	7	main_z	47	stimuli_distractor_trianglediamonds.svg	stimuli_distractor_diamondtriangles.svg	35	no	0	1	2000
6.6.1	and	2022-12-14	13:27:57	13:33:13	303148	5e6813ada1c2de09bc51d9b2	819284958	1	main_z	7	advance_on_keypress_ZEE	48	stimuli_distractor_trianglediamonds.svg	stimuli_distractor_diamondtriangles.svg	35	no	57	0	1532
6.6.1	and	2022-12-14	13:27:57	13:33:16	306213	5e6813ada1c2de09bc51d9b2	819284958	1	main_z	7	main_z	49	stimuli_target_trianglecircles.svg	stimuli_distractor_trianglediamonds.svg	17	yes	44	1	900
6.6.1	and	2022-12-14	13:27:57	13:33:16	306213	5e6813ada1c2de09bc51d9b2	819284958	1	main_z	7	advance_on_keypress_ZEE	50	stimuli_target_trianglecircles.svg	stimuli_distractor_trianglediamonds.svg	17	yes	57	0	1014
6.6.1	and	2022-12-14	13:27:57	13:33:19	308804	5e6813ada1c2de09bc51d9b2	819284958	1	main_z	7	main_z	51	stimuli_distractor_trianglediamonds.svg	stimuli_target_diamondsquares.svg	28	yes	44	1	941
6.6.1	and	2022-12-14	13:27:57	13:33:19	308804	5e6813ada1c2de09bc51d9b2	819284958	1	main_z	7	advance_on_keypress_ZEE	52	stimuli_distractor_trianglediamonds.svg	stimuli_target_diamondsquares.svg	28	yes	57	0	501
6.6.1	and	2022-12-14	13:27:57	13:33:22	311947	5e6813ada1c2de09bc51d9b2	819284958	1	main_z	7	main_z	53	stimuli_distractor_diamondtriangles.svg	stimuli_distractor_trianglediamonds.svg	38	no	0	1	2000
6.6.1	and	2022-12-14	13:27:57	13:33:22	311947	5e6813ada1c2de09bc51d9b2	819284958	1	main_z	7	advance_on_keypress_ZEE	54	stimuli_distractor_diamondtriangles.svg	stimuli_distractor_trianglediamonds.svg	38	no	57	0	993
6.6.1	and	2022-12-14	13:27:57	13:33:25	315414	5e6813ada1c2de09bc51d9b2	819284958	1	main_z	7	main_z	55	stimuli_distractor_diamondtriangles.svg	stimuli_target_squarediamonds.svg	16	yes	44	1	1834
6.6.1	and	2022-12-14	13:27:57	13:33:25	315414	5e6813ada1c2de09bc51d9b2	819284958	1	main_z	7	advance_on_keypress_ZEE	56	stimuli_distractor_diamondtriangles.svg	stimuli_target_squarediamonds.svg	16	yes	57	0	667
6.6.1	and	2022-12-14	13:27:57	13:33:29	318714	5e6813ada1c2de09bc51d9b2	819284958	1	main_z	7	main_z	57	stimuli_distractor_diamondtriangles.svg	stimuli_distractor_diamondtriangles.svg	39	no	0	1	2000
6.6.1	and	2022-12-14	13:27:57	13:33:29	318714	5e6813ada1c2de09bc51d9b2	819284958	1	main_z	7	advance_on_keypress_ZEE	58	stimuli_distractor_diamondtriangles.svg	stimuli_distractor_diamondtriangles.svg	39	no	57	0	1108
6.6.1	and	2022-12-14	13:27:57	13:33:31	321346	5e6813ada1c2de09bc51d9b2	819284958	1	main_z	7	main_z	59	stimuli_distractor_trianglediamonds.svg	stimuli_target_diamondcircles.svg	27	yes	44	1	880
6.6.1	and	2022-12-14	13:27:57	13:33:31	321346	5e6813ada1c2de09bc51d9b2	819284958	1	main_z	7	advance_on_keypress_ZEE	60	stimuli_distractor_trianglediamonds.svg	stimuli_target_diamondcircles.svg	27	yes	57	0	948
6.6.1	and	2022-12-14	13:27:57	13:33:34	323997	5e6813ada1c2de09bc51d9b2	819284958	1	main_z	7	main_z	61	stimuli_target_squaretriangles.svg	stimuli_distractor_diamondtriangles.svg	7	yes	44	1	1069
6.6.1	and	2022-12-14	13:27:57	13:33:34	323997	5e6813ada1c2de09bc51d9b2	819284958	1	main_z	7	advance_on_keypress_ZEE	62	stimuli_target_squaretriangles.svg	stimuli_distractor_diamondtriangles.svg	7	yes	57	0	730
6.6.1	and	2022-12-14	13:27:57	13:33:37	326908	5e6813ada1c2de09bc51d9b2	819284958	1	main_z	7	main_z	63	stimuli_target_trianglesquares.svg	stimuli_distractor_trianglediamonds.svg	18	yes	44	1	1523
6.6.1	and	2022-12-14	13:27:57	13:33:37	326908	5e6813ada1c2de09bc51d9b2	819284958	1	main_z	7	advance_on_keypress_ZEE	64	stimuli_target_trianglesquares.svg	stimuli_distractor_trianglediamonds.svg	18	yes	57	0	453
6.6.1	and	2022-12-14	13:27:57	13:33:40	329800	5e6813ada1c2de09bc51d9b2	819284958	1	main_z	7	main_z	65	stimuli_distractor_trianglediamonds.svg	stimuli_target_squarediamonds.svg	12	yes	44	1	1802
6.6.1	and	2022-12-14	13:27:57	13:33:40	329800	5e6813ada1c2de09bc51d9b2	819284958	1	main_z	7	advance_on_keypress_ZEE	66	stimuli_distractor_trianglediamonds.svg	stimuli_target_squarediamonds.svg	12	yes	57	0	905
6.6.1	and	2022-12-14	13:27:57	13:33:42	332283	5e6813ada1c2de09bc51d9b2	819284958	1	main_z	7	main_z	67	stimuli_distractor_diamondtriangles.svg	stimuli_target_diamondcircles.svg	31	yes	44	1	919
6.6.1	and	2022-12-14	13:27:57	13:33:42	332283	5e6813ada1c2de09bc51d9b2	819284958	1	main_z	7	advance_on_keypress_ZEE	68	stimuli_distractor_diamondtriangles.svg	stimuli_target_diamondcircles.svg	31	yes	57	0	584
6.6.1	and	2022-12-14	13:27:57	13:33:44	334323	5e6813ada1c2de09bc51d9b2	819284958	1	main_z	7	main_z	69	stimuli_distractor_trianglediamonds.svg	stimuli_target_trianglesquares.svg	26	yes	44	1	822
6.6.1	and	2022-12-14	13:27:57	13:33:44	334323	5e6813ada1c2de09bc51d9b2	819284958	1	main_z	7	advance_on_keypress_ZEE	70	stimuli_distractor_trianglediamonds.svg	stimuli_target_trianglesquares.svg	26	yes	57	0	842
6.6.1	and	2022-12-14	13:27:57	13:33:47	336809	5e6813ada1c2de09bc51d9b2	819284958	1	main_z	7	main_z	71	stimuli_distractor_trianglediamonds.svg	stimuli_target_circlediamonds.svg	10	yes	44	1	987
6.6.1	and	2022-12-14	13:27:57	13:33:47	336809	5e6813ada1c2de09bc51d9b2	819284958	1	main_z	7	advance_on_keypress_ZEE	72	stimuli_distractor_trianglediamonds.svg	stimuli_target_circlediamonds.svg	10	yes	57	0	1089
6.6.1	and	2022-12-14	13:27:57	13:33:50	339513	5e6813ada1c2de09bc51d9b2	819284958	1	main_z	7	main_z	73	stimuli_target_diamondcircles.svg	stimuli_distractor_trianglediamonds.svg	19	yes	44	1	967
6.6.1	and	2022-12-14	13:27:57	13:33:50	339513	5e6813ada1c2de09bc51d9b2	819284958	1	main_z	7	advance_on_keypress_ZEE	74	stimuli_target_diamondcircles.svg	stimuli_distractor_trianglediamonds.svg	19	yes	57	0	629
6.6.1	and	2022-12-14	13:27:57	13:33:53	342783	5e6813ada1c2de09bc51d9b2	819284958	1	main_z	7	main_z	75	stimuli_distractor_trianglediamonds.svg	stimuli_distractor_diamondtriangles.svg	36	no	0	1	2000
6.6.1	and	2022-12-14	13:27:57	13:33:53	342783	5e6813ada1c2de09bc51d9b2	819284958	1	main_z	7	advance_on_keypress_ZEE	76	stimuli_distractor_trianglediamonds.svg	stimuli_distractor_diamondtriangles.svg	36	no	57	0	655
6.6.1	and	2022-12-14	13:27:57	13:33:55	345128	5e6813ada1c2de09bc51d9b2	819284958	1	main_z	7	main_z	77	stimuli_target_circlediamonds.svg	stimuli_distractor_diamondtriangles.svg	6	yes	44	1	1046
6.6.1	and	2022-12-14	13:27:57	13:33:55	345128	5e6813ada1c2de09bc51d9b2	819284958	1	main_z	7	advance_on_keypress_ZEE	78	stimuli_target_circlediamonds.svg	stimuli_distractor_diamondtriangles.svg	6	yes	57	0	2309
6.6.1	and	2022-12-14	13:27:57	13:33:59	349092	5e6813ada1c2de09bc51d9b2	819284958	1	main_z	7	main_z	79	stimuli_target_squaretriangles.svg	stimuli_distractor_trianglediamonds.svg	3	yes	44	1	1009
6.6.1	and	2022-12-14	13:27:57	13:33:59	349092	5e6813ada1c2de09bc51d9b2	819284958	1	main_z	7	advance_on_keypress_ZEE	80	stimuli_target_squaretriangles.svg	stimuli_distractor_trianglediamonds.svg	3	yes	57	0	507
6.6.1	and	2022-12-14	13:27:57	13:34:02	351831	5e6813ada1c2de09bc51d9b2	819284958	1	main_z	7	main_z	81	stimuli_distractor_trianglediamonds.svg	stimuli_target_squarediamonds.svg	12	yes	44	1	1578
6.6.1	and	2022-12-14	13:27:57	13:34:02	351831	5e6813ada1c2de09bc51d9b2	819284958	1	main_z	7	advance_on_keypress_ZEE	82	stimuli_distractor_trianglediamonds.svg	stimuli_target_squarediamonds.svg	12	yes	57	0	484
6.6.1	and	2022-12-14	13:27:57	13:34:05	354876	5e6813ada1c2de09bc51d9b2	819284958	1	main_z	7	main_z	83	stimuli_target_diamondsquares.svg	stimuli_distractor_diamondtriangles.svg	24	yes	44	1	1924
6.6.1	and	2022-12-14	13:27:57	13:34:05	354876	5e6813ada1c2de09bc51d9b2	819284958	1	main_z	7	advance_on_keypress_ZEE	84	stimuli_target_diamondsquares.svg	stimuli_distractor_diamondtriangles.svg	24	yes	57	0	527
6.6.1	and	2022-12-14	13:27:57	13:34:07	357075	5e6813ada1c2de09bc51d9b2	819284958	1	main_z	7	main_z	85	stimuli_distractor_trianglediamonds.svg	stimuli_target_squaretriangles.svg	11	yes	44	1	1026
6.6.1	and	2022-12-14	13:27:57	13:34:07	357075	5e6813ada1c2de09bc51d9b2	819284958	1	main_z	7	advance_on_keypress_ZEE	86	stimuli_distractor_trianglediamonds.svg	stimuli_target_squaretriangles.svg	11	yes	57	0	535
6.6.1	and	2022-12-14	13:27:57	13:34:09	359213	5e6813ada1c2de09bc51d9b2	819284958	1	main_z	7	main_z	87	stimuli_distractor_diamondtriangles.svg	stimuli_target_diamondcircles.svg	31	yes	44	1	946
6.6.1	and	2022-12-14	13:27:57	13:34:09	359213	5e6813ada1c2de09bc51d9b2	819284958	1	main_z	7	advance_on_keypress_ZEE	88	stimuli_distractor_diamondtriangles.svg	stimuli_target_diamondcircles.svg	31	yes	57	0	494
6.6.1	and	2022-12-14	13:27:57	13:34:12	362349	5e6813ada1c2de09bc51d9b2	819284958	1	main_z	7	main_z	89	stimuli_distractor_diamondtriangles.svg	stimuli_target_squarediamonds.svg	16	yes	0	0	2000
6.6.1	and	2022-12-14	13:27:57	13:34:12	362349	5e6813ada1c2de09bc51d9b2	819284958	1	main_z	7	advance_on_keypress_ZEE	90	stimuli_distractor_diamondtriangles.svg	stimuli_target_squarediamonds.svg	16	yes	57	0	567
6.6.1	and	2022-12-14	13:27:57	13:34:14	364419	5e6813ada1c2de09bc51d9b2	819284958	1	main_z	7	main_z	91	stimuli_target_circletriangles.svg	stimuli_distractor_diamondtriangles.svg	5	yes	44	1	872
6.6.1	and	2022-12-14	13:27:57	13:34:14	364419	5e6813ada1c2de09bc51d9b2	819284958	1	main_z	7	advance_on_keypress_ZEE	92	stimuli_target_circletriangles.svg	stimuli_distractor_diamondtriangles.svg	5	yes	57	0	609
6.6.1	and	2022-12-14	13:27:57	13:34:17	366618	5e6813ada1c2de09bc51d9b2	819284958	1	main_z	7	main_z	93	stimuli_target_trianglesquares.svg	stimuli_distractor_diamondtriangles.svg	22	yes	44	1	938
6.6.1	and	2022-12-14	13:27:57	13:34:17	366618	5e6813ada1c2de09bc51d9b2	819284958	1	main_z	7	advance_on_keypress_ZEE	94	stimuli_target_trianglesquares.svg	stimuli_distractor_diamondtriangles.svg	22	yes	57	0	618
6.6.1	and	2022-12-14	13:27:57	13:34:20	369864	5e6813ada1c2de09bc51d9b2	819284958	1	main_z	7	main_z	95	stimuli_distractor_diamondtriangles.svg	stimuli_target_squaretriangles.svg	15	yes	0	0	2000
6.6.1	and	2022-12-14	13:27:57	13:34:20	369864	5e6813ada1c2de09bc51d9b2	819284958	1	main_z	7	advance_on_keypress_ZEE	96	stimuli_distractor_diamondtriangles.svg	stimuli_target_squaretriangles.svg	15	yes	57	0	916
6.6.1	and	2022-12-14	13:27:57	13:34:22	372284	5e6813ada1c2de09bc51d9b2	819284958	1	main_z	7	main_z	97	stimuli_distractor_trianglediamonds.svg	stimuli_target_circletriangles.svg	9	yes	44	1	870
6.6.1	and	2022-12-14	13:27:57	13:34:22	372284	5e6813ada1c2de09bc51d9b2	819284958	1	main_z	7	advance_on_keypress_ZEE	98	stimuli_distractor_trianglediamonds.svg	stimuli_target_circletriangles.svg	9	yes	57	0	568
6.6.1	and	2022-12-14	13:27:57	13:34:25	374644	5e6813ada1c2de09bc51d9b2	819284958	1	main_z	7	main_z	99	stimuli_target_trianglecircles.svg	stimuli_distractor_trianglediamonds.svg	17	yes	44	1	1160
6.6.1	and	2022-12-14	13:27:57	13:34:25	374644	5e6813ada1c2de09bc51d9b2	819284958	1	main_z	7	advance_on_keypress_ZEE	100	stimuli_target_trianglecircles.svg	stimuli_distractor_trianglediamonds.svg	17	yes	57	0	472
6.6.1	and	2022-12-14	13:27:57	13:34:27	376725	5e6813ada1c2de09bc51d9b2	819284958	1	main_z	7	main_z	101	stimuli_distractor_trianglediamonds.svg	stimuli_target_circlediamonds.svg	10	yes	44	1	962
6.6.1	and	2022-12-14	13:27:57	13:34:27	376725	5e6813ada1c2de09bc51d9b2	819284958	1	main_z	7	advance_on_keypress_ZEE	102	stimuli_distractor_trianglediamonds.svg	stimuli_target_circlediamonds.svg	10	yes	57	0	525
6.6.1	and	2022-12-14	13:27:57	13:34:29	379080	5e6813ada1c2de09bc51d9b2	819284958	1	main_z	7	main_z	103	stimuli_distractor_diamondtriangles.svg	stimuli_distractor_diamondtriangles.svg	40	no	44	0	1181
6.6.1	and	2022-12-14	13:27:57	13:34:29	379080	5e6813ada1c2de09bc51d9b2	819284958	1	main_z	7	advance_on_keypress_ZEE	104	stimuli_distractor_diamondtriangles.svg	stimuli_distractor_diamondtriangles.svg	40	no	57	0	406
6.6.1	and	2022-12-14	13:27:57	13:34:31	381292	5e6813ada1c2de09bc51d9b2	819284958	1	main_z	7	main_z	105	stimuli_target_circletriangles.svg	stimuli_distractor_trianglediamonds.svg	1	yes	44	1	1159
6.6.1	and	2022-12-14	13:27:57	13:34:31	381292	5e6813ada1c2de09bc51d9b2	819284958	1	main_z	7	advance_on_keypress_ZEE	106	stimuli_target_circletriangles.svg	stimuli_distractor_trianglediamonds.svg	1	yes	57	0	589
6.6.1	and	2022-12-14	13:27:57	13:34:35	384532	5e6813ada1c2de09bc51d9b2	819284958	1	main_z	7	main_z	107	stimuli_distractor_trianglediamonds.svg	stimuli_distractor_diamondtriangles.svg	35	no	0	1	2000
6.6.1	and	2022-12-14	13:27:57	13:34:35	384532	5e6813ada1c2de09bc51d9b2	819284958	1	main_z	7	advance_on_keypress_ZEE	108	stimuli_distractor_trianglediamonds.svg	stimuli_distractor_diamondtriangles.svg	35	no	57	0	1091
6.6.1	and	2022-12-14	13:27:57	13:34:37	387217	5e6813ada1c2de09bc51d9b2	819284958	1	main_z	7	main_z	109	stimuli_distractor_diamondtriangles.svg	stimuli_target_trianglesquares.svg	30	yes	44	1	949
6.6.1	and	2022-12-14	13:27:57	13:34:37	387217	5e6813ada1c2de09bc51d9b2	819284958	1	main_z	7	advance_on_keypress_ZEE	110	stimuli_distractor_diamondtriangles.svg	stimuli_target_trianglesquares.svg	30	yes	57	0	1593
6.6.1	and	2022-12-14	13:27:57	13:34:40	390404	5e6813ada1c2de09bc51d9b2	819284958	1	main_z	7	main_z	111	stimuli_distractor_diamondtriangles.svg	stimuli_target_trianglecircles.svg	29	yes	44	1	955
6.6.1	and	2022-12-14	13:27:57	13:34:40	390404	5e6813ada1c2de09bc51d9b2	819284958	1	main_z	7	advance_on_keypress_ZEE	112	stimuli_distractor_diamondtriangles.svg	stimuli_target_trianglecircles.svg	29	yes	57	0	729
6.6.1	and	2022-12-14	13:27:57	13:34:43	392714	5e6813ada1c2de09bc51d9b2	819284958	1	main_z	7	main_z	113	stimuli_distractor_trianglediamonds.svg	stimuli_target_trianglesquares.svg	26	yes	44	1	932
6.6.1	and	2022-12-14	13:27:57	13:34:43	392714	5e6813ada1c2de09bc51d9b2	819284958	1	main_z	7	advance_on_keypress_ZEE	114	stimuli_distractor_trianglediamonds.svg	stimuli_target_trianglesquares.svg	26	yes	57	0	613
6.6.1	and	2022-12-14	13:27:57	13:34:45	394905	5e6813ada1c2de09bc51d9b2	819284958	1	main_z	7	main_z	115	stimuli_target_squarediamonds.svg	stimuli_distractor_diamondtriangles.svg	8	yes	44	1	942
6.6.1	and	2022-12-14	13:27:57	13:34:45	394905	5e6813ada1c2de09bc51d9b2	819284958	1	main_z	7	advance_on_keypress_ZEE	116	stimuli_target_squarediamonds.svg	stimuli_distractor_diamondtriangles.svg	8	yes	57	0	485
6.6.1	and	2022-12-14	13:27:57	13:34:48	398049	5e6813ada1c2de09bc51d9b2	819284958	1	main_z	7	main_z	117	stimuli_distractor_trianglediamonds.svg	stimuli_distractor_trianglediamonds.svg	33	no	0	1	2000
6.6.1	and	2022-12-14	13:27:57	13:34:48	398049	5e6813ada1c2de09bc51d9b2	819284958	1	main_z	7	advance_on_keypress_ZEE	118	stimuli_distractor_trianglediamonds.svg	stimuli_distractor_trianglediamonds.svg	33	no	57	0	576
6.6.1	and	2022-12-14	13:27:57	13:34:50	400156	5e6813ada1c2de09bc51d9b2	819284958	1	main_z	7	main_z	119	stimuli_target_circlediamonds.svg	stimuli_distractor_diamondtriangles.svg	6	yes	44	1	890
6.6.1	and	2022-12-14	13:27:57	13:34:50	400156	5e6813ada1c2de09bc51d9b2	819284958	1	main_z	7	advance_on_keypress_ZEE	120	stimuli_target_circlediamonds.svg	stimuli_distractor_diamondtriangles.svg	6	yes	57	0	675
6.6.1	and	2022-12-14	13:27:57	13:34:52	402449	5e6813ada1c2de09bc51d9b2	819284958	1	main_z	7	main_z	121	stimuli_target_trianglesquares.svg	stimuli_distractor_trianglediamonds.svg	18	yes	44	1	967
6.6.1	and	2022-12-14	13:27:57	13:34:52	402449	5e6813ada1c2de09bc51d9b2	819284958	1	main_z	7	advance_on_keypress_ZEE	122	stimuli_target_trianglesquares.svg	stimuli_distractor_trianglediamonds.svg	18	yes	57	0	485
6.6.1	and	2022-12-14	13:27:57	13:34:55	404542	5e6813ada1c2de09bc51d9b2	819284958	1	main_z	7	main_z	123	stimuli_target_diamondsquares.svg	stimuli_distractor_trianglediamonds.svg	20	yes	44	1	977
6.6.1	and	2022-12-14	13:27:57	13:34:55	404542	5e6813ada1c2de09bc51d9b2	819284958	1	main_z	7	advance_on_keypress_ZEE	124	stimuli_target_diamondsquares.svg	stimuli_distractor_trianglediamonds.svg	20	yes	57	0	471
6.6.1	and	2022-12-14	13:27:57	13:34:57	406605	5e6813ada1c2de09bc51d9b2	819284958	1	main_z	7	main_z	125	stimuli_distractor_diamondtriangles.svg	stimuli_target_circlediamonds.svg	14	yes	44	1	933
6.6.1	and	2022-12-14	13:27:57	13:34:57	406605	5e6813ada1c2de09bc51d9b2	819284958	1	main_z	7	advance_on_keypress_ZEE	126	stimuli_distractor_diamondtriangles.svg	stimuli_target_circlediamonds.svg	14	yes	57	0	662
6.6.1	and	2022-12-14	13:27:57	13:34:59	408920	5e6813ada1c2de09bc51d9b2	819284958	1	main_z	7	main_z	127	stimuli_target_squaretriangles.svg	stimuli_distractor_diamondtriangles.svg	7	yes	44	1	1004
6.6.1	and	2022-12-14	13:27:57	13:34:59	408920	5e6813ada1c2de09bc51d9b2	819284958	1	main_z	7	advance_on_keypress_ZEE	128	stimuli_target_squaretriangles.svg	stimuli_distractor_diamondtriangles.svg	7	yes	57	0	499
6.6.1	and	2022-12-14	13:27:57	13:35:01	411005	5e6813ada1c2de09bc51d9b2	819284958	1	main_z	7	main_z	129	stimuli_distractor_diamondtriangles.svg	stimuli_target_circletriangles.svg	13	yes	44	1	939
6.6.1	and	2022-12-14	13:27:57	13:35:01	411005	5e6813ada1c2de09bc51d9b2	819284958	1	main_z	7	advance_on_keypress_ZEE	130	stimuli_distractor_diamondtriangles.svg	stimuli_target_circletriangles.svg	13	yes	57	0	475
6.6.1	and	2022-12-14	13:27:57	13:35:04	414133	5e6813ada1c2de09bc51d9b2	819284958	1	main_z	7	main_z	131	stimuli_distractor_trianglediamonds.svg	stimuli_distractor_diamondtriangles.svg	36	no	0	1	2000
6.6.1	and	2022-12-14	13:27:57	13:35:04	414133	5e6813ada1c2de09bc51d9b2	819284958	1	main_z	7	advance_on_keypress_ZEE	132	stimuli_distractor_trianglediamonds.svg	stimuli_distractor_diamondtriangles.svg	36	no	57	0	435
6.6.1	and	2022-12-14	13:27:57	13:35:06	416106	5e6813ada1c2de09bc51d9b2	819284958	1	main_z	7	main_z	133	stimuli_distractor_trianglediamonds.svg	stimuli_target_trianglecircles.svg	25	yes	44	1	903
6.6.1	and	2022-12-14	13:27:57	13:35:06	416106	5e6813ada1c2de09bc51d9b2	819284958	1	main_z	7	advance_on_keypress_ZEE	134	stimuli_distractor_trianglediamonds.svg	stimuli_target_trianglecircles.svg	25	yes	57	0	746
6.6.1	and	2022-12-14	13:27:57	13:35:08	418449	5e6813ada1c2de09bc51d9b2	819284958	1	main_z	7	main_z	135	stimuli_target_squaretriangles.svg	stimuli_distractor_trianglediamonds.svg	3	yes	44	1	949
6.6.1	and	2022-12-14	13:27:57	13:35:08	418449	5e6813ada1c2de09bc51d9b2	819284958	1	main_z	7	advance_on_keypress_ZEE	136	stimuli_target_squaretriangles.svg	stimuli_distractor_trianglediamonds.svg	3	yes	57	0	523
6.6.1	and	2022-12-14	13:27:57	13:35:11	420938	5e6813ada1c2de09bc51d9b2	819284958	1	main_z	7	main_z	137	stimuli_target_diamondcircles.svg	stimuli_distractor_diamondtriangles.svg	23	yes	44	1	1317
6.6.1	and	2022-12-14	13:27:57	13:35:11	420938	5e6813ada1c2de09bc51d9b2	819284958	1	main_z	7	advance_on_keypress_ZEE	138	stimuli_target_diamondcircles.svg	stimuli_distractor_diamondtriangles.svg	23	yes	57	0	396
6.6.1	and	2022-12-14	13:27:57	13:35:13	423160	5e6813ada1c2de09bc51d9b2	819284958	1	main_z	7	main_z	139	stimuli_target_diamondcircles.svg	stimuli_distractor_trianglediamonds.svg	19	yes	44	1	1177
6.6.1	and	2022-12-14	13:27:57	13:35:13	423160	5e6813ada1c2de09bc51d9b2	819284958	1	main_z	7	advance_on_keypress_ZEE	140	stimuli_target_diamondcircles.svg	stimuli_distractor_trianglediamonds.svg	19	yes	57	0	556
6.6.1	and	2022-12-14	13:27:57	13:35:15	425393	5e6813ada1c2de09bc51d9b2	819284958	1	main_z	7	main_z	141	stimuli_target_trianglecircles.svg	stimuli_distractor_diamondtriangles.svg	21	yes	44	1	1022
6.6.1	and	2022-12-14	13:27:57	13:35:15	425393	5e6813ada1c2de09bc51d9b2	819284958	1	main_z	7	advance_on_keypress_ZEE	142	stimuli_target_trianglecircles.svg	stimuli_distractor_diamondtriangles.svg	21	yes	57	0	687
6.6.1	and	2022-12-14	13:27:57	13:35:18	427634	5e6813ada1c2de09bc51d9b2	819284958	1	main_z	7	main_z	143	stimuli_distractor_trianglediamonds.svg	stimuli_target_diamondsquares.svg	28	yes	44	1	901
6.6.1	and	2022-12-14	13:27:57	13:35:18	427634	5e6813ada1c2de09bc51d9b2	819284958	1	main_z	7	advance_on_keypress_ZEE	144	stimuli_distractor_trianglediamonds.svg	stimuli_target_diamondsquares.svg	28	yes	57	0	488
6.6.1	and	2022-12-14	13:27:57	13:35:21	430764	5e6813ada1c2de09bc51d9b2	819284958	1	main_z	7	main_z	145	stimuli_distractor_diamondtriangles.svg	stimuli_distractor_diamondtriangles.svg	39	no	0	1	2000
6.6.1	and	2022-12-14	13:27:57	13:35:21	430764	5e6813ada1c2de09bc51d9b2	819284958	1	main_z	7	advance_on_keypress_ZEE	146	stimuli_distractor_diamondtriangles.svg	stimuli_distractor_diamondtriangles.svg	39	no	57	0	455
6.6.1	and	2022-12-14	13:27:57	13:35:23	432708	5e6813ada1c2de09bc51d9b2	819284958	1	main_z	7	main_z	147	stimuli_distractor_trianglediamonds.svg	stimuli_target_diamondcircles.svg	27	yes	44	1	843
6.6.1	and	2022-12-14	13:27:57	13:35:23	432708	5e6813ada1c2de09bc51d9b2	819284958	1	main_z	7	advance_on_keypress_ZEE	148	stimuli_distractor_trianglediamonds.svg	stimuli_target_diamondcircles.svg	27	yes	57	0	475
6.6.1	and	2022-12-14	13:27:57	13:35:26	435835	5e6813ada1c2de09bc51d9b2	819284958	1	main_z	7	main_z	149	stimuli_distractor_diamondtriangles.svg	stimuli_distractor_trianglediamonds.svg	38	no	0	1	2000
6.6.1	and	2022-12-14	13:27:57	13:35:26	435835	5e6813ada1c2de09bc51d9b2	819284958	1	main_z	7	advance_on_keypress_ZEE	150	stimuli_distractor_diamondtriangles.svg	stimuli_distractor_trianglediamonds.svg	38	no	57	0	952
6.6.1	and	2022-12-14	13:27:57	13:35:29	439434	5e6813ada1c2de09bc51d9b2	819284958	1	main_z	7	main_z	151	stimuli_distractor_trianglediamonds.svg	stimuli_distractor_trianglediamonds.svg	34	no	0	1	2000
6.6.1	and	2022-12-14	13:27:57	13:35:29	439434	5e6813ada1c2de09bc51d9b2	819284958	1	main_z	7	advance_on_keypress_ZEE	152	stimuli_distractor_trianglediamonds.svg	stimuli_distractor_trianglediamonds.svg	34	no	57	0	496
6.6.1	and	2022-12-14	13:27:57	13:35:32	441491	5e6813ada1c2de09bc51d9b2	819284958	1	main_z	7	main_z	153	stimuli_distractor_diamondtriangles.svg	stimuli_target_diamondsquares.svg	32	yes	44	1	925
6.6.1	and	2022-12-14	13:27:57	13:35:32	441491	5e6813ada1c2de09bc51d9b2	819284958	1	main_z	7	advance_on_keypress_ZEE	154	stimuli_distractor_diamondtriangles.svg	stimuli_target_diamondsquares.svg	32	yes	57	0	520
6.6.1	and	2022-12-14	13:27:57	13:35:35	444647	5e6813ada1c2de09bc51d9b2	819284958	1	main_z	7	main_z	155	stimuli_target_squarediamonds.svg	stimuli_distractor_trianglediamonds.svg	4	yes	0	0	2000
6.6.1	and	2022-12-14	13:27:57	13:35:35	444647	5e6813ada1c2de09bc51d9b2	819284958	1	main_z	7	advance_on_keypress_ZEE	156	stimuli_target_squarediamonds.svg	stimuli_distractor_trianglediamonds.svg	4	yes	57	0	874
6.6.1	and	2022-12-14	13:27:57	13:35:37	447128	5e6813ada1c2de09bc51d9b2	819284958	1	main_z	7	main_z	157	stimuli_target_circlediamonds.svg	stimuli_distractor_trianglediamonds.svg	2	yes	44	1	961
6.6.1	and	2022-12-14	13:27:57	13:35:37	447128	5e6813ada1c2de09bc51d9b2	819284958	1	main_z	7	advance_on_keypress_ZEE	158	stimuli_target_circlediamonds.svg	stimuli_distractor_trianglediamonds.svg	2	yes	57	0	471
6.6.1	and	2022-12-14	13:27:57	13:35:40	450254	5e6813ada1c2de09bc51d9b2	819284958	1	main_z	7	main_z	159	stimuli_distractor_diamondtriangles.svg	stimuli_distractor_trianglediamonds.svg	37	no	0	1	2000
6.6.1	and	2022-12-14	13:27:57	13:35:40	450254	5e6813ada1c2de09bc51d9b2	819284958	1	main_z	7	advance_on_keypress_ZEE	160	stimuli_distractor_diamondtriangles.svg	stimuli_distractor_trianglediamonds.svg	37	no	57	0	595
6.6.1	and	2022-12-14	13:27:57	13:36:14	483592	5e6813ada1c2de09bc51d9b2	819284958	1	practice_slash	9	practice_slash	1	stimuli_distractor_diamondtriangles.svg	stimuli_target_trianglecircles.svg	9	yes	53	1	455
6.6.1	and	2022-12-14	13:27:57	13:36:14	483592	5e6813ada1c2de09bc51d9b2	819284958	1	practice_slash	9	advance_on_keypress_SLASH	2	stimuli_distractor_diamondtriangles.svg	stimuli_target_trianglecircles.svg	9	yes	57	0	729
6.6.1	and	2022-12-14	13:27:57	13:36:17	486662	5e6813ada1c2de09bc51d9b2	819284958	1	practice_slash	9	practice_slash	3	stimuli_target_diamondsquares.svg	stimuli_distractor_trianglediamonds.svg	6	yes	53	1	689
6.6.1	and	2022-12-14	13:27:57	13:36:17	486662	5e6813ada1c2de09bc51d9b2	819284958	1	practice_slash	9	advance_on_keypress_SLASH	4	stimuli_target_diamondsquares.svg	stimuli_distractor_trianglediamonds.svg	6	yes	57	0	842
6.6.1	and	2022-12-14	13:27:57	13:36:21	491157	5e6813ada1c2de09bc51d9b2	819284958	1	practice_slash	9	practice_slash	5	stimuli_distractor_trianglediamonds.svg	stimuli_distractor_diamondtriangles.svg	16	no	0	1	2000
6.6.1	and	2022-12-14	13:27:57	13:36:21	491157	5e6813ada1c2de09bc51d9b2	819284958	1	practice_slash	9	advance_on_keypress_SLASH	6	stimuli_distractor_trianglediamonds.svg	stimuli_distractor_diamondtriangles.svg	16	no	57	0	635
6.6.1	and	2022-12-14	13:27:57	13:36:24	494037	5e6813ada1c2de09bc51d9b2	819284958	1	practice_slash	9	practice_slash	7	stimuli_distractor_diamondtriangles.svg	stimuli_target_circletriangles.svg	7	yes	53	1	583
6.6.1	and	2022-12-14	13:27:57	13:36:24	494037	5e6813ada1c2de09bc51d9b2	819284958	1	practice_slash	9	advance_on_keypress_SLASH	8	stimuli_distractor_diamondtriangles.svg	stimuli_target_circletriangles.svg	7	yes	57	0	571
6.6.1	and	2022-12-14	13:27:57	13:36:27	496785	5e6813ada1c2de09bc51d9b2	819284958	1	practice_slash	9	practice_slash	9	stimuli_distractor_trianglediamonds.svg	stimuli_target_circlediamonds.svg	10	yes	53	1	542
6.6.1	and	2022-12-14	13:27:57	13:36:27	496785	5e6813ada1c2de09bc51d9b2	819284958	1	practice_slash	9	advance_on_keypress_SLASH	10	stimuli_distractor_trianglediamonds.svg	stimuli_target_circlediamonds.svg	10	yes	57	0	793
6.6.1	and	2022-12-14	13:27:57	13:36:30	500077	5e6813ada1c2de09bc51d9b2	819284958	1	practice_slash	9	practice_slash	11	stimuli_target_squarediamonds.svg	stimuli_distractor_diamondtriangles.svg	2	yes	53	1	855
6.6.1	and	2022-12-14	13:27:57	13:36:30	500077	5e6813ada1c2de09bc51d9b2	819284958	1	practice_slash	9	advance_on_keypress_SLASH	12	stimuli_target_squarediamonds.svg	stimuli_distractor_diamondtriangles.svg	2	yes	57	0	447
6.6.1	and	2022-12-14	13:27:57	13:36:33	502876	5e6813ada1c2de09bc51d9b2	819284958	1	practice_slash	9	practice_slash	13	stimuli_target_circlediamonds.svg	stimuli_distractor_trianglediamonds.svg	4	yes	53	1	706
6.6.1	and	2022-12-14	13:27:57	13:36:33	502876	5e6813ada1c2de09bc51d9b2	819284958	1	practice_slash	9	advance_on_keypress_SLASH	14	stimuli_target_circlediamonds.svg	stimuli_distractor_trianglediamonds.svg	4	yes	57	0	712
6.6.1	and	2022-12-14	13:27:57	13:36:36	505888	5e6813ada1c2de09bc51d9b2	819284958	1	practice_slash	9	practice_slash	15	stimuli_target_circlediamonds.svg	stimuli_distractor_diamondtriangles.svg	1	yes	53	1	652
6.6.1	and	2022-12-14	13:27:57	13:36:36	505888	5e6813ada1c2de09bc51d9b2	819284958	1	practice_slash	9	advance_on_keypress_SLASH	16	stimuli_target_circlediamonds.svg	stimuli_distractor_diamondtriangles.svg	1	yes	57	0	595
6.6.1	and	2022-12-14	13:27:57	13:36:39	508835	5e6813ada1c2de09bc51d9b2	819284958	1	practice_slash	9	practice_slash	17	stimuli_target_squarediamonds.svg	stimuli_distractor_trianglediamonds.svg	5	yes	53	1	694
6.6.1	and	2022-12-14	13:27:57	13:36:39	508835	5e6813ada1c2de09bc51d9b2	819284958	1	practice_slash	9	advance_on_keypress_SLASH	18	stimuli_target_squarediamonds.svg	stimuli_distractor_trianglediamonds.svg	5	yes	57	0	674
6.6.1	and	2022-12-14	13:27:57	13:36:43	513158	5e6813ada1c2de09bc51d9b2	819284958	1	practice_slash	9	practice_slash	19	stimuli_distractor_trianglediamonds.svg	stimuli_distractor_trianglediamonds.svg	15	no	0	1	2000
6.6.1	and	2022-12-14	13:27:57	13:36:43	513158	5e6813ada1c2de09bc51d9b2	819284958	1	practice_slash	9	advance_on_keypress_SLASH	20	stimuli_distractor_trianglediamonds.svg	stimuli_distractor_trianglediamonds.svg	15	no	57	0	584
6.6.1	and	2022-12-14	13:27:57	13:36:46	516266	5e6813ada1c2de09bc51d9b2	819284958	1	practice_slash	9	practice_slash	21	stimuli_target_diamondsquares.svg	stimuli_distractor_diamondtriangles.svg	3	yes	53	1	874
6.6.1	and	2022-12-14	13:27:57	13:36:46	516266	5e6813ada1c2de09bc51d9b2	819284958	1	practice_slash	9	advance_on_keypress_SLASH	22	stimuli_target_diamondsquares.svg	stimuli_distractor_diamondtriangles.svg	3	yes	57	0	1855
6.6.1	and	2022-12-14	13:27:57	13:36:52	521771	5e6813ada1c2de09bc51d9b2	819284958	1	practice_slash	9	practice_slash	23	stimuli_distractor_diamondtriangles.svg	stimuli_distractor_trianglediamonds.svg	14	no	0	1	2000
6.6.1	and	2022-12-14	13:27:57	13:36:52	521771	5e6813ada1c2de09bc51d9b2	819284958	1	practice_slash	9	advance_on_keypress_SLASH	24	stimuli_distractor_diamondtriangles.svg	stimuli_distractor_trianglediamonds.svg	14	no	57	0	785
6.6.1	and	2022-12-14	13:27:57	13:36:55	525058	5e6813ada1c2de09bc51d9b2	819284958	1	practice_slash	9	practice_slash	25	stimuli_distractor_trianglediamonds.svg	stimuli_target_squarediamonds.svg	11	yes	53	1	851
6.6.1	and	2022-12-14	13:27:57	13:36:55	525058	5e6813ada1c2de09bc51d9b2	819284958	1	practice_slash	9	advance_on_keypress_SLASH	26	stimuli_distractor_trianglediamonds.svg	stimuli_target_squarediamonds.svg	11	yes	57	0	728
6.6.1	and	2022-12-14	13:27:57	13:36:58	528232	5e6813ada1c2de09bc51d9b2	819284958	1	practice_slash	9	practice_slash	27	stimuli_distractor_diamondtriangles.svg	stimuli_target_diamondcircles.svg	8	yes	53	1	797
6.6.1	and	2022-12-14	13:27:57	13:36:58	528232	5e6813ada1c2de09bc51d9b2	819284958	1	practice_slash	9	advance_on_keypress_SLASH	28	stimuli_distractor_diamondtriangles.svg	stimuli_target_diamondcircles.svg	8	yes	57	0	509
6.6.1	and	2022-12-14	13:27:57	13:37:02	532390	5e6813ada1c2de09bc51d9b2	819284958	1	practice_slash	9	practice_slash	29	stimuli_distractor_diamondtriangles.svg	stimuli_distractor_diamondtriangles.svg	13	no	0	1	2000
6.6.1	and	2022-12-14	13:27:57	13:37:02	532390	5e6813ada1c2de09bc51d9b2	819284958	1	practice_slash	9	advance_on_keypress_SLASH	30	stimuli_distractor_diamondtriangles.svg	stimuli_distractor_diamondtriangles.svg	13	no	57	0	524
6.6.1	and	2022-12-14	13:27:57	13:37:06	535516	5e6813ada1c2de09bc51d9b2	819284958	1	practice_slash	9	practice_slash	31	stimuli_distractor_trianglediamonds.svg	stimuli_target_diamondcircles.svg	12	yes	53	1	942
6.6.1	and	2022-12-14	13:27:57	13:37:06	535516	5e6813ada1c2de09bc51d9b2	819284958	1	practice_slash	9	advance_on_keypress_SLASH	32	stimuli_distractor_trianglediamonds.svg	stimuli_target_diamondcircles.svg	12	yes	57	0	2031
6.6.1	and	2022-12-14	13:27:57	13:37:15	545299	5e6813ada1c2de09bc51d9b2	819284958	1	main_slash	11	main_slash	1	stimuli_target_trianglesquares.svg	stimuli_distractor_diamondtriangles.svg	22	yes	53	1	749
6.6.1	and	2022-12-14	13:27:57	13:37:15	545299	5e6813ada1c2de09bc51d9b2	819284958	1	main_slash	11	advance_on_keypress_SLASH	2	stimuli_target_trianglesquares.svg	stimuli_distractor_diamondtriangles.svg	22	yes	57	0	1036
6.6.1	and	2022-12-14	13:27:57	13:37:18	547755	5e6813ada1c2de09bc51d9b2	819284958	1	main_slash	11	main_slash	3	stimuli_distractor_trianglediamonds.svg	stimuli_target_diamondcircles.svg	27	yes	53	1	770
6.6.1	and	2022-12-14	13:27:57	13:37:18	547755	5e6813ada1c2de09bc51d9b2	819284958	1	main_slash	11	advance_on_keypress_SLASH	4	stimuli_distractor_trianglediamonds.svg	stimuli_target_diamondcircles.svg	27	yes	57	0	1083
6.6.1	and	2022-12-14	13:27:57	13:37:20	550327	5e6813ada1c2de09bc51d9b2	819284958	1	main_slash	11	main_slash	5	stimuli_target_trianglecircles.svg	stimuli_distractor_trianglediamonds.svg	17	yes	53	1	860
6.6.1	and	2022-12-14	13:27:57	13:37:20	550327	5e6813ada1c2de09bc51d9b2	819284958	1	main_slash	11	advance_on_keypress_SLASH	6	stimuli_target_trianglecircles.svg	stimuli_distractor_trianglediamonds.svg	17	yes	57	0	602
6.6.1	and	2022-12-14	13:27:57	13:37:23	552754	5e6813ada1c2de09bc51d9b2	819284958	1	main_slash	11	main_slash	7	stimuli_target_circlediamonds.svg	stimuli_distractor_diamondtriangles.svg	6	yes	53	1	1186
6.6.1	and	2022-12-14	13:27:57	13:37:23	552754	5e6813ada1c2de09bc51d9b2	819284958	1	main_slash	11	advance_on_keypress_SLASH	8	stimuli_target_circlediamonds.svg	stimuli_distractor_diamondtriangles.svg	6	yes	57	0	1663
6.6.1	and	2022-12-14	13:27:57	13:37:26	556008	5e6813ada1c2de09bc51d9b2	819284958	1	main_slash	11	main_slash	9	stimuli_target_squaretriangles.svg	stimuli_distractor_diamondtriangles.svg	7	yes	53	1	954
6.6.1	and	2022-12-14	13:27:57	13:37:26	556008	5e6813ada1c2de09bc51d9b2	819284958	1	main_slash	11	advance_on_keypress_SLASH	10	stimuli_target_squaretriangles.svg	stimuli_distractor_diamondtriangles.svg	7	yes	57	0	1003
6.6.1	and	2022-12-14	13:27:57	13:37:29	558532	5e6813ada1c2de09bc51d9b2	819284958	1	main_slash	11	main_slash	11	stimuli_target_squarediamonds.svg	stimuli_distractor_trianglediamonds.svg	4	yes	53	1	862
6.6.1	and	2022-12-14	13:27:57	13:37:29	558532	5e6813ada1c2de09bc51d9b2	819284958	1	main_slash	11	advance_on_keypress_SLASH	12	stimuli_target_squarediamonds.svg	stimuli_distractor_trianglediamonds.svg	4	yes	57	0	646
6.6.1	and	2022-12-14	13:27:57	13:37:31	560689	5e6813ada1c2de09bc51d9b2	819284958	1	main_slash	11	main_slash	13	stimuli_distractor_diamondtriangles.svg	stimuli_target_trianglecircles.svg	29	yes	53	1	871
6.6.1	and	2022-12-14	13:27:57	13:37:31	560689	5e6813ada1c2de09bc51d9b2	819284958	1	main_slash	11	advance_on_keypress_SLASH	14	stimuli_distractor_diamondtriangles.svg	stimuli_target_trianglecircles.svg	29	yes	57	0	536
6.6.1	and	2022-12-14	13:27:57	13:37:33	562864	5e6813ada1c2de09bc51d9b2	819284958	1	main_slash	11	main_slash	15	stimuli_distractor_trianglediamonds.svg	stimuli_target_trianglecircles.svg	25	yes	53	1	1013
6.6.1	and	2022-12-14	13:27:57	13:37:33	562864	5e6813ada1c2de09bc51d9b2	819284958	1	main_slash	11	advance_on_keypress_SLASH	16	stimuli_distractor_trianglediamonds.svg	stimuli_target_trianglecircles.svg	25	yes	57	0	1191
6.6.1	and	2022-12-14	13:27:57	13:37:36	565710	5e6813ada1c2de09bc51d9b2	819284958	1	main_slash	11	main_slash	17	stimuli_distractor_trianglediamonds.svg	stimuli_target_squaretriangles.svg	11	yes	53	1	1006
6.6.1	and	2022-12-14	13:27:57	13:37:36	565710	5e6813ada1c2de09bc51d9b2	819284958	1	main_slash	11	advance_on_keypress_SLASH	18	stimuli_distractor_trianglediamonds.svg	stimuli_target_squaretriangles.svg	11	yes	57	0	576
6.6.1	and	2022-12-14	13:27:57	13:37:38	567976	5e6813ada1c2de09bc51d9b2	819284958	1	main_slash	11	main_slash	19	stimuli_distractor_diamondtriangles.svg	stimuli_target_diamondsquares.svg	32	yes	53	1	1039
6.6.1	and	2022-12-14	13:27:57	13:37:38	567976	5e6813ada1c2de09bc51d9b2	819284958	1	main_slash	11	advance_on_keypress_SLASH	20	stimuli_distractor_diamondtriangles.svg	stimuli_target_diamondsquares.svg	32	yes	57	0	413
6.6.1	and	2022-12-14	13:27:57	13:37:41	571055	5e6813ada1c2de09bc51d9b2	819284958	1	main_slash	11	main_slash	21	stimuli_distractor_diamondtriangles.svg	stimuli_distractor_diamondtriangles.svg	39	no	0	1	2000
6.6.1	and	2022-12-14	13:27:57	13:37:41	571055	5e6813ada1c2de09bc51d9b2	819284958	1	main_slash	11	advance_on_keypress_SLASH	22	stimuli_distractor_diamondtriangles.svg	stimuli_distractor_diamondtriangles.svg	39	no	57	0	533
6.6.1	and	2022-12-14	13:27:57	13:37:44	574225	5e6813ada1c2de09bc51d9b2	819284958	1	main_slash	11	main_slash	23	stimuli_distractor_diamondtriangles.svg	stimuli_distractor_diamondtriangles.svg	40	no	0	1	2000
6.6.1	and	2022-12-14	13:27:57	13:37:44	574225	5e6813ada1c2de09bc51d9b2	819284958	1	main_slash	11	advance_on_keypress_SLASH	24	stimuli_distractor_diamondtriangles.svg	stimuli_distractor_diamondtriangles.svg	40	no	57	0	510
6.6.1	and	2022-12-14	13:27:57	13:37:46	576338	5e6813ada1c2de09bc51d9b2	819284958	1	main_slash	11	main_slash	25	stimuli_distractor_diamondtriangles.svg	stimuli_target_squaretriangles.svg	15	yes	53	1	950
6.6.1	and	2022-12-14	13:27:57	13:37:46	576338	5e6813ada1c2de09bc51d9b2	819284958	1	main_slash	11	advance_on_keypress_SLASH	26	stimuli_distractor_diamondtriangles.svg	stimuli_target_squaretriangles.svg	15	yes	57	0	1256
6.6.1	and	2022-12-14	13:27:57	13:37:49	579221	5e6813ada1c2de09bc51d9b2	819284958	1	main_slash	11	main_slash	27	stimuli_distractor_trianglediamonds.svg	stimuli_target_circletriangles.svg	9	yes	53	1	968
6.6.1	and	2022-12-14	13:27:57	13:37:49	579221	5e6813ada1c2de09bc51d9b2	819284958	1	main_slash	11	advance_on_keypress_SLASH	28	stimuli_distractor_trianglediamonds.svg	stimuli_target_circletriangles.svg	9	yes	57	0	579
6.6.1	and	2022-12-14	13:27:57	13:37:51	581213	5e6813ada1c2de09bc51d9b2	819284958	1	main_slash	11	main_slash	29	stimuli_target_circlediamonds.svg	stimuli_distractor_trianglediamonds.svg	2	yes	53	1	775
6.6.1	and	2022-12-14	13:27:57	13:37:51	581213	5e6813ada1c2de09bc51d9b2	819284958	1	main_slash	11	advance_on_keypress_SLASH	30	stimuli_target_circlediamonds.svg	stimuli_distractor_trianglediamonds.svg	2	yes	57	0	502
6.6.1	and	2022-12-14	13:27:57	13:37:53	583272	5e6813ada1c2de09bc51d9b2	819284958	1	main_slash	11	main_slash	31	stimuli_target_diamondsquares.svg	stimuli_distractor_trianglediamonds.svg	20	yes	53	1	901
6.6.1	and	2022-12-14	13:27:57	13:37:53	583272	5e6813ada1c2de09bc51d9b2	819284958	1	main_slash	11	advance_on_keypress_SLASH	32	stimuli_target_diamondsquares.svg	stimuli_distractor_trianglediamonds.svg	20	yes	57	0	497
6.6.1	and	2022-12-14	13:27:57	13:37:55	585236	5e6813ada1c2de09bc51d9b2	819284958	1	main_slash	11	main_slash	33	stimuli_distractor_trianglediamonds.svg	stimuli_target_diamondsquares.svg	28	yes	53	1	832
6.6.1	and	2022-12-14	13:27:57	13:37:55	585236	5e6813ada1c2de09bc51d9b2	819284958	1	main_slash	11	advance_on_keypress_SLASH	34	stimuli_distractor_trianglediamonds.svg	stimuli_target_diamondsquares.svg	28	yes	57	0	494
6.6.1	and	2022-12-14	13:27:57	13:37:57	587196	5e6813ada1c2de09bc51d9b2	819284958	1	main_slash	11	main_slash	35	stimuli_target_circletriangles.svg	stimuli_distractor_trianglediamonds.svg	1	yes	53	1	823
6.6.1	and	2022-12-14	13:27:57	13:37:57	587196	5e6813ada1c2de09bc51d9b2	819284958	1	main_slash	11	advance_on_keypress_SLASH	36	stimuli_target_circletriangles.svg	stimuli_distractor_trianglediamonds.svg	1	yes	57	0	471
6.6.1	and	2022-12-14	13:27:57	13:38:00	590321	5e6813ada1c2de09bc51d9b2	819284958	1	main_slash	11	main_slash	37	stimuli_distractor_diamondtriangles.svg	stimuli_distractor_trianglediamonds.svg	38	no	0	1	2000
6.6.1	and	2022-12-14	13:27:57	13:38:00	590321	5e6813ada1c2de09bc51d9b2	819284958	1	main_slash	11	advance_on_keypress_SLASH	38	stimuli_distractor_diamondtriangles.svg	stimuli_distractor_trianglediamonds.svg	38	no	57	0	718
6.6.1	and	2022-12-14	13:27:57	13:38:03	592620	5e6813ada1c2de09bc51d9b2	819284958	1	main_slash	11	main_slash	39	stimuli_target_trianglesquares.svg	stimuli_distractor_trianglediamonds.svg	18	yes	53	1	952
6.6.1	and	2022-12-14	13:27:57	13:38:03	592620	5e6813ada1c2de09bc51d9b2	819284958	1	main_slash	11	advance_on_keypress_SLASH	40	stimuli_target_trianglesquares.svg	stimuli_distractor_trianglediamonds.svg	18	yes	57	0	520
6.6.1	and	2022-12-14	13:27:57	13:38:05	594618	5e6813ada1c2de09bc51d9b2	819284958	1	main_slash	11	main_slash	41	stimuli_target_diamondsquares.svg	stimuli_distractor_diamondtriangles.svg	24	yes	53	1	848
6.6.1	and	2022-12-14	13:27:57	13:38:05	594618	5e6813ada1c2de09bc51d9b2	819284958	1	main_slash	11	advance_on_keypress_SLASH	42	stimuli_target_diamondsquares.svg	stimuli_distractor_diamondtriangles.svg	24	yes	57	0	433
6.6.1	and	2022-12-14	13:27:57	13:38:07	596640	5e6813ada1c2de09bc51d9b2	819284958	1	main_slash	11	main_slash	43	stimuli_target_circletriangles.svg	stimuli_distractor_diamondtriangles.svg	5	yes	53	1	955
6.6.1	and	2022-12-14	13:27:57	13:38:07	596640	5e6813ada1c2de09bc51d9b2	819284958	1	main_slash	11	advance_on_keypress_SLASH	44	stimuli_target_circletriangles.svg	stimuli_distractor_diamondtriangles.svg	5	yes	57	0	504
6.6.1	and	2022-12-14	13:27:57	13:38:09	598679	5e6813ada1c2de09bc51d9b2	819284958	1	main_slash	11	main_slash	45	stimuli_distractor_trianglediamonds.svg	stimuli_target_squarediamonds.svg	12	yes	53	1	911
6.6.1	and	2022-12-14	13:27:57	13:38:09	598679	5e6813ada1c2de09bc51d9b2	819284958	1	main_slash	11	advance_on_keypress_SLASH	46	stimuli_distractor_trianglediamonds.svg	stimuli_target_squarediamonds.svg	12	yes	57	0	728
6.6.1	and	2022-12-14	13:27:57	13:38:11	600975	5e6813ada1c2de09bc51d9b2	819284958	1	main_slash	11	main_slash	47	stimuli_distractor_diamondtriangles.svg	stimuli_target_squarediamonds.svg	16	yes	53	1	921
6.6.1	and	2022-12-14	13:27:57	13:38:11	600975	5e6813ada1c2de09bc51d9b2	819284958	1	main_slash	11	advance_on_keypress_SLASH	48	stimuli_distractor_diamondtriangles.svg	stimuli_target_squarediamonds.svg	16	yes	57	0	830
6.6.1	and	2022-12-14	13:27:57	13:38:14	603499	5e6813ada1c2de09bc51d9b2	819284958	1	main_slash	11	main_slash	49	stimuli_distractor_trianglediamonds.svg	stimuli_distractor_diamondtriangles.svg	35	no	53	0	1028
6.6.1	and	2022-12-14	13:27:57	13:38:14	603499	5e6813ada1c2de09bc51d9b2	819284958	1	main_slash	11	advance_on_keypress_SLASH	50	stimuli_distractor_trianglediamonds.svg	stimuli_distractor_diamondtriangles.svg	35	no	57	0	746
6.6.1	and	2022-12-14	13:27:57	13:38:16	605966	5e6813ada1c2de09bc51d9b2	819284958	1	main_slash	11	main_slash	51	stimuli_target_trianglecircles.svg	stimuli_distractor_diamondtriangles.svg	21	yes	53	1	1081
6.6.1	and	2022-12-14	13:27:57	13:38:16	605966	5e6813ada1c2de09bc51d9b2	819284958	1	main_slash	11	advance_on_keypress_SLASH	52	stimuli_target_trianglecircles.svg	stimuli_distractor_diamondtriangles.svg	21	yes	57	0	561
6.6.1	and	2022-12-14	13:27:57	13:38:19	609169	5e6813ada1c2de09bc51d9b2	819284958	1	main_slash	11	main_slash	53	stimuli_distractor_diamondtriangles.svg	stimuli_distractor_trianglediamonds.svg	37	no	0	1	2000
6.6.1	and	2022-12-14	13:27:57	13:38:19	609169	5e6813ada1c2de09bc51d9b2	819284958	1	main_slash	11	advance_on_keypress_SLASH	54	stimuli_distractor_diamondtriangles.svg	stimuli_distractor_trianglediamonds.svg	37	no	57	0	573
6.6.1	and	2022-12-14	13:27:57	13:38:21	611409	5e6813ada1c2de09bc51d9b2	819284958	1	main_slash	11	main_slash	55	stimuli_distractor_trianglediamonds.svg	stimuli_target_trianglesquares.svg	26	yes	53	1	1019
6.6.1	and	2022-12-14	13:27:57	13:38:21	611409	5e6813ada1c2de09bc51d9b2	819284958	1	main_slash	11	advance_on_keypress_SLASH	56	stimuli_distractor_trianglediamonds.svg	stimuli_target_trianglesquares.svg	26	yes	57	0	493
6.6.1	and	2022-12-14	13:27:57	13:38:24	613516	5e6813ada1c2de09bc51d9b2	819284958	1	main_slash	11	main_slash	57	stimuli_distractor_diamondtriangles.svg	stimuli_target_circlediamonds.svg	14	yes	53	1	964
6.6.1	and	2022-12-14	13:27:57	13:38:24	613516	5e6813ada1c2de09bc51d9b2	819284958	1	main_slash	11	advance_on_keypress_SLASH	58	stimuli_distractor_diamondtriangles.svg	stimuli_target_circlediamonds.svg	14	yes	57	0	614
6.6.1	and	2022-12-14	13:27:57	13:38:26	615768	5e6813ada1c2de09bc51d9b2	819284958	1	main_slash	11	main_slash	59	stimuli_distractor_diamondtriangles.svg	stimuli_target_circletriangles.svg	13	yes	53	1	998
6.6.1	and	2022-12-14	13:27:57	13:38:26	615768	5e6813ada1c2de09bc51d9b2	819284958	1	main_slash	11	advance_on_keypress_SLASH	60	stimuli_distractor_diamondtriangles.svg	stimuli_target_circletriangles.svg	13	yes	57	0	515
6.6.1	and	2022-12-14	13:27:57	13:38:28	617802	5e6813ada1c2de09bc51d9b2	819284958	1	main_slash	11	main_slash	61	stimuli_target_diamondcircles.svg	stimuli_distractor_diamondtriangles.svg	23	yes	53	1	883
6.6.1	and	2022-12-14	13:27:57	13:38:28	617802	5e6813ada1c2de09bc51d9b2	819284958	1	main_slash	11	advance_on_keypress_SLASH	62	stimuli_target_diamondcircles.svg	stimuli_distractor_diamondtriangles.svg	23	yes	57	0	473
6.6.1	and	2022-12-14	13:27:57	13:38:30	619929	5e6813ada1c2de09bc51d9b2	819284958	1	main_slash	11	main_slash	63	stimuli_target_squarediamonds.svg	stimuli_distractor_diamondtriangles.svg	8	yes	53	1	1011
6.6.1	and	2022-12-14	13:27:57	13:38:30	619929	5e6813ada1c2de09bc51d9b2	819284958	1	main_slash	11	advance_on_keypress_SLASH	64	stimuli_target_squarediamonds.svg	stimuli_distractor_diamondtriangles.svg	8	yes	57	0	511
6.6.1	and	2022-12-14	13:27:57	13:38:32	622175	5e6813ada1c2de09bc51d9b2	819284958	1	main_slash	11	main_slash	65	stimuli_target_squaretriangles.svg	stimuli_distractor_trianglediamonds.svg	3	yes	53	1	1086
6.6.1	and	2022-12-14	13:27:57	13:38:32	622175	5e6813ada1c2de09bc51d9b2	819284958	1	main_slash	11	advance_on_keypress_SLASH	66	stimuli_target_squaretriangles.svg	stimuli_distractor_trianglediamonds.svg	3	yes	57	0	518
6.6.1	and	2022-12-14	13:27:57	13:38:34	624416	5e6813ada1c2de09bc51d9b2	819284958	1	main_slash	11	main_slash	67	stimuli_distractor_trianglediamonds.svg	stimuli_target_circlediamonds.svg	10	yes	53	1	1081
6.6.1	and	2022-12-14	13:27:57	13:38:34	624416	5e6813ada1c2de09bc51d9b2	819284958	1	main_slash	11	advance_on_keypress_SLASH	68	stimuli_distractor_trianglediamonds.svg	stimuli_target_circlediamonds.svg	10	yes	57	0	797
6.6.1	and	2022-12-14	13:27:57	13:38:37	626799	5e6813ada1c2de09bc51d9b2	819284958	1	main_slash	11	main_slash	69	stimuli_distractor_diamondtriangles.svg	stimuli_target_trianglesquares.svg	30	yes	53	1	947
6.6.1	and	2022-12-14	13:27:57	13:38:37	626799	5e6813ada1c2de09bc51d9b2	819284958	1	main_slash	11	advance_on_keypress_SLASH	70	stimuli_distractor_diamondtriangles.svg	stimuli_target_trianglesquares.svg	30	yes	57	0	593
6.6.1	and	2022-12-14	13:27:57	13:38:40	630041	5e6813ada1c2de09bc51d9b2	819284958	1	main_slash	11	main_slash	71	stimuli_distractor_trianglediamonds.svg	stimuli_distractor_diamondtriangles.svg	36	no	0	1	2000
6.6.1	and	2022-12-14	13:27:57	13:38:40	630041	5e6813ada1c2de09bc51d9b2	819284958	1	main_slash	11	advance_on_keypress_SLASH	72	stimuli_distractor_trianglediamonds.svg	stimuli_distractor_diamondtriangles.svg	36	no	57	0	481
6.6.1	and	2022-12-14	13:27:57	13:38:42	632192	5e6813ada1c2de09bc51d9b2	819284958	1	main_slash	11	main_slash	73	stimuli_distractor_diamondtriangles.svg	stimuli_target_diamondcircles.svg	31	yes	53	1	1019
6.6.1	and	2022-12-14	13:27:57	13:38:42	632192	5e6813ada1c2de09bc51d9b2	819284958	1	main_slash	11	advance_on_keypress_SLASH	74	stimuli_distractor_diamondtriangles.svg	stimuli_target_diamondcircles.svg	31	yes	57	0	571
6.6.1	and	2022-12-14	13:27:57	13:38:45	635421	5e6813ada1c2de09bc51d9b2	819284958	1	main_slash	11	main_slash	75	stimuli_distractor_trianglediamonds.svg	stimuli_distractor_trianglediamonds.svg	33	no	0	1	2000
6.6.1	and	2022-12-14	13:27:57	13:38:45	635421	5e6813ada1c2de09bc51d9b2	819284958	1	main_slash	11	advance_on_keypress_SLASH	76	stimuli_distractor_trianglediamonds.svg	stimuli_distractor_trianglediamonds.svg	33	no	57	0	505
6.6.1	and	2022-12-14	13:27:57	13:38:48	637526	5e6813ada1c2de09bc51d9b2	819284958	1	main_slash	11	main_slash	77	stimuli_target_diamondcircles.svg	stimuli_distractor_trianglediamonds.svg	19	yes	53	1	956
6.6.1	and	2022-12-14	13:27:57	13:38:48	637526	5e6813ada1c2de09bc51d9b2	819284958	1	main_slash	11	advance_on_keypress_SLASH	78	stimuli_target_diamondcircles.svg	stimuli_distractor_trianglediamonds.svg	19	yes	57	0	497
6.6.1	and	2022-12-14	13:27:57	13:38:51	640672	5e6813ada1c2de09bc51d9b2	819284958	1	main_slash	11	main_slash	79	stimuli_distractor_trianglediamonds.svg	stimuli_distractor_trianglediamonds.svg	34	no	0	1	2000
6.6.1	and	2022-12-14	13:27:57	13:38:51	640672	5e6813ada1c2de09bc51d9b2	819284958	1	main_slash	11	advance_on_keypress_SLASH	80	stimuli_distractor_trianglediamonds.svg	stimuli_distractor_trianglediamonds.svg	34	no	57	0	476
6.6.1	and	2022-12-14	13:27:57	13:38:53	642754	5e6813ada1c2de09bc51d9b2	819284958	1	main_slash	11	main_slash	81	stimuli_distractor_diamondtriangles.svg	stimuli_target_squaretriangles.svg	15	yes	53	1	966
6.6.1	and	2022-12-14	13:27:57	13:38:53	642754	5e6813ada1c2de09bc51d9b2	819284958	1	main_slash	11	advance_on_keypress_SLASH	82	stimuli_distractor_diamondtriangles.svg	stimuli_target_squaretriangles.svg	15	yes	57	0	684
6.6.1	and	2022-12-14	13:27:57	13:38:56	646074	5e6813ada1c2de09bc51d9b2	819284958	1	main_slash	11	main_slash	83	stimuli_distractor_trianglediamonds.svg	stimuli_distractor_trianglediamonds.svg	33	no	0	1	2000
6.6.1	and	2022-12-14	13:27:57	13:38:56	646074	5e6813ada1c2de09bc51d9b2	819284958	1	main_slash	11	advance_on_keypress_SLASH	84	stimuli_distractor_trianglediamonds.svg	stimuli_distractor_trianglediamonds.svg	33	no	57	0	378
6.6.1	and	2022-12-14	13:27:57	13:38:59	649107	5e6813ada1c2de09bc51d9b2	819284958	1	main_slash	11	main_slash	85	stimuli_distractor_trianglediamonds.svg	stimuli_distractor_diamondtriangles.svg	36	no	0	1	2000
6.6.1	and	2022-12-14	13:27:57	13:38:59	649107	5e6813ada1c2de09bc51d9b2	819284958	1	main_slash	11	advance_on_keypress_SLASH	86	stimuli_distractor_trianglediamonds.svg	stimuli_distractor_diamondtriangles.svg	36	no	57	0	394
6.6.1	and	2022-12-14	13:27:57	13:39:01	650917	5e6813ada1c2de09bc51d9b2	819284958	1	main_slash	11	main_slash	87	stimuli_target_diamondsquares.svg	stimuli_distractor_diamondtriangles.svg	24	yes	53	1	778
6.6.1	and	2022-12-14	13:27:57	13:39:01	650917	5e6813ada1c2de09bc51d9b2	819284958	1	main_slash	11	advance_on_keypress_SLASH	88	stimuli_target_diamondsquares.svg	stimuli_distractor_diamondtriangles.svg	24	yes	57	0	587
6.6.1	and	2022-12-14	13:27:57	13:39:03	653066	5e6813ada1c2de09bc51d9b2	819284958	1	main_slash	11	main_slash	89	stimuli_distractor_trianglediamonds.svg	stimuli_target_circlediamonds.svg	10	yes	53	1	912
6.6.1	and	2022-12-14	13:27:57	13:39:03	653066	5e6813ada1c2de09bc51d9b2	819284958	1	main_slash	11	advance_on_keypress_SLASH	90	stimuli_distractor_trianglediamonds.svg	stimuli_target_circlediamonds.svg	10	yes	57	0	468
6.6.1	and	2022-12-14	13:27:57	13:39:05	655012	5e6813ada1c2de09bc51d9b2	819284958	1	main_slash	11	main_slash	91	stimuli_distractor_diamondtriangles.svg	stimuli_target_squarediamonds.svg	16	yes	53	1	822
6.6.1	and	2022-12-14	13:27:57	13:39:05	655012	5e6813ada1c2de09bc51d9b2	819284958	1	main_slash	11	advance_on_keypress_SLASH	92	stimuli_distractor_diamondtriangles.svg	stimuli_target_squarediamonds.svg	16	yes	57	0	461
6.6.1	and	2022-12-14	13:27:57	13:39:07	657062	5e6813ada1c2de09bc51d9b2	819284958	1	main_slash	11	main_slash	93	stimuli_distractor_trianglediamonds.svg	stimuli_target_squarediamonds.svg	12	yes	53	1	940
6.6.1	and	2022-12-14	13:27:57	13:39:07	657062	5e6813ada1c2de09bc51d9b2	819284958	1	main_slash	11	advance_on_keypress_SLASH	94	stimuli_distractor_trianglediamonds.svg	stimuli_target_squarediamonds.svg	12	yes	57	0	730
6.6.1	and	2022-12-14	13:27:57	13:39:09	659393	5e6813ada1c2de09bc51d9b2	819284958	1	main_slash	11	main_slash	95	stimuli_target_trianglesquares.svg	stimuli_distractor_trianglediamonds.svg	18	yes	53	1	954
6.6.1	and	2022-12-14	13:27:57	13:39:09	659393	5e6813ada1c2de09bc51d9b2	819284958	1	main_slash	11	advance_on_keypress_SLASH	96	stimuli_target_trianglesquares.svg	stimuli_distractor_trianglediamonds.svg	18	yes	57	0	477
6.6.1	and	2022-12-14	13:27:57	13:39:12	661473	5e6813ada1c2de09bc51d9b2	819284958	1	main_slash	11	main_slash	97	stimuli_target_diamondcircles.svg	stimuli_distractor_diamondtriangles.svg	23	yes	53	1	953
6.6.1	and	2022-12-14	13:27:57	13:39:12	661473	5e6813ada1c2de09bc51d9b2	819284958	1	main_slash	11	advance_on_keypress_SLASH	98	stimuli_target_diamondcircles.svg	stimuli_distractor_diamondtriangles.svg	23	yes	57	0	552
6.6.1	and	2022-12-14	13:27:57	13:39:14	663576	5e6813ada1c2de09bc51d9b2	819284958	1	main_slash	11	main_slash	99	stimuli_distractor_diamondtriangles.svg	stimuli_target_diamondsquares.svg	32	yes	53	1	892
6.6.1	and	2022-12-14	13:27:57	13:39:14	663576	5e6813ada1c2de09bc51d9b2	819284958	1	main_slash	11	advance_on_keypress_SLASH	100	stimuli_distractor_diamondtriangles.svg	stimuli_target_diamondsquares.svg	32	yes	57	0	491
6.6.1	and	2022-12-14	13:27:57	13:39:16	665681	5e6813ada1c2de09bc51d9b2	819284958	1	main_slash	11	main_slash	101	stimuli_distractor_diamondtriangles.svg	stimuli_target_trianglesquares.svg	30	yes	53	1	962
6.6.1	and	2022-12-14	13:27:57	13:39:16	665681	5e6813ada1c2de09bc51d9b2	819284958	1	main_slash	11	advance_on_keypress_SLASH	102	stimuli_distractor_diamondtriangles.svg	stimuli_target_trianglesquares.svg	30	yes	57	0	710
6.6.1	and	2022-12-14	13:27:57	13:39:18	667948	5e6813ada1c2de09bc51d9b2	819284958	1	main_slash	11	main_slash	103	stimuli_target_circletriangles.svg	stimuli_distractor_trianglediamonds.svg	1	yes	53	1	904
6.6.1	and	2022-12-14	13:27:57	13:39:18	667948	5e6813ada1c2de09bc51d9b2	819284958	1	main_slash	11	advance_on_keypress_SLASH	104	stimuli_target_circletriangles.svg	stimuli_distractor_trianglediamonds.svg	1	yes	57	0	501
6.6.1	and	2022-12-14	13:27:57	13:39:21	671109	5e6813ada1c2de09bc51d9b2	819284958	1	main_slash	11	main_slash	105	stimuli_distractor_trianglediamonds.svg	stimuli_distractor_trianglediamonds.svg	34	no	0	1	2000
6.6.1	and	2022-12-14	13:27:57	13:39:21	671109	5e6813ada1c2de09bc51d9b2	819284958	1	main_slash	11	advance_on_keypress_SLASH	106	stimuli_distractor_trianglediamonds.svg	stimuli_distractor_trianglediamonds.svg	34	no	57	0	550
6.6.1	and	2022-12-14	13:27:57	13:39:24	674306	5e6813ada1c2de09bc51d9b2	819284958	1	main_slash	11	main_slash	107	stimuli_distractor_diamondtriangles.svg	stimuli_distractor_diamondtriangles.svg	40	no	0	1	2000
6.6.1	and	2022-12-14	13:27:57	13:39:24	674306	5e6813ada1c2de09bc51d9b2	819284958	1	main_slash	11	advance_on_keypress_SLASH	108	stimuli_distractor_diamondtriangles.svg	stimuli_distractor_diamondtriangles.svg	40	no	57	0	1793
6.6.1	and	2022-12-14	13:27:57	13:39:28	677639	5e6813ada1c2de09bc51d9b2	819284958	1	main_slash	11	main_slash	109	stimuli_target_diamondcircles.svg	stimuli_distractor_trianglediamonds.svg	19	yes	53	1	899
6.6.1	and	2022-12-14	13:27:57	13:39:28	677639	5e6813ada1c2de09bc51d9b2	819284958	1	main_slash	11	advance_on_keypress_SLASH	110	stimuli_target_diamondcircles.svg	stimuli_distractor_trianglediamonds.svg	19	yes	57	0	747
6.6.1	and	2022-12-14	13:27:57	13:39:30	680035	5e6813ada1c2de09bc51d9b2	819284958	1	main_slash	11	main_slash	111	stimuli_distractor_diamondtriangles.svg	stimuli_target_circletriangles.svg	13	yes	53	1	1013
6.6.1	and	2022-12-14	13:27:57	13:39:30	680035	5e6813ada1c2de09bc51d9b2	819284958	1	main_slash	11	advance_on_keypress_SLASH	112	stimuli_distractor_diamondtriangles.svg	stimuli_target_circletriangles.svg	13	yes	57	0	630
6.6.1	and	2022-12-14	13:27:57	13:39:32	682113	5e6813ada1c2de09bc51d9b2	819284958	1	main_slash	11	main_slash	113	stimuli_distractor_trianglediamonds.svg	stimuli_target_trianglesquares.svg	26	yes	53	1	807
6.6.1	and	2022-12-14	13:27:57	13:39:32	682113	5e6813ada1c2de09bc51d9b2	819284958	1	main_slash	11	advance_on_keypress_SLASH	114	stimuli_distractor_trianglediamonds.svg	stimuli_target_trianglesquares.svg	26	yes	57	0	472
6.6.1	and	2022-12-14	13:27:57	13:39:34	684232	5e6813ada1c2de09bc51d9b2	819284958	1	main_slash	11	main_slash	115	stimuli_target_trianglesquares.svg	stimuli_distractor_diamondtriangles.svg	22	yes	53	1	994
6.6.1	and	2022-12-14	13:27:57	13:39:34	684232	5e6813ada1c2de09bc51d9b2	819284958	1	main_slash	11	advance_on_keypress_SLASH	116	stimuli_target_trianglesquares.svg	stimuli_distractor_diamondtriangles.svg	22	yes	57	0	534
6.6.1	and	2022-12-14	13:27:57	13:39:36	686423	5e6813ada1c2de09bc51d9b2	819284958	1	main_slash	11	main_slash	117	stimuli_target_trianglecircles.svg	stimuli_distractor_trianglediamonds.svg	17	yes	53	1	1004
6.6.1	and	2022-12-14	13:27:57	13:39:36	686423	5e6813ada1c2de09bc51d9b2	819284958	1	main_slash	11	advance_on_keypress_SLASH	118	stimuli_target_trianglecircles.svg	stimuli_distractor_trianglediamonds.svg	17	yes	57	0	724
6.6.1	and	2022-12-14	13:27:57	13:39:39	688872	5e6813ada1c2de09bc51d9b2	819284958	1	main_slash	11	main_slash	119	stimuli_distractor_diamondtriangles.svg	stimuli_target_trianglecircles.svg	29	yes	53	1	1085
6.6.1	and	2022-12-14	13:27:57	13:39:39	688872	5e6813ada1c2de09bc51d9b2	819284958	1	main_slash	11	advance_on_keypress_SLASH	120	stimuli_distractor_diamondtriangles.svg	stimuli_target_trianglecircles.svg	29	yes	57	0	955
6.6.1	and	2022-12-14	13:27:57	13:39:42	691792	5e6813ada1c2de09bc51d9b2	819284958	1	main_slash	11	main_slash	121	stimuli_target_circlediamonds.svg	stimuli_distractor_trianglediamonds.svg	2	yes	53	1	1305
6.6.1	and	2022-12-14	13:27:57	13:39:42	691792	5e6813ada1c2de09bc51d9b2	819284958	1	main_slash	11	advance_on_keypress_SLASH	122	stimuli_target_circlediamonds.svg	stimuli_distractor_trianglediamonds.svg	2	yes	57	0	758
6.6.1	and	2022-12-14	13:27:57	13:39:44	693948	5e6813ada1c2de09bc51d9b2	819284958	1	main_slash	11	main_slash	123	stimuli_distractor_trianglediamonds.svg	stimuli_target_trianglecircles.svg	25	yes	53	1	743
6.6.1	and	2022-12-14	13:27:57	13:39:44	693948	5e6813ada1c2de09bc51d9b2	819284958	1	main_slash	11	advance_on_keypress_SLASH	124	stimuli_distractor_trianglediamonds.svg	stimuli_target_trianglecircles.svg	25	yes	57	0	427
6.6.1	and	2022-12-14	13:27:57	13:39:46	696279	5e6813ada1c2de09bc51d9b2	819284958	1	main_slash	11	main_slash	125	stimuli_target_circlediamonds.svg	stimuli_distractor_diamondtriangles.svg	6	yes	53	1	1256
6.6.1	and	2022-12-14	13:27:57	13:39:46	696279	5e6813ada1c2de09bc51d9b2	819284958	1	main_slash	11	advance_on_keypress_SLASH	126	stimuli_target_circlediamonds.svg	stimuli_distractor_diamondtriangles.svg	6	yes	57	0	511
6.6.1	and	2022-12-14	13:27:57	13:39:49	698845	5e6813ada1c2de09bc51d9b2	819284958	1	main_slash	11	main_slash	127	stimuli_distractor_trianglediamonds.svg	stimuli_target_circletriangles.svg	9	yes	53	1	1405
6.6.1	and	2022-12-14	13:27:57	13:39:49	698845	5e6813ada1c2de09bc51d9b2	819284958	1	main_slash	11	advance_on_keypress_SLASH	128	stimuli_distractor_trianglediamonds.svg	stimuli_target_circletriangles.svg	9	yes	57	0	983
6.6.1	and	2022-12-14	13:27:57	13:39:52	701799	5e6813ada1c2de09bc51d9b2	819284958	1	main_slash	11	main_slash	129	stimuli_distractor_trianglediamonds.svg	stimuli_target_diamondcircles.svg	27	yes	53	1	1329
6.6.1	and	2022-12-14	13:27:57	13:39:52	701799	5e6813ada1c2de09bc51d9b2	819284958	1	main_slash	11	advance_on_keypress_SLASH	130	stimuli_distractor_trianglediamonds.svg	stimuli_target_diamondcircles.svg	27	yes	57	0	768
6.6.1	and	2022-12-14	13:27:57	13:39:55	705204	5e6813ada1c2de09bc51d9b2	819284958	1	main_slash	11	main_slash	131	stimuli_distractor_trianglediamonds.svg	stimuli_distractor_diamondtriangles.svg	35	no	0	1	2000
6.6.1	and	2022-12-14	13:27:57	13:39:55	705204	5e6813ada1c2de09bc51d9b2	819284958	1	main_slash	11	advance_on_keypress_SLASH	132	stimuli_distractor_trianglediamonds.svg	stimuli_distractor_diamondtriangles.svg	35	no	57	0	398
6.6.1	and	2022-12-14	13:27:57	13:39:57	706869	5e6813ada1c2de09bc51d9b2	819284958	1	main_slash	11	main_slash	133	stimuli_target_squarediamonds.svg	stimuli_distractor_trianglediamonds.svg	4	yes	53	1	627
6.6.1	and	2022-12-14	13:27:57	13:39:57	706869	5e6813ada1c2de09bc51d9b2	819284958	1	main_slash	11	advance_on_keypress_SLASH	134	stimuli_target_squarediamonds.svg	stimuli_distractor_trianglediamonds.svg	4	yes	57	0	1517
6.6.1	and	2022-12-14	13:27:57	13:40:00	709477	5e6813ada1c2de09bc51d9b2	819284958	1	main_slash	11	main_slash	135	stimuli_distractor_diamondtriangles.svg	stimuli_target_diamondcircles.svg	31	yes	53	1	454
6.6.1	and	2022-12-14	13:27:57	13:40:00	709477	5e6813ada1c2de09bc51d9b2	819284958	1	main_slash	11	advance_on_keypress_SLASH	136	stimuli_distractor_diamondtriangles.svg	stimuli_target_diamondcircles.svg	31	yes	57	0	895
6.6.1	and	2022-12-14	13:27:57	13:40:03	713022	5e6813ada1c2de09bc51d9b2	819284958	1	main_slash	11	main_slash	137	stimuli_distractor_diamondtriangles.svg	stimuli_distractor_trianglediamonds.svg	37	no	0	1	2000
6.6.1	and	2022-12-14	13:27:57	13:40:03	713022	5e6813ada1c2de09bc51d9b2	819284958	1	main_slash	11	advance_on_keypress_SLASH	138	stimuli_distractor_diamondtriangles.svg	stimuli_distractor_trianglediamonds.svg	37	no	57	0	941
6.6.1	and	2022-12-14	13:27:57	13:40:05	715419	5e6813ada1c2de09bc51d9b2	819284958	1	main_slash	11	main_slash	139	stimuli_distractor_trianglediamonds.svg	stimuli_target_diamondsquares.svg	28	yes	53	1	811
6.6.1	and	2022-12-14	13:27:57	13:40:05	715419	5e6813ada1c2de09bc51d9b2	819284958	1	main_slash	11	advance_on_keypress_SLASH	140	stimuli_distractor_trianglediamonds.svg	stimuli_target_diamondsquares.svg	28	yes	57	0	667
6.6.1	and	2022-12-14	13:27:57	13:40:09	718721	5e6813ada1c2de09bc51d9b2	819284958	1	main_slash	11	main_slash	141	stimuli_distractor_diamondtriangles.svg	stimuli_distractor_diamondtriangles.svg	39	no	0	1	2000
6.6.1	and	2022-12-14	13:27:57	13:40:09	718721	5e6813ada1c2de09bc51d9b2	819284958	1	main_slash	11	advance_on_keypress_SLASH	142	stimuli_distractor_diamondtriangles.svg	stimuli_distractor_diamondtriangles.svg	39	no	57	0	567
6.6.1	and	2022-12-14	13:27:57	13:40:12	721922	5e6813ada1c2de09bc51d9b2	819284958	1	main_slash	11	main_slash	143	stimuli_distractor_diamondtriangles.svg	stimuli_distractor_trianglediamonds.svg	38	no	0	1	2000
6.6.1	and	2022-12-14	13:27:57	13:40:12	721922	5e6813ada1c2de09bc51d9b2	819284958	1	main_slash	11	advance_on_keypress_SLASH	144	stimuli_distractor_diamondtriangles.svg	stimuli_distractor_trianglediamonds.svg	38	no	57	0	853
6.6.1	and	2022-12-14	13:27:57	13:40:14	723889	5e6813ada1c2de09bc51d9b2	819284958	1	main_slash	11	main_slash	145	stimuli_distractor_trianglediamonds.svg	stimuli_target_squaretriangles.svg	11	yes	53	1	484
6.6.1	and	2022-12-14	13:27:57	13:40:14	723889	5e6813ada1c2de09bc51d9b2	819284958	1	main_slash	11	advance_on_keypress_SLASH	146	stimuli_distractor_trianglediamonds.svg	stimuli_target_squaretriangles.svg	11	yes	57	0	588
6.6.1	and	2022-12-14	13:27:57	13:40:16	725674	5e6813ada1c2de09bc51d9b2	819284958	1	main_slash	11	main_slash	147	stimuli_target_circletriangles.svg	stimuli_distractor_diamondtriangles.svg	5	yes	53	1	570
6.6.1	and	2022-12-14	13:27:57	13:40:16	725674	5e6813ada1c2de09bc51d9b2	819284958	1	main_slash	11	advance_on_keypress_SLASH	148	stimuli_target_circletriangles.svg	stimuli_distractor_diamondtriangles.svg	5	yes	57	0	480
6.6.1	and	2022-12-14	13:27:57	13:40:17	727308	5e6813ada1c2de09bc51d9b2	819284958	1	main_slash	11	main_slash	149	stimuli_target_squaretriangles.svg	stimuli_distractor_diamondtriangles.svg	7	yes	53	1	523
6.6.1	and	2022-12-14	13:27:57	13:40:17	727308	5e6813ada1c2de09bc51d9b2	819284958	1	main_slash	11	advance_on_keypress_SLASH	150	stimuli_target_squaretriangles.svg	stimuli_distractor_diamondtriangles.svg	7	yes	57	0	479
6.6.1	and	2022-12-14	13:27:57	13:40:19	728990	5e6813ada1c2de09bc51d9b2	819284958	1	main_slash	11	main_slash	151	stimuli_target_squarediamonds.svg	stimuli_distractor_diamondtriangles.svg	8	yes	53	1	549
6.6.1	and	2022-12-14	13:27:57	13:40:19	728990	5e6813ada1c2de09bc51d9b2	819284958	1	main_slash	11	advance_on_keypress_SLASH	152	stimuli_target_squarediamonds.svg	stimuli_distractor_diamondtriangles.svg	8	yes	57	0	311
6.6.1	and	2022-12-14	13:27:57	13:40:21	730762	5e6813ada1c2de09bc51d9b2	819284958	1	main_slash	11	main_slash	153	stimuli_target_diamondsquares.svg	stimuli_distractor_trianglediamonds.svg	20	yes	53	1	824
6.6.1	and	2022-12-14	13:27:57	13:40:21	730762	5e6813ada1c2de09bc51d9b2	819284958	1	main_slash	11	advance_on_keypress_SLASH	154	stimuli_target_diamondsquares.svg	stimuli_distractor_trianglediamonds.svg	20	yes	57	0	414
6.6.1	and	2022-12-14	13:27:57	13:40:23	732543	5e6813ada1c2de09bc51d9b2	819284958	1	main_slash	11	main_slash	155	stimuli_distractor_diamondtriangles.svg	stimuli_target_circlediamonds.svg	14	yes	53	1	720
6.6.1	and	2022-12-14	13:27:57	13:40:23	732543	5e6813ada1c2de09bc51d9b2	819284958	1	main_slash	11	advance_on_keypress_SLASH	156	stimuli_distractor_diamondtriangles.svg	stimuli_target_circlediamonds.svg	14	yes	57	0	365
6.6.1	and	2022-12-14	13:27:57	13:40:24	734270	5e6813ada1c2de09bc51d9b2	819284958	1	main_slash	11	main_slash	157	stimuli_target_trianglecircles.svg	stimuli_distractor_diamondtriangles.svg	21	yes	53	1	714
6.6.1	and	2022-12-14	13:27:57	13:40:24	734270	5e6813ada1c2de09bc51d9b2	819284958	1	main_slash	11	advance_on_keypress_SLASH	158	stimuli_target_trianglecircles.svg	stimuli_distractor_diamondtriangles.svg	21	yes	57	0	392
6.6.1	and	2022-12-14	13:27:57	13:40:26	736052	5e6813ada1c2de09bc51d9b2	819284958	1	main_slash	11	main_slash	159	stimuli_target_squaretriangles.svg	stimuli_distractor_trianglediamonds.svg	3	yes	53	1	744
6.6.1	and	2022-12-14	13:27:57	13:40:26	736052	5e6813ada1c2de09bc51d9b2	819284958	1	main_slash	11	advance_on_keypress_SLASH	160	stimuli_target_squaretriangles.svg	stimuli_distractor_trianglediamonds.svg	3	yes	57	0	419