build	computer.platform	date	time	timestamp	time_elapsed_ms	subject	group	session	blockcode	blocknum	trialcode	trialnum	stimulus_left	stimulus_right	stim_index	target_present	response	correct	latency
6.6.1	mac	2022-12-14	13:23:17	13:25:32	134330	61097e0464a4a922602d495b	30703400	1	practice_z	5	practice_z	1	stimuli_distractor_diamondtriangles.svg	stimuli_target_diamondcircles.svg	8	yes	0	0	2000
6.6.1	mac	2022-12-14	13:23:17	13:25:32	134330	61097e0464a4a922602d495b	30703400	1	practice_z	5	advance_on_keypress_ZEE	2	stimuli_distractor_diamondtriangles.svg	stimuli_target_diamondcircles.svg	8	yes	57	0	1192
6.6.1	mac	2022-12-14	13:23:17	13:25:36	138358	61097e0464a4a922602d495b	30703400	1	practice_z	5	practice_z	3	stimuli_distractor_trianglediamonds.svg	stimuli_target_circlediamonds.svg	10	yes	44	1	1186
6.6.1	mac	2022-12-14	13:23:17	13:25:36	138358	61097e0464a4a922602d495b	30703400	1	practice_z	5	advance_on_keypress_ZEE	4	stimuli_distractor_trianglediamonds.svg	stimuli_target_circlediamonds.svg	10	yes	57	0	1097
6.6.1	mac	2022-12-14	13:23:17	13:25:40	141671	61097e0464a4a922602d495b	30703400	1	practice_z	5	practice_z	5	stimuli_target_circlediamonds.svg	stimuli_distractor_diamondtriangles.svg	1	yes	44	1	590
6.6.1	mac	2022-12-14	13:23:17	13:25:40	141671	61097e0464a4a922602d495b	30703400	1	practice_z	5	advance_on_keypress_ZEE	6	stimuli_target_circlediamonds.svg	stimuli_distractor_diamondtriangles.svg	1	yes	57	0	598
6.6.1	mac	2022-12-14	13:23:17	13:25:42	144398	61097e0464a4a922602d495b	30703400	1	practice_z	5	practice_z	7	stimuli_distractor_trianglediamonds.svg	stimuli_target_squarediamonds.svg	11	yes	44	1	484
6.6.1	mac	2022-12-14	13:23:17	13:25:42	144398	61097e0464a4a922602d495b	30703400	1	practice_z	5	advance_on_keypress_ZEE	8	stimuli_distractor_trianglediamonds.svg	stimuli_target_squarediamonds.svg	11	yes	57	0	552
6.6.1	mac	2022-12-14	13:23:17	13:25:47	148582	61097e0464a4a922602d495b	30703400	1	practice_z	5	practice_z	9	stimuli_target_diamondsquares.svg	stimuli_distractor_trianglediamonds.svg	6	yes	0	0	2000
6.6.1	mac	2022-12-14	13:23:17	13:25:47	148582	61097e0464a4a922602d495b	30703400	1	practice_z	5	advance_on_keypress_ZEE	10	stimuli_target_diamondsquares.svg	stimuli_distractor_trianglediamonds.svg	6	yes	57	0	593
6.6.1	mac	2022-12-14	13:23:17	13:25:51	152819	61097e0464a4a922602d495b	30703400	1	practice_z	5	practice_z	11	stimuli_distractor_diamondtriangles.svg	stimuli_distractor_trianglediamonds.svg	14	no	0	1	2000
6.6.1	mac	2022-12-14	13:23:17	13:25:51	152819	61097e0464a4a922602d495b	30703400	1	practice_z	5	advance_on_keypress_ZEE	12	stimuli_distractor_diamondtriangles.svg	stimuli_distractor_trianglediamonds.svg	14	no	57	0	442
6.6.1	mac	2022-12-14	13:23:17	13:25:55	156881	61097e0464a4a922602d495b	30703400	1	practice_z	5	practice_z	13	stimuli_distractor_trianglediamonds.svg	stimuli_distractor_diamondtriangles.svg	16	no	0	1	2000
6.6.1	mac	2022-12-14	13:23:17	13:25:55	156881	61097e0464a4a922602d495b	30703400	1	practice_z	5	advance_on_keypress_ZEE	14	stimuli_distractor_trianglediamonds.svg	stimuli_distractor_diamondtriangles.svg	16	no	57	0	469
6.6.1	mac	2022-12-14	13:23:17	13:25:58	159846	61097e0464a4a922602d495b	30703400	1	practice_z	5	practice_z	15	stimuli_target_squarediamonds.svg	stimuli_distractor_diamondtriangles.svg	2	yes	44	1	854
6.6.1	mac	2022-12-14	13:23:17	13:25:58	159846	61097e0464a4a922602d495b	30703400	1	practice_z	5	advance_on_keypress_ZEE	16	stimuli_target_squarediamonds.svg	stimuli_distractor_diamondtriangles.svg	2	yes	57	0	495
6.6.1	mac	2022-12-14	13:23:17	13:26:01	162933	61097e0464a4a922602d495b	30703400	1	practice_z	5	practice_z	17	stimuli_distractor_diamondtriangles.svg	stimuli_target_circletriangles.svg	7	yes	44	1	948
6.6.1	mac	2022-12-14	13:23:17	13:26:01	162933	61097e0464a4a922602d495b	30703400	1	practice_z	5	advance_on_keypress_ZEE	18	stimuli_distractor_diamondtriangles.svg	stimuli_target_circletriangles.svg	7	yes	57	0	718
6.6.1	mac	2022-12-14	13:23:17	13:26:05	167285	61097e0464a4a922602d495b	30703400	1	practice_z	5	practice_z	19	stimuli_distractor_diamondtriangles.svg	stimuli_target_trianglecircles.svg	9	yes	0	0	2000
6.6.1	mac	2022-12-14	13:23:17	13:26:05	167285	61097e0464a4a922602d495b	30703400	1	practice_z	5	advance_on_keypress_ZEE	20	stimuli_distractor_diamondtriangles.svg	stimuli_target_trianglecircles.svg	9	yes	57	0	514
6.6.1	mac	2022-12-14	13:23:17	13:26:09	171421	61097e0464a4a922602d495b	30703400	1	practice_z	5	practice_z	21	stimuli_distractor_trianglediamonds.svg	stimuli_target_diamondcircles.svg	12	yes	0	0	2000
6.6.1	mac	2022-12-14	13:23:17	13:26:09	171421	61097e0464a4a922602d495b	30703400	1	practice_z	5	advance_on_keypress_ZEE	22	stimuli_distractor_trianglediamonds.svg	stimuli_target_diamondcircles.svg	12	yes	57	0	472
6.6.1	mac	2022-12-14	13:23:17	13:26:14	175529	61097e0464a4a922602d495b	30703400	1	practice_z	5	practice_z	23	stimuli_distractor_trianglediamonds.svg	stimuli_distractor_trianglediamonds.svg	15	no	0	1	2000
6.6.1	mac	2022-12-14	13:23:17	13:26:14	175529	61097e0464a4a922602d495b	30703400	1	practice_z	5	advance_on_keypress_ZEE	24	stimuli_distractor_trianglediamonds.svg	stimuli_distractor_trianglediamonds.svg	15	no	57	0	477
6.6.1	mac	2022-12-14	13:23:17	13:26:16	178286	61097e0464a4a922602d495b	30703400	1	practice_z	5	practice_z	25	stimuli_target_squarediamonds.svg	stimuli_distractor_trianglediamonds.svg	5	yes	44	1	633
6.6.1	mac	2022-12-14	13:23:17	13:26:16	178286	61097e0464a4a922602d495b	30703400	1	practice_z	5	advance_on_keypress_ZEE	26	stimuli_target_squarediamonds.svg	stimuli_distractor_trianglediamonds.svg	5	yes	57	0	411
6.6.1	mac	2022-12-14	13:23:17	13:26:19	180989	61097e0464a4a922602d495b	30703400	1	practice_z	5	practice_z	27	stimuli_target_circlediamonds.svg	stimuli_distractor_trianglediamonds.svg	4	yes	44	1	662
6.6.1	mac	2022-12-14	13:23:17	13:26:19	180989	61097e0464a4a922602d495b	30703400	1	practice_z	5	advance_on_keypress_ZEE	28	stimuli_target_circlediamonds.svg	stimuli_distractor_trianglediamonds.svg	4	yes	57	0	440
6.6.1	mac	2022-12-14	13:23:17	13:26:23	185052	61097e0464a4a922602d495b	30703400	1	practice_z	5	practice_z	29	stimuli_distractor_diamondtriangles.svg	stimuli_distractor_diamondtriangles.svg	13	no	0	1	2000
6.6.1	mac	2022-12-14	13:23:17	13:26:23	185052	61097e0464a4a922602d495b	30703400	1	practice_z	5	advance_on_keypress_ZEE	30	stimuli_distractor_diamondtriangles.svg	stimuli_distractor_diamondtriangles.svg	13	no	57	0	364
6.6.1	mac	2022-12-14	13:23:17	13:26:27	189043	61097e0464a4a922602d495b	30703400	1	practice_z	5	practice_z	31	stimuli_target_diamondsquares.svg	stimuli_distractor_diamondtriangles.svg	3	yes	0	0	2000
6.6.1	mac	2022-12-14	13:23:17	13:26:27	189043	61097e0464a4a922602d495b	30703400	1	practice_z	5	advance_on_keypress_ZEE	32	stimuli_target_diamondsquares.svg	stimuli_distractor_diamondtriangles.svg	3	yes	57	0	468
6.6.1	mac	2022-12-14	13:23:17	13:26:36	197876	61097e0464a4a922602d495b	30703400	1	main_z	7	main_z	1	stimuli_distractor_diamondtriangles.svg	stimuli_distractor_diamondtriangles.svg	40	no	0	1	2000
6.6.1	mac	2022-12-14	13:23:17	13:26:36	197876	61097e0464a4a922602d495b	30703400	1	main_z	7	advance_on_keypress_ZEE	2	stimuli_distractor_diamondtriangles.svg	stimuli_distractor_diamondtriangles.svg	40	no	57	0	326
6.6.1	mac	2022-12-14	13:23:17	13:26:39	200828	61097e0464a4a922602d495b	30703400	1	main_z	7	main_z	3	stimuli_distractor_trianglediamonds.svg	stimuli_distractor_diamondtriangles.svg	36	no	0	1	2000
6.6.1	mac	2022-12-14	13:23:17	13:26:39	200828	61097e0464a4a922602d495b	30703400	1	main_z	7	advance_on_keypress_ZEE	4	stimuli_distractor_trianglediamonds.svg	stimuli_distractor_diamondtriangles.svg	36	no	57	0	433
6.6.1	mac	2022-12-14	13:23:17	13:26:41	202958	61097e0464a4a922602d495b	30703400	1	main_z	7	main_z	5	stimuli_distractor_diamondtriangles.svg	stimuli_target_trianglecircles.svg	29	yes	44	1	1067
6.6.1	mac	2022-12-14	13:23:17	13:26:41	202958	61097e0464a4a922602d495b	30703400	1	main_z	7	advance_on_keypress_ZEE	6	stimuli_distractor_diamondtriangles.svg	stimuli_target_trianglecircles.svg	29	yes	57	0	745
6.6.1	mac	2022-12-14	13:23:17	13:26:43	205190	61097e0464a4a922602d495b	30703400	1	main_z	7	main_z	7	stimuli_target_trianglesquares.svg	stimuli_distractor_diamondtriangles.svg	22	yes	44	1	866
6.6.1	mac	2022-12-14	13:23:17	13:26:43	205190	61097e0464a4a922602d495b	30703400	1	main_z	7	advance_on_keypress_ZEE	8	stimuli_target_trianglesquares.svg	stimuli_distractor_diamondtriangles.svg	22	yes	57	0	711
6.6.1	mac	2022-12-14	13:23:17	13:26:45	207182	61097e0464a4a922602d495b	30703400	1	main_z	7	main_z	9	stimuli_distractor_trianglediamonds.svg	stimuli_target_circletriangles.svg	9	yes	44	1	656
6.6.1	mac	2022-12-14	13:23:17	13:26:45	207182	61097e0464a4a922602d495b	30703400	1	main_z	7	advance_on_keypress_ZEE	10	stimuli_distractor_trianglediamonds.svg	stimuli_target_circletriangles.svg	9	yes	57	0	707
6.6.1	mac	2022-12-14	13:23:17	13:26:47	209046	61097e0464a4a922602d495b	30703400	1	main_z	7	main_z	11	stimuli_distractor_trianglediamonds.svg	stimuli_target_circlediamonds.svg	10	yes	44	1	533
6.6.1	mac	2022-12-14	13:23:17	13:26:47	209046	61097e0464a4a922602d495b	30703400	1	main_z	7	advance_on_keypress_ZEE	12	stimuli_distractor_trianglediamonds.svg	stimuli_target_circlediamonds.svg	10	yes	57	0	572
6.6.1	mac	2022-12-14	13:23:17	13:26:49	210870	61097e0464a4a922602d495b	30703400	1	main_z	7	main_z	13	stimuli_distractor_diamondtriangles.svg	stimuli_target_squaretriangles.svg	15	yes	44	1	628
6.6.1	mac	2022-12-14	13:23:17	13:26:49	210870	61097e0464a4a922602d495b	30703400	1	main_z	7	advance_on_keypress_ZEE	14	stimuli_distractor_diamondtriangles.svg	stimuli_target_squaretriangles.svg	15	yes	57	0	564
6.6.1	mac	2022-12-14	13:23:17	13:26:52	214053	61097e0464a4a922602d495b	30703400	1	main_z	7	main_z	15	stimuli_distractor_diamondtriangles.svg	stimuli_distractor_diamondtriangles.svg	39	no	0	1	2000
6.6.1	mac	2022-12-14	13:23:17	13:26:52	214053	61097e0464a4a922602d495b	30703400	1	main_z	7	advance_on_keypress_ZEE	16	stimuli_distractor_diamondtriangles.svg	stimuli_distractor_diamondtriangles.svg	39	no	57	0	400
6.6.1	mac	2022-12-14	13:23:17	13:26:54	215797	61097e0464a4a922602d495b	30703400	1	main_z	7	main_z	17	stimuli_target_diamondcircles.svg	stimuli_distractor_diamondtriangles.svg	23	yes	44	1	712
6.6.1	mac	2022-12-14	13:23:17	13:26:54	215797	61097e0464a4a922602d495b	30703400	1	main_z	7	advance_on_keypress_ZEE	18	stimuli_target_diamondcircles.svg	stimuli_distractor_diamondtriangles.svg	23	yes	57	0	559
6.6.1	mac	2022-12-14	13:23:17	13:26:56	218222	61097e0464a4a922602d495b	30703400	1	main_z	7	main_z	19	stimuli_target_circletriangles.svg	stimuli_distractor_trianglediamonds.svg	1	yes	44	1	1239
6.6.1	mac	2022-12-14	13:23:17	13:26:56	218222	61097e0464a4a922602d495b	30703400	1	main_z	7	advance_on_keypress_ZEE	20	stimuli_target_circletriangles.svg	stimuli_distractor_trianglediamonds.svg	1	yes	57	0	569
6.6.1	mac	2022-12-14	13:23:17	13:26:58	220133	61097e0464a4a922602d495b	30703400	1	main_z	7	main_z	21	stimuli_target_trianglecircles.svg	stimuli_distractor_trianglediamonds.svg	17	yes	44	1	705
6.6.1	mac	2022-12-14	13:23:17	13:26:58	220133	61097e0464a4a922602d495b	30703400	1	main_z	7	advance_on_keypress_ZEE	22	stimuli_target_trianglecircles.svg	stimuli_distractor_trianglediamonds.svg	17	yes	57	0	524
6.6.1	mac	2022-12-14	13:23:17	13:27:01	222525	61097e0464a4a922602d495b	30703400	1	main_z	7	main_z	23	stimuli_distractor_trianglediamonds.svg	stimuli_target_diamondsquares.svg	28	yes	44	1	1248
6.6.1	mac	2022-12-14	13:23:17	13:27:01	222525	61097e0464a4a922602d495b	30703400	1	main_z	7	advance_on_keypress_ZEE	24	stimuli_distractor_trianglediamonds.svg	stimuli_target_diamondsquares.svg	28	yes	57	0	442
6.6.1	mac	2022-12-14	13:23:17	13:27:04	225595	61097e0464a4a922602d495b	30703400	1	main_z	7	main_z	25	stimuli_distractor_diamondtriangles.svg	stimuli_target_diamondsquares.svg	32	yes	0	0	2000
6.6.1	mac	2022-12-14	13:23:17	13:27:04	225595	61097e0464a4a922602d495b	30703400	1	main_z	7	advance_on_keypress_ZEE	26	stimuli_distractor_diamondtriangles.svg	stimuli_target_diamondsquares.svg	32	yes	57	0	532
6.6.1	mac	2022-12-14	13:23:17	13:27:06	227558	61097e0464a4a922602d495b	30703400	1	main_z	7	main_z	27	stimuli_target_diamondsquares.svg	stimuli_distractor_trianglediamonds.svg	20	yes	44	1	785
6.6.1	mac	2022-12-14	13:23:17	13:27:06	227558	61097e0464a4a922602d495b	30703400	1	main_z	7	advance_on_keypress_ZEE	28	stimuli_target_diamondsquares.svg	stimuli_distractor_trianglediamonds.svg	20	yes	57	0	428
6.6.1	mac	2022-12-14	13:23:17	13:27:07	229270	61097e0464a4a922602d495b	30703400	1	main_z	7	main_z	29	stimuli_target_diamondsquares.svg	stimuli_distractor_diamondtriangles.svg	24	yes	44	1	663
6.6.1	mac	2022-12-14	13:23:17	13:27:07	229270	61097e0464a4a922602d495b	30703400	1	main_z	7	advance_on_keypress_ZEE	30	stimuli_target_diamondsquares.svg	stimuli_distractor_diamondtriangles.svg	24	yes	57	0	442
6.6.1	mac	2022-12-14	13:23:17	13:27:09	231438	61097e0464a4a922602d495b	30703400	1	main_z	7	main_z	31	stimuli_target_circletriangles.svg	stimuli_distractor_diamondtriangles.svg	5	yes	44	1	1091
6.6.1	mac	2022-12-14	13:23:17	13:27:09	231438	61097e0464a4a922602d495b	30703400	1	main_z	7	advance_on_keypress_ZEE	32	stimuli_target_circletriangles.svg	stimuli_distractor_diamondtriangles.svg	5	yes	57	0	346
6.6.1	mac	2022-12-14	13:23:17	13:27:11	233261	61097e0464a4a922602d495b	30703400	1	main_z	7	main_z	33	stimuli_target_squaretriangles.svg	stimuli_distractor_trianglediamonds.svg	3	yes	44	1	832
6.6.1	mac	2022-12-14	13:23:17	13:27:11	233261	61097e0464a4a922602d495b	30703400	1	main_z	7	advance_on_keypress_ZEE	34	stimuli_target_squaretriangles.svg	stimuli_distractor_trianglediamonds.svg	3	yes	57	0	383
6.6.1	mac	2022-12-14	13:23:17	13:27:13	235376	61097e0464a4a922602d495b	30703400	1	main_z	7	main_z	35	stimuli_distractor_diamondtriangles.svg	stimuli_distractor_trianglediamonds.svg	38	no	44	0	1083
6.6.1	mac	2022-12-14	13:23:17	13:27:13	235376	61097e0464a4a922602d495b	30703400	1	main_z	7	advance_on_keypress_ZEE	36	stimuli_distractor_diamondtriangles.svg	stimuli_distractor_trianglediamonds.svg	38	no	57	0	400
6.6.1	mac	2022-12-14	13:23:17	13:27:16	238410	61097e0464a4a922602d495b	30703400	1	main_z	7	main_z	37	stimuli_distractor_trianglediamonds.svg	stimuli_distractor_trianglediamonds.svg	33	no	0	1	2000
6.6.1	mac	2022-12-14	13:23:17	13:27:16	238410	61097e0464a4a922602d495b	30703400	1	main_z	7	advance_on_keypress_ZEE	38	stimuli_distractor_trianglediamonds.svg	stimuli_distractor_trianglediamonds.svg	33	no	57	0	503
6.6.1	mac	2022-12-14	13:23:17	13:27:18	240398	61097e0464a4a922602d495b	30703400	1	main_z	7	main_z	39	stimuli_target_squarediamonds.svg	stimuli_distractor_diamondtriangles.svg	8	yes	44	1	852
6.6.1	mac	2022-12-14	13:23:17	13:27:18	240398	61097e0464a4a922602d495b	30703400	1	main_z	7	advance_on_keypress_ZEE	40	stimuli_target_squarediamonds.svg	stimuli_distractor_diamondtriangles.svg	8	yes	57	0	382
6.6.1	mac	2022-12-14	13:23:17	13:27:20	242214	61097e0464a4a922602d495b	30703400	1	main_z	7	main_z	41	stimuli_distractor_trianglediamonds.svg	stimuli_target_squaretriangles.svg	11	yes	44	1	810
6.6.1	mac	2022-12-14	13:23:17	13:27:20	242214	61097e0464a4a922602d495b	30703400	1	main_z	7	advance_on_keypress_ZEE	42	stimuli_distractor_trianglediamonds.svg	stimuli_target_squaretriangles.svg	11	yes	57	0	419
6.6.1	mac	2022-12-14	13:23:17	13:27:22	244261	61097e0464a4a922602d495b	30703400	1	main_z	7	main_z	43	stimuli_distractor_diamondtriangles.svg	stimuli_target_trianglesquares.svg	30	yes	44	1	999
6.6.1	mac	2022-12-14	13:23:17	13:27:22	244261	61097e0464a4a922602d495b	30703400	1	main_z	7	advance_on_keypress_ZEE	44	stimuli_distractor_diamondtriangles.svg	stimuli_target_trianglesquares.svg	30	yes	57	0	324
6.6.1	mac	2022-12-14	13:23:17	13:27:24	246215	61097e0464a4a922602d495b	30703400	1	main_z	7	main_z	45	stimuli_distractor_diamondtriangles.svg	stimuli_target_circlediamonds.svg	14	yes	44	1	1006
6.6.1	mac	2022-12-14	13:23:17	13:27:24	246215	61097e0464a4a922602d495b	30703400	1	main_z	7	advance_on_keypress_ZEE	46	stimuli_distractor_diamondtriangles.svg	stimuli_target_circlediamonds.svg	14	yes	57	0	321
6.6.1	mac	2022-12-14	13:23:17	13:27:26	247879	61097e0464a4a922602d495b	30703400	1	main_z	7	main_z	47	stimuli_target_circlediamonds.svg	stimuli_distractor_diamondtriangles.svg	6	yes	44	1	713
6.6.1	mac	2022-12-14	13:23:17	13:27:26	247879	61097e0464a4a922602d495b	30703400	1	main_z	7	advance_on_keypress_ZEE	48	stimuli_target_circlediamonds.svg	stimuli_distractor_diamondtriangles.svg	6	yes	57	0	358
6.6.1	mac	2022-12-14	13:23:17	13:27:27	249502	61097e0464a4a922602d495b	30703400	1	main_z	7	main_z	49	stimuli_distractor_diamondtriangles.svg	stimuli_target_squarediamonds.svg	16	yes	44	1	645
6.6.1	mac	2022-12-14	13:23:17	13:27:27	249502	61097e0464a4a922602d495b	30703400	1	main_z	7	advance_on_keypress_ZEE	50	stimuli_distractor_diamondtriangles.svg	stimuli_target_squarediamonds.svg	16	yes	57	0	377
6.6.1	mac	2022-12-14	13:23:17	13:27:30	252505	61097e0464a4a922602d495b	30703400	1	main_z	7	main_z	51	stimuli_distractor_trianglediamonds.svg	stimuli_distractor_trianglediamonds.svg	34	no	0	1	2000
6.6.1	mac	2022-12-14	13:23:17	13:27:30	252505	61097e0464a4a922602d495b	30703400	1	main_z	7	advance_on_keypress_ZEE	52	stimuli_distractor_trianglediamonds.svg	stimuli_distractor_trianglediamonds.svg	34	no	57	0	463
6.6.1	mac	2022-12-14	13:23:17	13:27:32	254326	61097e0464a4a922602d495b	30703400	1	main_z	7	main_z	53	stimuli_distractor_trianglediamonds.svg	stimuli_target_trianglesquares.svg	26	yes	44	1	723
6.6.1	mac	2022-12-14	13:23:17	13:27:32	254326	61097e0464a4a922602d495b	30703400	1	main_z	7	advance_on_keypress_ZEE	54	stimuli_distractor_trianglediamonds.svg	stimuli_target_trianglesquares.svg	26	yes	57	0	304
6.6.1	mac	2022-12-14	13:23:17	13:27:34	255934	61097e0464a4a922602d495b	30703400	1	main_z	7	main_z	55	stimuli_target_squarediamonds.svg	stimuli_distractor_trianglediamonds.svg	4	yes	44	1	680
6.6.1	mac	2022-12-14	13:23:17	13:27:34	255934	61097e0464a4a922602d495b	30703400	1	main_z	7	advance_on_keypress_ZEE	56	stimuli_target_squarediamonds.svg	stimuli_distractor_trianglediamonds.svg	4	yes	57	0	358
6.6.1	mac	2022-12-14	13:23:17	13:27:36	257574	61097e0464a4a922602d495b	30703400	1	main_z	7	main_z	57	stimuli_distractor_diamondtriangles.svg	stimuli_target_circletriangles.svg	13	yes	44	1	656
6.6.1	mac	2022-12-14	13:23:17	13:27:36	257574	61097e0464a4a922602d495b	30703400	1	main_z	7	advance_on_keypress_ZEE	58	stimuli_distractor_diamondtriangles.svg	stimuli_target_circletriangles.svg	13	yes	57	0	304
6.6.1	mac	2022-12-14	13:23:17	13:27:37	259197	61097e0464a4a922602d495b	30703400	1	main_z	7	main_z	59	stimuli_target_circlediamonds.svg	stimuli_distractor_trianglediamonds.svg	2	yes	44	1	695
6.6.1	mac	2022-12-14	13:23:17	13:27:37	259197	61097e0464a4a922602d495b	30703400	1	main_z	7	advance_on_keypress_ZEE	60	stimuli_target_circlediamonds.svg	stimuli_distractor_trianglediamonds.svg	2	yes	57	0	318
6.6.1	mac	2022-12-14	13:23:17	13:27:39	261038	61097e0464a4a922602d495b	30703400	1	main_z	7	main_z	61	stimuli_target_trianglesquares.svg	stimuli_distractor_trianglediamonds.svg	18	yes	44	1	883
6.6.1	mac	2022-12-14	13:23:17	13:27:39	261038	61097e0464a4a922602d495b	30703400	1	main_z	7	advance_on_keypress_ZEE	62	stimuli_target_trianglesquares.svg	stimuli_distractor_trianglediamonds.svg	18	yes	57	0	271
6.6.1	mac	2022-12-14	13:23:17	13:27:41	262757	61097e0464a4a922602d495b	30703400	1	main_z	7	main_z	63	stimuli_distractor_diamondtriangles.svg	stimuli_target_diamondcircles.svg	31	yes	44	1	807
6.6.1	mac	2022-12-14	13:23:17	13:27:41	262757	61097e0464a4a922602d495b	30703400	1	main_z	7	advance_on_keypress_ZEE	64	stimuli_distractor_diamondtriangles.svg	stimuli_target_diamondcircles.svg	31	yes	57	0	376
6.6.1	mac	2022-12-14	13:23:17	13:27:44	265759	61097e0464a4a922602d495b	30703400	1	main_z	7	main_z	65	stimuli_target_squaretriangles.svg	stimuli_distractor_diamondtriangles.svg	7	yes	0	0	2000
6.6.1	mac	2022-12-14	13:23:17	13:27:44	265759	61097e0464a4a922602d495b	30703400	1	main_z	7	advance_on_keypress_ZEE	66	stimuli_target_squaretriangles.svg	stimuli_distractor_diamondtriangles.svg	7	yes	57	0	643
6.6.1	mac	2022-12-14	13:23:17	13:27:46	267638	61097e0464a4a922602d495b	30703400	1	main_z	7	main_z	67	stimuli_target_trianglecircles.svg	stimuli_distractor_diamondtriangles.svg	21	yes	44	1	595
6.6.1	mac	2022-12-14	13:23:17	13:27:46	267638	61097e0464a4a922602d495b	30703400	1	main_z	7	advance_on_keypress_ZEE	68	stimuli_target_trianglecircles.svg	stimuli_distractor_diamondtriangles.svg	21	yes	57	0	342
6.6.1	mac	2022-12-14	13:23:17	13:27:47	269334	61097e0464a4a922602d495b	30703400	1	main_z	7	main_z	69	stimuli_distractor_trianglediamonds.svg	stimuli_target_squarediamonds.svg	12	yes	44	1	718
6.6.1	mac	2022-12-14	13:23:17	13:27:47	269334	61097e0464a4a922602d495b	30703400	1	main_z	7	advance_on_keypress_ZEE	70	stimuli_distractor_trianglediamonds.svg	stimuli_target_squarediamonds.svg	12	yes	57	0	385
6.6.1	mac	2022-12-14	13:23:17	13:27:49	271166	61097e0464a4a922602d495b	30703400	1	main_z	7	main_z	71	stimuli_distractor_trianglediamonds.svg	stimuli_target_trianglecircles.svg	25	yes	44	1	823
6.6.1	mac	2022-12-14	13:23:17	13:27:49	271166	61097e0464a4a922602d495b	30703400	1	main_z	7	advance_on_keypress_ZEE	72	stimuli_distractor_trianglediamonds.svg	stimuli_target_trianglecircles.svg	25	yes	57	0	636
6.6.1	mac	2022-12-14	13:23:17	13:27:52	273581	61097e0464a4a922602d495b	30703400	1	main_z	7	main_z	73	stimuli_distractor_diamondtriangles.svg	stimuli_distractor_trianglediamonds.svg	37	no	44	0	1147
6.6.1	mac	2022-12-14	13:23:17	13:27:52	273581	61097e0464a4a922602d495b	30703400	1	main_z	7	advance_on_keypress_ZEE	74	stimuli_distractor_diamondtriangles.svg	stimuli_distractor_trianglediamonds.svg	37	no	57	0	475
6.6.1	mac	2022-12-14	13:23:17	13:27:54	276009	61097e0464a4a922602d495b	30703400	1	main_z	7	main_z	75	stimuli_distractor_trianglediamonds.svg	stimuli_distractor_diamondtriangles.svg	35	no	44	0	1320
6.6.1	mac	2022-12-14	13:23:17	13:27:54	276009	61097e0464a4a922602d495b	30703400	1	main_z	7	advance_on_keypress_ZEE	76	stimuli_distractor_trianglediamonds.svg	stimuli_distractor_diamondtriangles.svg	35	no	57	0	415
6.6.1	mac	2022-12-14	13:23:17	13:27:56	277782	61097e0464a4a922602d495b	30703400	1	main_z	7	main_z	77	stimuli_target_diamondcircles.svg	stimuli_distractor_trianglediamonds.svg	19	yes	44	1	731
6.6.1	mac	2022-12-14	13:23:17	13:27:56	277782	61097e0464a4a922602d495b	30703400	1	main_z	7	advance_on_keypress_ZEE	78	stimuli_target_diamondcircles.svg	stimuli_distractor_trianglediamonds.svg	19	yes	57	0	395
6.6.1	mac	2022-12-14	13:23:17	13:27:58	279582	61097e0464a4a922602d495b	30703400	1	main_z	7	main_z	79	stimuli_distractor_trianglediamonds.svg	stimuli_target_diamondcircles.svg	27	yes	44	1	769
6.6.1	mac	2022-12-14	13:23:17	13:27:58	279582	61097e0464a4a922602d495b	30703400	1	main_z	7	advance_on_keypress_ZEE	80	stimuli_distractor_trianglediamonds.svg	stimuli_target_diamondcircles.svg	27	yes	57	0	397
6.6.1	mac	2022-12-14	13:23:17	13:28:00	282214	61097e0464a4a922602d495b	30703400	1	main_z	7	main_z	81	stimuli_distractor_diamondtriangles.svg	stimuli_distractor_trianglediamonds.svg	37	no	44	0	1602
6.6.1	mac	2022-12-14	13:23:17	13:28:00	282214	61097e0464a4a922602d495b	30703400	1	main_z	7	advance_on_keypress_ZEE	82	stimuli_distractor_diamondtriangles.svg	stimuli_distractor_trianglediamonds.svg	37	no	57	0	529
6.6.1	mac	2022-12-14	13:23:17	13:28:02	284350	61097e0464a4a922602d495b	30703400	1	main_z	7	main_z	83	stimuli_distractor_diamondtriangles.svg	stimuli_target_circlediamonds.svg	14	yes	44	1	970
6.6.1	mac	2022-12-14	13:23:17	13:28:02	284350	61097e0464a4a922602d495b	30703400	1	main_z	7	advance_on_keypress_ZEE	84	stimuli_distractor_diamondtriangles.svg	stimuli_target_circlediamonds.svg	14	yes	57	0	316
6.6.1	mac	2022-12-14	13:23:17	13:28:04	285901	61097e0464a4a922602d495b	30703400	1	main_z	7	main_z	85	stimuli_distractor_diamondtriangles.svg	stimuli_target_circletriangles.svg	13	yes	44	1	596
6.6.1	mac	2022-12-14	13:23:17	13:28:04	285901	61097e0464a4a922602d495b	30703400	1	main_z	7	advance_on_keypress_ZEE	86	stimuli_distractor_diamondtriangles.svg	stimuli_target_circletriangles.svg	13	yes	57	0	399
6.6.1	mac	2022-12-14	13:23:17	13:28:06	287654	61097e0464a4a922602d495b	30703400	1	main_z	7	main_z	87	stimuli_distractor_diamondtriangles.svg	stimuli_target_diamondsquares.svg	32	yes	44	1	736
6.6.1	mac	2022-12-14	13:23:17	13:28:06	287654	61097e0464a4a922602d495b	30703400	1	main_z	7	advance_on_keypress_ZEE	88	stimuli_distractor_diamondtriangles.svg	stimuli_target_diamondsquares.svg	32	yes	57	0	319
6.6.1	mac	2022-12-14	13:23:17	13:28:07	289190	61097e0464a4a922602d495b	30703400	1	main_z	7	main_z	89	stimuli_target_circlediamonds.svg	stimuli_distractor_trianglediamonds.svg	2	yes	44	1	581
6.6.1	mac	2022-12-14	13:23:17	13:28:07	289190	61097e0464a4a922602d495b	30703400	1	main_z	7	advance_on_keypress_ZEE	90	stimuli_target_circlediamonds.svg	stimuli_distractor_trianglediamonds.svg	2	yes	57	0	387
6.6.1	mac	2022-12-14	13:23:17	13:28:09	290758	61097e0464a4a922602d495b	30703400	1	main_z	7	main_z	91	stimuli_target_diamondcircles.svg	stimuli_distractor_trianglediamonds.svg	19	yes	44	1	552
6.6.1	mac	2022-12-14	13:23:17	13:28:09	290758	61097e0464a4a922602d495b	30703400	1	main_z	7	advance_on_keypress_ZEE	92	stimuli_target_diamondcircles.svg	stimuli_distractor_trianglediamonds.svg	19	yes	57	0	351
6.6.1	mac	2022-12-14	13:23:17	13:28:12	293735	61097e0464a4a922602d495b	30703400	1	main_z	7	main_z	93	stimuli_distractor_trianglediamonds.svg	stimuli_distractor_trianglediamonds.svg	33	no	0	1	2000
6.6.1	mac	2022-12-14	13:23:17	13:28:12	293735	61097e0464a4a922602d495b	30703400	1	main_z	7	advance_on_keypress_ZEE	94	stimuli_distractor_trianglediamonds.svg	stimuli_distractor_trianglediamonds.svg	33	no	57	0	858
6.6.1	mac	2022-12-14	13:23:17	13:28:14	296310	61097e0464a4a922602d495b	30703400	1	main_z	7	main_z	95	stimuli_target_circlediamonds.svg	stimuli_distractor_diamondtriangles.svg	6	yes	44	1	1089
6.6.1	mac	2022-12-14	13:23:17	13:28:14	296310	61097e0464a4a922602d495b	30703400	1	main_z	7	advance_on_keypress_ZEE	96	stimuli_target_circlediamonds.svg	stimuli_distractor_diamondtriangles.svg	6	yes	57	0	333
6.6.1	mac	2022-12-14	13:23:17	13:28:16	297838	61097e0464a4a922602d495b	30703400	1	main_z	7	main_z	97	stimuli_target_squarediamonds.svg	stimuli_distractor_diamondtriangles.svg	8	yes	44	1	568
6.6.1	mac	2022-12-14	13:23:17	13:28:16	297838	61097e0464a4a922602d495b	30703400	1	main_z	7	advance_on_keypress_ZEE	98	stimuli_target_squarediamonds.svg	stimuli_distractor_diamondtriangles.svg	8	yes	57	0	321
6.6.1	mac	2022-12-14	13:23:17	13:28:19	300791	61097e0464a4a922602d495b	30703400	1	main_z	7	main_z	99	stimuli_distractor_trianglediamonds.svg	stimuli_distractor_trianglediamonds.svg	34	no	0	1	2000
6.6.1	mac	2022-12-14	13:23:17	13:28:19	300791	61097e0464a4a922602d495b	30703400	1	main_z	7	advance_on_keypress_ZEE	100	stimuli_distractor_trianglediamonds.svg	stimuli_distractor_trianglediamonds.svg	34	no	57	0	424
6.6.1	mac	2022-12-14	13:23:17	13:28:20	302478	61097e0464a4a922602d495b	30703400	1	main_z	7	main_z	101	stimuli_distractor_trianglediamonds.svg	stimuli_target_diamondcircles.svg	27	yes	44	1	631
6.6.1	mac	2022-12-14	13:23:17	13:28:20	302478	61097e0464a4a922602d495b	30703400	1	main_z	7	advance_on_keypress_ZEE	102	stimuli_distractor_trianglediamonds.svg	stimuli_target_diamondcircles.svg	27	yes	57	0	295
6.6.1	mac	2022-12-14	13:23:17	13:28:23	305401	61097e0464a4a922602d495b	30703400	1	main_z	7	main_z	103	stimuli_distractor_trianglediamonds.svg	stimuli_distractor_diamondtriangles.svg	36	no	0	1	2000
6.6.1	mac	2022-12-14	13:23:17	13:28:23	305401	61097e0464a4a922602d495b	30703400	1	main_z	7	advance_on_keypress_ZEE	104	stimuli_distractor_trianglediamonds.svg	stimuli_distractor_diamondtriangles.svg	36	no	57	0	573
6.6.1	mac	2022-12-14	13:23:17	13:28:25	307302	61097e0464a4a922602d495b	30703400	1	main_z	7	main_z	105	stimuli_target_circletriangles.svg	stimuli_distractor_trianglediamonds.svg	1	yes	44	1	703
6.6.1	mac	2022-12-14	13:23:17	13:28:25	307302	61097e0464a4a922602d495b	30703400	1	main_z	7	advance_on_keypress_ZEE	106	stimuli_target_circletriangles.svg	stimuli_distractor_trianglediamonds.svg	1	yes	57	0	362
6.6.1	mac	2022-12-14	13:23:17	13:28:27	308918	61097e0464a4a922602d495b	30703400	1	main_z	7	main_z	107	stimuli_distractor_diamondtriangles.svg	stimuli_target_squaretriangles.svg	15	yes	44	1	621
6.6.1	mac	2022-12-14	13:23:17	13:28:27	308918	61097e0464a4a922602d495b	30703400	1	main_z	7	advance_on_keypress_ZEE	108	stimuli_distractor_diamondtriangles.svg	stimuli_target_squaretriangles.svg	15	yes	57	0	340
6.6.1	mac	2022-12-14	13:23:17	13:28:29	310541	61097e0464a4a922602d495b	30703400	1	main_z	7	main_z	109	stimuli_target_squaretriangles.svg	stimuli_distractor_diamondtriangles.svg	7	yes	44	1	654
6.6.1	mac	2022-12-14	13:23:17	13:28:29	310541	61097e0464a4a922602d495b	30703400	1	main_z	7	advance_on_keypress_ZEE	110	stimuli_target_squaretriangles.svg	stimuli_distractor_diamondtriangles.svg	7	yes	57	0	335
6.6.1	mac	2022-12-14	13:23:17	13:28:30	312325	61097e0464a4a922602d495b	30703400	1	main_z	7	main_z	111	stimuli_target_squarediamonds.svg	stimuli_distractor_trianglediamonds.svg	4	yes	44	1	811
6.6.1	mac	2022-12-14	13:23:17	13:28:30	312325	61097e0464a4a922602d495b	30703400	1	main_z	7	advance_on_keypress_ZEE	112	stimuli_target_squarediamonds.svg	stimuli_distractor_trianglediamonds.svg	4	yes	57	0	500
6.6.1	mac	2022-12-14	13:23:17	13:28:32	314150	61097e0464a4a922602d495b	30703400	1	main_z	7	main_z	113	stimuli_target_trianglecircles.svg	stimuli_distractor_trianglediamonds.svg	17	yes	44	1	692
6.6.1	mac	2022-12-14	13:23:17	13:28:32	314150	61097e0464a4a922602d495b	30703400	1	main_z	7	advance_on_keypress_ZEE	114	stimuli_target_trianglecircles.svg	stimuli_distractor_trianglediamonds.svg	17	yes	57	0	354
6.6.1	mac	2022-12-14	13:23:17	13:28:34	315854	61097e0464a4a922602d495b	30703400	1	main_z	7	main_z	115	stimuli_target_squaretriangles.svg	stimuli_distractor_trianglediamonds.svg	3	yes	44	1	728
6.6.1	mac	2022-12-14	13:23:17	13:28:34	315854	61097e0464a4a922602d495b	30703400	1	main_z	7	advance_on_keypress_ZEE	116	stimuli_target_squaretriangles.svg	stimuli_distractor_trianglediamonds.svg	3	yes	57	0	327
6.6.1	mac	2022-12-14	13:23:17	13:28:35	317342	61097e0464a4a922602d495b	30703400	1	main_z	7	main_z	117	stimuli_target_trianglesquares.svg	stimuli_distractor_trianglediamonds.svg	18	yes	44	1	535
6.6.1	mac	2022-12-14	13:23:17	13:28:35	317342	61097e0464a4a922602d495b	30703400	1	main_z	7	advance_on_keypress_ZEE	118	stimuli_target_trianglesquares.svg	stimuli_distractor_trianglediamonds.svg	18	yes	57	0	329
6.6.1	mac	2022-12-14	13:23:17	13:28:37	318854	61097e0464a4a922602d495b	30703400	1	main_z	7	main_z	119	stimuli_distractor_trianglediamonds.svg	stimuli_target_squaretriangles.svg	11	yes	44	1	551
6.6.1	mac	2022-12-14	13:23:17	13:28:37	318854	61097e0464a4a922602d495b	30703400	1	main_z	7	advance_on_keypress_ZEE	120	stimuli_distractor_trianglediamonds.svg	stimuli_target_squaretriangles.svg	11	yes	57	0	280
6.6.1	mac	2022-12-14	13:23:17	13:28:40	321750	61097e0464a4a922602d495b	30703400	1	main_z	7	main_z	121	stimuli_distractor_diamondtriangles.svg	stimuli_distractor_diamondtriangles.svg	40	no	0	1	2000
6.6.1	mac	2022-12-14	13:23:17	13:28:40	321750	61097e0464a4a922602d495b	30703400	1	main_z	7	advance_on_keypress_ZEE	122	stimuli_distractor_diamondtriangles.svg	stimuli_distractor_diamondtriangles.svg	40	no	57	0	496
6.6.1	mac	2022-12-14	13:23:17	13:28:42	323597	61097e0464a4a922602d495b	30703400	1	main_z	7	main_z	123	stimuli_target_diamondsquares.svg	stimuli_distractor_diamondtriangles.svg	24	yes	44	1	710
6.6.1	mac	2022-12-14	13:23:17	13:28:42	323597	61097e0464a4a922602d495b	30703400	1	main_z	7	advance_on_keypress_ZEE	124	stimuli_target_diamondsquares.svg	stimuli_distractor_diamondtriangles.svg	24	yes	57	0	232
6.6.1	mac	2022-12-14	13:23:17	13:28:43	325078	61097e0464a4a922602d495b	30703400	1	main_z	7	main_z	125	stimuli_distractor_diamondtriangles.svg	stimuli_target_squarediamonds.svg	16	yes	44	1	631
6.6.1	mac	2022-12-14	13:23:17	13:28:43	325078	61097e0464a4a922602d495b	30703400	1	main_z	7	advance_on_keypress_ZEE	126	stimuli_distractor_diamondtriangles.svg	stimuli_target_squarediamonds.svg	16	yes	57	0	242
6.6.1	mac	2022-12-14	13:23:17	13:28:45	326837	61097e0464a4a922602d495b	30703400	1	main_z	7	main_z	127	stimuli_distractor_trianglediamonds.svg	stimuli_target_circletriangles.svg	9	yes	44	1	895
6.6.1	mac	2022-12-14	13:23:17	13:28:45	326837	61097e0464a4a922602d495b	30703400	1	main_z	7	advance_on_keypress_ZEE	128	stimuli_distractor_trianglediamonds.svg	stimuli_target_circletriangles.svg	9	yes	57	0	236
6.6.1	mac	2022-12-14	13:23:17	13:28:46	328229	61097e0464a4a922602d495b	30703400	1	main_z	7	main_z	129	stimuli_distractor_trianglediamonds.svg	stimuli_target_circlediamonds.svg	10	yes	44	1	524
6.6.1	mac	2022-12-14	13:23:17	13:28:46	328229	61097e0464a4a922602d495b	30703400	1	main_z	7	advance_on_keypress_ZEE	130	stimuli_distractor_trianglediamonds.svg	stimuli_target_circlediamonds.svg	10	yes	57	0	203
6.6.1	mac	2022-12-14	13:23:17	13:28:48	329638	61097e0464a4a922602d495b	30703400	1	main_z	7	main_z	131	stimuli_distractor_diamondtriangles.svg	stimuli_target_diamondcircles.svg	31	yes	44	1	560
6.6.1	mac	2022-12-14	13:23:17	13:28:48	329638	61097e0464a4a922602d495b	30703400	1	main_z	7	advance_on_keypress_ZEE	132	stimuli_distractor_diamondtriangles.svg	stimuli_target_diamondcircles.svg	31	yes	57	0	191
6.6.1	mac	2022-12-14	13:23:17	13:28:49	331230	61097e0464a4a922602d495b	30703400	1	main_z	7	main_z	133	stimuli_distractor_trianglediamonds.svg	stimuli_distractor_diamondtriangles.svg	35	no	44	0	770
6.6.1	mac	2022-12-14	13:23:17	13:28:49	331230	61097e0464a4a922602d495b	30703400	1	main_z	7	advance_on_keypress_ZEE	134	stimuli_distractor_trianglediamonds.svg	stimuli_distractor_diamondtriangles.svg	35	no	57	0	251
6.6.1	mac	2022-12-14	13:23:17	13:28:51	332750	61097e0464a4a922602d495b	30703400	1	main_z	7	main_z	135	stimuli_distractor_diamondtriangles.svg	stimuli_target_trianglesquares.svg	30	yes	44	1	632
6.6.1	mac	2022-12-14	13:23:17	13:28:51	332750	61097e0464a4a922602d495b	30703400	1	main_z	7	advance_on_keypress_ZEE	136	stimuli_distractor_diamondtriangles.svg	stimuli_target_trianglesquares.svg	30	yes	57	0	278
6.6.1	mac	2022-12-14	13:23:17	13:28:52	334229	61097e0464a4a922602d495b	30703400	1	main_z	7	main_z	137	stimuli_distractor_diamondtriangles.svg	stimuli_target_trianglecircles.svg	29	yes	44	1	574
6.6.1	mac	2022-12-14	13:23:17	13:28:52	334229	61097e0464a4a922602d495b	30703400	1	main_z	7	advance_on_keypress_ZEE	138	stimuli_distractor_diamondtriangles.svg	stimuli_target_trianglecircles.svg	29	yes	57	0	215
6.6.1	mac	2022-12-14	13:23:17	13:28:54	335749	61097e0464a4a922602d495b	30703400	1	main_z	7	main_z	139	stimuli_distractor_trianglediamonds.svg	stimuli_target_squarediamonds.svg	12	yes	44	1	688
6.6.1	mac	2022-12-14	13:23:17	13:28:54	335749	61097e0464a4a922602d495b	30703400	1	main_z	7	advance_on_keypress_ZEE	140	stimuli_distractor_trianglediamonds.svg	stimuli_target_squarediamonds.svg	12	yes	57	0	247
6.6.1	mac	2022-12-14	13:23:17	13:28:57	338634	61097e0464a4a922602d495b	30703400	1	main_z	7	main_z	141	stimuli_distractor_diamondtriangles.svg	stimuli_distractor_trianglediamonds.svg	38	no	0	1	2000
6.6.1	mac	2022-12-14	13:23:17	13:28:57	338634	61097e0464a4a922602d495b	30703400	1	main_z	7	advance_on_keypress_ZEE	142	stimuli_distractor_diamondtriangles.svg	stimuli_distractor_trianglediamonds.svg	38	no	57	0	750
6.6.1	mac	2022-12-14	13:23:17	13:28:59	340686	61097e0464a4a922602d495b	30703400	1	main_z	7	main_z	143	stimuli_target_diamondsquares.svg	stimuli_distractor_trianglediamonds.svg	20	yes	44	1	674
6.6.1	mac	2022-12-14	13:23:17	13:28:59	340686	61097e0464a4a922602d495b	30703400	1	main_z	7	advance_on_keypress_ZEE	144	stimuli_target_diamondsquares.svg	stimuli_distractor_trianglediamonds.svg	20	yes	57	0	430
6.6.1	mac	2022-12-14	13:23:17	13:29:01	342576	61097e0464a4a922602d495b	30703400	1	main_z	7	main_z	145	stimuli_distractor_trianglediamonds.svg	stimuli_target_trianglesquares.svg	26	yes	44	1	818
6.6.1	mac	2022-12-14	13:23:17	13:29:01	342576	61097e0464a4a922602d495b	30703400	1	main_z	7	advance_on_keypress_ZEE	146	stimuli_distractor_trianglediamonds.svg	stimuli_target_trianglesquares.svg	26	yes	57	0	301
6.6.1	mac	2022-12-14	13:23:17	13:29:02	344150	61097e0464a4a922602d495b	30703400	1	main_z	7	main_z	147	stimuli_target_trianglesquares.svg	stimuli_distractor_diamondtriangles.svg	22	yes	44	1	644
6.6.1	mac	2022-12-14	13:23:17	13:29:02	344150	61097e0464a4a922602d495b	30703400	1	main_z	7	advance_on_keypress_ZEE	148	stimuli_target_trianglesquares.svg	stimuli_distractor_diamondtriangles.svg	22	yes	57	0	317
6.6.1	mac	2022-12-14	13:23:17	13:29:04	345621	61097e0464a4a922602d495b	30703400	1	main_z	7	main_z	149	stimuli_target_trianglecircles.svg	stimuli_distractor_diamondtriangles.svg	21	yes	44	1	517
6.6.1	mac	2022-12-14	13:23:17	13:29:04	345621	61097e0464a4a922602d495b	30703400	1	main_z	7	advance_on_keypress_ZEE	150	stimuli_target_trianglecircles.svg	stimuli_distractor_diamondtriangles.svg	21	yes	57	0	310
6.6.1	mac	2022-12-14	13:23:17	13:29:07	348559	61097e0464a4a922602d495b	30703400	1	main_z	7	main_z	151	stimuli_distractor_diamondtriangles.svg	stimuli_distractor_diamondtriangles.svg	39	no	0	1	2000
6.6.1	mac	2022-12-14	13:23:17	13:29:07	348559	61097e0464a4a922602d495b	30703400	1	main_z	7	advance_on_keypress_ZEE	152	stimuli_distractor_diamondtriangles.svg	stimuli_distractor_diamondtriangles.svg	39	no	57	0	341
6.6.1	mac	2022-12-14	13:23:17	13:29:08	350117	61097e0464a4a922602d495b	30703400	1	main_z	7	main_z	153	stimuli_distractor_trianglediamonds.svg	stimuli_target_diamondsquares.svg	28	yes	44	1	598
6.6.1	mac	2022-12-14	13:23:17	13:29:08	350117	61097e0464a4a922602d495b	30703400	1	main_z	7	advance_on_keypress_ZEE	154	stimuli_distractor_trianglediamonds.svg	stimuli_target_diamondsquares.svg	28	yes	57	0	235
6.6.1	mac	2022-12-14	13:23:17	13:29:10	351567	61097e0464a4a922602d495b	30703400	1	main_z	7	main_z	155	stimuli_target_diamondcircles.svg	stimuli_distractor_diamondtriangles.svg	23	yes	44	1	571
6.6.1	mac	2022-12-14	13:23:17	13:29:10	351567	61097e0464a4a922602d495b	30703400	1	main_z	7	advance_on_keypress_ZEE	156	stimuli_target_diamondcircles.svg	stimuli_distractor_diamondtriangles.svg	23	yes	57	0	215
6.6.1	mac	2022-12-14	13:23:17	13:29:12	354408	61097e0464a4a922602d495b	30703400	1	main_z	7	main_z	157	stimuli_target_circletriangles.svg	stimuli_distractor_diamondtriangles.svg	5	yes	0	0	2000
6.6.1	mac	2022-12-14	13:23:17	13:29:12	354408	61097e0464a4a922602d495b	30703400	1	main_z	7	advance_on_keypress_ZEE	158	stimuli_target_circletriangles.svg	stimuli_distractor_diamondtriangles.svg	5	yes	57	0	476
6.6.1	mac	2022-12-14	13:23:17	13:29:14	356046	61097e0464a4a922602d495b	30703400	1	main_z	7	main_z	159	stimuli_distractor_trianglediamonds.svg	stimuli_target_trianglecircles.svg	25	yes	44	1	538
6.6.1	mac	2022-12-14	13:23:17	13:29:14	356046	61097e0464a4a922602d495b	30703400	1	main_z	7	advance_on_keypress_ZEE	160	stimuli_distractor_trianglediamonds.svg	stimuli_target_trianglecircles.svg	25	yes	57	0	223
6.6.1	mac	2022-12-14	13:23:17	13:29:29	370846	61097e0464a4a922602d495b	30703400	1	practice_slash	9	practice_slash	1	stimuli_target_squarediamonds.svg	stimuli_distractor_diamondtriangles.svg	2	yes	53	1	560
6.6.1	mac	2022-12-14	13:23:17	13:29:29	370846	61097e0464a4a922602d495b	30703400	1	practice_slash	9	advance_on_keypress_SLASH	2	stimuli_target_squarediamonds.svg	stimuli_distractor_diamondtriangles.svg	2	yes	57	0	524
6.6.1	mac	2022-12-14	13:23:17	13:29:33	374990	61097e0464a4a922602d495b	30703400	1	practice_slash	9	practice_slash	3	stimuli_distractor_diamondtriangles.svg	stimuli_distractor_diamondtriangles.svg	13	no	0	1	2000
6.6.1	mac	2022-12-14	13:23:17	13:29:33	374990	61097e0464a4a922602d495b	30703400	1	practice_slash	9	advance_on_keypress_SLASH	4	stimuli_distractor_diamondtriangles.svg	stimuli_distractor_diamondtriangles.svg	13	no	57	0	543
6.6.1	mac	2022-12-14	13:23:17	13:29:36	378014	61097e0464a4a922602d495b	30703400	1	practice_slash	9	practice_slash	5	stimuli_target_diamondsquares.svg	stimuli_distractor_trianglediamonds.svg	6	yes	53	1	851
6.6.1	mac	2022-12-14	13:23:17	13:29:36	378014	61097e0464a4a922602d495b	30703400	1	practice_slash	9	advance_on_keypress_SLASH	6	stimuli_target_diamondsquares.svg	stimuli_distractor_trianglediamonds.svg	6	yes	57	0	936
6.6.1	mac	2022-12-14	13:23:17	13:29:39	381317	61097e0464a4a922602d495b	30703400	1	practice_slash	9	practice_slash	7	stimuli_distractor_trianglediamonds.svg	stimuli_target_squarediamonds.svg	11	yes	53	1	722
6.6.1	mac	2022-12-14	13:23:17	13:29:39	381317	61097e0464a4a922602d495b	30703400	1	practice_slash	9	advance_on_keypress_SLASH	8	stimuli_distractor_trianglediamonds.svg	stimuli_target_squarediamonds.svg	11	yes	57	0	394
6.6.1	mac	2022-12-14	13:23:17	13:29:42	383998	61097e0464a4a922602d495b	30703400	1	practice_slash	9	practice_slash	9	stimuli_target_diamondsquares.svg	stimuli_distractor_diamondtriangles.svg	3	yes	53	1	651
6.6.1	mac	2022-12-14	13:23:17	13:29:42	383998	61097e0464a4a922602d495b	30703400	1	practice_slash	9	advance_on_keypress_SLASH	10	stimuli_target_diamondsquares.svg	stimuli_distractor_diamondtriangles.svg	3	yes	57	0	323
6.6.1	mac	2022-12-14	13:23:17	13:29:44	386517	61097e0464a4a922602d495b	30703400	1	practice_slash	9	practice_slash	11	stimuli_distractor_diamondtriangles.svg	stimuli_target_circletriangles.svg	7	yes	53	1	552
6.6.1	mac	2022-12-14	13:23:17	13:29:44	386517	61097e0464a4a922602d495b	30703400	1	practice_slash	9	advance_on_keypress_SLASH	12	stimuli_distractor_diamondtriangles.svg	stimuli_target_circletriangles.svg	7	yes	57	0	342
6.6.1	mac	2022-12-14	13:23:17	13:29:47	389062	61097e0464a4a922602d495b	30703400	1	practice_slash	9	practice_slash	13	stimuli_distractor_trianglediamonds.svg	stimuli_target_circlediamonds.svg	10	yes	53	1	569
6.6.1	mac	2022-12-14	13:23:17	13:29:47	389062	61097e0464a4a922602d495b	30703400	1	practice_slash	9	advance_on_keypress_SLASH	14	stimuli_distractor_trianglediamonds.svg	stimuli_target_circlediamonds.svg	10	yes	57	0	250
6.6.1	mac	2022-12-14	13:23:17	13:29:50	391655	61097e0464a4a922602d495b	30703400	1	practice_slash	9	practice_slash	15	stimuli_target_squarediamonds.svg	stimuli_distractor_trianglediamonds.svg	5	yes	53	1	698
6.6.1	mac	2022-12-14	13:23:17	13:29:50	391655	61097e0464a4a922602d495b	30703400	1	practice_slash	9	advance_on_keypress_SLASH	16	stimuli_target_squarediamonds.svg	stimuli_distractor_trianglediamonds.svg	5	yes	57	0	432
6.6.1	mac	2022-12-14	13:23:17	13:29:52	394222	61097e0464a4a922602d495b	30703400	1	practice_slash	9	practice_slash	17	stimuli_distractor_trianglediamonds.svg	stimuli_target_diamondcircles.svg	12	yes	53	1	498
6.6.1	mac	2022-12-14	13:23:17	13:29:52	394222	61097e0464a4a922602d495b	30703400	1	practice_slash	9	advance_on_keypress_SLASH	18	stimuli_distractor_trianglediamonds.svg	stimuli_target_diamondcircles.svg	12	yes	57	0	281
6.6.1	mac	2022-12-14	13:23:17	13:29:55	396774	61097e0464a4a922602d495b	30703400	1	practice_slash	9	practice_slash	19	stimuli_distractor_trianglediamonds.svg	stimuli_distractor_diamondtriangles.svg	16	no	53	0	647
6.6.1	mac	2022-12-14	13:23:17	13:29:55	396774	61097e0464a4a922602d495b	30703400	1	practice_slash	9	advance_on_keypress_SLASH	20	stimuli_distractor_trianglediamonds.svg	stimuli_distractor_diamondtriangles.svg	16	no	57	0	572
6.6.1	mac	2022-12-14	13:23:17	13:29:58	399590	61097e0464a4a922602d495b	30703400	1	practice_slash	9	practice_slash	21	stimuli_target_circlediamonds.svg	stimuli_distractor_trianglediamonds.svg	4	yes	53	1	608
6.6.1	mac	2022-12-14	13:23:17	13:29:58	399590	61097e0464a4a922602d495b	30703400	1	practice_slash	9	advance_on_keypress_SLASH	22	stimuli_target_circlediamonds.svg	stimuli_distractor_trianglediamonds.svg	4	yes	57	0	536
6.6.1	mac	2022-12-14	13:23:17	13:30:01	403015	61097e0464a4a922602d495b	30703400	1	practice_slash	9	practice_slash	23	stimuli_distractor_trianglediamonds.svg	stimuli_distractor_trianglediamonds.svg	15	no	53	0	1256
6.6.1	mac	2022-12-14	13:23:17	13:30:01	403015	61097e0464a4a922602d495b	30703400	1	practice_slash	9	advance_on_keypress_SLASH	24	stimuli_distractor_trianglediamonds.svg	stimuli_distractor_trianglediamonds.svg	15	no	57	0	566
6.6.1	mac	2022-12-14	13:23:17	13:30:04	405798	61097e0464a4a922602d495b	30703400	1	practice_slash	9	practice_slash	25	stimuli_distractor_diamondtriangles.svg	stimuli_target_trianglecircles.svg	9	yes	53	1	582
6.6.1	mac	2022-12-14	13:23:17	13:30:04	405798	61097e0464a4a922602d495b	30703400	1	practice_slash	9	advance_on_keypress_SLASH	26	stimuli_distractor_diamondtriangles.svg	stimuli_target_trianglecircles.svg	9	yes	57	0	282
6.6.1	mac	2022-12-14	13:23:17	13:30:06	408326	61097e0464a4a922602d495b	30703400	1	practice_slash	9	practice_slash	27	stimuli_target_circlediamonds.svg	stimuli_distractor_diamondtriangles.svg	1	yes	53	1	602
6.6.1	mac	2022-12-14	13:23:17	13:30:06	408326	61097e0464a4a922602d495b	30703400	1	practice_slash	9	advance_on_keypress_SLASH	28	stimuli_target_circlediamonds.svg	stimuli_distractor_diamondtriangles.svg	1	yes	57	0	360
6.6.1	mac	2022-12-14	13:23:17	13:30:09	410862	61097e0464a4a922602d495b	30703400	1	practice_slash	9	practice_slash	29	stimuli_distractor_diamondtriangles.svg	stimuli_target_diamondcircles.svg	8	yes	53	1	539
6.6.1	mac	2022-12-14	13:23:17	13:30:09	410862	61097e0464a4a922602d495b	30703400	1	practice_slash	9	advance_on_keypress_SLASH	30	stimuli_distractor_diamondtriangles.svg	stimuli_target_diamondcircles.svg	8	yes	57	0	478
6.6.1	mac	2022-12-14	13:23:17	13:30:13	414975	61097e0464a4a922602d495b	30703400	1	practice_slash	9	practice_slash	31	stimuli_distractor_diamondtriangles.svg	stimuli_distractor_trianglediamonds.svg	14	no	0	1	2000
6.6.1	mac	2022-12-14	13:23:17	13:30:13	414975	61097e0464a4a922602d495b	30703400	1	practice_slash	9	advance_on_keypress_SLASH	32	stimuli_distractor_diamondtriangles.svg	stimuli_distractor_trianglediamonds.svg	14	no	57	0	514
6.6.1	mac	2022-12-14	13:23:17	13:30:16	418437	61097e0464a4a922602d495b	30703400	1	main_slash	11	main_slash	1	stimuli_distractor_diamondtriangles.svg	stimuli_target_trianglecircles.svg	29	yes	53	1	857
6.6.1	mac	2022-12-14	13:23:17	13:30:16	418437	61097e0464a4a922602d495b	30703400	1	main_slash	11	advance_on_keypress_SLASH	2	stimuli_distractor_diamondtriangles.svg	stimuli_target_trianglecircles.svg	29	yes	57	0	657
6.6.1	mac	2022-12-14	13:23:17	13:30:18	420325	61097e0464a4a922602d495b	30703400	1	main_slash	11	main_slash	3	stimuli_target_circletriangles.svg	stimuli_distractor_diamondtriangles.svg	5	yes	53	1	599
6.6.1	mac	2022-12-14	13:23:17	13:30:18	420325	61097e0464a4a922602d495b	30703400	1	main_slash	11	advance_on_keypress_SLASH	4	stimuli_target_circletriangles.svg	stimuli_distractor_diamondtriangles.svg	5	yes	57	0	534
6.6.1	mac	2022-12-14	13:23:17	13:30:20	422286	61097e0464a4a922602d495b	30703400	1	main_slash	11	main_slash	5	stimuli_target_circletriangles.svg	stimuli_distractor_trianglediamonds.svg	1	yes	53	1	798
6.6.1	mac	2022-12-14	13:23:17	13:30:20	422286	61097e0464a4a922602d495b	30703400	1	main_slash	11	advance_on_keypress_SLASH	6	stimuli_target_circletriangles.svg	stimuli_distractor_trianglediamonds.svg	1	yes	57	0	1038
6.6.1	mac	2022-12-14	13:23:17	13:30:23	424653	61097e0464a4a922602d495b	30703400	1	main_slash	11	main_slash	7	stimuli_target_diamondsquares.svg	stimuli_distractor_diamondtriangles.svg	24	yes	53	1	693
6.6.1	mac	2022-12-14	13:23:17	13:30:23	424653	61097e0464a4a922602d495b	30703400	1	main_slash	11	advance_on_keypress_SLASH	8	stimuli_target_diamondsquares.svg	stimuli_distractor_diamondtriangles.svg	24	yes	57	0	453
6.6.1	mac	2022-12-14	13:23:17	13:30:24	426333	61097e0464a4a922602d495b	30703400	1	main_slash	11	main_slash	9	stimuli_distractor_trianglediamonds.svg	stimuli_target_diamondcircles.svg	27	yes	53	1	594
6.6.1	mac	2022-12-14	13:23:17	13:30:24	426333	61097e0464a4a922602d495b	30703400	1	main_slash	11	advance_on_keypress_SLASH	10	stimuli_distractor_trianglediamonds.svg	stimuli_target_diamondcircles.svg	27	yes	57	0	325
6.6.1	mac	2022-12-14	13:23:17	13:30:26	427813	61097e0464a4a922602d495b	30703400	1	main_slash	11	main_slash	11	stimuli_target_diamondcircles.svg	stimuli_distractor_trianglediamonds.svg	19	yes	53	1	536
6.6.1	mac	2022-12-14	13:23:17	13:30:26	427813	61097e0464a4a922602d495b	30703400	1	main_slash	11	advance_on_keypress_SLASH	12	stimuli_target_diamondcircles.svg	stimuli_distractor_trianglediamonds.svg	19	yes	57	0	293
6.6.1	mac	2022-12-14	13:23:17	13:30:29	430735	61097e0464a4a922602d495b	30703400	1	main_slash	11	main_slash	13	stimuli_distractor_trianglediamonds.svg	stimuli_distractor_trianglediamonds.svg	34	no	0	1	2000
6.6.1	mac	2022-12-14	13:23:17	13:30:29	430735	61097e0464a4a922602d495b	30703400	1	main_slash	11	advance_on_keypress_SLASH	14	stimuli_distractor_trianglediamonds.svg	stimuli_distractor_trianglediamonds.svg	34	no	57	0	383
6.6.1	mac	2022-12-14	13:23:17	13:30:32	433744	61097e0464a4a922602d495b	30703400	1	main_slash	11	main_slash	15	stimuli_distractor_trianglediamonds.svg	stimuli_distractor_diamondtriangles.svg	35	no	0	1	2000
6.6.1	mac	2022-12-14	13:23:17	13:30:32	433744	61097e0464a4a922602d495b	30703400	1	main_slash	11	advance_on_keypress_SLASH	16	stimuli_distractor_trianglediamonds.svg	stimuli_distractor_diamondtriangles.svg	35	no	57	0	401
6.6.1	mac	2022-12-14	13:23:17	13:30:33	435278	61097e0464a4a922602d495b	30703400	1	main_slash	11	main_slash	17	stimuli_target_squaretriangles.svg	stimuli_distractor_trianglediamonds.svg	3	yes	53	1	506
6.6.1	mac	2022-12-14	13:23:17	13:30:33	435278	61097e0464a4a922602d495b	30703400	1	main_slash	11	advance_on_keypress_SLASH	18	stimuli_target_squaretriangles.svg	stimuli_distractor_trianglediamonds.svg	3	yes	57	0	366
6.6.1	mac	2022-12-14	13:23:17	13:30:35	437246	61097e0464a4a922602d495b	30703400	1	main_slash	11	main_slash	19	stimuli_target_circlediamonds.svg	stimuli_distractor_diamondtriangles.svg	6	yes	53	1	955
6.6.1	mac	2022-12-14	13:23:17	13:30:35	437246	61097e0464a4a922602d495b	30703400	1	main_slash	11	advance_on_keypress_SLASH	20	stimuli_target_circlediamonds.svg	stimuli_distractor_diamondtriangles.svg	6	yes	57	0	484
6.6.1	mac	2022-12-14	13:23:17	13:30:37	439429	61097e0464a4a922602d495b	30703400	1	main_slash	11	main_slash	21	stimuli_distractor_diamondtriangles.svg	stimuli_target_squarediamonds.svg	16	yes	53	1	1066
6.6.1	mac	2022-12-14	13:23:17	13:30:37	439429	61097e0464a4a922602d495b	30703400	1	main_slash	11	advance_on_keypress_SLASH	22	stimuli_distractor_diamondtriangles.svg	stimuli_target_squarediamonds.svg	16	yes	57	0	826
6.6.1	mac	2022-12-14	13:23:17	13:30:40	442109	61097e0464a4a922602d495b	30703400	1	main_slash	11	main_slash	23	stimuli_distractor_trianglediamonds.svg	stimuli_target_diamondsquares.svg	28	yes	53	1	1219
6.6.1	mac	2022-12-14	13:23:17	13:30:40	442109	61097e0464a4a922602d495b	30703400	1	main_slash	11	advance_on_keypress_SLASH	24	stimuli_distractor_trianglediamonds.svg	stimuli_target_diamondsquares.svg	28	yes	57	0	403
6.6.1	mac	2022-12-14	13:23:17	13:30:43	445153	61097e0464a4a922602d495b	30703400	1	main_slash	11	main_slash	25	stimuli_distractor_diamondtriangles.svg	stimuli_distractor_diamondtriangles.svg	40	no	0	1	2000
6.6.1	mac	2022-12-14	13:23:17	13:30:43	445153	61097e0464a4a922602d495b	30703400	1	main_slash	11	advance_on_keypress_SLASH	26	stimuli_distractor_diamondtriangles.svg	stimuli_distractor_diamondtriangles.svg	40	no	57	0	320
6.6.1	mac	2022-12-14	13:23:17	13:30:45	446758	61097e0464a4a922602d495b	30703400	1	main_slash	11	main_slash	27	stimuli_target_diamondcircles.svg	stimuli_distractor_diamondtriangles.svg	23	yes	53	1	652
6.6.1	mac	2022-12-14	13:23:17	13:30:45	446758	61097e0464a4a922602d495b	30703400	1	main_slash	11	advance_on_keypress_SLASH	28	stimuli_target_diamondcircles.svg	stimuli_distractor_diamondtriangles.svg	23	yes	57	0	232
6.6.1	mac	2022-12-14	13:23:17	13:30:48	449609	61097e0464a4a922602d495b	30703400	1	main_slash	11	main_slash	29	stimuli_distractor_trianglediamonds.svg	stimuli_distractor_diamondtriangles.svg	36	no	0	1	2000
6.6.1	mac	2022-12-14	13:23:17	13:30:48	449609	61097e0464a4a922602d495b	30703400	1	main_slash	11	advance_on_keypress_SLASH	30	stimuli_distractor_trianglediamonds.svg	stimuli_distractor_diamondtriangles.svg	36	no	57	0	334
6.6.1	mac	2022-12-14	13:23:17	13:30:49	451270	61097e0464a4a922602d495b	30703400	1	main_slash	11	main_slash	31	stimuli_distractor_diamondtriangles.svg	stimuli_target_squaretriangles.svg	15	yes	53	1	704
6.6.1	mac	2022-12-14	13:23:17	13:30:49	451270	61097e0464a4a922602d495b	30703400	1	main_slash	11	advance_on_keypress_SLASH	32	stimuli_distractor_diamondtriangles.svg	stimuli_target_squaretriangles.svg	15	yes	57	0	234
6.6.1	mac	2022-12-14	13:23:17	13:30:51	452814	61097e0464a4a922602d495b	30703400	1	main_slash	11	main_slash	33	stimuli_distractor_trianglediamonds.svg	stimuli_target_trianglecircles.svg	25	yes	53	1	680
6.6.1	mac	2022-12-14	13:23:17	13:30:51	452814	61097e0464a4a922602d495b	30703400	1	main_slash	11	advance_on_keypress_SLASH	34	stimuli_distractor_trianglediamonds.svg	stimuli_target_trianglecircles.svg	25	yes	57	0	300
6.6.1	mac	2022-12-14	13:23:17	13:30:54	455753	61097e0464a4a922602d495b	30703400	1	main_slash	11	main_slash	35	stimuli_distractor_diamondtriangles.svg	stimuli_distractor_diamondtriangles.svg	39	no	0	1	2000
6.6.1	mac	2022-12-14	13:23:17	13:30:54	455753	61097e0464a4a922602d495b	30703400	1	main_slash	11	advance_on_keypress_SLASH	36	stimuli_distractor_diamondtriangles.svg	stimuli_distractor_diamondtriangles.svg	39	no	57	0	527
6.6.1	mac	2022-12-14	13:23:17	13:30:56	457709	61097e0464a4a922602d495b	30703400	1	main_slash	11	main_slash	37	stimuli_distractor_diamondtriangles.svg	stimuli_target_circlediamonds.svg	14	yes	53	1	806
6.6.1	mac	2022-12-14	13:23:17	13:30:56	457709	61097e0464a4a922602d495b	30703400	1	main_slash	11	advance_on_keypress_SLASH	38	stimuli_distractor_diamondtriangles.svg	stimuli_target_circlediamonds.svg	14	yes	57	0	280
6.6.1	mac	2022-12-14	13:23:17	13:30:57	459310	61097e0464a4a922602d495b	30703400	1	main_slash	11	main_slash	39	stimuli_target_squarediamonds.svg	stimuli_distractor_trianglediamonds.svg	4	yes	53	1	690
6.6.1	mac	2022-12-14	13:23:17	13:30:57	459310	61097e0464a4a922602d495b	30703400	1	main_slash	11	advance_on_keypress_SLASH	40	stimuli_target_squarediamonds.svg	stimuli_distractor_trianglediamonds.svg	4	yes	57	0	275
6.6.1	mac	2022-12-14	13:23:17	13:30:59	461302	61097e0464a4a922602d495b	30703400	1	main_slash	11	main_slash	41	stimuli_target_diamondsquares.svg	stimuli_distractor_trianglediamonds.svg	20	yes	53	1	1087
6.6.1	mac	2022-12-14	13:23:17	13:30:59	461302	61097e0464a4a922602d495b	30703400	1	main_slash	11	advance_on_keypress_SLASH	42	stimuli_target_diamondsquares.svg	stimuli_distractor_trianglediamonds.svg	20	yes	57	0	237
6.6.1	mac	2022-12-14	13:23:17	13:31:01	462789	61097e0464a4a922602d495b	30703400	1	main_slash	11	main_slash	43	stimuli_target_squarediamonds.svg	stimuli_distractor_diamondtriangles.svg	8	yes	53	1	608
6.6.1	mac	2022-12-14	13:23:17	13:31:01	462789	61097e0464a4a922602d495b	30703400	1	main_slash	11	advance_on_keypress_SLASH	44	stimuli_target_squarediamonds.svg	stimuli_distractor_diamondtriangles.svg	8	yes	57	0	267
6.6.1	mac	2022-12-14	13:23:17	13:31:04	465697	61097e0464a4a922602d495b	30703400	1	main_slash	11	main_slash	45	stimuli_distractor_diamondtriangles.svg	stimuli_distractor_trianglediamonds.svg	37	no	0	1	2000
6.6.1	mac	2022-12-14	13:23:17	13:31:04	465697	61097e0464a4a922602d495b	30703400	1	main_slash	11	advance_on_keypress_SLASH	46	stimuli_distractor_diamondtriangles.svg	stimuli_distractor_trianglediamonds.svg	37	no	57	0	432
6.6.1	mac	2022-12-14	13:23:17	13:31:07	468760	61097e0464a4a922602d495b	30703400	1	main_slash	11	main_slash	47	stimuli_distractor_trianglediamonds.svg	stimuli_distractor_trianglediamonds.svg	33	no	0	1	2000
6.6.1	mac	2022-12-14	13:23:17	13:31:07	468760	61097e0464a4a922602d495b	30703400	1	main_slash	11	advance_on_keypress_SLASH	48	stimuli_distractor_trianglediamonds.svg	stimuli_distractor_trianglediamonds.svg	33	no	57	0	453
6.6.1	mac	2022-12-14	13:23:17	13:31:09	470654	61097e0464a4a922602d495b	30703400	1	main_slash	11	main_slash	49	stimuli_distractor_diamondtriangles.svg	stimuli_target_diamondcircles.svg	31	yes	53	1	808
6.6.1	mac	2022-12-14	13:23:17	13:31:09	470654	61097e0464a4a922602d495b	30703400	1	main_slash	11	advance_on_keypress_SLASH	50	stimuli_distractor_diamondtriangles.svg	stimuli_target_diamondcircles.svg	31	yes	57	0	341
6.6.1	mac	2022-12-14	13:23:17	13:31:10	472229	61097e0464a4a922602d495b	30703400	1	main_slash	11	main_slash	51	stimuli_distractor_trianglediamonds.svg	stimuli_target_squaretriangles.svg	11	yes	53	1	610
6.6.1	mac	2022-12-14	13:23:17	13:31:10	472229	61097e0464a4a922602d495b	30703400	1	main_slash	11	advance_on_keypress_SLASH	52	stimuli_distractor_trianglediamonds.svg	stimuli_target_squaretriangles.svg	11	yes	57	0	361
6.6.1	mac	2022-12-14	13:23:17	13:31:12	473974	61097e0464a4a922602d495b	30703400	1	main_slash	11	main_slash	53	stimuli_target_trianglesquares.svg	stimuli_distractor_trianglediamonds.svg	18	yes	53	1	751
6.6.1	mac	2022-12-14	13:23:17	13:31:12	473974	61097e0464a4a922602d495b	30703400	1	main_slash	11	advance_on_keypress_SLASH	54	stimuli_target_trianglesquares.svg	stimuli_distractor_trianglediamonds.svg	18	yes	57	0	337
6.6.1	mac	2022-12-14	13:23:17	13:31:15	476943	61097e0464a4a922602d495b	30703400	1	main_slash	11	main_slash	55	stimuli_distractor_diamondtriangles.svg	stimuli_distractor_trianglediamonds.svg	38	no	0	1	2000
6.6.1	mac	2022-12-14	13:23:17	13:31:15	476943	61097e0464a4a922602d495b	30703400	1	main_slash	11	advance_on_keypress_SLASH	56	stimuli_distractor_diamondtriangles.svg	stimuli_distractor_trianglediamonds.svg	38	no	57	0	464
6.6.1	mac	2022-12-14	13:23:17	13:31:17	478934	61097e0464a4a922602d495b	30703400	1	main_slash	11	main_slash	57	stimuli_target_circlediamonds.svg	stimuli_distractor_trianglediamonds.svg	2	yes	53	1	904
6.6.1	mac	2022-12-14	13:23:17	13:31:17	478934	61097e0464a4a922602d495b	30703400	1	main_slash	11	advance_on_keypress_SLASH	58	stimuli_target_circlediamonds.svg	stimuli_distractor_trianglediamonds.svg	2	yes	57	0	342
6.6.1	mac	2022-12-14	13:23:17	13:31:19	481118	61097e0464a4a922602d495b	30703400	1	main_slash	11	main_slash	59	stimuli_distractor_trianglediamonds.svg	stimuli_target_circlediamonds.svg	10	yes	53	1	1220
6.6.1	mac	2022-12-14	13:23:17	13:31:19	481118	61097e0464a4a922602d495b	30703400	1	main_slash	11	advance_on_keypress_SLASH	60	stimuli_distractor_trianglediamonds.svg	stimuli_target_circlediamonds.svg	10	yes	57	0	331
6.6.1	mac	2022-12-14	13:23:17	13:31:21	483102	61097e0464a4a922602d495b	30703400	1	main_slash	11	main_slash	61	stimuli_distractor_diamondtriangles.svg	stimuli_target_trianglesquares.svg	30	yes	53	1	1017
6.6.1	mac	2022-12-14	13:23:17	13:31:21	483102	61097e0464a4a922602d495b	30703400	1	main_slash	11	advance_on_keypress_SLASH	62	stimuli_distractor_diamondtriangles.svg	stimuli_target_trianglesquares.svg	30	yes	57	0	339
6.6.1	mac	2022-12-14	13:23:17	13:31:23	484703	61097e0464a4a922602d495b	30703400	1	main_slash	11	main_slash	63	stimuli_distractor_trianglediamonds.svg	stimuli_target_squarediamonds.svg	12	yes	53	1	623
6.6.1	mac	2022-12-14	13:23:17	13:31:23	484703	61097e0464a4a922602d495b	30703400	1	main_slash	11	advance_on_keypress_SLASH	64	stimuli_distractor_trianglediamonds.svg	stimuli_target_squarediamonds.svg	12	yes	57	0	209
6.6.1	mac	2022-12-14	13:23:17	13:31:24	486094	61097e0464a4a922602d495b	30703400	1	main_slash	11	main_slash	65	stimuli_distractor_trianglediamonds.svg	stimuli_target_circletriangles.svg	9	yes	53	1	556
6.6.1	mac	2022-12-14	13:23:17	13:31:24	486094	61097e0464a4a922602d495b	30703400	1	main_slash	11	advance_on_keypress_SLASH	66	stimuli_distractor_trianglediamonds.svg	stimuli_target_circletriangles.svg	9	yes	57	0	192
6.6.1	mac	2022-12-14	13:23:17	13:31:26	487591	61097e0464a4a922602d495b	30703400	1	main_slash	11	main_slash	67	stimuli_distractor_diamondtriangles.svg	stimuli_target_diamondsquares.svg	32	yes	53	1	668
6.6.1	mac	2022-12-14	13:23:17	13:31:26	487591	61097e0464a4a922602d495b	30703400	1	main_slash	11	advance_on_keypress_SLASH	68	stimuli_distractor_diamondtriangles.svg	stimuli_target_diamondsquares.svg	32	yes	57	0	180
6.6.1	mac	2022-12-14	13:23:17	13:31:27	488917	61097e0464a4a922602d495b	30703400	1	main_slash	11	main_slash	69	stimuli_target_trianglecircles.svg	stimuli_distractor_diamondtriangles.svg	21	yes	53	1	518
6.6.1	mac	2022-12-14	13:23:17	13:31:27	488917	61097e0464a4a922602d495b	30703400	1	main_slash	11	advance_on_keypress_SLASH	70	stimuli_target_trianglecircles.svg	stimuli_distractor_diamondtriangles.svg	21	yes	57	0	133
6.6.1	mac	2022-12-14	13:23:17	13:31:28	490103	61097e0464a4a922602d495b	30703400	1	main_slash	11	main_slash	71	stimuli_target_trianglecircles.svg	stimuli_distractor_trianglediamonds.svg	17	yes	53	1	431
6.6.1	mac	2022-12-14	13:23:17	13:31:28	490103	61097e0464a4a922602d495b	30703400	1	main_slash	11	advance_on_keypress_SLASH	72	stimuli_target_trianglecircles.svg	stimuli_distractor_trianglediamonds.svg	17	yes	57	0	117
6.6.1	mac	2022-12-14	13:23:17	13:31:29	491486	61097e0464a4a922602d495b	30703400	1	main_slash	11	main_slash	73	stimuli_target_trianglesquares.svg	stimuli_distractor_diamondtriangles.svg	22	yes	53	1	635
6.6.1	mac	2022-12-14	13:23:17	13:31:29	491486	61097e0464a4a922602d495b	30703400	1	main_slash	11	advance_on_keypress_SLASH	74	stimuli_target_trianglesquares.svg	stimuli_distractor_diamondtriangles.svg	22	yes	57	0	101
6.6.1	mac	2022-12-14	13:23:17	13:31:31	492798	61097e0464a4a922602d495b	30703400	1	main_slash	11	main_slash	75	stimuli_distractor_trianglediamonds.svg	stimuli_target_trianglesquares.svg	26	yes	53	1	576
6.6.1	mac	2022-12-14	13:23:17	13:31:31	492798	61097e0464a4a922602d495b	30703400	1	main_slash	11	advance_on_keypress_SLASH	76	stimuli_distractor_trianglediamonds.svg	stimuli_target_trianglesquares.svg	26	yes	57	0	290
6.6.1	mac	2022-12-14	13:23:17	13:31:32	494351	61097e0464a4a922602d495b	30703400	1	main_slash	11	main_slash	77	stimuli_distractor_diamondtriangles.svg	stimuli_target_circletriangles.svg	13	yes	53	1	624
6.6.1	mac	2022-12-14	13:23:17	13:31:32	494351	61097e0464a4a922602d495b	30703400	1	main_slash	11	advance_on_keypress_SLASH	78	stimuli_distractor_diamondtriangles.svg	stimuli_target_circletriangles.svg	13	yes	57	0	557
6.6.1	mac	2022-12-14	13:23:17	13:31:34	496119	61097e0464a4a922602d495b	30703400	1	main_slash	11	main_slash	79	stimuli_target_squaretriangles.svg	stimuli_distractor_diamondtriangles.svg	7	yes	53	1	586
6.6.1	mac	2022-12-14	13:23:17	13:31:34	496119	61097e0464a4a922602d495b	30703400	1	main_slash	11	advance_on_keypress_SLASH	80	stimuli_target_squaretriangles.svg	stimuli_distractor_diamondtriangles.svg	7	yes	57	0	149
6.6.1	mac	2022-12-14	13:23:17	13:31:35	497382	61097e0464a4a922602d495b	30703400	1	main_slash	11	main_slash	81	stimuli_target_circletriangles.svg	stimuli_distractor_diamondtriangles.svg	5	yes	53	1	488
6.6.1	mac	2022-12-14	13:23:17	13:31:35	497382	61097e0464a4a922602d495b	30703400	1	main_slash	11	advance_on_keypress_SLASH	82	stimuli_target_circletriangles.svg	stimuli_distractor_diamondtriangles.svg	5	yes	57	0	157
6.6.1	mac	2022-12-14	13:23:17	13:31:38	500166	61097e0464a4a922602d495b	30703400	1	main_slash	11	main_slash	83	stimuli_distractor_diamondtriangles.svg	stimuli_distractor_diamondtriangles.svg	40	no	0	1	2000
6.6.1	mac	2022-12-14	13:23:17	13:31:38	500166	61097e0464a4a922602d495b	30703400	1	main_slash	11	advance_on_keypress_SLASH	84	stimuli_distractor_diamondtriangles.svg	stimuli_distractor_diamondtriangles.svg	40	no	57	0	351
6.6.1	mac	2022-12-14	13:23:17	13:31:40	501734	61097e0464a4a922602d495b	30703400	1	main_slash	11	main_slash	85	stimuli_target_circletriangles.svg	stimuli_distractor_trianglediamonds.svg	1	yes	53	1	592
6.6.1	mac	2022-12-14	13:23:17	13:31:40	501734	61097e0464a4a922602d495b	30703400	1	main_slash	11	advance_on_keypress_SLASH	86	stimuli_target_circletriangles.svg	stimuli_distractor_trianglediamonds.svg	1	yes	57	0	167
6.6.1	mac	2022-12-14	13:23:17	13:31:41	503103	61097e0464a4a922602d495b	30703400	1	main_slash	11	main_slash	87	stimuli_target_squarediamonds.svg	stimuli_distractor_diamondtriangles.svg	8	yes	53	1	566
6.6.1	mac	2022-12-14	13:23:17	13:31:41	503103	61097e0464a4a922602d495b	30703400	1	main_slash	11	advance_on_keypress_SLASH	88	stimuli_target_squarediamonds.svg	stimuli_distractor_diamondtriangles.svg	8	yes	57	0	137
6.6.1	mac	2022-12-14	13:23:17	13:31:43	504614	61097e0464a4a922602d495b	30703400	1	main_slash	11	main_slash	89	stimuli_target_squarediamonds.svg	stimuli_distractor_trianglediamonds.svg	4	yes	53	1	740
6.6.1	mac	2022-12-14	13:23:17	13:31:43	504614	61097e0464a4a922602d495b	30703400	1	main_slash	11	advance_on_keypress_SLASH	90	stimuli_target_squarediamonds.svg	stimuli_distractor_trianglediamonds.svg	4	yes	57	0	216
6.6.1	mac	2022-12-14	13:23:17	13:31:44	505967	61097e0464a4a922602d495b	30703400	1	main_slash	11	main_slash	91	stimuli_target_trianglecircles.svg	stimuli_distractor_trianglediamonds.svg	17	yes	53	1	505
6.6.1	mac	2022-12-14	13:23:17	13:31:44	505967	61097e0464a4a922602d495b	30703400	1	main_slash	11	advance_on_keypress_SLASH	92	stimuli_target_trianglecircles.svg	stimuli_distractor_trianglediamonds.svg	17	yes	57	0	132
6.6.1	mac	2022-12-14	13:23:17	13:31:45	507295	61097e0464a4a922602d495b	30703400	1	main_slash	11	main_slash	93	stimuli_target_trianglesquares.svg	stimuli_distractor_diamondtriangles.svg	22	yes	53	1	566
6.6.1	mac	2022-12-14	13:23:17	13:31:45	507295	61097e0464a4a922602d495b	30703400	1	main_slash	11	advance_on_keypress_SLASH	94	stimuli_target_trianglesquares.svg	stimuli_distractor_diamondtriangles.svg	22	yes	57	0	211
6.6.1	mac	2022-12-14	13:23:17	13:31:48	510128	61097e0464a4a922602d495b	30703400	1	main_slash	11	main_slash	95	stimuli_target_squaretriangles.svg	stimuli_distractor_trianglediamonds.svg	3	yes	0	0	2000
6.6.1	mac	2022-12-14	13:23:17	13:31:48	510128	61097e0464a4a922602d495b	30703400	1	main_slash	11	advance_on_keypress_SLASH	96	stimuli_target_squaretriangles.svg	stimuli_distractor_trianglediamonds.svg	3	yes	57	0	397
6.6.1	mac	2022-12-14	13:23:17	13:31:51	513175	61097e0464a4a922602d495b	30703400	1	main_slash	11	main_slash	97	stimuli_distractor_trianglediamonds.svg	stimuli_distractor_trianglediamonds.svg	34	no	0	1	2000
6.6.1	mac	2022-12-14	13:23:17	13:31:51	513175	61097e0464a4a922602d495b	30703400	1	main_slash	11	advance_on_keypress_SLASH	98	stimuli_distractor_trianglediamonds.svg	stimuli_distractor_trianglediamonds.svg	34	no	57	0	334
6.6.1	mac	2022-12-14	13:23:17	13:31:54	516131	61097e0464a4a922602d495b	30703400	1	main_slash	11	main_slash	99	stimuli_distractor_diamondtriangles.svg	stimuli_distractor_trianglediamonds.svg	37	no	0	1	2000
6.6.1	mac	2022-12-14	13:23:17	13:31:54	516131	61097e0464a4a922602d495b	30703400	1	main_slash	11	advance_on_keypress_SLASH	100	stimuli_distractor_diamondtriangles.svg	stimuli_distractor_trianglediamonds.svg	37	no	57	0	570
6.6.1	mac	2022-12-14	13:23:17	13:31:56	518326	61097e0464a4a922602d495b	30703400	1	main_slash	11	main_slash	101	stimuli_target_diamondsquares.svg	stimuli_distractor_diamondtriangles.svg	24	yes	53	1	975
6.6.1	mac	2022-12-14	13:23:17	13:31:56	518326	61097e0464a4a922602d495b	30703400	1	main_slash	11	advance_on_keypress_SLASH	102	stimuli_target_diamondsquares.svg	stimuli_distractor_diamondtriangles.svg	24	yes	57	0	143
6.6.1	mac	2022-12-14	13:23:17	13:31:58	519695	61097e0464a4a922602d495b	30703400	1	main_slash	11	main_slash	103	stimuli_distractor_trianglediamonds.svg	stimuli_target_circletriangles.svg	9	yes	53	1	587
6.6.1	mac	2022-12-14	13:23:17	13:31:58	519695	61097e0464a4a922602d495b	30703400	1	main_slash	11	advance_on_keypress_SLASH	104	stimuli_distractor_trianglediamonds.svg	stimuli_target_circletriangles.svg	9	yes	57	0	131
6.6.1	mac	2022-12-14	13:23:17	13:31:59	520951	61097e0464a4a922602d495b	30703400	1	main_slash	11	main_slash	105	stimuli_distractor_diamondtriangles.svg	stimuli_target_trianglecircles.svg	29	yes	53	1	491
6.6.1	mac	2022-12-14	13:23:17	13:31:59	520951	61097e0464a4a922602d495b	30703400	1	main_slash	11	advance_on_keypress_SLASH	106	stimuli_distractor_diamondtriangles.svg	stimuli_target_trianglecircles.svg	29	yes	57	0	128
6.6.1	mac	2022-12-14	13:23:17	13:32:00	522340	61097e0464a4a922602d495b	30703400	1	main_slash	11	main_slash	107	stimuli_distractor_trianglediamonds.svg	stimuli_target_circlediamonds.svg	10	yes	53	1	621
6.6.1	mac	2022-12-14	13:23:17	13:32:00	522340	61097e0464a4a922602d495b	30703400	1	main_slash	11	advance_on_keypress_SLASH	108	stimuli_distractor_trianglediamonds.svg	stimuli_target_circlediamonds.svg	10	yes	57	0	127
6.6.1	mac	2022-12-14	13:23:17	13:32:01	523518	61097e0464a4a922602d495b	30703400	1	main_slash	11	main_slash	109	stimuli_distractor_diamondtriangles.svg	stimuli_target_diamondcircles.svg	31	yes	53	1	428
6.6.1	mac	2022-12-14	13:23:17	13:32:01	523518	61097e0464a4a922602d495b	30703400	1	main_slash	11	advance_on_keypress_SLASH	110	stimuli_distractor_diamondtriangles.svg	stimuli_target_diamondcircles.svg	31	yes	57	0	133
6.6.1	mac	2022-12-14	13:23:17	13:32:03	524870	61097e0464a4a922602d495b	30703400	1	main_slash	11	main_slash	111	stimuli_distractor_trianglediamonds.svg	stimuli_target_squarediamonds.svg	12	yes	53	1	585
6.6.1	mac	2022-12-14	13:23:17	13:32:03	524870	61097e0464a4a922602d495b	30703400	1	main_slash	11	advance_on_keypress_SLASH	112	stimuli_distractor_trianglediamonds.svg	stimuli_target_squarediamonds.svg	12	yes	57	0	126
6.6.1	mac	2022-12-14	13:23:17	13:32:06	527628	61097e0464a4a922602d495b	30703400	1	main_slash	11	main_slash	113	stimuli_distractor_trianglediamonds.svg	stimuli_distractor_diamondtriangles.svg	36	no	0	1	2000
6.6.1	mac	2022-12-14	13:23:17	13:32:06	527628	61097e0464a4a922602d495b	30703400	1	main_slash	11	advance_on_keypress_SLASH	114	stimuli_distractor_trianglediamonds.svg	stimuli_distractor_diamondtriangles.svg	36	no	57	0	476
6.6.1	mac	2022-12-14	13:23:17	13:32:09	530732	61097e0464a4a922602d495b	30703400	1	main_slash	11	main_slash	115	stimuli_distractor_trianglediamonds.svg	stimuli_distractor_diamondtriangles.svg	35	no	0	1	2000
6.6.1	mac	2022-12-14	13:23:17	13:32:09	530732	61097e0464a4a922602d495b	30703400	1	main_slash	11	advance_on_keypress_SLASH	116	stimuli_distractor_trianglediamonds.svg	stimuli_distractor_diamondtriangles.svg	35	no	57	0	356
6.6.1	mac	2022-12-14	13:23:17	13:32:10	532254	61097e0464a4a922602d495b	30703400	1	main_slash	11	main_slash	117	stimuli_target_diamondcircles.svg	stimuli_distractor_diamondtriangles.svg	23	yes	53	1	538
6.6.1	mac	2022-12-14	13:23:17	13:32:10	532254	61097e0464a4a922602d495b	30703400	1	main_slash	11	advance_on_keypress_SLASH	118	stimuli_target_diamondcircles.svg	stimuli_distractor_diamondtriangles.svg	23	yes	57	0	124
6.6.1	mac	2022-12-14	13:23:17	13:32:11	533483	61097e0464a4a922602d495b	30703400	1	main_slash	11	main_slash	119	stimuli_target_circlediamonds.svg	stimuli_distractor_diamondtriangles.svg	6	yes	53	1	462
6.6.1	mac	2022-12-14	13:23:17	13:32:11	533483	61097e0464a4a922602d495b	30703400	1	main_slash	11	advance_on_keypress_SLASH	120	stimuli_target_circlediamonds.svg	stimuli_distractor_diamondtriangles.svg	6	yes	57	0	85
6.6.1	mac	2022-12-14	13:23:17	13:32:13	534662	61097e0464a4a922602d495b	30703400	1	main_slash	11	main_slash	121	stimuli_target_diamondcircles.svg	stimuli_distractor_trianglediamonds.svg	19	yes	53	1	443
6.6.1	mac	2022-12-14	13:23:17	13:32:13	534662	61097e0464a4a922602d495b	30703400	1	main_slash	11	advance_on_keypress_SLASH	122	stimuli_target_diamondcircles.svg	stimuli_distractor_trianglediamonds.svg	19	yes	57	0	102
6.6.1	mac	2022-12-14	13:23:17	13:32:14	536095	61097e0464a4a922602d495b	30703400	1	main_slash	11	main_slash	123	stimuli_distractor_trianglediamonds.svg	stimuli_target_diamondsquares.svg	28	yes	53	1	698
6.6.1	mac	2022-12-14	13:23:17	13:32:14	536095	61097e0464a4a922602d495b	30703400	1	main_slash	11	advance_on_keypress_SLASH	124	stimuli_distractor_trianglediamonds.svg	stimuli_target_diamondsquares.svg	28	yes	57	0	122
6.6.1	mac	2022-12-14	13:23:17	13:32:15	537326	61097e0464a4a922602d495b	30703400	1	main_slash	11	main_slash	125	stimuli_distractor_diamondtriangles.svg	stimuli_target_squaretriangles.svg	15	yes	53	1	477
6.6.1	mac	2022-12-14	13:23:17	13:32:15	537326	61097e0464a4a922602d495b	30703400	1	main_slash	11	advance_on_keypress_SLASH	126	stimuli_distractor_diamondtriangles.svg	stimuli_target_squaretriangles.svg	15	yes	57	0	141
6.6.1	mac	2022-12-14	13:23:17	13:32:16	538462	61097e0464a4a922602d495b	30703400	1	main_slash	11	main_slash	127	stimuli_target_squaretriangles.svg	stimuli_distractor_diamondtriangles.svg	7	yes	53	1	359
6.6.1	mac	2022-12-14	13:23:17	13:32:16	538462	61097e0464a4a922602d495b	30703400	1	main_slash	11	advance_on_keypress_SLASH	128	stimuli_target_squaretriangles.svg	stimuli_distractor_diamondtriangles.svg	7	yes	57	0	128
6.6.1	mac	2022-12-14	13:23:17	13:32:18	539614	61097e0464a4a922602d495b	30703400	1	main_slash	11	main_slash	129	stimuli_target_diamondsquares.svg	stimuli_distractor_trianglediamonds.svg	20	yes	53	1	395
6.6.1	mac	2022-12-14	13:23:17	13:32:18	539614	61097e0464a4a922602d495b	30703400	1	main_slash	11	advance_on_keypress_SLASH	130	stimuli_target_diamondsquares.svg	stimuli_distractor_trianglediamonds.svg	20	yes	57	0	119
6.6.1	mac	2022-12-14	13:23:17	13:32:20	542364	61097e0464a4a922602d495b	30703400	1	main_slash	11	main_slash	131	stimuli_distractor_trianglediamonds.svg	stimuli_distractor_trianglediamonds.svg	33	no	0	1	2000
6.6.1	mac	2022-12-14	13:23:17	13:32:20	542364	61097e0464a4a922602d495b	30703400	1	main_slash	11	advance_on_keypress_SLASH	132	stimuli_distractor_trianglediamonds.svg	stimuli_distractor_trianglediamonds.svg	33	no	57	0	618
6.6.1	mac	2022-12-14	13:23:17	13:32:22	544174	61097e0464a4a922602d495b	30703400	1	main_slash	11	main_slash	133	stimuli_distractor_diamondtriangles.svg	stimuli_target_trianglesquares.svg	30	yes	53	1	551
6.6.1	mac	2022-12-14	13:23:17	13:32:22	544174	61097e0464a4a922602d495b	30703400	1	main_slash	11	advance_on_keypress_SLASH	134	stimuli_distractor_diamondtriangles.svg	stimuli_target_trianglesquares.svg	30	yes	57	0	140
6.6.1	mac	2022-12-14	13:23:17	13:32:23	545463	61097e0464a4a922602d495b	30703400	1	main_slash	11	main_slash	135	stimuli_target_trianglesquares.svg	stimuli_distractor_trianglediamonds.svg	18	yes	53	1	503
6.6.1	mac	2022-12-14	13:23:17	13:32:23	545463	61097e0464a4a922602d495b	30703400	1	main_slash	11	advance_on_keypress_SLASH	136	stimuli_target_trianglesquares.svg	stimuli_distractor_trianglediamonds.svg	18	yes	57	0	163
6.6.1	mac	2022-12-14	13:23:17	13:32:25	546710	61097e0464a4a922602d495b	30703400	1	main_slash	11	main_slash	137	stimuli_distractor_diamondtriangles.svg	stimuli_target_squarediamonds.svg	16	yes	53	1	450
6.6.1	mac	2022-12-14	13:23:17	13:32:25	546710	61097e0464a4a922602d495b	30703400	1	main_slash	11	advance_on_keypress_SLASH	138	stimuli_distractor_diamondtriangles.svg	stimuli_target_squarediamonds.svg	16	yes	57	0	245
6.6.1	mac	2022-12-14	13:23:17	13:32:26	547966	61097e0464a4a922602d495b	30703400	1	main_slash	11	main_slash	139	stimuli_distractor_trianglediamonds.svg	stimuli_target_diamondcircles.svg	27	yes	53	1	385
6.6.1	mac	2022-12-14	13:23:17	13:32:26	547966	61097e0464a4a922602d495b	30703400	1	main_slash	11	advance_on_keypress_SLASH	140	stimuli_distractor_trianglediamonds.svg	stimuli_target_diamondcircles.svg	27	yes	57	0	163
6.6.1	mac	2022-12-14	13:23:17	13:32:27	549127	61097e0464a4a922602d495b	30703400	1	main_slash	11	main_slash	141	stimuli_distractor_trianglediamonds.svg	stimuli_target_trianglecircles.svg	25	yes	53	1	369
6.6.1	mac	2022-12-14	13:23:17	13:32:27	549127	61097e0464a4a922602d495b	30703400	1	main_slash	11	advance_on_keypress_SLASH	142	stimuli_distractor_trianglediamonds.svg	stimuli_target_trianglecircles.svg	25	yes	57	0	130
6.6.1	mac	2022-12-14	13:23:17	13:32:28	550222	61097e0464a4a922602d495b	30703400	1	main_slash	11	main_slash	143	stimuli_distractor_diamondtriangles.svg	stimuli_target_circletriangles.svg	13	yes	53	1	336
6.6.1	mac	2022-12-14	13:23:17	13:32:28	550222	61097e0464a4a922602d495b	30703400	1	main_slash	11	advance_on_keypress_SLASH	144	stimuli_distractor_diamondtriangles.svg	stimuli_target_circletriangles.svg	13	yes	57	0	168
6.6.1	mac	2022-12-14	13:23:17	13:32:29	551392	61097e0464a4a922602d495b	30703400	1	main_slash	11	main_slash	145	stimuli_target_circlediamonds.svg	stimuli_distractor_trianglediamonds.svg	2	yes	53	1	379
6.6.1	mac	2022-12-14	13:23:17	13:32:29	551392	61097e0464a4a922602d495b	30703400	1	main_slash	11	advance_on_keypress_SLASH	146	stimuli_target_circlediamonds.svg	stimuli_distractor_trianglediamonds.svg	2	yes	57	0	150
6.6.1	mac	2022-12-14	13:23:17	13:32:31	552558	61097e0464a4a922602d495b	30703400	1	main_slash	11	main_slash	147	stimuli_distractor_diamondtriangles.svg	stimuli_distractor_diamondtriangles.svg	39	no	53	0	388
6.6.1	mac	2022-12-14	13:23:17	13:32:31	552558	61097e0464a4a922602d495b	30703400	1	main_slash	11	advance_on_keypress_SLASH	148	stimuli_distractor_diamondtriangles.svg	stimuli_distractor_diamondtriangles.svg	39	no	57	0	124
6.6.1	mac	2022-12-14	13:23:17	13:32:32	554198	61097e0464a4a922602d495b	30703400	1	main_slash	11	main_slash	149	stimuli_distractor_diamondtriangles.svg	stimuli_target_circlediamonds.svg	14	yes	53	1	874
6.6.1	mac	2022-12-14	13:23:17	13:32:32	554198	61097e0464a4a922602d495b	30703400	1	main_slash	11	advance_on_keypress_SLASH	150	stimuli_distractor_diamondtriangles.svg	stimuli_target_circlediamonds.svg	14	yes	57	0	126
6.6.1	mac	2022-12-14	13:23:17	13:32:33	555455	61097e0464a4a922602d495b	30703400	1	main_slash	11	main_slash	151	stimuli_distractor_trianglediamonds.svg	stimuli_target_squaretriangles.svg	11	yes	53	1	485
6.6.1	mac	2022-12-14	13:23:17	13:32:33	555455	61097e0464a4a922602d495b	30703400	1	main_slash	11	advance_on_keypress_SLASH	152	stimuli_distractor_trianglediamonds.svg	stimuli_target_squaretriangles.svg	11	yes	57	0	147
6.6.1	mac	2022-12-14	13:23:17	13:32:35	556622	61097e0464a4a922602d495b	30703400	1	main_slash	11	main_slash	153	stimuli_distractor_diamondtriangles.svg	stimuli_distractor_trianglediamonds.svg	38	no	53	0	390
6.6.1	mac	2022-12-14	13:23:17	13:32:35	556622	61097e0464a4a922602d495b	30703400	1	main_slash	11	advance_on_keypress_SLASH	154	stimuli_distractor_diamondtriangles.svg	stimuli_distractor_trianglediamonds.svg	38	no	57	0	755
6.6.1	mac	2022-12-14	13:23:17	13:32:37	558639	61097e0464a4a922602d495b	30703400	1	main_slash	11	main_slash	155	stimuli_distractor_trianglediamonds.svg	stimuli_target_trianglesquares.svg	26	yes	53	1	621
6.6.1	mac	2022-12-14	13:23:17	13:32:37	558639	61097e0464a4a922602d495b	30703400	1	main_slash	11	advance_on_keypress_SLASH	156	stimuli_distractor_trianglediamonds.svg	stimuli_target_trianglesquares.svg	26	yes	57	0	163
6.6.1	mac	2022-12-14	13:23:17	13:32:38	559917	61097e0464a4a922602d495b	30703400	1	main_slash	11	main_slash	157	stimuli_distractor_diamondtriangles.svg	stimuli_target_diamondsquares.svg	32	yes	53	1	483
6.6.1	mac	2022-12-14	13:23:17	13:32:38	559917	61097e0464a4a922602d495b	30703400	1	main_slash	11	advance_on_keypress_SLASH	158	stimuli_distractor_diamondtriangles.svg	stimuli_target_diamondsquares.svg	32	yes	57	0	188
6.6.1	mac	2022-12-14	13:23:17	13:32:39	561295	61097e0464a4a922602d495b	30703400	1	main_slash	11	main_slash	159	stimuli_target_trianglecircles.svg	stimuli_distractor_diamondtriangles.svg	21	yes	53	1	545
6.6.1	mac	2022-12-14	13:23:17	13:32:39	561295	61097e0464a4a922602d495b	30703400	1	main_slash	11	advance_on_keypress_SLASH	160	stimuli_target_trianglecircles.svg	stimuli_distractor_diamondtriangles.svg	21	yes	57	0	144