build	computer.platform	date	time	timestamp	time_elapsed_ms	subject	group	session	blockcode	blocknum	trialcode	trialnum	stimulus_left	stimulus_right	stim_index	target_present	response	correct	latency
6.6.1	win	2022-12-14	14:54:07	14:57:04	175263	60d5ff02fef54b0399953c12	314652025	1	practice_slash	5	practice_slash	1	stimuli_distractor_trianglediamonds.svg	stimuli_target_diamondcircles.svg	12	yes	0	0	2003
6.6.1	win	2022-12-14	14:54:07	14:57:04	175263	60d5ff02fef54b0399953c12	314652025	1	practice_slash	5	advance_on_keypress_SLASH	2	stimuli_distractor_trianglediamonds.svg	stimuli_target_diamondcircles.svg	12	yes	57	0	960
6.6.1	win	2022-12-14	14:54:07	14:57:08	179282	60d5ff02fef54b0399953c12	314652025	1	practice_slash	5	practice_slash	3	stimuli_distractor_diamondtriangles.svg	stimuli_target_trianglecircles.svg	9	yes	53	1	1432
6.6.1	win	2022-12-14	14:54:07	14:57:08	179282	60d5ff02fef54b0399953c12	314652025	1	practice_slash	5	advance_on_keypress_SLASH	4	stimuli_distractor_diamondtriangles.svg	stimuli_target_trianglecircles.svg	9	yes	57	0	595
6.6.1	win	2022-12-14	14:54:07	14:57:12	183499	60d5ff02fef54b0399953c12	314652025	1	practice_slash	5	practice_slash	5	stimuli_distractor_trianglediamonds.svg	stimuli_distractor_diamondtriangles.svg	16	no	0	1	2003
6.6.1	win	2022-12-14	14:54:07	14:57:12	183499	60d5ff02fef54b0399953c12	314652025	1	practice_slash	5	advance_on_keypress_SLASH	6	stimuli_distractor_trianglediamonds.svg	stimuli_distractor_diamondtriangles.svg	16	no	57	0	516
6.6.1	win	2022-12-14	14:54:07	14:57:15	186746	60d5ff02fef54b0399953c12	314652025	1	practice_slash	5	practice_slash	7	stimuli_distractor_trianglediamonds.svg	stimuli_distractor_trianglediamonds.svg	15	no	53	0	1119
6.6.1	win	2022-12-14	14:54:07	14:57:15	186746	60d5ff02fef54b0399953c12	314652025	1	practice_slash	5	advance_on_keypress_SLASH	8	stimuli_distractor_trianglediamonds.svg	stimuli_distractor_trianglediamonds.svg	15	no	57	0	611
6.6.1	win	2022-12-14	14:54:07	14:57:18	189834	60d5ff02fef54b0399953c12	314652025	1	practice_slash	5	practice_slash	9	stimuli_target_circlediamonds.svg	stimuli_distractor_trianglediamonds.svg	4	yes	53	1	859
6.6.1	win	2022-12-14	14:54:07	14:57:18	189834	60d5ff02fef54b0399953c12	314652025	1	practice_slash	5	advance_on_keypress_SLASH	10	stimuli_target_circlediamonds.svg	stimuli_distractor_trianglediamonds.svg	4	yes	57	0	935
6.6.1	win	2022-12-14	14:54:07	14:57:22	193250	60d5ff02fef54b0399953c12	314652025	1	practice_slash	5	practice_slash	11	stimuli_target_diamondsquares.svg	stimuli_distractor_trianglediamonds.svg	6	yes	53	1	859
6.6.1	win	2022-12-14	14:54:07	14:57:22	193250	60d5ff02fef54b0399953c12	314652025	1	practice_slash	5	advance_on_keypress_SLASH	12	stimuli_target_diamondsquares.svg	stimuli_distractor_trianglediamonds.svg	6	yes	57	0	415
6.6.1	win	2022-12-14	14:54:07	14:57:24	196026	60d5ff02fef54b0399953c12	314652025	1	practice_slash	5	practice_slash	13	stimuli_distractor_trianglediamonds.svg	stimuli_target_squarediamonds.svg	11	yes	53	1	739
6.6.1	win	2022-12-14	14:54:07	14:57:24	196026	60d5ff02fef54b0399953c12	314652025	1	practice_slash	5	advance_on_keypress_SLASH	14	stimuli_distractor_trianglediamonds.svg	stimuli_target_squarediamonds.svg	11	yes	57	0	332
6.6.1	win	2022-12-14	14:54:07	14:57:27	198586	60d5ff02fef54b0399953c12	314652025	1	practice_slash	5	practice_slash	15	stimuli_target_squarediamonds.svg	stimuli_distractor_trianglediamonds.svg	5	yes	53	1	612
6.6.1	win	2022-12-14	14:54:07	14:57:27	198586	60d5ff02fef54b0399953c12	314652025	1	practice_slash	5	advance_on_keypress_SLASH	16	stimuli_target_squarediamonds.svg	stimuli_distractor_trianglediamonds.svg	5	yes	57	0	307
6.6.1	win	2022-12-14	14:54:07	14:57:31	202512	60d5ff02fef54b0399953c12	314652025	1	practice_slash	5	practice_slash	17	stimuli_distractor_diamondtriangles.svg	stimuli_distractor_diamondtriangles.svg	13	no	0	1	2003
6.6.1	win	2022-12-14	14:54:07	14:57:31	202512	60d5ff02fef54b0399953c12	314652025	1	practice_slash	5	advance_on_keypress_SLASH	18	stimuli_distractor_diamondtriangles.svg	stimuli_distractor_diamondtriangles.svg	13	no	57	0	367
6.6.1	win	2022-12-14	14:54:07	14:57:34	205530	60d5ff02fef54b0399953c12	314652025	1	practice_slash	5	practice_slash	19	stimuli_target_diamondsquares.svg	stimuli_distractor_diamondtriangles.svg	3	yes	53	1	1036
6.6.1	win	2022-12-14	14:54:07	14:57:34	205530	60d5ff02fef54b0399953c12	314652025	1	practice_slash	5	advance_on_keypress_SLASH	20	stimuli_target_diamondsquares.svg	stimuli_distractor_diamondtriangles.svg	3	yes	57	0	370
6.6.1	win	2022-12-14	14:54:07	14:57:37	208435	60d5ff02fef54b0399953c12	314652025	1	practice_slash	5	practice_slash	21	stimuli_distractor_diamondtriangles.svg	stimuli_target_circletriangles.svg	7	yes	53	1	912
6.6.1	win	2022-12-14	14:54:07	14:57:37	208435	60d5ff02fef54b0399953c12	314652025	1	practice_slash	5	advance_on_keypress_SLASH	22	stimuli_distractor_diamondtriangles.svg	stimuli_target_circletriangles.svg	7	yes	57	0	316
6.6.1	win	2022-12-14	14:54:07	14:57:39	210939	60d5ff02fef54b0399953c12	314652025	1	practice_slash	5	practice_slash	23	stimuli_distractor_trianglediamonds.svg	stimuli_target_circlediamonds.svg	10	yes	53	1	569
6.6.1	win	2022-12-14	14:54:07	14:57:39	210939	60d5ff02fef54b0399953c12	314652025	1	practice_slash	5	advance_on_keypress_SLASH	24	stimuli_distractor_trianglediamonds.svg	stimuli_target_circlediamonds.svg	10	yes	57	0	353
6.6.1	win	2022-12-14	14:54:07	14:57:42	213642	60d5ff02fef54b0399953c12	314652025	1	practice_slash	5	practice_slash	25	stimuli_distractor_diamondtriangles.svg	stimuli_target_diamondcircles.svg	8	yes	53	1	732
6.6.1	win	2022-12-14	14:54:07	14:57:42	213642	60d5ff02fef54b0399953c12	314652025	1	practice_slash	5	advance_on_keypress_SLASH	26	stimuli_distractor_diamondtriangles.svg	stimuli_target_diamondcircles.svg	8	yes	57	0	380
6.6.1	win	2022-12-14	14:54:07	14:57:44	216242	60d5ff02fef54b0399953c12	314652025	1	practice_slash	5	practice_slash	27	stimuli_target_circlediamonds.svg	stimuli_distractor_diamondtriangles.svg	1	yes	53	1	603
6.6.1	win	2022-12-14	14:54:07	14:57:44	216242	60d5ff02fef54b0399953c12	314652025	1	practice_slash	5	advance_on_keypress_SLASH	28	stimuli_target_circlediamonds.svg	stimuli_distractor_diamondtriangles.svg	1	yes	57	0	368
6.6.1	win	2022-12-14	14:54:07	14:57:47	219123	60d5ff02fef54b0399953c12	314652025	1	practice_slash	5	practice_slash	29	stimuli_distractor_diamondtriangles.svg	stimuli_distractor_trianglediamonds.svg	14	no	53	0	892
6.6.1	win	2022-12-14	14:54:07	14:57:47	219123	60d5ff02fef54b0399953c12	314652025	1	practice_slash	5	advance_on_keypress_SLASH	30	stimuli_distractor_diamondtriangles.svg	stimuli_distractor_trianglediamonds.svg	14	no	57	0	333
6.6.1	win	2022-12-14	14:54:07	14:57:50	221739	60d5ff02fef54b0399953c12	314652025	1	practice_slash	5	practice_slash	31	stimuli_target_squarediamonds.svg	stimuli_distractor_diamondtriangles.svg	2	yes	53	1	668
6.6.1	win	2022-12-14	14:54:07	14:57:50	221739	60d5ff02fef54b0399953c12	314652025	1	practice_slash	5	advance_on_keypress_SLASH	32	stimuli_target_squarediamonds.svg	stimuli_distractor_diamondtriangles.svg	2	yes	57	0	299
6.6.1	win	2022-12-14	14:54:07	14:57:57	228363	60d5ff02fef54b0399953c12	314652025	1	main_slash	7	main_slash	1	stimuli_distractor_diamondtriangles.svg	stimuli_target_circletriangles.svg	13	yes	53	1	1105
6.6.1	win	2022-12-14	14:54:07	14:57:57	228363	60d5ff02fef54b0399953c12	314652025	1	main_slash	7	advance_on_keypress_SLASH	2	stimuli_distractor_diamondtriangles.svg	stimuli_target_circletriangles.svg	13	yes	57	0	2234
6.6.1	win	2022-12-14	14:54:07	14:58:00	231931	60d5ff02fef54b0399953c12	314652025	1	main_slash	7	main_slash	3	stimuli_distractor_trianglediamonds.svg	stimuli_distractor_trianglediamonds.svg	34	no	53	0	715
6.6.1	win	2022-12-14	14:54:07	14:58:00	231931	60d5ff02fef54b0399953c12	314652025	1	main_slash	7	advance_on_keypress_SLASH	4	stimuli_distractor_trianglediamonds.svg	stimuli_distractor_trianglediamonds.svg	34	no	57	0	2393
6.6.1	win	2022-12-14	14:54:07	14:58:04	235955	60d5ff02fef54b0399953c12	314652025	1	main_slash	7	main_slash	5	stimuli_target_trianglecircles.svg	stimuli_distractor_diamondtriangles.svg	21	yes	53	1	1017
6.6.1	win	2022-12-14	14:54:07	14:58:04	235955	60d5ff02fef54b0399953c12	314652025	1	main_slash	7	advance_on_keypress_SLASH	6	stimuli_target_trianglecircles.svg	stimuli_distractor_diamondtriangles.svg	21	yes	57	0	1188
6.6.1	win	2022-12-14	14:54:07	14:58:07	238355	60d5ff02fef54b0399953c12	314652025	1	main_slash	7	main_slash	7	stimuli_target_squarediamonds.svg	stimuli_distractor_diamondtriangles.svg	8	yes	53	1	597
6.6.1	win	2022-12-14	14:54:07	14:58:07	238355	60d5ff02fef54b0399953c12	314652025	1	main_slash	7	advance_on_keypress_SLASH	8	stimuli_target_squarediamonds.svg	stimuli_distractor_diamondtriangles.svg	8	yes	57	0	561
6.6.1	win	2022-12-14	14:54:07	14:58:08	240203	60d5ff02fef54b0399953c12	314652025	1	main_slash	7	main_slash	9	stimuli_target_squaretriangles.svg	stimuli_distractor_trianglediamonds.svg	3	yes	53	1	668
6.6.1	win	2022-12-14	14:54:07	14:58:08	240203	60d5ff02fef54b0399953c12	314652025	1	main_slash	7	advance_on_keypress_SLASH	10	stimuli_target_squaretriangles.svg	stimuli_distractor_trianglediamonds.svg	3	yes	57	0	458
6.6.1	win	2022-12-14	14:54:07	14:58:10	241867	60d5ff02fef54b0399953c12	314652025	1	main_slash	7	main_slash	11	stimuli_target_diamondsquares.svg	stimuli_distractor_diamondtriangles.svg	24	yes	53	1	589
6.6.1	win	2022-12-14	14:54:07	14:58:10	241867	60d5ff02fef54b0399953c12	314652025	1	main_slash	7	advance_on_keypress_SLASH	12	stimuli_target_diamondsquares.svg	stimuli_distractor_diamondtriangles.svg	24	yes	57	0	456
6.6.1	win	2022-12-14	14:54:07	14:58:12	243771	60d5ff02fef54b0399953c12	314652025	1	main_slash	7	main_slash	13	stimuli_distractor_diamondtriangles.svg	stimuli_target_circlediamonds.svg	14	yes	53	1	834
6.6.1	win	2022-12-14	14:54:07	14:58:12	243771	60d5ff02fef54b0399953c12	314652025	1	main_slash	7	advance_on_keypress_SLASH	14	stimuli_distractor_diamondtriangles.svg	stimuli_target_circlediamonds.svg	14	yes	57	0	690
6.6.1	win	2022-12-14	14:54:07	14:58:14	245779	60d5ff02fef54b0399953c12	314652025	1	main_slash	7	main_slash	15	stimuli_target_diamondcircles.svg	stimuli_distractor_trianglediamonds.svg	19	yes	53	1	703
6.6.1	win	2022-12-14	14:54:07	14:58:14	245779	60d5ff02fef54b0399953c12	314652025	1	main_slash	7	advance_on_keypress_SLASH	16	stimuli_target_diamondcircles.svg	stimuli_distractor_trianglediamonds.svg	19	yes	57	0	555
6.6.1	win	2022-12-14	14:54:07	14:58:16	247563	60d5ff02fef54b0399953c12	314652025	1	main_slash	7	main_slash	17	stimuli_distractor_trianglediamonds.svg	stimuli_target_trianglecircles.svg	25	yes	53	1	612
6.6.1	win	2022-12-14	14:54:07	14:58:16	247563	60d5ff02fef54b0399953c12	314652025	1	main_slash	7	advance_on_keypress_SLASH	18	stimuli_distractor_trianglediamonds.svg	stimuli_target_trianglecircles.svg	25	yes	57	0	346
6.6.1	win	2022-12-14	14:54:07	14:58:17	249099	60d5ff02fef54b0399953c12	314652025	1	main_slash	7	main_slash	19	stimuli_target_circlediamonds.svg	stimuli_distractor_diamondtriangles.svg	6	yes	53	1	572
6.6.1	win	2022-12-14	14:54:07	14:58:17	249099	60d5ff02fef54b0399953c12	314652025	1	main_slash	7	advance_on_keypress_SLASH	20	stimuli_target_circlediamonds.svg	stimuli_distractor_diamondtriangles.svg	6	yes	57	0	331
6.6.1	win	2022-12-14	14:54:07	14:58:19	250835	60d5ff02fef54b0399953c12	314652025	1	main_slash	7	main_slash	21	stimuli_target_diamondsquares.svg	stimuli_distractor_trianglediamonds.svg	20	yes	53	1	794
6.6.1	win	2022-12-14	14:54:07	14:58:19	250835	60d5ff02fef54b0399953c12	314652025	1	main_slash	7	advance_on_keypress_SLASH	22	stimuli_target_diamondsquares.svg	stimuli_distractor_trianglediamonds.svg	20	yes	57	0	499
6.6.1	win	2022-12-14	14:54:07	14:58:21	252699	60d5ff02fef54b0399953c12	314652025	1	main_slash	7	main_slash	23	stimuli_target_squaretriangles.svg	stimuli_distractor_diamondtriangles.svg	7	yes	53	1	748
6.6.1	win	2022-12-14	14:54:07	14:58:21	252699	60d5ff02fef54b0399953c12	314652025	1	main_slash	7	advance_on_keypress_SLASH	24	stimuli_target_squaretriangles.svg	stimuli_distractor_diamondtriangles.svg	7	yes	57	0	638
6.6.1	win	2022-12-14	14:54:07	14:58:23	254555	60d5ff02fef54b0399953c12	314652025	1	main_slash	7	main_slash	25	stimuli_target_squarediamonds.svg	stimuli_distractor_trianglediamonds.svg	4	yes	53	1	604
6.6.1	win	2022-12-14	14:54:07	14:58:23	254555	60d5ff02fef54b0399953c12	314652025	1	main_slash	7	advance_on_keypress_SLASH	26	stimuli_target_squarediamonds.svg	stimuli_distractor_trianglediamonds.svg	4	yes	57	0	489
6.6.1	win	2022-12-14	14:54:07	14:58:25	256339	60d5ff02fef54b0399953c12	314652025	1	main_slash	7	main_slash	27	stimuli_target_circlediamonds.svg	stimuli_distractor_trianglediamonds.svg	2	yes	53	1	680
6.6.1	win	2022-12-14	14:54:07	14:58:25	256339	60d5ff02fef54b0399953c12	314652025	1	main_slash	7	advance_on_keypress_SLASH	28	stimuli_target_circlediamonds.svg	stimuli_distractor_trianglediamonds.svg	2	yes	57	0	513
6.6.1	win	2022-12-14	14:54:07	14:58:26	258043	60d5ff02fef54b0399953c12	314652025	1	main_slash	7	main_slash	29	stimuli_distractor_diamondtriangles.svg	stimuli_target_diamondsquares.svg	32	yes	53	1	572
6.6.1	win	2022-12-14	14:54:07	14:58:26	258043	60d5ff02fef54b0399953c12	314652025	1	main_slash	7	advance_on_keypress_SLASH	30	stimuli_distractor_diamondtriangles.svg	stimuli_target_diamondsquares.svg	32	yes	57	0	443
6.6.1	win	2022-12-14	14:54:07	14:58:29	261107	60d5ff02fef54b0399953c12	314652025	1	main_slash	7	main_slash	31	stimuli_distractor_trianglediamonds.svg	stimuli_target_diamondsquares.svg	28	yes	0	0	2003
6.6.1	win	2022-12-14	14:54:07	14:58:29	261107	60d5ff02fef54b0399953c12	314652025	1	main_slash	7	advance_on_keypress_SLASH	32	stimuli_distractor_trianglediamonds.svg	stimuli_target_diamondsquares.svg	28	yes	57	0	381
6.6.1	win	2022-12-14	14:54:07	14:58:32	264107	60d5ff02fef54b0399953c12	314652025	1	main_slash	7	main_slash	33	stimuli_target_circletriangles.svg	stimuli_distractor_trianglediamonds.svg	1	yes	0	0	2003
6.6.1	win	2022-12-14	14:54:07	14:58:32	264107	60d5ff02fef54b0399953c12	314652025	1	main_slash	7	advance_on_keypress_SLASH	34	stimuli_target_circletriangles.svg	stimuli_distractor_trianglediamonds.svg	1	yes	57	0	917
6.6.1	win	2022-12-14	14:54:07	14:58:35	266796	60d5ff02fef54b0399953c12	314652025	1	main_slash	7	main_slash	35	stimuli_distractor_diamondtriangles.svg	stimuli_distractor_trianglediamonds.svg	37	no	53	0	1157
6.6.1	win	2022-12-14	14:54:07	14:58:35	266796	60d5ff02fef54b0399953c12	314652025	1	main_slash	7	advance_on_keypress_SLASH	36	stimuli_distractor_diamondtriangles.svg	stimuli_distractor_trianglediamonds.svg	37	no	57	0	558
6.6.1	win	2022-12-14	14:54:07	14:58:38	269967	60d5ff02fef54b0399953c12	314652025	1	main_slash	7	main_slash	37	stimuli_distractor_diamondtriangles.svg	stimuli_distractor_trianglediamonds.svg	38	no	0	1	2003
6.6.1	win	2022-12-14	14:54:07	14:58:38	269967	60d5ff02fef54b0399953c12	314652025	1	main_slash	7	advance_on_keypress_SLASH	38	stimuli_distractor_diamondtriangles.svg	stimuli_distractor_trianglediamonds.svg	38	no	57	0	648
6.6.1	win	2022-12-14	14:54:07	14:58:41	272524	60d5ff02fef54b0399953c12	314652025	1	main_slash	7	main_slash	39	stimuli_distractor_trianglediamonds.svg	stimuli_target_circlediamonds.svg	10	yes	53	1	1295
6.6.1	win	2022-12-14	14:54:07	14:58:41	272524	60d5ff02fef54b0399953c12	314652025	1	main_slash	7	advance_on_keypress_SLASH	40	stimuli_distractor_trianglediamonds.svg	stimuli_target_circlediamonds.svg	10	yes	57	0	453
6.6.1	win	2022-12-14	14:54:07	14:58:43	274308	60d5ff02fef54b0399953c12	314652025	1	main_slash	7	main_slash	41	stimuli_target_diamondcircles.svg	stimuli_distractor_diamondtriangles.svg	23	yes	53	1	718
6.6.1	win	2022-12-14	14:54:07	14:58:43	274308	60d5ff02fef54b0399953c12	314652025	1	main_slash	7	advance_on_keypress_SLASH	42	stimuli_target_diamondcircles.svg	stimuli_distractor_diamondtriangles.svg	23	yes	57	0	404
6.6.1	win	2022-12-14	14:54:07	14:58:44	275748	60d5ff02fef54b0399953c12	314652025	1	main_slash	7	main_slash	43	stimuli_target_trianglecircles.svg	stimuli_distractor_trianglediamonds.svg	17	yes	53	1	422
6.6.1	win	2022-12-14	14:54:07	14:58:44	275748	60d5ff02fef54b0399953c12	314652025	1	main_slash	7	advance_on_keypress_SLASH	44	stimuli_target_trianglecircles.svg	stimuli_distractor_trianglediamonds.svg	17	yes	57	0	424
6.6.1	win	2022-12-14	14:54:07	14:58:46	277332	60d5ff02fef54b0399953c12	314652025	1	main_slash	7	main_slash	45	stimuli_distractor_diamondtriangles.svg	stimuli_target_trianglecircles.svg	29	yes	53	1	541
6.6.1	win	2022-12-14	14:54:07	14:58:46	277332	60d5ff02fef54b0399953c12	314652025	1	main_slash	7	advance_on_keypress_SLASH	46	stimuli_distractor_diamondtriangles.svg	stimuli_target_trianglecircles.svg	29	yes	57	0	345
6.6.1	win	2022-12-14	14:54:07	14:58:47	278796	60d5ff02fef54b0399953c12	314652025	1	main_slash	7	main_slash	47	stimuli_distractor_trianglediamonds.svg	stimuli_distractor_diamondtriangles.svg	35	no	53	0	505
6.6.1	win	2022-12-14	14:54:07	14:58:47	278796	60d5ff02fef54b0399953c12	314652025	1	main_slash	7	advance_on_keypress_SLASH	48	stimuli_distractor_trianglediamonds.svg	stimuli_distractor_diamondtriangles.svg	35	no	57	0	287
6.6.1	win	2022-12-14	14:54:07	14:58:48	280004	60d5ff02fef54b0399953c12	314652025	1	main_slash	7	main_slash	49	stimuli_distractor_diamondtriangles.svg	stimuli_target_squarediamonds.svg	16	yes	53	1	303
6.6.1	win	2022-12-14	14:54:07	14:58:48	280004	60d5ff02fef54b0399953c12	314652025	1	main_slash	7	advance_on_keypress_SLASH	50	stimuli_distractor_diamondtriangles.svg	stimuli_target_squarediamonds.svg	16	yes	57	0	358
6.6.1	win	2022-12-14	14:54:07	14:58:50	281372	60d5ff02fef54b0399953c12	314652025	1	main_slash	7	main_slash	51	stimuli_distractor_trianglediamonds.svg	stimuli_distractor_trianglediamonds.svg	33	no	53	0	400
6.6.1	win	2022-12-14	14:54:07	14:58:50	281372	60d5ff02fef54b0399953c12	314652025	1	main_slash	7	advance_on_keypress_SLASH	52	stimuli_distractor_trianglediamonds.svg	stimuli_distractor_trianglediamonds.svg	33	no	57	0	367
6.6.1	win	2022-12-14	14:54:07	14:58:51	282628	60d5ff02fef54b0399953c12	314652025	1	main_slash	7	main_slash	53	stimuli_target_circletriangles.svg	stimuli_distractor_diamondtriangles.svg	5	yes	53	1	268
6.6.1	win	2022-12-14	14:54:07	14:58:51	282628	60d5ff02fef54b0399953c12	314652025	1	main_slash	7	advance_on_keypress_SLASH	54	stimuli_target_circletriangles.svg	stimuli_distractor_diamondtriangles.svg	5	yes	57	0	317
6.6.1	win	2022-12-14	14:54:07	14:58:52	283788	60d5ff02fef54b0399953c12	314652025	1	main_slash	7	main_slash	55	stimuli_distractor_diamondtriangles.svg	stimuli_target_trianglesquares.svg	30	yes	53	1	233
6.6.1	win	2022-12-14	14:54:07	14:58:52	283788	60d5ff02fef54b0399953c12	314652025	1	main_slash	7	advance_on_keypress_SLASH	56	stimuli_distractor_diamondtriangles.svg	stimuli_target_trianglesquares.svg	30	yes	57	0	342
6.6.1	win	2022-12-14	14:54:07	14:58:53	284956	60d5ff02fef54b0399953c12	314652025	1	main_slash	7	main_slash	57	stimuli_distractor_diamondtriangles.svg	stimuli_distractor_diamondtriangles.svg	39	no	53	0	214
6.6.1	win	2022-12-14	14:54:07	14:58:53	284956	60d5ff02fef54b0399953c12	314652025	1	main_slash	7	advance_on_keypress_SLASH	58	stimuli_distractor_diamondtriangles.svg	stimuli_distractor_diamondtriangles.svg	39	no	57	0	256
6.6.1	win	2022-12-14	14:54:07	14:58:54	286100	60d5ff02fef54b0399953c12	314652025	1	main_slash	7	main_slash	59	stimuli_distractor_diamondtriangles.svg	stimuli_distractor_diamondtriangles.svg	40	no	53	0	268
6.6.1	win	2022-12-14	14:54:07	14:58:54	286100	60d5ff02fef54b0399953c12	314652025	1	main_slash	7	advance_on_keypress_SLASH	60	stimuli_distractor_diamondtriangles.svg	stimuli_distractor_diamondtriangles.svg	40	no	57	0	254
6.6.1	win	2022-12-14	14:54:07	14:58:55	287116	60d5ff02fef54b0399953c12	314652025	1	main_slash	7	main_slash	61	stimuli_distractor_diamondtriangles.svg	stimuli_target_squaretriangles.svg	15	yes	53	1	153
6.6.1	win	2022-12-14	14:54:07	14:58:55	287116	60d5ff02fef54b0399953c12	314652025	1	main_slash	7	advance_on_keypress_SLASH	62	stimuli_distractor_diamondtriangles.svg	stimuli_target_squaretriangles.svg	15	yes	57	0	305
6.6.1	win	2022-12-14	14:54:07	14:58:56	288236	60d5ff02fef54b0399953c12	314652025	1	main_slash	7	main_slash	63	stimuli_distractor_trianglediamonds.svg	stimuli_target_diamondcircles.svg	27	yes	53	1	196
6.6.1	win	2022-12-14	14:54:07	14:58:56	288236	60d5ff02fef54b0399953c12	314652025	1	main_slash	7	advance_on_keypress_SLASH	64	stimuli_distractor_trianglediamonds.svg	stimuli_target_diamondcircles.svg	27	yes	57	0	275
6.6.1	win	2022-12-14	14:54:07	14:58:57	289188	60d5ff02fef54b0399953c12	314652025	1	main_slash	7	main_slash	65	stimuli_distractor_trianglediamonds.svg	stimuli_target_squarediamonds.svg	12	yes	53	1	65
6.6.1	win	2022-12-14	14:54:07	14:58:57	289188	60d5ff02fef54b0399953c12	314652025	1	main_slash	7	advance_on_keypress_SLASH	66	stimuli_distractor_trianglediamonds.svg	stimuli_target_squarediamonds.svg	12	yes	57	0	580
6.6.1	win	2022-12-14	14:54:07	14:59:01	292383	60d5ff02fef54b0399953c12	314652025	1	main_slash	7	main_slash	67	stimuli_target_trianglesquares.svg	stimuli_distractor_trianglediamonds.svg	18	yes	0	0	2003
6.6.1	win	2022-12-14	14:54:07	14:59:01	292383	60d5ff02fef54b0399953c12	314652025	1	main_slash	7	advance_on_keypress_SLASH	68	stimuli_target_trianglesquares.svg	stimuli_distractor_trianglediamonds.svg	18	yes	57	0	553
6.6.1	win	2022-12-14	14:54:07	14:59:02	293940	60d5ff02fef54b0399953c12	314652025	1	main_slash	7	main_slash	69	stimuli_distractor_diamondtriangles.svg	stimuli_target_diamondcircles.svg	31	yes	53	1	393
6.6.1	win	2022-12-14	14:54:07	14:59:02	293940	60d5ff02fef54b0399953c12	314652025	1	main_slash	7	advance_on_keypress_SLASH	70	stimuli_distractor_diamondtriangles.svg	stimuli_target_diamondcircles.svg	31	yes	57	0	782
6.6.1	win	2022-12-14	14:54:07	14:59:04	295604	60d5ff02fef54b0399953c12	314652025	1	main_slash	7	main_slash	71	stimuli_distractor_trianglediamonds.svg	stimuli_target_trianglesquares.svg	26	yes	53	1	273
6.6.1	win	2022-12-14	14:54:07	14:59:04	295604	60d5ff02fef54b0399953c12	314652025	1	main_slash	7	advance_on_keypress_SLASH	72	stimuli_distractor_trianglediamonds.svg	stimuli_target_trianglesquares.svg	26	yes	57	0	883
6.6.1	win	2022-12-14	14:54:07	14:59:06	297380	60d5ff02fef54b0399953c12	314652025	1	main_slash	7	main_slash	73	stimuli_target_trianglesquares.svg	stimuli_distractor_diamondtriangles.svg	22	yes	53	1	278
6.6.1	win	2022-12-14	14:54:07	14:59:06	297380	60d5ff02fef54b0399953c12	314652025	1	main_slash	7	advance_on_keypress_SLASH	74	stimuli_target_trianglesquares.svg	stimuli_distractor_diamondtriangles.svg	22	yes	57	0	817
6.6.1	win	2022-12-14	14:54:07	14:59:07	299092	60d5ff02fef54b0399953c12	314652025	1	main_slash	7	main_slash	75	stimuli_distractor_trianglediamonds.svg	stimuli_distractor_diamondtriangles.svg	36	no	53	0	282
6.6.1	win	2022-12-14	14:54:07	14:59:07	299092	60d5ff02fef54b0399953c12	314652025	1	main_slash	7	advance_on_keypress_SLASH	76	stimuli_distractor_trianglediamonds.svg	stimuli_distractor_diamondtriangles.svg	36	no	57	0	901
6.6.1	win	2022-12-14	14:54:07	14:59:09	300956	60d5ff02fef54b0399953c12	314652025	1	main_slash	7	main_slash	77	stimuli_distractor_trianglediamonds.svg	stimuli_target_squaretriangles.svg	11	yes	53	1	347
6.6.1	win	2022-12-14	14:54:07	14:59:09	300956	60d5ff02fef54b0399953c12	314652025	1	main_slash	7	advance_on_keypress_SLASH	78	stimuli_distractor_trianglediamonds.svg	stimuli_target_squaretriangles.svg	11	yes	57	0	481
6.6.1	win	2022-12-14	14:54:07	14:59:11	302316	60d5ff02fef54b0399953c12	314652025	1	main_slash	7	main_slash	79	stimuli_distractor_trianglediamonds.svg	stimuli_target_circletriangles.svg	9	yes	53	1	263
6.6.1	win	2022-12-14	14:54:07	14:59:11	302316	60d5ff02fef54b0399953c12	314652025	1	main_slash	7	advance_on_keypress_SLASH	80	stimuli_distractor_trianglediamonds.svg	stimuli_target_circletriangles.svg	9	yes	57	0	520
6.6.1	win	2022-12-14	14:54:07	14:59:14	305460	60d5ff02fef54b0399953c12	314652025	1	main_slash	7	main_slash	81	stimuli_distractor_trianglediamonds.svg	stimuli_target_diamondsquares.svg	28	yes	0	0	2003
6.6.1	win	2022-12-14	14:54:07	14:59:14	305460	60d5ff02fef54b0399953c12	314652025	1	main_slash	7	advance_on_keypress_SLASH	82	stimuli_distractor_trianglediamonds.svg	stimuli_target_diamondsquares.svg	28	yes	57	0	357
6.6.1	win	2022-12-14	14:54:07	14:59:17	308432	60d5ff02fef54b0399953c12	314652025	1	main_slash	7	main_slash	83	stimuli_target_trianglesquares.svg	stimuli_distractor_trianglediamonds.svg	18	yes	0	0	2003
6.6.1	win	2022-12-14	14:54:07	14:59:17	308432	60d5ff02fef54b0399953c12	314652025	1	main_slash	7	advance_on_keypress_SLASH	84	stimuli_target_trianglesquares.svg	stimuli_distractor_trianglediamonds.svg	18	yes	57	0	305
6.6.1	win	2022-12-14	14:54:07	14:59:18	309660	60d5ff02fef54b0399953c12	314652025	1	main_slash	7	main_slash	85	stimuli_target_squaretriangles.svg	stimuli_distractor_diamondtriangles.svg	7	yes	53	1	308
6.6.1	win	2022-12-14	14:54:07	14:59:18	309660	60d5ff02fef54b0399953c12	314652025	1	main_slash	7	advance_on_keypress_SLASH	86	stimuli_target_squaretriangles.svg	stimuli_distractor_diamondtriangles.svg	7	yes	57	0	804
6.6.1	win	2022-12-14	14:54:07	14:59:20	311829	60d5ff02fef54b0399953c12	314652025	1	main_slash	7	main_slash	87	stimuli_distractor_trianglediamonds.svg	stimuli_target_trianglesquares.svg	26	yes	53	1	747
6.6.1	win	2022-12-14	14:54:07	14:59:20	311829	60d5ff02fef54b0399953c12	314652025	1	main_slash	7	advance_on_keypress_SLASH	88	stimuli_distractor_trianglediamonds.svg	stimuli_target_trianglesquares.svg	26	yes	57	0	493
6.6.1	win	2022-12-14	14:54:07	14:59:22	313485	60d5ff02fef54b0399953c12	314652025	1	main_slash	7	main_slash	89	stimuli_target_trianglesquares.svg	stimuli_distractor_diamondtriangles.svg	22	yes	53	1	549
6.6.1	win	2022-12-14	14:54:07	14:59:22	313485	60d5ff02fef54b0399953c12	314652025	1	main_slash	7	advance_on_keypress_SLASH	90	stimuli_target_trianglesquares.svg	stimuli_distractor_diamondtriangles.svg	22	yes	57	0	418
6.6.1	win	2022-12-14	14:54:07	14:59:23	314941	60d5ff02fef54b0399953c12	314652025	1	main_slash	7	main_slash	91	stimuli_distractor_diamondtriangles.svg	stimuli_target_trianglecircles.svg	29	yes	53	1	422
6.6.1	win	2022-12-14	14:54:07	14:59:23	314941	60d5ff02fef54b0399953c12	314652025	1	main_slash	7	advance_on_keypress_SLASH	92	stimuli_distractor_diamondtriangles.svg	stimuli_target_trianglecircles.svg	29	yes	57	0	463
6.6.1	win	2022-12-14	14:54:07	14:59:26	318021	60d5ff02fef54b0399953c12	314652025	1	main_slash	7	main_slash	93	stimuli_distractor_trianglediamonds.svg	stimuli_distractor_diamondtriangles.svg	35	no	0	1	2003
6.6.1	win	2022-12-14	14:54:07	14:59:26	318021	60d5ff02fef54b0399953c12	314652025	1	main_slash	7	advance_on_keypress_SLASH	94	stimuli_distractor_trianglediamonds.svg	stimuli_distractor_diamondtriangles.svg	35	no	57	0	331
6.6.1	win	2022-12-14	14:54:07	14:59:28	319301	60d5ff02fef54b0399953c12	314652025	1	main_slash	7	main_slash	95	stimuli_distractor_diamondtriangles.svg	stimuli_target_diamondsquares.svg	32	yes	53	1	338
6.6.1	win	2022-12-14	14:54:07	14:59:28	319301	60d5ff02fef54b0399953c12	314652025	1	main_slash	7	advance_on_keypress_SLASH	96	stimuli_distractor_diamondtriangles.svg	stimuli_target_diamondsquares.svg	32	yes	57	0	733
6.6.1	win	2022-12-14	14:54:07	14:59:31	322646	60d5ff02fef54b0399953c12	314652025	1	main_slash	7	main_slash	97	stimuli_distractor_diamondtriangles.svg	stimuli_target_circlediamonds.svg	14	yes	0	0	2003
6.6.1	win	2022-12-14	14:54:07	14:59:31	322646	60d5ff02fef54b0399953c12	314652025	1	main_slash	7	advance_on_keypress_SLASH	98	stimuli_distractor_diamondtriangles.svg	stimuli_target_circlediamonds.svg	14	yes	57	0	330
6.6.1	win	2022-12-14	14:54:07	14:59:33	324429	60d5ff02fef54b0399953c12	314652025	1	main_slash	7	main_slash	99	stimuli_target_circletriangles.svg	stimuli_distractor_diamondtriangles.svg	5	yes	53	1	841
6.6.1	win	2022-12-14	14:54:07	14:59:33	324429	60d5ff02fef54b0399953c12	314652025	1	main_slash	7	advance_on_keypress_SLASH	100	stimuli_target_circletriangles.svg	stimuli_distractor_diamondtriangles.svg	5	yes	57	0	490
6.6.1	win	2022-12-14	14:54:07	14:59:35	326517	60d5ff02fef54b0399953c12	314652025	1	main_slash	7	main_slash	101	stimuli_distractor_trianglediamonds.svg	stimuli_target_trianglecircles.svg	25	yes	53	1	984
6.6.1	win	2022-12-14	14:54:07	14:59:35	326517	60d5ff02fef54b0399953c12	314652025	1	main_slash	7	advance_on_keypress_SLASH	102	stimuli_distractor_trianglediamonds.svg	stimuli_target_trianglecircles.svg	25	yes	57	0	479
6.6.1	win	2022-12-14	14:54:07	14:59:37	328797	60d5ff02fef54b0399953c12	314652025	1	main_slash	7	main_slash	103	stimuli_target_circletriangles.svg	stimuli_distractor_trianglediamonds.svg	1	yes	53	1	1181
6.6.1	win	2022-12-14	14:54:07	14:59:37	328797	60d5ff02fef54b0399953c12	314652025	1	main_slash	7	advance_on_keypress_SLASH	104	stimuli_target_circletriangles.svg	stimuli_distractor_trianglediamonds.svg	1	yes	57	0	483
6.6.1	win	2022-12-14	14:54:07	14:59:39	330901	60d5ff02fef54b0399953c12	314652025	1	main_slash	7	main_slash	105	stimuli_target_diamondcircles.svg	stimuli_distractor_diamondtriangles.svg	23	yes	53	1	1008
6.6.1	win	2022-12-14	14:54:07	14:59:39	330901	60d5ff02fef54b0399953c12	314652025	1	main_slash	7	advance_on_keypress_SLASH	106	stimuli_target_diamondcircles.svg	stimuli_distractor_diamondtriangles.svg	23	yes	57	0	507
6.6.1	win	2022-12-14	14:54:07	14:59:41	332717	60d5ff02fef54b0399953c12	314652025	1	main_slash	7	main_slash	107	stimuli_target_trianglecircles.svg	stimuli_distractor_trianglediamonds.svg	17	yes	53	1	693
6.6.1	win	2022-12-14	14:54:07	14:59:41	332717	60d5ff02fef54b0399953c12	314652025	1	main_slash	7	advance_on_keypress_SLASH	108	stimuli_target_trianglecircles.svg	stimuli_distractor_trianglediamonds.svg	17	yes	57	0	382
6.6.1	win	2022-12-14	14:54:07	14:59:43	334341	60d5ff02fef54b0399953c12	314652025	1	main_slash	7	main_slash	109	stimuli_distractor_diamondtriangles.svg	stimuli_distractor_trianglediamonds.svg	38	no	53	0	629
6.6.1	win	2022-12-14	14:54:07	14:59:43	334341	60d5ff02fef54b0399953c12	314652025	1	main_slash	7	advance_on_keypress_SLASH	110	stimuli_distractor_diamondtriangles.svg	stimuli_distractor_trianglediamonds.svg	38	no	57	0	437
6.6.1	win	2022-12-14	14:54:07	14:59:46	337396	60d5ff02fef54b0399953c12	314652025	1	main_slash	7	main_slash	111	stimuli_distractor_trianglediamonds.svg	stimuli_distractor_trianglediamonds.svg	34	no	0	1	2003
6.6.1	win	2022-12-14	14:54:07	14:59:46	337396	60d5ff02fef54b0399953c12	314652025	1	main_slash	7	advance_on_keypress_SLASH	112	stimuli_distractor_trianglediamonds.svg	stimuli_distractor_trianglediamonds.svg	34	no	57	0	294
6.6.1	win	2022-12-14	14:54:07	14:59:47	339213	60d5ff02fef54b0399953c12	314652025	1	main_slash	7	main_slash	113	stimuli_target_squaretriangles.svg	stimuli_distractor_trianglediamonds.svg	3	yes	53	1	911
6.6.1	win	2022-12-14	14:54:07	14:59:47	339213	60d5ff02fef54b0399953c12	314652025	1	main_slash	7	advance_on_keypress_SLASH	114	stimuli_target_squaretriangles.svg	stimuli_distractor_trianglediamonds.svg	3	yes	57	0	410
6.6.1	win	2022-12-14	14:54:07	14:59:49	341133	60d5ff02fef54b0399953c12	314652025	1	main_slash	7	main_slash	115	stimuli_target_diamondsquares.svg	stimuli_distractor_diamondtriangles.svg	24	yes	53	1	894
6.6.1	win	2022-12-14	14:54:07	14:59:49	341133	60d5ff02fef54b0399953c12	314652025	1	main_slash	7	advance_on_keypress_SLASH	116	stimuli_target_diamondsquares.svg	stimuli_distractor_diamondtriangles.svg	24	yes	57	0	310
6.6.1	win	2022-12-14	14:54:07	14:59:51	342677	60d5ff02fef54b0399953c12	314652025	1	main_slash	7	main_slash	117	stimuli_distractor_diamondtriangles.svg	stimuli_target_circletriangles.svg	13	yes	53	1	625
6.6.1	win	2022-12-14	14:54:07	14:59:51	342677	60d5ff02fef54b0399953c12	314652025	1	main_slash	7	advance_on_keypress_SLASH	118	stimuli_distractor_diamondtriangles.svg	stimuli_target_circletriangles.svg	13	yes	57	0	409
6.6.1	win	2022-12-14	14:54:07	14:59:54	345708	60d5ff02fef54b0399953c12	314652025	1	main_slash	7	main_slash	119	stimuli_distractor_diamondtriangles.svg	stimuli_distractor_diamondtriangles.svg	39	no	0	1	2003
6.6.1	win	2022-12-14	14:54:07	14:59:54	345708	60d5ff02fef54b0399953c12	314652025	1	main_slash	7	advance_on_keypress_SLASH	120	stimuli_distractor_diamondtriangles.svg	stimuli_distractor_diamondtriangles.svg	39	no	57	0	270
6.6.1	win	2022-12-14	14:54:07	14:59:56	347629	60d5ff02fef54b0399953c12	314652025	1	main_slash	7	main_slash	121	stimuli_distractor_diamondtriangles.svg	stimuli_target_squaretriangles.svg	15	yes	53	1	1036
6.6.1	win	2022-12-14	14:54:07	14:59:56	347629	60d5ff02fef54b0399953c12	314652025	1	main_slash	7	advance_on_keypress_SLASH	122	stimuli_distractor_diamondtriangles.svg	stimuli_target_squaretriangles.svg	15	yes	57	0	330
6.6.1	win	2022-12-14	14:54:07	14:59:58	349437	60d5ff02fef54b0399953c12	314652025	1	main_slash	7	main_slash	123	stimuli_target_diamondcircles.svg	stimuli_distractor_trianglediamonds.svg	19	yes	53	1	864
6.6.1	win	2022-12-14	14:54:07	14:59:58	349437	60d5ff02fef54b0399953c12	314652025	1	main_slash	7	advance_on_keypress_SLASH	124	stimuli_target_diamondcircles.svg	stimuli_distractor_trianglediamonds.svg	19	yes	57	0	340
6.6.1	win	2022-12-14	14:54:07	14:59:59	350941	60d5ff02fef54b0399953c12	314652025	1	main_slash	7	main_slash	125	stimuli_distractor_diamondtriangles.svg	stimuli_target_trianglesquares.svg	30	yes	53	1	549
6.6.1	win	2022-12-14	14:54:07	14:59:59	350941	60d5ff02fef54b0399953c12	314652025	1	main_slash	7	advance_on_keypress_SLASH	126	stimuli_distractor_diamondtriangles.svg	stimuli_target_trianglesquares.svg	30	yes	57	0	410
6.6.1	win	2022-12-14	14:54:07	15:00:02	353972	60d5ff02fef54b0399953c12	314652025	1	main_slash	7	main_slash	127	stimuli_distractor_trianglediamonds.svg	stimuli_target_squarediamonds.svg	12	yes	0	0	2003
6.6.1	win	2022-12-14	14:54:07	15:00:02	353972	60d5ff02fef54b0399953c12	314652025	1	main_slash	7	advance_on_keypress_SLASH	128	stimuli_distractor_trianglediamonds.svg	stimuli_target_squarediamonds.svg	12	yes	57	0	294
6.6.1	win	2022-12-14	14:54:07	15:00:05	356881	60d5ff02fef54b0399953c12	314652025	1	main_slash	7	main_slash	129	stimuli_distractor_diamondtriangles.svg	stimuli_distractor_trianglediamonds.svg	37	no	0	1	2003
6.6.1	win	2022-12-14	14:54:07	15:00:05	356881	60d5ff02fef54b0399953c12	314652025	1	main_slash	7	advance_on_keypress_SLASH	130	stimuli_distractor_diamondtriangles.svg	stimuli_distractor_trianglediamonds.svg	37	no	57	0	273
6.6.1	win	2022-12-14	14:54:07	15:00:06	358133	60d5ff02fef54b0399953c12	314652025	1	main_slash	7	main_slash	131	stimuli_target_circlediamonds.svg	stimuli_distractor_diamondtriangles.svg	6	yes	53	1	366
6.6.1	win	2022-12-14	14:54:07	15:00:06	358133	60d5ff02fef54b0399953c12	314652025	1	main_slash	7	advance_on_keypress_SLASH	132	stimuli_target_circlediamonds.svg	stimuli_distractor_diamondtriangles.svg	6	yes	57	0	758
6.6.1	win	2022-12-14	14:54:07	15:00:08	359966	60d5ff02fef54b0399953c12	314652025	1	main_slash	7	main_slash	133	stimuli_target_squarediamonds.svg	stimuli_distractor_diamondtriangles.svg	8	yes	53	1	463
6.6.1	win	2022-12-14	14:54:07	15:00:08	359966	60d5ff02fef54b0399953c12	314652025	1	main_slash	7	advance_on_keypress_SLASH	134	stimuli_target_squarediamonds.svg	stimuli_distractor_diamondtriangles.svg	8	yes	57	0	389
6.6.1	win	2022-12-14	14:54:07	15:00:10	361430	60d5ff02fef54b0399953c12	314652025	1	main_slash	7	main_slash	135	stimuli_distractor_diamondtriangles.svg	stimuli_target_squarediamonds.svg	16	yes	53	1	461
6.6.1	win	2022-12-14	14:54:07	15:00:10	361430	60d5ff02fef54b0399953c12	314652025	1	main_slash	7	advance_on_keypress_SLASH	136	stimuli_distractor_diamondtriangles.svg	stimuli_target_squarediamonds.svg	16	yes	57	0	476
6.6.1	win	2022-12-14	14:54:07	15:00:11	362878	60d5ff02fef54b0399953c12	314652025	1	main_slash	7	main_slash	137	stimuli_target_diamondsquares.svg	stimuli_distractor_trianglediamonds.svg	20	yes	53	1	360
6.6.1	win	2022-12-14	14:54:07	15:00:11	362878	60d5ff02fef54b0399953c12	314652025	1	main_slash	7	advance_on_keypress_SLASH	138	stimuli_target_diamondsquares.svg	stimuli_distractor_trianglediamonds.svg	20	yes	57	0	424
6.6.1	win	2022-12-14	14:54:07	15:00:13	364662	60d5ff02fef54b0399953c12	314652025	1	main_slash	7	main_slash	139	stimuli_distractor_trianglediamonds.svg	stimuli_target_circlediamonds.svg	10	yes	53	1	742
6.6.1	win	2022-12-14	14:54:07	15:00:13	364662	60d5ff02fef54b0399953c12	314652025	1	main_slash	7	advance_on_keypress_SLASH	140	stimuli_distractor_trianglediamonds.svg	stimuli_target_circlediamonds.svg	10	yes	57	0	480
6.6.1	win	2022-12-14	14:54:07	15:00:15	366246	60d5ff02fef54b0399953c12	314652025	1	main_slash	7	main_slash	141	stimuli_distractor_trianglediamonds.svg	stimuli_distractor_diamondtriangles.svg	36	no	53	0	486
6.6.1	win	2022-12-14	14:54:07	15:00:15	366246	60d5ff02fef54b0399953c12	314652025	1	main_slash	7	advance_on_keypress_SLASH	142	stimuli_distractor_trianglediamonds.svg	stimuli_distractor_diamondtriangles.svg	36	no	57	0	417
6.6.1	win	2022-12-14	14:54:07	15:00:16	367878	60d5ff02fef54b0399953c12	314652025	1	main_slash	7	main_slash	143	stimuli_distractor_diamondtriangles.svg	stimuli_target_diamondcircles.svg	31	yes	53	1	597
6.6.1	win	2022-12-14	14:54:07	15:00:16	367878	60d5ff02fef54b0399953c12	314652025	1	main_slash	7	advance_on_keypress_SLASH	144	stimuli_distractor_diamondtriangles.svg	stimuli_target_diamondcircles.svg	31	yes	57	0	361
6.6.1	win	2022-12-14	14:54:07	15:00:18	369270	60d5ff02fef54b0399953c12	314652025	1	main_slash	7	main_slash	145	stimuli_distractor_trianglediamonds.svg	stimuli_target_diamondcircles.svg	27	yes	53	1	412
6.6.1	win	2022-12-14	14:54:07	15:00:18	369270	60d5ff02fef54b0399953c12	314652025	1	main_slash	7	advance_on_keypress_SLASH	146	stimuli_distractor_trianglediamonds.svg	stimuli_target_diamondcircles.svg	27	yes	57	0	412
6.6.1	win	2022-12-14	14:54:07	15:00:21	372297	60d5ff02fef54b0399953c12	314652025	1	main_slash	7	main_slash	147	stimuli_distractor_diamondtriangles.svg	stimuli_distractor_diamondtriangles.svg	40	no	0	1	2003
6.6.1	win	2022-12-14	14:54:07	15:00:21	372297	60d5ff02fef54b0399953c12	314652025	1	main_slash	7	advance_on_keypress_SLASH	148	stimuli_distractor_diamondtriangles.svg	stimuli_distractor_diamondtriangles.svg	40	no	57	0	320
6.6.1	win	2022-12-14	14:54:07	15:00:23	375235	60d5ff02fef54b0399953c12	314652025	1	main_slash	7	main_slash	149	stimuli_distractor_trianglediamonds.svg	stimuli_distractor_trianglediamonds.svg	33	no	0	1	2003
6.6.1	win	2022-12-14	14:54:07	15:00:23	375235	60d5ff02fef54b0399953c12	314652025	1	main_slash	7	advance_on_keypress_SLASH	150	stimuli_distractor_trianglediamonds.svg	stimuli_distractor_trianglediamonds.svg	33	no	57	0	312
6.6.1	win	2022-12-14	14:54:07	15:00:25	376510	60d5ff02fef54b0399953c12	314652025	1	main_slash	7	main_slash	151	stimuli_target_squarediamonds.svg	stimuli_distractor_trianglediamonds.svg	4	yes	53	1	348
6.6.1	win	2022-12-14	14:54:07	15:00:25	376510	60d5ff02fef54b0399953c12	314652025	1	main_slash	7	advance_on_keypress_SLASH	152	stimuli_target_squarediamonds.svg	stimuli_distractor_trianglediamonds.svg	4	yes	57	0	474
6.6.1	win	2022-12-14	14:54:07	15:00:26	378086	60d5ff02fef54b0399953c12	314652025	1	main_slash	7	main_slash	153	stimuli_distractor_trianglediamonds.svg	stimuli_target_squaretriangles.svg	11	yes	53	1	487
6.6.1	win	2022-12-14	14:54:07	15:00:26	378086	60d5ff02fef54b0399953c12	314652025	1	main_slash	7	advance_on_keypress_SLASH	154	stimuli_distractor_trianglediamonds.svg	stimuli_target_squaretriangles.svg	11	yes	57	0	442
6.6.1	win	2022-12-14	14:54:07	15:00:28	379694	60d5ff02fef54b0399953c12	314652025	1	main_slash	7	main_slash	155	stimuli_distractor_trianglediamonds.svg	stimuli_target_circletriangles.svg	9	yes	53	1	553
6.6.1	win	2022-12-14	14:54:07	15:00:28	379694	60d5ff02fef54b0399953c12	314652025	1	main_slash	7	advance_on_keypress_SLASH	156	stimuli_distractor_trianglediamonds.svg	stimuli_target_circletriangles.svg	9	yes	57	0	430
6.6.1	win	2022-12-14	14:54:07	15:00:29	381150	60d5ff02fef54b0399953c12	314652025	1	main_slash	7	main_slash	157	stimuli_target_trianglecircles.svg	stimuli_distractor_diamondtriangles.svg	21	yes	53	1	412
6.6.1	win	2022-12-14	14:54:07	15:00:29	381150	60d5ff02fef54b0399953c12	314652025	1	main_slash	7	advance_on_keypress_SLASH	158	stimuli_target_trianglecircles.svg	stimuli_distractor_diamondtriangles.svg	21	yes	57	0	363
6.6.1	win	2022-12-14	14:54:07	15:00:31	382566	60d5ff02fef54b0399953c12	314652025	1	main_slash	7	main_slash	159	stimuli_target_circlediamonds.svg	stimuli_distractor_trianglediamonds.svg	2	yes	53	1	439
6.6.1	win	2022-12-14	14:54:07	15:00:31	382566	60d5ff02fef54b0399953c12	314652025	1	main_slash	7	advance_on_keypress_SLASH	160	stimuli_target_circlediamonds.svg	stimuli_distractor_trianglediamonds.svg	2	yes	57	0	427
6.6.1	win	2022-12-14	14:54:07	15:00:53	404591	60d5ff02fef54b0399953c12	314652025	1	practice_z	9	practice_z	1	stimuli_target_circlediamonds.svg	stimuli_distractor_diamondtriangles.svg	1	yes	44	1	408
6.6.1	win	2022-12-14	14:54:07	15:00:53	404591	60d5ff02fef54b0399953c12	314652025	1	practice_z	9	advance_on_keypress_ZEE	2	stimuli_target_circlediamonds.svg	stimuli_distractor_diamondtriangles.svg	1	yes	57	0	536
6.6.1	win	2022-12-14	14:54:07	15:00:56	407374	60d5ff02fef54b0399953c12	314652025	1	practice_z	9	practice_z	3	stimuli_distractor_diamondtriangles.svg	stimuli_distractor_trianglediamonds.svg	14	no	44	0	630
6.6.1	win	2022-12-14	14:54:07	15:00:56	407374	60d5ff02fef54b0399953c12	314652025	1	practice_z	9	advance_on_keypress_ZEE	4	stimuli_distractor_diamondtriangles.svg	stimuli_distractor_trianglediamonds.svg	14	no	57	0	558
6.6.1	win	2022-12-14	14:54:07	15:00:59	410256	60d5ff02fef54b0399953c12	314652025	1	practice_z	9	practice_z	5	stimuli_distractor_trianglediamonds.svg	stimuli_target_circlediamonds.svg	10	yes	44	1	711
6.6.1	win	2022-12-14	14:54:07	15:00:59	410256	60d5ff02fef54b0399953c12	314652025	1	practice_z	9	advance_on_keypress_ZEE	6	stimuli_distractor_trianglediamonds.svg	stimuli_target_circlediamonds.svg	10	yes	57	0	420
6.6.1	win	2022-12-14	14:54:07	15:01:01	412839	60d5ff02fef54b0399953c12	314652025	1	practice_z	9	practice_z	7	stimuli_target_squarediamonds.svg	stimuli_distractor_trianglediamonds.svg	5	yes	44	1	552
6.6.1	win	2022-12-14	14:54:07	15:01:01	412839	60d5ff02fef54b0399953c12	314652025	1	practice_z	9	advance_on_keypress_ZEE	8	stimuli_target_squarediamonds.svg	stimuli_distractor_trianglediamonds.svg	5	yes	57	0	421
6.6.1	win	2022-12-14	14:54:07	15:01:04	415415	60d5ff02fef54b0399953c12	314652025	1	practice_z	9	practice_z	9	stimuli_target_diamondsquares.svg	stimuli_distractor_trianglediamonds.svg	6	yes	44	1	545
6.6.1	win	2022-12-14	14:54:07	15:01:04	415415	60d5ff02fef54b0399953c12	314652025	1	practice_z	9	advance_on_keypress_ZEE	10	stimuli_target_diamondsquares.svg	stimuli_distractor_trianglediamonds.svg	6	yes	57	0	468
6.6.1	win	2022-12-14	14:54:07	15:01:08	419497	60d5ff02fef54b0399953c12	314652025	1	practice_z	9	practice_z	11	stimuli_distractor_trianglediamonds.svg	stimuli_distractor_trianglediamonds.svg	15	no	0	1	2003
6.6.1	win	2022-12-14	14:54:07	15:01:08	419497	60d5ff02fef54b0399953c12	314652025	1	practice_z	9	advance_on_keypress_ZEE	12	stimuli_distractor_trianglediamonds.svg	stimuli_distractor_trianglediamonds.svg	15	no	57	0	682
6.6.1	win	2022-12-14	14:54:07	15:01:12	423797	60d5ff02fef54b0399953c12	314652025	1	practice_z	9	practice_z	13	stimuli_distractor_trianglediamonds.svg	stimuli_distractor_diamondtriangles.svg	16	no	0	1	2003
6.6.1	win	2022-12-14	14:54:07	15:01:12	423797	60d5ff02fef54b0399953c12	314652025	1	practice_z	9	advance_on_keypress_ZEE	14	stimuli_distractor_trianglediamonds.svg	stimuli_distractor_diamondtriangles.svg	16	no	57	0	320
6.6.1	win	2022-12-14	14:54:07	15:01:15	426663	60d5ff02fef54b0399953c12	314652025	1	practice_z	9	practice_z	15	stimuli_distractor_trianglediamonds.svg	stimuli_target_diamondcircles.svg	12	yes	44	1	933
6.6.1	win	2022-12-14	14:54:07	15:01:15	426663	60d5ff02fef54b0399953c12	314652025	1	practice_z	9	advance_on_keypress_ZEE	16	stimuli_distractor_trianglediamonds.svg	stimuli_target_diamondcircles.svg	12	yes	57	0	388
6.6.1	win	2022-12-14	14:54:07	15:01:18	429279	60d5ff02fef54b0399953c12	314652025	1	practice_z	9	practice_z	17	stimuli_distractor_diamondtriangles.svg	stimuli_target_diamondcircles.svg	8	yes	44	1	612
6.6.1	win	2022-12-14	14:54:07	15:01:18	429279	60d5ff02fef54b0399953c12	314652025	1	practice_z	9	advance_on_keypress_ZEE	18	stimuli_distractor_diamondtriangles.svg	stimuli_target_diamondcircles.svg	8	yes	57	0	298
6.6.1	win	2022-12-14	14:54:07	15:01:20	431919	60d5ff02fef54b0399953c12	314652025	1	practice_z	9	practice_z	19	stimuli_distractor_diamondtriangles.svg	stimuli_target_trianglecircles.svg	9	yes	44	1	724
6.6.1	win	2022-12-14	14:54:07	15:01:20	431919	60d5ff02fef54b0399953c12	314652025	1	practice_z	9	advance_on_keypress_ZEE	20	stimuli_distractor_diamondtriangles.svg	stimuli_target_trianglecircles.svg	9	yes	57	0	251
6.6.1	win	2022-12-14	14:54:07	15:01:23	434591	60d5ff02fef54b0399953c12	314652025	1	practice_z	9	practice_z	21	stimuli_target_diamondsquares.svg	stimuli_distractor_diamondtriangles.svg	3	yes	44	1	806
6.6.1	win	2022-12-14	14:54:07	15:01:23	434591	60d5ff02fef54b0399953c12	314652025	1	practice_z	9	advance_on_keypress_ZEE	22	stimuli_target_diamondsquares.svg	stimuli_distractor_diamondtriangles.svg	3	yes	57	0	266
6.6.1	win	2022-12-14	14:54:07	15:01:25	437200	60d5ff02fef54b0399953c12	314652025	1	practice_z	9	practice_z	23	stimuli_target_circlediamonds.svg	stimuli_distractor_trianglediamonds.svg	4	yes	44	1	727
6.6.1	win	2022-12-14	14:54:07	15:01:25	437200	60d5ff02fef54b0399953c12	314652025	1	practice_z	9	advance_on_keypress_ZEE	24	stimuli_target_circlediamonds.svg	stimuli_distractor_trianglediamonds.svg	4	yes	57	0	325
6.6.1	win	2022-12-14	14:54:07	15:01:28	439727	60d5ff02fef54b0399953c12	314652025	1	practice_z	9	practice_z	25	stimuli_distractor_diamondtriangles.svg	stimuli_target_circletriangles.svg	7	yes	44	1	588
6.6.1	win	2022-12-14	14:54:07	15:01:28	439727	60d5ff02fef54b0399953c12	314652025	1	practice_z	9	advance_on_keypress_ZEE	26	stimuli_distractor_diamondtriangles.svg	stimuli_target_circletriangles.svg	7	yes	57	0	310
6.6.1	win	2022-12-14	14:54:07	15:01:30	442047	60d5ff02fef54b0399953c12	314652025	1	practice_z	9	practice_z	27	stimuli_target_squarediamonds.svg	stimuli_distractor_diamondtriangles.svg	2	yes	44	1	394
6.6.1	win	2022-12-14	14:54:07	15:01:30	442047	60d5ff02fef54b0399953c12	314652025	1	practice_z	9	advance_on_keypress_ZEE	28	stimuli_target_squarediamonds.svg	stimuli_distractor_diamondtriangles.svg	2	yes	57	0	327
6.6.1	win	2022-12-14	14:54:07	15:01:34	445996	60d5ff02fef54b0399953c12	314652025	1	practice_z	9	practice_z	29	stimuli_distractor_diamondtriangles.svg	stimuli_distractor_diamondtriangles.svg	13	no	0	1	2003
6.6.1	win	2022-12-14	14:54:07	15:01:34	445996	60d5ff02fef54b0399953c12	314652025	1	practice_z	9	advance_on_keypress_ZEE	30	stimuli_distractor_diamondtriangles.svg	stimuli_distractor_diamondtriangles.svg	13	no	57	0	343
6.6.1	win	2022-12-14	14:54:07	15:01:37	448631	60d5ff02fef54b0399953c12	314652025	1	practice_z	9	practice_z	31	stimuli_distractor_trianglediamonds.svg	stimuli_target_squarediamonds.svg	11	yes	44	1	680
6.6.1	win	2022-12-14	14:54:07	15:01:37	448631	60d5ff02fef54b0399953c12	314652025	1	practice_z	9	advance_on_keypress_ZEE	32	stimuli_distractor_trianglediamonds.svg	stimuli_target_squarediamonds.svg	11	yes	57	0	320
6.6.1	win	2022-12-14	14:54:07	15:01:43	454420	60d5ff02fef54b0399953c12	314652025	1	main_z	11	main_z	1	stimuli_distractor_trianglediamonds.svg	stimuli_distractor_diamondtriangles.svg	35	no	0	1	2003
6.6.1	win	2022-12-14	14:54:07	15:01:43	454420	60d5ff02fef54b0399953c12	314652025	1	main_z	11	advance_on_keypress_ZEE	2	stimuli_distractor_trianglediamonds.svg	stimuli_distractor_diamondtriangles.svg	35	no	57	0	425
6.6.1	win	2022-12-14	14:54:07	15:01:46	457468	60d5ff02fef54b0399953c12	314652025	1	main_z	11	main_z	3	stimuli_distractor_diamondtriangles.svg	stimuli_distractor_trianglediamonds.svg	37	no	0	1	2003
6.6.1	win	2022-12-14	14:54:07	15:01:46	457468	60d5ff02fef54b0399953c12	314652025	1	main_z	11	advance_on_keypress_ZEE	4	stimuli_distractor_diamondtriangles.svg	stimuli_distractor_trianglediamonds.svg	37	no	57	0	455
6.6.1	win	2022-12-14	14:54:07	15:01:47	459144	60d5ff02fef54b0399953c12	314652025	1	main_z	11	main_z	5	stimuli_target_trianglecircles.svg	stimuli_distractor_diamondtriangles.svg	21	yes	44	1	609
6.6.1	win	2022-12-14	14:54:07	15:01:47	459144	60d5ff02fef54b0399953c12	314652025	1	main_z	11	advance_on_keypress_ZEE	6	stimuli_target_trianglecircles.svg	stimuli_distractor_diamondtriangles.svg	21	yes	57	0	918
6.6.1	win	2022-12-14	14:54:07	15:01:49	461128	60d5ff02fef54b0399953c12	314652025	1	main_z	11	main_z	7	stimuli_target_trianglesquares.svg	stimuli_distractor_diamondtriangles.svg	22	yes	44	1	455
6.6.1	win	2022-12-14	14:54:07	15:01:49	461128	60d5ff02fef54b0399953c12	314652025	1	main_z	11	advance_on_keypress_ZEE	8	stimuli_target_trianglesquares.svg	stimuli_distractor_diamondtriangles.svg	22	yes	57	0	628
6.6.1	win	2022-12-14	14:54:07	15:01:53	464371	60d5ff02fef54b0399953c12	314652025	1	main_z	11	main_z	9	stimuli_distractor_trianglediamonds.svg	stimuli_distractor_trianglediamonds.svg	33	no	0	1	2003
6.6.1	win	2022-12-14	14:54:07	15:01:53	464371	60d5ff02fef54b0399953c12	314652025	1	main_z	11	advance_on_keypress_ZEE	10	stimuli_distractor_trianglediamonds.svg	stimuli_distractor_trianglediamonds.svg	33	no	57	0	426
6.6.1	win	2022-12-14	14:54:07	15:01:54	465976	60d5ff02fef54b0399953c12	314652025	1	main_z	11	main_z	11	stimuli_target_circletriangles.svg	stimuli_distractor_diamondtriangles.svg	5	yes	44	1	567
6.6.1	win	2022-12-14	14:54:07	15:01:54	465976	60d5ff02fef54b0399953c12	314652025	1	main_z	11	advance_on_keypress_ZEE	12	stimuli_target_circletriangles.svg	stimuli_distractor_diamondtriangles.svg	5	yes	57	0	526
6.6.1	win	2022-12-14	14:54:07	15:01:56	467768	60d5ff02fef54b0399953c12	314652025	1	main_z	11	main_z	13	stimuli_distractor_diamondtriangles.svg	stimuli_target_diamondsquares.svg	32	yes	44	1	658
6.6.1	win	2022-12-14	14:54:07	15:01:56	467768	60d5ff02fef54b0399953c12	314652025	1	main_z	11	advance_on_keypress_ZEE	14	stimuli_distractor_diamondtriangles.svg	stimuli_target_diamondsquares.svg	32	yes	57	0	398
6.6.1	win	2022-12-14	14:54:07	15:01:58	469488	60d5ff02fef54b0399953c12	314652025	1	main_z	11	main_z	15	stimuli_distractor_diamondtriangles.svg	stimuli_distractor_diamondtriangles.svg	40	no	44	0	711
6.6.1	win	2022-12-14	14:54:07	15:01:58	469488	60d5ff02fef54b0399953c12	314652025	1	main_z	11	advance_on_keypress_ZEE	16	stimuli_distractor_diamondtriangles.svg	stimuli_distractor_diamondtriangles.svg	40	no	57	0	476
6.6.1	win	2022-12-14	14:54:07	15:01:59	471200	60d5ff02fef54b0399953c12	314652025	1	main_z	11	main_z	17	stimuli_distractor_diamondtriangles.svg	stimuli_target_diamondcircles.svg	31	yes	44	1	624
6.6.1	win	2022-12-14	14:54:07	15:01:59	471200	60d5ff02fef54b0399953c12	314652025	1	main_z	11	advance_on_keypress_ZEE	18	stimuli_distractor_diamondtriangles.svg	stimuli_target_diamondcircles.svg	31	yes	57	0	361
6.6.1	win	2022-12-14	14:54:07	15:02:02	474183	60d5ff02fef54b0399953c12	314652025	1	main_z	11	main_z	19	stimuli_distractor_trianglediamonds.svg	stimuli_distractor_trianglediamonds.svg	34	no	0	1	2003
6.6.1	win	2022-12-14	14:54:07	15:02:02	474183	60d5ff02fef54b0399953c12	314652025	1	main_z	11	advance_on_keypress_ZEE	20	stimuli_distractor_trianglediamonds.svg	stimuli_distractor_trianglediamonds.svg	34	no	57	0	414
6.6.1	win	2022-12-14	14:54:07	15:02:04	476024	60d5ff02fef54b0399953c12	314652025	1	main_z	11	main_z	21	stimuli_distractor_diamondtriangles.svg	stimuli_target_squarediamonds.svg	16	yes	44	1	817
6.6.1	win	2022-12-14	14:54:07	15:02:04	476024	60d5ff02fef54b0399953c12	314652025	1	main_z	11	advance_on_keypress_ZEE	22	stimuli_distractor_diamondtriangles.svg	stimuli_target_squarediamonds.svg	16	yes	57	0	413
6.6.1	win	2022-12-14	14:54:07	15:02:06	477704	60d5ff02fef54b0399953c12	314652025	1	main_z	11	main_z	23	stimuli_distractor_diamondtriangles.svg	stimuli_target_circlediamonds.svg	14	yes	44	1	656
6.6.1	win	2022-12-14	14:54:07	15:02:06	477704	60d5ff02fef54b0399953c12	314652025	1	main_z	11	advance_on_keypress_ZEE	24	stimuli_distractor_diamondtriangles.svg	stimuli_target_circlediamonds.svg	14	yes	57	0	405
6.6.1	win	2022-12-14	14:54:07	15:02:08	479264	60d5ff02fef54b0399953c12	314652025	1	main_z	11	main_z	25	stimuli_distractor_trianglediamonds.svg	stimuli_target_squarediamonds.svg	12	yes	44	1	543
6.6.1	win	2022-12-14	14:54:07	15:02:08	479264	60d5ff02fef54b0399953c12	314652025	1	main_z	11	advance_on_keypress_ZEE	26	stimuli_distractor_trianglediamonds.svg	stimuli_target_squarediamonds.svg	12	yes	57	0	426
6.6.1	win	2022-12-14	14:54:07	15:02:09	480800	60d5ff02fef54b0399953c12	314652025	1	main_z	11	main_z	27	stimuli_target_diamondcircles.svg	stimuli_distractor_diamondtriangles.svg	23	yes	44	1	496
6.6.1	win	2022-12-14	14:54:07	15:02:09	480800	60d5ff02fef54b0399953c12	314652025	1	main_z	11	advance_on_keypress_ZEE	28	stimuli_target_diamondcircles.svg	stimuli_distractor_diamondtriangles.svg	23	yes	57	0	332
6.6.1	win	2022-12-14	14:54:07	15:02:10	482136	60d5ff02fef54b0399953c12	314652025	1	main_z	11	main_z	29	stimuli_target_trianglesquares.svg	stimuli_distractor_trianglediamonds.svg	18	yes	44	1	387
6.6.1	win	2022-12-14	14:54:07	15:02:10	482136	60d5ff02fef54b0399953c12	314652025	1	main_z	11	advance_on_keypress_ZEE	30	stimuli_target_trianglesquares.svg	stimuli_distractor_trianglediamonds.svg	18	yes	57	0	399
6.6.1	win	2022-12-14	14:54:07	15:02:12	483632	60d5ff02fef54b0399953c12	314652025	1	main_z	11	main_z	31	stimuli_distractor_trianglediamonds.svg	stimuli_target_trianglecircles.svg	25	yes	44	1	481
6.6.1	win	2022-12-14	14:54:07	15:02:12	483632	60d5ff02fef54b0399953c12	314652025	1	main_z	11	advance_on_keypress_ZEE	32	stimuli_distractor_trianglediamonds.svg	stimuli_target_trianglecircles.svg	25	yes	57	0	370
6.6.1	win	2022-12-14	14:54:07	15:02:15	486620	60d5ff02fef54b0399953c12	314652025	1	main_z	11	main_z	33	stimuli_distractor_diamondtriangles.svg	stimuli_distractor_diamondtriangles.svg	39	no	0	1	2003
6.6.1	win	2022-12-14	14:54:07	15:02:15	486620	60d5ff02fef54b0399953c12	314652025	1	main_z	11	advance_on_keypress_ZEE	34	stimuli_distractor_diamondtriangles.svg	stimuli_distractor_diamondtriangles.svg	39	no	57	0	312
6.6.1	win	2022-12-14	14:54:07	15:02:16	487960	60d5ff02fef54b0399953c12	314652025	1	main_z	11	main_z	35	stimuli_distractor_trianglediamonds.svg	stimuli_target_diamondcircles.svg	27	yes	44	1	413
6.6.1	win	2022-12-14	14:54:07	15:02:16	487960	60d5ff02fef54b0399953c12	314652025	1	main_z	11	advance_on_keypress_ZEE	36	stimuli_distractor_trianglediamonds.svg	stimuli_target_diamondcircles.svg	27	yes	57	0	388
6.6.1	win	2022-12-14	14:54:07	15:02:18	489488	60d5ff02fef54b0399953c12	314652025	1	main_z	11	main_z	37	stimuli_target_diamondcircles.svg	stimuli_distractor_trianglediamonds.svg	19	yes	44	1	524
6.6.1	win	2022-12-14	14:54:07	15:02:18	489488	60d5ff02fef54b0399953c12	314652025	1	main_z	11	advance_on_keypress_ZEE	38	stimuli_target_diamondcircles.svg	stimuli_distractor_trianglediamonds.svg	19	yes	57	0	476
6.6.1	win	2022-12-14	14:54:07	15:02:19	490968	60d5ff02fef54b0399953c12	314652025	1	main_z	11	main_z	39	stimuli_distractor_diamondtriangles.svg	stimuli_target_trianglesquares.svg	30	yes	44	1	393
6.6.1	win	2022-12-14	14:54:07	15:02:19	490968	60d5ff02fef54b0399953c12	314652025	1	main_z	11	advance_on_keypress_ZEE	40	stimuli_distractor_diamondtriangles.svg	stimuli_target_trianglesquares.svg	30	yes	57	0	342
6.6.1	win	2022-12-14	14:54:07	15:02:22	493925	60d5ff02fef54b0399953c12	314652025	1	main_z	11	main_z	41	stimuli_distractor_diamondtriangles.svg	stimuli_distractor_trianglediamonds.svg	38	no	0	1	2003
6.6.1	win	2022-12-14	14:54:07	15:02:22	493925	60d5ff02fef54b0399953c12	314652025	1	main_z	11	advance_on_keypress_ZEE	42	stimuli_distractor_diamondtriangles.svg	stimuli_distractor_trianglediamonds.svg	38	no	57	0	399
6.6.1	win	2022-12-14	14:54:07	15:02:24	495480	60d5ff02fef54b0399953c12	314652025	1	main_z	11	main_z	43	stimuli_distractor_trianglediamonds.svg	stimuli_target_trianglesquares.svg	26	yes	44	1	544
6.6.1	win	2022-12-14	14:54:07	15:02:24	495480	60d5ff02fef54b0399953c12	314652025	1	main_z	11	advance_on_keypress_ZEE	44	stimuli_distractor_trianglediamonds.svg	stimuli_target_trianglesquares.svg	26	yes	57	0	428
6.6.1	win	2022-12-14	14:54:07	15:02:25	496937	60d5ff02fef54b0399953c12	314652025	1	main_z	11	main_z	45	stimuli_target_trianglecircles.svg	stimuli_distractor_trianglediamonds.svg	17	yes	44	1	417
6.6.1	win	2022-12-14	14:54:07	15:02:25	496937	60d5ff02fef54b0399953c12	314652025	1	main_z	11	advance_on_keypress_ZEE	46	stimuli_target_trianglecircles.svg	stimuli_distractor_trianglediamonds.svg	17	yes	57	0	337
6.6.1	win	2022-12-14	14:54:07	15:02:27	498353	60d5ff02fef54b0399953c12	314652025	1	main_z	11	main_z	47	stimuli_target_circletriangles.svg	stimuli_distractor_trianglediamonds.svg	1	yes	44	1	465
6.6.1	win	2022-12-14	14:54:07	15:02:27	498353	60d5ff02fef54b0399953c12	314652025	1	main_z	11	advance_on_keypress_ZEE	48	stimuli_target_circletriangles.svg	stimuli_distractor_trianglediamonds.svg	1	yes	57	0	337
6.6.1	win	2022-12-14	14:54:07	15:02:28	499617	60d5ff02fef54b0399953c12	314652025	1	main_z	11	main_z	49	stimuli_target_circlediamonds.svg	stimuli_distractor_diamondtriangles.svg	6	yes	44	1	312
6.6.1	win	2022-12-14	14:54:07	15:02:28	499617	60d5ff02fef54b0399953c12	314652025	1	main_z	11	advance_on_keypress_ZEE	50	stimuli_target_circlediamonds.svg	stimuli_distractor_diamondtriangles.svg	6	yes	57	0	297
6.6.1	win	2022-12-14	14:54:07	15:02:29	500825	60d5ff02fef54b0399953c12	314652025	1	main_z	11	main_z	51	stimuli_distractor_trianglediamonds.svg	stimuli_target_circlediamonds.svg	10	yes	44	1	292
6.6.1	win	2022-12-14	14:54:07	15:02:29	500825	60d5ff02fef54b0399953c12	314652025	1	main_z	11	advance_on_keypress_ZEE	52	stimuli_distractor_trianglediamonds.svg	stimuli_target_circlediamonds.svg	10	yes	57	0	313
6.6.1	win	2022-12-14	14:54:07	15:02:30	502049	60d5ff02fef54b0399953c12	314652025	1	main_z	11	main_z	53	stimuli_distractor_diamondtriangles.svg	stimuli_target_trianglecircles.svg	29	yes	44	1	293
6.6.1	win	2022-12-14	14:54:07	15:02:30	502049	60d5ff02fef54b0399953c12	314652025	1	main_z	11	advance_on_keypress_ZEE	54	stimuli_distractor_diamondtriangles.svg	stimuli_target_trianglecircles.svg	29	yes	57	0	314
6.6.1	win	2022-12-14	14:54:07	15:02:33	504981	60d5ff02fef54b0399953c12	314652025	1	main_z	11	main_z	55	stimuli_distractor_trianglediamonds.svg	stimuli_distractor_diamondtriangles.svg	36	no	0	1	2003
6.6.1	win	2022-12-14	14:54:07	15:02:33	504981	60d5ff02fef54b0399953c12	314652025	1	main_z	11	advance_on_keypress_ZEE	56	stimuli_distractor_trianglediamonds.svg	stimuli_distractor_diamondtriangles.svg	36	no	57	0	337
6.6.1	win	2022-12-14	14:54:07	15:02:35	506353	60d5ff02fef54b0399953c12	314652025	1	main_z	11	main_z	57	stimuli_target_squaretriangles.svg	stimuli_distractor_diamondtriangles.svg	7	yes	44	1	423
6.6.1	win	2022-12-14	14:54:07	15:02:35	506353	60d5ff02fef54b0399953c12	314652025	1	main_z	11	advance_on_keypress_ZEE	58	stimuli_target_squaretriangles.svg	stimuli_distractor_diamondtriangles.svg	7	yes	57	0	385
6.6.1	win	2022-12-14	14:54:07	15:02:36	507849	60d5ff02fef54b0399953c12	314652025	1	main_z	11	main_z	59	stimuli_distractor_diamondtriangles.svg	stimuli_target_circletriangles.svg	13	yes	44	1	496
6.6.1	win	2022-12-14	14:54:07	15:02:36	507849	60d5ff02fef54b0399953c12	314652025	1	main_z	11	advance_on_keypress_ZEE	60	stimuli_distractor_diamondtriangles.svg	stimuli_target_circletriangles.svg	13	yes	57	0	437
6.6.1	win	2022-12-14	14:54:07	15:02:37	509209	60d5ff02fef54b0399953c12	314652025	1	main_z	11	main_z	61	stimuli_distractor_trianglediamonds.svg	stimuli_target_squaretriangles.svg	11	yes	44	1	308
6.6.1	win	2022-12-14	14:54:07	15:02:37	509209	60d5ff02fef54b0399953c12	314652025	1	main_z	11	advance_on_keypress_ZEE	62	stimuli_distractor_trianglediamonds.svg	stimuli_target_squaretriangles.svg	11	yes	57	0	356
6.6.1	win	2022-12-14	14:54:07	15:02:39	510425	60d5ff02fef54b0399953c12	314652025	1	main_z	11	main_z	63	stimuli_target_circlediamonds.svg	stimuli_distractor_trianglediamonds.svg	2	yes	44	1	247
6.6.1	win	2022-12-14	14:54:07	15:02:39	510425	60d5ff02fef54b0399953c12	314652025	1	main_z	11	advance_on_keypress_ZEE	64	stimuli_target_circlediamonds.svg	stimuli_distractor_trianglediamonds.svg	2	yes	57	0	365
6.6.1	win	2022-12-14	14:54:07	15:02:40	511609	60d5ff02fef54b0399953c12	314652025	1	main_z	11	main_z	65	stimuli_target_squarediamonds.svg	stimuli_distractor_trianglediamonds.svg	4	yes	44	1	208
6.6.1	win	2022-12-14	14:54:07	15:02:40	511609	60d5ff02fef54b0399953c12	314652025	1	main_z	11	advance_on_keypress_ZEE	66	stimuli_target_squarediamonds.svg	stimuli_distractor_trianglediamonds.svg	4	yes	57	0	337
6.6.1	win	2022-12-14	14:54:07	15:02:41	512753	60d5ff02fef54b0399953c12	314652025	1	main_z	11	main_z	67	stimuli_distractor_diamondtriangles.svg	stimuli_target_squaretriangles.svg	15	yes	44	1	193
6.6.1	win	2022-12-14	14:54:07	15:02:41	512753	60d5ff02fef54b0399953c12	314652025	1	main_z	11	advance_on_keypress_ZEE	68	stimuli_distractor_diamondtriangles.svg	stimuli_target_squaretriangles.svg	15	yes	57	0	326
6.6.1	win	2022-12-14	14:54:07	15:02:42	514001	60d5ff02fef54b0399953c12	314652025	1	main_z	11	main_z	69	stimuli_target_squaretriangles.svg	stimuli_distractor_trianglediamonds.svg	3	yes	44	1	309
6.6.1	win	2022-12-14	14:54:07	15:02:42	514001	60d5ff02fef54b0399953c12	314652025	1	main_z	11	advance_on_keypress_ZEE	70	stimuli_target_squaretriangles.svg	stimuli_distractor_trianglediamonds.svg	3	yes	57	0	316
6.6.1	win	2022-12-14	14:54:07	15:02:43	515193	60d5ff02fef54b0399953c12	314652025	1	main_z	11	main_z	71	stimuli_target_diamondsquares.svg	stimuli_distractor_diamondtriangles.svg	24	yes	44	1	265
6.6.1	win	2022-12-14	14:54:07	15:02:43	515193	60d5ff02fef54b0399953c12	314652025	1	main_z	11	advance_on_keypress_ZEE	72	stimuli_target_diamondsquares.svg	stimuli_distractor_diamondtriangles.svg	24	yes	57	0	410
6.6.1	win	2022-12-14	14:54:07	15:02:45	516553	60d5ff02fef54b0399953c12	314652025	1	main_z	11	main_z	73	stimuli_target_squarediamonds.svg	stimuli_distractor_diamondtriangles.svg	8	yes	44	1	333
6.6.1	win	2022-12-14	14:54:07	15:02:45	516553	60d5ff02fef54b0399953c12	314652025	1	main_z	11	advance_on_keypress_ZEE	74	stimuli_target_squarediamonds.svg	stimuli_distractor_diamondtriangles.svg	8	yes	57	0	465
6.6.1	win	2022-12-14	14:54:07	15:02:46	518145	60d5ff02fef54b0399953c12	314652025	1	main_z	11	main_z	75	stimuli_distractor_trianglediamonds.svg	stimuli_target_circletriangles.svg	9	yes	44	1	509
6.6.1	win	2022-12-14	14:54:07	15:02:46	518145	60d5ff02fef54b0399953c12	314652025	1	main_z	11	advance_on_keypress_ZEE	76	stimuli_distractor_trianglediamonds.svg	stimuli_target_circletriangles.svg	9	yes	57	0	331
6.6.1	win	2022-12-14	14:54:07	15:02:48	519425	60d5ff02fef54b0399953c12	314652025	1	main_z	11	main_z	77	stimuli_distractor_trianglediamonds.svg	stimuli_target_diamondsquares.svg	28	yes	44	1	337
6.6.1	win	2022-12-14	14:54:07	15:02:48	519425	60d5ff02fef54b0399953c12	314652025	1	main_z	11	advance_on_keypress_ZEE	78	stimuli_distractor_trianglediamonds.svg	stimuli_target_diamondsquares.svg	28	yes	57	0	461
6.6.1	win	2022-12-14	14:54:07	15:02:49	521025	60d5ff02fef54b0399953c12	314652025	1	main_z	11	main_z	79	stimuli_target_diamondsquares.svg	stimuli_distractor_trianglediamonds.svg	20	yes	44	1	528
6.6.1	win	2022-12-14	14:54:07	15:02:49	521025	60d5ff02fef54b0399953c12	314652025	1	main_z	11	advance_on_keypress_ZEE	80	stimuli_target_diamondsquares.svg	stimuli_distractor_trianglediamonds.svg	20	yes	57	0	297
6.6.1	win	2022-12-14	14:54:07	15:02:51	522793	60d5ff02fef54b0399953c12	314652025	1	main_z	11	main_z	81	stimuli_distractor_diamondtriangles.svg	stimuli_target_circlediamonds.svg	14	yes	44	1	858
6.6.1	win	2022-12-14	14:54:07	15:02:51	522793	60d5ff02fef54b0399953c12	314652025	1	main_z	11	advance_on_keypress_ZEE	82	stimuli_distractor_diamondtriangles.svg	stimuli_target_circlediamonds.svg	14	yes	57	0	413
6.6.1	win	2022-12-14	14:54:07	15:02:53	524337	60d5ff02fef54b0399953c12	314652025	1	main_z	11	main_z	83	stimuli_target_trianglecircles.svg	stimuli_distractor_trianglediamonds.svg	17	yes	44	1	520
6.6.1	win	2022-12-14	14:54:07	15:02:53	524337	60d5ff02fef54b0399953c12	314652025	1	main_z	11	advance_on_keypress_ZEE	84	stimuli_target_trianglecircles.svg	stimuli_distractor_trianglediamonds.svg	17	yes	57	0	408
6.6.1	win	2022-12-14	14:54:07	15:02:54	525745	60d5ff02fef54b0399953c12	314652025	1	main_z	11	main_z	85	stimuli_distractor_trianglediamonds.svg	stimuli_target_squarediamonds.svg	12	yes	44	1	380
6.6.1	win	2022-12-14	14:54:07	15:02:54	525745	60d5ff02fef54b0399953c12	314652025	1	main_z	11	advance_on_keypress_ZEE	86	stimuli_distractor_trianglediamonds.svg	stimuli_target_squarediamonds.svg	12	yes	57	0	382
6.6.1	win	2022-12-14	14:54:07	15:02:55	527129	60d5ff02fef54b0399953c12	314652025	1	main_z	11	main_z	87	stimuli_target_diamondcircles.svg	stimuli_distractor_trianglediamonds.svg	19	yes	44	1	389
6.6.1	win	2022-12-14	14:54:07	15:02:55	527129	60d5ff02fef54b0399953c12	314652025	1	main_z	11	advance_on_keypress_ZEE	88	stimuli_target_diamondcircles.svg	stimuli_distractor_trianglediamonds.svg	19	yes	57	0	705
6.6.1	win	2022-12-14	14:54:07	15:02:59	530452	60d5ff02fef54b0399953c12	314652025	1	main_z	11	main_z	89	stimuli_distractor_diamondtriangles.svg	stimuli_distractor_trianglediamonds.svg	38	no	0	1	2003
6.6.1	win	2022-12-14	14:54:07	15:02:59	530452	60d5ff02fef54b0399953c12	314652025	1	main_z	11	advance_on_keypress_ZEE	90	stimuli_distractor_diamondtriangles.svg	stimuli_distractor_trianglediamonds.svg	38	no	57	0	746
6.6.1	win	2022-12-14	14:54:07	15:03:00	532162	60d5ff02fef54b0399953c12	314652025	1	main_z	11	main_z	91	stimuli_target_circlediamonds.svg	stimuli_distractor_trianglediamonds.svg	2	yes	44	1	351
6.6.1	win	2022-12-14	14:54:07	15:03:00	532162	60d5ff02fef54b0399953c12	314652025	1	main_z	11	advance_on_keypress_ZEE	92	stimuli_target_circlediamonds.svg	stimuli_distractor_trianglediamonds.svg	2	yes	57	0	405
6.6.1	win	2022-12-14	14:54:07	15:03:02	533498	60d5ff02fef54b0399953c12	314652025	1	main_z	11	main_z	93	stimuli_distractor_trianglediamonds.svg	stimuli_target_trianglecircles.svg	25	yes	44	1	319
6.6.1	win	2022-12-14	14:54:07	15:03:02	533498	60d5ff02fef54b0399953c12	314652025	1	main_z	11	advance_on_keypress_ZEE	94	stimuli_distractor_trianglediamonds.svg	stimuli_target_trianglecircles.svg	25	yes	57	0	393
6.6.1	win	2022-12-14	14:54:07	15:03:03	535089	60d5ff02fef54b0399953c12	314652025	1	main_z	11	main_z	95	stimuli_target_diamondsquares.svg	stimuli_distractor_trianglediamonds.svg	20	yes	44	1	585
6.6.1	win	2022-12-14	14:54:07	15:03:03	535089	60d5ff02fef54b0399953c12	314652025	1	main_z	11	advance_on_keypress_ZEE	96	stimuli_target_diamondsquares.svg	stimuli_distractor_trianglediamonds.svg	20	yes	57	0	363
6.6.1	win	2022-12-14	14:54:07	15:03:06	538070	60d5ff02fef54b0399953c12	314652025	1	main_z	11	main_z	97	stimuli_distractor_trianglediamonds.svg	stimuli_distractor_diamondtriangles.svg	35	no	0	1	2003
6.6.1	win	2022-12-14	14:54:07	15:03:06	538070	60d5ff02fef54b0399953c12	314652025	1	main_z	11	advance_on_keypress_ZEE	98	stimuli_distractor_trianglediamonds.svg	stimuli_distractor_diamondtriangles.svg	35	no	57	0	624
6.6.1	win	2022-12-14	14:54:07	15:03:08	539954	60d5ff02fef54b0399953c12	314652025	1	main_z	11	main_z	99	stimuli_distractor_diamondtriangles.svg	stimuli_target_diamondcircles.svg	31	yes	44	1	644
6.6.1	win	2022-12-14	14:54:07	15:03:08	539954	60d5ff02fef54b0399953c12	314652025	1	main_z	11	advance_on_keypress_ZEE	100	stimuli_distractor_diamondtriangles.svg	stimuli_target_diamondcircles.svg	31	yes	57	0	447
6.6.1	win	2022-12-14	14:54:07	15:03:10	541618	60d5ff02fef54b0399953c12	314652025	1	main_z	11	main_z	101	stimuli_target_trianglesquares.svg	stimuli_distractor_trianglediamonds.svg	18	yes	44	1	606
6.6.1	win	2022-12-14	14:54:07	15:03:10	541618	60d5ff02fef54b0399953c12	314652025	1	main_z	11	advance_on_keypress_ZEE	102	stimuli_target_trianglesquares.svg	stimuli_distractor_trianglediamonds.svg	18	yes	57	0	427
6.6.1	win	2022-12-14	14:54:07	15:03:11	543090	60d5ff02fef54b0399953c12	314652025	1	main_z	11	main_z	103	stimuli_distractor_trianglediamonds.svg	stimuli_target_diamondcircles.svg	27	yes	44	1	433
6.6.1	win	2022-12-14	14:54:07	15:03:11	543090	60d5ff02fef54b0399953c12	314652025	1	main_z	11	advance_on_keypress_ZEE	104	stimuli_distractor_trianglediamonds.svg	stimuli_target_diamondcircles.svg	27	yes	57	0	419
6.6.1	win	2022-12-14	14:54:07	15:03:13	544602	60d5ff02fef54b0399953c12	314652025	1	main_z	11	main_z	105	stimuli_target_trianglecircles.svg	stimuli_distractor_diamondtriangles.svg	21	yes	44	1	479
6.6.1	win	2022-12-14	14:54:07	15:03:13	544602	60d5ff02fef54b0399953c12	314652025	1	main_z	11	advance_on_keypress_ZEE	106	stimuli_target_trianglecircles.svg	stimuli_distractor_diamondtriangles.svg	21	yes	57	0	417
6.6.1	win	2022-12-14	14:54:07	15:03:14	546002	60d5ff02fef54b0399953c12	314652025	1	main_z	11	main_z	107	stimuli_target_squaretriangles.svg	stimuli_distractor_diamondtriangles.svg	7	yes	44	1	365
6.6.1	win	2022-12-14	14:54:07	15:03:14	546002	60d5ff02fef54b0399953c12	314652025	1	main_z	11	advance_on_keypress_ZEE	108	stimuli_target_squaretriangles.svg	stimuli_distractor_diamondtriangles.svg	7	yes	57	0	445
6.6.1	win	2022-12-14	14:54:07	15:03:16	547426	60d5ff02fef54b0399953c12	314652025	1	main_z	11	main_z	109	stimuli_distractor_trianglediamonds.svg	stimuli_target_circletriangles.svg	9	yes	44	1	366
6.6.1	win	2022-12-14	14:54:07	15:03:16	547426	60d5ff02fef54b0399953c12	314652025	1	main_z	11	advance_on_keypress_ZEE	110	stimuli_distractor_trianglediamonds.svg	stimuli_target_circletriangles.svg	9	yes	57	0	591
6.6.1	win	2022-12-14	14:54:07	15:03:17	549018	60d5ff02fef54b0399953c12	314652025	1	main_z	11	main_z	111	stimuli_target_circletriangles.svg	stimuli_distractor_diamondtriangles.svg	5	yes	44	1	382
6.6.1	win	2022-12-14	14:54:07	15:03:17	549018	60d5ff02fef54b0399953c12	314652025	1	main_z	11	advance_on_keypress_ZEE	112	stimuli_target_circletriangles.svg	stimuli_distractor_diamondtriangles.svg	5	yes	57	0	481
6.6.1	win	2022-12-14	14:54:07	15:03:19	550458	60d5ff02fef54b0399953c12	314652025	1	main_z	11	main_z	113	stimuli_distractor_trianglediamonds.svg	stimuli_target_circlediamonds.svg	10	yes	44	1	342
6.6.1	win	2022-12-14	14:54:07	15:03:19	550458	60d5ff02fef54b0399953c12	314652025	1	main_z	11	advance_on_keypress_ZEE	114	stimuli_distractor_trianglediamonds.svg	stimuli_target_circlediamonds.svg	10	yes	57	0	555
6.6.1	win	2022-12-14	14:54:07	15:03:20	552122	60d5ff02fef54b0399953c12	314652025	1	main_z	11	main_z	115	stimuli_distractor_diamondtriangles.svg	stimuli_distractor_diamondtriangles.svg	39	no	44	0	494
6.6.1	win	2022-12-14	14:54:07	15:03:20	552122	60d5ff02fef54b0399953c12	314652025	1	main_z	11	advance_on_keypress_ZEE	116	stimuli_distractor_diamondtriangles.svg	stimuli_distractor_diamondtriangles.svg	39	no	57	0	641
6.6.1	win	2022-12-14	14:54:07	15:03:24	555382	60d5ff02fef54b0399953c12	314652025	1	main_z	11	main_z	117	stimuli_distractor_trianglediamonds.svg	stimuli_distractor_diamondtriangles.svg	36	no	0	1	2003
6.6.1	win	2022-12-14	14:54:07	15:03:24	555382	60d5ff02fef54b0399953c12	314652025	1	main_z	11	advance_on_keypress_ZEE	118	stimuli_distractor_trianglediamonds.svg	stimuli_distractor_diamondtriangles.svg	36	no	57	0	345
6.6.1	win	2022-12-14	14:54:07	15:03:25	556938	60d5ff02fef54b0399953c12	314652025	1	main_z	11	main_z	119	stimuli_target_squaretriangles.svg	stimuli_distractor_trianglediamonds.svg	3	yes	44	1	601
6.6.1	win	2022-12-14	14:54:07	15:03:25	556938	60d5ff02fef54b0399953c12	314652025	1	main_z	11	advance_on_keypress_ZEE	120	stimuli_target_squaretriangles.svg	stimuli_distractor_trianglediamonds.svg	3	yes	57	0	613
6.6.1	win	2022-12-14	14:54:07	15:03:28	560166	60d5ff02fef54b0399953c12	314652025	1	main_z	11	main_z	121	stimuli_distractor_diamondtriangles.svg	stimuli_target_squaretriangles.svg	15	yes	0	0	2003
6.6.1	win	2022-12-14	14:54:07	15:03:28	560166	60d5ff02fef54b0399953c12	314652025	1	main_z	11	advance_on_keypress_ZEE	122	stimuli_distractor_diamondtriangles.svg	stimuli_target_squaretriangles.svg	15	yes	57	0	280
6.6.1	win	2022-12-14	14:54:07	15:03:31	563062	60d5ff02fef54b0399953c12	314652025	1	main_z	11	main_z	123	stimuli_distractor_trianglediamonds.svg	stimuli_distractor_trianglediamonds.svg	33	no	0	1	2003
6.6.1	win	2022-12-14	14:54:07	15:03:31	563062	60d5ff02fef54b0399953c12	314652025	1	main_z	11	advance_on_keypress_ZEE	124	stimuli_distractor_trianglediamonds.svg	stimuli_distractor_trianglediamonds.svg	33	no	57	0	281
6.6.1	win	2022-12-14	14:54:07	15:03:33	564706	60d5ff02fef54b0399953c12	314652025	1	main_z	11	main_z	125	stimuli_target_diamondcircles.svg	stimuli_distractor_diamondtriangles.svg	23	yes	44	1	752
6.6.1	win	2022-12-14	14:54:07	15:03:33	564706	60d5ff02fef54b0399953c12	314652025	1	main_z	11	advance_on_keypress_ZEE	126	stimuli_target_diamondcircles.svg	stimuli_distractor_diamondtriangles.svg	23	yes	57	0	707
6.6.1	win	2022-12-14	14:54:07	15:03:35	566770	60d5ff02fef54b0399953c12	314652025	1	main_z	11	main_z	127	stimuli_target_trianglesquares.svg	stimuli_distractor_diamondtriangles.svg	22	yes	44	1	746
6.6.1	win	2022-12-14	14:54:07	15:03:35	566770	60d5ff02fef54b0399953c12	314652025	1	main_z	11	advance_on_keypress_ZEE	128	stimuli_target_trianglesquares.svg	stimuli_distractor_diamondtriangles.svg	22	yes	57	0	1100
6.6.1	win	2022-12-14	14:54:07	15:03:37	569059	60d5ff02fef54b0399953c12	314652025	1	main_z	11	main_z	129	stimuli_distractor_trianglediamonds.svg	stimuli_target_trianglesquares.svg	26	yes	44	1	576
6.6.1	win	2022-12-14	14:54:07	15:03:37	569059	60d5ff02fef54b0399953c12	314652025	1	main_z	11	advance_on_keypress_ZEE	130	stimuli_distractor_trianglediamonds.svg	stimuli_target_trianglesquares.svg	26	yes	57	0	649
6.6.1	win	2022-12-14	14:54:07	15:03:39	570874	60d5ff02fef54b0399953c12	314652025	1	main_z	11	main_z	131	stimuli_target_squarediamonds.svg	stimuli_distractor_diamondtriangles.svg	8	yes	44	1	552
6.6.1	win	2022-12-14	14:54:07	15:03:39	570874	60d5ff02fef54b0399953c12	314652025	1	main_z	11	advance_on_keypress_ZEE	132	stimuli_target_squarediamonds.svg	stimuli_distractor_diamondtriangles.svg	8	yes	57	0	532
6.6.1	win	2022-12-14	14:54:07	15:03:41	572682	60d5ff02fef54b0399953c12	314652025	1	main_z	11	main_z	133	stimuli_distractor_trianglediamonds.svg	stimuli_target_squaretriangles.svg	11	yes	44	1	665
6.6.1	win	2022-12-14	14:54:07	15:03:41	572682	60d5ff02fef54b0399953c12	314652025	1	main_z	11	advance_on_keypress_ZEE	134	stimuli_distractor_trianglediamonds.svg	stimuli_target_squaretriangles.svg	11	yes	57	0	440
6.6.1	win	2022-12-14	14:54:07	15:03:43	574378	60d5ff02fef54b0399953c12	314652025	1	main_z	11	main_z	135	stimuli_distractor_diamondtriangles.svg	stimuli_target_trianglesquares.svg	30	yes	44	1	639
6.6.1	win	2022-12-14	14:54:07	15:03:43	574378	60d5ff02fef54b0399953c12	314652025	1	main_z	11	advance_on_keypress_ZEE	136	stimuli_distractor_diamondtriangles.svg	stimuli_target_trianglesquares.svg	30	yes	57	0	417
6.6.1	win	2022-12-14	14:54:07	15:03:44	575938	60d5ff02fef54b0399953c12	314652025	1	main_z	11	main_z	137	stimuli_target_circlediamonds.svg	stimuli_distractor_diamondtriangles.svg	6	yes	44	1	526
6.6.1	win	2022-12-14	14:54:07	15:03:44	575938	60d5ff02fef54b0399953c12	314652025	1	main_z	11	advance_on_keypress_ZEE	138	stimuli_target_circlediamonds.svg	stimuli_distractor_diamondtriangles.svg	6	yes	57	0	462
6.6.1	win	2022-12-14	14:54:07	15:03:46	577347	60d5ff02fef54b0399953c12	314652025	1	main_z	11	main_z	139	stimuli_distractor_diamondtriangles.svg	stimuli_target_trianglecircles.svg	29	yes	44	1	336
6.6.1	win	2022-12-14	14:54:07	15:03:46	577347	60d5ff02fef54b0399953c12	314652025	1	main_z	11	advance_on_keypress_ZEE	140	stimuli_distractor_diamondtriangles.svg	stimuli_target_trianglecircles.svg	29	yes	57	0	508
6.6.1	win	2022-12-14	14:54:07	15:03:47	578827	60d5ff02fef54b0399953c12	314652025	1	main_z	11	main_z	141	stimuli_distractor_diamondtriangles.svg	stimuli_target_circletriangles.svg	13	yes	44	1	358
6.6.1	win	2022-12-14	14:54:07	15:03:47	578827	60d5ff02fef54b0399953c12	314652025	1	main_z	11	advance_on_keypress_ZEE	142	stimuli_distractor_diamondtriangles.svg	stimuli_target_circletriangles.svg	13	yes	57	0	397
6.6.1	win	2022-12-14	14:54:07	15:03:48	580195	60d5ff02fef54b0399953c12	314652025	1	main_z	11	main_z	143	stimuli_target_circletriangles.svg	stimuli_distractor_trianglediamonds.svg	1	yes	44	1	358
6.6.1	win	2022-12-14	14:54:07	15:03:48	580195	60d5ff02fef54b0399953c12	314652025	1	main_z	11	advance_on_keypress_ZEE	144	stimuli_target_circletriangles.svg	stimuli_distractor_trianglediamonds.svg	1	yes	57	0	357
6.6.1	win	2022-12-14	14:54:07	15:03:50	581475	60d5ff02fef54b0399953c12	314652025	1	main_z	11	main_z	145	stimuli_distractor_diamondtriangles.svg	stimuli_target_squarediamonds.svg	16	yes	44	1	312
6.6.1	win	2022-12-14	14:54:07	15:03:50	581475	60d5ff02fef54b0399953c12	314652025	1	main_z	11	advance_on_keypress_ZEE	146	stimuli_distractor_diamondtriangles.svg	stimuli_target_squarediamonds.svg	16	yes	57	0	368
6.6.1	win	2022-12-14	14:54:07	15:03:51	582835	60d5ff02fef54b0399953c12	314652025	1	main_z	11	main_z	147	stimuli_target_diamondsquares.svg	stimuli_distractor_diamondtriangles.svg	24	yes	44	1	373
6.6.1	win	2022-12-14	14:54:07	15:03:51	582835	60d5ff02fef54b0399953c12	314652025	1	main_z	11	advance_on_keypress_ZEE	148	stimuli_target_diamondsquares.svg	stimuli_distractor_diamondtriangles.svg	24	yes	57	0	463
6.6.1	win	2022-12-14	14:54:07	15:03:54	585922	60d5ff02fef54b0399953c12	314652025	1	main_z	11	main_z	149	stimuli_distractor_trianglediamonds.svg	stimuli_distractor_trianglediamonds.svg	34	no	0	1	2003
6.6.1	win	2022-12-14	14:54:07	15:03:54	585922	60d5ff02fef54b0399953c12	314652025	1	main_z	11	advance_on_keypress_ZEE	150	stimuli_distractor_trianglediamonds.svg	stimuli_distractor_trianglediamonds.svg	34	no	57	0	268
6.6.1	win	2022-12-14	14:54:07	15:03:55	587227	60d5ff02fef54b0399953c12	314652025	1	main_z	11	main_z	151	stimuli_target_squarediamonds.svg	stimuli_distractor_trianglediamonds.svg	4	yes	44	1	425
6.6.1	win	2022-12-14	14:54:07	15:03:55	587227	60d5ff02fef54b0399953c12	314652025	1	main_z	11	advance_on_keypress_ZEE	152	stimuli_target_squarediamonds.svg	stimuli_distractor_trianglediamonds.svg	4	yes	57	0	371
6.6.1	win	2022-12-14	14:54:07	15:03:57	588859	60d5ff02fef54b0399953c12	314652025	1	main_z	11	main_z	153	stimuli_distractor_diamondtriangles.svg	stimuli_target_diamondsquares.svg	32	yes	44	1	647
6.6.1	win	2022-12-14	14:54:07	15:03:57	588859	60d5ff02fef54b0399953c12	314652025	1	main_z	11	advance_on_keypress_ZEE	154	stimuli_distractor_diamondtriangles.svg	stimuli_target_diamondsquares.svg	32	yes	57	0	348
6.6.1	win	2022-12-14	14:54:07	15:04:00	591826	60d5ff02fef54b0399953c12	314652025	1	main_z	11	main_z	155	stimuli_distractor_diamondtriangles.svg	stimuli_distractor_diamondtriangles.svg	40	no	0	1	2003
6.6.1	win	2022-12-14	14:54:07	15:04:00	591826	60d5ff02fef54b0399953c12	314652025	1	main_z	11	advance_on_keypress_ZEE	156	stimuli_distractor_diamondtriangles.svg	stimuli_distractor_diamondtriangles.svg	40	no	57	0	286
6.6.1	win	2022-12-14	14:54:07	15:04:02	593563	60d5ff02fef54b0399953c12	314652025	1	main_z	11	main_z	157	stimuli_distractor_trianglediamonds.svg	stimuli_target_diamondsquares.svg	28	yes	44	1	839
6.6.1	win	2022-12-14	14:54:07	15:04:02	593563	60d5ff02fef54b0399953c12	314652025	1	main_z	11	advance_on_keypress_ZEE	158	stimuli_distractor_trianglediamonds.svg	stimuli_target_diamondsquares.svg	28	yes	57	0	469
6.6.1	win	2022-12-14	14:54:07	15:04:05	596644	60d5ff02fef54b0399953c12	314652025	1	main_z	11	main_z	159	stimuli_distractor_diamondtriangles.svg	stimuli_distractor_trianglediamonds.svg	37	no	0	1	2003
6.6.1	win	2022-12-14	14:54:07	15:04:05	596644	60d5ff02fef54b0399953c12	314652025	1	main_z	11	advance_on_keypress_ZEE	160	stimuli_distractor_diamondtriangles.svg	stimuli_distractor_trianglediamonds.svg	37	no	57	0	307