build	computer.platform	date	time	timestamp	time_elapsed_ms	subject	group	session	blockcode	blocknum	trialcode	trialnum	stimulus_left	stimulus_right	stim_index	target_present	response	correct	latency
6.6.1	win	2022-12-14	14:45:04	14:47:24	138511	5dd0749782569a156ed4f658	732531931	1	practice_slash	5	practice_slash	1	stimuli_distractor_trianglediamonds.svg	stimuli_target_squarediamonds.svg	11	yes	0	0	2000
6.6.1	win	2022-12-14	14:45:04	14:47:24	138511	5dd0749782569a156ed4f658	732531931	1	practice_slash	5	advance_on_keypress_SLASH	2	stimuli_distractor_trianglediamonds.svg	stimuli_target_squarediamonds.svg	11	yes	57	0	1326
6.6.1	win	2022-12-14	14:45:04	14:47:28	142555	5dd0749782569a156ed4f658	732531931	1	practice_slash	5	practice_slash	3	stimuli_target_squarediamonds.svg	stimuli_distractor_trianglediamonds.svg	5	yes	53	1	1050
6.6.1	win	2022-12-14	14:45:04	14:47:28	142555	5dd0749782569a156ed4f658	732531931	1	practice_slash	5	advance_on_keypress_SLASH	4	stimuli_target_squarediamonds.svg	stimuli_distractor_trianglediamonds.svg	5	yes	57	0	486
6.6.1	win	2022-12-14	14:45:04	14:47:31	145610	5dd0749782569a156ed4f658	732531931	1	practice_slash	5	practice_slash	5	stimuli_target_circlediamonds.svg	stimuli_distractor_trianglediamonds.svg	4	yes	53	1	913
6.6.1	win	2022-12-14	14:45:04	14:47:31	145610	5dd0749782569a156ed4f658	732531931	1	practice_slash	5	advance_on_keypress_SLASH	6	stimuli_target_circlediamonds.svg	stimuli_distractor_trianglediamonds.svg	4	yes	57	0	976
6.6.1	win	2022-12-14	14:45:04	14:47:36	150254	5dd0749782569a156ed4f658	732531931	1	practice_slash	5	practice_slash	7	stimuli_distractor_diamondtriangles.svg	stimuli_distractor_trianglediamonds.svg	14	no	0	1	2000
6.6.1	win	2022-12-14	14:45:04	14:47:36	150254	5dd0749782569a156ed4f658	732531931	1	practice_slash	5	advance_on_keypress_SLASH	8	stimuli_distractor_diamondtriangles.svg	stimuli_distractor_trianglediamonds.svg	14	no	57	0	466
6.6.1	win	2022-12-14	14:45:04	14:47:39	153287	5dd0749782569a156ed4f658	732531931	1	practice_slash	5	practice_slash	9	stimuli_target_squarediamonds.svg	stimuli_distractor_diamondtriangles.svg	2	yes	53	1	906
6.6.1	win	2022-12-14	14:45:04	14:47:39	153287	5dd0749782569a156ed4f658	732531931	1	practice_slash	5	advance_on_keypress_SLASH	10	stimuli_target_squarediamonds.svg	stimuli_distractor_diamondtriangles.svg	2	yes	57	0	604
6.6.1	win	2022-12-14	14:45:04	14:47:43	157539	5dd0749782569a156ed4f658	732531931	1	practice_slash	5	practice_slash	11	stimuli_distractor_diamondtriangles.svg	stimuli_distractor_diamondtriangles.svg	13	no	0	1	2000
6.6.1	win	2022-12-14	14:45:04	14:47:43	157539	5dd0749782569a156ed4f658	732531931	1	practice_slash	5	advance_on_keypress_SLASH	12	stimuli_distractor_diamondtriangles.svg	stimuli_distractor_diamondtriangles.svg	13	no	57	0	629
6.6.1	win	2022-12-14	14:45:04	14:47:47	160905	5dd0749782569a156ed4f658	732531931	1	practice_slash	5	practice_slash	13	stimuli_target_diamondsquares.svg	stimuli_distractor_diamondtriangles.svg	3	yes	53	1	1073
6.6.1	win	2022-12-14	14:45:04	14:47:47	160905	5dd0749782569a156ed4f658	732531931	1	practice_slash	5	advance_on_keypress_SLASH	14	stimuli_target_diamondsquares.svg	stimuli_distractor_diamondtriangles.svg	3	yes	57	0	573
6.6.1	win	2022-12-14	14:45:04	14:47:50	164542	5dd0749782569a156ed4f658	732531931	1	practice_slash	5	practice_slash	15	stimuli_distractor_diamondtriangles.svg	stimuli_target_diamondcircles.svg	8	yes	53	1	1402
6.6.1	win	2022-12-14	14:45:04	14:47:50	164542	5dd0749782569a156ed4f658	732531931	1	practice_slash	5	advance_on_keypress_SLASH	16	stimuli_distractor_diamondtriangles.svg	stimuli_target_diamondcircles.svg	8	yes	57	0	543
6.6.1	win	2022-12-14	14:45:04	14:47:54	167692	5dd0749782569a156ed4f658	732531931	1	practice_slash	5	practice_slash	17	stimuli_target_diamondsquares.svg	stimuli_distractor_trianglediamonds.svg	6	yes	53	1	943
6.6.1	win	2022-12-14	14:45:04	14:47:54	167692	5dd0749782569a156ed4f658	732531931	1	practice_slash	5	advance_on_keypress_SLASH	18	stimuli_target_diamondsquares.svg	stimuli_distractor_trianglediamonds.svg	6	yes	57	0	465
6.6.1	win	2022-12-14	14:45:04	14:47:57	170690	5dd0749782569a156ed4f658	732531931	1	practice_slash	5	practice_slash	19	stimuli_distractor_diamondtriangles.svg	stimuli_target_trianglecircles.svg	9	yes	53	1	884
6.6.1	win	2022-12-14	14:45:04	14:47:57	170690	5dd0749782569a156ed4f658	732531931	1	practice_slash	5	advance_on_keypress_SLASH	20	stimuli_distractor_diamondtriangles.svg	stimuli_target_trianglecircles.svg	9	yes	57	0	509
6.6.1	win	2022-12-14	14:45:04	14:48:00	173929	5dd0749782569a156ed4f658	732531931	1	practice_slash	5	practice_slash	21	stimuli_distractor_diamondtriangles.svg	stimuli_target_circletriangles.svg	7	yes	53	1	1064
6.6.1	win	2022-12-14	14:45:04	14:48:00	173929	5dd0749782569a156ed4f658	732531931	1	practice_slash	5	advance_on_keypress_SLASH	22	stimuli_distractor_diamondtriangles.svg	stimuli_target_circletriangles.svg	7	yes	57	0	308
6.6.1	win	2022-12-14	14:45:04	14:48:03	176743	5dd0749782569a156ed4f658	732531931	1	practice_slash	5	practice_slash	23	stimuli_distractor_trianglediamonds.svg	stimuli_target_diamondcircles.svg	12	yes	53	1	840
6.6.1	win	2022-12-14	14:45:04	14:48:03	176743	5dd0749782569a156ed4f658	732531931	1	practice_slash	5	advance_on_keypress_SLASH	24	stimuli_distractor_trianglediamonds.svg	stimuli_target_diamondcircles.svg	12	yes	57	0	354
6.6.1	win	2022-12-14	14:45:04	14:48:07	180744	5dd0749782569a156ed4f658	732531931	1	practice_slash	5	practice_slash	25	stimuli_distractor_trianglediamonds.svg	stimuli_distractor_diamondtriangles.svg	16	no	0	1	2000
6.6.1	win	2022-12-14	14:45:04	14:48:07	180744	5dd0749782569a156ed4f658	732531931	1	practice_slash	5	advance_on_keypress_SLASH	26	stimuli_distractor_trianglediamonds.svg	stimuli_distractor_diamondtriangles.svg	16	no	57	0	489
6.6.1	win	2022-12-14	14:45:04	14:48:10	184180	5dd0749782569a156ed4f658	732531931	1	practice_slash	5	practice_slash	27	stimuli_distractor_trianglediamonds.svg	stimuli_target_circlediamonds.svg	10	yes	53	1	1292
6.6.1	win	2022-12-14	14:45:04	14:48:10	184180	5dd0749782569a156ed4f658	732531931	1	practice_slash	5	advance_on_keypress_SLASH	28	stimuli_distractor_trianglediamonds.svg	stimuli_target_circlediamonds.svg	10	yes	57	0	384
6.6.1	win	2022-12-14	14:45:04	14:48:14	188212	5dd0749782569a156ed4f658	732531931	1	practice_slash	5	practice_slash	29	stimuli_distractor_trianglediamonds.svg	stimuli_distractor_trianglediamonds.svg	15	no	0	1	2000
6.6.1	win	2022-12-14	14:45:04	14:48:14	188212	5dd0749782569a156ed4f658	732531931	1	practice_slash	5	advance_on_keypress_SLASH	30	stimuli_distractor_trianglediamonds.svg	stimuli_distractor_trianglediamonds.svg	15	no	57	0	931
6.6.1	win	2022-12-14	14:45:04	14:48:18	191760	5dd0749782569a156ed4f658	732531931	1	practice_slash	5	practice_slash	31	stimuli_target_circlediamonds.svg	stimuli_distractor_diamondtriangles.svg	1	yes	53	1	954
6.6.1	win	2022-12-14	14:45:04	14:48:18	191760	5dd0749782569a156ed4f658	732531931	1	practice_slash	5	advance_on_keypress_SLASH	32	stimuli_target_circlediamonds.svg	stimuli_distractor_diamondtriangles.svg	1	yes	57	0	435
6.6.1	win	2022-12-14	14:45:04	14:48:29	202740	5dd0749782569a156ed4f658	732531931	1	main_slash	7	main_slash	1	stimuli_distractor_diamondtriangles.svg	stimuli_target_circlediamonds.svg	14	yes	53	1	1243
6.6.1	win	2022-12-14	14:45:04	14:48:29	202740	5dd0749782569a156ed4f658	732531931	1	main_slash	7	advance_on_keypress_SLASH	2	stimuli_distractor_diamondtriangles.svg	stimuli_target_circlediamonds.svg	14	yes	57	0	917
6.6.1	win	2022-12-14	14:45:04	14:48:31	205173	5dd0749782569a156ed4f658	732531931	1	main_slash	7	main_slash	3	stimuli_distractor_trianglediamonds.svg	stimuli_target_diamondcircles.svg	27	yes	53	1	868
6.6.1	win	2022-12-14	14:45:04	14:48:31	205173	5dd0749782569a156ed4f658	732531931	1	main_slash	7	advance_on_keypress_SLASH	4	stimuli_distractor_trianglediamonds.svg	stimuli_target_diamondcircles.svg	27	yes	57	0	1133
6.6.1	win	2022-12-14	14:45:04	14:48:35	208962	5dd0749782569a156ed4f658	732531931	1	main_slash	7	main_slash	5	stimuli_distractor_trianglediamonds.svg	stimuli_distractor_trianglediamonds.svg	33	no	0	1	2000
6.6.1	win	2022-12-14	14:45:04	14:48:35	208962	5dd0749782569a156ed4f658	732531931	1	main_slash	7	advance_on_keypress_SLASH	6	stimuli_distractor_trianglediamonds.svg	stimuli_distractor_trianglediamonds.svg	33	no	57	0	630
6.6.1	win	2022-12-14	14:45:04	14:48:38	212253	5dd0749782569a156ed4f658	732531931	1	main_slash	7	main_slash	7	stimuli_distractor_diamondtriangles.svg	stimuli_distractor_trianglediamonds.svg	37	no	0	1	2000
6.6.1	win	2022-12-14	14:45:04	14:48:38	212253	5dd0749782569a156ed4f658	732531931	1	main_slash	7	advance_on_keypress_SLASH	8	stimuli_distractor_diamondtriangles.svg	stimuli_distractor_trianglediamonds.svg	37	no	57	0	469
6.6.1	win	2022-12-14	14:45:04	14:48:41	214689	5dd0749782569a156ed4f658	732531931	1	main_slash	7	main_slash	9	stimuli_distractor_diamondtriangles.svg	stimuli_target_trianglesquares.svg	30	yes	53	1	1312
6.6.1	win	2022-12-14	14:45:04	14:48:41	214689	5dd0749782569a156ed4f658	732531931	1	main_slash	7	advance_on_keypress_SLASH	10	stimuli_distractor_diamondtriangles.svg	stimuli_target_trianglesquares.svg	30	yes	57	0	975
6.6.1	win	2022-12-14	14:45:04	14:48:43	217369	5dd0749782569a156ed4f658	732531931	1	main_slash	7	main_slash	11	stimuli_distractor_diamondtriangles.svg	stimuli_target_squaretriangles.svg	15	yes	53	1	1050
6.6.1	win	2022-12-14	14:45:04	14:48:43	217369	5dd0749782569a156ed4f658	732531931	1	main_slash	7	advance_on_keypress_SLASH	12	stimuli_distractor_diamondtriangles.svg	stimuli_target_squaretriangles.svg	15	yes	57	0	651
6.6.1	win	2022-12-14	14:45:04	14:48:46	219715	5dd0749782569a156ed4f658	732531931	1	main_slash	7	main_slash	13	stimuli_distractor_trianglediamonds.svg	stimuli_target_squaretriangles.svg	11	yes	53	1	1042
6.6.1	win	2022-12-14	14:45:04	14:48:46	219715	5dd0749782569a156ed4f658	732531931	1	main_slash	7	advance_on_keypress_SLASH	14	stimuli_distractor_trianglediamonds.svg	stimuli_target_squaretriangles.svg	11	yes	57	0	443
6.6.1	win	2022-12-14	14:45:04	14:48:49	222795	5dd0749782569a156ed4f658	732531931	1	main_slash	7	main_slash	15	stimuli_target_diamondcircles.svg	stimuli_distractor_trianglediamonds.svg	19	yes	0	0	2000
6.6.1	win	2022-12-14	14:45:04	14:48:49	222795	5dd0749782569a156ed4f658	732531931	1	main_slash	7	advance_on_keypress_SLASH	16	stimuli_target_diamondcircles.svg	stimuli_distractor_trianglediamonds.svg	19	yes	57	0	296
6.6.1	win	2022-12-14	14:45:04	14:48:50	224489	5dd0749782569a156ed4f658	732531931	1	main_slash	7	main_slash	17	stimuli_target_circletriangles.svg	stimuli_distractor_diamondtriangles.svg	5	yes	53	1	736
6.6.1	win	2022-12-14	14:45:04	14:48:50	224489	5dd0749782569a156ed4f658	732531931	1	main_slash	7	advance_on_keypress_SLASH	18	stimuli_target_circletriangles.svg	stimuli_distractor_diamondtriangles.svg	5	yes	57	0	658
6.6.1	win	2022-12-14	14:45:04	14:48:53	226735	5dd0749782569a156ed4f658	732531931	1	main_slash	7	main_slash	19	stimuli_distractor_trianglediamonds.svg	stimuli_target_squarediamonds.svg	12	yes	53	1	945
6.6.1	win	2022-12-14	14:45:04	14:48:53	226735	5dd0749782569a156ed4f658	732531931	1	main_slash	7	advance_on_keypress_SLASH	20	stimuli_distractor_trianglediamonds.svg	stimuli_target_squarediamonds.svg	12	yes	57	0	509
6.6.1	win	2022-12-14	14:45:04	14:48:54	228601	5dd0749782569a156ed4f658	732531931	1	main_slash	7	main_slash	21	stimuli_distractor_trianglediamonds.svg	stimuli_target_trianglecircles.svg	25	yes	53	1	722
6.6.1	win	2022-12-14	14:45:04	14:48:54	228601	5dd0749782569a156ed4f658	732531931	1	main_slash	7	advance_on_keypress_SLASH	22	stimuli_distractor_trianglediamonds.svg	stimuli_target_trianglecircles.svg	25	yes	57	0	392
6.6.1	win	2022-12-14	14:45:04	14:48:56	230426	5dd0749782569a156ed4f658	732531931	1	main_slash	7	main_slash	23	stimuli_distractor_diamondtriangles.svg	stimuli_target_diamondcircles.svg	31	yes	53	1	794
6.6.1	win	2022-12-14	14:45:04	14:48:56	230426	5dd0749782569a156ed4f658	732531931	1	main_slash	7	advance_on_keypress_SLASH	24	stimuli_distractor_diamondtriangles.svg	stimuli_target_diamondcircles.svg	31	yes	57	0	379
6.6.1	win	2022-12-14	14:45:04	14:48:59	233454	5dd0749782569a156ed4f658	732531931	1	main_slash	7	main_slash	25	stimuli_distractor_trianglediamonds.svg	stimuli_distractor_diamondtriangles.svg	36	no	0	1	2000
6.6.1	win	2022-12-14	14:45:04	14:48:59	233454	5dd0749782569a156ed4f658	732531931	1	main_slash	7	advance_on_keypress_SLASH	26	stimuli_distractor_trianglediamonds.svg	stimuli_distractor_diamondtriangles.svg	36	no	57	0	325
6.6.1	win	2022-12-14	14:45:04	14:49:02	236427	5dd0749782569a156ed4f658	732531931	1	main_slash	7	main_slash	27	stimuli_distractor_trianglediamonds.svg	stimuli_distractor_trianglediamonds.svg	34	no	0	1	2000
6.6.1	win	2022-12-14	14:45:04	14:49:02	236427	5dd0749782569a156ed4f658	732531931	1	main_slash	7	advance_on_keypress_SLASH	28	stimuli_distractor_trianglediamonds.svg	stimuli_distractor_trianglediamonds.svg	34	no	57	0	291
6.6.1	win	2022-12-14	14:45:04	14:49:05	239368	5dd0749782569a156ed4f658	732531931	1	main_slash	7	main_slash	29	stimuli_distractor_diamondtriangles.svg	stimuli_distractor_diamondtriangles.svg	39	no	0	1	2000
6.6.1	win	2022-12-14	14:45:04	14:49:05	239368	5dd0749782569a156ed4f658	732531931	1	main_slash	7	advance_on_keypress_SLASH	30	stimuli_distractor_diamondtriangles.svg	stimuli_distractor_diamondtriangles.svg	39	no	57	0	283
6.6.1	win	2022-12-14	14:45:04	14:49:07	241034	5dd0749782569a156ed4f658	732531931	1	main_slash	7	main_slash	31	stimuli_target_trianglecircles.svg	stimuli_distractor_diamondtriangles.svg	21	yes	53	1	726
6.6.1	win	2022-12-14	14:45:04	14:49:07	241034	5dd0749782569a156ed4f658	732531931	1	main_slash	7	advance_on_keypress_SLASH	32	stimuli_target_trianglecircles.svg	stimuli_distractor_diamondtriangles.svg	21	yes	57	0	521
6.6.1	win	2022-12-14	14:45:04	14:49:09	243000	5dd0749782569a156ed4f658	732531931	1	main_slash	7	main_slash	33	stimuli_distractor_diamondtriangles.svg	stimuli_target_squarediamonds.svg	16	yes	53	1	803
6.6.1	win	2022-12-14	14:45:04	14:49:09	243000	5dd0749782569a156ed4f658	732531931	1	main_slash	7	advance_on_keypress_SLASH	34	stimuli_distractor_diamondtriangles.svg	stimuli_target_squarediamonds.svg	16	yes	57	0	353
6.6.1	win	2022-12-14	14:45:04	14:49:11	244711	5dd0749782569a156ed4f658	732531931	1	main_slash	7	main_slash	35	stimuli_target_circletriangles.svg	stimuli_distractor_trianglediamonds.svg	1	yes	53	1	711
6.6.1	win	2022-12-14	14:45:04	14:49:11	244711	5dd0749782569a156ed4f658	732531931	1	main_slash	7	advance_on_keypress_SLASH	36	stimuli_target_circletriangles.svg	stimuli_distractor_trianglediamonds.svg	1	yes	57	0	692
6.6.1	win	2022-12-14	14:45:04	14:49:14	248038	5dd0749782569a156ed4f658	732531931	1	main_slash	7	main_slash	37	stimuli_distractor_trianglediamonds.svg	stimuli_distractor_diamondtriangles.svg	35	no	0	1	2000
6.6.1	win	2022-12-14	14:45:04	14:49:14	248038	5dd0749782569a156ed4f658	732531931	1	main_slash	7	advance_on_keypress_SLASH	38	stimuli_distractor_trianglediamonds.svg	stimuli_distractor_diamondtriangles.svg	35	no	57	0	284
6.6.1	win	2022-12-14	14:45:04	14:49:16	249683	5dd0749782569a156ed4f658	732531931	1	main_slash	7	main_slash	39	stimuli_distractor_diamondtriangles.svg	stimuli_target_trianglecircles.svg	29	yes	53	1	704
6.6.1	win	2022-12-14	14:45:04	14:49:16	249683	5dd0749782569a156ed4f658	732531931	1	main_slash	7	advance_on_keypress_SLASH	40	stimuli_distractor_diamondtriangles.svg	stimuli_target_trianglecircles.svg	29	yes	57	0	578
6.6.1	win	2022-12-14	14:45:04	14:49:18	251868	5dd0749782569a156ed4f658	732531931	1	main_slash	7	main_slash	41	stimuli_target_squaretriangles.svg	stimuli_distractor_diamondtriangles.svg	7	yes	53	1	951
6.6.1	win	2022-12-14	14:45:04	14:49:18	251868	5dd0749782569a156ed4f658	732531931	1	main_slash	7	advance_on_keypress_SLASH	42	stimuli_target_squaretriangles.svg	stimuli_distractor_diamondtriangles.svg	7	yes	57	0	732
6.6.1	win	2022-12-14	14:45:04	14:49:21	255255	5dd0749782569a156ed4f658	732531931	1	main_slash	7	main_slash	43	stimuli_distractor_diamondtriangles.svg	stimuli_distractor_trianglediamonds.svg	38	no	0	1	2000
6.6.1	win	2022-12-14	14:45:04	14:49:21	255255	5dd0749782569a156ed4f658	732531931	1	main_slash	7	advance_on_keypress_SLASH	44	stimuli_distractor_diamondtriangles.svg	stimuli_distractor_trianglediamonds.svg	38	no	57	0	310
6.6.1	win	2022-12-14	14:45:04	14:49:23	257154	5dd0749782569a156ed4f658	732531931	1	main_slash	7	main_slash	45	stimuli_target_squarediamonds.svg	stimuli_distractor_trianglediamonds.svg	4	yes	53	1	941
6.6.1	win	2022-12-14	14:45:04	14:49:23	257154	5dd0749782569a156ed4f658	732531931	1	main_slash	7	advance_on_keypress_SLASH	46	stimuli_target_squarediamonds.svg	stimuli_distractor_trianglediamonds.svg	4	yes	57	0	384
6.6.1	win	2022-12-14	14:45:04	14:49:25	258911	5dd0749782569a156ed4f658	732531931	1	main_slash	7	main_slash	47	stimuli_distractor_trianglediamonds.svg	stimuli_target_trianglesquares.svg	26	yes	53	1	727
6.6.1	win	2022-12-14	14:45:04	14:49:25	258911	5dd0749782569a156ed4f658	732531931	1	main_slash	7	advance_on_keypress_SLASH	48	stimuli_distractor_trianglediamonds.svg	stimuli_target_trianglesquares.svg	26	yes	57	0	351
6.6.1	win	2022-12-14	14:45:04	14:49:27	260847	5dd0749782569a156ed4f658	732531931	1	main_slash	7	main_slash	49	stimuli_distractor_trianglediamonds.svg	stimuli_target_diamondsquares.svg	28	yes	53	1	942
6.6.1	win	2022-12-14	14:45:04	14:49:27	260847	5dd0749782569a156ed4f658	732531931	1	main_slash	7	advance_on_keypress_SLASH	50	stimuli_distractor_trianglediamonds.svg	stimuli_target_diamondsquares.svg	28	yes	57	0	280
6.6.1	win	2022-12-14	14:45:04	14:49:29	262916	5dd0749782569a156ed4f658	732531931	1	main_slash	7	main_slash	51	stimuli_distractor_diamondtriangles.svg	stimuli_target_circletriangles.svg	13	yes	53	1	1140
6.6.1	win	2022-12-14	14:45:04	14:49:29	262916	5dd0749782569a156ed4f658	732531931	1	main_slash	7	advance_on_keypress_SLASH	52	stimuli_distractor_diamondtriangles.svg	stimuli_target_circletriangles.svg	13	yes	57	0	295
6.6.1	win	2022-12-14	14:45:04	14:49:31	264776	5dd0749782569a156ed4f658	732531931	1	main_slash	7	main_slash	53	stimuli_target_circlediamonds.svg	stimuli_distractor_trianglediamonds.svg	2	yes	53	1	912
6.6.1	win	2022-12-14	14:45:04	14:49:31	264776	5dd0749782569a156ed4f658	732531931	1	main_slash	7	advance_on_keypress_SLASH	54	stimuli_target_circlediamonds.svg	stimuli_distractor_trianglediamonds.svg	2	yes	57	0	354
6.6.1	win	2022-12-14	14:45:04	14:49:32	266498	5dd0749782569a156ed4f658	732531931	1	main_slash	7	main_slash	55	stimuli_distractor_diamondtriangles.svg	stimuli_target_diamondsquares.svg	32	yes	53	1	729
6.6.1	win	2022-12-14	14:45:04	14:49:32	266498	5dd0749782569a156ed4f658	732531931	1	main_slash	7	advance_on_keypress_SLASH	56	stimuli_distractor_diamondtriangles.svg	stimuli_target_diamondsquares.svg	32	yes	57	0	315
6.6.1	win	2022-12-14	14:45:04	14:49:34	268302	5dd0749782569a156ed4f658	732531931	1	main_slash	7	main_slash	57	stimuli_target_squarediamonds.svg	stimuli_distractor_diamondtriangles.svg	8	yes	53	1	829
6.6.1	win	2022-12-14	14:45:04	14:49:34	268302	5dd0749782569a156ed4f658	732531931	1	main_slash	7	advance_on_keypress_SLASH	58	stimuli_target_squarediamonds.svg	stimuli_distractor_diamondtriangles.svg	8	yes	57	0	342
6.6.1	win	2022-12-14	14:45:04	14:49:36	270034	5dd0749782569a156ed4f658	732531931	1	main_slash	7	main_slash	59	stimuli_target_diamondsquares.svg	stimuli_distractor_trianglediamonds.svg	20	yes	53	1	756
6.6.1	win	2022-12-14	14:45:04	14:49:36	270034	5dd0749782569a156ed4f658	732531931	1	main_slash	7	advance_on_keypress_SLASH	60	stimuli_target_diamondsquares.svg	stimuli_distractor_trianglediamonds.svg	20	yes	57	0	244
6.6.1	win	2022-12-14	14:45:04	14:49:38	272207	5dd0749782569a156ed4f658	732531931	1	main_slash	7	main_slash	61	stimuli_target_diamondcircles.svg	stimuli_distractor_diamondtriangles.svg	23	yes	53	1	1291
6.6.1	win	2022-12-14	14:45:04	14:49:38	272207	5dd0749782569a156ed4f658	732531931	1	main_slash	7	advance_on_keypress_SLASH	62	stimuli_target_diamondcircles.svg	stimuli_distractor_diamondtriangles.svg	23	yes	57	0	347
6.6.1	win	2022-12-14	14:45:04	14:49:40	273934	5dd0749782569a156ed4f658	732531931	1	main_slash	7	main_slash	63	stimuli_distractor_trianglediamonds.svg	stimuli_target_circlediamonds.svg	10	yes	53	1	730
6.6.1	win	2022-12-14	14:45:04	14:49:40	273934	5dd0749782569a156ed4f658	732531931	1	main_slash	7	advance_on_keypress_SLASH	64	stimuli_distractor_trianglediamonds.svg	stimuli_target_circlediamonds.svg	10	yes	57	0	415
6.6.1	win	2022-12-14	14:45:04	14:49:42	275935	5dd0749782569a156ed4f658	732531931	1	main_slash	7	main_slash	65	stimuli_target_trianglecircles.svg	stimuli_distractor_trianglediamonds.svg	17	yes	53	1	926
6.6.1	win	2022-12-14	14:45:04	14:49:42	275935	5dd0749782569a156ed4f658	732531931	1	main_slash	7	advance_on_keypress_SLASH	66	stimuli_target_trianglecircles.svg	stimuli_distractor_trianglediamonds.svg	17	yes	57	0	248
6.6.1	win	2022-12-14	14:45:04	14:49:44	278173	5dd0749782569a156ed4f658	732531931	1	main_slash	7	main_slash	67	stimuli_target_trianglesquares.svg	stimuli_distractor_trianglediamonds.svg	18	yes	53	1	1344
6.6.1	win	2022-12-14	14:45:04	14:49:44	278173	5dd0749782569a156ed4f658	732531931	1	main_slash	7	advance_on_keypress_SLASH	68	stimuli_target_trianglesquares.svg	stimuli_distractor_trianglediamonds.svg	18	yes	57	0	283
6.6.1	win	2022-12-14	14:45:04	14:49:46	280064	5dd0749782569a156ed4f658	732531931	1	main_slash	7	main_slash	69	stimuli_target_trianglesquares.svg	stimuli_distractor_diamondtriangles.svg	22	yes	53	1	963
6.6.1	win	2022-12-14	14:45:04	14:49:46	280064	5dd0749782569a156ed4f658	732531931	1	main_slash	7	advance_on_keypress_SLASH	70	stimuli_target_trianglesquares.svg	stimuli_distractor_diamondtriangles.svg	22	yes	57	0	359
6.6.1	win	2022-12-14	14:45:04	14:49:48	281940	5dd0749782569a156ed4f658	732531931	1	main_slash	7	main_slash	71	stimuli_target_squaretriangles.svg	stimuli_distractor_trianglediamonds.svg	3	yes	53	1	884
6.6.1	win	2022-12-14	14:45:04	14:49:48	281940	5dd0749782569a156ed4f658	732531931	1	main_slash	7	advance_on_keypress_SLASH	72	stimuli_target_squaretriangles.svg	stimuli_distractor_trianglediamonds.svg	3	yes	57	0	329
6.6.1	win	2022-12-14	14:45:04	14:49:51	284927	5dd0749782569a156ed4f658	732531931	1	main_slash	7	main_slash	73	stimuli_distractor_diamondtriangles.svg	stimuli_distractor_diamondtriangles.svg	40	no	0	1	2000
6.6.1	win	2022-12-14	14:45:04	14:49:51	284927	5dd0749782569a156ed4f658	732531931	1	main_slash	7	advance_on_keypress_SLASH	74	stimuli_distractor_diamondtriangles.svg	stimuli_distractor_diamondtriangles.svg	40	no	57	0	305
6.6.1	win	2022-12-14	14:45:04	14:49:52	286559	5dd0749782569a156ed4f658	732531931	1	main_slash	7	main_slash	75	stimuli_target_diamondsquares.svg	stimuli_distractor_diamondtriangles.svg	24	yes	53	1	675
6.6.1	win	2022-12-14	14:45:04	14:49:52	286559	5dd0749782569a156ed4f658	732531931	1	main_slash	7	advance_on_keypress_SLASH	76	stimuli_target_diamondsquares.svg	stimuli_distractor_diamondtriangles.svg	24	yes	57	0	452
6.6.1	win	2022-12-14	14:45:04	14:49:54	288357	5dd0749782569a156ed4f658	732531931	1	main_slash	7	main_slash	77	stimuli_distractor_trianglediamonds.svg	stimuli_target_circletriangles.svg	9	yes	53	1	701
6.6.1	win	2022-12-14	14:45:04	14:49:54	288357	5dd0749782569a156ed4f658	732531931	1	main_slash	7	advance_on_keypress_SLASH	78	stimuli_distractor_trianglediamonds.svg	stimuli_target_circletriangles.svg	9	yes	57	0	316
6.6.1	win	2022-12-14	14:45:04	14:49:56	289936	5dd0749782569a156ed4f658	732531931	1	main_slash	7	main_slash	79	stimuli_target_circlediamonds.svg	stimuli_distractor_diamondtriangles.svg	6	yes	53	1	611
6.6.1	win	2022-12-14	14:45:04	14:49:56	289936	5dd0749782569a156ed4f658	732531931	1	main_slash	7	advance_on_keypress_SLASH	80	stimuli_target_circlediamonds.svg	stimuli_distractor_diamondtriangles.svg	6	yes	57	0	353
6.6.1	win	2022-12-14	14:45:04	14:49:57	291579	5dd0749782569a156ed4f658	732531931	1	main_slash	7	main_slash	81	stimuli_target_squaretriangles.svg	stimuli_distractor_diamondtriangles.svg	7	yes	53	1	649
6.6.1	win	2022-12-14	14:45:04	14:49:57	291579	5dd0749782569a156ed4f658	732531931	1	main_slash	7	advance_on_keypress_SLASH	82	stimuli_target_squaretriangles.svg	stimuli_distractor_diamondtriangles.svg	7	yes	57	0	306
6.6.1	win	2022-12-14	14:45:04	14:49:59	293319	5dd0749782569a156ed4f658	732531931	1	main_slash	7	main_slash	83	stimuli_target_diamondcircles.svg	stimuli_distractor_trianglediamonds.svg	19	yes	53	1	785
6.6.1	win	2022-12-14	14:45:04	14:49:59	293319	5dd0749782569a156ed4f658	732531931	1	main_slash	7	advance_on_keypress_SLASH	84	stimuli_target_diamondcircles.svg	stimuli_distractor_trianglediamonds.svg	19	yes	57	0	259
6.6.1	win	2022-12-14	14:45:04	14:50:02	296220	5dd0749782569a156ed4f658	732531931	1	main_slash	7	main_slash	85	stimuli_distractor_diamondtriangles.svg	stimuli_distractor_trianglediamonds.svg	38	no	0	1	2000
6.6.1	win	2022-12-14	14:45:04	14:50:02	296220	5dd0749782569a156ed4f658	732531931	1	main_slash	7	advance_on_keypress_SLASH	86	stimuli_distractor_diamondtriangles.svg	stimuli_distractor_trianglediamonds.svg	38	no	57	0	383
6.6.1	win	2022-12-14	14:45:04	14:50:04	297936	5dd0749782569a156ed4f658	732531931	1	main_slash	7	main_slash	87	stimuli_distractor_diamondtriangles.svg	stimuli_target_diamondsquares.svg	32	yes	53	1	675
6.6.1	win	2022-12-14	14:45:04	14:50:04	297936	5dd0749782569a156ed4f658	732531931	1	main_slash	7	advance_on_keypress_SLASH	88	stimuli_distractor_diamondtriangles.svg	stimuli_target_diamondsquares.svg	32	yes	57	0	489
6.6.1	win	2022-12-14	14:45:04	14:50:06	299877	5dd0749782569a156ed4f658	732531931	1	main_slash	7	main_slash	89	stimuli_target_circlediamonds.svg	stimuli_distractor_diamondtriangles.svg	6	yes	53	1	811
6.6.1	win	2022-12-14	14:45:04	14:50:06	299877	5dd0749782569a156ed4f658	732531931	1	main_slash	7	advance_on_keypress_SLASH	90	stimuli_target_circlediamonds.svg	stimuli_distractor_diamondtriangles.svg	6	yes	57	0	418
6.6.1	win	2022-12-14	14:45:04	14:50:07	301579	5dd0749782569a156ed4f658	732531931	1	main_slash	7	main_slash	91	stimuli_target_circletriangles.svg	stimuli_distractor_diamondtriangles.svg	5	yes	53	1	641
6.6.1	win	2022-12-14	14:45:04	14:50:07	301579	5dd0749782569a156ed4f658	732531931	1	main_slash	7	advance_on_keypress_SLASH	92	stimuli_target_circletriangles.svg	stimuli_distractor_diamondtriangles.svg	5	yes	57	0	384
6.6.1	win	2022-12-14	14:45:04	14:50:09	303262	5dd0749782569a156ed4f658	732531931	1	main_slash	7	main_slash	93	stimuli_distractor_trianglediamonds.svg	stimuli_target_circletriangles.svg	9	yes	53	1	654
6.6.1	win	2022-12-14	14:45:04	14:50:09	303262	5dd0749782569a156ed4f658	732531931	1	main_slash	7	advance_on_keypress_SLASH	94	stimuli_distractor_trianglediamonds.svg	stimuli_target_circletriangles.svg	9	yes	57	0	435
6.6.1	win	2022-12-14	14:45:04	14:50:11	304994	5dd0749782569a156ed4f658	732531931	1	main_slash	7	main_slash	95	stimuli_target_circlediamonds.svg	stimuli_distractor_trianglediamonds.svg	2	yes	53	1	649
6.6.1	win	2022-12-14	14:45:04	14:50:11	304994	5dd0749782569a156ed4f658	732531931	1	main_slash	7	advance_on_keypress_SLASH	96	stimuli_target_circlediamonds.svg	stimuli_distractor_trianglediamonds.svg	2	yes	57	0	328
6.6.1	win	2022-12-14	14:45:04	14:50:12	306629	5dd0749782569a156ed4f658	732531931	1	main_slash	7	main_slash	97	stimuli_target_squarediamonds.svg	stimuli_distractor_diamondtriangles.svg	8	yes	53	1	645
6.6.1	win	2022-12-14	14:45:04	14:50:12	306629	5dd0749782569a156ed4f658	732531931	1	main_slash	7	advance_on_keypress_SLASH	98	stimuli_target_squarediamonds.svg	stimuli_distractor_diamondtriangles.svg	8	yes	57	0	271
6.6.1	win	2022-12-14	14:45:04	14:50:15	309552	5dd0749782569a156ed4f658	732531931	1	main_slash	7	main_slash	99	stimuli_distractor_diamondtriangles.svg	stimuli_distractor_trianglediamonds.svg	37	no	0	1	2000
6.6.1	win	2022-12-14	14:45:04	14:50:15	309552	5dd0749782569a156ed4f658	732531931	1	main_slash	7	advance_on_keypress_SLASH	100	stimuli_distractor_diamondtriangles.svg	stimuli_distractor_trianglediamonds.svg	37	no	57	0	397
6.6.1	win	2022-12-14	14:45:04	14:50:17	311570	5dd0749782569a156ed4f658	732531931	1	main_slash	7	main_slash	101	stimuli_target_diamondsquares.svg	stimuli_distractor_diamondtriangles.svg	24	yes	53	1	960
6.6.1	win	2022-12-14	14:45:04	14:50:17	311570	5dd0749782569a156ed4f658	732531931	1	main_slash	7	advance_on_keypress_SLASH	102	stimuli_target_diamondsquares.svg	stimuli_distractor_diamondtriangles.svg	24	yes	57	0	323
6.6.1	win	2022-12-14	14:45:04	14:50:19	313190	5dd0749782569a156ed4f658	732531931	1	main_slash	7	main_slash	103	stimuli_distractor_trianglediamonds.svg	stimuli_target_trianglesquares.svg	26	yes	53	1	659
6.6.1	win	2022-12-14	14:45:04	14:50:19	313190	5dd0749782569a156ed4f658	732531931	1	main_slash	7	advance_on_keypress_SLASH	104	stimuli_distractor_trianglediamonds.svg	stimuli_target_trianglesquares.svg	26	yes	57	0	325
6.6.1	win	2022-12-14	14:45:04	14:50:21	314858	5dd0749782569a156ed4f658	732531931	1	main_slash	7	main_slash	105	stimuli_target_circletriangles.svg	stimuli_distractor_trianglediamonds.svg	1	yes	53	1	707
6.6.1	win	2022-12-14	14:45:04	14:50:21	314858	5dd0749782569a156ed4f658	732531931	1	main_slash	7	advance_on_keypress_SLASH	106	stimuli_target_circletriangles.svg	stimuli_distractor_trianglediamonds.svg	1	yes	57	0	319
6.6.1	win	2022-12-14	14:45:04	14:50:23	316812	5dd0749782569a156ed4f658	732531931	1	main_slash	7	main_slash	107	stimuli_distractor_diamondtriangles.svg	stimuli_target_trianglesquares.svg	30	yes	53	1	989
6.6.1	win	2022-12-14	14:45:04	14:50:23	316812	5dd0749782569a156ed4f658	732531931	1	main_slash	7	advance_on_keypress_SLASH	108	stimuli_distractor_diamondtriangles.svg	stimuli_target_trianglesquares.svg	30	yes	57	0	254
6.6.1	win	2022-12-14	14:45:04	14:50:25	318646	5dd0749782569a156ed4f658	732531931	1	main_slash	7	main_slash	109	stimuli_distractor_diamondtriangles.svg	stimuli_target_circlediamonds.svg	14	yes	53	1	936
6.6.1	win	2022-12-14	14:45:04	14:50:25	318646	5dd0749782569a156ed4f658	732531931	1	main_slash	7	advance_on_keypress_SLASH	110	stimuli_distractor_diamondtriangles.svg	stimuli_target_circlediamonds.svg	14	yes	57	0	277
6.6.1	win	2022-12-14	14:45:04	14:50:27	321564	5dd0749782569a156ed4f658	732531931	1	main_slash	7	main_slash	111	stimuli_distractor_diamondtriangles.svg	stimuli_target_squarediamonds.svg	16	yes	0	0	2000
6.6.1	win	2022-12-14	14:45:04	14:50:27	321564	5dd0749782569a156ed4f658	732531931	1	main_slash	7	advance_on_keypress_SLASH	112	stimuli_distractor_diamondtriangles.svg	stimuli_target_squarediamonds.svg	16	yes	57	0	299
6.6.1	win	2022-12-14	14:45:04	14:50:30	324522	5dd0749782569a156ed4f658	732531931	1	main_slash	7	main_slash	113	stimuli_distractor_diamondtriangles.svg	stimuli_distractor_diamondtriangles.svg	40	no	0	1	2000
6.6.1	win	2022-12-14	14:45:04	14:50:30	324522	5dd0749782569a156ed4f658	732531931	1	main_slash	7	advance_on_keypress_SLASH	114	stimuli_distractor_diamondtriangles.svg	stimuli_distractor_diamondtriangles.svg	40	no	57	0	286
6.6.1	win	2022-12-14	14:45:04	14:50:32	326190	5dd0749782569a156ed4f658	732531931	1	main_slash	7	main_slash	115	stimuli_target_trianglesquares.svg	stimuli_distractor_trianglediamonds.svg	18	yes	53	1	728
6.6.1	win	2022-12-14	14:45:04	14:50:32	326190	5dd0749782569a156ed4f658	732531931	1	main_slash	7	advance_on_keypress_SLASH	116	stimuli_target_trianglesquares.svg	stimuli_distractor_trianglediamonds.svg	18	yes	57	0	712
6.6.1	win	2022-12-14	14:45:04	14:50:34	328109	5dd0749782569a156ed4f658	732531931	1	main_slash	7	main_slash	117	stimuli_target_diamondcircles.svg	stimuli_distractor_diamondtriangles.svg	23	yes	53	1	541
6.6.1	win	2022-12-14	14:45:04	14:50:34	328109	5dd0749782569a156ed4f658	732531931	1	main_slash	7	advance_on_keypress_SLASH	118	stimuli_target_diamondcircles.svg	stimuli_distractor_diamondtriangles.svg	23	yes	57	0	716
6.6.1	win	2022-12-14	14:45:04	14:50:36	330121	5dd0749782569a156ed4f658	732531931	1	main_slash	7	main_slash	119	stimuli_distractor_diamondtriangles.svg	stimuli_target_squaretriangles.svg	15	yes	53	1	649
6.6.1	win	2022-12-14	14:45:04	14:50:36	330121	5dd0749782569a156ed4f658	732531931	1	main_slash	7	advance_on_keypress_SLASH	120	stimuli_distractor_diamondtriangles.svg	stimuli_target_squaretriangles.svg	15	yes	57	0	310
6.6.1	win	2022-12-14	14:45:04	14:50:38	331863	5dd0749782569a156ed4f658	732531931	1	main_slash	7	main_slash	121	stimuli_distractor_trianglediamonds.svg	stimuli_target_diamondsquares.svg	28	yes	53	1	787
6.6.1	win	2022-12-14	14:45:04	14:50:38	331863	5dd0749782569a156ed4f658	732531931	1	main_slash	7	advance_on_keypress_SLASH	122	stimuli_distractor_trianglediamonds.svg	stimuli_target_diamondsquares.svg	28	yes	57	0	250
6.6.1	win	2022-12-14	14:45:04	14:50:40	333692	5dd0749782569a156ed4f658	732531931	1	main_slash	7	main_slash	123	stimuli_distractor_diamondtriangles.svg	stimuli_target_diamondcircles.svg	31	yes	53	1	929
6.6.1	win	2022-12-14	14:45:04	14:50:40	333692	5dd0749782569a156ed4f658	732531931	1	main_slash	7	advance_on_keypress_SLASH	124	stimuli_distractor_diamondtriangles.svg	stimuli_target_diamondcircles.svg	31	yes	57	0	229
6.6.1	win	2022-12-14	14:45:04	14:50:42	336568	5dd0749782569a156ed4f658	732531931	1	main_slash	7	main_slash	125	stimuli_distractor_trianglediamonds.svg	stimuli_distractor_diamondtriangles.svg	35	no	0	1	2000
6.6.1	win	2022-12-14	14:45:04	14:50:42	336568	5dd0749782569a156ed4f658	732531931	1	main_slash	7	advance_on_keypress_SLASH	126	stimuli_distractor_trianglediamonds.svg	stimuli_distractor_diamondtriangles.svg	35	no	57	0	272
6.6.1	win	2022-12-14	14:45:04	14:50:45	339491	5dd0749782569a156ed4f658	732531931	1	main_slash	7	main_slash	127	stimuli_distractor_diamondtriangles.svg	stimuli_target_circletriangles.svg	13	yes	0	0	2000
6.6.1	win	2022-12-14	14:45:04	14:50:45	339491	5dd0749782569a156ed4f658	732531931	1	main_slash	7	advance_on_keypress_SLASH	128	stimuli_distractor_diamondtriangles.svg	stimuli_target_circletriangles.svg	13	yes	57	0	508
6.6.1	win	2022-12-14	14:45:04	14:50:47	341515	5dd0749782569a156ed4f658	732531931	1	main_slash	7	main_slash	129	stimuli_distractor_trianglediamonds.svg	stimuli_target_circlediamonds.svg	10	yes	53	1	865
6.6.1	win	2022-12-14	14:45:04	14:50:47	341515	5dd0749782569a156ed4f658	732531931	1	main_slash	7	advance_on_keypress_SLASH	130	stimuli_distractor_trianglediamonds.svg	stimuli_target_circlediamonds.svg	10	yes	57	0	416
6.6.1	win	2022-12-14	14:45:04	14:50:49	343471	5dd0749782569a156ed4f658	732531931	1	main_slash	7	main_slash	131	stimuli_target_diamondsquares.svg	stimuli_distractor_trianglediamonds.svg	20	yes	53	1	882
6.6.1	win	2022-12-14	14:45:04	14:50:49	343471	5dd0749782569a156ed4f658	732531931	1	main_slash	7	advance_on_keypress_SLASH	132	stimuli_target_diamondsquares.svg	stimuli_distractor_trianglediamonds.svg	20	yes	57	0	295
6.6.1	win	2022-12-14	14:45:04	14:50:52	346424	5dd0749782569a156ed4f658	732531931	1	main_slash	7	main_slash	133	stimuli_distractor_diamondtriangles.svg	stimuli_distractor_diamondtriangles.svg	39	no	0	1	2000
6.6.1	win	2022-12-14	14:45:04	14:50:52	346424	5dd0749782569a156ed4f658	732531931	1	main_slash	7	advance_on_keypress_SLASH	134	stimuli_distractor_diamondtriangles.svg	stimuli_distractor_diamondtriangles.svg	39	no	57	0	287
6.6.1	win	2022-12-14	14:45:04	14:50:54	348235	5dd0749782569a156ed4f658	732531931	1	main_slash	7	main_slash	135	stimuli_distractor_trianglediamonds.svg	stimuli_target_trianglecircles.svg	25	yes	53	1	869
6.6.1	win	2022-12-14	14:45:04	14:50:54	348235	5dd0749782569a156ed4f658	732531931	1	main_slash	7	advance_on_keypress_SLASH	136	stimuli_distractor_trianglediamonds.svg	stimuli_target_trianglecircles.svg	25	yes	57	0	308
6.6.1	win	2022-12-14	14:45:04	14:50:56	350030	5dd0749782569a156ed4f658	732531931	1	main_slash	7	main_slash	137	stimuli_target_squaretriangles.svg	stimuli_distractor_trianglediamonds.svg	3	yes	53	1	844
6.6.1	win	2022-12-14	14:45:04	14:50:56	350030	5dd0749782569a156ed4f658	732531931	1	main_slash	7	advance_on_keypress_SLASH	138	stimuli_target_squaretriangles.svg	stimuli_distractor_trianglediamonds.svg	3	yes	57	0	250
6.6.1	win	2022-12-14	14:45:04	14:50:58	351820	5dd0749782569a156ed4f658	732531931	1	main_slash	7	main_slash	139	stimuli_distractor_diamondtriangles.svg	stimuli_target_trianglecircles.svg	29	yes	53	1	897
6.6.1	win	2022-12-14	14:45:04	14:50:58	351820	5dd0749782569a156ed4f658	732531931	1	main_slash	7	advance_on_keypress_SLASH	140	stimuli_distractor_diamondtriangles.svg	stimuli_target_trianglecircles.svg	29	yes	57	0	264
6.6.1	win	2022-12-14	14:45:04	14:51:01	354744	5dd0749782569a156ed4f658	732531931	1	main_slash	7	main_slash	141	stimuli_distractor_trianglediamonds.svg	stimuli_distractor_trianglediamonds.svg	34	no	0	1	2000
6.6.1	win	2022-12-14	14:45:04	14:51:01	354744	5dd0749782569a156ed4f658	732531931	1	main_slash	7	advance_on_keypress_SLASH	142	stimuli_distractor_trianglediamonds.svg	stimuli_distractor_trianglediamonds.svg	34	no	57	0	197
6.6.1	win	2022-12-14	14:45:04	14:51:02	356553	5dd0749782569a156ed4f658	732531931	1	main_slash	7	main_slash	143	stimuli_target_trianglesquares.svg	stimuli_distractor_diamondtriangles.svg	22	yes	53	1	952
6.6.1	win	2022-12-14	14:45:04	14:51:02	356553	5dd0749782569a156ed4f658	732531931	1	main_slash	7	advance_on_keypress_SLASH	144	stimuli_target_trianglesquares.svg	stimuli_distractor_diamondtriangles.svg	22	yes	57	0	270
6.6.1	win	2022-12-14	14:45:04	14:51:05	359323	5dd0749782569a156ed4f658	732531931	1	main_slash	7	main_slash	145	stimuli_target_squarediamonds.svg	stimuli_distractor_trianglediamonds.svg	4	yes	53	1	1851
6.6.1	win	2022-12-14	14:45:04	14:51:05	359323	5dd0749782569a156ed4f658	732531931	1	main_slash	7	advance_on_keypress_SLASH	146	stimuli_target_squarediamonds.svg	stimuli_distractor_trianglediamonds.svg	4	yes	57	0	337
6.6.1	win	2022-12-14	14:45:04	14:51:07	361126	5dd0749782569a156ed4f658	732531931	1	main_slash	7	main_slash	147	stimuli_target_trianglecircles.svg	stimuli_distractor_trianglediamonds.svg	17	yes	53	1	812
6.6.1	win	2022-12-14	14:45:04	14:51:07	361126	5dd0749782569a156ed4f658	732531931	1	main_slash	7	advance_on_keypress_SLASH	148	stimuli_target_trianglecircles.svg	stimuli_distractor_trianglediamonds.svg	17	yes	57	0	299
6.6.1	win	2022-12-14	14:45:04	14:51:10	364084	5dd0749782569a156ed4f658	732531931	1	main_slash	7	main_slash	149	stimuli_distractor_trianglediamonds.svg	stimuli_distractor_diamondtriangles.svg	36	no	0	1	2000
6.6.1	win	2022-12-14	14:45:04	14:51:10	364084	5dd0749782569a156ed4f658	732531931	1	main_slash	7	advance_on_keypress_SLASH	150	stimuli_distractor_trianglediamonds.svg	stimuli_distractor_diamondtriangles.svg	36	no	57	0	274
6.6.1	win	2022-12-14	14:45:04	14:51:12	365879	5dd0749782569a156ed4f658	732531931	1	main_slash	7	main_slash	151	stimuli_distractor_trianglediamonds.svg	stimuli_target_squaretriangles.svg	11	yes	53	1	871
6.6.1	win	2022-12-14	14:45:04	14:51:12	365879	5dd0749782569a156ed4f658	732531931	1	main_slash	7	advance_on_keypress_SLASH	152	stimuli_distractor_trianglediamonds.svg	stimuli_target_squaretriangles.svg	11	yes	57	0	312
6.6.1	win	2022-12-14	14:45:04	14:51:15	368845	5dd0749782569a156ed4f658	732531931	1	main_slash	7	main_slash	153	stimuli_distractor_trianglediamonds.svg	stimuli_distractor_trianglediamonds.svg	33	no	0	1	2000
6.6.1	win	2022-12-14	14:45:04	14:51:15	368845	5dd0749782569a156ed4f658	732531931	1	main_slash	7	advance_on_keypress_SLASH	154	stimuli_distractor_trianglediamonds.svg	stimuli_distractor_trianglediamonds.svg	33	no	57	0	432
6.6.1	win	2022-12-14	14:45:04	14:51:17	370790	5dd0749782569a156ed4f658	732531931	1	main_slash	7	main_slash	155	stimuli_distractor_trianglediamonds.svg	stimuli_target_diamondcircles.svg	27	yes	53	1	855
6.6.1	win	2022-12-14	14:45:04	14:51:17	370790	5dd0749782569a156ed4f658	732531931	1	main_slash	7	advance_on_keypress_SLASH	156	stimuli_distractor_trianglediamonds.svg	stimuli_target_diamondcircles.svg	27	yes	57	0	298
6.6.1	win	2022-12-14	14:45:04	14:51:18	372581	5dd0749782569a156ed4f658	732531931	1	main_slash	7	main_slash	157	stimuli_distractor_trianglediamonds.svg	stimuli_target_squarediamonds.svg	12	yes	53	1	841
6.6.1	win	2022-12-14	14:45:04	14:51:18	372581	5dd0749782569a156ed4f658	732531931	1	main_slash	7	advance_on_keypress_SLASH	158	stimuli_distractor_trianglediamonds.svg	stimuli_target_squarediamonds.svg	12	yes	57	0	249
6.6.1	win	2022-12-14	14:45:04	14:51:20	374346	5dd0749782569a156ed4f658	732531931	1	main_slash	7	main_slash	159	stimuli_target_trianglecircles.svg	stimuli_distractor_diamondtriangles.svg	21	yes	53	1	868
6.6.1	win	2022-12-14	14:45:04	14:51:20	374346	5dd0749782569a156ed4f658	732531931	1	main_slash	7	advance_on_keypress_SLASH	160	stimuli_target_trianglecircles.svg	stimuli_distractor_diamondtriangles.svg	21	yes	57	0	237
6.6.1	win	2022-12-14	14:45:04	14:51:37	390965	5dd0749782569a156ed4f658	732531931	1	practice_z	9	practice_z	1	stimuli_target_squarediamonds.svg	stimuli_distractor_trianglediamonds.svg	5	yes	44	1	480
6.6.1	win	2022-12-14	14:45:04	14:51:37	390965	5dd0749782569a156ed4f658	732531931	1	practice_z	9	advance_on_keypress_ZEE	2	stimuli_target_squarediamonds.svg	stimuli_distractor_trianglediamonds.svg	5	yes	57	0	532
6.6.1	win	2022-12-14	14:45:04	14:51:40	394123	5dd0749782569a156ed4f658	732531931	1	practice_z	9	practice_z	3	stimuli_distractor_trianglediamonds.svg	stimuli_target_squarediamonds.svg	11	yes	44	1	965
6.6.1	win	2022-12-14	14:45:04	14:51:40	394123	5dd0749782569a156ed4f658	732531931	1	practice_z	9	advance_on_keypress_ZEE	4	stimuli_distractor_trianglediamonds.svg	stimuli_target_squarediamonds.svg	11	yes	57	0	365
6.6.1	win	2022-12-14	14:45:04	14:51:43	396949	5dd0749782569a156ed4f658	732531931	1	practice_z	9	practice_z	5	stimuli_target_squarediamonds.svg	stimuli_distractor_diamondtriangles.svg	2	yes	44	1	800
6.6.1	win	2022-12-14	14:45:04	14:51:43	396949	5dd0749782569a156ed4f658	732531931	1	practice_z	9	advance_on_keypress_ZEE	6	stimuli_target_squarediamonds.svg	stimuli_distractor_diamondtriangles.svg	2	yes	57	0	356
6.6.1	win	2022-12-14	14:45:04	14:51:47	400956	5dd0749782569a156ed4f658	732531931	1	practice_z	9	practice_z	7	stimuli_distractor_trianglediamonds.svg	stimuli_distractor_trianglediamonds.svg	15	no	0	1	2000
6.6.1	win	2022-12-14	14:45:04	14:51:47	400956	5dd0749782569a156ed4f658	732531931	1	practice_z	9	advance_on_keypress_ZEE	8	stimuli_distractor_trianglediamonds.svg	stimuli_distractor_trianglediamonds.svg	15	no	57	0	281
6.6.1	win	2022-12-14	14:45:04	14:51:50	403776	5dd0749782569a156ed4f658	732531931	1	practice_z	9	practice_z	9	stimuli_distractor_diamondtriangles.svg	stimuli_target_diamondcircles.svg	8	yes	44	1	879
6.6.1	win	2022-12-14	14:45:04	14:51:50	403776	5dd0749782569a156ed4f658	732531931	1	practice_z	9	advance_on_keypress_ZEE	10	stimuli_distractor_diamondtriangles.svg	stimuli_target_diamondcircles.svg	8	yes	57	0	373
6.6.1	win	2022-12-14	14:45:04	14:51:53	406769	5dd0749782569a156ed4f658	732531931	1	practice_z	9	practice_z	11	stimuli_target_diamondsquares.svg	stimuli_distractor_diamondtriangles.svg	3	yes	44	1	964
6.6.1	win	2022-12-14	14:45:04	14:51:53	406769	5dd0749782569a156ed4f658	732531931	1	practice_z	9	advance_on_keypress_ZEE	12	stimuli_target_diamondsquares.svg	stimuli_distractor_diamondtriangles.svg	3	yes	57	0	436
6.6.1	win	2022-12-14	14:45:04	14:51:57	410863	5dd0749782569a156ed4f658	732531931	1	practice_z	9	practice_z	13	stimuli_distractor_trianglediamonds.svg	stimuli_distractor_diamondtriangles.svg	16	no	0	1	2000
6.6.1	win	2022-12-14	14:45:04	14:51:57	410863	5dd0749782569a156ed4f658	732531931	1	practice_z	9	advance_on_keypress_ZEE	14	stimuli_distractor_trianglediamonds.svg	stimuli_distractor_diamondtriangles.svg	16	no	57	0	344
6.6.1	win	2022-12-14	14:45:04	14:52:00	413990	5dd0749782569a156ed4f658	732531931	1	practice_z	9	practice_z	15	stimuli_distractor_diamondtriangles.svg	stimuli_target_circletriangles.svg	7	yes	44	1	1118
6.6.1	win	2022-12-14	14:45:04	14:52:00	413990	5dd0749782569a156ed4f658	732531931	1	practice_z	9	advance_on_keypress_ZEE	16	stimuli_distractor_diamondtriangles.svg	stimuli_target_circletriangles.svg	7	yes	57	0	431
6.6.1	win	2022-12-14	14:45:04	14:52:04	418080	5dd0749782569a156ed4f658	732531931	1	practice_z	9	practice_z	17	stimuli_distractor_diamondtriangles.svg	stimuli_distractor_trianglediamonds.svg	14	no	0	1	2000
6.6.1	win	2022-12-14	14:45:04	14:52:04	418080	5dd0749782569a156ed4f658	732531931	1	practice_z	9	advance_on_keypress_ZEE	18	stimuli_distractor_diamondtriangles.svg	stimuli_distractor_trianglediamonds.svg	14	no	57	0	322
6.6.1	win	2022-12-14	14:45:04	14:52:07	420951	5dd0749782569a156ed4f658	732531931	1	practice_z	9	practice_z	19	stimuli_target_diamondsquares.svg	stimuli_distractor_trianglediamonds.svg	6	yes	44	1	894
6.6.1	win	2022-12-14	14:45:04	14:52:07	420951	5dd0749782569a156ed4f658	732531931	1	practice_z	9	advance_on_keypress_ZEE	20	stimuli_target_diamondsquares.svg	stimuli_distractor_trianglediamonds.svg	6	yes	57	0	534
6.6.1	win	2022-12-14	14:45:04	14:52:11	425130	5dd0749782569a156ed4f658	732531931	1	practice_z	9	practice_z	21	stimuli_distractor_diamondtriangles.svg	stimuli_distractor_diamondtriangles.svg	13	no	0	1	2000
6.6.1	win	2022-12-14	14:45:04	14:52:11	425130	5dd0749782569a156ed4f658	732531931	1	practice_z	9	advance_on_keypress_ZEE	22	stimuli_distractor_diamondtriangles.svg	stimuli_distractor_diamondtriangles.svg	13	no	57	0	299
6.6.1	win	2022-12-14	14:45:04	14:52:14	428105	5dd0749782569a156ed4f658	732531931	1	practice_z	9	practice_z	23	stimuli_target_circlediamonds.svg	stimuli_distractor_diamondtriangles.svg	1	yes	44	1	1015
6.6.1	win	2022-12-14	14:45:04	14:52:14	428105	5dd0749782569a156ed4f658	732531931	1	practice_z	9	advance_on_keypress_ZEE	24	stimuli_target_circlediamonds.svg	stimuli_distractor_diamondtriangles.svg	1	yes	57	0	756
6.6.1	win	2022-12-14	14:45:04	14:52:17	431404	5dd0749782569a156ed4f658	732531931	1	practice_z	9	practice_z	25	stimuli_distractor_trianglediamonds.svg	stimuli_target_diamondcircles.svg	12	yes	44	1	890
6.6.1	win	2022-12-14	14:45:04	14:52:17	431404	5dd0749782569a156ed4f658	732531931	1	practice_z	9	advance_on_keypress_ZEE	26	stimuli_distractor_trianglediamonds.svg	stimuli_target_diamondcircles.svg	12	yes	57	0	324
6.6.1	win	2022-12-14	14:45:04	14:52:20	434301	5dd0749782569a156ed4f658	732531931	1	practice_z	9	practice_z	27	stimuli_distractor_diamondtriangles.svg	stimuli_target_trianglecircles.svg	9	yes	44	1	914
6.6.1	win	2022-12-14	14:45:04	14:52:20	434301	5dd0749782569a156ed4f658	732531931	1	practice_z	9	advance_on_keypress_ZEE	28	stimuli_distractor_diamondtriangles.svg	stimuli_target_trianglecircles.svg	9	yes	57	0	417
6.6.1	win	2022-12-14	14:45:04	14:52:23	437209	5dd0749782569a156ed4f658	732531931	1	practice_z	9	practice_z	29	stimuli_distractor_trianglediamonds.svg	stimuli_target_circlediamonds.svg	10	yes	44	1	829
6.6.1	win	2022-12-14	14:45:04	14:52:23	437209	5dd0749782569a156ed4f658	732531931	1	practice_z	9	advance_on_keypress_ZEE	30	stimuli_distractor_trianglediamonds.svg	stimuli_target_circlediamonds.svg	10	yes	57	0	461
6.6.1	win	2022-12-14	14:45:04	14:52:26	440259	5dd0749782569a156ed4f658	732531931	1	practice_z	9	practice_z	31	stimuli_target_circlediamonds.svg	stimuli_distractor_trianglediamonds.svg	4	yes	44	1	924
6.6.1	win	2022-12-14	14:45:04	14:52:26	440259	5dd0749782569a156ed4f658	732531931	1	practice_z	9	advance_on_keypress_ZEE	32	stimuli_target_circlediamonds.svg	stimuli_distractor_trianglediamonds.svg	4	yes	57	0	261
6.6.1	win	2022-12-14	14:45:04	14:52:30	444296	5dd0749782569a156ed4f658	732531931	1	main_z	11	main_z	1	stimuli_target_diamondsquares.svg	stimuli_distractor_trianglediamonds.svg	20	yes	44	1	935
6.6.1	win	2022-12-14	14:45:04	14:52:30	444296	5dd0749782569a156ed4f658	732531931	1	main_z	11	advance_on_keypress_ZEE	2	stimuli_target_diamondsquares.svg	stimuli_distractor_trianglediamonds.svg	20	yes	57	0	640
6.6.1	win	2022-12-14	14:45:04	14:52:32	446225	5dd0749782569a156ed4f658	732531931	1	main_z	11	main_z	3	stimuli_target_squaretriangles.svg	stimuli_distractor_trianglediamonds.svg	3	yes	44	1	641
6.6.1	win	2022-12-14	14:45:04	14:52:32	446225	5dd0749782569a156ed4f658	732531931	1	main_z	11	advance_on_keypress_ZEE	4	stimuli_target_squaretriangles.svg	stimuli_distractor_trianglediamonds.svg	3	yes	57	0	541
6.6.1	win	2022-12-14	14:45:04	14:52:34	448012	5dd0749782569a156ed4f658	732531931	1	main_z	11	main_z	5	stimuli_distractor_diamondtriangles.svg	stimuli_target_trianglecircles.svg	29	yes	44	1	608
6.6.1	win	2022-12-14	14:45:04	14:52:34	448012	5dd0749782569a156ed4f658	732531931	1	main_z	11	advance_on_keypress_ZEE	6	stimuli_distractor_diamondtriangles.svg	stimuli_target_trianglecircles.svg	29	yes	57	0	269
6.6.1	win	2022-12-14	14:45:04	14:52:35	449495	5dd0749782569a156ed4f658	732531931	1	main_z	11	main_z	7	stimuli_distractor_trianglediamonds.svg	stimuli_target_trianglecircles.svg	25	yes	44	1	570
6.6.1	win	2022-12-14	14:45:04	14:52:35	449495	5dd0749782569a156ed4f658	732531931	1	main_z	11	advance_on_keypress_ZEE	8	stimuli_distractor_trianglediamonds.svg	stimuli_target_trianglecircles.svg	25	yes	57	0	282
6.6.1	win	2022-12-14	14:45:04	14:52:38	452428	5dd0749782569a156ed4f658	732531931	1	main_z	11	main_z	9	stimuli_distractor_diamondtriangles.svg	stimuli_distractor_diamondtriangles.svg	39	no	0	1	2000
6.6.1	win	2022-12-14	14:45:04	14:52:38	452428	5dd0749782569a156ed4f658	732531931	1	main_z	11	advance_on_keypress_ZEE	10	stimuli_distractor_diamondtriangles.svg	stimuli_distractor_diamondtriangles.svg	39	no	57	0	349
6.6.1	win	2022-12-14	14:45:04	14:52:41	455435	5dd0749782569a156ed4f658	732531931	1	main_z	11	main_z	11	stimuli_distractor_diamondtriangles.svg	stimuli_distractor_trianglediamonds.svg	37	no	0	1	2000
6.6.1	win	2022-12-14	14:45:04	14:52:41	455435	5dd0749782569a156ed4f658	732531931	1	main_z	11	advance_on_keypress_ZEE	12	stimuli_distractor_diamondtriangles.svg	stimuli_distractor_trianglediamonds.svg	37	no	57	0	506
6.6.1	win	2022-12-14	14:45:04	14:52:43	457398	5dd0749782569a156ed4f658	732531931	1	main_z	11	main_z	13	stimuli_target_trianglesquares.svg	stimuli_distractor_diamondtriangles.svg	22	yes	44	1	805
6.6.1	win	2022-12-14	14:45:04	14:52:43	457398	5dd0749782569a156ed4f658	732531931	1	main_z	11	advance_on_keypress_ZEE	14	stimuli_target_trianglesquares.svg	stimuli_distractor_diamondtriangles.svg	22	yes	57	0	425
6.6.1	win	2022-12-14	14:45:04	14:52:45	459066	5dd0749782569a156ed4f658	732531931	1	main_z	11	main_z	15	stimuli_distractor_diamondtriangles.svg	stimuli_target_circlediamonds.svg	14	yes	44	1	601
6.6.1	win	2022-12-14	14:45:04	14:52:45	459066	5dd0749782569a156ed4f658	732531931	1	main_z	11	advance_on_keypress_ZEE	16	stimuli_distractor_diamondtriangles.svg	stimuli_target_circlediamonds.svg	14	yes	57	0	337
6.6.1	win	2022-12-14	14:45:04	14:52:46	460569	5dd0749782569a156ed4f658	732531931	1	main_z	11	main_z	17	stimuli_target_trianglecircles.svg	stimuli_distractor_trianglediamonds.svg	17	yes	44	1	505
6.6.1	win	2022-12-14	14:45:04	14:52:46	460569	5dd0749782569a156ed4f658	732531931	1	main_z	11	advance_on_keypress_ZEE	18	stimuli_target_trianglecircles.svg	stimuli_distractor_trianglediamonds.svg	17	yes	57	0	315
6.6.1	win	2022-12-14	14:45:04	14:52:48	461997	5dd0749782569a156ed4f658	732531931	1	main_z	11	main_z	19	stimuli_distractor_diamondtriangles.svg	stimuli_target_circletriangles.svg	13	yes	44	1	459
6.6.1	win	2022-12-14	14:45:04	14:52:48	461997	5dd0749782569a156ed4f658	732531931	1	main_z	11	advance_on_keypress_ZEE	20	stimuli_distractor_diamondtriangles.svg	stimuli_target_circletriangles.svg	13	yes	57	0	333
6.6.1	win	2022-12-14	14:45:04	14:52:51	464975	5dd0749782569a156ed4f658	732531931	1	main_z	11	main_z	21	stimuli_distractor_diamondtriangles.svg	stimuli_distractor_diamondtriangles.svg	40	no	0	1	2000
6.6.1	win	2022-12-14	14:45:04	14:52:51	464975	5dd0749782569a156ed4f658	732531931	1	main_z	11	advance_on_keypress_ZEE	22	stimuli_distractor_diamondtriangles.svg	stimuli_distractor_diamondtriangles.svg	40	no	57	0	271
6.6.1	win	2022-12-14	14:45:04	14:52:52	466452	5dd0749782569a156ed4f658	732531931	1	main_z	11	main_z	23	stimuli_target_trianglesquares.svg	stimuli_distractor_trianglediamonds.svg	18	yes	44	1	552
6.6.1	win	2022-12-14	14:45:04	14:52:52	466452	5dd0749782569a156ed4f658	732531931	1	main_z	11	advance_on_keypress_ZEE	24	stimuli_target_trianglesquares.svg	stimuli_distractor_trianglediamonds.svg	18	yes	57	0	258
6.6.1	win	2022-12-14	14:45:04	14:52:54	467915	5dd0749782569a156ed4f658	732531931	1	main_z	11	main_z	25	stimuli_distractor_trianglediamonds.svg	stimuli_target_circletriangles.svg	9	yes	44	1	563
6.6.1	win	2022-12-14	14:45:04	14:52:54	467915	5dd0749782569a156ed4f658	732531931	1	main_z	11	advance_on_keypress_ZEE	26	stimuli_distractor_trianglediamonds.svg	stimuli_target_circletriangles.svg	9	yes	57	0	271
6.6.1	win	2022-12-14	14:45:04	14:52:55	469380	5dd0749782569a156ed4f658	732531931	1	main_z	11	main_z	27	stimuli_target_circlediamonds.svg	stimuli_distractor_diamondtriangles.svg	6	yes	44	1	541
6.6.1	win	2022-12-14	14:45:04	14:52:55	469380	5dd0749782569a156ed4f658	732531931	1	main_z	11	advance_on_keypress_ZEE	28	stimuli_target_circlediamonds.svg	stimuli_distractor_diamondtriangles.svg	6	yes	57	0	268
6.6.1	win	2022-12-14	14:45:04	14:52:57	470939	5dd0749782569a156ed4f658	732531931	1	main_z	11	main_z	29	stimuli_distractor_diamondtriangles.svg	stimuli_target_squarediamonds.svg	16	yes	44	1	646
6.6.1	win	2022-12-14	14:45:04	14:52:57	470939	5dd0749782569a156ed4f658	732531931	1	main_z	11	advance_on_keypress_ZEE	30	stimuli_distractor_diamondtriangles.svg	stimuli_target_squarediamonds.svg	16	yes	57	0	273
6.6.1	win	2022-12-14	14:45:04	14:52:59	472901	5dd0749782569a156ed4f658	732531931	1	main_z	11	main_z	31	stimuli_distractor_trianglediamonds.svg	stimuli_target_diamondsquares.svg	28	yes	44	1	1038
6.6.1	win	2022-12-14	14:45:04	14:52:59	472901	5dd0749782569a156ed4f658	732531931	1	main_z	11	advance_on_keypress_ZEE	32	stimuli_distractor_trianglediamonds.svg	stimuli_target_diamondsquares.svg	28	yes	57	0	305
6.6.1	win	2022-12-14	14:45:04	14:53:00	474581	5dd0749782569a156ed4f658	732531931	1	main_z	11	main_z	33	stimuli_distractor_diamondtriangles.svg	stimuli_target_trianglesquares.svg	30	yes	44	1	729
6.6.1	win	2022-12-14	14:45:04	14:53:00	474581	5dd0749782569a156ed4f658	732531931	1	main_z	11	advance_on_keypress_ZEE	34	stimuli_distractor_diamondtriangles.svg	stimuli_target_trianglesquares.svg	30	yes	57	0	285
6.6.1	win	2022-12-14	14:45:04	14:53:02	476039	5dd0749782569a156ed4f658	732531931	1	main_z	11	main_z	35	stimuli_target_circletriangles.svg	stimuli_distractor_diamondtriangles.svg	5	yes	44	1	510
6.6.1	win	2022-12-14	14:45:04	14:53:02	476039	5dd0749782569a156ed4f658	732531931	1	main_z	11	advance_on_keypress_ZEE	36	stimuli_target_circletriangles.svg	stimuli_distractor_diamondtriangles.svg	5	yes	57	0	275
6.6.1	win	2022-12-14	14:45:04	14:53:03	477631	5dd0749782569a156ed4f658	732531931	1	main_z	11	main_z	37	stimuli_distractor_trianglediamonds.svg	stimuli_target_circlediamonds.svg	10	yes	44	1	672
6.6.1	win	2022-12-14	14:45:04	14:53:03	477631	5dd0749782569a156ed4f658	732531931	1	main_z	11	advance_on_keypress_ZEE	38	stimuli_distractor_trianglediamonds.svg	stimuli_target_circlediamonds.svg	10	yes	57	0	281
6.6.1	win	2022-12-14	14:45:04	14:53:05	479054	5dd0749782569a156ed4f658	732531931	1	main_z	11	main_z	39	stimuli_target_circlediamonds.svg	stimuli_distractor_trianglediamonds.svg	2	yes	44	1	491
6.6.1	win	2022-12-14	14:45:04	14:53:05	479054	5dd0749782569a156ed4f658	732531931	1	main_z	11	advance_on_keypress_ZEE	40	stimuli_target_circlediamonds.svg	stimuli_distractor_trianglediamonds.svg	2	yes	57	0	256
6.6.1	win	2022-12-14	14:45:04	14:53:08	481949	5dd0749782569a156ed4f658	732531931	1	main_z	11	main_z	41	stimuli_distractor_trianglediamonds.svg	stimuli_distractor_diamondtriangles.svg	36	no	0	1	2000
6.6.1	win	2022-12-14	14:45:04	14:53:08	481949	5dd0749782569a156ed4f658	732531931	1	main_z	11	advance_on_keypress_ZEE	42	stimuli_distractor_trianglediamonds.svg	stimuli_distractor_diamondtriangles.svg	36	no	57	0	442
6.6.1	win	2022-12-14	14:45:04	14:53:10	483678	5dd0749782569a156ed4f658	732531931	1	main_z	11	main_z	43	stimuli_target_diamondcircles.svg	stimuli_distractor_diamondtriangles.svg	23	yes	44	1	638
6.6.1	win	2022-12-14	14:45:04	14:53:10	483678	5dd0749782569a156ed4f658	732531931	1	main_z	11	advance_on_keypress_ZEE	44	stimuli_target_diamondcircles.svg	stimuli_distractor_diamondtriangles.svg	23	yes	57	0	242
6.6.1	win	2022-12-14	14:45:04	14:53:11	485135	5dd0749782569a156ed4f658	732531931	1	main_z	11	main_z	45	stimuli_target_squarediamonds.svg	stimuli_distractor_trianglediamonds.svg	4	yes	44	1	574
6.6.1	win	2022-12-14	14:45:04	14:53:11	485135	5dd0749782569a156ed4f658	732531931	1	main_z	11	advance_on_keypress_ZEE	46	stimuli_target_squarediamonds.svg	stimuli_distractor_trianglediamonds.svg	4	yes	57	0	273
6.6.1	win	2022-12-14	14:45:04	14:53:12	486622	5dd0749782569a156ed4f658	732531931	1	main_z	11	main_z	47	stimuli_distractor_trianglediamonds.svg	stimuli_target_trianglesquares.svg	26	yes	44	1	575
6.6.1	win	2022-12-14	14:45:04	14:53:12	486622	5dd0749782569a156ed4f658	732531931	1	main_z	11	advance_on_keypress_ZEE	48	stimuli_distractor_trianglediamonds.svg	stimuli_target_trianglesquares.svg	26	yes	57	0	284
6.6.1	win	2022-12-14	14:45:04	14:53:14	487982	5dd0749782569a156ed4f658	732531931	1	main_z	11	main_z	49	stimuli_target_squarediamonds.svg	stimuli_distractor_diamondtriangles.svg	8	yes	44	1	431
6.6.1	win	2022-12-14	14:45:04	14:53:14	487982	5dd0749782569a156ed4f658	732531931	1	main_z	11	advance_on_keypress_ZEE	50	stimuli_target_squarediamonds.svg	stimuli_distractor_diamondtriangles.svg	8	yes	57	0	300
6.6.1	win	2022-12-14	14:45:04	14:53:15	489404	5dd0749782569a156ed4f658	732531931	1	main_z	11	main_z	51	stimuli_distractor_diamondtriangles.svg	stimuli_target_diamondcircles.svg	31	yes	44	1	467
6.6.1	win	2022-12-14	14:45:04	14:53:15	489404	5dd0749782569a156ed4f658	732531931	1	main_z	11	advance_on_keypress_ZEE	52	stimuli_distractor_diamondtriangles.svg	stimuli_target_diamondcircles.svg	31	yes	57	0	271
6.6.1	win	2022-12-14	14:45:04	14:53:18	492324	5dd0749782569a156ed4f658	732531931	1	main_z	11	main_z	53	stimuli_distractor_trianglediamonds.svg	stimuli_distractor_diamondtriangles.svg	35	no	0	1	2000
6.6.1	win	2022-12-14	14:45:04	14:53:18	492324	5dd0749782569a156ed4f658	732531931	1	main_z	11	advance_on_keypress_ZEE	54	stimuli_distractor_trianglediamonds.svg	stimuli_distractor_diamondtriangles.svg	35	no	57	0	250
6.6.1	win	2022-12-14	14:45:04	14:53:20	493753	5dd0749782569a156ed4f658	732531931	1	main_z	11	main_z	55	stimuli_target_diamondsquares.svg	stimuli_distractor_diamondtriangles.svg	24	yes	44	1	522
6.6.1	win	2022-12-14	14:45:04	14:53:20	493753	5dd0749782569a156ed4f658	732531931	1	main_z	11	advance_on_keypress_ZEE	56	stimuli_target_diamondsquares.svg	stimuli_distractor_diamondtriangles.svg	24	yes	57	0	248
6.6.1	win	2022-12-14	14:45:04	14:53:21	495108	5dd0749782569a156ed4f658	732531931	1	main_z	11	main_z	57	stimuli_distractor_trianglediamonds.svg	stimuli_target_squarediamonds.svg	12	yes	44	1	457
6.6.1	win	2022-12-14	14:45:04	14:53:21	495108	5dd0749782569a156ed4f658	732531931	1	main_z	11	advance_on_keypress_ZEE	58	stimuli_distractor_trianglediamonds.svg	stimuli_target_squarediamonds.svg	12	yes	57	0	257
6.6.1	win	2022-12-14	14:45:04	14:53:22	496522	5dd0749782569a156ed4f658	732531931	1	main_z	11	main_z	59	stimuli_distractor_diamondtriangles.svg	stimuli_target_diamondsquares.svg	32	yes	44	1	510
6.6.1	win	2022-12-14	14:45:04	14:53:22	496522	5dd0749782569a156ed4f658	732531931	1	main_z	11	advance_on_keypress_ZEE	60	stimuli_distractor_diamondtriangles.svg	stimuli_target_diamondsquares.svg	32	yes	57	0	228
6.6.1	win	2022-12-14	14:45:04	14:53:24	497933	5dd0749782569a156ed4f658	732531931	1	main_z	11	main_z	61	stimuli_target_diamondcircles.svg	stimuli_distractor_trianglediamonds.svg	19	yes	44	1	525
6.6.1	win	2022-12-14	14:45:04	14:53:24	497933	5dd0749782569a156ed4f658	732531931	1	main_z	11	advance_on_keypress_ZEE	62	stimuli_target_diamondcircles.svg	stimuli_distractor_trianglediamonds.svg	19	yes	57	0	288
6.6.1	win	2022-12-14	14:45:04	14:53:25	499463	5dd0749782569a156ed4f658	732531931	1	main_z	11	main_z	63	stimuli_target_circletriangles.svg	stimuli_distractor_trianglediamonds.svg	1	yes	44	1	602
6.6.1	win	2022-12-14	14:45:04	14:53:25	499463	5dd0749782569a156ed4f658	732531931	1	main_z	11	advance_on_keypress_ZEE	64	stimuli_target_circletriangles.svg	stimuli_distractor_trianglediamonds.svg	1	yes	57	0	245
6.6.1	win	2022-12-14	14:45:04	14:53:28	502365	5dd0749782569a156ed4f658	732531931	1	main_z	11	main_z	65	stimuli_distractor_trianglediamonds.svg	stimuli_distractor_trianglediamonds.svg	34	no	0	1	2000
6.6.1	win	2022-12-14	14:45:04	14:53:28	502365	5dd0749782569a156ed4f658	732531931	1	main_z	11	advance_on_keypress_ZEE	66	stimuli_distractor_trianglediamonds.svg	stimuli_distractor_trianglediamonds.svg	34	no	57	0	315
6.6.1	win	2022-12-14	14:45:04	14:53:30	503875	5dd0749782569a156ed4f658	732531931	1	main_z	11	main_z	67	stimuli_target_squaretriangles.svg	stimuli_distractor_diamondtriangles.svg	7	yes	44	1	536
6.6.1	win	2022-12-14	14:45:04	14:53:30	503875	5dd0749782569a156ed4f658	732531931	1	main_z	11	advance_on_keypress_ZEE	68	stimuli_target_squaretriangles.svg	stimuli_distractor_diamondtriangles.svg	7	yes	57	0	219
6.6.1	win	2022-12-14	14:45:04	14:53:31	505419	5dd0749782569a156ed4f658	732531931	1	main_z	11	main_z	69	stimuli_distractor_trianglediamonds.svg	stimuli_target_diamondcircles.svg	27	yes	44	1	677
6.6.1	win	2022-12-14	14:45:04	14:53:31	505419	5dd0749782569a156ed4f658	732531931	1	main_z	11	advance_on_keypress_ZEE	70	stimuli_distractor_trianglediamonds.svg	stimuli_target_diamondcircles.svg	27	yes	57	0	273
6.6.1	win	2022-12-14	14:45:04	14:53:33	506988	5dd0749782569a156ed4f658	732531931	1	main_z	11	main_z	71	stimuli_target_trianglecircles.svg	stimuli_distractor_diamondtriangles.svg	21	yes	44	1	659
6.6.1	win	2022-12-14	14:45:04	14:53:33	506988	5dd0749782569a156ed4f658	732531931	1	main_z	11	advance_on_keypress_ZEE	72	stimuli_target_trianglecircles.svg	stimuli_distractor_diamondtriangles.svg	21	yes	57	0	267
6.6.1	win	2022-12-14	14:45:04	14:53:34	508442	5dd0749782569a156ed4f658	732531931	1	main_z	11	main_z	73	stimuli_distractor_diamondtriangles.svg	stimuli_target_squaretriangles.svg	15	yes	44	1	543
6.6.1	win	2022-12-14	14:45:04	14:53:34	508442	5dd0749782569a156ed4f658	732531931	1	main_z	11	advance_on_keypress_ZEE	74	stimuli_distractor_diamondtriangles.svg	stimuli_target_squaretriangles.svg	15	yes	57	0	279
6.6.1	win	2022-12-14	14:45:04	14:53:36	510113	5dd0749782569a156ed4f658	732531931	1	main_z	11	main_z	75	stimuli_distractor_diamondtriangles.svg	stimuli_distractor_trianglediamonds.svg	38	no	44	0	743
6.6.1	win	2022-12-14	14:45:04	14:53:36	510113	5dd0749782569a156ed4f658	732531931	1	main_z	11	advance_on_keypress_ZEE	76	stimuli_distractor_diamondtriangles.svg	stimuli_distractor_trianglediamonds.svg	38	no	57	0	273
6.6.1	win	2022-12-14	14:45:04	14:53:37	511545	5dd0749782569a156ed4f658	732531931	1	main_z	11	main_z	77	stimuli_distractor_trianglediamonds.svg	stimuli_target_squaretriangles.svg	11	yes	44	1	520
6.6.1	win	2022-12-14	14:45:04	14:53:37	511545	5dd0749782569a156ed4f658	732531931	1	main_z	11	advance_on_keypress_ZEE	78	stimuli_distractor_trianglediamonds.svg	stimuli_target_squaretriangles.svg	11	yes	57	0	267
6.6.1	win	2022-12-14	14:45:04	14:53:40	514461	5dd0749782569a156ed4f658	732531931	1	main_z	11	main_z	79	stimuli_distractor_trianglediamonds.svg	stimuli_distractor_trianglediamonds.svg	33	no	0	1	2000
6.6.1	win	2022-12-14	14:45:04	14:53:40	514461	5dd0749782569a156ed4f658	732531931	1	main_z	11	advance_on_keypress_ZEE	80	stimuli_distractor_trianglediamonds.svg	stimuli_distractor_trianglediamonds.svg	33	no	57	0	380
6.6.1	win	2022-12-14	14:45:04	14:53:42	516061	5dd0749782569a156ed4f658	732531931	1	main_z	11	main_z	81	stimuli_distractor_diamondtriangles.svg	stimuli_target_diamondcircles.svg	31	yes	44	1	560
6.6.1	win	2022-12-14	14:45:04	14:53:42	516061	5dd0749782569a156ed4f658	732531931	1	main_z	11	advance_on_keypress_ZEE	82	stimuli_distractor_diamondtriangles.svg	stimuli_target_diamondcircles.svg	31	yes	57	0	238
6.6.1	win	2022-12-14	14:45:04	14:53:43	517384	5dd0749782569a156ed4f658	732531931	1	main_z	11	main_z	83	stimuli_target_trianglesquares.svg	stimuli_distractor_diamondtriangles.svg	22	yes	44	1	445
6.6.1	win	2022-12-14	14:45:04	14:53:43	517384	5dd0749782569a156ed4f658	732531931	1	main_z	11	advance_on_keypress_ZEE	84	stimuli_target_trianglesquares.svg	stimuli_distractor_diamondtriangles.svg	22	yes	57	0	273
6.6.1	win	2022-12-14	14:45:04	14:53:45	518793	5dd0749782569a156ed4f658	732531931	1	main_z	11	main_z	85	stimuli_distractor_diamondtriangles.svg	stimuli_target_diamondsquares.svg	32	yes	44	1	485
6.6.1	win	2022-12-14	14:45:04	14:53:45	518793	5dd0749782569a156ed4f658	732531931	1	main_z	11	advance_on_keypress_ZEE	86	stimuli_distractor_diamondtriangles.svg	stimuli_target_diamondsquares.svg	32	yes	57	0	232
6.6.1	win	2022-12-14	14:45:04	14:53:46	520116	5dd0749782569a156ed4f658	732531931	1	main_z	11	main_z	87	stimuli_distractor_diamondtriangles.svg	stimuli_target_squaretriangles.svg	15	yes	44	1	438
6.6.1	win	2022-12-14	14:45:04	14:53:46	520116	5dd0749782569a156ed4f658	732531931	1	main_z	11	advance_on_keypress_ZEE	88	stimuli_distractor_diamondtriangles.svg	stimuli_target_squaretriangles.svg	15	yes	57	0	264
6.6.1	win	2022-12-14	14:45:04	14:53:47	521513	5dd0749782569a156ed4f658	732531931	1	main_z	11	main_z	89	stimuli_distractor_trianglediamonds.svg	stimuli_target_squarediamonds.svg	12	yes	44	1	483
6.6.1	win	2022-12-14	14:45:04	14:53:47	521513	5dd0749782569a156ed4f658	732531931	1	main_z	11	advance_on_keypress_ZEE	90	stimuli_distractor_trianglediamonds.svg	stimuli_target_squarediamonds.svg	12	yes	57	0	242
6.6.1	win	2022-12-14	14:45:04	14:53:49	522887	5dd0749782569a156ed4f658	732531931	1	main_z	11	main_z	91	stimuli_target_circletriangles.svg	stimuli_distractor_diamondtriangles.svg	5	yes	44	1	487
6.6.1	win	2022-12-14	14:45:04	14:53:49	522887	5dd0749782569a156ed4f658	732531931	1	main_z	11	advance_on_keypress_ZEE	92	stimuli_target_circletriangles.svg	stimuli_distractor_diamondtriangles.svg	5	yes	57	0	246
6.6.1	win	2022-12-14	14:45:04	14:53:50	524356	5dd0749782569a156ed4f658	732531931	1	main_z	11	main_z	93	stimuli_target_diamondcircles.svg	stimuli_distractor_trianglediamonds.svg	19	yes	44	1	568
6.6.1	win	2022-12-14	14:45:04	14:53:50	524356	5dd0749782569a156ed4f658	732531931	1	main_z	11	advance_on_keypress_ZEE	94	stimuli_target_diamondcircles.svg	stimuli_distractor_trianglediamonds.svg	19	yes	57	0	246
6.6.1	win	2022-12-14	14:45:04	14:53:52	525875	5dd0749782569a156ed4f658	732531931	1	main_z	11	main_z	95	stimuli_target_trianglecircles.svg	stimuli_distractor_trianglediamonds.svg	17	yes	44	1	617
6.6.1	win	2022-12-14	14:45:04	14:53:52	525875	5dd0749782569a156ed4f658	732531931	1	main_z	11	advance_on_keypress_ZEE	96	stimuli_target_trianglecircles.svg	stimuli_distractor_trianglediamonds.svg	17	yes	57	0	262
6.6.1	win	2022-12-14	14:45:04	14:53:53	527282	5dd0749782569a156ed4f658	732531931	1	main_z	11	main_z	97	stimuli_distractor_trianglediamonds.svg	stimuli_target_trianglecircles.svg	25	yes	44	1	487
6.6.1	win	2022-12-14	14:45:04	14:53:53	527282	5dd0749782569a156ed4f658	732531931	1	main_z	11	advance_on_keypress_ZEE	98	stimuli_distractor_trianglediamonds.svg	stimuli_target_trianglecircles.svg	25	yes	57	0	239
6.6.1	win	2022-12-14	14:45:04	14:53:56	530169	5dd0749782569a156ed4f658	732531931	1	main_z	11	main_z	99	stimuli_distractor_diamondtriangles.svg	stimuli_distractor_trianglediamonds.svg	38	no	0	1	2000
6.6.1	win	2022-12-14	14:45:04	14:53:56	530169	5dd0749782569a156ed4f658	732531931	1	main_z	11	advance_on_keypress_ZEE	100	stimuli_distractor_diamondtriangles.svg	stimuli_distractor_trianglediamonds.svg	38	no	57	0	252
6.6.1	win	2022-12-14	14:45:04	14:53:59	533073	5dd0749782569a156ed4f658	732531931	1	main_z	11	main_z	101	stimuli_distractor_diamondtriangles.svg	stimuli_distractor_trianglediamonds.svg	37	no	0	1	2000
6.6.1	win	2022-12-14	14:45:04	14:53:59	533073	5dd0749782569a156ed4f658	732531931	1	main_z	11	advance_on_keypress_ZEE	102	stimuli_distractor_diamondtriangles.svg	stimuli_distractor_trianglediamonds.svg	37	no	57	0	345
6.6.1	win	2022-12-14	14:45:04	14:54:01	534811	5dd0749782569a156ed4f658	732531931	1	main_z	11	main_z	103	stimuli_distractor_diamondtriangles.svg	stimuli_target_circletriangles.svg	13	yes	44	1	732
6.6.1	win	2022-12-14	14:45:04	14:54:01	534811	5dd0749782569a156ed4f658	732531931	1	main_z	11	advance_on_keypress_ZEE	104	stimuli_distractor_diamondtriangles.svg	stimuli_target_circletriangles.svg	13	yes	57	0	248
6.6.1	win	2022-12-14	14:45:04	14:54:02	536342	5dd0749782569a156ed4f658	732531931	1	main_z	11	main_z	105	stimuli_target_squaretriangles.svg	stimuli_distractor_diamondtriangles.svg	7	yes	44	1	626
6.6.1	win	2022-12-14	14:45:04	14:54:02	536342	5dd0749782569a156ed4f658	732531931	1	main_z	11	advance_on_keypress_ZEE	106	stimuli_target_squaretriangles.svg	stimuli_distractor_diamondtriangles.svg	7	yes	57	0	265
6.6.1	win	2022-12-14	14:45:04	14:54:04	538078	5dd0749782569a156ed4f658	732531931	1	main_z	11	main_z	107	stimuli_target_trianglecircles.svg	stimuli_distractor_diamondtriangles.svg	21	yes	44	1	825
6.6.1	win	2022-12-14	14:45:04	14:54:04	538078	5dd0749782569a156ed4f658	732531931	1	main_z	11	advance_on_keypress_ZEE	108	stimuli_target_trianglecircles.svg	stimuli_distractor_diamondtriangles.svg	21	yes	57	0	243
6.6.1	win	2022-12-14	14:45:04	14:54:06	539789	5dd0749782569a156ed4f658	732531931	1	main_z	11	main_z	109	stimuli_distractor_diamondtriangles.svg	stimuli_target_trianglesquares.svg	30	yes	44	1	815
6.6.1	win	2022-12-14	14:45:04	14:54:06	539789	5dd0749782569a156ed4f658	732531931	1	main_z	11	advance_on_keypress_ZEE	110	stimuli_distractor_diamondtriangles.svg	stimuli_target_trianglesquares.svg	30	yes	57	0	201
6.6.1	win	2022-12-14	14:45:04	14:54:07	541249	5dd0749782569a156ed4f658	732531931	1	main_z	11	main_z	111	stimuli_target_trianglesquares.svg	stimuli_distractor_trianglediamonds.svg	18	yes	44	1	604
6.6.1	win	2022-12-14	14:45:04	14:54:07	541249	5dd0749782569a156ed4f658	732531931	1	main_z	11	advance_on_keypress_ZEE	112	stimuli_target_trianglesquares.svg	stimuli_distractor_trianglediamonds.svg	18	yes	57	0	264
6.6.1	win	2022-12-14	14:45:04	14:54:09	542858	5dd0749782569a156ed4f658	732531931	1	main_z	11	main_z	113	stimuli_distractor_trianglediamonds.svg	stimuli_target_diamondcircles.svg	27	yes	44	1	693
6.6.1	win	2022-12-14	14:45:04	14:54:09	542858	5dd0749782569a156ed4f658	732531931	1	main_z	11	advance_on_keypress_ZEE	114	stimuli_distractor_trianglediamonds.svg	stimuli_target_diamondcircles.svg	27	yes	57	0	267
6.6.1	win	2022-12-14	14:45:04	14:54:10	544534	5dd0749782569a156ed4f658	732531931	1	main_z	11	main_z	115	stimuli_distractor_trianglediamonds.svg	stimuli_target_trianglesquares.svg	26	yes	44	1	765
6.6.1	win	2022-12-14	14:45:04	14:54:10	544534	5dd0749782569a156ed4f658	732531931	1	main_z	11	advance_on_keypress_ZEE	116	stimuli_distractor_trianglediamonds.svg	stimuli_target_trianglesquares.svg	26	yes	57	0	237
6.6.1	win	2022-12-14	14:45:04	14:54:12	546123	5dd0749782569a156ed4f658	732531931	1	main_z	11	main_z	117	stimuli_distractor_diamondtriangles.svg	stimuli_target_squarediamonds.svg	16	yes	44	1	699
6.6.1	win	2022-12-14	14:45:04	14:54:12	546123	5dd0749782569a156ed4f658	732531931	1	main_z	11	advance_on_keypress_ZEE	118	stimuli_distractor_diamondtriangles.svg	stimuli_target_squarediamonds.svg	16	yes	57	0	246
6.6.1	win	2022-12-14	14:45:04	14:54:14	547940	5dd0749782569a156ed4f658	732531931	1	main_z	11	main_z	119	stimuli_distractor_trianglediamonds.svg	stimuli_target_diamondsquares.svg	28	yes	44	1	913
6.6.1	win	2022-12-14	14:45:04	14:54:14	547940	5dd0749782569a156ed4f658	732531931	1	main_z	11	advance_on_keypress_ZEE	120	stimuli_distractor_trianglediamonds.svg	stimuli_target_diamondsquares.svg	28	yes	57	0	188
6.6.1	win	2022-12-14	14:45:04	14:54:15	549484	5dd0749782569a156ed4f658	732531931	1	main_z	11	main_z	121	stimuli_target_diamondsquares.svg	stimuli_distractor_diamondtriangles.svg	24	yes	44	1	703
6.6.1	win	2022-12-14	14:45:04	14:54:15	549484	5dd0749782569a156ed4f658	732531931	1	main_z	11	advance_on_keypress_ZEE	122	stimuli_target_diamondsquares.svg	stimuli_distractor_diamondtriangles.svg	24	yes	57	0	222
6.6.1	win	2022-12-14	14:45:04	14:54:17	551071	5dd0749782569a156ed4f658	732531931	1	main_z	11	main_z	123	stimuli_target_squarediamonds.svg	stimuli_distractor_diamondtriangles.svg	8	yes	44	1	721
6.6.1	win	2022-12-14	14:45:04	14:54:17	551071	5dd0749782569a156ed4f658	732531931	1	main_z	11	advance_on_keypress_ZEE	124	stimuli_target_squarediamonds.svg	stimuli_distractor_diamondtriangles.svg	8	yes	57	0	217
6.6.1	win	2022-12-14	14:45:04	14:54:19	552650	5dd0749782569a156ed4f658	732531931	1	main_z	11	main_z	125	stimuli_distractor_diamondtriangles.svg	stimuli_distractor_diamondtriangles.svg	40	no	44	0	712
6.6.1	win	2022-12-14	14:45:04	14:54:19	552650	5dd0749782569a156ed4f658	732531931	1	main_z	11	advance_on_keypress_ZEE	126	stimuli_distractor_diamondtriangles.svg	stimuli_distractor_diamondtriangles.svg	40	no	57	0	220
6.6.1	win	2022-12-14	14:45:04	14:54:20	554193	5dd0749782569a156ed4f658	732531931	1	main_z	11	main_z	127	stimuli_target_circlediamonds.svg	stimuli_distractor_trianglediamonds.svg	2	yes	44	1	684
6.6.1	win	2022-12-14	14:45:04	14:54:20	554193	5dd0749782569a156ed4f658	732531931	1	main_z	11	advance_on_keypress_ZEE	128	stimuli_target_circlediamonds.svg	stimuli_distractor_trianglediamonds.svg	2	yes	57	0	226
6.6.1	win	2022-12-14	14:45:04	14:54:23	557063	5dd0749782569a156ed4f658	732531931	1	main_z	11	main_z	129	stimuli_distractor_trianglediamonds.svg	stimuli_distractor_diamondtriangles.svg	36	no	0	1	2000
6.6.1	win	2022-12-14	14:45:04	14:54:23	557063	5dd0749782569a156ed4f658	732531931	1	main_z	11	advance_on_keypress_ZEE	130	stimuli_distractor_trianglediamonds.svg	stimuli_distractor_diamondtriangles.svg	36	no	57	0	285
6.6.1	win	2022-12-14	14:45:04	14:54:25	558634	5dd0749782569a156ed4f658	732531931	1	main_z	11	main_z	131	stimuli_target_diamondcircles.svg	stimuli_distractor_diamondtriangles.svg	23	yes	44	1	631
6.6.1	win	2022-12-14	14:45:04	14:54:25	558634	5dd0749782569a156ed4f658	732531931	1	main_z	11	advance_on_keypress_ZEE	132	stimuli_target_diamondcircles.svg	stimuli_distractor_diamondtriangles.svg	23	yes	57	0	227
6.6.1	win	2022-12-14	14:45:04	14:54:26	559988	5dd0749782569a156ed4f658	732531931	1	main_z	11	main_z	133	stimuli_target_squaretriangles.svg	stimuli_distractor_trianglediamonds.svg	3	yes	44	1	481
6.6.1	win	2022-12-14	14:45:04	14:54:26	559988	5dd0749782569a156ed4f658	732531931	1	main_z	11	advance_on_keypress_ZEE	134	stimuli_target_squaretriangles.svg	stimuli_distractor_trianglediamonds.svg	3	yes	57	0	228
6.6.1	win	2022-12-14	14:45:04	14:54:27	561318	5dd0749782569a156ed4f658	732531931	1	main_z	11	main_z	135	stimuli_distractor_trianglediamonds.svg	stimuli_target_circletriangles.svg	9	yes	44	1	442
6.6.1	win	2022-12-14	14:45:04	14:54:27	561318	5dd0749782569a156ed4f658	732531931	1	main_z	11	advance_on_keypress_ZEE	136	stimuli_distractor_trianglediamonds.svg	stimuli_target_circletriangles.svg	9	yes	57	0	209
6.6.1	win	2022-12-14	14:45:04	14:54:30	564162	5dd0749782569a156ed4f658	732531931	1	main_z	11	main_z	137	stimuli_distractor_trianglediamonds.svg	stimuli_distractor_trianglediamonds.svg	33	no	0	1	2000
6.6.1	win	2022-12-14	14:45:04	14:54:30	564162	5dd0749782569a156ed4f658	732531931	1	main_z	11	advance_on_keypress_ZEE	138	stimuli_distractor_trianglediamonds.svg	stimuli_distractor_trianglediamonds.svg	33	no	57	0	407
6.6.1	win	2022-12-14	14:45:04	14:54:32	565755	5dd0749782569a156ed4f658	732531931	1	main_z	11	main_z	139	stimuli_distractor_trianglediamonds.svg	stimuli_target_squaretriangles.svg	11	yes	44	1	535
6.6.1	win	2022-12-14	14:45:04	14:54:32	565755	5dd0749782569a156ed4f658	732531931	1	main_z	11	advance_on_keypress_ZEE	140	stimuli_distractor_trianglediamonds.svg	stimuli_target_squaretriangles.svg	11	yes	57	0	210
6.6.1	win	2022-12-14	14:45:04	14:54:33	567105	5dd0749782569a156ed4f658	732531931	1	main_z	11	main_z	141	stimuli_target_circlediamonds.svg	stimuli_distractor_diamondtriangles.svg	6	yes	44	1	481
6.6.1	win	2022-12-14	14:45:04	14:54:33	567105	5dd0749782569a156ed4f658	732531931	1	main_z	11	advance_on_keypress_ZEE	142	stimuli_target_circlediamonds.svg	stimuli_distractor_diamondtriangles.svg	6	yes	57	0	185
6.6.1	win	2022-12-14	14:45:04	14:54:36	569944	5dd0749782569a156ed4f658	732531931	1	main_z	11	main_z	143	stimuli_distractor_diamondtriangles.svg	stimuli_distractor_diamondtriangles.svg	39	no	0	1	2000
6.6.1	win	2022-12-14	14:45:04	14:54:36	569944	5dd0749782569a156ed4f658	732531931	1	main_z	11	advance_on_keypress_ZEE	144	stimuli_distractor_diamondtriangles.svg	stimuli_distractor_diamondtriangles.svg	39	no	57	0	271
6.6.1	win	2022-12-14	14:45:04	14:54:37	571384	5dd0749782569a156ed4f658	732531931	1	main_z	11	main_z	145	stimuli_target_circletriangles.svg	stimuli_distractor_trianglediamonds.svg	1	yes	44	1	510
6.6.1	win	2022-12-14	14:45:04	14:54:37	571384	5dd0749782569a156ed4f658	732531931	1	main_z	11	advance_on_keypress_ZEE	146	stimuli_target_circletriangles.svg	stimuli_distractor_trianglediamonds.svg	1	yes	57	0	216
6.6.1	win	2022-12-14	14:45:04	14:54:39	572642	5dd0749782569a156ed4f658	732531931	1	main_z	11	main_z	147	stimuli_distractor_diamondtriangles.svg	stimuli_target_circlediamonds.svg	14	yes	44	1	388
6.6.1	win	2022-12-14	14:45:04	14:54:39	572642	5dd0749782569a156ed4f658	732531931	1	main_z	11	advance_on_keypress_ZEE	148	stimuli_distractor_diamondtriangles.svg	stimuli_target_circlediamonds.svg	14	yes	57	0	239
6.6.1	win	2022-12-14	14:45:04	14:54:41	575523	5dd0749782569a156ed4f658	732531931	1	main_z	11	main_z	149	stimuli_distractor_trianglediamonds.svg	stimuli_distractor_diamondtriangles.svg	35	no	0	1	2000
6.6.1	win	2022-12-14	14:45:04	14:54:41	575523	5dd0749782569a156ed4f658	732531931	1	main_z	11	advance_on_keypress_ZEE	150	stimuli_distractor_trianglediamonds.svg	stimuli_distractor_diamondtriangles.svg	35	no	57	0	263
6.6.1	win	2022-12-14	14:45:04	14:54:43	576898	5dd0749782569a156ed4f658	732531931	1	main_z	11	main_z	151	stimuli_target_squarediamonds.svg	stimuli_distractor_trianglediamonds.svg	4	yes	44	1	451
6.6.1	win	2022-12-14	14:45:04	14:54:43	576898	5dd0749782569a156ed4f658	732531931	1	main_z	11	advance_on_keypress_ZEE	152	stimuli_target_squarediamonds.svg	stimuli_distractor_trianglediamonds.svg	4	yes	57	0	207
6.6.1	win	2022-12-14	14:45:04	14:54:44	578280	5dd0749782569a156ed4f658	732531931	1	main_z	11	main_z	153	stimuli_target_diamondsquares.svg	stimuli_distractor_trianglediamonds.svg	20	yes	44	1	531
6.6.1	win	2022-12-14	14:45:04	14:54:44	578280	5dd0749782569a156ed4f658	732531931	1	main_z	11	advance_on_keypress_ZEE	154	stimuli_target_diamondsquares.svg	stimuli_distractor_trianglediamonds.svg	20	yes	57	0	233
6.6.1	win	2022-12-14	14:45:04	14:54:47	581170	5dd0749782569a156ed4f658	732531931	1	main_z	11	main_z	155	stimuli_distractor_trianglediamonds.svg	stimuli_distractor_trianglediamonds.svg	34	no	0	1	2000
6.6.1	win	2022-12-14	14:45:04	14:54:47	581170	5dd0749782569a156ed4f658	732531931	1	main_z	11	advance_on_keypress_ZEE	156	stimuli_distractor_trianglediamonds.svg	stimuli_distractor_trianglediamonds.svg	34	no	57	0	270
6.6.1	win	2022-12-14	14:45:04	14:54:49	582742	5dd0749782569a156ed4f658	732531931	1	main_z	11	main_z	157	stimuli_distractor_trianglediamonds.svg	stimuli_target_circlediamonds.svg	10	yes	44	1	647
6.6.1	win	2022-12-14	14:45:04	14:54:49	582742	5dd0749782569a156ed4f658	732531931	1	main_z	11	advance_on_keypress_ZEE	158	stimuli_distractor_trianglediamonds.svg	stimuli_target_circlediamonds.svg	10	yes	57	0	184
6.6.1	win	2022-12-14	14:45:04	14:54:50	584310	5dd0749782569a156ed4f658	732531931	1	main_z	11	main_z	159	stimuli_distractor_diamondtriangles.svg	stimuli_target_trianglecircles.svg	29	yes	44	1	729
6.6.1	win	2022-12-14	14:45:04	14:54:50	584310	5dd0749782569a156ed4f658	732531931	1	main_z	11	advance_on_keypress_ZEE	160	stimuli_distractor_diamondtriangles.svg	stimuli_target_trianglecircles.svg	29	yes	57	0	249