build	computer.platform	date	time	timestamp	time_elapsed_ms	subject	group	session	blockcode	blocknum	trialcode	trialnum	stimulus_left	stimulus_right	stim_index	target_present	response	correct	latency
6.6.1	mac	2022-12-30	13:08:02	13:12:50	286042	62cc5f39bcfc093f815cf30a	633093206	1	practice_z	5	practice_z	1	stimuli_distractor_trianglediamonds.svg	stimuli_target_squarediamonds.svg	11	yes	0	0	2000
6.6.1	mac	2022-12-30	13:08:02	13:12:50	286042	62cc5f39bcfc093f815cf30a	633093206	1	practice_z	5	advance_on_keypress_ZEE	2	stimuli_distractor_trianglediamonds.svg	stimuli_target_squarediamonds.svg	11	yes	57	0	1154
6.6.1	mac	2022-12-30	13:08:02	13:12:53	289173	62cc5f39bcfc093f815cf30a	633093206	1	practice_z	5	practice_z	3	stimuli_target_diamondsquares.svg	stimuli_distractor_diamondtriangles.svg	3	yes	44	1	296
6.6.1	mac	2022-12-30	13:08:02	13:12:53	289173	62cc5f39bcfc093f815cf30a	633093206	1	practice_z	5	advance_on_keypress_ZEE	4	stimuli_target_diamondsquares.svg	stimuli_distractor_diamondtriangles.svg	3	yes	57	0	760
6.6.1	mac	2022-12-30	13:08:02	13:12:56	291940	62cc5f39bcfc093f815cf30a	633093206	1	practice_z	5	practice_z	5	stimuli_distractor_diamondtriangles.svg	stimuli_distractor_diamondtriangles.svg	13	no	44	0	356
6.6.1	mac	2022-12-30	13:08:02	13:12:56	291940	62cc5f39bcfc093f815cf30a	633093206	1	practice_z	5	advance_on_keypress_ZEE	6	stimuli_distractor_diamondtriangles.svg	stimuli_distractor_diamondtriangles.svg	13	no	57	0	508
6.6.1	mac	2022-12-30	13:08:02	13:12:58	294422	62cc5f39bcfc093f815cf30a	633093206	1	practice_z	5	practice_z	7	stimuli_distractor_trianglediamonds.svg	stimuli_distractor_trianglediamonds.svg	15	no	44	0	313
6.6.1	mac	2022-12-30	13:08:02	13:12:58	294422	62cc5f39bcfc093f815cf30a	633093206	1	practice_z	5	advance_on_keypress_ZEE	8	stimuli_distractor_trianglediamonds.svg	stimuli_distractor_trianglediamonds.svg	15	no	57	0	297
6.6.1	mac	2022-12-30	13:08:02	13:13:02	298375	62cc5f39bcfc093f815cf30a	633093206	1	practice_z	5	practice_z	9	stimuli_distractor_trianglediamonds.svg	stimuli_distractor_diamondtriangles.svg	16	no	0	1	2000
6.6.1	mac	2022-12-30	13:08:02	13:13:02	298375	62cc5f39bcfc093f815cf30a	633093206	1	practice_z	5	advance_on_keypress_ZEE	10	stimuli_distractor_trianglediamonds.svg	stimuli_distractor_diamondtriangles.svg	16	no	57	0	460
6.6.1	mac	2022-12-30	13:08:02	13:13:05	300999	62cc5f39bcfc093f815cf30a	633093206	1	practice_z	5	practice_z	11	stimuli_distractor_trianglediamonds.svg	stimuli_target_circlediamonds.svg	10	yes	44	1	488
6.6.1	mac	2022-12-30	13:08:02	13:13:05	300999	62cc5f39bcfc093f815cf30a	633093206	1	practice_z	5	advance_on_keypress_ZEE	12	stimuli_distractor_trianglediamonds.svg	stimuli_target_circlediamonds.svg	10	yes	57	0	539
6.6.1	mac	2022-12-30	13:08:02	13:13:07	303511	62cc5f39bcfc093f815cf30a	633093206	1	practice_z	5	practice_z	13	stimuli_distractor_diamondtriangles.svg	stimuli_target_diamondcircles.svg	8	yes	44	1	333
6.6.1	mac	2022-12-30	13:08:02	13:13:07	303511	62cc5f39bcfc093f815cf30a	633093206	1	practice_z	5	advance_on_keypress_ZEE	14	stimuli_distractor_diamondtriangles.svg	stimuli_target_diamondcircles.svg	8	yes	57	0	432
6.6.1	mac	2022-12-30	13:08:02	13:13:10	305909	62cc5f39bcfc093f815cf30a	633093206	1	practice_z	5	practice_z	15	stimuli_target_squarediamonds.svg	stimuli_distractor_trianglediamonds.svg	5	yes	44	1	299
6.6.1	mac	2022-12-30	13:08:02	13:13:10	305909	62cc5f39bcfc093f815cf30a	633093206	1	practice_z	5	advance_on_keypress_ZEE	16	stimuli_target_squarediamonds.svg	stimuli_distractor_trianglediamonds.svg	5	yes	57	0	300
6.6.1	mac	2022-12-30	13:08:02	13:13:12	308258	62cc5f39bcfc093f815cf30a	633093206	1	practice_z	5	practice_z	17	stimuli_target_circlediamonds.svg	stimuli_distractor_diamondtriangles.svg	1	yes	44	1	381
6.6.1	mac	2022-12-30	13:08:02	13:13:12	308258	62cc5f39bcfc093f815cf30a	633093206	1	practice_z	5	advance_on_keypress_ZEE	18	stimuli_target_circlediamonds.svg	stimuli_distractor_diamondtriangles.svg	1	yes	57	0	499
6.6.1	mac	2022-12-30	13:08:02	13:13:15	310801	62cc5f39bcfc093f815cf30a	633093206	1	practice_z	5	practice_z	19	stimuli_target_circlediamonds.svg	stimuli_distractor_trianglediamonds.svg	4	yes	44	1	390
6.6.1	mac	2022-12-30	13:08:02	13:13:15	310801	62cc5f39bcfc093f815cf30a	633093206	1	practice_z	5	advance_on_keypress_ZEE	20	stimuli_target_circlediamonds.svg	stimuli_distractor_trianglediamonds.svg	4	yes	57	0	310
6.6.1	mac	2022-12-30	13:08:02	13:13:17	313090	62cc5f39bcfc093f815cf30a	633093206	1	practice_z	5	practice_z	21	stimuli_distractor_diamondtriangles.svg	stimuli_target_circletriangles.svg	7	yes	44	1	299
6.6.1	mac	2022-12-30	13:08:02	13:13:17	313090	62cc5f39bcfc093f815cf30a	633093206	1	practice_z	5	advance_on_keypress_ZEE	22	stimuli_distractor_diamondtriangles.svg	stimuli_target_circletriangles.svg	7	yes	57	0	333
6.6.1	mac	2022-12-30	13:08:02	13:13:21	317075	62cc5f39bcfc093f815cf30a	633093206	1	practice_z	5	practice_z	23	stimuli_target_diamondsquares.svg	stimuli_distractor_trianglediamonds.svg	6	yes	0	0	2000
6.6.1	mac	2022-12-30	13:08:02	13:13:21	317075	62cc5f39bcfc093f815cf30a	633093206	1	practice_z	5	advance_on_keypress_ZEE	24	stimuli_target_diamondsquares.svg	stimuli_distractor_trianglediamonds.svg	6	yes	57	0	380
6.6.1	mac	2022-12-30	13:08:02	13:13:23	319539	62cc5f39bcfc093f815cf30a	633093206	1	practice_z	5	practice_z	25	stimuli_distractor_trianglediamonds.svg	stimuli_target_diamondcircles.svg	12	yes	44	1	419
6.6.1	mac	2022-12-30	13:08:02	13:13:23	319539	62cc5f39bcfc093f815cf30a	633093206	1	practice_z	5	advance_on_keypress_ZEE	26	stimuli_distractor_trianglediamonds.svg	stimuli_target_diamondcircles.svg	12	yes	57	0	313
6.6.1	mac	2022-12-30	13:08:02	13:13:26	322053	62cc5f39bcfc093f815cf30a	633093206	1	practice_z	5	practice_z	27	stimuli_distractor_diamondtriangles.svg	stimuli_target_trianglecircles.svg	9	yes	44	1	543
6.6.1	mac	2022-12-30	13:08:02	13:13:26	322053	62cc5f39bcfc093f815cf30a	633093206	1	practice_z	5	advance_on_keypress_ZEE	28	stimuli_distractor_diamondtriangles.svg	stimuli_target_trianglecircles.svg	9	yes	57	0	273
6.6.1	mac	2022-12-30	13:08:02	13:13:28	324290	62cc5f39bcfc093f815cf30a	633093206	1	practice_z	5	practice_z	29	stimuli_target_squarediamonds.svg	stimuli_distractor_diamondtriangles.svg	2	yes	44	1	300
6.6.1	mac	2022-12-30	13:08:02	13:13:28	324290	62cc5f39bcfc093f815cf30a	633093206	1	practice_z	5	advance_on_keypress_ZEE	30	stimuli_target_squarediamonds.svg	stimuli_distractor_diamondtriangles.svg	2	yes	57	0	310
6.6.1	mac	2022-12-30	13:08:02	13:13:30	326740	62cc5f39bcfc093f815cf30a	633093206	1	practice_z	5	practice_z	31	stimuli_distractor_diamondtriangles.svg	stimuli_distractor_trianglediamonds.svg	14	no	44	0	481
6.6.1	mac	2022-12-30	13:08:02	13:13:30	326740	62cc5f39bcfc093f815cf30a	633093206	1	practice_z	5	advance_on_keypress_ZEE	32	stimuli_distractor_diamondtriangles.svg	stimuli_distractor_trianglediamonds.svg	14	no	57	0	293
6.6.1	mac	2022-12-30	13:08:02	13:13:58	354044	62cc5f39bcfc093f815cf30a	633093206	1	main_z	7	main_z	1	stimuli_distractor_trianglediamonds.svg	stimuli_distractor_diamondtriangles.svg	36	no	44	0	567
6.6.1	mac	2022-12-30	13:08:02	13:13:58	354044	62cc5f39bcfc093f815cf30a	633093206	1	main_z	7	advance_on_keypress_ZEE	2	stimuli_distractor_trianglediamonds.svg	stimuli_distractor_diamondtriangles.svg	36	no	57	0	1119
6.6.1	mac	2022-12-30	13:08:02	13:14:00	356140	62cc5f39bcfc093f815cf30a	633093206	1	main_z	7	main_z	3	stimuli_distractor_diamondtriangles.svg	stimuli_target_diamondsquares.svg	32	yes	44	1	322
6.6.1	mac	2022-12-30	13:08:02	13:14:00	356140	62cc5f39bcfc093f815cf30a	633093206	1	main_z	7	advance_on_keypress_ZEE	4	stimuli_distractor_diamondtriangles.svg	stimuli_target_diamondsquares.svg	32	yes	57	0	914
6.6.1	mac	2022-12-30	13:08:02	13:14:02	358210	62cc5f39bcfc093f815cf30a	633093206	1	main_z	7	main_z	5	stimuli_target_diamondcircles.svg	stimuli_distractor_diamondtriangles.svg	23	yes	44	1	498
6.6.1	mac	2022-12-30	13:08:02	13:14:02	358210	62cc5f39bcfc093f815cf30a	633093206	1	main_z	7	advance_on_keypress_ZEE	6	stimuli_target_diamondcircles.svg	stimuli_distractor_diamondtriangles.svg	23	yes	57	0	823
6.6.1	mac	2022-12-30	13:08:02	13:14:04	360058	62cc5f39bcfc093f815cf30a	633093206	1	main_z	7	main_z	7	stimuli_target_circlediamonds.svg	stimuli_distractor_diamondtriangles.svg	6	yes	44	1	380
6.6.1	mac	2022-12-30	13:08:02	13:14:04	360058	62cc5f39bcfc093f815cf30a	633093206	1	main_z	7	advance_on_keypress_ZEE	8	stimuli_target_circlediamonds.svg	stimuli_distractor_diamondtriangles.svg	6	yes	57	0	623
6.6.1	mac	2022-12-30	13:08:02	13:14:07	363308	62cc5f39bcfc093f815cf30a	633093206	1	main_z	7	main_z	9	stimuli_distractor_diamondtriangles.svg	stimuli_distractor_trianglediamonds.svg	38	no	0	1	2000
6.6.1	mac	2022-12-30	13:08:02	13:14:07	363308	62cc5f39bcfc093f815cf30a	633093206	1	main_z	7	advance_on_keypress_ZEE	10	stimuli_distractor_diamondtriangles.svg	stimuli_distractor_trianglediamonds.svg	38	no	57	0	539
6.6.1	mac	2022-12-30	13:08:02	13:14:09	364897	62cc5f39bcfc093f815cf30a	633093206	1	main_z	7	main_z	11	stimuli_target_trianglecircles.svg	stimuli_distractor_diamondtriangles.svg	21	yes	44	1	386
6.6.1	mac	2022-12-30	13:08:02	13:14:09	364897	62cc5f39bcfc093f815cf30a	633093206	1	main_z	7	advance_on_keypress_ZEE	12	stimuli_target_trianglecircles.svg	stimuli_distractor_diamondtriangles.svg	21	yes	57	0	853
6.6.1	mac	2022-12-30	13:08:02	13:14:11	367123	62cc5f39bcfc093f815cf30a	633093206	1	main_z	7	main_z	13	stimuli_target_trianglesquares.svg	stimuli_distractor_trianglediamonds.svg	18	yes	44	1	745
6.6.1	mac	2022-12-30	13:08:02	13:14:11	367123	62cc5f39bcfc093f815cf30a	633093206	1	main_z	7	advance_on_keypress_ZEE	14	stimuli_target_trianglesquares.svg	stimuli_distractor_trianglediamonds.svg	18	yes	57	0	696
6.6.1	mac	2022-12-30	13:08:02	13:14:13	368890	62cc5f39bcfc093f815cf30a	633093206	1	main_z	7	main_z	15	stimuli_distractor_diamondtriangles.svg	stimuli_target_circlediamonds.svg	14	yes	44	1	403
6.6.1	mac	2022-12-30	13:08:02	13:14:13	368890	62cc5f39bcfc093f815cf30a	633093206	1	main_z	7	advance_on_keypress_ZEE	16	stimuli_distractor_diamondtriangles.svg	stimuli_target_circlediamonds.svg	14	yes	57	0	664
6.6.1	mac	2022-12-30	13:08:02	13:14:14	370692	62cc5f39bcfc093f815cf30a	633093206	1	main_z	7	main_z	17	stimuli_distractor_diamondtriangles.svg	stimuli_target_circletriangles.svg	13	yes	44	1	480
6.6.1	mac	2022-12-30	13:08:02	13:14:14	370692	62cc5f39bcfc093f815cf30a	633093206	1	main_z	7	advance_on_keypress_ZEE	18	stimuli_distractor_diamondtriangles.svg	stimuli_target_circletriangles.svg	13	yes	57	0	773
6.6.1	mac	2022-12-30	13:08:02	13:14:16	372501	62cc5f39bcfc093f815cf30a	633093206	1	main_z	7	main_z	19	stimuli_target_squarediamonds.svg	stimuli_distractor_trianglediamonds.svg	4	yes	44	1	390
6.6.1	mac	2022-12-30	13:08:02	13:14:16	372501	62cc5f39bcfc093f815cf30a	633093206	1	main_z	7	advance_on_keypress_ZEE	20	stimuli_target_squarediamonds.svg	stimuli_distractor_trianglediamonds.svg	4	yes	57	0	904
6.6.1	mac	2022-12-30	13:08:02	13:14:18	374440	62cc5f39bcfc093f815cf30a	633093206	1	main_z	7	main_z	21	stimuli_target_trianglecircles.svg	stimuli_distractor_trianglediamonds.svg	17	yes	44	1	386
6.6.1	mac	2022-12-30	13:08:02	13:14:18	374440	62cc5f39bcfc093f815cf30a	633093206	1	main_z	7	advance_on_keypress_ZEE	22	stimuli_target_trianglecircles.svg	stimuli_distractor_trianglediamonds.svg	17	yes	57	0	698
6.6.1	mac	2022-12-30	13:08:02	13:14:20	376119	62cc5f39bcfc093f815cf30a	633093206	1	main_z	7	main_z	23	stimuli_distractor_diamondtriangles.svg	stimuli_target_trianglesquares.svg	30	yes	44	1	308
6.6.1	mac	2022-12-30	13:08:02	13:14:20	376119	62cc5f39bcfc093f815cf30a	633093206	1	main_z	7	advance_on_keypress_ZEE	24	stimuli_distractor_diamondtriangles.svg	stimuli_target_trianglesquares.svg	30	yes	57	0	769
6.6.1	mac	2022-12-30	13:08:02	13:14:22	377940	62cc5f39bcfc093f815cf30a	633093206	1	main_z	7	main_z	25	stimuli_target_diamondcircles.svg	stimuli_distractor_trianglediamonds.svg	19	yes	44	1	383
6.6.1	mac	2022-12-30	13:08:02	13:14:22	377940	62cc5f39bcfc093f815cf30a	633093206	1	main_z	7	advance_on_keypress_ZEE	26	stimuli_target_diamondcircles.svg	stimuli_distractor_trianglediamonds.svg	19	yes	57	0	620
6.6.1	mac	2022-12-30	13:08:02	13:14:23	379566	62cc5f39bcfc093f815cf30a	633093206	1	main_z	7	main_z	27	stimuli_distractor_trianglediamonds.svg	stimuli_distractor_trianglediamonds.svg	33	no	44	0	354
6.6.1	mac	2022-12-30	13:08:02	13:14:23	379566	62cc5f39bcfc093f815cf30a	633093206	1	main_z	7	advance_on_keypress_ZEE	28	stimuli_distractor_trianglediamonds.svg	stimuli_distractor_trianglediamonds.svg	33	no	57	0	658
6.6.1	mac	2022-12-30	13:08:02	13:14:25	381204	62cc5f39bcfc093f815cf30a	633093206	1	main_z	7	main_z	29	stimuli_distractor_trianglediamonds.svg	stimuli_target_trianglesquares.svg	26	yes	44	1	327
6.6.1	mac	2022-12-30	13:08:02	13:14:25	381204	62cc5f39bcfc093f815cf30a	633093206	1	main_z	7	advance_on_keypress_ZEE	30	stimuli_distractor_trianglediamonds.svg	stimuli_target_trianglesquares.svg	26	yes	57	0	589
6.6.1	mac	2022-12-30	13:08:02	13:14:27	382741	62cc5f39bcfc093f815cf30a	633093206	1	main_z	7	main_z	31	stimuli_distractor_trianglediamonds.svg	stimuli_distractor_trianglediamonds.svg	34	no	44	0	330
6.6.1	mac	2022-12-30	13:08:02	13:14:27	382741	62cc5f39bcfc093f815cf30a	633093206	1	main_z	7	advance_on_keypress_ZEE	32	stimuli_distractor_trianglediamonds.svg	stimuli_distractor_trianglediamonds.svg	34	no	57	0	536
6.6.1	mac	2022-12-30	13:08:02	13:14:28	384502	62cc5f39bcfc093f815cf30a	633093206	1	main_z	7	main_z	33	stimuli_target_squarediamonds.svg	stimuli_distractor_diamondtriangles.svg	8	yes	44	1	558
6.6.1	mac	2022-12-30	13:08:02	13:14:28	384502	62cc5f39bcfc093f815cf30a	633093206	1	main_z	7	advance_on_keypress_ZEE	34	stimuli_target_squarediamonds.svg	stimuli_distractor_diamondtriangles.svg	8	yes	57	0	546
6.6.1	mac	2022-12-30	13:08:02	13:14:30	386117	62cc5f39bcfc093f815cf30a	633093206	1	main_z	7	main_z	35	stimuli_distractor_trianglediamonds.svg	stimuli_target_trianglecircles.svg	25	yes	44	1	406
6.6.1	mac	2022-12-30	13:08:02	13:14:30	386117	62cc5f39bcfc093f815cf30a	633093206	1	main_z	7	advance_on_keypress_ZEE	36	stimuli_distractor_trianglediamonds.svg	stimuli_target_trianglecircles.svg	25	yes	57	0	470
6.6.1	mac	2022-12-30	13:08:02	13:14:31	387640	62cc5f39bcfc093f815cf30a	633093206	1	main_z	7	main_z	37	stimuli_distractor_diamondtriangles.svg	stimuli_target_trianglecircles.svg	29	yes	44	1	389
6.6.1	mac	2022-12-30	13:08:02	13:14:31	387640	62cc5f39bcfc093f815cf30a	633093206	1	main_z	7	advance_on_keypress_ZEE	38	stimuli_distractor_diamondtriangles.svg	stimuli_target_trianglecircles.svg	29	yes	57	0	527
6.6.1	mac	2022-12-30	13:08:02	13:14:33	389243	62cc5f39bcfc093f815cf30a	633093206	1	main_z	7	main_z	39	stimuli_distractor_trianglediamonds.svg	stimuli_target_squaretriangles.svg	11	yes	44	1	399
6.6.1	mac	2022-12-30	13:08:02	13:14:33	389243	62cc5f39bcfc093f815cf30a	633093206	1	main_z	7	advance_on_keypress_ZEE	40	stimuli_distractor_trianglediamonds.svg	stimuli_target_squaretriangles.svg	11	yes	57	0	838
6.6.1	mac	2022-12-30	13:08:02	13:14:35	391051	62cc5f39bcfc093f815cf30a	633093206	1	main_z	7	main_z	41	stimuli_target_diamondsquares.svg	stimuli_distractor_trianglediamonds.svg	20	yes	44	1	306
6.6.1	mac	2022-12-30	13:08:02	13:14:35	391051	62cc5f39bcfc093f815cf30a	633093206	1	main_z	7	advance_on_keypress_ZEE	42	stimuli_target_diamondsquares.svg	stimuli_distractor_trianglediamonds.svg	20	yes	57	0	436
6.6.1	mac	2022-12-30	13:08:02	13:14:36	392467	62cc5f39bcfc093f815cf30a	633093206	1	main_z	7	main_z	43	stimuli_target_circletriangles.svg	stimuli_distractor_trianglediamonds.svg	1	yes	44	1	321
6.6.1	mac	2022-12-30	13:08:02	13:14:36	392467	62cc5f39bcfc093f815cf30a	633093206	1	main_z	7	advance_on_keypress_ZEE	44	stimuli_target_circletriangles.svg	stimuli_distractor_trianglediamonds.svg	1	yes	57	0	611
6.6.1	mac	2022-12-30	13:08:02	13:14:38	394040	62cc5f39bcfc093f815cf30a	633093206	1	main_z	7	main_z	45	stimuli_distractor_diamondtriangles.svg	stimuli_distractor_diamondtriangles.svg	39	no	44	0	314
6.6.1	mac	2022-12-30	13:08:02	13:14:38	394040	62cc5f39bcfc093f815cf30a	633093206	1	main_z	7	advance_on_keypress_ZEE	46	stimuli_distractor_diamondtriangles.svg	stimuli_distractor_diamondtriangles.svg	39	no	57	0	426
6.6.1	mac	2022-12-30	13:08:02	13:14:41	397108	62cc5f39bcfc093f815cf30a	633093206	1	main_z	7	main_z	47	stimuli_distractor_diamondtriangles.svg	stimuli_distractor_diamondtriangles.svg	40	no	0	1	2000
6.6.1	mac	2022-12-30	13:08:02	13:14:41	397108	62cc5f39bcfc093f815cf30a	633093206	1	main_z	7	advance_on_keypress_ZEE	48	stimuli_distractor_diamondtriangles.svg	stimuli_distractor_diamondtriangles.svg	40	no	57	0	432
6.6.1	mac	2022-12-30	13:08:02	13:14:42	398690	62cc5f39bcfc093f815cf30a	633093206	1	main_z	7	main_z	49	stimuli_target_squaretriangles.svg	stimuli_distractor_trianglediamonds.svg	3	yes	44	1	470
6.6.1	mac	2022-12-30	13:08:02	13:14:42	398690	62cc5f39bcfc093f815cf30a	633093206	1	main_z	7	advance_on_keypress_ZEE	50	stimuli_target_squaretriangles.svg	stimuli_distractor_trianglediamonds.svg	3	yes	57	0	376
6.6.1	mac	2022-12-30	13:08:02	13:14:44	400194	62cc5f39bcfc093f815cf30a	633093206	1	main_z	7	main_z	51	stimuli_distractor_diamondtriangles.svg	stimuli_target_squarediamonds.svg	16	yes	44	1	482
6.6.1	mac	2022-12-30	13:08:02	13:14:44	400194	62cc5f39bcfc093f815cf30a	633093206	1	main_z	7	advance_on_keypress_ZEE	52	stimuli_distractor_diamondtriangles.svg	stimuli_target_squarediamonds.svg	16	yes	57	0	461
6.6.1	mac	2022-12-30	13:08:02	13:14:46	401819	62cc5f39bcfc093f815cf30a	633093206	1	main_z	7	main_z	53	stimuli_target_trianglesquares.svg	stimuli_distractor_diamondtriangles.svg	22	yes	44	1	508
6.6.1	mac	2022-12-30	13:08:02	13:14:46	401819	62cc5f39bcfc093f815cf30a	633093206	1	main_z	7	advance_on_keypress_ZEE	54	stimuli_target_trianglesquares.svg	stimuli_distractor_diamondtriangles.svg	22	yes	57	0	401
6.6.1	mac	2022-12-30	13:08:02	13:14:47	403198	62cc5f39bcfc093f815cf30a	633093206	1	main_z	7	main_z	55	stimuli_target_circletriangles.svg	stimuli_distractor_diamondtriangles.svg	5	yes	44	1	319
6.6.1	mac	2022-12-30	13:08:02	13:14:47	403198	62cc5f39bcfc093f815cf30a	633093206	1	main_z	7	advance_on_keypress_ZEE	56	stimuli_target_circletriangles.svg	stimuli_distractor_diamondtriangles.svg	5	yes	57	0	502
6.6.1	mac	2022-12-30	13:08:02	13:14:48	404691	62cc5f39bcfc093f815cf30a	633093206	1	main_z	7	main_z	57	stimuli_distractor_diamondtriangles.svg	stimuli_target_diamondcircles.svg	31	yes	44	1	346
6.6.1	mac	2022-12-30	13:08:02	13:14:48	404691	62cc5f39bcfc093f815cf30a	633093206	1	main_z	7	advance_on_keypress_ZEE	58	stimuli_distractor_diamondtriangles.svg	stimuli_target_diamondcircles.svg	31	yes	57	0	401
6.6.1	mac	2022-12-30	13:08:02	13:14:50	406200	62cc5f39bcfc093f815cf30a	633093206	1	main_z	7	main_z	59	stimuli_distractor_trianglediamonds.svg	stimuli_target_diamondcircles.svg	27	yes	44	1	454
6.6.1	mac	2022-12-30	13:08:02	13:14:50	406200	62cc5f39bcfc093f815cf30a	633093206	1	main_z	7	advance_on_keypress_ZEE	60	stimuli_distractor_trianglediamonds.svg	stimuli_target_diamondcircles.svg	27	yes	57	0	369
6.6.1	mac	2022-12-30	13:08:02	13:14:51	407540	62cc5f39bcfc093f815cf30a	633093206	1	main_z	7	main_z	61	stimuli_distractor_trianglediamonds.svg	stimuli_target_circletriangles.svg	9	yes	44	1	324
6.6.1	mac	2022-12-30	13:08:02	13:14:51	407540	62cc5f39bcfc093f815cf30a	633093206	1	main_z	7	advance_on_keypress_ZEE	62	stimuli_distractor_trianglediamonds.svg	stimuli_target_circletriangles.svg	9	yes	57	0	469
6.6.1	mac	2022-12-30	13:08:02	13:14:53	409149	62cc5f39bcfc093f815cf30a	633093206	1	main_z	7	main_z	63	stimuli_target_squaretriangles.svg	stimuli_distractor_diamondtriangles.svg	7	yes	44	1	470
6.6.1	mac	2022-12-30	13:08:02	13:14:53	409149	62cc5f39bcfc093f815cf30a	633093206	1	main_z	7	advance_on_keypress_ZEE	64	stimuli_target_squaretriangles.svg	stimuli_distractor_diamondtriangles.svg	7	yes	57	0	454
6.6.1	mac	2022-12-30	13:08:02	13:14:54	410558	62cc5f39bcfc093f815cf30a	633093206	1	main_z	7	main_z	65	stimuli_target_circlediamonds.svg	stimuli_distractor_trianglediamonds.svg	2	yes	44	1	313
6.6.1	mac	2022-12-30	13:08:02	13:14:54	410558	62cc5f39bcfc093f815cf30a	633093206	1	main_z	7	advance_on_keypress_ZEE	66	stimuli_target_circlediamonds.svg	stimuli_distractor_trianglediamonds.svg	2	yes	57	0	325
6.6.1	mac	2022-12-30	13:08:02	13:14:57	413542	62cc5f39bcfc093f815cf30a	633093206	1	main_z	7	main_z	67	stimuli_distractor_diamondtriangles.svg	stimuli_target_squaretriangles.svg	15	yes	0	0	2000
6.6.1	mac	2022-12-30	13:08:02	13:14:57	413542	62cc5f39bcfc093f815cf30a	633093206	1	main_z	7	advance_on_keypress_ZEE	68	stimuli_distractor_diamondtriangles.svg	stimuli_target_squaretriangles.svg	15	yes	57	0	449
6.6.1	mac	2022-12-30	13:08:02	13:14:59	415004	62cc5f39bcfc093f815cf30a	633093206	1	main_z	7	main_z	69	stimuli_distractor_diamondtriangles.svg	stimuli_distractor_trianglediamonds.svg	37	no	44	0	326
6.6.1	mac	2022-12-30	13:08:02	13:14:59	415004	62cc5f39bcfc093f815cf30a	633093206	1	main_z	7	advance_on_keypress_ZEE	70	stimuli_distractor_diamondtriangles.svg	stimuli_distractor_trianglediamonds.svg	37	no	57	0	394
6.6.1	mac	2022-12-30	13:08:02	13:15:00	416468	62cc5f39bcfc093f815cf30a	633093206	1	main_z	7	main_z	71	stimuli_distractor_trianglediamonds.svg	stimuli_target_circlediamonds.svg	10	yes	44	1	423
6.6.1	mac	2022-12-30	13:08:02	13:15:00	416468	62cc5f39bcfc093f815cf30a	633093206	1	main_z	7	advance_on_keypress_ZEE	72	stimuli_distractor_trianglediamonds.svg	stimuli_target_circlediamonds.svg	10	yes	57	0	812
6.6.1	mac	2022-12-30	13:08:02	13:15:04	419942	62cc5f39bcfc093f815cf30a	633093206	1	main_z	7	main_z	73	stimuli_distractor_trianglediamonds.svg	stimuli_distractor_diamondtriangles.svg	35	no	0	1	2000
6.6.1	mac	2022-12-30	13:08:02	13:15:04	419942	62cc5f39bcfc093f815cf30a	633093206	1	main_z	7	advance_on_keypress_ZEE	74	stimuli_distractor_trianglediamonds.svg	stimuli_distractor_diamondtriangles.svg	35	no	57	0	324
6.6.1	mac	2022-12-30	13:08:02	13:15:05	421542	62cc5f39bcfc093f815cf30a	633093206	1	main_z	7	main_z	75	stimuli_target_diamondsquares.svg	stimuli_distractor_diamondtriangles.svg	24	yes	44	1	632
6.6.1	mac	2022-12-30	13:08:02	13:15:05	421542	62cc5f39bcfc093f815cf30a	633093206	1	main_z	7	advance_on_keypress_ZEE	76	stimuli_target_diamondsquares.svg	stimuli_distractor_diamondtriangles.svg	24	yes	57	0	356
6.6.1	mac	2022-12-30	13:08:02	13:15:07	422964	62cc5f39bcfc093f815cf30a	633093206	1	main_z	7	main_z	77	stimuli_distractor_trianglediamonds.svg	stimuli_target_diamondsquares.svg	28	yes	44	1	385
6.6.1	mac	2022-12-30	13:08:02	13:15:07	422964	62cc5f39bcfc093f815cf30a	633093206	1	main_z	7	advance_on_keypress_ZEE	78	stimuli_distractor_trianglediamonds.svg	stimuli_target_diamondsquares.svg	28	yes	57	0	339
6.6.1	mac	2022-12-30	13:08:02	13:15:08	424697	62cc5f39bcfc093f815cf30a	633093206	1	main_z	7	main_z	79	stimuli_distractor_trianglediamonds.svg	stimuli_target_squarediamonds.svg	12	yes	44	1	717
6.6.1	mac	2022-12-30	13:08:02	13:15:08	424697	62cc5f39bcfc093f815cf30a	633093206	1	main_z	7	advance_on_keypress_ZEE	80	stimuli_distractor_trianglediamonds.svg	stimuli_target_squarediamonds.svg	12	yes	57	0	303
6.6.1	mac	2022-12-30	13:08:02	13:15:11	427642	62cc5f39bcfc093f815cf30a	633093206	1	main_z	7	main_z	81	stimuli_distractor_trianglediamonds.svg	stimuli_distractor_diamondtriangles.svg	35	no	0	1	2000
6.6.1	mac	2022-12-30	13:08:02	13:15:11	427642	62cc5f39bcfc093f815cf30a	633093206	1	main_z	7	advance_on_keypress_ZEE	82	stimuli_distractor_trianglediamonds.svg	stimuli_distractor_diamondtriangles.svg	35	no	57	0	332
6.6.1	mac	2022-12-30	13:08:02	13:15:13	429263	62cc5f39bcfc093f815cf30a	633093206	1	main_z	7	main_z	83	stimuli_target_circletriangles.svg	stimuli_distractor_diamondtriangles.svg	5	yes	44	1	617
6.6.1	mac	2022-12-30	13:08:02	13:15:13	429263	62cc5f39bcfc093f815cf30a	633093206	1	main_z	7	advance_on_keypress_ZEE	84	stimuli_target_circletriangles.svg	stimuli_distractor_diamondtriangles.svg	5	yes	57	0	575
6.6.1	mac	2022-12-30	13:08:02	13:15:15	431009	62cc5f39bcfc093f815cf30a	633093206	1	main_z	7	main_z	85	stimuli_target_squarediamonds.svg	stimuli_distractor_trianglediamonds.svg	4	yes	44	1	532
6.6.1	mac	2022-12-30	13:08:02	13:15:15	431009	62cc5f39bcfc093f815cf30a	633093206	1	main_z	7	advance_on_keypress_ZEE	86	stimuli_target_squarediamonds.svg	stimuli_distractor_trianglediamonds.svg	4	yes	57	0	675
6.6.1	mac	2022-12-30	13:08:02	13:15:17	432757	62cc5f39bcfc093f815cf30a	633093206	1	main_z	7	main_z	87	stimuli_target_circlediamonds.svg	stimuli_distractor_diamondtriangles.svg	6	yes	44	1	413
6.6.1	mac	2022-12-30	13:08:02	13:15:17	432757	62cc5f39bcfc093f815cf30a	633093206	1	main_z	7	advance_on_keypress_ZEE	88	stimuli_target_circlediamonds.svg	stimuli_distractor_diamondtriangles.svg	6	yes	57	0	569
6.6.1	mac	2022-12-30	13:08:02	13:15:20	435976	62cc5f39bcfc093f815cf30a	633093206	1	main_z	7	main_z	89	stimuli_distractor_trianglediamonds.svg	stimuli_target_trianglecircles.svg	25	yes	0	0	2000
6.6.1	mac	2022-12-30	13:08:02	13:15:20	435976	62cc5f39bcfc093f815cf30a	633093206	1	main_z	7	advance_on_keypress_ZEE	90	stimuli_distractor_trianglediamonds.svg	stimuli_target_trianglecircles.svg	25	yes	57	0	573
6.6.1	mac	2022-12-30	13:08:02	13:15:22	437790	62cc5f39bcfc093f815cf30a	633093206	1	main_z	7	main_z	91	stimuli_target_squaretriangles.svg	stimuli_distractor_diamondtriangles.svg	7	yes	44	1	566
6.6.1	mac	2022-12-30	13:08:02	13:15:22	437790	62cc5f39bcfc093f815cf30a	633093206	1	main_z	7	advance_on_keypress_ZEE	92	stimuli_target_squaretriangles.svg	stimuli_distractor_diamondtriangles.svg	7	yes	57	0	553
6.6.1	mac	2022-12-30	13:08:02	13:15:23	439549	62cc5f39bcfc093f815cf30a	633093206	1	main_z	7	main_z	93	stimuli_distractor_trianglediamonds.svg	stimuli_target_trianglesquares.svg	26	yes	44	1	571
6.6.1	mac	2022-12-30	13:08:02	13:15:23	439549	62cc5f39bcfc093f815cf30a	633093206	1	main_z	7	advance_on_keypress_ZEE	94	stimuli_distractor_trianglediamonds.svg	stimuli_target_trianglesquares.svg	26	yes	57	0	443
6.6.1	mac	2022-12-30	13:08:02	13:15:25	441190	62cc5f39bcfc093f815cf30a	633093206	1	main_z	7	main_z	95	stimuli_target_squarediamonds.svg	stimuli_distractor_diamondtriangles.svg	8	yes	44	1	539
6.6.1	mac	2022-12-30	13:08:02	13:15:25	441190	62cc5f39bcfc093f815cf30a	633093206	1	main_z	7	advance_on_keypress_ZEE	96	stimuli_target_squarediamonds.svg	stimuli_distractor_diamondtriangles.svg	8	yes	57	0	373
6.6.1	mac	2022-12-30	13:08:02	13:15:28	444209	62cc5f39bcfc093f815cf30a	633093206	1	main_z	7	main_z	97	stimuli_distractor_diamondtriangles.svg	stimuli_distractor_diamondtriangles.svg	39	no	0	1	2000
6.6.1	mac	2022-12-30	13:08:02	13:15:28	444209	62cc5f39bcfc093f815cf30a	633093206	1	main_z	7	advance_on_keypress_ZEE	98	stimuli_distractor_diamondtriangles.svg	stimuli_distractor_diamondtriangles.svg	39	no	57	0	349
6.6.1	mac	2022-12-30	13:08:02	13:15:30	445819	62cc5f39bcfc093f815cf30a	633093206	1	main_z	7	main_z	99	stimuli_target_diamondsquares.svg	stimuli_distractor_trianglediamonds.svg	20	yes	44	1	607
6.6.1	mac	2022-12-30	13:08:02	13:15:30	445819	62cc5f39bcfc093f815cf30a	633093206	1	main_z	7	advance_on_keypress_ZEE	100	stimuli_target_diamondsquares.svg	stimuli_distractor_trianglediamonds.svg	20	yes	57	0	477
6.6.1	mac	2022-12-30	13:08:02	13:15:31	447390	62cc5f39bcfc093f815cf30a	633093206	1	main_z	7	main_z	101	stimuli_target_diamondcircles.svg	stimuli_distractor_trianglediamonds.svg	19	yes	44	1	434
6.6.1	mac	2022-12-30	13:08:02	13:15:31	447390	62cc5f39bcfc093f815cf30a	633093206	1	main_z	7	advance_on_keypress_ZEE	102	stimuli_target_diamondcircles.svg	stimuli_distractor_trianglediamonds.svg	19	yes	57	0	543
6.6.1	mac	2022-12-30	13:08:02	13:15:34	450576	62cc5f39bcfc093f815cf30a	633093206	1	main_z	7	main_z	103	stimuli_distractor_diamondtriangles.svg	stimuli_target_squaretriangles.svg	15	yes	0	0	2000
6.6.1	mac	2022-12-30	13:08:02	13:15:34	450576	62cc5f39bcfc093f815cf30a	633093206	1	main_z	7	advance_on_keypress_ZEE	104	stimuli_distractor_diamondtriangles.svg	stimuli_target_squaretriangles.svg	15	yes	57	0	511
6.6.1	mac	2022-12-30	13:08:02	13:15:36	452155	62cc5f39bcfc093f815cf30a	633093206	1	main_z	7	main_z	105	stimuli_distractor_diamondtriangles.svg	stimuli_distractor_diamondtriangles.svg	40	no	44	0	377
6.6.1	mac	2022-12-30	13:08:02	13:15:36	452155	62cc5f39bcfc093f815cf30a	633093206	1	main_z	7	advance_on_keypress_ZEE	106	stimuli_distractor_diamondtriangles.svg	stimuli_distractor_diamondtriangles.svg	40	no	57	0	432
6.6.1	mac	2022-12-30	13:08:02	13:15:39	455243	62cc5f39bcfc093f815cf30a	633093206	1	main_z	7	main_z	107	stimuli_distractor_diamondtriangles.svg	stimuli_distractor_trianglediamonds.svg	37	no	0	1	2000
6.6.1	mac	2022-12-30	13:08:02	13:15:39	455243	62cc5f39bcfc093f815cf30a	633093206	1	main_z	7	advance_on_keypress_ZEE	108	stimuli_distractor_diamondtriangles.svg	stimuli_distractor_trianglediamonds.svg	37	no	57	0	308
6.6.1	mac	2022-12-30	13:08:02	13:15:40	456596	62cc5f39bcfc093f815cf30a	633093206	1	main_z	7	main_z	109	stimuli_distractor_diamondtriangles.svg	stimuli_target_squarediamonds.svg	16	yes	44	1	384
6.6.1	mac	2022-12-30	13:08:02	13:15:40	456596	62cc5f39bcfc093f815cf30a	633093206	1	main_z	7	advance_on_keypress_ZEE	110	stimuli_distractor_diamondtriangles.svg	stimuli_target_squarediamonds.svg	16	yes	57	0	416
6.6.1	mac	2022-12-30	13:08:02	13:15:42	458140	62cc5f39bcfc093f815cf30a	633093206	1	main_z	7	main_z	111	stimuli_distractor_trianglediamonds.svg	stimuli_target_circlediamonds.svg	10	yes	44	1	494
6.6.1	mac	2022-12-30	13:08:02	13:15:42	458140	62cc5f39bcfc093f815cf30a	633093206	1	main_z	7	advance_on_keypress_ZEE	112	stimuli_distractor_trianglediamonds.svg	stimuli_target_circlediamonds.svg	10	yes	57	0	606
6.6.1	mac	2022-12-30	13:08:02	13:15:44	459766	62cc5f39bcfc093f815cf30a	633093206	1	main_z	7	main_z	113	stimuli_target_diamondcircles.svg	stimuli_distractor_diamondtriangles.svg	23	yes	44	1	387
6.6.1	mac	2022-12-30	13:08:02	13:15:44	459766	62cc5f39bcfc093f815cf30a	633093206	1	main_z	7	advance_on_keypress_ZEE	114	stimuli_target_diamondcircles.svg	stimuli_distractor_diamondtriangles.svg	23	yes	57	0	449
6.6.1	mac	2022-12-30	13:08:02	13:15:45	461256	62cc5f39bcfc093f815cf30a	633093206	1	main_z	7	main_z	115	stimuli_distractor_trianglediamonds.svg	stimuli_target_diamondcircles.svg	27	yes	44	1	377
6.6.1	mac	2022-12-30	13:08:02	13:15:45	461256	62cc5f39bcfc093f815cf30a	633093206	1	main_z	7	advance_on_keypress_ZEE	116	stimuli_distractor_trianglediamonds.svg	stimuli_target_diamondcircles.svg	27	yes	57	0	274
6.6.1	mac	2022-12-30	13:08:02	13:15:46	462541	62cc5f39bcfc093f815cf30a	633093206	1	main_z	7	main_z	117	stimuli_distractor_trianglediamonds.svg	stimuli_target_diamondsquares.svg	28	yes	44	1	362
6.6.1	mac	2022-12-30	13:08:02	13:15:46	462541	62cc5f39bcfc093f815cf30a	633093206	1	main_z	7	advance_on_keypress_ZEE	118	stimuli_distractor_trianglediamonds.svg	stimuli_target_diamondsquares.svg	28	yes	57	0	334
6.6.1	mac	2022-12-30	13:08:02	13:15:48	463904	62cc5f39bcfc093f815cf30a	633093206	1	main_z	7	main_z	119	stimuli_target_circlediamonds.svg	stimuli_distractor_trianglediamonds.svg	2	yes	44	1	359
6.6.1	mac	2022-12-30	13:08:02	13:15:48	463904	62cc5f39bcfc093f815cf30a	633093206	1	main_z	7	advance_on_keypress_ZEE	120	stimuli_target_circlediamonds.svg	stimuli_distractor_trianglediamonds.svg	2	yes	57	0	567
6.6.1	mac	2022-12-30	13:08:02	13:15:49	465418	62cc5f39bcfc093f815cf30a	633093206	1	main_z	7	main_z	121	stimuli_distractor_diamondtriangles.svg	stimuli_target_circletriangles.svg	13	yes	44	1	306
6.6.1	mac	2022-12-30	13:08:02	13:15:49	465418	62cc5f39bcfc093f815cf30a	633093206	1	main_z	7	advance_on_keypress_ZEE	122	stimuli_distractor_diamondtriangles.svg	stimuli_target_circletriangles.svg	13	yes	57	0	616
6.6.1	mac	2022-12-30	13:08:02	13:15:51	467040	62cc5f39bcfc093f815cf30a	633093206	1	main_z	7	main_z	123	stimuli_distractor_diamondtriangles.svg	stimuli_target_trianglesquares.svg	30	yes	44	1	346
6.6.1	mac	2022-12-30	13:08:02	13:15:51	467040	62cc5f39bcfc093f815cf30a	633093206	1	main_z	7	advance_on_keypress_ZEE	124	stimuli_distractor_diamondtriangles.svg	stimuli_target_trianglesquares.svg	30	yes	57	0	377
6.6.1	mac	2022-12-30	13:08:02	13:15:52	468392	62cc5f39bcfc093f815cf30a	633093206	1	main_z	7	main_z	125	stimuli_target_trianglecircles.svg	stimuli_distractor_trianglediamonds.svg	17	yes	44	1	346
6.6.1	mac	2022-12-30	13:08:02	13:15:52	468392	62cc5f39bcfc093f815cf30a	633093206	1	main_z	7	advance_on_keypress_ZEE	126	stimuli_target_trianglecircles.svg	stimuli_distractor_trianglediamonds.svg	17	yes	57	0	650
6.6.1	mac	2022-12-30	13:08:02	13:15:54	470003	62cc5f39bcfc093f815cf30a	633093206	1	main_z	7	main_z	127	stimuli_target_diamondsquares.svg	stimuli_distractor_diamondtriangles.svg	24	yes	44	1	325
6.6.1	mac	2022-12-30	13:08:02	13:15:54	470003	62cc5f39bcfc093f815cf30a	633093206	1	main_z	7	advance_on_keypress_ZEE	128	stimuli_target_diamondsquares.svg	stimuli_distractor_diamondtriangles.svg	24	yes	57	0	414
6.6.1	mac	2022-12-30	13:08:02	13:15:55	471390	62cc5f39bcfc093f815cf30a	633093206	1	main_z	7	main_z	129	stimuli_distractor_trianglediamonds.svg	stimuli_target_squaretriangles.svg	11	yes	44	1	345
6.6.1	mac	2022-12-30	13:08:02	13:15:55	471390	62cc5f39bcfc093f815cf30a	633093206	1	main_z	7	advance_on_keypress_ZEE	130	stimuli_distractor_trianglediamonds.svg	stimuli_target_squaretriangles.svg	11	yes	57	0	773
6.6.1	mac	2022-12-30	13:08:02	13:15:57	473190	62cc5f39bcfc093f815cf30a	633093206	1	main_z	7	main_z	131	stimuli_distractor_trianglediamonds.svg	stimuli_distractor_trianglediamonds.svg	34	no	44	0	364
6.6.1	mac	2022-12-30	13:08:02	13:15:57	473190	62cc5f39bcfc093f815cf30a	633093206	1	main_z	7	advance_on_keypress_ZEE	132	stimuli_distractor_trianglediamonds.svg	stimuli_distractor_trianglediamonds.svg	34	no	57	0	410
6.6.1	mac	2022-12-30	13:08:02	13:15:59	475208	62cc5f39bcfc093f815cf30a	633093206	1	main_z	7	main_z	133	stimuli_distractor_trianglediamonds.svg	stimuli_target_circletriangles.svg	9	yes	44	1	962
6.6.1	mac	2022-12-30	13:08:02	13:15:59	475208	62cc5f39bcfc093f815cf30a	633093206	1	main_z	7	advance_on_keypress_ZEE	134	stimuli_distractor_trianglediamonds.svg	stimuli_target_circletriangles.svg	9	yes	57	0	530
6.6.1	mac	2022-12-30	13:08:02	13:16:01	476741	62cc5f39bcfc093f815cf30a	633093206	1	main_z	7	main_z	135	stimuli_distractor_diamondtriangles.svg	stimuli_target_circlediamonds.svg	14	yes	44	1	329
6.6.1	mac	2022-12-30	13:08:02	13:16:01	476741	62cc5f39bcfc093f815cf30a	633093206	1	main_z	7	advance_on_keypress_ZEE	136	stimuli_distractor_diamondtriangles.svg	stimuli_target_circlediamonds.svg	14	yes	57	0	510
6.6.1	mac	2022-12-30	13:08:02	13:16:04	479909	62cc5f39bcfc093f815cf30a	633093206	1	main_z	7	main_z	137	stimuli_distractor_diamondtriangles.svg	stimuli_distractor_trianglediamonds.svg	38	no	0	1	2000
6.6.1	mac	2022-12-30	13:08:02	13:16:04	479909	62cc5f39bcfc093f815cf30a	633093206	1	main_z	7	advance_on_keypress_ZEE	138	stimuli_distractor_diamondtriangles.svg	stimuli_distractor_trianglediamonds.svg	38	no	57	0	332
6.6.1	mac	2022-12-30	13:08:02	13:16:05	481245	62cc5f39bcfc093f815cf30a	633093206	1	main_z	7	main_z	139	stimuli_target_trianglecircles.svg	stimuli_distractor_diamondtriangles.svg	21	yes	44	1	332
6.6.1	mac	2022-12-30	13:08:02	13:16:05	481245	62cc5f39bcfc093f815cf30a	633093206	1	main_z	7	advance_on_keypress_ZEE	140	stimuli_target_trianglecircles.svg	stimuli_distractor_diamondtriangles.svg	21	yes	57	0	587
6.6.1	mac	2022-12-30	13:08:02	13:16:07	482790	62cc5f39bcfc093f815cf30a	633093206	1	main_z	7	main_z	141	stimuli_distractor_trianglediamonds.svg	stimuli_target_squarediamonds.svg	12	yes	44	1	304
6.6.1	mac	2022-12-30	13:08:02	13:16:07	482790	62cc5f39bcfc093f815cf30a	633093206	1	main_z	7	advance_on_keypress_ZEE	142	stimuli_distractor_trianglediamonds.svg	stimuli_target_squarediamonds.svg	12	yes	57	0	889
6.6.1	mac	2022-12-30	13:08:02	13:16:08	484620	62cc5f39bcfc093f815cf30a	633093206	1	main_z	7	main_z	143	stimuli_distractor_diamondtriangles.svg	stimuli_target_diamondsquares.svg	32	yes	44	1	308
6.6.1	mac	2022-12-30	13:08:02	13:16:08	484620	62cc5f39bcfc093f815cf30a	633093206	1	main_z	7	advance_on_keypress_ZEE	144	stimuli_distractor_diamondtriangles.svg	stimuli_target_diamondsquares.svg	32	yes	57	0	914
6.6.1	mac	2022-12-30	13:08:02	13:16:10	486490	62cc5f39bcfc093f815cf30a	633093206	1	main_z	7	main_z	145	stimuli_distractor_trianglediamonds.svg	stimuli_distractor_diamondtriangles.svg	36	no	44	0	298
6.6.1	mac	2022-12-30	13:08:02	13:16:10	486490	62cc5f39bcfc093f815cf30a	633093206	1	main_z	7	advance_on_keypress_ZEE	146	stimuli_distractor_trianglediamonds.svg	stimuli_distractor_diamondtriangles.svg	36	no	57	0	582
6.6.1	mac	2022-12-30	13:08:02	13:16:12	487990	62cc5f39bcfc093f815cf30a	633093206	1	main_z	7	main_z	147	stimuli_distractor_trianglediamonds.svg	stimuli_distractor_trianglediamonds.svg	33	no	44	0	278
6.6.1	mac	2022-12-30	13:08:02	13:16:12	487990	62cc5f39bcfc093f815cf30a	633093206	1	main_z	7	advance_on_keypress_ZEE	148	stimuli_distractor_trianglediamonds.svg	stimuli_distractor_trianglediamonds.svg	33	no	57	0	744
6.6.1	mac	2022-12-30	13:08:02	13:16:13	489699	62cc5f39bcfc093f815cf30a	633093206	1	main_z	7	main_z	149	stimuli_target_trianglesquares.svg	stimuli_distractor_trianglediamonds.svg	18	yes	44	1	321
6.6.1	mac	2022-12-30	13:08:02	13:16:13	489699	62cc5f39bcfc093f815cf30a	633093206	1	main_z	7	advance_on_keypress_ZEE	150	stimuli_target_trianglesquares.svg	stimuli_distractor_trianglediamonds.svg	18	yes	57	0	658
6.6.1	mac	2022-12-30	13:08:02	13:16:15	491311	62cc5f39bcfc093f815cf30a	633093206	1	main_z	7	main_z	151	stimuli_target_squaretriangles.svg	stimuli_distractor_trianglediamonds.svg	3	yes	44	1	332
6.6.1	mac	2022-12-30	13:08:02	13:16:15	491311	62cc5f39bcfc093f815cf30a	633093206	1	main_z	7	advance_on_keypress_ZEE	152	stimuli_target_squaretriangles.svg	stimuli_distractor_trianglediamonds.svg	3	yes	57	0	1107
6.6.1	mac	2022-12-30	13:08:02	13:16:17	493440	62cc5f39bcfc093f815cf30a	633093206	1	main_z	7	main_z	153	stimuli_distractor_diamondtriangles.svg	stimuli_target_trianglecircles.svg	29	yes	44	1	360
6.6.1	mac	2022-12-30	13:08:02	13:16:17	493440	62cc5f39bcfc093f815cf30a	633093206	1	main_z	7	advance_on_keypress_ZEE	154	stimuli_distractor_diamondtriangles.svg	stimuli_target_trianglecircles.svg	29	yes	57	0	810
6.6.1	mac	2022-12-30	13:08:02	13:16:19	495290	62cc5f39bcfc093f815cf30a	633093206	1	main_z	7	main_z	155	stimuli_target_trianglesquares.svg	stimuli_distractor_diamondtriangles.svg	22	yes	44	1	408
6.6.1	mac	2022-12-30	13:08:02	13:16:19	495290	62cc5f39bcfc093f815cf30a	633093206	1	main_z	7	advance_on_keypress_ZEE	156	stimuli_target_trianglesquares.svg	stimuli_distractor_diamondtriangles.svg	22	yes	57	0	717
6.6.1	mac	2022-12-30	13:08:02	13:16:21	496967	62cc5f39bcfc093f815cf30a	633093206	1	main_z	7	main_z	157	stimuli_target_circletriangles.svg	stimuli_distractor_trianglediamonds.svg	1	yes	44	1	322
6.6.1	mac	2022-12-30	13:08:02	13:16:21	496967	62cc5f39bcfc093f815cf30a	633093206	1	main_z	7	advance_on_keypress_ZEE	158	stimuli_target_circletriangles.svg	stimuli_distractor_trianglediamonds.svg	1	yes	57	0	851
6.6.1	mac	2022-12-30	13:08:02	13:16:22	498719	62cc5f39bcfc093f815cf30a	633093206	1	main_z	7	main_z	159	stimuli_distractor_diamondtriangles.svg	stimuli_target_diamondcircles.svg	31	yes	44	1	274
6.6.1	mac	2022-12-30	13:08:02	13:16:22	498719	62cc5f39bcfc093f815cf30a	633093206	1	main_z	7	advance_on_keypress_ZEE	160	stimuli_distractor_diamondtriangles.svg	stimuli_target_diamondcircles.svg	31	yes	57	0	1077
6.6.1	mac	2022-12-30	13:08:02	13:17:24	560376	62cc5f39bcfc093f815cf30a	633093206	1	practice_slash	9	practice_slash	1	stimuli_distractor_diamondtriangles.svg	stimuli_distractor_diamondtriangles.svg	13	no	0	1	2000
6.6.1	mac	2022-12-30	13:08:02	13:17:24	560376	62cc5f39bcfc093f815cf30a	633093206	1	practice_slash	9	advance_on_keypress_SLASH	2	stimuli_distractor_diamondtriangles.svg	stimuli_distractor_diamondtriangles.svg	13	no	57	0	389
6.6.1	mac	2022-12-30	13:08:02	13:17:27	562940	62cc5f39bcfc093f815cf30a	633093206	1	practice_slash	9	practice_slash	3	stimuli_distractor_trianglediamonds.svg	stimuli_target_squarediamonds.svg	11	yes	53	1	526
6.6.1	mac	2022-12-30	13:08:02	13:17:27	562940	62cc5f39bcfc093f815cf30a	633093206	1	practice_slash	9	advance_on_keypress_SLASH	4	stimuli_distractor_trianglediamonds.svg	stimuli_target_squarediamonds.svg	11	yes	57	0	581
6.6.1	mac	2022-12-30	13:08:02	13:17:29	565591	62cc5f39bcfc093f815cf30a	633093206	1	practice_slash	9	practice_slash	5	stimuli_distractor_trianglediamonds.svg	stimuli_target_diamondcircles.svg	12	yes	53	1	445
6.6.1	mac	2022-12-30	13:08:02	13:17:29	565591	62cc5f39bcfc093f815cf30a	633093206	1	practice_slash	9	advance_on_keypress_SLASH	6	stimuli_distractor_trianglediamonds.svg	stimuli_target_diamondcircles.svg	12	yes	57	0	432
6.6.1	mac	2022-12-30	13:08:02	13:17:33	569677	62cc5f39bcfc093f815cf30a	633093206	1	practice_slash	9	practice_slash	7	stimuli_distractor_trianglediamonds.svg	stimuli_distractor_trianglediamonds.svg	15	no	0	1	2000
6.6.1	mac	2022-12-30	13:08:02	13:17:33	569677	62cc5f39bcfc093f815cf30a	633093206	1	practice_slash	9	advance_on_keypress_SLASH	8	stimuli_distractor_trianglediamonds.svg	stimuli_distractor_trianglediamonds.svg	15	no	57	0	105
6.6.1	mac	2022-12-30	13:08:02	13:17:36	571856	62cc5f39bcfc093f815cf30a	633093206	1	practice_slash	9	practice_slash	9	stimuli_distractor_diamondtriangles.svg	stimuli_target_diamondcircles.svg	8	yes	53	1	410
6.6.1	mac	2022-12-30	13:08:02	13:17:36	571856	62cc5f39bcfc093f815cf30a	633093206	1	practice_slash	9	advance_on_keypress_SLASH	10	stimuli_distractor_diamondtriangles.svg	stimuli_target_diamondcircles.svg	8	yes	57	0	926
6.6.1	mac	2022-12-30	13:08:02	13:17:40	575890	62cc5f39bcfc093f815cf30a	633093206	1	practice_slash	9	practice_slash	11	stimuli_target_diamondsquares.svg	stimuli_distractor_trianglediamonds.svg	6	yes	53	1	1476
6.6.1	mac	2022-12-30	13:08:02	13:17:40	575890	62cc5f39bcfc093f815cf30a	633093206	1	practice_slash	9	advance_on_keypress_SLASH	12	stimuli_target_diamondsquares.svg	stimuli_distractor_trianglediamonds.svg	6	yes	57	0	658
6.6.1	mac	2022-12-30	13:08:02	13:17:42	578659	62cc5f39bcfc093f815cf30a	633093206	1	practice_slash	9	practice_slash	13	stimuli_distractor_trianglediamonds.svg	stimuli_distractor_diamondtriangles.svg	16	no	53	0	479
6.6.1	mac	2022-12-30	13:08:02	13:17:42	578659	62cc5f39bcfc093f815cf30a	633093206	1	practice_slash	9	advance_on_keypress_SLASH	14	stimuli_distractor_trianglediamonds.svg	stimuli_distractor_diamondtriangles.svg	16	no	57	0	413
6.6.1	mac	2022-12-30	13:08:02	13:17:45	581240	62cc5f39bcfc093f815cf30a	633093206	1	practice_slash	9	practice_slash	15	stimuli_target_circlediamonds.svg	stimuli_distractor_diamondtriangles.svg	1	yes	53	1	523
6.6.1	mac	2022-12-30	13:08:02	13:17:45	581240	62cc5f39bcfc093f815cf30a	633093206	1	practice_slash	9	advance_on_keypress_SLASH	16	stimuli_target_circlediamonds.svg	stimuli_distractor_diamondtriangles.svg	1	yes	57	0	476
6.6.1	mac	2022-12-30	13:08:02	13:17:48	583940	62cc5f39bcfc093f815cf30a	633093206	1	practice_slash	9	practice_slash	17	stimuli_distractor_diamondtriangles.svg	stimuli_distractor_trianglediamonds.svg	14	no	53	0	586
6.6.1	mac	2022-12-30	13:08:02	13:17:48	583940	62cc5f39bcfc093f815cf30a	633093206	1	practice_slash	9	advance_on_keypress_SLASH	18	stimuli_distractor_diamondtriangles.svg	stimuli_distractor_trianglediamonds.svg	14	no	57	0	321
6.6.1	mac	2022-12-30	13:08:02	13:17:50	586453	62cc5f39bcfc093f815cf30a	633093206	1	practice_slash	9	practice_slash	19	stimuli_distractor_diamondtriangles.svg	stimuli_target_circletriangles.svg	7	yes	53	1	575
6.6.1	mac	2022-12-30	13:08:02	13:17:50	586453	62cc5f39bcfc093f815cf30a	633093206	1	practice_slash	9	advance_on_keypress_SLASH	20	stimuli_distractor_diamondtriangles.svg	stimuli_target_circletriangles.svg	7	yes	57	0	338
6.6.1	mac	2022-12-30	13:08:02	13:17:54	590444	62cc5f39bcfc093f815cf30a	633093206	1	practice_slash	9	practice_slash	21	stimuli_target_diamondsquares.svg	stimuli_distractor_diamondtriangles.svg	3	yes	0	0	2000
6.6.1	mac	2022-12-30	13:08:02	13:17:54	590444	62cc5f39bcfc093f815cf30a	633093206	1	practice_slash	9	advance_on_keypress_SLASH	22	stimuli_target_diamondsquares.svg	stimuli_distractor_diamondtriangles.svg	3	yes	57	0	477
6.6.1	mac	2022-12-30	13:08:02	13:17:57	593061	62cc5f39bcfc093f815cf30a	633093206	1	practice_slash	9	practice_slash	23	stimuli_target_circlediamonds.svg	stimuli_distractor_trianglediamonds.svg	4	yes	53	1	482
6.6.1	mac	2022-12-30	13:08:02	13:17:57	593061	62cc5f39bcfc093f815cf30a	633093206	1	practice_slash	9	advance_on_keypress_SLASH	24	stimuli_target_circlediamonds.svg	stimuli_distractor_trianglediamonds.svg	4	yes	57	0	474
6.6.1	mac	2022-12-30	13:08:02	13:17:59	595589	62cc5f39bcfc093f815cf30a	633093206	1	practice_slash	9	practice_slash	25	stimuli_target_squarediamonds.svg	stimuli_distractor_trianglediamonds.svg	5	yes	53	1	408
6.6.1	mac	2022-12-30	13:08:02	13:17:59	595589	62cc5f39bcfc093f815cf30a	633093206	1	practice_slash	9	advance_on_keypress_SLASH	26	stimuli_target_squarediamonds.svg	stimuli_distractor_trianglediamonds.svg	5	yes	57	0	293
6.6.1	mac	2022-12-30	13:08:02	13:18:02	597963	62cc5f39bcfc093f815cf30a	633093206	1	practice_slash	9	practice_slash	27	stimuli_distractor_trianglediamonds.svg	stimuli_target_circlediamonds.svg	10	yes	53	1	415
6.6.1	mac	2022-12-30	13:08:02	13:18:02	597963	62cc5f39bcfc093f815cf30a	633093206	1	practice_slash	9	advance_on_keypress_SLASH	28	stimuli_distractor_trianglediamonds.svg	stimuli_target_circlediamonds.svg	10	yes	57	0	350
6.6.1	mac	2022-12-30	13:08:02	13:18:04	600315	62cc5f39bcfc093f815cf30a	633093206	1	practice_slash	9	practice_slash	29	stimuli_distractor_diamondtriangles.svg	stimuli_target_trianglecircles.svg	9	yes	53	1	369
6.6.1	mac	2022-12-30	13:08:02	13:18:04	600315	62cc5f39bcfc093f815cf30a	633093206	1	practice_slash	9	advance_on_keypress_SLASH	30	stimuli_distractor_diamondtriangles.svg	stimuli_target_trianglecircles.svg	9	yes	57	0	313
6.6.1	mac	2022-12-30	13:08:02	13:18:06	602640	62cc5f39bcfc093f815cf30a	633093206	1	practice_slash	9	practice_slash	31	stimuli_target_squarediamonds.svg	stimuli_distractor_diamondtriangles.svg	2	yes	53	1	347
6.6.1	mac	2022-12-30	13:08:02	13:18:06	602640	62cc5f39bcfc093f815cf30a	633093206	1	practice_slash	9	advance_on_keypress_SLASH	32	stimuli_target_squarediamonds.svg	stimuli_distractor_diamondtriangles.svg	2	yes	57	0	332
6.6.1	mac	2022-12-30	13:08:02	13:18:20	616540	62cc5f39bcfc093f815cf30a	633093206	1	main_slash	11	main_slash	1	stimuli_distractor_trianglediamonds.svg	stimuli_target_squaretriangles.svg	11	yes	53	1	661
6.6.1	mac	2022-12-30	13:08:02	13:18:20	616540	62cc5f39bcfc093f815cf30a	633093206	1	main_slash	11	advance_on_keypress_SLASH	2	stimuli_distractor_trianglediamonds.svg	stimuli_target_squaretriangles.svg	11	yes	57	0	764
6.6.1	mac	2022-12-30	13:08:02	13:18:24	619943	62cc5f39bcfc093f815cf30a	633093206	1	main_slash	11	main_slash	3	stimuli_distractor_trianglediamonds.svg	stimuli_distractor_trianglediamonds.svg	34	no	0	1	2000
6.6.1	mac	2022-12-30	13:08:02	13:18:24	619943	62cc5f39bcfc093f815cf30a	633093206	1	main_slash	11	advance_on_keypress_SLASH	4	stimuli_distractor_trianglediamonds.svg	stimuli_distractor_trianglediamonds.svg	34	no	57	0	368
6.6.1	mac	2022-12-30	13:08:02	13:18:25	621440	62cc5f39bcfc093f815cf30a	633093206	1	main_slash	11	main_slash	5	stimuli_target_squarediamonds.svg	stimuli_distractor_trianglediamonds.svg	4	yes	53	1	460
6.6.1	mac	2022-12-30	13:08:02	13:18:25	621440	62cc5f39bcfc093f815cf30a	633093206	1	main_slash	11	advance_on_keypress_SLASH	6	stimuli_target_squarediamonds.svg	stimuli_distractor_trianglediamonds.svg	4	yes	57	0	715
6.6.1	mac	2022-12-30	13:08:02	13:18:27	623209	62cc5f39bcfc093f815cf30a	633093206	1	main_slash	11	main_slash	7	stimuli_target_circletriangles.svg	stimuli_distractor_diamondtriangles.svg	5	yes	53	1	396
6.6.1	mac	2022-12-30	13:08:02	13:18:27	623209	62cc5f39bcfc093f815cf30a	633093206	1	main_slash	11	advance_on_keypress_SLASH	8	stimuli_target_circletriangles.svg	stimuli_distractor_diamondtriangles.svg	5	yes	57	0	518
6.6.1	mac	2022-12-30	13:08:02	13:18:28	624702	62cc5f39bcfc093f815cf30a	633093206	1	main_slash	11	main_slash	9	stimuli_target_squaretriangles.svg	stimuli_distractor_trianglediamonds.svg	3	yes	53	1	322
6.6.1	mac	2022-12-30	13:08:02	13:18:28	624702	62cc5f39bcfc093f815cf30a	633093206	1	main_slash	11	advance_on_keypress_SLASH	10	stimuli_target_squaretriangles.svg	stimuli_distractor_trianglediamonds.svg	3	yes	57	0	517
6.6.1	mac	2022-12-30	13:08:02	13:18:30	626143	62cc5f39bcfc093f815cf30a	633093206	1	main_slash	11	main_slash	11	stimuli_distractor_diamondtriangles.svg	stimuli_distractor_diamondtriangles.svg	39	no	53	0	263
6.6.1	mac	2022-12-30	13:08:02	13:18:30	626143	62cc5f39bcfc093f815cf30a	633093206	1	main_slash	11	advance_on_keypress_SLASH	12	stimuli_distractor_diamondtriangles.svg	stimuli_distractor_diamondtriangles.svg	39	no	57	0	492
6.6.1	mac	2022-12-30	13:08:02	13:18:32	627752	62cc5f39bcfc093f815cf30a	633093206	1	main_slash	11	main_slash	13	stimuli_distractor_diamondtriangles.svg	stimuli_target_squaretriangles.svg	15	yes	53	1	473
6.6.1	mac	2022-12-30	13:08:02	13:18:32	627752	62cc5f39bcfc093f815cf30a	633093206	1	main_slash	11	advance_on_keypress_SLASH	14	stimuli_distractor_diamondtriangles.svg	stimuli_target_squaretriangles.svg	15	yes	57	0	576
6.6.1	mac	2022-12-30	13:08:02	13:18:33	629310	62cc5f39bcfc093f815cf30a	633093206	1	main_slash	11	main_slash	15	stimuli_target_squaretriangles.svg	stimuli_distractor_diamondtriangles.svg	7	yes	53	1	331
6.6.1	mac	2022-12-30	13:08:02	13:18:33	629310	62cc5f39bcfc093f815cf30a	633093206	1	main_slash	11	advance_on_keypress_SLASH	16	stimuli_target_squaretriangles.svg	stimuli_distractor_diamondtriangles.svg	7	yes	57	0	453
6.6.1	mac	2022-12-30	13:08:02	13:18:35	630796	62cc5f39bcfc093f815cf30a	633093206	1	main_slash	11	main_slash	17	stimuli_distractor_diamondtriangles.svg	stimuli_target_circletriangles.svg	13	yes	53	1	383
6.6.1	mac	2022-12-30	13:08:02	13:18:35	630796	62cc5f39bcfc093f815cf30a	633093206	1	main_slash	11	advance_on_keypress_SLASH	18	stimuli_distractor_diamondtriangles.svg	stimuli_target_circletriangles.svg	13	yes	57	0	416
6.6.1	mac	2022-12-30	13:08:02	13:18:36	632192	62cc5f39bcfc093f815cf30a	633093206	1	main_slash	11	main_slash	19	stimuli_distractor_trianglediamonds.svg	stimuli_target_circletriangles.svg	9	yes	53	1	312
6.6.1	mac	2022-12-30	13:08:02	13:18:36	632192	62cc5f39bcfc093f815cf30a	633093206	1	main_slash	11	advance_on_keypress_SLASH	20	stimuli_distractor_trianglediamonds.svg	stimuli_target_circletriangles.svg	9	yes	57	0	513
6.6.1	mac	2022-12-30	13:08:02	13:18:37	633648	62cc5f39bcfc093f815cf30a	633093206	1	main_slash	11	main_slash	21	stimuli_target_circlediamonds.svg	stimuli_distractor_trianglediamonds.svg	2	yes	53	1	302
6.6.1	mac	2022-12-30	13:08:02	13:18:37	633648	62cc5f39bcfc093f815cf30a	633093206	1	main_slash	11	advance_on_keypress_SLASH	22	stimuli_target_circlediamonds.svg	stimuli_distractor_trianglediamonds.svg	2	yes	57	0	484
6.6.1	mac	2022-12-30	13:08:02	13:18:39	635097	62cc5f39bcfc093f815cf30a	633093206	1	main_slash	11	main_slash	23	stimuli_distractor_diamondtriangles.svg	stimuli_target_circlediamonds.svg	14	yes	53	1	317
6.6.1	mac	2022-12-30	13:08:02	13:18:39	635097	62cc5f39bcfc093f815cf30a	633093206	1	main_slash	11	advance_on_keypress_SLASH	24	stimuli_distractor_diamondtriangles.svg	stimuli_target_circlediamonds.svg	14	yes	57	0	449
6.6.1	mac	2022-12-30	13:08:02	13:18:40	636615	62cc5f39bcfc093f815cf30a	633093206	1	main_slash	11	main_slash	25	stimuli_distractor_diamondtriangles.svg	stimuli_target_trianglecircles.svg	29	yes	53	1	436
6.6.1	mac	2022-12-30	13:08:02	13:18:40	636615	62cc5f39bcfc093f815cf30a	633093206	1	main_slash	11	advance_on_keypress_SLASH	26	stimuli_distractor_diamondtriangles.svg	stimuli_target_trianglecircles.svg	29	yes	57	0	527
6.6.1	mac	2022-12-30	13:08:02	13:18:42	638101	62cc5f39bcfc093f815cf30a	633093206	1	main_slash	11	main_slash	27	stimuli_distractor_trianglediamonds.svg	stimuli_distractor_trianglediamonds.svg	33	no	53	0	288
6.6.1	mac	2022-12-30	13:08:02	13:18:42	638101	62cc5f39bcfc093f815cf30a	633093206	1	main_slash	11	advance_on_keypress_SLASH	28	stimuli_distractor_trianglediamonds.svg	stimuli_distractor_trianglediamonds.svg	33	no	57	0	560
6.6.1	mac	2022-12-30	13:08:02	13:18:43	639606	62cc5f39bcfc093f815cf30a	633093206	1	main_slash	11	main_slash	29	stimuli_distractor_trianglediamonds.svg	stimuli_target_squarediamonds.svg	12	yes	53	1	292
6.6.1	mac	2022-12-30	13:08:02	13:18:43	639606	62cc5f39bcfc093f815cf30a	633093206	1	main_slash	11	advance_on_keypress_SLASH	30	stimuli_distractor_trianglediamonds.svg	stimuli_target_squarediamonds.svg	12	yes	57	0	441
6.6.1	mac	2022-12-30	13:08:02	13:18:45	640970	62cc5f39bcfc093f815cf30a	633093206	1	main_slash	11	main_slash	31	stimuli_distractor_trianglediamonds.svg	stimuli_distractor_diamondtriangles.svg	36	no	53	0	290
6.6.1	mac	2022-12-30	13:08:02	13:18:45	640970	62cc5f39bcfc093f815cf30a	633093206	1	main_slash	11	advance_on_keypress_SLASH	32	stimuli_distractor_trianglediamonds.svg	stimuli_distractor_diamondtriangles.svg	36	no	57	0	656
6.6.1	mac	2022-12-30	13:08:02	13:18:46	642566	62cc5f39bcfc093f815cf30a	633093206	1	main_slash	11	main_slash	33	stimuli_target_diamondcircles.svg	stimuli_distractor_trianglediamonds.svg	19	yes	53	1	320
6.6.1	mac	2022-12-30	13:08:02	13:18:46	642566	62cc5f39bcfc093f815cf30a	633093206	1	main_slash	11	advance_on_keypress_SLASH	34	stimuli_target_diamondcircles.svg	stimuli_distractor_trianglediamonds.svg	19	yes	57	0	427
6.6.1	mac	2022-12-30	13:08:02	13:18:48	644057	62cc5f39bcfc093f815cf30a	633093206	1	main_slash	11	main_slash	35	stimuli_distractor_diamondtriangles.svg	stimuli_target_diamondcircles.svg	31	yes	53	1	411
6.6.1	mac	2022-12-30	13:08:02	13:18:48	644057	62cc5f39bcfc093f815cf30a	633093206	1	main_slash	11	advance_on_keypress_SLASH	36	stimuli_distractor_diamondtriangles.svg	stimuli_target_diamondcircles.svg	31	yes	57	0	512
6.6.1	mac	2022-12-30	13:08:02	13:18:49	645642	62cc5f39bcfc093f815cf30a	633093206	1	main_slash	11	main_slash	37	stimuli_distractor_trianglediamonds.svg	stimuli_distractor_diamondtriangles.svg	35	no	53	0	395
6.6.1	mac	2022-12-30	13:08:02	13:18:49	645642	62cc5f39bcfc093f815cf30a	633093206	1	main_slash	11	advance_on_keypress_SLASH	38	stimuli_distractor_trianglediamonds.svg	stimuli_distractor_diamondtriangles.svg	35	no	57	0	441
6.6.1	mac	2022-12-30	13:08:02	13:18:51	647418	62cc5f39bcfc093f815cf30a	633093206	1	main_slash	11	main_slash	39	stimuli_distractor_trianglediamonds.svg	stimuli_target_circlediamonds.svg	10	yes	53	1	672
6.6.1	mac	2022-12-30	13:08:02	13:18:51	647418	62cc5f39bcfc093f815cf30a	633093206	1	main_slash	11	advance_on_keypress_SLASH	40	stimuli_distractor_trianglediamonds.svg	stimuli_target_circlediamonds.svg	10	yes	57	0	595
6.6.1	mac	2022-12-30	13:08:02	13:18:53	649090	62cc5f39bcfc093f815cf30a	633093206	1	main_slash	11	main_slash	41	stimuli_distractor_trianglediamonds.svg	stimuli_target_trianglecircles.svg	25	yes	53	1	427
6.6.1	mac	2022-12-30	13:08:02	13:18:53	649090	62cc5f39bcfc093f815cf30a	633093206	1	main_slash	11	advance_on_keypress_SLASH	42	stimuli_distractor_trianglediamonds.svg	stimuli_target_trianglecircles.svg	25	yes	57	0	415
6.6.1	mac	2022-12-30	13:08:02	13:18:54	650465	62cc5f39bcfc093f815cf30a	633093206	1	main_slash	11	main_slash	43	stimuli_distractor_diamondtriangles.svg	stimuli_target_diamondsquares.svg	32	yes	53	1	319
6.6.1	mac	2022-12-30	13:08:02	13:18:54	650465	62cc5f39bcfc093f815cf30a	633093206	1	main_slash	11	advance_on_keypress_SLASH	44	stimuli_distractor_diamondtriangles.svg	stimuli_target_diamondsquares.svg	32	yes	57	0	370
6.6.1	mac	2022-12-30	13:08:02	13:18:56	651790	62cc5f39bcfc093f815cf30a	633093206	1	main_slash	11	main_slash	45	stimuli_target_trianglecircles.svg	stimuli_distractor_diamondtriangles.svg	21	yes	53	1	305
6.6.1	mac	2022-12-30	13:08:02	13:18:56	651790	62cc5f39bcfc093f815cf30a	633093206	1	main_slash	11	advance_on_keypress_SLASH	46	stimuli_target_trianglecircles.svg	stimuli_distractor_diamondtriangles.svg	21	yes	57	0	379
6.6.1	mac	2022-12-30	13:08:02	13:18:57	653154	62cc5f39bcfc093f815cf30a	633093206	1	main_slash	11	main_slash	47	stimuli_distractor_diamondtriangles.svg	stimuli_target_trianglesquares.svg	30	yes	53	1	340
6.6.1	mac	2022-12-30	13:08:02	13:18:57	653154	62cc5f39bcfc093f815cf30a	633093206	1	main_slash	11	advance_on_keypress_SLASH	48	stimuli_distractor_diamondtriangles.svg	stimuli_target_trianglesquares.svg	30	yes	57	0	500
6.6.1	mac	2022-12-30	13:08:02	13:18:58	654594	62cc5f39bcfc093f815cf30a	633093206	1	main_slash	11	main_slash	49	stimuli_target_diamondsquares.svg	stimuli_distractor_trianglediamonds.svg	20	yes	53	1	280
6.6.1	mac	2022-12-30	13:08:02	13:18:58	654594	62cc5f39bcfc093f815cf30a	633093206	1	main_slash	11	advance_on_keypress_SLASH	50	stimuli_target_diamondsquares.svg	stimuli_distractor_trianglediamonds.svg	20	yes	57	0	412
6.6.1	mac	2022-12-30	13:08:02	13:19:00	655940	62cc5f39bcfc093f815cf30a	633093206	1	main_slash	11	main_slash	51	stimuli_distractor_trianglediamonds.svg	stimuli_target_trianglesquares.svg	26	yes	53	1	291
6.6.1	mac	2022-12-30	13:08:02	13:19:00	655940	62cc5f39bcfc093f815cf30a	633093206	1	main_slash	11	advance_on_keypress_SLASH	52	stimuli_distractor_trianglediamonds.svg	stimuli_target_trianglesquares.svg	26	yes	57	0	376
6.6.1	mac	2022-12-30	13:08:02	13:19:01	657593	62cc5f39bcfc093f815cf30a	633093206	1	main_slash	11	main_slash	53	stimuli_distractor_trianglediamonds.svg	stimuli_target_diamondsquares.svg	28	yes	53	1	647
6.6.1	mac	2022-12-30	13:08:02	13:19:01	657593	62cc5f39bcfc093f815cf30a	633093206	1	main_slash	11	advance_on_keypress_SLASH	54	stimuli_distractor_trianglediamonds.svg	stimuli_target_diamondsquares.svg	28	yes	57	0	535
6.6.1	mac	2022-12-30	13:08:02	13:19:03	659109	62cc5f39bcfc093f815cf30a	633093206	1	main_slash	11	main_slash	55	stimuli_target_squarediamonds.svg	stimuli_distractor_diamondtriangles.svg	8	yes	53	1	330
6.6.1	mac	2022-12-30	13:08:02	13:19:03	659109	62cc5f39bcfc093f815cf30a	633093206	1	main_slash	11	advance_on_keypress_SLASH	56	stimuli_target_squarediamonds.svg	stimuli_distractor_diamondtriangles.svg	8	yes	57	0	557
6.6.1	mac	2022-12-30	13:08:02	13:19:04	660662	62cc5f39bcfc093f815cf30a	633093206	1	main_slash	11	main_slash	57	stimuli_target_circletriangles.svg	stimuli_distractor_trianglediamonds.svg	1	yes	53	1	309
6.6.1	mac	2022-12-30	13:08:02	13:19:04	660662	62cc5f39bcfc093f815cf30a	633093206	1	main_slash	11	advance_on_keypress_SLASH	58	stimuli_target_circletriangles.svg	stimuli_distractor_trianglediamonds.svg	1	yes	57	0	1213
6.6.1	mac	2022-12-30	13:08:02	13:19:07	662872	62cc5f39bcfc093f815cf30a	633093206	1	main_slash	11	main_slash	59	stimuli_distractor_diamondtriangles.svg	stimuli_distractor_trianglediamonds.svg	37	no	53	0	327
6.6.1	mac	2022-12-30	13:08:02	13:19:07	662872	62cc5f39bcfc093f815cf30a	633093206	1	main_slash	11	advance_on_keypress_SLASH	60	stimuli_distractor_diamondtriangles.svg	stimuli_distractor_trianglediamonds.svg	37	no	57	0	565
6.6.1	mac	2022-12-30	13:08:02	13:19:08	664458	62cc5f39bcfc093f815cf30a	633093206	1	main_slash	11	main_slash	61	stimuli_target_trianglesquares.svg	stimuli_distractor_trianglediamonds.svg	18	yes	53	1	378
6.6.1	mac	2022-12-30	13:08:02	13:19:08	664458	62cc5f39bcfc093f815cf30a	633093206	1	main_slash	11	advance_on_keypress_SLASH	62	stimuli_target_trianglesquares.svg	stimuli_distractor_trianglediamonds.svg	18	yes	57	0	456
6.6.1	mac	2022-12-30	13:08:02	13:19:10	665895	62cc5f39bcfc093f815cf30a	633093206	1	main_slash	11	main_slash	63	stimuli_distractor_diamondtriangles.svg	stimuli_distractor_diamondtriangles.svg	40	no	53	0	316
6.6.1	mac	2022-12-30	13:08:02	13:19:10	665895	62cc5f39bcfc093f815cf30a	633093206	1	main_slash	11	advance_on_keypress_SLASH	64	stimuli_distractor_diamondtriangles.svg	stimuli_distractor_diamondtriangles.svg	40	no	57	0	355
6.6.1	mac	2022-12-30	13:08:02	13:19:11	667190	62cc5f39bcfc093f815cf30a	633093206	1	main_slash	11	main_slash	65	stimuli_target_trianglesquares.svg	stimuli_distractor_diamondtriangles.svg	22	yes	53	1	306
6.6.1	mac	2022-12-30	13:08:02	13:19:11	667190	62cc5f39bcfc093f815cf30a	633093206	1	main_slash	11	advance_on_keypress_SLASH	66	stimuli_target_trianglesquares.svg	stimuli_distractor_diamondtriangles.svg	22	yes	57	0	395
6.6.1	mac	2022-12-30	13:08:02	13:19:13	668942	62cc5f39bcfc093f815cf30a	633093206	1	main_slash	11	main_slash	67	stimuli_distractor_diamondtriangles.svg	stimuli_target_squarediamonds.svg	16	yes	53	1	697
6.6.1	mac	2022-12-30	13:08:02	13:19:13	668942	62cc5f39bcfc093f815cf30a	633093206	1	main_slash	11	advance_on_keypress_SLASH	68	stimuli_distractor_diamondtriangles.svg	stimuli_target_squarediamonds.svg	16	yes	57	0	531
6.6.1	mac	2022-12-30	13:08:02	13:19:14	670490	62cc5f39bcfc093f815cf30a	633093206	1	main_slash	11	main_slash	69	stimuli_target_trianglecircles.svg	stimuli_distractor_trianglediamonds.svg	17	yes	53	1	332
6.6.1	mac	2022-12-30	13:08:02	13:19:14	670490	62cc5f39bcfc093f815cf30a	633093206	1	main_slash	11	advance_on_keypress_SLASH	70	stimuli_target_trianglecircles.svg	stimuli_distractor_trianglediamonds.svg	17	yes	57	0	389
6.6.1	mac	2022-12-30	13:08:02	13:19:16	671822	62cc5f39bcfc093f815cf30a	633093206	1	main_slash	11	main_slash	71	stimuli_target_diamondsquares.svg	stimuli_distractor_diamondtriangles.svg	24	yes	53	1	307
6.6.1	mac	2022-12-30	13:08:02	13:19:16	671822	62cc5f39bcfc093f815cf30a	633093206	1	main_slash	11	advance_on_keypress_SLASH	72	stimuli_target_diamondsquares.svg	stimuli_distractor_diamondtriangles.svg	24	yes	57	0	345
6.6.1	mac	2022-12-30	13:08:02	13:19:17	673152	62cc5f39bcfc093f815cf30a	633093206	1	main_slash	11	main_slash	73	stimuli_target_circlediamonds.svg	stimuli_distractor_diamondtriangles.svg	6	yes	53	1	338
6.6.1	mac	2022-12-30	13:08:02	13:19:17	673152	62cc5f39bcfc093f815cf30a	633093206	1	main_slash	11	advance_on_keypress_SLASH	74	stimuli_target_circlediamonds.svg	stimuli_distractor_diamondtriangles.svg	6	yes	57	0	343
6.6.1	mac	2022-12-30	13:08:02	13:19:18	674545	62cc5f39bcfc093f815cf30a	633093206	1	main_slash	11	main_slash	75	stimuli_distractor_trianglediamonds.svg	stimuli_target_diamondcircles.svg	27	yes	53	1	398
6.6.1	mac	2022-12-30	13:08:02	13:19:18	674545	62cc5f39bcfc093f815cf30a	633093206	1	main_slash	11	advance_on_keypress_SLASH	76	stimuli_distractor_trianglediamonds.svg	stimuli_target_diamondcircles.svg	27	yes	57	0	413
6.6.1	mac	2022-12-30	13:08:02	13:19:20	675940	62cc5f39bcfc093f815cf30a	633093206	1	main_slash	11	main_slash	77	stimuli_distractor_diamondtriangles.svg	stimuli_distractor_trianglediamonds.svg	38	no	53	0	320
6.6.1	mac	2022-12-30	13:08:02	13:19:20	675940	62cc5f39bcfc093f815cf30a	633093206	1	main_slash	11	advance_on_keypress_SLASH	78	stimuli_distractor_diamondtriangles.svg	stimuli_distractor_trianglediamonds.svg	38	no	57	0	532
6.6.1	mac	2022-12-30	13:08:02	13:19:21	677422	62cc5f39bcfc093f815cf30a	633093206	1	main_slash	11	main_slash	79	stimuli_target_diamondcircles.svg	stimuli_distractor_diamondtriangles.svg	23	yes	53	1	309
6.6.1	mac	2022-12-30	13:08:02	13:19:21	677422	62cc5f39bcfc093f815cf30a	633093206	1	main_slash	11	advance_on_keypress_SLASH	80	stimuli_target_diamondcircles.svg	stimuli_distractor_diamondtriangles.svg	23	yes	57	0	346
6.6.1	mac	2022-12-30	13:08:02	13:19:23	678758	62cc5f39bcfc093f815cf30a	633093206	1	main_slash	11	main_slash	81	stimuli_distractor_diamondtriangles.svg	stimuli_target_squaretriangles.svg	15	yes	53	1	345
6.6.1	mac	2022-12-30	13:08:02	13:19:23	678758	62cc5f39bcfc093f815cf30a	633093206	1	main_slash	11	advance_on_keypress_SLASH	82	stimuli_distractor_diamondtriangles.svg	stimuli_target_squaretriangles.svg	15	yes	57	0	400
6.6.1	mac	2022-12-30	13:08:02	13:19:24	680498	62cc5f39bcfc093f815cf30a	633093206	1	main_slash	11	main_slash	83	stimuli_distractor_trianglediamonds.svg	stimuli_target_circletriangles.svg	9	yes	53	1	684
6.6.1	mac	2022-12-30	13:08:02	13:19:24	680498	62cc5f39bcfc093f815cf30a	633093206	1	main_slash	11	advance_on_keypress_SLASH	84	stimuli_distractor_trianglediamonds.svg	stimuli_target_circletriangles.svg	9	yes	57	0	434
6.6.1	mac	2022-12-30	13:08:02	13:19:26	681940	62cc5f39bcfc093f815cf30a	633093206	1	main_slash	11	main_slash	85	stimuli_distractor_diamondtriangles.svg	stimuli_target_trianglecircles.svg	29	yes	53	1	358
6.6.1	mac	2022-12-30	13:08:02	13:19:26	681940	62cc5f39bcfc093f815cf30a	633093206	1	main_slash	11	advance_on_keypress_SLASH	86	stimuli_distractor_diamondtriangles.svg	stimuli_target_trianglecircles.svg	29	yes	57	0	341
6.6.1	mac	2022-12-30	13:08:02	13:19:27	683199	62cc5f39bcfc093f815cf30a	633093206	1	main_slash	11	main_slash	87	stimuli_distractor_trianglediamonds.svg	stimuli_target_diamondcircles.svg	27	yes	53	1	285
6.6.1	mac	2022-12-30	13:08:02	13:19:27	683199	62cc5f39bcfc093f815cf30a	633093206	1	main_slash	11	advance_on_keypress_SLASH	88	stimuli_distractor_trianglediamonds.svg	stimuli_target_diamondcircles.svg	27	yes	57	0	408
6.6.1	mac	2022-12-30	13:08:02	13:19:28	684540	62cc5f39bcfc093f815cf30a	633093206	1	main_slash	11	main_slash	89	stimuli_distractor_trianglediamonds.svg	stimuli_target_circlediamonds.svg	10	yes	53	1	294
6.6.1	mac	2022-12-30	13:08:02	13:19:28	684540	62cc5f39bcfc093f815cf30a	633093206	1	main_slash	11	advance_on_keypress_SLASH	90	stimuli_distractor_trianglediamonds.svg	stimuli_target_circlediamonds.svg	10	yes	57	0	283
6.6.1	mac	2022-12-30	13:08:02	13:19:30	685805	62cc5f39bcfc093f815cf30a	633093206	1	main_slash	11	main_slash	91	stimuli_target_diamondsquares.svg	stimuli_distractor_diamondtriangles.svg	24	yes	53	1	325
6.6.1	mac	2022-12-30	13:08:02	13:19:30	685805	62cc5f39bcfc093f815cf30a	633093206	1	main_slash	11	advance_on_keypress_SLASH	92	stimuli_target_diamondsquares.svg	stimuli_distractor_diamondtriangles.svg	24	yes	57	0	394
6.6.1	mac	2022-12-30	13:08:02	13:19:31	687119	62cc5f39bcfc093f815cf30a	633093206	1	main_slash	11	main_slash	93	stimuli_distractor_diamondtriangles.svg	stimuli_target_diamondcircles.svg	31	yes	53	1	272
6.6.1	mac	2022-12-30	13:08:02	13:19:31	687119	62cc5f39bcfc093f815cf30a	633093206	1	main_slash	11	advance_on_keypress_SLASH	94	stimuli_distractor_diamondtriangles.svg	stimuli_target_diamondcircles.svg	31	yes	57	0	344
6.6.1	mac	2022-12-30	13:08:02	13:19:32	688403	62cc5f39bcfc093f815cf30a	633093206	1	main_slash	11	main_slash	95	stimuli_target_squarediamonds.svg	stimuli_distractor_diamondtriangles.svg	8	yes	53	1	290
6.6.1	mac	2022-12-30	13:08:02	13:19:32	688403	62cc5f39bcfc093f815cf30a	633093206	1	main_slash	11	advance_on_keypress_SLASH	96	stimuli_target_squarediamonds.svg	stimuli_distractor_diamondtriangles.svg	8	yes	57	0	387
6.6.1	mac	2022-12-30	13:08:02	13:19:33	689698	62cc5f39bcfc093f815cf30a	633093206	1	main_slash	11	main_slash	97	stimuli_distractor_diamondtriangles.svg	stimuli_distractor_diamondtriangles.svg	39	no	53	0	286
6.6.1	mac	2022-12-30	13:08:02	13:19:33	689698	62cc5f39bcfc093f815cf30a	633093206	1	main_slash	11	advance_on_keypress_SLASH	98	stimuli_distractor_diamondtriangles.svg	stimuli_distractor_diamondtriangles.svg	39	no	57	0	457
6.6.1	mac	2022-12-30	13:08:02	13:19:35	691065	62cc5f39bcfc093f815cf30a	633093206	1	main_slash	11	main_slash	99	stimuli_target_trianglesquares.svg	stimuli_distractor_trianglediamonds.svg	18	yes	53	1	284
6.6.1	mac	2022-12-30	13:08:02	13:19:35	691065	62cc5f39bcfc093f815cf30a	633093206	1	main_slash	11	advance_on_keypress_SLASH	100	stimuli_target_trianglesquares.svg	stimuli_distractor_trianglediamonds.svg	18	yes	57	0	379
6.6.1	mac	2022-12-30	13:08:02	13:19:36	692369	62cc5f39bcfc093f815cf30a	633093206	1	main_slash	11	main_slash	101	stimuli_target_diamondsquares.svg	stimuli_distractor_trianglediamonds.svg	20	yes	53	1	288
6.6.1	mac	2022-12-30	13:08:02	13:19:36	692369	62cc5f39bcfc093f815cf30a	633093206	1	main_slash	11	advance_on_keypress_SLASH	102	stimuli_target_diamondsquares.svg	stimuli_distractor_trianglediamonds.svg	20	yes	57	0	399
6.6.1	mac	2022-12-30	13:08:02	13:19:37	693716	62cc5f39bcfc093f815cf30a	633093206	1	main_slash	11	main_slash	103	stimuli_target_circlediamonds.svg	stimuli_distractor_diamondtriangles.svg	6	yes	53	1	302
6.6.1	mac	2022-12-30	13:08:02	13:19:37	693716	62cc5f39bcfc093f815cf30a	633093206	1	main_slash	11	advance_on_keypress_SLASH	104	stimuli_target_circlediamonds.svg	stimuli_distractor_diamondtriangles.svg	6	yes	57	0	906
6.6.1	mac	2022-12-30	13:08:02	13:19:39	695565	62cc5f39bcfc093f815cf30a	633093206	1	main_slash	11	main_slash	105	stimuli_distractor_diamondtriangles.svg	stimuli_distractor_trianglediamonds.svg	37	no	53	0	284
6.6.1	mac	2022-12-30	13:08:02	13:19:39	695565	62cc5f39bcfc093f815cf30a	633093206	1	main_slash	11	advance_on_keypress_SLASH	106	stimuli_distractor_diamondtriangles.svg	stimuli_distractor_trianglediamonds.svg	37	no	57	0	406
6.6.1	mac	2022-12-30	13:08:02	13:19:41	696890	62cc5f39bcfc093f815cf30a	633093206	1	main_slash	11	main_slash	107	stimuli_distractor_trianglediamonds.svg	stimuli_target_squaretriangles.svg	11	yes	53	1	238
6.6.1	mac	2022-12-30	13:08:02	13:19:41	696890	62cc5f39bcfc093f815cf30a	633093206	1	main_slash	11	advance_on_keypress_SLASH	108	stimuli_distractor_trianglediamonds.svg	stimuli_target_squaretriangles.svg	11	yes	57	0	426
6.6.1	mac	2022-12-30	13:08:02	13:19:42	698240	62cc5f39bcfc093f815cf30a	633093206	1	main_slash	11	main_slash	109	stimuli_distractor_diamondtriangles.svg	stimuli_target_trianglesquares.svg	30	yes	53	1	282
6.6.1	mac	2022-12-30	13:08:02	13:19:42	698240	62cc5f39bcfc093f815cf30a	633093206	1	main_slash	11	advance_on_keypress_SLASH	110	stimuli_distractor_diamondtriangles.svg	stimuli_target_trianglesquares.svg	30	yes	57	0	995
6.6.1	mac	2022-12-30	13:08:02	13:19:44	700173	62cc5f39bcfc093f815cf30a	633093206	1	main_slash	11	main_slash	111	stimuli_distractor_trianglediamonds.svg	stimuli_distractor_trianglediamonds.svg	33	no	53	0	292
6.6.1	mac	2022-12-30	13:08:02	13:19:44	700173	62cc5f39bcfc093f815cf30a	633093206	1	main_slash	11	advance_on_keypress_SLASH	112	stimuli_distractor_trianglediamonds.svg	stimuli_distractor_trianglediamonds.svg	33	no	57	0	425
6.6.1	mac	2022-12-30	13:08:02	13:19:45	701546	62cc5f39bcfc093f815cf30a	633093206	1	main_slash	11	main_slash	113	stimuli_distractor_diamondtriangles.svg	stimuli_distractor_diamondtriangles.svg	40	no	53	0	333
6.6.1	mac	2022-12-30	13:08:02	13:19:45	701546	62cc5f39bcfc093f815cf30a	633093206	1	main_slash	11	advance_on_keypress_SLASH	114	stimuli_distractor_diamondtriangles.svg	stimuli_distractor_diamondtriangles.svg	40	no	57	0	1464
6.6.1	mac	2022-12-30	13:08:02	13:19:49	705678	62cc5f39bcfc093f815cf30a	633093206	1	main_slash	11	main_slash	115	stimuli_distractor_trianglediamonds.svg	stimuli_distractor_diamondtriangles.svg	35	no	0	1	2000
6.6.1	mac	2022-12-30	13:08:02	13:19:49	705678	62cc5f39bcfc093f815cf30a	633093206	1	main_slash	11	advance_on_keypress_SLASH	116	stimuli_distractor_trianglediamonds.svg	stimuli_distractor_diamondtriangles.svg	35	no	57	0	350
6.6.1	mac	2022-12-30	13:08:02	13:19:51	707107	62cc5f39bcfc093f815cf30a	633093206	1	main_slash	11	main_slash	117	stimuli_target_squarediamonds.svg	stimuli_distractor_trianglediamonds.svg	4	yes	53	1	427
6.6.1	mac	2022-12-30	13:08:02	13:19:51	707107	62cc5f39bcfc093f815cf30a	633093206	1	main_slash	11	advance_on_keypress_SLASH	118	stimuli_target_squarediamonds.svg	stimuli_distractor_trianglediamonds.svg	4	yes	57	0	520
6.6.1	mac	2022-12-30	13:08:02	13:19:52	708640	62cc5f39bcfc093f815cf30a	633093206	1	main_slash	11	main_slash	119	stimuli_distractor_trianglediamonds.svg	stimuli_target_diamondsquares.svg	28	yes	53	1	360
6.6.1	mac	2022-12-30	13:08:02	13:19:52	708640	62cc5f39bcfc093f815cf30a	633093206	1	main_slash	11	advance_on_keypress_SLASH	120	stimuli_distractor_trianglediamonds.svg	stimuli_target_diamondsquares.svg	28	yes	57	0	335
6.6.1	mac	2022-12-30	13:08:02	13:19:54	710040	62cc5f39bcfc093f815cf30a	633093206	1	main_slash	11	main_slash	121	stimuli_distractor_diamondtriangles.svg	stimuli_target_diamondsquares.svg	32	yes	53	1	413
6.6.1	mac	2022-12-30	13:08:02	13:19:54	710040	62cc5f39bcfc093f815cf30a	633093206	1	main_slash	11	advance_on_keypress_SLASH	122	stimuli_distractor_diamondtriangles.svg	stimuli_target_diamondsquares.svg	32	yes	57	0	449
6.6.1	mac	2022-12-30	13:08:02	13:19:55	711441	62cc5f39bcfc093f815cf30a	633093206	1	main_slash	11	main_slash	123	stimuli_target_diamondcircles.svg	stimuli_distractor_diamondtriangles.svg	23	yes	53	1	293
6.6.1	mac	2022-12-30	13:08:02	13:19:55	711441	62cc5f39bcfc093f815cf30a	633093206	1	main_slash	11	advance_on_keypress_SLASH	124	stimuli_target_diamondcircles.svg	stimuli_distractor_diamondtriangles.svg	23	yes	57	0	237
6.6.1	mac	2022-12-30	13:08:02	13:19:56	712697	62cc5f39bcfc093f815cf30a	633093206	1	main_slash	11	main_slash	125	stimuli_distractor_diamondtriangles.svg	stimuli_target_squarediamonds.svg	16	yes	53	1	382
6.6.1	mac	2022-12-30	13:08:02	13:19:56	712697	62cc5f39bcfc093f815cf30a	633093206	1	main_slash	11	advance_on_keypress_SLASH	126	stimuli_distractor_diamondtriangles.svg	stimuli_target_squarediamonds.svg	16	yes	57	0	701
6.6.1	mac	2022-12-30	13:08:02	13:19:58	714290	62cc5f39bcfc093f815cf30a	633093206	1	main_slash	11	main_slash	127	stimuli_target_circletriangles.svg	stimuli_distractor_trianglediamonds.svg	1	yes	53	1	232
6.6.1	mac	2022-12-30	13:08:02	13:19:58	714290	62cc5f39bcfc093f815cf30a	633093206	1	main_slash	11	advance_on_keypress_SLASH	128	stimuli_target_circletriangles.svg	stimuli_distractor_trianglediamonds.svg	1	yes	57	0	449
6.6.1	mac	2022-12-30	13:08:02	13:19:59	715723	62cc5f39bcfc093f815cf30a	633093206	1	main_slash	11	main_slash	129	stimuli_distractor_trianglediamonds.svg	stimuli_target_squarediamonds.svg	12	yes	53	1	342
6.6.1	mac	2022-12-30	13:08:02	13:19:59	715723	62cc5f39bcfc093f815cf30a	633093206	1	main_slash	11	advance_on_keypress_SLASH	130	stimuli_distractor_trianglediamonds.svg	stimuli_target_squarediamonds.svg	12	yes	57	0	347
6.6.1	mac	2022-12-30	13:08:02	13:20:01	717040	62cc5f39bcfc093f815cf30a	633093206	1	main_slash	11	main_slash	131	stimuli_distractor_trianglediamonds.svg	stimuli_target_trianglecircles.svg	25	yes	53	1	321
6.6.1	mac	2022-12-30	13:08:02	13:20:01	717040	62cc5f39bcfc093f815cf30a	633093206	1	main_slash	11	advance_on_keypress_SLASH	132	stimuli_distractor_trianglediamonds.svg	stimuli_target_trianglecircles.svg	25	yes	57	0	345
6.6.1	mac	2022-12-30	13:08:02	13:20:02	718251	62cc5f39bcfc093f815cf30a	633093206	1	main_slash	11	main_slash	133	stimuli_distractor_trianglediamonds.svg	stimuli_distractor_trianglediamonds.svg	34	no	53	0	203
6.6.1	mac	2022-12-30	13:08:02	13:20:02	718251	62cc5f39bcfc093f815cf30a	633093206	1	main_slash	11	advance_on_keypress_SLASH	134	stimuli_distractor_trianglediamonds.svg	stimuli_distractor_trianglediamonds.svg	34	no	57	0	664
6.6.1	mac	2022-12-30	13:08:02	13:20:03	719690	62cc5f39bcfc093f815cf30a	633093206	1	main_slash	11	main_slash	135	stimuli_target_squaretriangles.svg	stimuli_distractor_trianglediamonds.svg	3	yes	53	1	110
6.6.1	mac	2022-12-30	13:08:02	13:20:03	719690	62cc5f39bcfc093f815cf30a	633093206	1	main_slash	11	advance_on_keypress_SLASH	136	stimuli_target_squaretriangles.svg	stimuli_distractor_trianglediamonds.svg	3	yes	57	0	553
6.6.1	mac	2022-12-30	13:08:02	13:20:05	721040	62cc5f39bcfc093f815cf30a	633093206	1	main_slash	11	main_slash	137	stimuli_distractor_trianglediamonds.svg	stimuli_distractor_diamondtriangles.svg	36	no	53	0	117
6.6.1	mac	2022-12-30	13:08:02	13:20:05	721040	62cc5f39bcfc093f815cf30a	633093206	1	main_slash	11	advance_on_keypress_SLASH	138	stimuli_distractor_trianglediamonds.svg	stimuli_distractor_diamondtriangles.svg	36	no	57	0	556
6.6.1	mac	2022-12-30	13:08:02	13:20:06	722397	62cc5f39bcfc093f815cf30a	633093206	1	main_slash	11	main_slash	139	stimuli_target_trianglesquares.svg	stimuli_distractor_diamondtriangles.svg	22	yes	53	1	182
6.6.1	mac	2022-12-30	13:08:02	13:20:06	722397	62cc5f39bcfc093f815cf30a	633093206	1	main_slash	11	advance_on_keypress_SLASH	140	stimuli_target_trianglesquares.svg	stimuli_distractor_diamondtriangles.svg	22	yes	57	0	458
6.6.1	mac	2022-12-30	13:08:02	13:20:08	723840	62cc5f39bcfc093f815cf30a	633093206	1	main_slash	11	main_slash	141	stimuli_distractor_diamondtriangles.svg	stimuli_distractor_trianglediamonds.svg	38	no	53	0	319
6.6.1	mac	2022-12-30	13:08:02	13:20:08	723840	62cc5f39bcfc093f815cf30a	633093206	1	main_slash	11	advance_on_keypress_SLASH	142	stimuli_distractor_diamondtriangles.svg	stimuli_distractor_trianglediamonds.svg	38	no	57	0	399
6.6.1	mac	2022-12-30	13:08:02	13:20:09	725298	62cc5f39bcfc093f815cf30a	633093206	1	main_slash	11	main_slash	143	stimuli_target_diamondcircles.svg	stimuli_distractor_trianglediamonds.svg	19	yes	53	1	417
6.6.1	mac	2022-12-30	13:08:02	13:20:09	725298	62cc5f39bcfc093f815cf30a	633093206	1	main_slash	11	advance_on_keypress_SLASH	144	stimuli_target_diamondcircles.svg	stimuli_distractor_trianglediamonds.svg	19	yes	57	0	589
6.6.1	mac	2022-12-30	13:08:02	13:20:11	727004	62cc5f39bcfc093f815cf30a	633093206	1	main_slash	11	main_slash	145	stimuli_target_circlediamonds.svg	stimuli_distractor_trianglediamonds.svg	2	yes	53	1	455
6.6.1	mac	2022-12-30	13:08:02	13:20:11	727004	62cc5f39bcfc093f815cf30a	633093206	1	main_slash	11	advance_on_keypress_SLASH	146	stimuli_target_circlediamonds.svg	stimuli_distractor_trianglediamonds.svg	2	yes	57	0	548
6.6.1	mac	2022-12-30	13:08:02	13:20:12	728571	62cc5f39bcfc093f815cf30a	633093206	1	main_slash	11	main_slash	147	stimuli_target_trianglecircles.svg	stimuli_distractor_diamondtriangles.svg	21	yes	53	1	357
6.6.1	mac	2022-12-30	13:08:02	13:20:12	728571	62cc5f39bcfc093f815cf30a	633093206	1	main_slash	11	advance_on_keypress_SLASH	148	stimuli_target_trianglecircles.svg	stimuli_distractor_diamondtriangles.svg	21	yes	57	0	529
6.6.1	mac	2022-12-30	13:08:02	13:20:14	730040	62cc5f39bcfc093f815cf30a	633093206	1	main_slash	11	main_slash	149	stimuli_target_squaretriangles.svg	stimuli_distractor_diamondtriangles.svg	7	yes	53	1	322
6.6.1	mac	2022-12-30	13:08:02	13:20:14	730040	62cc5f39bcfc093f815cf30a	633093206	1	main_slash	11	advance_on_keypress_SLASH	150	stimuli_target_squaretriangles.svg	stimuli_distractor_diamondtriangles.svg	7	yes	57	0	431
6.6.1	mac	2022-12-30	13:08:02	13:20:15	731451	62cc5f39bcfc093f815cf30a	633093206	1	main_slash	11	main_slash	151	stimuli_distractor_diamondtriangles.svg	stimuli_target_circlediamonds.svg	14	yes	53	1	337
6.6.1	mac	2022-12-30	13:08:02	13:20:15	731451	62cc5f39bcfc093f815cf30a	633093206	1	main_slash	11	advance_on_keypress_SLASH	152	stimuli_distractor_diamondtriangles.svg	stimuli_target_circlediamonds.svg	14	yes	57	0	454
6.6.1	mac	2022-12-30	13:08:02	13:20:17	732867	62cc5f39bcfc093f815cf30a	633093206	1	main_slash	11	main_slash	153	stimuli_target_trianglecircles.svg	stimuli_distractor_trianglediamonds.svg	17	yes	53	1	320
6.6.1	mac	2022-12-30	13:08:02	13:20:17	732867	62cc5f39bcfc093f815cf30a	633093206	1	main_slash	11	advance_on_keypress_SLASH	154	stimuli_target_trianglecircles.svg	stimuli_distractor_trianglediamonds.svg	17	yes	57	0	421
6.6.1	mac	2022-12-30	13:08:02	13:20:18	734240	62cc5f39bcfc093f815cf30a	633093206	1	main_slash	11	main_slash	155	stimuli_target_circletriangles.svg	stimuli_distractor_diamondtriangles.svg	5	yes	53	1	317
6.6.1	mac	2022-12-30	13:08:02	13:20:18	734240	62cc5f39bcfc093f815cf30a	633093206	1	main_slash	11	advance_on_keypress_SLASH	156	stimuli_target_circletriangles.svg	stimuli_distractor_diamondtriangles.svg	5	yes	57	0	376
6.6.1	mac	2022-12-30	13:08:02	13:20:19	735522	62cc5f39bcfc093f815cf30a	633093206	1	main_slash	11	main_slash	157	stimuli_distractor_trianglediamonds.svg	stimuli_target_trianglesquares.svg	26	yes	53	1	275
6.6.1	mac	2022-12-30	13:08:02	13:20:19	735522	62cc5f39bcfc093f815cf30a	633093206	1	main_slash	11	advance_on_keypress_SLASH	158	stimuli_distractor_trianglediamonds.svg	stimuli_target_trianglesquares.svg	26	yes	57	0	388
6.6.1	mac	2022-12-30	13:08:02	13:20:21	736840	62cc5f39bcfc093f815cf30a	633093206	1	main_slash	11	main_slash	159	stimuli_distractor_diamondtriangles.svg	stimuli_target_circletriangles.svg	13	yes	53	1	292
6.6.1	mac	2022-12-30	13:08:02	13:20:21	736840	62cc5f39bcfc093f815cf30a	633093206	1	main_slash	11	advance_on_keypress_SLASH	160	stimuli_distractor_diamondtriangles.svg	stimuli_target_circletriangles.svg	13	yes	57	0	432