build	computer.platform	date	time	timestamp	time_elapsed_ms	subject	group	session	blockcode	blocknum	trialcode	trialnum	stimulus_left	stimulus_right	stim_index	target_present	response	correct	latency
6.6.1	win	2022-12-14	14:31:10	14:34:58	226244	60d2d061fd054556769ca306	986469383	1	practice_slash	5	practice_slash	1	stimuli_distractor_diamondtriangles.svg	stimuli_distractor_trianglediamonds.svg	14	no	0	1	2000
6.6.1	win	2022-12-14	14:31:10	14:34:58	226244	60d2d061fd054556769ca306	986469383	1	practice_slash	5	advance_on_keypress_SLASH	2	stimuli_distractor_diamondtriangles.svg	stimuli_distractor_trianglediamonds.svg	14	no	57	0	1638
6.6.1	win	2022-12-14	14:31:10	14:35:02	230095	60d2d061fd054556769ca306	986469383	1	practice_slash	5	practice_slash	3	stimuli_distractor_diamondtriangles.svg	stimuli_target_trianglecircles.svg	9	yes	53	1	535
6.6.1	win	2022-12-14	14:31:10	14:35:02	230095	60d2d061fd054556769ca306	986469383	1	practice_slash	5	advance_on_keypress_SLASH	4	stimuli_distractor_diamondtriangles.svg	stimuli_target_trianglecircles.svg	9	yes	57	0	1441
6.6.1	win	2022-12-14	14:31:10	14:35:05	233707	60d2d061fd054556769ca306	986469383	1	practice_slash	5	practice_slash	5	stimuli_target_squarediamonds.svg	stimuli_distractor_diamondtriangles.svg	2	yes	53	1	507
6.6.1	win	2022-12-14	14:31:10	14:35:05	233707	60d2d061fd054556769ca306	986469383	1	practice_slash	5	advance_on_keypress_SLASH	6	stimuli_target_squarediamonds.svg	stimuli_distractor_diamondtriangles.svg	2	yes	57	0	606
6.6.1	win	2022-12-14	14:31:10	14:35:08	236463	60d2d061fd054556769ca306	986469383	1	practice_slash	5	practice_slash	7	stimuli_distractor_diamondtriangles.svg	stimuli_target_diamondcircles.svg	8	yes	53	1	462
6.6.1	win	2022-12-14	14:31:10	14:35:08	236463	60d2d061fd054556769ca306	986469383	1	practice_slash	5	advance_on_keypress_SLASH	8	stimuli_distractor_diamondtriangles.svg	stimuli_target_diamondcircles.svg	8	yes	57	0	397
6.6.1	win	2022-12-14	14:31:10	14:35:11	239019	60d2d061fd054556769ca306	986469383	1	practice_slash	5	practice_slash	9	stimuli_target_circlediamonds.svg	stimuli_distractor_diamondtriangles.svg	1	yes	53	1	479
6.6.1	win	2022-12-14	14:31:10	14:35:11	239019	60d2d061fd054556769ca306	986469383	1	practice_slash	5	advance_on_keypress_SLASH	10	stimuli_target_circlediamonds.svg	stimuli_distractor_diamondtriangles.svg	1	yes	57	0	298
6.6.1	win	2022-12-14	14:31:10	14:35:13	241521	60d2d061fd054556769ca306	986469383	1	practice_slash	5	practice_slash	11	stimuli_distractor_diamondtriangles.svg	stimuli_target_circletriangles.svg	7	yes	53	1	538
6.6.1	win	2022-12-14	14:31:10	14:35:13	241521	60d2d061fd054556769ca306	986469383	1	practice_slash	5	advance_on_keypress_SLASH	12	stimuli_distractor_diamondtriangles.svg	stimuli_target_circletriangles.svg	7	yes	57	0	270
6.6.1	win	2022-12-14	14:31:10	14:35:16	243977	60d2d061fd054556769ca306	986469383	1	practice_slash	5	practice_slash	13	stimuli_target_circlediamonds.svg	stimuli_distractor_trianglediamonds.svg	4	yes	53	1	523
6.6.1	win	2022-12-14	14:31:10	14:35:16	243977	60d2d061fd054556769ca306	986469383	1	practice_slash	5	advance_on_keypress_SLASH	14	stimuli_target_circlediamonds.svg	stimuli_distractor_trianglediamonds.svg	4	yes	57	0	268
6.6.1	win	2022-12-14	14:31:10	14:35:18	246313	60d2d061fd054556769ca306	986469383	1	practice_slash	5	practice_slash	15	stimuli_distractor_trianglediamonds.svg	stimuli_target_diamondcircles.svg	12	yes	53	1	405
6.6.1	win	2022-12-14	14:31:10	14:35:18	246313	60d2d061fd054556769ca306	986469383	1	practice_slash	5	advance_on_keypress_SLASH	16	stimuli_distractor_trianglediamonds.svg	stimuli_target_diamondcircles.svg	12	yes	57	0	372
6.6.1	win	2022-12-14	14:31:10	14:35:20	248876	60d2d061fd054556769ca306	986469383	1	practice_slash	5	practice_slash	17	stimuli_distractor_trianglediamonds.svg	stimuli_distractor_trianglediamonds.svg	15	no	53	0	528
6.6.1	win	2022-12-14	14:31:10	14:35:20	248876	60d2d061fd054556769ca306	986469383	1	practice_slash	5	advance_on_keypress_SLASH	18	stimuli_distractor_trianglediamonds.svg	stimuli_distractor_trianglediamonds.svg	15	no	57	0	228
6.6.1	win	2022-12-14	14:31:10	14:35:23	251500	60d2d061fd054556769ca306	986469383	1	practice_slash	5	practice_slash	19	stimuli_distractor_trianglediamonds.svg	stimuli_target_circlediamonds.svg	10	yes	53	1	731
6.6.1	win	2022-12-14	14:31:10	14:35:23	251500	60d2d061fd054556769ca306	986469383	1	practice_slash	5	advance_on_keypress_SLASH	20	stimuli_distractor_trianglediamonds.svg	stimuli_target_circlediamonds.svg	10	yes	57	0	197
6.6.1	win	2022-12-14	14:31:10	14:35:25	253930	60d2d061fd054556769ca306	986469383	1	practice_slash	5	practice_slash	21	stimuli_distractor_trianglediamonds.svg	stimuli_target_squarediamonds.svg	11	yes	53	1	574
6.6.1	win	2022-12-14	14:31:10	14:35:25	253930	60d2d061fd054556769ca306	986469383	1	practice_slash	5	advance_on_keypress_SLASH	22	stimuli_distractor_trianglediamonds.svg	stimuli_target_squarediamonds.svg	11	yes	57	0	247
6.6.1	win	2022-12-14	14:31:10	14:35:28	256768	60d2d061fd054556769ca306	986469383	1	practice_slash	5	practice_slash	23	stimuli_target_diamondsquares.svg	stimuli_distractor_diamondtriangles.svg	3	yes	53	1	928
6.6.1	win	2022-12-14	14:31:10	14:35:28	256768	60d2d061fd054556769ca306	986469383	1	practice_slash	5	advance_on_keypress_SLASH	24	stimuli_target_diamondsquares.svg	stimuli_distractor_diamondtriangles.svg	3	yes	57	0	257
6.6.1	win	2022-12-14	14:31:10	14:35:31	259777	60d2d061fd054556769ca306	986469383	1	practice_slash	5	practice_slash	25	stimuli_distractor_trianglediamonds.svg	stimuli_distractor_diamondtriangles.svg	16	no	53	0	1088
6.6.1	win	2022-12-14	14:31:10	14:35:31	259777	60d2d061fd054556769ca306	986469383	1	practice_slash	5	advance_on_keypress_SLASH	26	stimuli_distractor_trianglediamonds.svg	stimuli_distractor_diamondtriangles.svg	16	no	57	0	337
6.6.1	win	2022-12-14	14:31:10	14:35:34	262343	60d2d061fd054556769ca306	986469383	1	practice_slash	5	practice_slash	27	stimuli_target_squarediamonds.svg	stimuli_distractor_trianglediamonds.svg	5	yes	53	1	565
6.6.1	win	2022-12-14	14:31:10	14:35:34	262343	60d2d061fd054556769ca306	986469383	1	practice_slash	5	advance_on_keypress_SLASH	28	stimuli_target_squarediamonds.svg	stimuli_distractor_trianglediamonds.svg	5	yes	57	0	217
6.6.1	win	2022-12-14	14:31:10	14:35:38	266201	60d2d061fd054556769ca306	986469383	1	practice_slash	5	practice_slash	29	stimuli_distractor_diamondtriangles.svg	stimuli_distractor_diamondtriangles.svg	13	no	0	1	2000
6.6.1	win	2022-12-14	14:31:10	14:35:38	266201	60d2d061fd054556769ca306	986469383	1	practice_slash	5	advance_on_keypress_SLASH	30	stimuli_distractor_diamondtriangles.svg	stimuli_distractor_diamondtriangles.svg	13	no	57	0	271
6.6.1	win	2022-12-14	14:31:10	14:35:41	269198	60d2d061fd054556769ca306	986469383	1	practice_slash	5	practice_slash	31	stimuli_target_diamondsquares.svg	stimuli_distractor_trianglediamonds.svg	6	yes	53	1	1062
6.6.1	win	2022-12-14	14:31:10	14:35:41	269198	60d2d061fd054556769ca306	986469383	1	practice_slash	5	advance_on_keypress_SLASH	32	stimuli_target_diamondsquares.svg	stimuli_distractor_trianglediamonds.svg	6	yes	57	0	255
6.6.1	win	2022-12-14	14:31:10	14:35:49	277847	60d2d061fd054556769ca306	986469383	1	main_slash	7	main_slash	1	stimuli_distractor_diamondtriangles.svg	stimuli_target_circlediamonds.svg	14	yes	53	1	450
6.6.1	win	2022-12-14	14:31:10	14:35:49	277847	60d2d061fd054556769ca306	986469383	1	main_slash	7	advance_on_keypress_SLASH	2	stimuli_distractor_diamondtriangles.svg	stimuli_target_circlediamonds.svg	14	yes	57	0	1166
6.6.1	win	2022-12-14	14:31:10	14:35:52	280361	60d2d061fd054556769ca306	986469383	1	main_slash	7	main_slash	3	stimuli_target_squarediamonds.svg	stimuli_distractor_trianglediamonds.svg	4	yes	53	1	687
6.6.1	win	2022-12-14	14:31:10	14:35:52	280361	60d2d061fd054556769ca306	986469383	1	main_slash	7	advance_on_keypress_SLASH	4	stimuli_target_squarediamonds.svg	stimuli_distractor_trianglediamonds.svg	4	yes	57	0	716
6.6.1	win	2022-12-14	14:31:10	14:35:54	282512	60d2d061fd054556769ca306	986469383	1	main_slash	7	main_slash	5	stimuli_distractor_trianglediamonds.svg	stimuli_target_diamondsquares.svg	28	yes	53	1	773
6.6.1	win	2022-12-14	14:31:10	14:35:54	282512	60d2d061fd054556769ca306	986469383	1	main_slash	7	advance_on_keypress_SLASH	6	stimuli_distractor_trianglediamonds.svg	stimuli_target_diamondsquares.svg	28	yes	57	0	1061
6.6.1	win	2022-12-14	14:31:10	14:35:57	285149	60d2d061fd054556769ca306	986469383	1	main_slash	7	main_slash	7	stimuli_target_trianglesquares.svg	stimuli_distractor_trianglediamonds.svg	18	yes	53	1	914
6.6.1	win	2022-12-14	14:31:10	14:35:57	285149	60d2d061fd054556769ca306	986469383	1	main_slash	7	advance_on_keypress_SLASH	8	stimuli_target_trianglesquares.svg	stimuli_distractor_trianglediamonds.svg	18	yes	57	0	634
6.6.1	win	2022-12-14	14:31:10	14:35:59	287001	60d2d061fd054556769ca306	986469383	1	main_slash	7	main_slash	9	stimuli_distractor_trianglediamonds.svg	stimuli_target_trianglesquares.svg	26	yes	53	1	558
6.6.1	win	2022-12-14	14:31:10	14:35:59	287001	60d2d061fd054556769ca306	986469383	1	main_slash	7	advance_on_keypress_SLASH	10	stimuli_distractor_trianglediamonds.svg	stimuli_target_trianglesquares.svg	26	yes	57	0	544
6.6.1	win	2022-12-14	14:31:10	14:36:00	288783	60d2d061fd054556769ca306	986469383	1	main_slash	7	main_slash	11	stimuli_distractor_diamondtriangles.svg	stimuli_target_circletriangles.svg	13	yes	53	1	584
6.6.1	win	2022-12-14	14:31:10	14:36:00	288783	60d2d061fd054556769ca306	986469383	1	main_slash	7	advance_on_keypress_SLASH	12	stimuli_distractor_diamondtriangles.svg	stimuli_target_circletriangles.svg	13	yes	57	0	517
6.6.1	win	2022-12-14	14:31:10	14:36:02	290488	60d2d061fd054556769ca306	986469383	1	main_slash	7	main_slash	13	stimuli_distractor_diamondtriangles.svg	stimuli_target_trianglesquares.svg	30	yes	53	1	528
6.6.1	win	2022-12-14	14:31:10	14:36:02	290488	60d2d061fd054556769ca306	986469383	1	main_slash	7	advance_on_keypress_SLASH	14	stimuli_distractor_diamondtriangles.svg	stimuli_target_trianglesquares.svg	30	yes	57	0	440
6.6.1	win	2022-12-14	14:31:10	14:36:05	293588	60d2d061fd054556769ca306	986469383	1	main_slash	7	main_slash	15	stimuli_distractor_diamondtriangles.svg	stimuli_distractor_trianglediamonds.svg	37	no	0	1	2000
6.6.1	win	2022-12-14	14:31:10	14:36:05	293588	60d2d061fd054556769ca306	986469383	1	main_slash	7	advance_on_keypress_SLASH	16	stimuli_distractor_diamondtriangles.svg	stimuli_distractor_trianglediamonds.svg	37	no	57	0	448
6.6.1	win	2022-12-14	14:31:10	14:36:07	295229	60d2d061fd054556769ca306	986469383	1	main_slash	7	main_slash	17	stimuli_distractor_trianglediamonds.svg	stimuli_target_diamondcircles.svg	27	yes	53	1	547
6.6.1	win	2022-12-14	14:31:10	14:36:07	295229	60d2d061fd054556769ca306	986469383	1	main_slash	7	advance_on_keypress_SLASH	18	stimuli_distractor_trianglediamonds.svg	stimuli_target_diamondcircles.svg	27	yes	57	0	689
6.6.1	win	2022-12-14	14:31:10	14:36:09	297194	60d2d061fd054556769ca306	986469383	1	main_slash	7	main_slash	19	stimuli_target_circletriangles.svg	stimuli_distractor_trianglediamonds.svg	1	yes	53	1	629
6.6.1	win	2022-12-14	14:31:10	14:36:09	297194	60d2d061fd054556769ca306	986469383	1	main_slash	7	advance_on_keypress_SLASH	20	stimuli_target_circletriangles.svg	stimuli_distractor_trianglediamonds.svg	1	yes	57	0	636
6.6.1	win	2022-12-14	14:31:10	14:36:11	299297	60d2d061fd054556769ca306	986469383	1	main_slash	7	main_slash	21	stimuli_target_diamondsquares.svg	stimuli_distractor_diamondtriangles.svg	24	yes	53	1	818
6.6.1	win	2022-12-14	14:31:10	14:36:11	299297	60d2d061fd054556769ca306	986469383	1	main_slash	7	advance_on_keypress_SLASH	22	stimuli_target_diamondsquares.svg	stimuli_distractor_diamondtriangles.svg	24	yes	57	0	468
6.6.1	win	2022-12-14	14:31:10	14:36:13	301164	60d2d061fd054556769ca306	986469383	1	main_slash	7	main_slash	23	stimuli_target_diamondsquares.svg	stimuli_distractor_trianglediamonds.svg	20	yes	53	1	736
6.6.1	win	2022-12-14	14:31:10	14:36:13	301164	60d2d061fd054556769ca306	986469383	1	main_slash	7	advance_on_keypress_SLASH	24	stimuli_target_diamondsquares.svg	stimuli_distractor_trianglediamonds.svg	20	yes	57	0	399
6.6.1	win	2022-12-14	14:31:10	14:36:14	302830	60d2d061fd054556769ca306	986469383	1	main_slash	7	main_slash	25	stimuli_target_trianglecircles.svg	stimuli_distractor_trianglediamonds.svg	17	yes	53	1	607
6.6.1	win	2022-12-14	14:31:10	14:36:14	302830	60d2d061fd054556769ca306	986469383	1	main_slash	7	advance_on_keypress_SLASH	26	stimuli_target_trianglecircles.svg	stimuli_distractor_trianglediamonds.svg	17	yes	57	0	456
6.6.1	win	2022-12-14	14:31:10	14:36:16	304669	60d2d061fd054556769ca306	986469383	1	main_slash	7	main_slash	27	stimuli_target_diamondcircles.svg	stimuli_distractor_trianglediamonds.svg	19	yes	53	1	710
6.6.1	win	2022-12-14	14:31:10	14:36:16	304669	60d2d061fd054556769ca306	986469383	1	main_slash	7	advance_on_keypress_SLASH	28	stimuli_target_diamondcircles.svg	stimuli_distractor_trianglediamonds.svg	19	yes	57	0	401
6.6.1	win	2022-12-14	14:31:10	14:36:18	306428	60d2d061fd054556769ca306	986469383	1	main_slash	7	main_slash	29	stimuli_distractor_trianglediamonds.svg	stimuli_target_circletriangles.svg	9	yes	53	1	697
6.6.1	win	2022-12-14	14:31:10	14:36:18	306428	60d2d061fd054556769ca306	986469383	1	main_slash	7	advance_on_keypress_SLASH	30	stimuli_distractor_trianglediamonds.svg	stimuli_target_circletriangles.svg	9	yes	57	0	422
6.6.1	win	2022-12-14	14:31:10	14:36:21	309494	60d2d061fd054556769ca306	986469383	1	main_slash	7	main_slash	31	stimuli_distractor_diamondtriangles.svg	stimuli_distractor_diamondtriangles.svg	40	no	0	1	2000
6.6.1	win	2022-12-14	14:31:10	14:36:21	309494	60d2d061fd054556769ca306	986469383	1	main_slash	7	advance_on_keypress_SLASH	32	stimuli_distractor_diamondtriangles.svg	stimuli_distractor_diamondtriangles.svg	40	no	57	0	407
6.6.1	win	2022-12-14	14:31:10	14:36:23	311651	60d2d061fd054556769ca306	986469383	1	main_slash	7	main_slash	33	stimuli_distractor_diamondtriangles.svg	stimuli_target_squarediamonds.svg	16	yes	53	1	1095
6.6.1	win	2022-12-14	14:31:10	14:36:23	311651	60d2d061fd054556769ca306	986469383	1	main_slash	7	advance_on_keypress_SLASH	34	stimuli_distractor_diamondtriangles.svg	stimuli_target_squarediamonds.svg	16	yes	57	0	452
6.6.1	win	2022-12-14	14:31:10	14:36:25	313407	60d2d061fd054556769ca306	986469383	1	main_slash	7	main_slash	35	stimuli_target_circlediamonds.svg	stimuli_distractor_diamondtriangles.svg	6	yes	53	1	644
6.6.1	win	2022-12-14	14:31:10	14:36:25	313407	60d2d061fd054556769ca306	986469383	1	main_slash	7	advance_on_keypress_SLASH	36	stimuli_target_circlediamonds.svg	stimuli_distractor_diamondtriangles.svg	6	yes	57	0	333
6.6.1	win	2022-12-14	14:31:10	14:36:27	315047	60d2d061fd054556769ca306	986469383	1	main_slash	7	main_slash	37	stimuli_distractor_diamondtriangles.svg	stimuli_target_trianglecircles.svg	29	yes	53	1	657
6.6.1	win	2022-12-14	14:31:10	14:36:27	315047	60d2d061fd054556769ca306	986469383	1	main_slash	7	advance_on_keypress_SLASH	38	stimuli_distractor_diamondtriangles.svg	stimuli_target_trianglecircles.svg	29	yes	57	0	309
6.6.1	win	2022-12-14	14:31:10	14:36:28	316698	60d2d061fd054556769ca306	986469383	1	main_slash	7	main_slash	39	stimuli_distractor_diamondtriangles.svg	stimuli_target_squaretriangles.svg	15	yes	53	1	679
6.6.1	win	2022-12-14	14:31:10	14:36:28	316698	60d2d061fd054556769ca306	986469383	1	main_slash	7	advance_on_keypress_SLASH	40	stimuli_distractor_diamondtriangles.svg	stimuli_target_squaretriangles.svg	15	yes	57	0	331
6.6.1	win	2022-12-14	14:31:10	14:36:31	319688	60d2d061fd054556769ca306	986469383	1	main_slash	7	main_slash	41	stimuli_distractor_trianglediamonds.svg	stimuli_distractor_diamondtriangles.svg	35	no	0	1	2000
6.6.1	win	2022-12-14	14:31:10	14:36:31	319688	60d2d061fd054556769ca306	986469383	1	main_slash	7	advance_on_keypress_SLASH	42	stimuli_distractor_trianglediamonds.svg	stimuli_distractor_diamondtriangles.svg	35	no	57	0	396
6.6.1	win	2022-12-14	14:31:10	14:36:33	321289	60d2d061fd054556769ca306	986469383	1	main_slash	7	main_slash	43	stimuli_target_trianglecircles.svg	stimuli_distractor_diamondtriangles.svg	21	yes	53	1	548
6.6.1	win	2022-12-14	14:31:10	14:36:33	321289	60d2d061fd054556769ca306	986469383	1	main_slash	7	advance_on_keypress_SLASH	44	stimuli_target_trianglecircles.svg	stimuli_distractor_diamondtriangles.svg	21	yes	57	0	393
6.6.1	win	2022-12-14	14:31:10	14:36:35	323362	60d2d061fd054556769ca306	986469383	1	main_slash	7	main_slash	45	stimuli_distractor_trianglediamonds.svg	stimuli_distractor_trianglediamonds.svg	34	no	53	0	1031
6.6.1	win	2022-12-14	14:31:10	14:36:35	323362	60d2d061fd054556769ca306	986469383	1	main_slash	7	advance_on_keypress_SLASH	46	stimuli_distractor_trianglediamonds.svg	stimuli_distractor_trianglediamonds.svg	34	no	57	0	358
6.6.1	win	2022-12-14	14:31:10	14:36:38	326380	60d2d061fd054556769ca306	986469383	1	main_slash	7	main_slash	47	stimuli_distractor_trianglediamonds.svg	stimuli_distractor_trianglediamonds.svg	33	no	0	1	2000
6.6.1	win	2022-12-14	14:31:10	14:36:38	326380	60d2d061fd054556769ca306	986469383	1	main_slash	7	advance_on_keypress_SLASH	48	stimuli_distractor_trianglediamonds.svg	stimuli_distractor_trianglediamonds.svg	33	no	57	0	1231
6.6.1	win	2022-12-14	14:31:10	14:36:40	328805	60d2d061fd054556769ca306	986469383	1	main_slash	7	main_slash	49	stimuli_target_squaretriangles.svg	stimuli_distractor_diamondtriangles.svg	7	yes	53	1	541
6.6.1	win	2022-12-14	14:31:10	14:36:40	328805	60d2d061fd054556769ca306	986469383	1	main_slash	7	advance_on_keypress_SLASH	50	stimuli_target_squaretriangles.svg	stimuli_distractor_diamondtriangles.svg	7	yes	57	0	325
6.6.1	win	2022-12-14	14:31:10	14:36:42	330424	60d2d061fd054556769ca306	986469383	1	main_slash	7	main_slash	51	stimuli_distractor_diamondtriangles.svg	stimuli_target_diamondsquares.svg	32	yes	53	1	655
6.6.1	win	2022-12-14	14:31:10	14:36:42	330424	60d2d061fd054556769ca306	986469383	1	main_slash	7	advance_on_keypress_SLASH	52	stimuli_distractor_diamondtriangles.svg	stimuli_target_diamondsquares.svg	32	yes	57	0	284
6.6.1	win	2022-12-14	14:31:10	14:36:43	331927	60d2d061fd054556769ca306	986469383	1	main_slash	7	main_slash	53	stimuli_distractor_trianglediamonds.svg	stimuli_target_trianglecircles.svg	25	yes	53	1	572
6.6.1	win	2022-12-14	14:31:10	14:36:43	331927	60d2d061fd054556769ca306	986469383	1	main_slash	7	advance_on_keypress_SLASH	54	stimuli_distractor_trianglediamonds.svg	stimuli_target_trianglecircles.svg	25	yes	57	0	227
6.6.1	win	2022-12-14	14:31:10	14:36:45	333454	60d2d061fd054556769ca306	986469383	1	main_slash	7	main_slash	55	stimuli_distractor_diamondtriangles.svg	stimuli_target_diamondcircles.svg	31	yes	53	1	641
6.6.1	win	2022-12-14	14:31:10	14:36:45	333454	60d2d061fd054556769ca306	986469383	1	main_slash	7	advance_on_keypress_SLASH	56	stimuli_distractor_diamondtriangles.svg	stimuli_target_diamondcircles.svg	31	yes	57	0	295
6.6.1	win	2022-12-14	14:31:10	14:36:47	335107	60d2d061fd054556769ca306	986469383	1	main_slash	7	main_slash	57	stimuli_target_diamondcircles.svg	stimuli_distractor_diamondtriangles.svg	23	yes	53	1	706
6.6.1	win	2022-12-14	14:31:10	14:36:47	335107	60d2d061fd054556769ca306	986469383	1	main_slash	7	advance_on_keypress_SLASH	58	stimuli_target_diamondcircles.svg	stimuli_distractor_diamondtriangles.svg	23	yes	57	0	199
6.6.1	win	2022-12-14	14:31:10	14:36:50	337963	60d2d061fd054556769ca306	986469383	1	main_slash	7	main_slash	59	stimuli_distractor_diamondtriangles.svg	stimuli_distractor_diamondtriangles.svg	39	no	0	1	2000
6.6.1	win	2022-12-14	14:31:10	14:36:50	337963	60d2d061fd054556769ca306	986469383	1	main_slash	7	advance_on_keypress_SLASH	60	stimuli_distractor_diamondtriangles.svg	stimuli_distractor_diamondtriangles.svg	39	no	57	0	555
6.6.1	win	2022-12-14	14:31:10	14:36:51	339784	60d2d061fd054556769ca306	986469383	1	main_slash	7	main_slash	61	stimuli_target_circletriangles.svg	stimuli_distractor_diamondtriangles.svg	5	yes	53	1	606
6.6.1	win	2022-12-14	14:31:10	14:36:51	339784	60d2d061fd054556769ca306	986469383	1	main_slash	7	advance_on_keypress_SLASH	62	stimuli_target_circletriangles.svg	stimuli_distractor_diamondtriangles.svg	5	yes	57	0	183
6.6.1	win	2022-12-14	14:31:10	14:36:53	341203	60d2d061fd054556769ca306	986469383	1	main_slash	7	main_slash	63	stimuli_target_squaretriangles.svg	stimuli_distractor_trianglediamonds.svg	3	yes	53	1	586
6.6.1	win	2022-12-14	14:31:10	14:36:53	341203	60d2d061fd054556769ca306	986469383	1	main_slash	7	advance_on_keypress_SLASH	64	stimuli_target_squaretriangles.svg	stimuli_distractor_trianglediamonds.svg	3	yes	57	0	238
6.6.1	win	2022-12-14	14:31:10	14:36:56	344099	60d2d061fd054556769ca306	986469383	1	main_slash	7	main_slash	65	stimuli_distractor_diamondtriangles.svg	stimuli_distractor_trianglediamonds.svg	38	no	0	1	2000
6.6.1	win	2022-12-14	14:31:10	14:36:56	344099	60d2d061fd054556769ca306	986469383	1	main_slash	7	advance_on_keypress_SLASH	66	stimuli_distractor_diamondtriangles.svg	stimuli_distractor_trianglediamonds.svg	38	no	57	0	360
6.6.1	win	2022-12-14	14:31:10	14:36:59	347116	60d2d061fd054556769ca306	986469383	1	main_slash	7	main_slash	67	stimuli_distractor_trianglediamonds.svg	stimuli_distractor_diamondtriangles.svg	36	no	0	1	2000
6.6.1	win	2022-12-14	14:31:10	14:36:59	347116	60d2d061fd054556769ca306	986469383	1	main_slash	7	advance_on_keypress_SLASH	68	stimuli_distractor_trianglediamonds.svg	stimuli_distractor_diamondtriangles.svg	36	no	57	0	466
6.6.1	win	2022-12-14	14:31:10	14:37:00	348874	60d2d061fd054556769ca306	986469383	1	main_slash	7	main_slash	69	stimuli_distractor_trianglediamonds.svg	stimuli_target_squarediamonds.svg	12	yes	53	1	648
6.6.1	win	2022-12-14	14:31:10	14:37:00	348874	60d2d061fd054556769ca306	986469383	1	main_slash	7	advance_on_keypress_SLASH	70	stimuli_distractor_trianglediamonds.svg	stimuli_target_squarediamonds.svg	12	yes	57	0	234
6.6.1	win	2022-12-14	14:31:10	14:37:02	350311	60d2d061fd054556769ca306	986469383	1	main_slash	7	main_slash	71	stimuli_distractor_trianglediamonds.svg	stimuli_target_circlediamonds.svg	10	yes	53	1	568
6.6.1	win	2022-12-14	14:31:10	14:37:02	350311	60d2d061fd054556769ca306	986469383	1	main_slash	7	advance_on_keypress_SLASH	72	stimuli_distractor_trianglediamonds.svg	stimuli_target_circlediamonds.svg	10	yes	57	0	240
6.6.1	win	2022-12-14	14:31:10	14:37:03	351863	60d2d061fd054556769ca306	986469383	1	main_slash	7	main_slash	73	stimuli_distractor_trianglediamonds.svg	stimuli_target_squaretriangles.svg	11	yes	53	1	671
6.6.1	win	2022-12-14	14:31:10	14:37:03	351863	60d2d061fd054556769ca306	986469383	1	main_slash	7	advance_on_keypress_SLASH	74	stimuli_distractor_trianglediamonds.svg	stimuli_target_squaretriangles.svg	11	yes	57	0	205
6.6.1	win	2022-12-14	14:31:10	14:37:05	353447	60d2d061fd054556769ca306	986469383	1	main_slash	7	main_slash	75	stimuli_target_squarediamonds.svg	stimuli_distractor_diamondtriangles.svg	8	yes	53	1	729
6.6.1	win	2022-12-14	14:31:10	14:37:05	353447	60d2d061fd054556769ca306	986469383	1	main_slash	7	advance_on_keypress_SLASH	76	stimuli_target_squarediamonds.svg	stimuli_distractor_diamondtriangles.svg	8	yes	57	0	167
6.6.1	win	2022-12-14	14:31:10	14:37:07	354948	60d2d061fd054556769ca306	986469383	1	main_slash	7	main_slash	77	stimuli_target_trianglesquares.svg	stimuli_distractor_diamondtriangles.svg	22	yes	53	1	679
6.6.1	win	2022-12-14	14:31:10	14:37:07	354948	60d2d061fd054556769ca306	986469383	1	main_slash	7	advance_on_keypress_SLASH	78	stimuli_target_trianglesquares.svg	stimuli_distractor_diamondtriangles.svg	22	yes	57	0	184
6.6.1	win	2022-12-14	14:31:10	14:37:08	356447	60d2d061fd054556769ca306	986469383	1	main_slash	7	main_slash	79	stimuli_target_circlediamonds.svg	stimuli_distractor_trianglediamonds.svg	2	yes	53	1	676
6.6.1	win	2022-12-14	14:31:10	14:37:08	356447	60d2d061fd054556769ca306	986469383	1	main_slash	7	advance_on_keypress_SLASH	80	stimuli_target_circlediamonds.svg	stimuli_distractor_trianglediamonds.svg	2	yes	57	0	259
6.6.1	win	2022-12-14	14:31:10	14:37:11	359366	60d2d061fd054556769ca306	986469383	1	main_slash	7	main_slash	81	stimuli_distractor_diamondtriangles.svg	stimuli_distractor_diamondtriangles.svg	40	no	0	1	2000
6.6.1	win	2022-12-14	14:31:10	14:37:11	359366	60d2d061fd054556769ca306	986469383	1	main_slash	7	advance_on_keypress_SLASH	82	stimuli_distractor_diamondtriangles.svg	stimuli_distractor_diamondtriangles.svg	40	no	57	0	526
6.6.1	win	2022-12-14	14:31:10	14:37:13	361111	60d2d061fd054556769ca306	986469383	1	main_slash	7	main_slash	83	stimuli_target_trianglecircles.svg	stimuli_distractor_trianglediamonds.svg	17	yes	53	1	569
6.6.1	win	2022-12-14	14:31:10	14:37:13	361111	60d2d061fd054556769ca306	986469383	1	main_slash	7	advance_on_keypress_SLASH	84	stimuli_target_trianglecircles.svg	stimuli_distractor_trianglediamonds.svg	17	yes	57	0	260
6.6.1	win	2022-12-14	14:31:10	14:37:14	362584	60d2d061fd054556769ca306	986469383	1	main_slash	7	main_slash	85	stimuli_target_squaretriangles.svg	stimuli_distractor_trianglediamonds.svg	3	yes	53	1	562
6.6.1	win	2022-12-14	14:31:10	14:37:14	362584	60d2d061fd054556769ca306	986469383	1	main_slash	7	advance_on_keypress_SLASH	86	stimuli_target_squaretriangles.svg	stimuli_distractor_trianglediamonds.svg	3	yes	57	0	293
6.6.1	win	2022-12-14	14:31:10	14:37:17	365519	60d2d061fd054556769ca306	986469383	1	main_slash	7	main_slash	87	stimuli_distractor_trianglediamonds.svg	stimuli_distractor_diamondtriangles.svg	35	no	0	1	2000
6.6.1	win	2022-12-14	14:31:10	14:37:17	365519	60d2d061fd054556769ca306	986469383	1	main_slash	7	advance_on_keypress_SLASH	88	stimuli_distractor_trianglediamonds.svg	stimuli_distractor_diamondtriangles.svg	35	no	57	0	397
6.6.1	win	2022-12-14	14:31:10	14:37:19	367056	60d2d061fd054556769ca306	986469383	1	main_slash	7	main_slash	89	stimuli_target_trianglecircles.svg	stimuli_distractor_diamondtriangles.svg	21	yes	53	1	494
6.6.1	win	2022-12-14	14:31:10	14:37:19	367056	60d2d061fd054556769ca306	986469383	1	main_slash	7	advance_on_keypress_SLASH	90	stimuli_target_trianglecircles.svg	stimuli_distractor_diamondtriangles.svg	21	yes	57	0	194
6.6.1	win	2022-12-14	14:31:10	14:37:20	368420	60d2d061fd054556769ca306	986469383	1	main_slash	7	main_slash	91	stimuli_distractor_trianglediamonds.svg	stimuli_target_trianglesquares.svg	26	yes	53	1	518
6.6.1	win	2022-12-14	14:31:10	14:37:20	368420	60d2d061fd054556769ca306	986469383	1	main_slash	7	advance_on_keypress_SLASH	92	stimuli_distractor_trianglediamonds.svg	stimuli_target_trianglesquares.svg	26	yes	57	0	205
6.6.1	win	2022-12-14	14:31:10	14:37:21	369929	60d2d061fd054556769ca306	986469383	1	main_slash	7	main_slash	93	stimuli_distractor_diamondtriangles.svg	stimuli_target_circlediamonds.svg	14	yes	53	1	659
6.6.1	win	2022-12-14	14:31:10	14:37:21	369929	60d2d061fd054556769ca306	986469383	1	main_slash	7	advance_on_keypress_SLASH	94	stimuli_distractor_diamondtriangles.svg	stimuli_target_circlediamonds.svg	14	yes	57	0	321
6.6.1	win	2022-12-14	14:31:10	14:37:23	371399	60d2d061fd054556769ca306	986469383	1	main_slash	7	main_slash	95	stimuli_target_squarediamonds.svg	stimuli_distractor_diamondtriangles.svg	8	yes	53	1	497
6.6.1	win	2022-12-14	14:31:10	14:37:23	371399	60d2d061fd054556769ca306	986469383	1	main_slash	7	advance_on_keypress_SLASH	96	stimuli_target_squarediamonds.svg	stimuli_distractor_diamondtriangles.svg	8	yes	57	0	222
6.6.1	win	2022-12-14	14:31:10	14:37:24	372909	60d2d061fd054556769ca306	986469383	1	main_slash	7	main_slash	97	stimuli_distractor_diamondtriangles.svg	stimuli_target_diamondcircles.svg	31	yes	53	1	640
6.6.1	win	2022-12-14	14:31:10	14:37:24	372909	60d2d061fd054556769ca306	986469383	1	main_slash	7	advance_on_keypress_SLASH	98	stimuli_distractor_diamondtriangles.svg	stimuli_target_diamondcircles.svg	31	yes	57	0	159
6.6.1	win	2022-12-14	14:31:10	14:37:27	375722	60d2d061fd054556769ca306	986469383	1	main_slash	7	main_slash	99	stimuli_distractor_diamondtriangles.svg	stimuli_distractor_diamondtriangles.svg	39	no	0	1	2000
6.6.1	win	2022-12-14	14:31:10	14:37:27	375722	60d2d061fd054556769ca306	986469383	1	main_slash	7	advance_on_keypress_SLASH	100	stimuli_distractor_diamondtriangles.svg	stimuli_distractor_diamondtriangles.svg	39	no	57	0	467
6.6.1	win	2022-12-14	14:31:10	14:37:29	377334	60d2d061fd054556769ca306	986469383	1	main_slash	7	main_slash	101	stimuli_target_circlediamonds.svg	stimuli_distractor_diamondtriangles.svg	6	yes	53	1	497
6.6.1	win	2022-12-14	14:31:10	14:37:29	377334	60d2d061fd054556769ca306	986469383	1	main_slash	7	advance_on_keypress_SLASH	102	stimuli_target_circlediamonds.svg	stimuli_distractor_diamondtriangles.svg	6	yes	57	0	187
6.6.1	win	2022-12-14	14:31:10	14:37:31	379059	60d2d061fd054556769ca306	986469383	1	main_slash	7	main_slash	103	stimuli_distractor_trianglediamonds.svg	stimuli_distractor_diamondtriangles.svg	36	no	53	0	889
6.6.1	win	2022-12-14	14:31:10	14:37:31	379059	60d2d061fd054556769ca306	986469383	1	main_slash	7	advance_on_keypress_SLASH	104	stimuli_distractor_trianglediamonds.svg	stimuli_distractor_diamondtriangles.svg	36	no	57	0	577
6.6.1	win	2022-12-14	14:31:10	14:37:32	380826	60d2d061fd054556769ca306	986469383	1	main_slash	7	main_slash	105	stimuli_distractor_trianglediamonds.svg	stimuli_target_diamondcircles.svg	27	yes	53	1	530
6.6.1	win	2022-12-14	14:31:10	14:37:32	380826	60d2d061fd054556769ca306	986469383	1	main_slash	7	advance_on_keypress_SLASH	106	stimuli_distractor_trianglediamonds.svg	stimuli_target_diamondcircles.svg	27	yes	57	0	173
6.6.1	win	2022-12-14	14:31:10	14:37:34	382233	60d2d061fd054556769ca306	986469383	1	main_slash	7	main_slash	107	stimuli_distractor_diamondtriangles.svg	stimuli_target_diamondsquares.svg	32	yes	53	1	579
6.6.1	win	2022-12-14	14:31:10	14:37:34	382233	60d2d061fd054556769ca306	986469383	1	main_slash	7	advance_on_keypress_SLASH	108	stimuli_distractor_diamondtriangles.svg	stimuli_target_diamondsquares.svg	32	yes	57	0	137
6.6.1	win	2022-12-14	14:31:10	14:37:35	383702	60d2d061fd054556769ca306	986469383	1	main_slash	7	main_slash	109	stimuli_distractor_diamondtriangles.svg	stimuli_target_squaretriangles.svg	15	yes	53	1	687
6.6.1	win	2022-12-14	14:31:10	14:37:35	383702	60d2d061fd054556769ca306	986469383	1	main_slash	7	advance_on_keypress_SLASH	110	stimuli_distractor_diamondtriangles.svg	stimuli_target_squaretriangles.svg	15	yes	57	0	260
6.6.1	win	2022-12-14	14:31:10	14:37:37	385445	60d2d061fd054556769ca306	986469383	1	main_slash	7	main_slash	111	stimuli_target_diamondsquares.svg	stimuli_distractor_diamondtriangles.svg	24	yes	53	1	822
6.6.1	win	2022-12-14	14:31:10	14:37:37	385445	60d2d061fd054556769ca306	986469383	1	main_slash	7	advance_on_keypress_SLASH	112	stimuli_target_diamondsquares.svg	stimuli_distractor_diamondtriangles.svg	24	yes	57	0	145
6.6.1	win	2022-12-14	14:31:10	14:37:39	387407	60d2d061fd054556769ca306	986469383	1	main_slash	7	main_slash	113	stimuli_distractor_diamondtriangles.svg	stimuli_target_squarediamonds.svg	16	yes	53	1	1157
6.6.1	win	2022-12-14	14:31:10	14:37:39	387407	60d2d061fd054556769ca306	986469383	1	main_slash	7	advance_on_keypress_SLASH	114	stimuli_distractor_diamondtriangles.svg	stimuli_target_squarediamonds.svg	16	yes	57	0	179
6.6.1	win	2022-12-14	14:31:10	14:37:40	388907	60d2d061fd054556769ca306	986469383	1	main_slash	7	main_slash	115	stimuli_target_circletriangles.svg	stimuli_distractor_trianglediamonds.svg	1	yes	53	1	661
6.6.1	win	2022-12-14	14:31:10	14:37:40	388907	60d2d061fd054556769ca306	986469383	1	main_slash	7	advance_on_keypress_SLASH	116	stimuli_target_circletriangles.svg	stimuli_distractor_trianglediamonds.svg	1	yes	57	0	215
6.6.1	win	2022-12-14	14:31:10	14:37:43	391759	60d2d061fd054556769ca306	986469383	1	main_slash	7	main_slash	117	stimuli_distractor_diamondtriangles.svg	stimuli_distractor_trianglediamonds.svg	38	no	0	1	2000
6.6.1	win	2022-12-14	14:31:10	14:37:43	391759	60d2d061fd054556769ca306	986469383	1	main_slash	7	advance_on_keypress_SLASH	118	stimuli_distractor_diamondtriangles.svg	stimuli_distractor_trianglediamonds.svg	38	no	57	0	377
6.6.1	win	2022-12-14	14:31:10	14:37:46	394791	60d2d061fd054556769ca306	986469383	1	main_slash	7	main_slash	119	stimuli_distractor_trianglediamonds.svg	stimuli_distractor_trianglediamonds.svg	33	no	0	1	2000
6.6.1	win	2022-12-14	14:31:10	14:37:46	394791	60d2d061fd054556769ca306	986469383	1	main_slash	7	advance_on_keypress_SLASH	120	stimuli_distractor_trianglediamonds.svg	stimuli_distractor_trianglediamonds.svg	33	no	57	0	383
6.6.1	win	2022-12-14	14:31:10	14:37:48	396322	60d2d061fd054556769ca306	986469383	1	main_slash	7	main_slash	121	stimuli_target_trianglesquares.svg	stimuli_distractor_trianglediamonds.svg	18	yes	53	1	497
6.6.1	win	2022-12-14	14:31:10	14:37:48	396322	60d2d061fd054556769ca306	986469383	1	main_slash	7	advance_on_keypress_SLASH	122	stimuli_target_trianglesquares.svg	stimuli_distractor_trianglediamonds.svg	18	yes	57	0	120
6.6.1	win	2022-12-14	14:31:10	14:37:51	399081	60d2d061fd054556769ca306	986469383	1	main_slash	7	main_slash	123	stimuli_distractor_diamondtriangles.svg	stimuli_distractor_trianglediamonds.svg	37	no	0	1	2000
6.6.1	win	2022-12-14	14:31:10	14:37:51	399081	60d2d061fd054556769ca306	986469383	1	main_slash	7	advance_on_keypress_SLASH	124	stimuli_distractor_diamondtriangles.svg	stimuli_distractor_trianglediamonds.svg	37	no	57	0	380
6.6.1	win	2022-12-14	14:31:10	14:37:52	400617	60d2d061fd054556769ca306	986469383	1	main_slash	7	main_slash	125	stimuli_target_diamondcircles.svg	stimuli_distractor_diamondtriangles.svg	23	yes	53	1	498
6.6.1	win	2022-12-14	14:31:10	14:37:52	400617	60d2d061fd054556769ca306	986469383	1	main_slash	7	advance_on_keypress_SLASH	126	stimuli_target_diamondcircles.svg	stimuli_distractor_diamondtriangles.svg	23	yes	57	0	140
6.6.1	win	2022-12-14	14:31:10	14:37:54	402043	60d2d061fd054556769ca306	986469383	1	main_slash	7	main_slash	127	stimuli_distractor_trianglediamonds.svg	stimuli_target_diamondsquares.svg	28	yes	53	1	652
6.6.1	win	2022-12-14	14:31:10	14:37:54	402043	60d2d061fd054556769ca306	986469383	1	main_slash	7	advance_on_keypress_SLASH	128	stimuli_distractor_trianglediamonds.svg	stimuli_target_diamondsquares.svg	28	yes	57	0	107
6.6.1	win	2022-12-14	14:31:10	14:37:55	403409	60d2d061fd054556769ca306	986469383	1	main_slash	7	main_slash	129	stimuli_distractor_diamondtriangles.svg	stimuli_target_trianglecircles.svg	29	yes	53	1	586
6.6.1	win	2022-12-14	14:31:10	14:37:55	403409	60d2d061fd054556769ca306	986469383	1	main_slash	7	advance_on_keypress_SLASH	130	stimuli_distractor_diamondtriangles.svg	stimuli_target_trianglecircles.svg	29	yes	57	0	96
6.6.1	win	2022-12-14	14:31:10	14:37:56	404853	60d2d061fd054556769ca306	986469383	1	main_slash	7	main_slash	131	stimuli_target_trianglesquares.svg	stimuli_distractor_diamondtriangles.svg	22	yes	53	1	658
6.6.1	win	2022-12-14	14:31:10	14:37:56	404853	60d2d061fd054556769ca306	986469383	1	main_slash	7	advance_on_keypress_SLASH	132	stimuli_target_trianglesquares.svg	stimuli_distractor_diamondtriangles.svg	22	yes	57	0	122
6.6.1	win	2022-12-14	14:31:10	14:37:58	406279	60d2d061fd054556769ca306	986469383	1	main_slash	7	main_slash	133	stimuli_target_diamondcircles.svg	stimuli_distractor_trianglediamonds.svg	19	yes	53	1	658
6.6.1	win	2022-12-14	14:31:10	14:37:58	406279	60d2d061fd054556769ca306	986469383	1	main_slash	7	advance_on_keypress_SLASH	134	stimuli_target_diamondcircles.svg	stimuli_distractor_trianglediamonds.svg	19	yes	57	0	165
6.6.1	win	2022-12-14	14:31:10	14:37:59	407731	60d2d061fd054556769ca306	986469383	1	main_slash	7	main_slash	135	stimuli_distractor_trianglediamonds.svg	stimuli_target_squaretriangles.svg	11	yes	53	1	648
6.6.1	win	2022-12-14	14:31:10	14:37:59	407731	60d2d061fd054556769ca306	986469383	1	main_slash	7	advance_on_keypress_SLASH	136	stimuli_distractor_trianglediamonds.svg	stimuli_target_squaretriangles.svg	11	yes	57	0	137
6.6.1	win	2022-12-14	14:31:10	14:38:01	409250	60d2d061fd054556769ca306	986469383	1	main_slash	7	main_slash	137	stimuli_target_squarediamonds.svg	stimuli_distractor_trianglediamonds.svg	4	yes	53	1	736
6.6.1	win	2022-12-14	14:31:10	14:38:01	409250	60d2d061fd054556769ca306	986469383	1	main_slash	7	advance_on_keypress_SLASH	138	stimuli_target_squarediamonds.svg	stimuli_distractor_trianglediamonds.svg	4	yes	57	0	51
6.6.1	win	2022-12-14	14:31:10	14:38:02	410630	60d2d061fd054556769ca306	986469383	1	main_slash	7	main_slash	139	stimuli_distractor_diamondtriangles.svg	stimuli_target_trianglesquares.svg	30	yes	53	1	674
6.6.1	win	2022-12-14	14:31:10	14:38:02	410630	60d2d061fd054556769ca306	986469383	1	main_slash	7	advance_on_keypress_SLASH	140	stimuli_distractor_diamondtriangles.svg	stimuli_target_trianglesquares.svg	30	yes	57	0	200
6.6.1	win	2022-12-14	14:31:10	14:38:04	412216	60d2d061fd054556769ca306	986469383	1	main_slash	7	main_slash	141	stimuli_distractor_trianglediamonds.svg	stimuli_target_circletriangles.svg	9	yes	53	1	730
6.6.1	win	2022-12-14	14:31:10	14:38:04	412216	60d2d061fd054556769ca306	986469383	1	main_slash	7	advance_on_keypress_SLASH	142	stimuli_distractor_trianglediamonds.svg	stimuli_target_circletriangles.svg	9	yes	57	0	121
6.6.1	win	2022-12-14	14:31:10	14:38:05	413707	60d2d061fd054556769ca306	986469383	1	main_slash	7	main_slash	143	stimuli_distractor_trianglediamonds.svg	stimuli_target_trianglecircles.svg	25	yes	53	1	719
6.6.1	win	2022-12-14	14:31:10	14:38:05	413707	60d2d061fd054556769ca306	986469383	1	main_slash	7	advance_on_keypress_SLASH	144	stimuli_distractor_trianglediamonds.svg	stimuli_target_trianglecircles.svg	25	yes	57	0	50
6.6.1	win	2022-12-14	14:31:10	14:38:07	415057	60d2d061fd054556769ca306	986469383	1	main_slash	7	main_slash	145	stimuli_target_circlediamonds.svg	stimuli_distractor_trianglediamonds.svg	2	yes	53	1	646
6.6.1	win	2022-12-14	14:31:10	14:38:07	415057	60d2d061fd054556769ca306	986469383	1	main_slash	7	advance_on_keypress_SLASH	146	stimuli_target_circlediamonds.svg	stimuli_distractor_trianglediamonds.svg	2	yes	57	0	168
6.6.1	win	2022-12-14	14:31:10	14:38:09	417859	60d2d061fd054556769ca306	986469383	1	main_slash	7	main_slash	147	stimuli_distractor_trianglediamonds.svg	stimuli_distractor_trianglediamonds.svg	34	no	0	1	2000
6.6.1	win	2022-12-14	14:31:10	14:38:09	417859	60d2d061fd054556769ca306	986469383	1	main_slash	7	advance_on_keypress_SLASH	148	stimuli_distractor_trianglediamonds.svg	stimuli_distractor_trianglediamonds.svg	34	no	57	0	718
6.6.1	win	2022-12-14	14:31:10	14:38:11	419767	60d2d061fd054556769ca306	986469383	1	main_slash	7	main_slash	149	stimuli_distractor_trianglediamonds.svg	stimuli_target_squarediamonds.svg	12	yes	53	1	543
6.6.1	win	2022-12-14	14:31:10	14:38:11	419767	60d2d061fd054556769ca306	986469383	1	main_slash	7	advance_on_keypress_SLASH	150	stimuli_distractor_trianglediamonds.svg	stimuli_target_squarediamonds.svg	12	yes	57	0	132
6.6.1	win	2022-12-14	14:31:10	14:38:13	421172	60d2d061fd054556769ca306	986469383	1	main_slash	7	main_slash	151	stimuli_target_diamondsquares.svg	stimuli_distractor_trianglediamonds.svg	20	yes	53	1	626
6.6.1	win	2022-12-14	14:31:10	14:38:13	421172	60d2d061fd054556769ca306	986469383	1	main_slash	7	advance_on_keypress_SLASH	152	stimuli_target_diamondsquares.svg	stimuli_distractor_trianglediamonds.svg	20	yes	57	0	133
6.6.1	win	2022-12-14	14:31:10	14:38:14	422584	60d2d061fd054556769ca306	986469383	1	main_slash	7	main_slash	153	stimuli_target_circletriangles.svg	stimuli_distractor_diamondtriangles.svg	5	yes	53	1	633
6.6.1	win	2022-12-14	14:31:10	14:38:14	422584	60d2d061fd054556769ca306	986469383	1	main_slash	7	advance_on_keypress_SLASH	154	stimuli_target_circletriangles.svg	stimuli_distractor_diamondtriangles.svg	5	yes	57	0	143
6.6.1	win	2022-12-14	14:31:10	14:38:16	424000	60d2d061fd054556769ca306	986469383	1	main_slash	7	main_slash	155	stimuli_distractor_diamondtriangles.svg	stimuli_target_circletriangles.svg	13	yes	53	1	636
6.6.1	win	2022-12-14	14:31:10	14:38:16	424000	60d2d061fd054556769ca306	986469383	1	main_slash	7	advance_on_keypress_SLASH	156	stimuli_distractor_diamondtriangles.svg	stimuli_target_circletriangles.svg	13	yes	57	0	169
6.6.1	win	2022-12-14	14:31:10	14:38:17	425482	60d2d061fd054556769ca306	986469383	1	main_slash	7	main_slash	157	stimuli_target_squaretriangles.svg	stimuli_distractor_diamondtriangles.svg	7	yes	53	1	662
6.6.1	win	2022-12-14	14:31:10	14:38:17	425482	60d2d061fd054556769ca306	986469383	1	main_slash	7	advance_on_keypress_SLASH	158	stimuli_target_squaretriangles.svg	stimuli_distractor_diamondtriangles.svg	7	yes	57	0	141
6.6.1	win	2022-12-14	14:31:10	14:38:19	426953	60d2d061fd054556769ca306	986469383	1	main_slash	7	main_slash	159	stimuli_distractor_trianglediamonds.svg	stimuli_target_circlediamonds.svg	10	yes	53	1	688
6.6.1	win	2022-12-14	14:31:10	14:38:19	426953	60d2d061fd054556769ca306	986469383	1	main_slash	7	advance_on_keypress_SLASH	160	stimuli_distractor_trianglediamonds.svg	stimuli_target_circlediamonds.svg	10	yes	57	0	137
6.6.1	win	2022-12-14	14:31:10	14:38:31	439922	60d2d061fd054556769ca306	986469383	1	practice_z	9	practice_z	1	stimuli_distractor_diamondtriangles.svg	stimuli_target_diamondcircles.svg	8	yes	44	1	459
6.6.1	win	2022-12-14	14:31:10	14:38:31	439922	60d2d061fd054556769ca306	986469383	1	practice_z	9	advance_on_keypress_ZEE	2	stimuli_distractor_diamondtriangles.svg	stimuli_target_diamondcircles.svg	8	yes	57	0	477
6.6.1	win	2022-12-14	14:31:10	14:38:34	442567	60d2d061fd054556769ca306	986469383	1	practice_z	9	practice_z	3	stimuli_distractor_trianglediamonds.svg	stimuli_target_circlediamonds.svg	10	yes	44	1	505
6.6.1	win	2022-12-14	14:31:10	14:38:34	442567	60d2d061fd054556769ca306	986469383	1	practice_z	9	advance_on_keypress_ZEE	4	stimuli_distractor_trianglediamonds.svg	stimuli_target_circlediamonds.svg	10	yes	57	0	507
6.6.1	win	2022-12-14	14:31:10	14:38:38	446754	60d2d061fd054556769ca306	986469383	1	practice_z	9	practice_z	5	stimuli_distractor_diamondtriangles.svg	stimuli_distractor_diamondtriangles.svg	13	no	0	1	2000
6.6.1	win	2022-12-14	14:31:10	14:38:38	446754	60d2d061fd054556769ca306	986469383	1	practice_z	9	advance_on_keypress_ZEE	6	stimuli_distractor_diamondtriangles.svg	stimuli_distractor_diamondtriangles.svg	13	no	57	0	379
6.6.1	win	2022-12-14	14:31:10	14:38:41	449399	60d2d061fd054556769ca306	986469383	1	practice_z	9	practice_z	7	stimuli_target_diamondsquares.svg	stimuli_distractor_diamondtriangles.svg	3	yes	44	1	601
6.6.1	win	2022-12-14	14:31:10	14:38:41	449399	60d2d061fd054556769ca306	986469383	1	practice_z	9	advance_on_keypress_ZEE	8	stimuli_target_diamondsquares.svg	stimuli_distractor_diamondtriangles.svg	3	yes	57	0	501
6.6.1	win	2022-12-14	14:31:10	14:38:44	452225	60d2d061fd054556769ca306	986469383	1	practice_z	9	practice_z	9	stimuli_distractor_trianglediamonds.svg	stimuli_target_squarediamonds.svg	11	yes	44	1	661
6.6.1	win	2022-12-14	14:31:10	14:38:44	452225	60d2d061fd054556769ca306	986469383	1	practice_z	9	advance_on_keypress_ZEE	10	stimuli_distractor_trianglediamonds.svg	stimuli_target_squarediamonds.svg	11	yes	57	0	505
6.6.1	win	2022-12-14	14:31:10	14:38:48	456392	60d2d061fd054556769ca306	986469383	1	practice_z	9	practice_z	11	stimuli_distractor_diamondtriangles.svg	stimuli_distractor_trianglediamonds.svg	14	no	0	1	2000
6.6.1	win	2022-12-14	14:31:10	14:38:48	456392	60d2d061fd054556769ca306	986469383	1	practice_z	9	advance_on_keypress_ZEE	12	stimuli_distractor_diamondtriangles.svg	stimuli_distractor_trianglediamonds.svg	14	no	57	0	406
6.6.1	win	2022-12-14	14:31:10	14:38:52	460445	60d2d061fd054556769ca306	986469383	1	practice_z	9	practice_z	13	stimuli_distractor_trianglediamonds.svg	stimuli_distractor_diamondtriangles.svg	16	no	0	1	2000
6.6.1	win	2022-12-14	14:31:10	14:38:52	460445	60d2d061fd054556769ca306	986469383	1	practice_z	9	advance_on_keypress_ZEE	14	stimuli_distractor_trianglediamonds.svg	stimuli_distractor_diamondtriangles.svg	16	no	57	0	368
6.6.1	win	2022-12-14	14:31:10	14:38:55	463104	60d2d061fd054556769ca306	986469383	1	practice_z	9	practice_z	15	stimuli_target_circlediamonds.svg	stimuli_distractor_trianglediamonds.svg	4	yes	44	1	629
6.6.1	win	2022-12-14	14:31:10	14:38:55	463104	60d2d061fd054556769ca306	986469383	1	practice_z	9	advance_on_keypress_ZEE	16	stimuli_target_circlediamonds.svg	stimuli_distractor_trianglediamonds.svg	4	yes	57	0	490
6.6.1	win	2022-12-14	14:31:10	14:38:58	466028	60d2d061fd054556769ca306	986469383	1	practice_z	9	practice_z	17	stimuli_target_squarediamonds.svg	stimuli_distractor_diamondtriangles.svg	2	yes	44	1	769
6.6.1	win	2022-12-14	14:31:10	14:38:58	466028	60d2d061fd054556769ca306	986469383	1	practice_z	9	advance_on_keypress_ZEE	18	stimuli_target_squarediamonds.svg	stimuli_distractor_diamondtriangles.svg	2	yes	57	0	687
6.6.1	win	2022-12-14	14:31:10	14:39:02	470380	60d2d061fd054556769ca306	986469383	1	practice_z	9	practice_z	19	stimuli_distractor_trianglediamonds.svg	stimuli_distractor_trianglediamonds.svg	15	no	0	1	2000
6.6.1	win	2022-12-14	14:31:10	14:39:02	470380	60d2d061fd054556769ca306	986469383	1	practice_z	9	advance_on_keypress_ZEE	20	stimuli_distractor_trianglediamonds.svg	stimuli_distractor_trianglediamonds.svg	15	no	57	0	397
6.6.1	win	2022-12-14	14:31:10	14:39:05	473292	60d2d061fd054556769ca306	986469383	1	practice_z	9	practice_z	21	stimuli_distractor_diamondtriangles.svg	stimuli_target_circletriangles.svg	7	yes	44	1	853
6.6.1	win	2022-12-14	14:31:10	14:39:05	473292	60d2d061fd054556769ca306	986469383	1	practice_z	9	advance_on_keypress_ZEE	22	stimuli_distractor_diamondtriangles.svg	stimuli_target_circletriangles.svg	7	yes	57	0	408
6.6.1	win	2022-12-14	14:31:10	14:39:08	476128	60d2d061fd054556769ca306	986469383	1	practice_z	9	practice_z	23	stimuli_target_diamondsquares.svg	stimuli_distractor_trianglediamonds.svg	6	yes	44	1	763
6.6.1	win	2022-12-14	14:31:10	14:39:08	476128	60d2d061fd054556769ca306	986469383	1	practice_z	9	advance_on_keypress_ZEE	24	stimuli_target_diamondsquares.svg	stimuli_distractor_trianglediamonds.svg	6	yes	57	0	588
6.6.1	win	2022-12-14	14:31:10	14:39:11	479112	60d2d061fd054556769ca306	986469383	1	practice_z	9	practice_z	25	stimuli_target_circlediamonds.svg	stimuli_distractor_diamondtriangles.svg	1	yes	44	1	732
6.6.1	win	2022-12-14	14:31:10	14:39:11	479112	60d2d061fd054556769ca306	986469383	1	practice_z	9	advance_on_keypress_ZEE	26	stimuli_target_circlediamonds.svg	stimuli_distractor_diamondtriangles.svg	1	yes	57	0	418
6.6.1	win	2022-12-14	14:31:10	14:39:13	481710	60d2d061fd054556769ca306	986469383	1	practice_z	9	practice_z	27	stimuli_distractor_trianglediamonds.svg	stimuli_target_diamondcircles.svg	12	yes	44	1	517
6.6.1	win	2022-12-14	14:31:10	14:39:13	481710	60d2d061fd054556769ca306	986469383	1	practice_z	9	advance_on_keypress_ZEE	28	stimuli_distractor_trianglediamonds.svg	stimuli_target_diamondcircles.svg	12	yes	57	0	407
6.6.1	win	2022-12-14	14:31:10	14:39:16	484389	60d2d061fd054556769ca306	986469383	1	practice_z	9	practice_z	29	stimuli_distractor_diamondtriangles.svg	stimuli_target_trianglecircles.svg	9	yes	44	1	610
6.6.1	win	2022-12-14	14:31:10	14:39:16	484389	60d2d061fd054556769ca306	986469383	1	practice_z	9	advance_on_keypress_ZEE	30	stimuli_distractor_diamondtriangles.svg	stimuli_target_trianglecircles.svg	9	yes	57	0	460
6.6.1	win	2022-12-14	14:31:10	14:39:19	487097	60d2d061fd054556769ca306	986469383	1	practice_z	9	practice_z	31	stimuli_target_squarediamonds.svg	stimuli_distractor_trianglediamonds.svg	5	yes	44	1	584
6.6.1	win	2022-12-14	14:31:10	14:39:19	487097	60d2d061fd054556769ca306	986469383	1	practice_z	9	advance_on_keypress_ZEE	32	stimuli_target_squarediamonds.svg	stimuli_distractor_trianglediamonds.svg	5	yes	57	0	370
6.6.1	win	2022-12-14	14:31:10	14:39:22	490660	60d2d061fd054556769ca306	986469383	1	main_z	11	main_z	1	stimuli_target_circletriangles.svg	stimuli_distractor_trianglediamonds.svg	1	yes	44	1	416
6.6.1	win	2022-12-14	14:31:10	14:39:22	490660	60d2d061fd054556769ca306	986469383	1	main_z	11	advance_on_keypress_ZEE	2	stimuli_target_circletriangles.svg	stimuli_distractor_trianglediamonds.svg	1	yes	57	0	569
6.6.1	win	2022-12-14	14:31:10	14:39:25	493891	60d2d061fd054556769ca306	986469383	1	main_z	11	main_z	3	stimuli_distractor_trianglediamonds.svg	stimuli_distractor_trianglediamonds.svg	34	no	0	1	2000
6.6.1	win	2022-12-14	14:31:10	14:39:25	493891	60d2d061fd054556769ca306	986469383	1	main_z	11	advance_on_keypress_ZEE	4	stimuli_distractor_trianglediamonds.svg	stimuli_distractor_trianglediamonds.svg	34	no	57	0	414
6.6.1	win	2022-12-14	14:31:10	14:39:27	495450	60d2d061fd054556769ca306	986469383	1	main_z	11	main_z	5	stimuli_distractor_trianglediamonds.svg	stimuli_target_circletriangles.svg	9	yes	44	1	491
6.6.1	win	2022-12-14	14:31:10	14:39:27	495450	60d2d061fd054556769ca306	986469383	1	main_z	11	advance_on_keypress_ZEE	6	stimuli_distractor_trianglediamonds.svg	stimuli_target_circletriangles.svg	9	yes	57	0	438
6.6.1	win	2022-12-14	14:31:10	14:39:29	497061	60d2d061fd054556769ca306	986469383	1	main_z	11	main_z	7	stimuli_distractor_diamondtriangles.svg	stimuli_target_circlediamonds.svg	14	yes	44	1	519
6.6.1	win	2022-12-14	14:31:10	14:39:29	497061	60d2d061fd054556769ca306	986469383	1	main_z	11	advance_on_keypress_ZEE	8	stimuli_distractor_diamondtriangles.svg	stimuli_target_circlediamonds.svg	14	yes	57	0	188
6.6.1	win	2022-12-14	14:31:10	14:39:30	498530	60d2d061fd054556769ca306	986469383	1	main_z	11	main_z	9	stimuli_target_squarediamonds.svg	stimuli_distractor_trianglediamonds.svg	4	yes	44	1	622
6.6.1	win	2022-12-14	14:31:10	14:39:30	498530	60d2d061fd054556769ca306	986469383	1	main_z	11	advance_on_keypress_ZEE	10	stimuli_target_squarediamonds.svg	stimuli_distractor_trianglediamonds.svg	4	yes	57	0	221
6.6.1	win	2022-12-14	14:31:10	14:39:32	499943	60d2d061fd054556769ca306	986469383	1	main_z	11	main_z	11	stimuli_distractor_trianglediamonds.svg	stimuli_target_squaretriangles.svg	11	yes	44	1	541
6.6.1	win	2022-12-14	14:31:10	14:39:32	499943	60d2d061fd054556769ca306	986469383	1	main_z	11	advance_on_keypress_ZEE	12	stimuli_distractor_trianglediamonds.svg	stimuli_target_squaretriangles.svg	11	yes	57	0	270
6.6.1	win	2022-12-14	14:31:10	14:39:33	501422	60d2d061fd054556769ca306	986469383	1	main_z	11	main_z	13	stimuli_target_trianglesquares.svg	stimuli_distractor_trianglediamonds.svg	18	yes	44	1	567
6.6.1	win	2022-12-14	14:31:10	14:39:33	501422	60d2d061fd054556769ca306	986469383	1	main_z	11	advance_on_keypress_ZEE	14	stimuli_target_trianglesquares.svg	stimuli_distractor_trianglediamonds.svg	18	yes	57	0	183
6.6.1	win	2022-12-14	14:31:10	14:39:34	502688	60d2d061fd054556769ca306	986469383	1	main_z	11	main_z	15	stimuli_target_diamondcircles.svg	stimuli_distractor_trianglediamonds.svg	19	yes	44	1	456
6.6.1	win	2022-12-14	14:31:10	14:39:34	502688	60d2d061fd054556769ca306	986469383	1	main_z	11	advance_on_keypress_ZEE	16	stimuli_target_diamondcircles.svg	stimuli_distractor_trianglediamonds.svg	19	yes	57	0	131
6.6.1	win	2022-12-14	14:31:10	14:39:37	505474	60d2d061fd054556769ca306	986469383	1	main_z	11	main_z	17	stimuli_distractor_diamondtriangles.svg	stimuli_distractor_diamondtriangles.svg	39	no	0	1	2000
6.6.1	win	2022-12-14	14:31:10	14:39:37	505474	60d2d061fd054556769ca306	986469383	1	main_z	11	advance_on_keypress_ZEE	18	stimuli_distractor_diamondtriangles.svg	stimuli_distractor_diamondtriangles.svg	39	no	57	0	397
6.6.1	win	2022-12-14	14:31:10	14:39:39	506998	60d2d061fd054556769ca306	986469383	1	main_z	11	main_z	19	stimuli_target_circlediamonds.svg	stimuli_distractor_diamondtriangles.svg	6	yes	44	1	468
6.6.1	win	2022-12-14	14:31:10	14:39:39	506998	60d2d061fd054556769ca306	986469383	1	main_z	11	advance_on_keypress_ZEE	20	stimuli_target_circlediamonds.svg	stimuli_distractor_diamondtriangles.svg	6	yes	57	0	105
6.6.1	win	2022-12-14	14:31:10	14:39:41	509787	60d2d061fd054556769ca306	986469383	1	main_z	11	main_z	21	stimuli_distractor_diamondtriangles.svg	stimuli_distractor_diamondtriangles.svg	40	no	0	1	2000
6.6.1	win	2022-12-14	14:31:10	14:39:41	509787	60d2d061fd054556769ca306	986469383	1	main_z	11	advance_on_keypress_ZEE	22	stimuli_distractor_diamondtriangles.svg	stimuli_distractor_diamondtriangles.svg	40	no	57	0	281
6.6.1	win	2022-12-14	14:31:10	14:39:43	511147	60d2d061fd054556769ca306	986469383	1	main_z	11	main_z	23	stimuli_target_trianglecircles.svg	stimuli_distractor_trianglediamonds.svg	17	yes	44	1	438
6.6.1	win	2022-12-14	14:31:10	14:39:43	511147	60d2d061fd054556769ca306	986469383	1	main_z	11	advance_on_keypress_ZEE	24	stimuli_target_trianglecircles.svg	stimuli_distractor_trianglediamonds.svg	17	yes	57	0	112
6.6.1	win	2022-12-14	14:31:10	14:39:44	512389	60d2d061fd054556769ca306	986469383	1	main_z	11	main_z	25	stimuli_distractor_trianglediamonds.svg	stimuli_target_trianglecircles.svg	25	yes	44	1	475
6.6.1	win	2022-12-14	14:31:10	14:39:44	512389	60d2d061fd054556769ca306	986469383	1	main_z	11	advance_on_keypress_ZEE	26	stimuli_distractor_trianglediamonds.svg	stimuli_target_trianglecircles.svg	25	yes	57	0	135
6.6.1	win	2022-12-14	14:31:10	14:39:45	513659	60d2d061fd054556769ca306	986469383	1	main_z	11	main_z	27	stimuli_distractor_trianglediamonds.svg	stimuli_target_trianglesquares.svg	26	yes	44	1	489
6.6.1	win	2022-12-14	14:31:10	14:39:45	513659	60d2d061fd054556769ca306	986469383	1	main_z	11	advance_on_keypress_ZEE	28	stimuli_distractor_trianglediamonds.svg	stimuli_target_trianglesquares.svg	26	yes	57	0	95
6.6.1	win	2022-12-14	14:31:10	14:39:48	516426	60d2d061fd054556769ca306	986469383	1	main_z	11	main_z	29	stimuli_distractor_trianglediamonds.svg	stimuli_distractor_trianglediamonds.svg	33	no	0	1	2000
6.6.1	win	2022-12-14	14:31:10	14:39:48	516426	60d2d061fd054556769ca306	986469383	1	main_z	11	advance_on_keypress_ZEE	30	stimuli_distractor_trianglediamonds.svg	stimuli_distractor_trianglediamonds.svg	33	no	57	0	240
6.6.1	win	2022-12-14	14:31:10	14:39:51	519315	60d2d061fd054556769ca306	986469383	1	main_z	11	main_z	31	stimuli_distractor_trianglediamonds.svg	stimuli_distractor_diamondtriangles.svg	35	no	0	1	2000
6.6.1	win	2022-12-14	14:31:10	14:39:51	519315	60d2d061fd054556769ca306	986469383	1	main_z	11	advance_on_keypress_ZEE	32	stimuli_distractor_trianglediamonds.svg	stimuli_distractor_diamondtriangles.svg	35	no	57	0	257
6.6.1	win	2022-12-14	14:31:10	14:39:52	520640	60d2d061fd054556769ca306	986469383	1	main_z	11	main_z	33	stimuli_target_diamondcircles.svg	stimuli_distractor_diamondtriangles.svg	23	yes	44	1	425
6.6.1	win	2022-12-14	14:31:10	14:39:52	520640	60d2d061fd054556769ca306	986469383	1	main_z	11	advance_on_keypress_ZEE	34	stimuli_target_diamondcircles.svg	stimuli_distractor_diamondtriangles.svg	23	yes	57	0	118
6.6.1	win	2022-12-14	14:31:10	14:39:53	521903	60d2d061fd054556769ca306	986469383	1	main_z	11	main_z	35	stimuli_distractor_diamondtriangles.svg	stimuli_target_diamondsquares.svg	32	yes	44	1	499
6.6.1	win	2022-12-14	14:31:10	14:39:53	521903	60d2d061fd054556769ca306	986469383	1	main_z	11	advance_on_keypress_ZEE	36	stimuli_distractor_diamondtriangles.svg	stimuli_target_diamondsquares.svg	32	yes	57	0	100
6.6.1	win	2022-12-14	14:31:10	14:39:55	523191	60d2d061fd054556769ca306	986469383	1	main_z	11	main_z	37	stimuli_distractor_diamondtriangles.svg	stimuli_target_squarediamonds.svg	16	yes	44	1	548
6.6.1	win	2022-12-14	14:31:10	14:39:55	523191	60d2d061fd054556769ca306	986469383	1	main_z	11	advance_on_keypress_ZEE	38	stimuli_distractor_diamondtriangles.svg	stimuli_target_squarediamonds.svg	16	yes	57	0	126
6.6.1	win	2022-12-14	14:31:10	14:39:56	524410	60d2d061fd054556769ca306	986469383	1	main_z	11	main_z	39	stimuli_distractor_trianglediamonds.svg	stimuli_target_squarediamonds.svg	12	yes	44	1	453
6.6.1	win	2022-12-14	14:31:10	14:39:56	524410	60d2d061fd054556769ca306	986469383	1	main_z	11	advance_on_keypress_ZEE	40	stimuli_distractor_trianglediamonds.svg	stimuli_target_squarediamonds.svg	12	yes	57	0	60
6.6.1	win	2022-12-14	14:31:10	14:39:57	525498	60d2d061fd054556769ca306	986469383	1	main_z	11	main_z	41	stimuli_target_squarediamonds.svg	stimuli_distractor_diamondtriangles.svg	8	yes	44	1	384
6.6.1	win	2022-12-14	14:31:10	14:39:57	525498	60d2d061fd054556769ca306	986469383	1	main_z	11	advance_on_keypress_ZEE	42	stimuli_target_squarediamonds.svg	stimuli_distractor_diamondtriangles.svg	8	yes	57	0	73
6.6.1	win	2022-12-14	14:31:10	14:39:58	526625	60d2d061fd054556769ca306	986469383	1	main_z	11	main_z	43	stimuli_target_squaretriangles.svg	stimuli_distractor_diamondtriangles.svg	7	yes	44	1	405
6.6.1	win	2022-12-14	14:31:10	14:39:58	526625	60d2d061fd054556769ca306	986469383	1	main_z	11	advance_on_keypress_ZEE	44	stimuli_target_squaretriangles.svg	stimuli_distractor_diamondtriangles.svg	7	yes	57	0	100
6.6.1	win	2022-12-14	14:31:10	14:39:59	527770	60d2d061fd054556769ca306	986469383	1	main_z	11	main_z	45	stimuli_distractor_diamondtriangles.svg	stimuli_target_diamondcircles.svg	31	yes	44	1	396
6.6.1	win	2022-12-14	14:31:10	14:39:59	527770	60d2d061fd054556769ca306	986469383	1	main_z	11	advance_on_keypress_ZEE	46	stimuli_distractor_diamondtriangles.svg	stimuli_target_diamondcircles.svg	31	yes	57	0	117
6.6.1	win	2022-12-14	14:31:10	14:40:01	528964	60d2d061fd054556769ca306	986469383	1	main_z	11	main_z	47	stimuli_distractor_diamondtriangles.svg	stimuli_target_squaretriangles.svg	15	yes	44	1	433
6.6.1	win	2022-12-14	14:31:10	14:40:01	528964	60d2d061fd054556769ca306	986469383	1	main_z	11	advance_on_keypress_ZEE	48	stimuli_distractor_diamondtriangles.svg	stimuli_target_squaretriangles.svg	15	yes	57	0	76
6.6.1	win	2022-12-14	14:31:10	14:40:02	530070	60d2d061fd054556769ca306	986469383	1	main_z	11	main_z	49	stimuli_target_circlediamonds.svg	stimuli_distractor_trianglediamonds.svg	2	yes	44	1	401
6.6.1	win	2022-12-14	14:31:10	14:40:02	530070	60d2d061fd054556769ca306	986469383	1	main_z	11	advance_on_keypress_ZEE	50	stimuli_target_circlediamonds.svg	stimuli_distractor_trianglediamonds.svg	2	yes	57	0	57
6.6.1	win	2022-12-14	14:31:10	14:40:03	531263	60d2d061fd054556769ca306	986469383	1	main_z	11	main_z	51	stimuli_distractor_diamondtriangles.svg	stimuli_target_trianglesquares.svg	30	yes	44	1	482
6.6.1	win	2022-12-14	14:31:10	14:40:03	531263	60d2d061fd054556769ca306	986469383	1	main_z	11	advance_on_keypress_ZEE	52	stimuli_distractor_diamondtriangles.svg	stimuli_target_trianglesquares.svg	30	yes	57	0	51
6.6.1	win	2022-12-14	14:31:10	14:40:04	532367	60d2d061fd054556769ca306	986469383	1	main_z	11	main_z	53	stimuli_distractor_trianglediamonds.svg	stimuli_target_circlediamonds.svg	10	yes	44	1	402
6.6.1	win	2022-12-14	14:31:10	14:40:04	532367	60d2d061fd054556769ca306	986469383	1	main_z	11	advance_on_keypress_ZEE	54	stimuli_distractor_trianglediamonds.svg	stimuli_target_circlediamonds.svg	10	yes	57	0	84
6.6.1	win	2022-12-14	14:31:10	14:40:07	535105	60d2d061fd054556769ca306	986469383	1	main_z	11	main_z	55	stimuli_distractor_diamondtriangles.svg	stimuli_distractor_trianglediamonds.svg	38	no	0	1	2000
6.6.1	win	2022-12-14	14:31:10	14:40:07	535105	60d2d061fd054556769ca306	986469383	1	main_z	11	advance_on_keypress_ZEE	56	stimuli_distractor_diamondtriangles.svg	stimuli_distractor_trianglediamonds.svg	38	no	57	0	414
6.6.1	win	2022-12-14	14:31:10	14:40:10	538180	60d2d061fd054556769ca306	986469383	1	main_z	11	main_z	57	stimuli_distractor_trianglediamonds.svg	stimuli_distractor_diamondtriangles.svg	36	no	0	1	2000
6.6.1	win	2022-12-14	14:31:10	14:40:10	538180	60d2d061fd054556769ca306	986469383	1	main_z	11	advance_on_keypress_ZEE	58	stimuli_distractor_trianglediamonds.svg	stimuli_distractor_diamondtriangles.svg	36	no	57	0	322
6.6.1	win	2022-12-14	14:31:10	14:40:11	539682	60d2d061fd054556769ca306	986469383	1	main_z	11	main_z	59	stimuli_distractor_diamondtriangles.svg	stimuli_target_circletriangles.svg	13	yes	44	1	524
6.6.1	win	2022-12-14	14:31:10	14:40:11	539682	60d2d061fd054556769ca306	986469383	1	main_z	11	advance_on_keypress_ZEE	60	stimuli_distractor_diamondtriangles.svg	stimuli_target_circletriangles.svg	13	yes	57	0	80
6.6.1	win	2022-12-14	14:31:10	14:40:12	540745	60d2d061fd054556769ca306	986469383	1	main_z	11	main_z	61	stimuli_target_squaretriangles.svg	stimuli_distractor_trianglediamonds.svg	3	yes	44	1	331
6.6.1	win	2022-12-14	14:31:10	14:40:12	540745	60d2d061fd054556769ca306	986469383	1	main_z	11	advance_on_keypress_ZEE	62	stimuli_target_squaretriangles.svg	stimuli_distractor_trianglediamonds.svg	3	yes	57	0	86
6.6.1	win	2022-12-14	14:31:10	14:40:13	541891	60d2d061fd054556769ca306	986469383	1	main_z	11	main_z	63	stimuli_distractor_trianglediamonds.svg	stimuli_target_diamondsquares.svg	28	yes	44	1	374
6.6.1	win	2022-12-14	14:31:10	14:40:13	541891	60d2d061fd054556769ca306	986469383	1	main_z	11	advance_on_keypress_ZEE	64	stimuli_distractor_trianglediamonds.svg	stimuli_target_diamondsquares.svg	28	yes	57	0	133
6.6.1	win	2022-12-14	14:31:10	14:40:15	543020	60d2d061fd054556769ca306	986469383	1	main_z	11	main_z	65	stimuli_distractor_trianglediamonds.svg	stimuli_target_diamondcircles.svg	27	yes	44	1	346
6.6.1	win	2022-12-14	14:31:10	14:40:15	543020	60d2d061fd054556769ca306	986469383	1	main_z	11	advance_on_keypress_ZEE	66	stimuli_distractor_trianglediamonds.svg	stimuli_target_diamondcircles.svg	27	yes	57	0	72
6.6.1	win	2022-12-14	14:31:10	14:40:16	544086	60d2d061fd054556769ca306	986469383	1	main_z	11	main_z	67	stimuli_target_trianglecircles.svg	stimuli_distractor_diamondtriangles.svg	21	yes	44	1	344
6.6.1	win	2022-12-14	14:31:10	14:40:16	544086	60d2d061fd054556769ca306	986469383	1	main_z	11	advance_on_keypress_ZEE	68	stimuli_target_trianglecircles.svg	stimuli_distractor_diamondtriangles.svg	21	yes	57	0	59
6.6.1	win	2022-12-14	14:31:10	14:40:17	545166	60d2d061fd054556769ca306	986469383	1	main_z	11	main_z	69	stimuli_target_diamondsquares.svg	stimuli_distractor_trianglediamonds.svg	20	yes	44	1	376
6.6.1	win	2022-12-14	14:31:10	14:40:17	545166	60d2d061fd054556769ca306	986469383	1	main_z	11	advance_on_keypress_ZEE	70	stimuli_target_diamondsquares.svg	stimuli_distractor_trianglediamonds.svg	20	yes	57	0	51
6.6.1	win	2022-12-14	14:31:10	14:40:18	546300	60d2d061fd054556769ca306	986469383	1	main_z	11	main_z	71	stimuli_distractor_diamondtriangles.svg	stimuli_distractor_trianglediamonds.svg	37	no	44	0	438
6.6.1	win	2022-12-14	14:31:10	14:40:18	546300	60d2d061fd054556769ca306	986469383	1	main_z	11	advance_on_keypress_ZEE	72	stimuli_distractor_diamondtriangles.svg	stimuli_distractor_trianglediamonds.svg	37	no	57	0	1036
6.6.1	win	2022-12-14	14:31:10	14:40:20	548445	60d2d061fd054556769ca306	986469383	1	main_z	11	main_z	73	stimuli_target_diamondsquares.svg	stimuli_distractor_diamondtriangles.svg	24	yes	44	1	452
6.6.1	win	2022-12-14	14:31:10	14:40:20	548445	60d2d061fd054556769ca306	986469383	1	main_z	11	advance_on_keypress_ZEE	74	stimuli_target_diamondsquares.svg	stimuli_distractor_diamondtriangles.svg	24	yes	57	0	75
6.6.1	win	2022-12-14	14:31:10	14:40:23	551165	60d2d061fd054556769ca306	986469383	1	main_z	11	main_z	75	stimuli_distractor_diamondtriangles.svg	stimuli_target_trianglecircles.svg	29	yes	0	0	2000
6.6.1	win	2022-12-14	14:31:10	14:40:23	551165	60d2d061fd054556769ca306	986469383	1	main_z	11	advance_on_keypress_ZEE	76	stimuli_distractor_diamondtriangles.svg	stimuli_target_trianglecircles.svg	29	yes	57	0	764
6.6.1	win	2022-12-14	14:31:10	14:40:25	553103	60d2d061fd054556769ca306	986469383	1	main_z	11	main_z	77	stimuli_target_trianglesquares.svg	stimuli_distractor_diamondtriangles.svg	22	yes	44	1	520
6.6.1	win	2022-12-14	14:31:10	14:40:25	553103	60d2d061fd054556769ca306	986469383	1	main_z	11	advance_on_keypress_ZEE	78	stimuli_target_trianglesquares.svg	stimuli_distractor_diamondtriangles.svg	22	yes	57	0	76
6.6.1	win	2022-12-14	14:31:10	14:40:26	554265	60d2d061fd054556769ca306	986469383	1	main_z	11	main_z	79	stimuli_target_circletriangles.svg	stimuli_distractor_diamondtriangles.svg	5	yes	44	1	443
6.6.1	win	2022-12-14	14:31:10	14:40:26	554265	60d2d061fd054556769ca306	986469383	1	main_z	11	advance_on_keypress_ZEE	80	stimuli_target_circletriangles.svg	stimuli_distractor_diamondtriangles.svg	5	yes	57	0	115
6.6.1	win	2022-12-14	14:31:10	14:40:27	555518	60d2d061fd054556769ca306	986469383	1	main_z	11	main_z	81	stimuli_distractor_trianglediamonds.svg	stimuli_target_squaretriangles.svg	11	yes	44	1	490
6.6.1	win	2022-12-14	14:31:10	14:40:27	555518	60d2d061fd054556769ca306	986469383	1	main_z	11	advance_on_keypress_ZEE	82	stimuli_distractor_trianglediamonds.svg	stimuli_target_squaretriangles.svg	11	yes	57	0	80
6.6.1	win	2022-12-14	14:31:10	14:40:28	556697	60d2d061fd054556769ca306	986469383	1	main_z	11	main_z	83	stimuli_distractor_trianglediamonds.svg	stimuli_target_diamondsquares.svg	28	yes	44	1	447
6.6.1	win	2022-12-14	14:31:10	14:40:28	556697	60d2d061fd054556769ca306	986469383	1	main_z	11	advance_on_keypress_ZEE	84	stimuli_distractor_trianglediamonds.svg	stimuli_target_diamondsquares.svg	28	yes	57	0	82
6.6.1	win	2022-12-14	14:31:10	14:40:29	557843	60d2d061fd054556769ca306	986469383	1	main_z	11	main_z	85	stimuli_distractor_diamondtriangles.svg	stimuli_target_diamondcircles.svg	31	yes	44	1	422
6.6.1	win	2022-12-14	14:31:10	14:40:29	557843	60d2d061fd054556769ca306	986469383	1	main_z	11	advance_on_keypress_ZEE	86	stimuli_distractor_diamondtriangles.svg	stimuli_target_diamondcircles.svg	31	yes	57	0	118
6.6.1	win	2022-12-14	14:31:10	14:40:32	560611	60d2d061fd054556769ca306	986469383	1	main_z	11	main_z	87	stimuli_distractor_diamondtriangles.svg	stimuli_distractor_trianglediamonds.svg	38	no	0	1	2000
6.6.1	win	2022-12-14	14:31:10	14:40:32	560611	60d2d061fd054556769ca306	986469383	1	main_z	11	advance_on_keypress_ZEE	88	stimuli_distractor_diamondtriangles.svg	stimuli_distractor_trianglediamonds.svg	38	no	57	0	506
6.6.1	win	2022-12-14	14:31:10	14:40:34	562262	60d2d061fd054556769ca306	986469383	1	main_z	11	main_z	89	stimuli_target_circletriangles.svg	stimuli_distractor_trianglediamonds.svg	1	yes	44	1	492
6.6.1	win	2022-12-14	14:31:10	14:40:34	562262	60d2d061fd054556769ca306	986469383	1	main_z	11	advance_on_keypress_ZEE	90	stimuli_target_circletriangles.svg	stimuli_distractor_trianglediamonds.svg	1	yes	57	0	117
6.6.1	win	2022-12-14	14:31:10	14:40:35	563516	60d2d061fd054556769ca306	986469383	1	main_z	11	main_z	91	stimuli_distractor_diamondtriangles.svg	stimuli_target_squarediamonds.svg	16	yes	44	1	490
6.6.1	win	2022-12-14	14:31:10	14:40:35	563516	60d2d061fd054556769ca306	986469383	1	main_z	11	advance_on_keypress_ZEE	92	stimuli_distractor_diamondtriangles.svg	stimuli_target_squarediamonds.svg	16	yes	57	0	106
6.6.1	win	2022-12-14	14:31:10	14:40:36	564735	60d2d061fd054556769ca306	986469383	1	main_z	11	main_z	93	stimuli_distractor_diamondtriangles.svg	stimuli_target_trianglesquares.svg	30	yes	44	1	453
6.6.1	win	2022-12-14	14:31:10	14:40:36	564735	60d2d061fd054556769ca306	986469383	1	main_z	11	advance_on_keypress_ZEE	94	stimuli_distractor_diamondtriangles.svg	stimuli_target_trianglesquares.svg	30	yes	57	0	92
6.6.1	win	2022-12-14	14:31:10	14:40:38	565948	60d2d061fd054556769ca306	986469383	1	main_z	11	main_z	95	stimuli_distractor_diamondtriangles.svg	stimuli_distractor_trianglediamonds.svg	37	no	44	0	445
6.6.1	win	2022-12-14	14:31:10	14:40:38	565948	60d2d061fd054556769ca306	986469383	1	main_z	11	advance_on_keypress_ZEE	96	stimuli_distractor_diamondtriangles.svg	stimuli_distractor_trianglediamonds.svg	37	no	57	0	134
6.6.1	win	2022-12-14	14:31:10	14:40:39	567331	60d2d061fd054556769ca306	986469383	1	main_z	11	main_z	97	stimuli_distractor_diamondtriangles.svg	stimuli_target_diamondsquares.svg	32	yes	44	1	587
6.6.1	win	2022-12-14	14:31:10	14:40:39	567331	60d2d061fd054556769ca306	986469383	1	main_z	11	advance_on_keypress_ZEE	98	stimuli_distractor_diamondtriangles.svg	stimuli_target_diamondsquares.svg	32	yes	57	0	79
6.6.1	win	2022-12-14	14:31:10	14:40:40	568615	60d2d061fd054556769ca306	986469383	1	main_z	11	main_z	99	stimuli_target_diamondsquares.svg	stimuli_distractor_trianglediamonds.svg	20	yes	44	1	550
6.6.1	win	2022-12-14	14:31:10	14:40:40	568615	60d2d061fd054556769ca306	986469383	1	main_z	11	advance_on_keypress_ZEE	100	stimuli_target_diamondsquares.svg	stimuli_distractor_trianglediamonds.svg	20	yes	57	0	142
6.6.1	win	2022-12-14	14:31:10	14:40:41	569908	60d2d061fd054556769ca306	986469383	1	main_z	11	main_z	101	stimuli_target_squarediamonds.svg	stimuli_distractor_diamondtriangles.svg	8	yes	44	1	512
6.6.1	win	2022-12-14	14:31:10	14:40:41	569908	60d2d061fd054556769ca306	986469383	1	main_z	11	advance_on_keypress_ZEE	102	stimuli_target_squarediamonds.svg	stimuli_distractor_diamondtriangles.svg	8	yes	57	0	69
6.6.1	win	2022-12-14	14:31:10	14:40:44	572618	60d2d061fd054556769ca306	986469383	1	main_z	11	main_z	103	stimuli_target_diamondsquares.svg	stimuli_distractor_diamondtriangles.svg	24	yes	0	0	2000
6.6.1	win	2022-12-14	14:31:10	14:40:44	572618	60d2d061fd054556769ca306	986469383	1	main_z	11	advance_on_keypress_ZEE	104	stimuli_target_diamondsquares.svg	stimuli_distractor_diamondtriangles.svg	24	yes	57	0	363
6.6.1	win	2022-12-14	14:31:10	14:40:46	574068	60d2d061fd054556769ca306	986469383	1	main_z	11	main_z	105	stimuli_distractor_diamondtriangles.svg	stimuli_target_circletriangles.svg	13	yes	44	1	438
6.6.1	win	2022-12-14	14:31:10	14:40:46	574068	60d2d061fd054556769ca306	986469383	1	main_z	11	advance_on_keypress_ZEE	106	stimuli_distractor_diamondtriangles.svg	stimuli_target_circletriangles.svg	13	yes	57	0	62
6.6.1	win	2022-12-14	14:31:10	14:40:47	575232	60d2d061fd054556769ca306	986469383	1	main_z	11	main_z	107	stimuli_target_squaretriangles.svg	stimuli_distractor_diamondtriangles.svg	7	yes	44	1	446
6.6.1	win	2022-12-14	14:31:10	14:40:47	575232	60d2d061fd054556769ca306	986469383	1	main_z	11	advance_on_keypress_ZEE	108	stimuli_target_squaretriangles.svg	stimuli_distractor_diamondtriangles.svg	7	yes	57	0	100
6.6.1	win	2022-12-14	14:31:10	14:40:48	576539	60d2d061fd054556769ca306	986469383	1	main_z	11	main_z	109	stimuli_target_trianglesquares.svg	stimuli_distractor_trianglediamonds.svg	18	yes	44	1	563
6.6.1	win	2022-12-14	14:31:10	14:40:48	576539	60d2d061fd054556769ca306	986469383	1	main_z	11	advance_on_keypress_ZEE	110	stimuli_target_trianglesquares.svg	stimuli_distractor_trianglediamonds.svg	18	yes	57	0	78
6.6.1	win	2022-12-14	14:31:10	14:40:49	577678	60d2d061fd054556769ca306	986469383	1	main_z	11	main_z	111	stimuli_target_circlediamonds.svg	stimuli_distractor_trianglediamonds.svg	2	yes	44	1	431
6.6.1	win	2022-12-14	14:31:10	14:40:49	577678	60d2d061fd054556769ca306	986469383	1	main_z	11	advance_on_keypress_ZEE	112	stimuli_target_circlediamonds.svg	stimuli_distractor_trianglediamonds.svg	2	yes	57	0	77
6.6.1	win	2022-12-14	14:31:10	14:40:50	578822	60d2d061fd054556769ca306	986469383	1	main_z	11	main_z	113	stimuli_target_circletriangles.svg	stimuli_distractor_diamondtriangles.svg	5	yes	44	1	435
6.6.1	win	2022-12-14	14:31:10	14:40:50	578822	60d2d061fd054556769ca306	986469383	1	main_z	11	advance_on_keypress_ZEE	114	stimuli_target_circletriangles.svg	stimuli_distractor_diamondtriangles.svg	5	yes	57	0	66
6.6.1	win	2022-12-14	14:31:10	14:40:53	581542	60d2d061fd054556769ca306	986469383	1	main_z	11	main_z	115	stimuli_distractor_diamondtriangles.svg	stimuli_distractor_diamondtriangles.svg	39	no	0	1	2000
6.6.1	win	2022-12-14	14:31:10	14:40:53	581542	60d2d061fd054556769ca306	986469383	1	main_z	11	advance_on_keypress_ZEE	116	stimuli_distractor_diamondtriangles.svg	stimuli_distractor_diamondtriangles.svg	39	no	57	0	352
6.6.1	win	2022-12-14	14:31:10	14:40:55	583088	60d2d061fd054556769ca306	986469383	1	main_z	11	main_z	117	stimuli_distractor_diamondtriangles.svg	stimuli_target_squaretriangles.svg	15	yes	44	1	537
6.6.1	win	2022-12-14	14:31:10	14:40:55	583088	60d2d061fd054556769ca306	986469383	1	main_z	11	advance_on_keypress_ZEE	118	stimuli_distractor_diamondtriangles.svg	stimuli_target_squaretriangles.svg	15	yes	57	0	52
6.6.1	win	2022-12-14	14:31:10	14:40:56	584192	60d2d061fd054556769ca306	986469383	1	main_z	11	main_z	119	stimuli_target_trianglecircles.svg	stimuli_distractor_trianglediamonds.svg	17	yes	44	1	402
6.6.1	win	2022-12-14	14:31:10	14:40:56	584192	60d2d061fd054556769ca306	986469383	1	main_z	11	advance_on_keypress_ZEE	120	stimuli_target_trianglecircles.svg	stimuli_distractor_trianglediamonds.svg	17	yes	57	0	117
6.6.1	win	2022-12-14	14:31:10	14:40:57	585324	60d2d061fd054556769ca306	986469383	1	main_z	11	main_z	121	stimuli_target_diamondcircles.svg	stimuli_distractor_trianglediamonds.svg	19	yes	44	1	361
6.6.1	win	2022-12-14	14:31:10	14:40:57	585324	60d2d061fd054556769ca306	986469383	1	main_z	11	advance_on_keypress_ZEE	122	stimuli_target_diamondcircles.svg	stimuli_distractor_trianglediamonds.svg	19	yes	57	0	100
6.6.1	win	2022-12-14	14:31:10	14:40:58	586485	60d2d061fd054556769ca306	986469383	1	main_z	11	main_z	123	stimuli_distractor_trianglediamonds.svg	stimuli_target_trianglesquares.svg	26	yes	44	1	405
6.6.1	win	2022-12-14	14:31:10	14:40:58	586485	60d2d061fd054556769ca306	986469383	1	main_z	11	advance_on_keypress_ZEE	124	stimuli_distractor_trianglediamonds.svg	stimuli_target_trianglesquares.svg	26	yes	57	0	80
6.6.1	win	2022-12-14	14:31:10	14:40:59	587617	60d2d061fd054556769ca306	986469383	1	main_z	11	main_z	125	stimuli_distractor_trianglediamonds.svg	stimuli_distractor_diamondtriangles.svg	36	no	44	0	399
6.6.1	win	2022-12-14	14:31:10	14:40:59	587617	60d2d061fd054556769ca306	986469383	1	main_z	11	advance_on_keypress_ZEE	126	stimuli_distractor_trianglediamonds.svg	stimuli_distractor_diamondtriangles.svg	36	no	57	0	788
6.6.1	win	2022-12-14	14:31:10	14:41:02	590288	60d2d061fd054556769ca306	986469383	1	main_z	11	main_z	127	stimuli_distractor_diamondtriangles.svg	stimuli_target_circlediamonds.svg	14	yes	44	1	1236
6.6.1	win	2022-12-14	14:31:10	14:41:02	590288	60d2d061fd054556769ca306	986469383	1	main_z	11	advance_on_keypress_ZEE	128	stimuli_distractor_diamondtriangles.svg	stimuli_target_circlediamonds.svg	14	yes	57	0	272
6.6.1	win	2022-12-14	14:31:10	14:41:03	591863	60d2d061fd054556769ca306	986469383	1	main_z	11	main_z	129	stimuli_distractor_trianglediamonds.svg	stimuli_target_circlediamonds.svg	10	yes	44	1	643
6.6.1	win	2022-12-14	14:31:10	14:41:03	591863	60d2d061fd054556769ca306	986469383	1	main_z	11	advance_on_keypress_ZEE	130	stimuli_distractor_trianglediamonds.svg	stimuli_target_circlediamonds.svg	10	yes	57	0	68
6.6.1	win	2022-12-14	14:31:10	14:41:06	594576	60d2d061fd054556769ca306	986469383	1	main_z	11	main_z	131	stimuli_distractor_trianglediamonds.svg	stimuli_distractor_trianglediamonds.svg	34	no	0	1	2000
6.6.1	win	2022-12-14	14:31:10	14:41:06	594576	60d2d061fd054556769ca306	986469383	1	main_z	11	advance_on_keypress_ZEE	132	stimuli_distractor_trianglediamonds.svg	stimuli_distractor_trianglediamonds.svg	34	no	57	0	354
6.6.1	win	2022-12-14	14:31:10	14:41:08	596101	60d2d061fd054556769ca306	986469383	1	main_z	11	main_z	133	stimuli_target_trianglesquares.svg	stimuli_distractor_diamondtriangles.svg	22	yes	44	1	515
6.6.1	win	2022-12-14	14:31:10	14:41:08	596101	60d2d061fd054556769ca306	986469383	1	main_z	11	advance_on_keypress_ZEE	134	stimuli_target_trianglesquares.svg	stimuli_distractor_diamondtriangles.svg	22	yes	57	0	81
6.6.1	win	2022-12-14	14:31:10	14:41:10	598824	60d2d061fd054556769ca306	986469383	1	main_z	11	main_z	135	stimuli_distractor_trianglediamonds.svg	stimuli_distractor_trianglediamonds.svg	33	no	0	1	2000
6.6.1	win	2022-12-14	14:31:10	14:41:10	598824	60d2d061fd054556769ca306	986469383	1	main_z	11	advance_on_keypress_ZEE	136	stimuli_distractor_trianglediamonds.svg	stimuli_distractor_trianglediamonds.svg	33	no	57	0	587
6.6.1	win	2022-12-14	14:31:10	14:41:12	600698	60d2d061fd054556769ca306	986469383	1	main_z	11	main_z	137	stimuli_distractor_trianglediamonds.svg	stimuli_target_circletriangles.svg	9	yes	44	1	640
6.6.1	win	2022-12-14	14:31:10	14:41:12	600698	60d2d061fd054556769ca306	986469383	1	main_z	11	advance_on_keypress_ZEE	138	stimuli_distractor_trianglediamonds.svg	stimuli_target_circletriangles.svg	9	yes	57	0	54
6.6.1	win	2022-12-14	14:31:10	14:41:13	601900	60d2d061fd054556769ca306	986469383	1	main_z	11	main_z	139	stimuli_target_squarediamonds.svg	stimuli_distractor_trianglediamonds.svg	4	yes	44	1	502
6.6.1	win	2022-12-14	14:31:10	14:41:13	601900	60d2d061fd054556769ca306	986469383	1	main_z	11	advance_on_keypress_ZEE	140	stimuli_target_squarediamonds.svg	stimuli_distractor_trianglediamonds.svg	4	yes	57	0	192
6.6.1	win	2022-12-14	14:31:10	14:41:15	603213	60d2d061fd054556769ca306	986469383	1	main_z	11	main_z	141	stimuli_target_diamondcircles.svg	stimuli_distractor_diamondtriangles.svg	23	yes	44	1	468
6.6.1	win	2022-12-14	14:31:10	14:41:15	603213	60d2d061fd054556769ca306	986469383	1	main_z	11	advance_on_keypress_ZEE	142	stimuli_target_diamondcircles.svg	stimuli_distractor_diamondtriangles.svg	23	yes	57	0	60
6.6.1	win	2022-12-14	14:31:10	14:41:17	605934	60d2d061fd054556769ca306	986469383	1	main_z	11	main_z	143	stimuli_distractor_diamondtriangles.svg	stimuli_distractor_diamondtriangles.svg	40	no	0	1	2000
6.6.1	win	2022-12-14	14:31:10	14:41:17	605934	60d2d061fd054556769ca306	986469383	1	main_z	11	advance_on_keypress_ZEE	144	stimuli_distractor_diamondtriangles.svg	stimuli_distractor_diamondtriangles.svg	40	no	57	0	245
6.6.1	win	2022-12-14	14:31:10	14:41:19	607309	60d2d061fd054556769ca306	986469383	1	main_z	11	main_z	145	stimuli_distractor_trianglediamonds.svg	stimuli_target_squarediamonds.svg	12	yes	44	1	494
6.6.1	win	2022-12-14	14:31:10	14:41:19	607309	60d2d061fd054556769ca306	986469383	1	main_z	11	advance_on_keypress_ZEE	146	stimuli_distractor_trianglediamonds.svg	stimuli_target_squarediamonds.svg	12	yes	57	0	117
6.6.1	win	2022-12-14	14:31:10	14:41:20	608592	60d2d061fd054556769ca306	986469383	1	main_z	11	main_z	147	stimuli_target_circlediamonds.svg	stimuli_distractor_diamondtriangles.svg	6	yes	44	1	522
6.6.1	win	2022-12-14	14:31:10	14:41:20	608592	60d2d061fd054556769ca306	986469383	1	main_z	11	advance_on_keypress_ZEE	148	stimuli_target_circlediamonds.svg	stimuli_distractor_diamondtriangles.svg	6	yes	57	0	124
6.6.1	win	2022-12-14	14:31:10	14:41:21	609853	60d2d061fd054556769ca306	986469383	1	main_z	11	main_z	149	stimuli_target_squaretriangles.svg	stimuli_distractor_trianglediamonds.svg	3	yes	44	1	459
6.6.1	win	2022-12-14	14:31:10	14:41:21	609853	60d2d061fd054556769ca306	986469383	1	main_z	11	advance_on_keypress_ZEE	150	stimuli_target_squaretriangles.svg	stimuli_distractor_trianglediamonds.svg	3	yes	57	0	69
6.6.1	win	2022-12-14	14:31:10	14:41:23	611060	60d2d061fd054556769ca306	986469383	1	main_z	11	main_z	151	stimuli_distractor_diamondtriangles.svg	stimuli_target_trianglecircles.svg	29	yes	44	1	489
6.6.1	win	2022-12-14	14:31:10	14:41:23	611060	60d2d061fd054556769ca306	986469383	1	main_z	11	advance_on_keypress_ZEE	152	stimuli_distractor_diamondtriangles.svg	stimuli_target_trianglecircles.svg	29	yes	57	0	116
6.6.1	win	2022-12-14	14:31:10	14:41:25	613826	60d2d061fd054556769ca306	986469383	1	main_z	11	main_z	153	stimuli_distractor_trianglediamonds.svg	stimuli_distractor_diamondtriangles.svg	35	no	0	1	2000
6.6.1	win	2022-12-14	14:31:10	14:41:25	613826	60d2d061fd054556769ca306	986469383	1	main_z	11	advance_on_keypress_ZEE	154	stimuli_distractor_trianglediamonds.svg	stimuli_distractor_diamondtriangles.svg	35	no	57	0	372
6.6.1	win	2022-12-14	14:31:10	14:41:27	615402	60d2d061fd054556769ca306	986469383	1	main_z	11	main_z	155	stimuli_distractor_trianglediamonds.svg	stimuli_target_trianglecircles.svg	25	yes	44	1	551
6.6.1	win	2022-12-14	14:31:10	14:41:27	615402	60d2d061fd054556769ca306	986469383	1	main_z	11	advance_on_keypress_ZEE	156	stimuli_distractor_trianglediamonds.svg	stimuli_target_trianglecircles.svg	25	yes	57	0	90
6.6.1	win	2022-12-14	14:31:10	14:41:28	616613	60d2d061fd054556769ca306	986469383	1	main_z	11	main_z	157	stimuli_target_trianglecircles.svg	stimuli_distractor_diamondtriangles.svg	21	yes	44	1	489
6.6.1	win	2022-12-14	14:31:10	14:41:28	616613	60d2d061fd054556769ca306	986469383	1	main_z	11	advance_on_keypress_ZEE	158	stimuli_target_trianglecircles.svg	stimuli_distractor_diamondtriangles.svg	21	yes	57	0	79
6.6.1	win	2022-12-14	14:31:10	14:41:29	617853	60d2d061fd054556769ca306	986469383	1	main_z	11	main_z	159	stimuli_distractor_trianglediamonds.svg	stimuli_target_diamondcircles.svg	27	yes	44	1	507
6.6.1	win	2022-12-14	14:31:10	14:41:29	617853	60d2d061fd054556769ca306	986469383	1	main_z	11	advance_on_keypress_ZEE	160	stimuli_distractor_trianglediamonds.svg	stimuli_target_diamondcircles.svg	27	yes	57	0	226
6.6.1	win	2022-12-14	14:31:10	14:41:29	617853	60d2d061fd054556769ca306	986469383	1	inst_15_goodbye	15			stimuli_distractor_trianglediamonds.svg	stimuli_target_diamondcircles.svg	27	yes	Ctrl+'Q'		