build	computer.platform	date	time	timestamp	time_elapsed_ms	subject	group	session	blockcode	blocknum	trialcode	trialnum	stimulus_left	stimulus_right	stim_index	target_present	response	correct	latency
6.6.1	win	2022-12-21	15:22:05	15:25:05	177116	5f13c80de764c617c6b83856	955702913	1	practice_slash	5	practice_slash	1	stimuli_target_circlediamonds.svg	stimuli_distractor_trianglediamonds.svg	4	yes	0	0	2000
6.6.1	win	2022-12-21	15:22:05	15:25:05	177116	5f13c80de764c617c6b83856	955702913	1	practice_slash	5	advance_on_keypress_SLASH	2	stimuli_target_circlediamonds.svg	stimuli_distractor_trianglediamonds.svg	4	yes	57	0	1141
6.6.1	win	2022-12-21	15:22:05	15:25:08	180270	5f13c80de764c617c6b83856	955702913	1	practice_slash	5	practice_slash	3	stimuli_target_diamondsquares.svg	stimuli_distractor_diamondtriangles.svg	3	yes	53	1	321
6.6.1	win	2022-12-21	15:22:05	15:25:08	180270	5f13c80de764c617c6b83856	955702913	1	practice_slash	5	advance_on_keypress_SLASH	4	stimuli_target_diamondsquares.svg	stimuli_distractor_diamondtriangles.svg	3	yes	57	0	1253
6.6.1	win	2022-12-21	15:22:05	15:25:12	183475	5f13c80de764c617c6b83856	955702913	1	practice_slash	5	practice_slash	5	stimuli_target_circlediamonds.svg	stimuli_distractor_diamondtriangles.svg	1	yes	53	1	308
6.6.1	win	2022-12-21	15:22:05	15:25:12	183475	5f13c80de764c617c6b83856	955702913	1	practice_slash	5	advance_on_keypress_SLASH	6	stimuli_target_circlediamonds.svg	stimuli_distractor_diamondtriangles.svg	1	yes	57	0	604
6.6.1	win	2022-12-21	15:22:05	15:25:14	186039	5f13c80de764c617c6b83856	955702913	1	practice_slash	5	practice_slash	7	stimuli_target_squarediamonds.svg	stimuli_distractor_trianglediamonds.svg	5	yes	53	1	288
6.6.1	win	2022-12-21	15:22:05	15:25:14	186039	5f13c80de764c617c6b83856	955702913	1	practice_slash	5	advance_on_keypress_SLASH	8	stimuli_target_squarediamonds.svg	stimuli_distractor_trianglediamonds.svg	5	yes	57	0	1017
6.6.1	win	2022-12-21	15:22:05	15:25:17	188973	5f13c80de764c617c6b83856	955702913	1	practice_slash	5	practice_slash	9	stimuli_distractor_diamondtriangles.svg	stimuli_distractor_trianglediamonds.svg	14	no	53	0	271
6.6.1	win	2022-12-21	15:22:05	15:25:17	188973	5f13c80de764c617c6b83856	955702913	1	practice_slash	5	advance_on_keypress_SLASH	10	stimuli_distractor_diamondtriangles.svg	stimuli_distractor_trianglediamonds.svg	14	no	57	0	612
6.6.1	win	2022-12-21	15:22:05	15:25:21	193235	5f13c80de764c617c6b83856	955702913	1	practice_slash	5	practice_slash	11	stimuli_distractor_trianglediamonds.svg	stimuli_distractor_trianglediamonds.svg	15	no	0	1	2000
6.6.1	win	2022-12-21	15:22:05	15:25:21	193235	5f13c80de764c617c6b83856	955702913	1	practice_slash	5	advance_on_keypress_SLASH	12	stimuli_distractor_trianglediamonds.svg	stimuli_distractor_trianglediamonds.svg	15	no	57	0	740
6.6.1	win	2022-12-21	15:22:05	15:25:25	196740	5f13c80de764c617c6b83856	955702913	1	practice_slash	5	practice_slash	13	stimuli_distractor_trianglediamonds.svg	stimuli_target_diamondcircles.svg	12	yes	53	1	1104
6.6.1	win	2022-12-21	15:22:05	15:25:25	196740	5f13c80de764c617c6b83856	955702913	1	practice_slash	5	advance_on_keypress_SLASH	14	stimuli_distractor_trianglediamonds.svg	stimuli_target_diamondcircles.svg	12	yes	57	0	459
6.6.1	win	2022-12-21	15:22:05	15:25:28	199535	5f13c80de764c617c6b83856	955702913	1	practice_slash	5	practice_slash	15	stimuli_distractor_diamondtriangles.svg	stimuli_target_trianglecircles.svg	9	yes	53	1	682
6.6.1	win	2022-12-21	15:22:05	15:25:28	199535	5f13c80de764c617c6b83856	955702913	1	practice_slash	5	advance_on_keypress_SLASH	16	stimuli_distractor_diamondtriangles.svg	stimuli_target_trianglecircles.svg	9	yes	57	0	701
6.6.1	win	2022-12-21	15:22:05	15:25:30	202271	5f13c80de764c617c6b83856	955702913	1	practice_slash	5	practice_slash	17	stimuli_distractor_trianglediamonds.svg	stimuli_distractor_diamondtriangles.svg	16	no	53	0	376
6.6.1	win	2022-12-21	15:22:05	15:25:30	202271	5f13c80de764c617c6b83856	955702913	1	practice_slash	5	advance_on_keypress_SLASH	18	stimuli_distractor_trianglediamonds.svg	stimuli_distractor_diamondtriangles.svg	16	no	57	0	411
6.6.1	win	2022-12-21	15:22:05	15:25:33	204989	5f13c80de764c617c6b83856	955702913	1	practice_slash	5	practice_slash	19	stimuli_target_diamondsquares.svg	stimuli_distractor_trianglediamonds.svg	6	yes	53	1	651
6.6.1	win	2022-12-21	15:22:05	15:25:33	204989	5f13c80de764c617c6b83856	955702913	1	practice_slash	5	advance_on_keypress_SLASH	20	stimuli_target_diamondsquares.svg	stimuli_distractor_trianglediamonds.svg	6	yes	57	0	441
6.6.1	win	2022-12-21	15:22:05	15:25:36	207751	5f13c80de764c617c6b83856	955702913	1	practice_slash	5	practice_slash	21	stimuli_target_squarediamonds.svg	stimuli_distractor_diamondtriangles.svg	2	yes	53	1	680
6.6.1	win	2022-12-21	15:22:05	15:25:36	207751	5f13c80de764c617c6b83856	955702913	1	practice_slash	5	advance_on_keypress_SLASH	22	stimuli_target_squarediamonds.svg	stimuli_distractor_diamondtriangles.svg	2	yes	57	0	920
6.6.1	win	2022-12-21	15:22:05	15:25:39	211277	5f13c80de764c617c6b83856	955702913	1	practice_slash	5	practice_slash	23	stimuli_distractor_diamondtriangles.svg	stimuli_distractor_diamondtriangles.svg	13	no	53	0	953
6.6.1	win	2022-12-21	15:22:05	15:25:39	211277	5f13c80de764c617c6b83856	955702913	1	practice_slash	5	advance_on_keypress_SLASH	24	stimuli_distractor_diamondtriangles.svg	stimuli_distractor_diamondtriangles.svg	13	no	57	0	460
6.6.1	win	2022-12-21	15:22:05	15:25:42	214266	5f13c80de764c617c6b83856	955702913	1	practice_slash	5	practice_slash	25	stimuli_distractor_diamondtriangles.svg	stimuli_target_diamondcircles.svg	8	yes	53	1	875
6.6.1	win	2022-12-21	15:22:05	15:25:42	214266	5f13c80de764c617c6b83856	955702913	1	practice_slash	5	advance_on_keypress_SLASH	26	stimuli_distractor_diamondtriangles.svg	stimuli_target_diamondcircles.svg	8	yes	57	0	444
6.6.1	win	2022-12-21	15:22:05	15:25:45	216927	5f13c80de764c617c6b83856	955702913	1	practice_slash	5	practice_slash	27	stimuli_distractor_diamondtriangles.svg	stimuli_target_circletriangles.svg	7	yes	53	1	553
6.6.1	win	2022-12-21	15:22:05	15:25:45	216927	5f13c80de764c617c6b83856	955702913	1	practice_slash	5	advance_on_keypress_SLASH	28	stimuli_distractor_diamondtriangles.svg	stimuli_target_circletriangles.svg	7	yes	57	0	491
6.6.1	win	2022-12-21	15:22:05	15:25:48	219588	5f13c80de764c617c6b83856	955702913	1	practice_slash	5	practice_slash	29	stimuli_distractor_trianglediamonds.svg	stimuli_target_squarediamonds.svg	11	yes	53	1	506
6.6.1	win	2022-12-21	15:22:05	15:25:48	219588	5f13c80de764c617c6b83856	955702913	1	practice_slash	5	advance_on_keypress_SLASH	30	stimuli_distractor_trianglediamonds.svg	stimuli_target_squarediamonds.svg	11	yes	57	0	531
6.6.1	win	2022-12-21	15:22:05	15:25:51	222432	5f13c80de764c617c6b83856	955702913	1	practice_slash	5	practice_slash	31	stimuli_distractor_trianglediamonds.svg	stimuli_target_circlediamonds.svg	10	yes	53	1	657
6.6.1	win	2022-12-21	15:22:05	15:25:51	222432	5f13c80de764c617c6b83856	955702913	1	practice_slash	5	advance_on_keypress_SLASH	32	stimuli_distractor_trianglediamonds.svg	stimuli_target_circlediamonds.svg	10	yes	57	0	420
6.6.1	win	2022-12-21	15:22:05	15:25:59	230852	5f13c80de764c617c6b83856	955702913	1	main_slash	7	main_slash	1	stimuli_distractor_diamondtriangles.svg	stimuli_target_trianglecircles.svg	29	yes	53	1	396
6.6.1	win	2022-12-21	15:22:05	15:25:59	230852	5f13c80de764c617c6b83856	955702913	1	main_slash	7	advance_on_keypress_SLASH	2	stimuli_distractor_diamondtriangles.svg	stimuli_target_trianglecircles.svg	29	yes	57	0	1052
6.6.1	win	2022-12-21	15:22:05	15:26:01	232941	5f13c80de764c617c6b83856	955702913	1	main_slash	7	main_slash	3	stimuli_distractor_trianglediamonds.svg	stimuli_target_diamondcircles.svg	27	yes	53	1	376
6.6.1	win	2022-12-21	15:22:05	15:26:01	232941	5f13c80de764c617c6b83856	955702913	1	main_slash	7	advance_on_keypress_SLASH	4	stimuli_distractor_trianglediamonds.svg	stimuli_target_diamondcircles.svg	27	yes	57	0	729
6.6.1	win	2022-12-21	15:22:05	15:26:03	234906	5f13c80de764c617c6b83856	955702913	1	main_slash	7	main_slash	5	stimuli_distractor_diamondtriangles.svg	stimuli_target_squarediamonds.svg	16	yes	53	1	583
6.6.1	win	2022-12-21	15:22:05	15:26:03	234906	5f13c80de764c617c6b83856	955702913	1	main_slash	7	advance_on_keypress_SLASH	6	stimuli_distractor_diamondtriangles.svg	stimuli_target_squarediamonds.svg	16	yes	57	0	776
6.6.1	win	2022-12-21	15:22:05	15:26:05	236949	5f13c80de764c617c6b83856	955702913	1	main_slash	7	main_slash	7	stimuli_distractor_diamondtriangles.svg	stimuli_distractor_trianglediamonds.svg	38	no	53	0	609
6.6.1	win	2022-12-21	15:22:05	15:26:05	236949	5f13c80de764c617c6b83856	955702913	1	main_slash	7	advance_on_keypress_SLASH	8	stimuli_distractor_diamondtriangles.svg	stimuli_distractor_trianglediamonds.svg	38	no	57	0	1160
6.6.1	win	2022-12-21	15:22:05	15:26:09	240758	5f13c80de764c617c6b83856	955702913	1	main_slash	7	main_slash	9	stimuli_distractor_trianglediamonds.svg	stimuli_distractor_trianglediamonds.svg	33	no	0	1	2000
6.6.1	win	2022-12-21	15:22:05	15:26:09	240758	5f13c80de764c617c6b83856	955702913	1	main_slash	7	advance_on_keypress_SLASH	10	stimuli_distractor_trianglediamonds.svg	stimuli_distractor_trianglediamonds.svg	33	no	57	0	799
6.6.1	win	2022-12-21	15:22:05	15:26:11	242838	5f13c80de764c617c6b83856	955702913	1	main_slash	7	main_slash	11	stimuli_target_squarediamonds.svg	stimuli_distractor_diamondtriangles.svg	8	yes	53	1	630
6.6.1	win	2022-12-21	15:22:05	15:26:11	242838	5f13c80de764c617c6b83856	955702913	1	main_slash	7	advance_on_keypress_SLASH	12	stimuli_target_squarediamonds.svg	stimuli_distractor_diamondtriangles.svg	8	yes	57	0	827
6.6.1	win	2022-12-21	15:22:05	15:26:13	244937	5f13c80de764c617c6b83856	955702913	1	main_slash	7	main_slash	13	stimuli_distractor_diamondtriangles.svg	stimuli_target_circletriangles.svg	13	yes	53	1	613
6.6.1	win	2022-12-21	15:22:05	15:26:13	244937	5f13c80de764c617c6b83856	955702913	1	main_slash	7	advance_on_keypress_SLASH	14	stimuli_distractor_diamondtriangles.svg	stimuli_target_circletriangles.svg	13	yes	57	0	775
6.6.1	win	2022-12-21	15:22:05	15:26:16	247344	5f13c80de764c617c6b83856	955702913	1	main_slash	7	main_slash	15	stimuli_distractor_diamondtriangles.svg	stimuli_target_squaretriangles.svg	15	yes	53	1	969
6.6.1	win	2022-12-21	15:22:05	15:26:16	247344	5f13c80de764c617c6b83856	955702913	1	main_slash	7	advance_on_keypress_SLASH	16	stimuli_distractor_diamondtriangles.svg	stimuli_target_squaretriangles.svg	15	yes	57	0	1002
6.6.1	win	2022-12-21	15:22:05	15:26:18	249924	5f13c80de764c617c6b83856	955702913	1	main_slash	7	main_slash	17	stimuli_distractor_diamondtriangles.svg	stimuli_distractor_trianglediamonds.svg	37	no	53	0	931
6.6.1	win	2022-12-21	15:22:05	15:26:18	249924	5f13c80de764c617c6b83856	955702913	1	main_slash	7	advance_on_keypress_SLASH	18	stimuli_distractor_diamondtriangles.svg	stimuli_distractor_trianglediamonds.svg	37	no	57	0	631
6.6.1	win	2022-12-21	15:22:05	15:26:20	251930	5f13c80de764c617c6b83856	955702913	1	main_slash	7	main_slash	19	stimuli_target_circlediamonds.svg	stimuli_distractor_diamondtriangles.svg	6	yes	53	1	720
6.6.1	win	2022-12-21	15:22:05	15:26:20	251930	5f13c80de764c617c6b83856	955702913	1	main_slash	7	advance_on_keypress_SLASH	20	stimuli_target_circlediamonds.svg	stimuli_distractor_diamondtriangles.svg	6	yes	57	0	637
6.6.1	win	2022-12-21	15:22:05	15:26:22	253784	5f13c80de764c617c6b83856	955702913	1	main_slash	7	main_slash	21	stimuli_target_diamondcircles.svg	stimuli_distractor_diamondtriangles.svg	23	yes	53	1	573
6.6.1	win	2022-12-21	15:22:05	15:26:22	253784	5f13c80de764c617c6b83856	955702913	1	main_slash	7	advance_on_keypress_SLASH	22	stimuli_target_diamondcircles.svg	stimuli_distractor_diamondtriangles.svg	23	yes	57	0	663
6.6.1	win	2022-12-21	15:22:05	15:26:24	255722	5f13c80de764c617c6b83856	955702913	1	main_slash	7	main_slash	23	stimuli_target_diamondsquares.svg	stimuli_distractor_trianglediamonds.svg	20	yes	53	1	629
6.6.1	win	2022-12-21	15:22:05	15:26:24	255722	5f13c80de764c617c6b83856	955702913	1	main_slash	7	advance_on_keypress_SLASH	24	stimuli_target_diamondsquares.svg	stimuli_distractor_trianglediamonds.svg	20	yes	57	0	538
6.6.1	win	2022-12-21	15:22:05	15:26:27	258491	5f13c80de764c617c6b83856	955702913	1	main_slash	7	main_slash	25	stimuli_distractor_trianglediamonds.svg	stimuli_target_squarediamonds.svg	12	yes	53	1	1579
6.6.1	win	2022-12-21	15:22:05	15:26:27	258491	5f13c80de764c617c6b83856	955702913	1	main_slash	7	advance_on_keypress_SLASH	26	stimuli_distractor_trianglediamonds.svg	stimuli_target_squarediamonds.svg	12	yes	57	0	762
6.6.1	win	2022-12-21	15:22:05	15:26:29	261214	5f13c80de764c617c6b83856	955702913	1	main_slash	7	main_slash	27	stimuli_distractor_trianglediamonds.svg	stimuli_target_trianglesquares.svg	26	yes	53	1	1301
6.6.1	win	2022-12-21	15:22:05	15:26:29	261214	5f13c80de764c617c6b83856	955702913	1	main_slash	7	advance_on_keypress_SLASH	28	stimuli_distractor_trianglediamonds.svg	stimuli_target_trianglesquares.svg	26	yes	57	0	621
6.6.1	win	2022-12-21	15:22:05	15:26:31	263324	5f13c80de764c617c6b83856	955702913	1	main_slash	7	main_slash	29	stimuli_target_diamondsquares.svg	stimuli_distractor_diamondtriangles.svg	24	yes	53	1	845
6.6.1	win	2022-12-21	15:22:05	15:26:31	263324	5f13c80de764c617c6b83856	955702913	1	main_slash	7	advance_on_keypress_SLASH	30	stimuli_target_diamondsquares.svg	stimuli_distractor_diamondtriangles.svg	24	yes	57	0	517
6.6.1	win	2022-12-21	15:22:05	15:26:33	265231	5f13c80de764c617c6b83856	955702913	1	main_slash	7	main_slash	31	stimuli_target_diamondcircles.svg	stimuli_distractor_trianglediamonds.svg	19	yes	53	1	733
6.6.1	win	2022-12-21	15:22:05	15:26:33	265231	5f13c80de764c617c6b83856	955702913	1	main_slash	7	advance_on_keypress_SLASH	32	stimuli_target_diamondcircles.svg	stimuli_distractor_trianglediamonds.svg	19	yes	57	0	625
6.6.1	win	2022-12-21	15:22:05	15:26:36	267419	5f13c80de764c617c6b83856	955702913	1	main_slash	7	main_slash	33	stimuli_distractor_diamondtriangles.svg	stimuli_target_trianglesquares.svg	30	yes	53	1	921
6.6.1	win	2022-12-21	15:22:05	15:26:36	267419	5f13c80de764c617c6b83856	955702913	1	main_slash	7	advance_on_keypress_SLASH	34	stimuli_distractor_diamondtriangles.svg	stimuli_target_trianglesquares.svg	30	yes	57	0	649
6.6.1	win	2022-12-21	15:22:05	15:26:38	269339	5f13c80de764c617c6b83856	955702913	1	main_slash	7	main_slash	35	stimuli_distractor_trianglediamonds.svg	stimuli_target_circlediamonds.svg	10	yes	53	1	626
6.6.1	win	2022-12-21	15:22:05	15:26:38	269339	5f13c80de764c617c6b83856	955702913	1	main_slash	7	advance_on_keypress_SLASH	36	stimuli_distractor_trianglediamonds.svg	stimuli_target_circlediamonds.svg	10	yes	57	0	495
6.6.1	win	2022-12-21	15:22:05	15:26:39	271018	5f13c80de764c617c6b83856	955702913	1	main_slash	7	main_slash	37	stimuli_target_trianglecircles.svg	stimuli_distractor_trianglediamonds.svg	17	yes	53	1	537
6.6.1	win	2022-12-21	15:22:05	15:26:39	271018	5f13c80de764c617c6b83856	955702913	1	main_slash	7	advance_on_keypress_SLASH	38	stimuli_target_trianglecircles.svg	stimuli_distractor_trianglediamonds.svg	17	yes	57	0	383
6.6.1	win	2022-12-21	15:22:05	15:26:41	272609	5f13c80de764c617c6b83856	955702913	1	main_slash	7	main_slash	39	stimuli_target_squaretriangles.svg	stimuli_distractor_trianglediamonds.svg	3	yes	53	1	562
6.6.1	win	2022-12-21	15:22:05	15:26:41	272609	5f13c80de764c617c6b83856	955702913	1	main_slash	7	advance_on_keypress_SLASH	40	stimuli_target_squaretriangles.svg	stimuli_distractor_trianglediamonds.svg	3	yes	57	0	479
6.6.1	win	2022-12-21	15:22:05	15:26:42	274095	5f13c80de764c617c6b83856	955702913	1	main_slash	7	main_slash	41	stimuli_distractor_trianglediamonds.svg	stimuli_distractor_trianglediamonds.svg	34	no	53	0	347
6.6.1	win	2022-12-21	15:22:05	15:26:42	274095	5f13c80de764c617c6b83856	955702913	1	main_slash	7	advance_on_keypress_SLASH	42	stimuli_distractor_trianglediamonds.svg	stimuli_distractor_trianglediamonds.svg	34	no	57	0	653
6.6.1	win	2022-12-21	15:22:05	15:26:44	276049	5f13c80de764c617c6b83856	955702913	1	main_slash	7	main_slash	43	stimuli_target_trianglecircles.svg	stimuli_distractor_diamondtriangles.svg	21	yes	53	1	651
6.6.1	win	2022-12-21	15:22:05	15:26:44	276049	5f13c80de764c617c6b83856	955702913	1	main_slash	7	advance_on_keypress_SLASH	44	stimuli_target_trianglecircles.svg	stimuli_distractor_diamondtriangles.svg	21	yes	57	0	463
6.6.1	win	2022-12-21	15:22:05	15:26:46	277772	5f13c80de764c617c6b83856	955702913	1	main_slash	7	main_slash	45	stimuli_distractor_diamondtriangles.svg	stimuli_target_diamondcircles.svg	31	yes	53	1	608
6.6.1	win	2022-12-21	15:22:05	15:26:46	277772	5f13c80de764c617c6b83856	955702913	1	main_slash	7	advance_on_keypress_SLASH	46	stimuli_distractor_diamondtriangles.svg	stimuli_target_diamondcircles.svg	31	yes	57	0	569
6.6.1	win	2022-12-21	15:22:05	15:26:48	279421	5f13c80de764c617c6b83856	955702913	1	main_slash	7	main_slash	47	stimuli_target_trianglesquares.svg	stimuli_distractor_trianglediamonds.svg	18	yes	53	1	439
6.6.1	win	2022-12-21	15:22:05	15:26:48	279421	5f13c80de764c617c6b83856	955702913	1	main_slash	7	advance_on_keypress_SLASH	48	stimuli_target_trianglesquares.svg	stimuli_distractor_trianglediamonds.svg	18	yes	57	0	604
6.6.1	win	2022-12-21	15:22:05	15:26:49	280911	5f13c80de764c617c6b83856	955702913	1	main_slash	7	main_slash	49	stimuli_distractor_trianglediamonds.svg	stimuli_target_trianglecircles.svg	25	yes	53	1	246
6.6.1	win	2022-12-21	15:22:05	15:26:49	280911	5f13c80de764c617c6b83856	955702913	1	main_slash	7	advance_on_keypress_SLASH	50	stimuli_distractor_trianglediamonds.svg	stimuli_target_trianglecircles.svg	25	yes	57	0	1191
6.6.1	win	2022-12-21	15:22:05	15:26:52	283386	5f13c80de764c617c6b83856	955702913	1	main_slash	7	main_slash	51	stimuli_distractor_trianglediamonds.svg	stimuli_distractor_diamondtriangles.svg	36	no	53	0	637
6.6.1	win	2022-12-21	15:22:05	15:26:52	283386	5f13c80de764c617c6b83856	955702913	1	main_slash	7	advance_on_keypress_SLASH	52	stimuli_distractor_trianglediamonds.svg	stimuli_distractor_diamondtriangles.svg	36	no	57	0	900
6.6.1	win	2022-12-21	15:22:05	15:26:53	285173	5f13c80de764c617c6b83856	955702913	1	main_slash	7	main_slash	53	stimuli_target_trianglesquares.svg	stimuli_distractor_diamondtriangles.svg	22	yes	53	1	240
6.6.1	win	2022-12-21	15:22:05	15:26:53	285173	5f13c80de764c617c6b83856	955702913	1	main_slash	7	advance_on_keypress_SLASH	54	stimuli_target_trianglesquares.svg	stimuli_distractor_diamondtriangles.svg	22	yes	57	0	691
6.6.1	win	2022-12-21	15:22:05	15:26:55	286740	5f13c80de764c617c6b83856	955702913	1	main_slash	7	main_slash	55	stimuli_distractor_diamondtriangles.svg	stimuli_distractor_diamondtriangles.svg	39	no	53	0	240
6.6.1	win	2022-12-21	15:22:05	15:26:55	286740	5f13c80de764c617c6b83856	955702913	1	main_slash	7	advance_on_keypress_SLASH	56	stimuli_distractor_diamondtriangles.svg	stimuli_distractor_diamondtriangles.svg	39	no	57	0	1273
6.6.1	win	2022-12-21	15:22:05	15:26:57	288918	5f13c80de764c617c6b83856	955702913	1	main_slash	7	main_slash	57	stimuli_distractor_diamondtriangles.svg	stimuli_target_diamondsquares.svg	32	yes	53	1	267
6.6.1	win	2022-12-21	15:22:05	15:26:57	288918	5f13c80de764c617c6b83856	955702913	1	main_slash	7	advance_on_keypress_SLASH	58	stimuli_distractor_diamondtriangles.svg	stimuli_target_diamondsquares.svg	32	yes	57	0	772
6.6.1	win	2022-12-21	15:22:05	15:26:59	290626	5f13c80de764c617c6b83856	955702913	1	main_slash	7	main_slash	59	stimuli_distractor_diamondtriangles.svg	stimuli_distractor_diamondtriangles.svg	40	no	53	0	293
6.6.1	win	2022-12-21	15:22:05	15:26:59	290626	5f13c80de764c617c6b83856	955702913	1	main_slash	7	advance_on_keypress_SLASH	60	stimuli_distractor_diamondtriangles.svg	stimuli_distractor_diamondtriangles.svg	40	no	57	0	835
6.6.1	win	2022-12-21	15:22:05	15:27:01	292952	5f13c80de764c617c6b83856	955702913	1	main_slash	7	main_slash	61	stimuli_target_circletriangles.svg	stimuli_distractor_diamondtriangles.svg	5	yes	53	1	852
6.6.1	win	2022-12-21	15:22:05	15:27:01	292952	5f13c80de764c617c6b83856	955702913	1	main_slash	7	advance_on_keypress_SLASH	62	stimuli_target_circletriangles.svg	stimuli_distractor_diamondtriangles.svg	5	yes	57	0	605
6.6.1	win	2022-12-21	15:22:05	15:27:03	294760	5f13c80de764c617c6b83856	955702913	1	main_slash	7	main_slash	63	stimuli_target_squaretriangles.svg	stimuli_distractor_diamondtriangles.svg	7	yes	53	1	558
6.6.1	win	2022-12-21	15:22:05	15:27:03	294760	5f13c80de764c617c6b83856	955702913	1	main_slash	7	advance_on_keypress_SLASH	64	stimuli_target_squaretriangles.svg	stimuli_distractor_diamondtriangles.svg	7	yes	57	0	473
6.6.1	win	2022-12-21	15:22:05	15:27:04	296182	5f13c80de764c617c6b83856	955702913	1	main_slash	7	main_slash	65	stimuli_target_circlediamonds.svg	stimuli_distractor_trianglediamonds.svg	2	yes	53	1	314
6.6.1	win	2022-12-21	15:22:05	15:27:04	296182	5f13c80de764c617c6b83856	955702913	1	main_slash	7	advance_on_keypress_SLASH	66	stimuli_target_circlediamonds.svg	stimuli_distractor_trianglediamonds.svg	2	yes	57	0	1033
6.6.1	win	2022-12-21	15:22:05	15:27:06	298176	5f13c80de764c617c6b83856	955702913	1	main_slash	7	main_slash	67	stimuli_distractor_trianglediamonds.svg	stimuli_target_diamondsquares.svg	28	yes	53	1	307
6.6.1	win	2022-12-21	15:22:05	15:27:06	298176	5f13c80de764c617c6b83856	955702913	1	main_slash	7	advance_on_keypress_SLASH	68	stimuli_distractor_trianglediamonds.svg	stimuli_target_diamondsquares.svg	28	yes	57	0	857
6.6.1	win	2022-12-21	15:22:05	15:27:08	300001	5f13c80de764c617c6b83856	955702913	1	main_slash	7	main_slash	69	stimuli_target_circletriangles.svg	stimuli_distractor_trianglediamonds.svg	1	yes	53	1	332
6.6.1	win	2022-12-21	15:22:05	15:27:08	300001	5f13c80de764c617c6b83856	955702913	1	main_slash	7	advance_on_keypress_SLASH	70	stimuli_target_circletriangles.svg	stimuli_distractor_trianglediamonds.svg	1	yes	57	0	612
6.6.1	win	2022-12-21	15:22:05	15:27:10	301556	5f13c80de764c617c6b83856	955702913	1	main_slash	7	main_slash	71	stimuli_distractor_trianglediamonds.svg	stimuli_target_squaretriangles.svg	11	yes	53	1	286
6.6.1	win	2022-12-21	15:22:05	15:27:10	301556	5f13c80de764c617c6b83856	955702913	1	main_slash	7	advance_on_keypress_SLASH	72	stimuli_distractor_trianglediamonds.svg	stimuli_target_squaretriangles.svg	11	yes	57	0	1185
6.6.1	win	2022-12-21	15:22:05	15:27:12	303716	5f13c80de764c617c6b83856	955702913	1	main_slash	7	main_slash	73	stimuli_distractor_diamondtriangles.svg	stimuli_target_circlediamonds.svg	14	yes	53	1	329
6.6.1	win	2022-12-21	15:22:05	15:27:12	303716	5f13c80de764c617c6b83856	955702913	1	main_slash	7	advance_on_keypress_SLASH	74	stimuli_distractor_diamondtriangles.svg	stimuli_target_circlediamonds.svg	14	yes	57	0	494
6.6.1	win	2022-12-21	15:22:05	15:27:13	305185	5f13c80de764c617c6b83856	955702913	1	main_slash	7	main_slash	75	stimuli_target_squarediamonds.svg	stimuli_distractor_trianglediamonds.svg	4	yes	53	1	315
6.6.1	win	2022-12-21	15:22:05	15:27:13	305185	5f13c80de764c617c6b83856	955702913	1	main_slash	7	advance_on_keypress_SLASH	76	stimuli_target_squarediamonds.svg	stimuli_distractor_trianglediamonds.svg	4	yes	57	0	1126
6.6.1	win	2022-12-21	15:22:05	15:27:15	307203	5f13c80de764c617c6b83856	955702913	1	main_slash	7	main_slash	77	stimuli_distractor_trianglediamonds.svg	stimuli_target_circletriangles.svg	9	yes	53	1	249
6.6.1	win	2022-12-21	15:22:05	15:27:15	307203	5f13c80de764c617c6b83856	955702913	1	main_slash	7	advance_on_keypress_SLASH	78	stimuli_distractor_trianglediamonds.svg	stimuli_target_circletriangles.svg	9	yes	57	0	1057
6.6.1	win	2022-12-21	15:22:05	15:27:17	309177	5f13c80de764c617c6b83856	955702913	1	main_slash	7	main_slash	79	stimuli_distractor_trianglediamonds.svg	stimuli_distractor_diamondtriangles.svg	35	no	53	0	272
6.6.1	win	2022-12-21	15:22:05	15:27:17	309177	5f13c80de764c617c6b83856	955702913	1	main_slash	7	advance_on_keypress_SLASH	80	stimuli_distractor_trianglediamonds.svg	stimuli_distractor_diamondtriangles.svg	35	no	57	0	1472
6.6.1	win	2022-12-21	15:22:05	15:27:20	311652	5f13c80de764c617c6b83856	955702913	1	main_slash	7	main_slash	81	stimuli_distractor_diamondtriangles.svg	stimuli_distractor_diamondtriangles.svg	39	no	53	0	364
6.6.1	win	2022-12-21	15:22:05	15:27:20	311652	5f13c80de764c617c6b83856	955702913	1	main_slash	7	advance_on_keypress_SLASH	82	stimuli_distractor_diamondtriangles.svg	stimuli_distractor_diamondtriangles.svg	39	no	57	0	622
6.6.1	win	2022-12-21	15:22:05	15:27:22	313476	5f13c80de764c617c6b83856	955702913	1	main_slash	7	main_slash	83	stimuli_target_trianglecircles.svg	stimuli_distractor_trianglediamonds.svg	17	yes	53	1	520
6.6.1	win	2022-12-21	15:22:05	15:27:22	313476	5f13c80de764c617c6b83856	955702913	1	main_slash	7	advance_on_keypress_SLASH	84	stimuli_target_trianglecircles.svg	stimuli_distractor_trianglediamonds.svg	17	yes	57	0	529
6.6.1	win	2022-12-21	15:22:05	15:27:23	315177	5f13c80de764c617c6b83856	955702913	1	main_slash	7	main_slash	85	stimuli_target_squaretriangles.svg	stimuli_distractor_diamondtriangles.svg	7	yes	53	1	520
6.6.1	win	2022-12-21	15:22:05	15:27:23	315177	5f13c80de764c617c6b83856	955702913	1	main_slash	7	advance_on_keypress_SLASH	86	stimuli_target_squaretriangles.svg	stimuli_distractor_diamondtriangles.svg	7	yes	57	0	960
6.6.1	win	2022-12-21	15:22:05	15:27:25	317088	5f13c80de764c617c6b83856	955702913	1	main_slash	7	main_slash	87	stimuli_distractor_diamondtriangles.svg	stimuli_distractor_trianglediamonds.svg	37	no	53	0	297
6.6.1	win	2022-12-21	15:22:05	15:27:25	317088	5f13c80de764c617c6b83856	955702913	1	main_slash	7	advance_on_keypress_SLASH	88	stimuli_distractor_diamondtriangles.svg	stimuli_distractor_trianglediamonds.svg	37	no	57	0	892
6.6.1	win	2022-12-21	15:22:05	15:27:29	320623	5f13c80de764c617c6b83856	955702913	1	main_slash	7	main_slash	89	stimuli_target_trianglesquares.svg	stimuli_distractor_trianglediamonds.svg	18	yes	0	0	2000
6.6.1	win	2022-12-21	15:22:05	15:27:29	320623	5f13c80de764c617c6b83856	955702913	1	main_slash	7	advance_on_keypress_SLASH	90	stimuli_target_trianglesquares.svg	stimuli_distractor_trianglediamonds.svg	18	yes	57	0	460
6.6.1	win	2022-12-21	15:22:05	15:27:30	321986	5f13c80de764c617c6b83856	955702913	1	main_slash	7	main_slash	91	stimuli_distractor_diamondtriangles.svg	stimuli_target_trianglecircles.svg	29	yes	53	1	263
6.6.1	win	2022-12-21	15:22:05	15:27:30	321986	5f13c80de764c617c6b83856	955702913	1	main_slash	7	advance_on_keypress_SLASH	92	stimuli_distractor_diamondtriangles.svg	stimuli_target_trianglecircles.svg	29	yes	57	0	807
6.6.1	win	2022-12-21	15:22:05	15:27:32	323602	5f13c80de764c617c6b83856	955702913	1	main_slash	7	main_slash	93	stimuli_target_circlediamonds.svg	stimuli_distractor_diamondtriangles.svg	6	yes	53	1	161
6.6.1	win	2022-12-21	15:22:05	15:27:32	323602	5f13c80de764c617c6b83856	955702913	1	main_slash	7	advance_on_keypress_SLASH	94	stimuli_target_circlediamonds.svg	stimuli_distractor_diamondtriangles.svg	6	yes	57	0	1177
6.6.1	win	2022-12-21	15:22:05	15:27:34	325744	5f13c80de764c617c6b83856	955702913	1	main_slash	7	main_slash	95	stimuli_distractor_trianglediamonds.svg	stimuli_distractor_diamondtriangles.svg	36	no	53	0	303
6.6.1	win	2022-12-21	15:22:05	15:27:34	325744	5f13c80de764c617c6b83856	955702913	1	main_slash	7	advance_on_keypress_SLASH	96	stimuli_distractor_trianglediamonds.svg	stimuli_distractor_diamondtriangles.svg	36	no	57	0	682
6.6.1	win	2022-12-21	15:22:05	15:27:36	327614	5f13c80de764c617c6b83856	955702913	1	main_slash	7	main_slash	97	stimuli_distractor_diamondtriangles.svg	stimuli_target_diamondcircles.svg	31	yes	53	1	539
6.6.1	win	2022-12-21	15:22:05	15:27:36	327614	5f13c80de764c617c6b83856	955702913	1	main_slash	7	advance_on_keypress_SLASH	98	stimuli_distractor_diamondtriangles.svg	stimuli_target_diamondcircles.svg	31	yes	57	0	453
6.6.1	win	2022-12-21	15:22:05	15:27:37	329055	5f13c80de764c617c6b83856	955702913	1	main_slash	7	main_slash	99	stimuli_distractor_trianglediamonds.svg	stimuli_target_trianglecircles.svg	25	yes	53	1	347
6.6.1	win	2022-12-21	15:22:05	15:27:37	329055	5f13c80de764c617c6b83856	955702913	1	main_slash	7	advance_on_keypress_SLASH	100	stimuli_distractor_trianglediamonds.svg	stimuli_target_trianglecircles.svg	25	yes	57	0	926
6.6.1	win	2022-12-21	15:22:05	15:27:39	331145	5f13c80de764c617c6b83856	955702913	1	main_slash	7	main_slash	101	stimuli_target_trianglesquares.svg	stimuli_distractor_diamondtriangles.svg	22	yes	53	1	517
6.6.1	win	2022-12-21	15:22:05	15:27:39	331145	5f13c80de764c617c6b83856	955702913	1	main_slash	7	advance_on_keypress_SLASH	102	stimuli_target_trianglesquares.svg	stimuli_distractor_diamondtriangles.svg	22	yes	57	0	532
6.6.1	win	2022-12-21	15:22:05	15:27:41	332660	5f13c80de764c617c6b83856	955702913	1	main_slash	7	main_slash	103	stimuli_target_squarediamonds.svg	stimuli_distractor_diamondtriangles.svg	8	yes	53	1	334
6.6.1	win	2022-12-21	15:22:05	15:27:41	332660	5f13c80de764c617c6b83856	955702913	1	main_slash	7	advance_on_keypress_SLASH	104	stimuli_target_squarediamonds.svg	stimuli_distractor_diamondtriangles.svg	8	yes	57	0	1368
6.6.1	win	2022-12-21	15:22:05	15:27:43	334908	5f13c80de764c617c6b83856	955702913	1	main_slash	7	main_slash	105	stimuli_target_diamondsquares.svg	stimuli_distractor_trianglediamonds.svg	20	yes	53	1	232
6.6.1	win	2022-12-21	15:22:05	15:27:43	334908	5f13c80de764c617c6b83856	955702913	1	main_slash	7	advance_on_keypress_SLASH	106	stimuli_target_diamondsquares.svg	stimuli_distractor_trianglediamonds.svg	20	yes	57	0	1246
6.6.1	win	2022-12-21	15:22:05	15:27:45	337111	5f13c80de764c617c6b83856	955702913	1	main_slash	7	main_slash	107	stimuli_target_circletriangles.svg	stimuli_distractor_diamondtriangles.svg	5	yes	53	1	302
6.6.1	win	2022-12-21	15:22:05	15:27:45	337111	5f13c80de764c617c6b83856	955702913	1	main_slash	7	advance_on_keypress_SLASH	108	stimuli_target_circletriangles.svg	stimuli_distractor_diamondtriangles.svg	5	yes	57	0	558
6.6.1	win	2022-12-21	15:22:05	15:27:47	338601	5f13c80de764c617c6b83856	955702913	1	main_slash	7	main_slash	109	stimuli_target_diamondcircles.svg	stimuli_distractor_trianglediamonds.svg	19	yes	53	1	290
6.6.1	win	2022-12-21	15:22:05	15:27:47	338601	5f13c80de764c617c6b83856	955702913	1	main_slash	7	advance_on_keypress_SLASH	110	stimuli_target_diamondcircles.svg	stimuli_distractor_trianglediamonds.svg	19	yes	57	0	718
6.6.1	win	2022-12-21	15:22:05	15:27:48	340218	5f13c80de764c617c6b83856	955702913	1	main_slash	7	main_slash	111	stimuli_distractor_trianglediamonds.svg	stimuli_target_squaretriangles.svg	11	yes	53	1	258
6.6.1	win	2022-12-21	15:22:05	15:27:48	340218	5f13c80de764c617c6b83856	955702913	1	main_slash	7	advance_on_keypress_SLASH	112	stimuli_distractor_trianglediamonds.svg	stimuli_target_squaretriangles.svg	11	yes	57	0	1178
6.6.1	win	2022-12-21	15:22:05	15:27:50	342277	5f13c80de764c617c6b83856	955702913	1	main_slash	7	main_slash	113	stimuli_target_diamondsquares.svg	stimuli_distractor_diamondtriangles.svg	24	yes	53	1	234
6.6.1	win	2022-12-21	15:22:05	15:27:50	342277	5f13c80de764c617c6b83856	955702913	1	main_slash	7	advance_on_keypress_SLASH	114	stimuli_target_diamondsquares.svg	stimuli_distractor_diamondtriangles.svg	24	yes	57	0	756
6.6.1	win	2022-12-21	15:22:05	15:27:52	343992	5f13c80de764c617c6b83856	955702913	1	main_slash	7	main_slash	115	stimuli_distractor_diamondtriangles.svg	stimuli_target_circlediamonds.svg	14	yes	53	1	314
6.6.1	win	2022-12-21	15:22:05	15:27:52	343992	5f13c80de764c617c6b83856	955702913	1	main_slash	7	advance_on_keypress_SLASH	116	stimuli_distractor_diamondtriangles.svg	stimuli_target_circlediamonds.svg	14	yes	57	0	1047
6.6.1	win	2022-12-21	15:22:05	15:27:54	346009	5f13c80de764c617c6b83856	955702913	1	main_slash	7	main_slash	117	stimuli_distractor_trianglediamonds.svg	stimuli_target_diamondcircles.svg	27	yes	53	1	313
6.6.1	win	2022-12-21	15:22:05	15:27:54	346009	5f13c80de764c617c6b83856	955702913	1	main_slash	7	advance_on_keypress_SLASH	118	stimuli_distractor_trianglediamonds.svg	stimuli_target_diamondcircles.svg	27	yes	57	0	804
6.6.1	win	2022-12-21	15:22:05	15:27:56	347760	5f13c80de764c617c6b83856	955702913	1	main_slash	7	main_slash	119	stimuli_distractor_diamondtriangles.svg	stimuli_target_trianglesquares.svg	30	yes	53	1	299
6.6.1	win	2022-12-21	15:22:05	15:27:56	347760	5f13c80de764c617c6b83856	955702913	1	main_slash	7	advance_on_keypress_SLASH	120	stimuli_distractor_diamondtriangles.svg	stimuli_target_trianglesquares.svg	30	yes	57	0	1082
6.6.1	win	2022-12-21	15:22:05	15:27:58	349584	5f13c80de764c617c6b83856	955702913	1	main_slash	7	main_slash	121	stimuli_distractor_trianglediamonds.svg	stimuli_target_circletriangles.svg	9	yes	53	1	88
6.6.1	win	2022-12-21	15:22:05	15:27:58	349584	5f13c80de764c617c6b83856	955702913	1	main_slash	7	advance_on_keypress_SLASH	122	stimuli_distractor_trianglediamonds.svg	stimuli_target_circletriangles.svg	9	yes	57	0	1334
6.6.1	win	2022-12-21	15:22:05	15:28:00	351785	5f13c80de764c617c6b83856	955702913	1	main_slash	7	main_slash	123	stimuli_distractor_trianglediamonds.svg	stimuli_target_squarediamonds.svg	12	yes	53	1	223
6.6.1	win	2022-12-21	15:22:05	15:28:00	351785	5f13c80de764c617c6b83856	955702913	1	main_slash	7	advance_on_keypress_SLASH	124	stimuli_distractor_trianglediamonds.svg	stimuli_target_squarediamonds.svg	12	yes	57	0	863
6.6.1	win	2022-12-21	15:22:05	15:28:02	353535	5f13c80de764c617c6b83856	955702913	1	main_slash	7	main_slash	125	stimuli_distractor_trianglediamonds.svg	stimuli_distractor_diamondtriangles.svg	35	no	53	0	240
6.6.1	win	2022-12-21	15:22:05	15:28:02	353535	5f13c80de764c617c6b83856	955702913	1	main_slash	7	advance_on_keypress_SLASH	126	stimuli_distractor_trianglediamonds.svg	stimuli_distractor_diamondtriangles.svg	35	no	57	0	788
6.6.1	win	2022-12-21	15:22:05	15:28:05	356963	5f13c80de764c617c6b83856	955702913	1	main_slash	7	main_slash	127	stimuli_distractor_trianglediamonds.svg	stimuli_target_diamondsquares.svg	28	yes	0	0	2000
6.6.1	win	2022-12-21	15:22:05	15:28:05	356963	5f13c80de764c617c6b83856	955702913	1	main_slash	7	advance_on_keypress_SLASH	128	stimuli_distractor_trianglediamonds.svg	stimuli_target_diamondsquares.svg	28	yes	57	0	762
6.6.1	win	2022-12-21	15:22:05	15:28:07	358690	5f13c80de764c617c6b83856	955702913	1	main_slash	7	main_slash	129	stimuli_target_circletriangles.svg	stimuli_distractor_trianglediamonds.svg	1	yes	53	1	309
6.6.1	win	2022-12-21	15:22:05	15:28:07	358690	5f13c80de764c617c6b83856	955702913	1	main_slash	7	advance_on_keypress_SLASH	130	stimuli_target_circletriangles.svg	stimuli_distractor_trianglediamonds.svg	1	yes	57	0	814
6.6.1	win	2022-12-21	15:22:05	15:28:09	360392	5f13c80de764c617c6b83856	955702913	1	main_slash	7	main_slash	131	stimuli_distractor_diamondtriangles.svg	stimuli_distractor_diamondtriangles.svg	40	no	53	0	244
6.6.1	win	2022-12-21	15:22:05	15:28:09	360392	5f13c80de764c617c6b83856	955702913	1	main_slash	7	advance_on_keypress_SLASH	132	stimuli_distractor_diamondtriangles.svg	stimuli_distractor_diamondtriangles.svg	40	no	57	0	650
6.6.1	win	2022-12-21	15:22:05	15:28:10	361987	5f13c80de764c617c6b83856	955702913	1	main_slash	7	main_slash	133	stimuli_distractor_diamondtriangles.svg	stimuli_target_squaretriangles.svg	15	yes	53	1	290
6.6.1	win	2022-12-21	15:22:05	15:28:10	361987	5f13c80de764c617c6b83856	955702913	1	main_slash	7	advance_on_keypress_SLASH	134	stimuli_distractor_diamondtriangles.svg	stimuli_target_squaretriangles.svg	15	yes	57	0	837
6.6.1	win	2022-12-21	15:22:05	15:28:12	363696	5f13c80de764c617c6b83856	955702913	1	main_slash	7	main_slash	135	stimuli_target_diamondcircles.svg	stimuli_distractor_diamondtriangles.svg	23	yes	53	1	231
6.6.1	win	2022-12-21	15:22:05	15:28:12	363696	5f13c80de764c617c6b83856	955702913	1	main_slash	7	advance_on_keypress_SLASH	136	stimuli_target_diamondcircles.svg	stimuli_distractor_diamondtriangles.svg	23	yes	57	0	807
6.6.1	win	2022-12-21	15:22:05	15:28:14	365394	5f13c80de764c617c6b83856	955702913	1	main_slash	7	main_slash	137	stimuli_target_squaretriangles.svg	stimuli_distractor_trianglediamonds.svg	3	yes	53	1	245
6.6.1	win	2022-12-21	15:22:05	15:28:14	365394	5f13c80de764c617c6b83856	955702913	1	main_slash	7	advance_on_keypress_SLASH	138	stimuli_target_squaretriangles.svg	stimuli_distractor_trianglediamonds.svg	3	yes	57	0	663
6.6.1	win	2022-12-21	15:22:05	15:28:17	368716	5f13c80de764c617c6b83856	955702913	1	main_slash	7	main_slash	139	stimuli_distractor_diamondtriangles.svg	stimuli_target_diamondsquares.svg	32	yes	0	0	2000
6.6.1	win	2022-12-21	15:22:05	15:28:17	368716	5f13c80de764c617c6b83856	955702913	1	main_slash	7	advance_on_keypress_SLASH	140	stimuli_distractor_diamondtriangles.svg	stimuli_target_diamondsquares.svg	32	yes	57	0	696
6.6.1	win	2022-12-21	15:22:05	15:28:19	370485	5f13c80de764c617c6b83856	955702913	1	main_slash	7	main_slash	141	stimuli_distractor_trianglediamonds.svg	stimuli_target_trianglesquares.svg	26	yes	53	1	419
6.6.1	win	2022-12-21	15:22:05	15:28:19	370485	5f13c80de764c617c6b83856	955702913	1	main_slash	7	advance_on_keypress_SLASH	142	stimuli_distractor_trianglediamonds.svg	stimuli_target_trianglesquares.svg	26	yes	57	0	665
6.6.1	win	2022-12-21	15:22:05	15:28:20	372057	5f13c80de764c617c6b83856	955702913	1	main_slash	7	main_slash	143	stimuli_target_trianglecircles.svg	stimuli_distractor_diamondtriangles.svg	21	yes	53	1	257
6.6.1	win	2022-12-21	15:22:05	15:28:20	372057	5f13c80de764c617c6b83856	955702913	1	main_slash	7	advance_on_keypress_SLASH	144	stimuli_target_trianglecircles.svg	stimuli_distractor_diamondtriangles.svg	21	yes	57	0	688
6.6.1	win	2022-12-21	15:22:05	15:28:24	375384	5f13c80de764c617c6b83856	955702913	1	main_slash	7	main_slash	145	stimuli_distractor_trianglediamonds.svg	stimuli_target_circlediamonds.svg	10	yes	0	0	2000
6.6.1	win	2022-12-21	15:22:05	15:28:24	375384	5f13c80de764c617c6b83856	955702913	1	main_slash	7	advance_on_keypress_SLASH	146	stimuli_distractor_trianglediamonds.svg	stimuli_target_circlediamonds.svg	10	yes	57	0	512
6.6.1	win	2022-12-21	15:22:05	15:28:25	376911	5f13c80de764c617c6b83856	955702913	1	main_slash	7	main_slash	147	stimuli_distractor_diamondtriangles.svg	stimuli_target_circletriangles.svg	13	yes	53	1	360
6.6.1	win	2022-12-21	15:22:05	15:28:25	376911	5f13c80de764c617c6b83856	955702913	1	main_slash	7	advance_on_keypress_SLASH	148	stimuli_distractor_diamondtriangles.svg	stimuli_target_circletriangles.svg	13	yes	57	0	570
6.6.1	win	2022-12-21	15:22:05	15:28:27	378385	5f13c80de764c617c6b83856	955702913	1	main_slash	7	main_slash	149	stimuli_target_squarediamonds.svg	stimuli_distractor_trianglediamonds.svg	4	yes	53	1	251
6.6.1	win	2022-12-21	15:22:05	15:28:27	378385	5f13c80de764c617c6b83856	955702913	1	main_slash	7	advance_on_keypress_SLASH	150	stimuli_target_squarediamonds.svg	stimuli_distractor_trianglediamonds.svg	4	yes	57	0	587
6.6.1	win	2022-12-21	15:22:05	15:28:30	381618	5f13c80de764c617c6b83856	955702913	1	main_slash	7	main_slash	151	stimuli_distractor_diamondtriangles.svg	stimuli_distractor_trianglediamonds.svg	38	no	0	1	2000
6.6.1	win	2022-12-21	15:22:05	15:28:30	381618	5f13c80de764c617c6b83856	955702913	1	main_slash	7	advance_on_keypress_SLASH	152	stimuli_distractor_diamondtriangles.svg	stimuli_distractor_trianglediamonds.svg	38	no	57	0	748
6.6.1	win	2022-12-21	15:22:05	15:28:32	383480	5f13c80de764c617c6b83856	955702913	1	main_slash	7	main_slash	153	stimuli_distractor_diamondtriangles.svg	stimuli_target_squarediamonds.svg	16	yes	53	1	461
6.6.1	win	2022-12-21	15:22:05	15:28:32	383480	5f13c80de764c617c6b83856	955702913	1	main_slash	7	advance_on_keypress_SLASH	154	stimuli_distractor_diamondtriangles.svg	stimuli_target_squarediamonds.svg	16	yes	57	0	705
6.6.1	win	2022-12-21	15:22:05	15:28:35	386836	5f13c80de764c617c6b83856	955702913	1	main_slash	7	main_slash	155	stimuli_distractor_trianglediamonds.svg	stimuli_distractor_trianglediamonds.svg	34	no	0	1	2000
6.6.1	win	2022-12-21	15:22:05	15:28:35	386836	5f13c80de764c617c6b83856	955702913	1	main_slash	7	advance_on_keypress_SLASH	156	stimuli_distractor_trianglediamonds.svg	stimuli_distractor_trianglediamonds.svg	34	no	57	0	257
6.6.1	win	2022-12-21	15:22:05	15:28:38	389737	5f13c80de764c617c6b83856	955702913	1	main_slash	7	main_slash	157	stimuli_distractor_trianglediamonds.svg	stimuli_distractor_trianglediamonds.svg	33	no	0	1	2000
6.6.1	win	2022-12-21	15:22:05	15:28:38	389737	5f13c80de764c617c6b83856	955702913	1	main_slash	7	advance_on_keypress_SLASH	158	stimuli_distractor_trianglediamonds.svg	stimuli_distractor_trianglediamonds.svg	33	no	57	0	440
6.6.1	win	2022-12-21	15:22:05	15:28:39	391137	5f13c80de764c617c6b83856	955702913	1	main_slash	7	main_slash	159	stimuli_target_circlediamonds.svg	stimuli_distractor_trianglediamonds.svg	2	yes	53	1	316
6.6.1	win	2022-12-21	15:22:05	15:28:39	391137	5f13c80de764c617c6b83856	955702913	1	main_slash	7	advance_on_keypress_SLASH	160	stimuli_target_circlediamonds.svg	stimuli_distractor_trianglediamonds.svg	2	yes	57	0	846
6.6.1	win	2022-12-21	15:22:05	15:29:04	415524	5f13c80de764c617c6b83856	955702913	1	practice_z	9	practice_z	1	stimuli_target_diamondsquares.svg	stimuli_distractor_trianglediamonds.svg	6	yes	44	1	446
6.6.1	win	2022-12-21	15:22:05	15:29:04	415524	5f13c80de764c617c6b83856	955702913	1	practice_z	9	advance_on_keypress_ZEE	2	stimuli_target_diamondsquares.svg	stimuli_distractor_trianglediamonds.svg	6	yes	57	0	2494
6.6.1	win	2022-12-21	15:22:05	15:29:08	420194	5f13c80de764c617c6b83856	955702913	1	practice_z	9	practice_z	3	stimuli_distractor_diamondtriangles.svg	stimuli_target_trianglecircles.svg	9	yes	44	1	510
6.6.1	win	2022-12-21	15:22:05	15:29:08	420194	5f13c80de764c617c6b83856	955702913	1	practice_z	9	advance_on_keypress_ZEE	4	stimuli_distractor_diamondtriangles.svg	stimuli_target_trianglecircles.svg	9	yes	57	0	552
6.6.1	win	2022-12-21	15:22:05	15:29:11	422851	5f13c80de764c617c6b83856	955702913	1	practice_z	9	practice_z	5	stimuli_target_squarediamonds.svg	stimuli_distractor_trianglediamonds.svg	5	yes	44	1	454
6.6.1	win	2022-12-21	15:22:05	15:29:11	422851	5f13c80de764c617c6b83856	955702913	1	practice_z	9	advance_on_keypress_ZEE	6	stimuli_target_squarediamonds.svg	stimuli_distractor_trianglediamonds.svg	5	yes	57	0	489
6.6.1	win	2022-12-21	15:22:05	15:29:14	425551	5f13c80de764c617c6b83856	955702913	1	practice_z	9	practice_z	7	stimuli_distractor_diamondtriangles.svg	stimuli_target_circletriangles.svg	7	yes	44	1	571
6.6.1	win	2022-12-21	15:22:05	15:29:14	425551	5f13c80de764c617c6b83856	955702913	1	practice_z	9	advance_on_keypress_ZEE	8	stimuli_distractor_diamondtriangles.svg	stimuli_target_circletriangles.svg	7	yes	57	0	590
6.6.1	win	2022-12-21	15:22:05	15:29:16	428216	5f13c80de764c617c6b83856	955702913	1	practice_z	9	practice_z	9	stimuli_distractor_trianglediamonds.svg	stimuli_target_circlediamonds.svg	10	yes	44	1	419
6.6.1	win	2022-12-21	15:22:05	15:29:16	428216	5f13c80de764c617c6b83856	955702913	1	practice_z	9	advance_on_keypress_ZEE	10	stimuli_distractor_trianglediamonds.svg	stimuli_target_circlediamonds.svg	10	yes	57	0	555
6.6.1	win	2022-12-21	15:22:05	15:29:19	430874	5f13c80de764c617c6b83856	955702913	1	practice_z	9	practice_z	11	stimuli_distractor_diamondtriangles.svg	stimuli_distractor_trianglediamonds.svg	14	no	44	0	459
6.6.1	win	2022-12-21	15:22:05	15:29:19	430874	5f13c80de764c617c6b83856	955702913	1	practice_z	9	advance_on_keypress_ZEE	12	stimuli_distractor_diamondtriangles.svg	stimuli_distractor_trianglediamonds.svg	14	no	57	0	493
6.6.1	win	2022-12-21	15:22:05	15:29:22	433456	5f13c80de764c617c6b83856	955702913	1	practice_z	9	practice_z	13	stimuli_distractor_trianglediamonds.svg	stimuli_target_diamondcircles.svg	12	yes	44	1	425
6.6.1	win	2022-12-21	15:22:05	15:29:22	433456	5f13c80de764c617c6b83856	955702913	1	practice_z	9	advance_on_keypress_ZEE	14	stimuli_distractor_trianglediamonds.svg	stimuli_target_diamondcircles.svg	12	yes	57	0	582
6.6.1	win	2022-12-21	15:22:05	15:29:24	436187	5f13c80de764c617c6b83856	955702913	1	practice_z	9	practice_z	15	stimuli_target_diamondsquares.svg	stimuli_distractor_diamondtriangles.svg	3	yes	44	1	487
6.6.1	win	2022-12-21	15:22:05	15:29:24	436187	5f13c80de764c617c6b83856	955702913	1	practice_z	9	advance_on_keypress_ZEE	16	stimuli_target_diamondsquares.svg	stimuli_distractor_diamondtriangles.svg	3	yes	57	0	218
6.6.1	win	2022-12-21	15:22:05	15:29:27	438457	5f13c80de764c617c6b83856	955702913	1	practice_z	9	practice_z	17	stimuli_distractor_trianglediamonds.svg	stimuli_distractor_trianglediamonds.svg	15	no	44	0	408
6.6.1	win	2022-12-21	15:22:05	15:29:27	438457	5f13c80de764c617c6b83856	955702913	1	practice_z	9	advance_on_keypress_ZEE	18	stimuli_distractor_trianglediamonds.svg	stimuli_distractor_trianglediamonds.svg	15	no	57	0	427
6.6.1	win	2022-12-21	15:22:05	15:29:29	440981	5f13c80de764c617c6b83856	955702913	1	practice_z	9	practice_z	19	stimuli_target_circlediamonds.svg	stimuli_distractor_trianglediamonds.svg	4	yes	44	1	430
6.6.1	win	2022-12-21	15:22:05	15:29:29	440981	5f13c80de764c617c6b83856	955702913	1	practice_z	9	advance_on_keypress_ZEE	20	stimuli_target_circlediamonds.svg	stimuli_distractor_trianglediamonds.svg	4	yes	57	0	426
6.6.1	win	2022-12-21	15:22:05	15:29:32	443595	5f13c80de764c617c6b83856	955702913	1	practice_z	9	practice_z	21	stimuli_distractor_trianglediamonds.svg	stimuli_distractor_diamondtriangles.svg	16	no	44	0	529
6.6.1	win	2022-12-21	15:22:05	15:29:32	443595	5f13c80de764c617c6b83856	955702913	1	practice_z	9	advance_on_keypress_ZEE	22	stimuli_distractor_trianglediamonds.svg	stimuli_distractor_diamondtriangles.svg	16	no	57	0	374
6.6.1	win	2022-12-21	15:22:05	15:29:34	446070	5f13c80de764c617c6b83856	955702913	1	practice_z	9	practice_z	23	stimuli_target_circlediamonds.svg	stimuli_distractor_diamondtriangles.svg	1	yes	44	1	451
6.6.1	win	2022-12-21	15:22:05	15:29:34	446070	5f13c80de764c617c6b83856	955702913	1	practice_z	9	advance_on_keypress_ZEE	24	stimuli_target_circlediamonds.svg	stimuli_distractor_diamondtriangles.svg	1	yes	57	0	417
6.6.1	win	2022-12-21	15:22:05	15:29:37	448584	5f13c80de764c617c6b83856	955702913	1	practice_z	9	practice_z	25	stimuli_distractor_diamondtriangles.svg	stimuli_target_diamondcircles.svg	8	yes	44	1	450
6.6.1	win	2022-12-21	15:22:05	15:29:37	448584	5f13c80de764c617c6b83856	955702913	1	practice_z	9	advance_on_keypress_ZEE	26	stimuli_distractor_diamondtriangles.svg	stimuli_target_diamondcircles.svg	8	yes	57	0	628
6.6.1	win	2022-12-21	15:22:05	15:29:40	451447	5f13c80de764c617c6b83856	955702913	1	practice_z	9	practice_z	27	stimuli_distractor_trianglediamonds.svg	stimuli_target_squarediamonds.svg	11	yes	44	1	579
6.6.1	win	2022-12-21	15:22:05	15:29:40	451447	5f13c80de764c617c6b83856	955702913	1	practice_z	9	advance_on_keypress_ZEE	28	stimuli_distractor_trianglediamonds.svg	stimuli_target_squarediamonds.svg	11	yes	57	0	295
6.6.1	win	2022-12-21	15:22:05	15:29:42	454118	5f13c80de764c617c6b83856	955702913	1	practice_z	9	practice_z	29	stimuli_distractor_diamondtriangles.svg	stimuli_distractor_diamondtriangles.svg	13	no	44	0	715
6.6.1	win	2022-12-21	15:22:05	15:29:42	454118	5f13c80de764c617c6b83856	955702913	1	practice_z	9	advance_on_keypress_ZEE	30	stimuli_distractor_diamondtriangles.svg	stimuli_distractor_diamondtriangles.svg	13	no	57	0	342
6.6.1	win	2022-12-21	15:22:05	15:29:45	456429	5f13c80de764c617c6b83856	955702913	1	practice_z	9	practice_z	31	stimuli_target_squarediamonds.svg	stimuli_distractor_diamondtriangles.svg	2	yes	44	1	328
6.6.1	win	2022-12-21	15:22:05	15:29:45	456429	5f13c80de764c617c6b83856	955702913	1	practice_z	9	advance_on_keypress_ZEE	32	stimuli_target_squarediamonds.svg	stimuli_distractor_diamondtriangles.svg	2	yes	57	0	677
6.6.1	win	2022-12-21	15:22:05	15:29:52	463728	5f13c80de764c617c6b83856	955702913	1	main_z	11	main_z	1	stimuli_target_circlediamonds.svg	stimuli_distractor_trianglediamonds.svg	2	yes	44	1	461
6.6.1	win	2022-12-21	15:22:05	15:29:52	463728	5f13c80de764c617c6b83856	955702913	1	main_z	11	advance_on_keypress_ZEE	2	stimuli_target_circlediamonds.svg	stimuli_distractor_trianglediamonds.svg	2	yes	57	0	1264
6.6.1	win	2022-12-21	15:22:05	15:29:54	465912	5f13c80de764c617c6b83856	955702913	1	main_z	11	main_z	3	stimuli_distractor_diamondtriangles.svg	stimuli_distractor_diamondtriangles.svg	40	no	44	0	260
6.6.1	win	2022-12-21	15:22:05	15:29:54	465912	5f13c80de764c617c6b83856	955702913	1	main_z	11	advance_on_keypress_ZEE	4	stimuli_distractor_diamondtriangles.svg	stimuli_distractor_diamondtriangles.svg	40	no	57	0	603
6.6.1	win	2022-12-21	15:22:05	15:29:56	467739	5f13c80de764c617c6b83856	955702913	1	main_z	11	main_z	5	stimuli_target_diamondsquares.svg	stimuli_distractor_diamondtriangles.svg	24	yes	44	1	571
6.6.1	win	2022-12-21	15:22:05	15:29:56	467739	5f13c80de764c617c6b83856	955702913	1	main_z	11	advance_on_keypress_ZEE	6	stimuli_target_diamondsquares.svg	stimuli_distractor_diamondtriangles.svg	24	yes	57	0	911
6.6.1	win	2022-12-21	15:22:05	15:29:59	471301	5f13c80de764c617c6b83856	955702913	1	main_z	11	main_z	7	stimuli_distractor_diamondtriangles.svg	stimuli_distractor_trianglediamonds.svg	38	no	0	1	2000
6.6.1	win	2022-12-21	15:22:05	15:29:59	471301	5f13c80de764c617c6b83856	955702913	1	main_z	11	advance_on_keypress_ZEE	8	stimuli_distractor_diamondtriangles.svg	stimuli_distractor_trianglediamonds.svg	38	no	57	0	397
6.6.1	win	2022-12-21	15:22:05	15:30:01	472868	5f13c80de764c617c6b83856	955702913	1	main_z	11	main_z	9	stimuli_distractor_diamondtriangles.svg	stimuli_target_circlediamonds.svg	14	yes	44	1	505
6.6.1	win	2022-12-21	15:22:05	15:30:01	472868	5f13c80de764c617c6b83856	955702913	1	main_z	11	advance_on_keypress_ZEE	10	stimuli_distractor_diamondtriangles.svg	stimuli_target_circlediamonds.svg	14	yes	57	0	786
6.6.1	win	2022-12-21	15:22:05	15:30:03	474653	5f13c80de764c617c6b83856	955702913	1	main_z	11	main_z	11	stimuli_distractor_trianglediamonds.svg	stimuli_distractor_trianglediamonds.svg	34	no	44	0	351
6.6.1	win	2022-12-21	15:22:05	15:30:03	474653	5f13c80de764c617c6b83856	955702913	1	main_z	11	advance_on_keypress_ZEE	12	stimuli_distractor_trianglediamonds.svg	stimuli_distractor_trianglediamonds.svg	34	no	57	0	596
6.6.1	win	2022-12-21	15:22:05	15:30:04	476260	5f13c80de764c617c6b83856	955702913	1	main_z	11	main_z	13	stimuli_distractor_diamondtriangles.svg	stimuli_target_diamondcircles.svg	31	yes	44	1	356
6.6.1	win	2022-12-21	15:22:05	15:30:04	476260	5f13c80de764c617c6b83856	955702913	1	main_z	11	advance_on_keypress_ZEE	14	stimuli_distractor_diamondtriangles.svg	stimuli_target_diamondcircles.svg	31	yes	57	0	738
6.6.1	win	2022-12-21	15:22:05	15:30:06	477875	5f13c80de764c617c6b83856	955702913	1	main_z	11	main_z	15	stimuli_distractor_diamondtriangles.svg	stimuli_target_circletriangles.svg	13	yes	44	1	237
6.6.1	win	2022-12-21	15:22:05	15:30:06	477875	5f13c80de764c617c6b83856	955702913	1	main_z	11	advance_on_keypress_ZEE	16	stimuli_distractor_diamondtriangles.svg	stimuli_target_circletriangles.svg	13	yes	57	0	912
6.6.1	win	2022-12-21	15:22:05	15:30:08	479601	5f13c80de764c617c6b83856	955702913	1	main_z	11	main_z	17	stimuli_distractor_trianglediamonds.svg	stimuli_target_diamondsquares.svg	28	yes	44	1	163
6.6.1	win	2022-12-21	15:22:05	15:30:08	479601	5f13c80de764c617c6b83856	955702913	1	main_z	11	advance_on_keypress_ZEE	18	stimuli_distractor_trianglediamonds.svg	stimuli_target_diamondsquares.svg	28	yes	57	0	918
6.6.1	win	2022-12-21	15:22:05	15:30:10	481456	5f13c80de764c617c6b83856	955702913	1	main_z	11	main_z	19	stimuli_target_squarediamonds.svg	stimuli_distractor_trianglediamonds.svg	4	yes	44	1	285
6.6.1	win	2022-12-21	15:22:05	15:30:10	481456	5f13c80de764c617c6b83856	955702913	1	main_z	11	advance_on_keypress_ZEE	20	stimuli_target_squarediamonds.svg	stimuli_distractor_trianglediamonds.svg	4	yes	57	0	680
6.6.1	win	2022-12-21	15:22:05	15:30:11	483023	5f13c80de764c617c6b83856	955702913	1	main_z	11	main_z	21	stimuli_target_circletriangles.svg	stimuli_distractor_diamondtriangles.svg	5	yes	44	1	235
6.6.1	win	2022-12-21	15:22:05	15:30:11	483023	5f13c80de764c617c6b83856	955702913	1	main_z	11	advance_on_keypress_ZEE	22	stimuli_target_circletriangles.svg	stimuli_distractor_diamondtriangles.svg	5	yes	57	0	881
6.6.1	win	2022-12-21	15:22:05	15:30:13	484590	5f13c80de764c617c6b83856	955702913	1	main_z	11	main_z	23	stimuli_distractor_diamondtriangles.svg	stimuli_target_trianglecircles.svg	29	yes	44	1	35
6.6.1	win	2022-12-21	15:22:05	15:30:13	484590	5f13c80de764c617c6b83856	955702913	1	main_z	11	advance_on_keypress_ZEE	24	stimuli_distractor_diamondtriangles.svg	stimuli_target_trianglecircles.svg	29	yes	57	0	862
6.6.1	win	2022-12-21	15:22:05	15:30:15	486405	5f13c80de764c617c6b83856	955702913	1	main_z	11	main_z	25	stimuli_distractor_diamondtriangles.svg	stimuli_distractor_diamondtriangles.svg	39	no	44	0	300
6.6.1	win	2022-12-21	15:22:05	15:30:15	486405	5f13c80de764c617c6b83856	955702913	1	main_z	11	advance_on_keypress_ZEE	26	stimuli_distractor_diamondtriangles.svg	stimuli_distractor_diamondtriangles.svg	39	no	57	0	607
6.6.1	win	2022-12-21	15:22:05	15:30:16	487968	5f13c80de764c617c6b83856	955702913	1	main_z	11	main_z	27	stimuli_distractor_trianglediamonds.svg	stimuli_distractor_diamondtriangles.svg	36	no	44	0	313
6.6.1	win	2022-12-21	15:22:05	15:30:16	487968	5f13c80de764c617c6b83856	955702913	1	main_z	11	advance_on_keypress_ZEE	28	stimuli_distractor_trianglediamonds.svg	stimuli_distractor_diamondtriangles.svg	36	no	57	0	520
6.6.1	win	2022-12-21	15:22:05	15:30:18	489406	5f13c80de764c617c6b83856	955702913	1	main_z	11	main_z	29	stimuli_distractor_trianglediamonds.svg	stimuli_target_squarediamonds.svg	12	yes	44	1	266
6.6.1	win	2022-12-21	15:22:05	15:30:18	489406	5f13c80de764c617c6b83856	955702913	1	main_z	11	advance_on_keypress_ZEE	30	stimuli_distractor_trianglediamonds.svg	stimuli_target_squarediamonds.svg	12	yes	57	0	734
6.6.1	win	2022-12-21	15:22:05	15:30:19	490889	5f13c80de764c617c6b83856	955702913	1	main_z	11	main_z	31	stimuli_target_squaretriangles.svg	stimuli_distractor_diamondtriangles.svg	7	yes	44	1	100
6.6.1	win	2022-12-21	15:22:05	15:30:19	490889	5f13c80de764c617c6b83856	955702913	1	main_z	11	advance_on_keypress_ZEE	32	stimuli_target_squaretriangles.svg	stimuli_distractor_diamondtriangles.svg	7	yes	57	0	820
6.6.1	win	2022-12-21	15:22:05	15:30:21	492611	5f13c80de764c617c6b83856	955702913	1	main_z	11	main_z	33	stimuli_distractor_trianglediamonds.svg	stimuli_target_squaretriangles.svg	11	yes	44	1	255
6.6.1	win	2022-12-21	15:22:05	15:30:21	492611	5f13c80de764c617c6b83856	955702913	1	main_z	11	advance_on_keypress_ZEE	34	stimuli_distractor_trianglediamonds.svg	stimuli_target_squaretriangles.svg	11	yes	57	0	630
6.6.1	win	2022-12-21	15:22:05	15:30:22	494103	5f13c80de764c617c6b83856	955702913	1	main_z	11	main_z	35	stimuli_target_squaretriangles.svg	stimuli_distractor_trianglediamonds.svg	3	yes	44	1	213
6.6.1	win	2022-12-21	15:22:05	15:30:22	494103	5f13c80de764c617c6b83856	955702913	1	main_z	11	advance_on_keypress_ZEE	36	stimuli_target_squaretriangles.svg	stimuli_distractor_trianglediamonds.svg	3	yes	57	0	818
6.6.1	win	2022-12-21	15:22:05	15:30:24	495806	5f13c80de764c617c6b83856	955702913	1	main_z	11	main_z	37	stimuli_target_trianglecircles.svg	stimuli_distractor_trianglediamonds.svg	17	yes	44	1	233
6.6.1	win	2022-12-21	15:22:05	15:30:24	495806	5f13c80de764c617c6b83856	955702913	1	main_z	11	advance_on_keypress_ZEE	38	stimuli_target_trianglecircles.svg	stimuli_distractor_trianglediamonds.svg	17	yes	57	0	1200
6.6.1	win	2022-12-21	15:22:05	15:30:26	497690	5f13c80de764c617c6b83856	955702913	1	main_z	11	main_z	39	stimuli_distractor_diamondtriangles.svg	stimuli_target_trianglesquares.svg	30	yes	44	1	33
6.6.1	win	2022-12-21	15:22:05	15:30:26	497690	5f13c80de764c617c6b83856	955702913	1	main_z	11	advance_on_keypress_ZEE	40	stimuli_distractor_diamondtriangles.svg	stimuli_target_trianglesquares.svg	30	yes	57	0	1223
6.6.1	win	2022-12-21	15:22:05	15:30:28	499793	5f13c80de764c617c6b83856	955702913	1	main_z	11	main_z	41	stimuli_distractor_trianglediamonds.svg	stimuli_target_diamondcircles.svg	27	yes	44	1	234
6.6.1	win	2022-12-21	15:22:05	15:30:28	499793	5f13c80de764c617c6b83856	955702913	1	main_z	11	advance_on_keypress_ZEE	42	stimuli_distractor_trianglediamonds.svg	stimuli_target_diamondcircles.svg	27	yes	57	0	968
6.6.1	win	2022-12-21	15:22:05	15:30:30	501666	5f13c80de764c617c6b83856	955702913	1	main_z	11	main_z	43	stimuli_distractor_diamondtriangles.svg	stimuli_target_diamondsquares.svg	32	yes	44	1	258
6.6.1	win	2022-12-21	15:22:05	15:30:30	501666	5f13c80de764c617c6b83856	955702913	1	main_z	11	advance_on_keypress_ZEE	44	stimuli_distractor_diamondtriangles.svg	stimuli_target_diamondsquares.svg	32	yes	57	0	850
6.6.1	win	2022-12-21	15:22:05	15:30:32	503400	5f13c80de764c617c6b83856	955702913	1	main_z	11	main_z	45	stimuli_distractor_trianglediamonds.svg	stimuli_distractor_trianglediamonds.svg	33	no	44	0	241
6.6.1	win	2022-12-21	15:22:05	15:30:32	503400	5f13c80de764c617c6b83856	955702913	1	main_z	11	advance_on_keypress_ZEE	46	stimuli_distractor_trianglediamonds.svg	stimuli_distractor_trianglediamonds.svg	33	no	57	0	996
6.6.1	win	2022-12-21	15:22:05	15:30:33	505283	5f13c80de764c617c6b83856	955702913	1	main_z	11	main_z	47	stimuli_target_trianglesquares.svg	stimuli_distractor_trianglediamonds.svg	18	yes	44	1	240
6.6.1	win	2022-12-21	15:22:05	15:30:33	505283	5f13c80de764c617c6b83856	955702913	1	main_z	11	advance_on_keypress_ZEE	48	stimuli_target_trianglesquares.svg	stimuli_distractor_trianglediamonds.svg	18	yes	57	0	752
6.6.1	win	2022-12-21	15:22:05	15:30:35	506874	5f13c80de764c617c6b83856	955702913	1	main_z	11	main_z	49	stimuli_distractor_diamondtriangles.svg	stimuli_target_squaretriangles.svg	15	yes	44	1	198
6.6.1	win	2022-12-21	15:22:05	15:30:35	506874	5f13c80de764c617c6b83856	955702913	1	main_z	11	advance_on_keypress_ZEE	50	stimuli_distractor_diamondtriangles.svg	stimuli_target_squaretriangles.svg	15	yes	57	0	1034
6.6.1	win	2022-12-21	15:22:05	15:30:39	510561	5f13c80de764c617c6b83856	955702913	1	main_z	11	main_z	51	stimuli_distractor_trianglediamonds.svg	stimuli_target_circletriangles.svg	9	yes	0	0	2000
6.6.1	win	2022-12-21	15:22:05	15:30:39	510561	5f13c80de764c617c6b83856	955702913	1	main_z	11	advance_on_keypress_ZEE	52	stimuli_distractor_trianglediamonds.svg	stimuli_target_circletriangles.svg	9	yes	57	0	574
6.6.1	win	2022-12-21	15:22:05	15:30:40	512041	5f13c80de764c617c6b83856	955702913	1	main_z	11	main_z	53	stimuli_target_circlediamonds.svg	stimuli_distractor_diamondtriangles.svg	6	yes	44	1	265
6.6.1	win	2022-12-21	15:22:05	15:30:40	512041	5f13c80de764c617c6b83856	955702913	1	main_z	11	advance_on_keypress_ZEE	54	stimuli_target_circlediamonds.svg	stimuli_distractor_diamondtriangles.svg	6	yes	57	0	725
6.6.1	win	2022-12-21	15:22:05	15:30:44	515410	5f13c80de764c617c6b83856	955702913	1	main_z	11	main_z	55	stimuli_target_diamondcircles.svg	stimuli_distractor_trianglediamonds.svg	19	yes	0	0	2000
6.6.1	win	2022-12-21	15:22:05	15:30:44	515410	5f13c80de764c617c6b83856	955702913	1	main_z	11	advance_on_keypress_ZEE	56	stimuli_target_diamondcircles.svg	stimuli_distractor_trianglediamonds.svg	19	yes	57	0	507
6.6.1	win	2022-12-21	15:22:05	15:30:45	516965	5f13c80de764c617c6b83856	955702913	1	main_z	11	main_z	57	stimuli_distractor_trianglediamonds.svg	stimuli_target_trianglesquares.svg	26	yes	44	1	404
6.6.1	win	2022-12-21	15:22:05	15:30:45	516965	5f13c80de764c617c6b83856	955702913	1	main_z	11	advance_on_keypress_ZEE	58	stimuli_distractor_trianglediamonds.svg	stimuli_target_trianglesquares.svg	26	yes	57	0	683
6.6.1	win	2022-12-21	15:22:05	15:30:47	518330	5f13c80de764c617c6b83856	955702913	1	main_z	11	main_z	59	stimuli_target_diamondcircles.svg	stimuli_distractor_diamondtriangles.svg	23	yes	44	1	35
6.6.1	win	2022-12-21	15:22:05	15:30:47	518330	5f13c80de764c617c6b83856	955702913	1	main_z	11	advance_on_keypress_ZEE	60	stimuli_target_diamondcircles.svg	stimuli_distractor_diamondtriangles.svg	23	yes	57	0	1548
6.6.1	win	2022-12-21	15:22:05	15:30:49	520540	5f13c80de764c617c6b83856	955702913	1	main_z	11	main_z	61	stimuli_target_circletriangles.svg	stimuli_distractor_trianglediamonds.svg	1	yes	44	1	12
6.6.1	win	2022-12-21	15:22:05	15:30:49	520540	5f13c80de764c617c6b83856	955702913	1	main_z	11	advance_on_keypress_ZEE	62	stimuli_target_circletriangles.svg	stimuli_distractor_trianglediamonds.svg	1	yes	57	0	2138
6.6.1	win	2022-12-21	15:22:05	15:30:52	523609	5f13c80de764c617c6b83856	955702913	1	main_z	11	main_z	63	stimuli_target_trianglesquares.svg	stimuli_distractor_diamondtriangles.svg	22	yes	44	1	281
6.6.1	win	2022-12-21	15:22:05	15:30:52	523609	5f13c80de764c617c6b83856	955702913	1	main_z	11	advance_on_keypress_ZEE	64	stimuli_target_trianglesquares.svg	stimuli_distractor_diamondtriangles.svg	22	yes	57	0	700
6.6.1	win	2022-12-21	15:22:05	15:30:53	525062	5f13c80de764c617c6b83856	955702913	1	main_z	11	main_z	65	stimuli_distractor_trianglediamonds.svg	stimuli_target_trianglecircles.svg	25	yes	44	1	99
6.6.1	win	2022-12-21	15:22:05	15:30:53	525062	5f13c80de764c617c6b83856	955702913	1	main_z	11	advance_on_keypress_ZEE	66	stimuli_distractor_trianglediamonds.svg	stimuli_target_trianglecircles.svg	25	yes	57	0	763
6.6.1	win	2022-12-21	15:22:05	15:30:55	526723	5f13c80de764c617c6b83856	955702913	1	main_z	11	main_z	67	stimuli_target_diamondsquares.svg	stimuli_distractor_trianglediamonds.svg	20	yes	44	1	244
6.6.1	win	2022-12-21	15:22:05	15:30:55	526723	5f13c80de764c617c6b83856	955702913	1	main_z	11	advance_on_keypress_ZEE	68	stimuli_target_diamondsquares.svg	stimuli_distractor_trianglediamonds.svg	20	yes	57	0	768
6.6.1	win	2022-12-21	15:22:05	15:30:58	530131	5f13c80de764c617c6b83856	955702913	1	main_z	11	main_z	69	stimuli_target_squarediamonds.svg	stimuli_distractor_diamondtriangles.svg	8	yes	0	0	2000
6.6.1	win	2022-12-21	15:22:05	15:30:58	530131	5f13c80de764c617c6b83856	955702913	1	main_z	11	advance_on_keypress_ZEE	70	stimuli_target_squarediamonds.svg	stimuli_distractor_diamondtriangles.svg	8	yes	57	0	2004
6.6.1	win	2022-12-21	15:22:05	15:31:01	533105	5f13c80de764c617c6b83856	955702913	1	main_z	11	main_z	71	stimuli_distractor_diamondtriangles.svg	stimuli_target_squarediamonds.svg	16	yes	44	1	324
6.6.1	win	2022-12-21	15:22:05	15:31:01	533105	5f13c80de764c617c6b83856	955702913	1	main_z	11	advance_on_keypress_ZEE	72	stimuli_distractor_diamondtriangles.svg	stimuli_target_squarediamonds.svg	16	yes	57	0	660
6.6.1	win	2022-12-21	15:22:05	15:31:05	536415	5f13c80de764c617c6b83856	955702913	1	main_z	11	main_z	73	stimuli_distractor_trianglediamonds.svg	stimuli_distractor_diamondtriangles.svg	35	no	0	1	2000
6.6.1	win	2022-12-21	15:22:05	15:31:05	536415	5f13c80de764c617c6b83856	955702913	1	main_z	11	advance_on_keypress_ZEE	74	stimuli_distractor_trianglediamonds.svg	stimuli_distractor_diamondtriangles.svg	35	no	57	0	446
6.6.1	win	2022-12-21	15:22:05	15:31:06	537571	5f13c80de764c617c6b83856	955702913	1	main_z	11	main_z	75	stimuli_distractor_trianglediamonds.svg	stimuli_target_circlediamonds.svg	10	yes	44	1	55
6.6.1	win	2022-12-21	15:22:05	15:31:06	537571	5f13c80de764c617c6b83856	955702913	1	main_z	11	advance_on_keypress_ZEE	76	stimuli_distractor_trianglediamonds.svg	stimuli_target_circlediamonds.svg	10	yes	57	0	3870
6.6.1	win	2022-12-21	15:22:05	15:31:10	542334	5f13c80de764c617c6b83856	955702913	1	main_z	11	main_z	77	stimuli_distractor_diamondtriangles.svg	stimuli_distractor_trianglediamonds.svg	37	no	44	0	251
6.6.1	win	2022-12-21	15:22:05	15:31:10	542334	5f13c80de764c617c6b83856	955702913	1	main_z	11	advance_on_keypress_ZEE	78	stimuli_distractor_diamondtriangles.svg	stimuli_distractor_trianglediamonds.svg	37	no	57	0	594
6.6.1	win	2022-12-21	15:22:05	15:31:12	543868	5f13c80de764c617c6b83856	955702913	1	main_z	11	main_z	79	stimuli_target_trianglecircles.svg	stimuli_distractor_diamondtriangles.svg	21	yes	44	1	286
6.6.1	win	2022-12-21	15:22:05	15:31:12	543868	5f13c80de764c617c6b83856	955702913	1	main_z	11	advance_on_keypress_ZEE	80	stimuli_target_trianglecircles.svg	stimuli_distractor_diamondtriangles.svg	21	yes	57	0	616
6.6.1	win	2022-12-21	15:22:05	15:31:13	545333	5f13c80de764c617c6b83856	955702913	1	main_z	11	main_z	81	stimuli_target_diamondsquares.svg	stimuli_distractor_trianglediamonds.svg	20	yes	44	1	199
6.6.1	win	2022-12-21	15:22:05	15:31:13	545333	5f13c80de764c617c6b83856	955702913	1	main_z	11	advance_on_keypress_ZEE	82	stimuli_target_diamondsquares.svg	stimuli_distractor_trianglediamonds.svg	20	yes	57	0	655
6.6.1	win	2022-12-21	15:22:05	15:31:17	548634	5f13c80de764c617c6b83856	955702913	1	main_z	11	main_z	83	stimuli_distractor_diamondtriangles.svg	stimuli_target_circlediamonds.svg	14	yes	0	0	2000
6.6.1	win	2022-12-21	15:22:05	15:31:17	548634	5f13c80de764c617c6b83856	955702913	1	main_z	11	advance_on_keypress_ZEE	84	stimuli_distractor_diamondtriangles.svg	stimuli_target_circlediamonds.svg	14	yes	57	0	398
6.6.1	win	2022-12-21	15:22:05	15:31:18	549933	5f13c80de764c617c6b83856	955702913	1	main_z	11	main_z	85	stimuli_target_trianglecircles.svg	stimuli_distractor_diamondtriangles.svg	21	yes	44	1	248
6.6.1	win	2022-12-21	15:22:05	15:31:18	549933	5f13c80de764c617c6b83856	955702913	1	main_z	11	advance_on_keypress_ZEE	86	stimuli_target_trianglecircles.svg	stimuli_distractor_diamondtriangles.svg	21	yes	57	0	577
6.6.1	win	2022-12-21	15:22:05	15:31:21	553169	5f13c80de764c617c6b83856	955702913	1	main_z	11	main_z	87	stimuli_distractor_trianglediamonds.svg	stimuli_target_trianglecircles.svg	25	yes	0	0	2000
6.6.1	win	2022-12-21	15:22:05	15:31:21	553169	5f13c80de764c617c6b83856	955702913	1	main_z	11	advance_on_keypress_ZEE	88	stimuli_distractor_trianglediamonds.svg	stimuli_target_trianglecircles.svg	25	yes	57	0	436
6.6.1	win	2022-12-21	15:22:05	15:31:22	554303	5f13c80de764c617c6b83856	955702913	1	main_z	11	main_z	89	stimuli_target_circletriangles.svg	stimuli_distractor_trianglediamonds.svg	1	yes	44	1	52
6.6.1	win	2022-12-21	15:22:05	15:31:22	554303	5f13c80de764c617c6b83856	955702913	1	main_z	11	advance_on_keypress_ZEE	90	stimuli_target_circletriangles.svg	stimuli_distractor_trianglediamonds.svg	1	yes	57	0	1752
6.6.1	win	2022-12-21	15:22:05	15:31:25	556940	5f13c80de764c617c6b83856	955702913	1	main_z	11	main_z	91	stimuli_distractor_trianglediamonds.svg	stimuli_target_diamondsquares.svg	28	yes	44	1	236
6.6.1	win	2022-12-21	15:22:05	15:31:25	556940	5f13c80de764c617c6b83856	955702913	1	main_z	11	advance_on_keypress_ZEE	92	stimuli_distractor_trianglediamonds.svg	stimuli_target_diamondsquares.svg	28	yes	57	0	798
6.6.1	win	2022-12-21	15:22:05	15:31:27	558457	5f13c80de764c617c6b83856	955702913	1	main_z	11	main_z	93	stimuli_target_circlediamonds.svg	stimuli_distractor_trianglediamonds.svg	2	yes	44	1	71
6.6.1	win	2022-12-21	15:22:05	15:31:27	558457	5f13c80de764c617c6b83856	955702913	1	main_z	11	advance_on_keypress_ZEE	94	stimuli_target_circlediamonds.svg	stimuli_distractor_trianglediamonds.svg	2	yes	57	0	2175
6.6.1	win	2022-12-21	15:22:05	15:31:30	561502	5f13c80de764c617c6b83856	955702913	1	main_z	11	main_z	95	stimuli_target_trianglesquares.svg	stimuli_distractor_diamondtriangles.svg	22	yes	44	1	233
6.6.1	win	2022-12-21	15:22:05	15:31:30	561502	5f13c80de764c617c6b83856	955702913	1	main_z	11	advance_on_keypress_ZEE	96	stimuli_target_trianglesquares.svg	stimuli_distractor_diamondtriangles.svg	22	yes	57	0	555
6.6.1	win	2022-12-21	15:22:05	15:31:33	564703	5f13c80de764c617c6b83856	955702913	1	main_z	11	main_z	97	stimuli_distractor_diamondtriangles.svg	stimuli_target_trianglesquares.svg	30	yes	0	0	2000
6.6.1	win	2022-12-21	15:22:05	15:31:33	564703	5f13c80de764c617c6b83856	955702913	1	main_z	11	advance_on_keypress_ZEE	98	stimuli_distractor_diamondtriangles.svg	stimuli_target_trianglesquares.svg	30	yes	57	0	534
6.6.1	win	2022-12-21	15:22:05	15:31:36	567888	5f13c80de764c617c6b83856	955702913	1	main_z	11	main_z	99	stimuli_distractor_trianglediamonds.svg	stimuli_target_circlediamonds.svg	10	yes	0	0	2000
6.6.1	win	2022-12-21	15:22:05	15:31:36	567888	5f13c80de764c617c6b83856	955702913	1	main_z	11	advance_on_keypress_ZEE	100	stimuli_distractor_trianglediamonds.svg	stimuli_target_circlediamonds.svg	10	yes	57	0	394
6.6.1	win	2022-12-21	15:22:05	15:31:39	570938	5f13c80de764c617c6b83856	955702913	1	main_z	11	main_z	101	stimuli_distractor_trianglediamonds.svg	stimuli_target_squarediamonds.svg	12	yes	0	0	2000
6.6.1	win	2022-12-21	15:22:05	15:31:39	570938	5f13c80de764c617c6b83856	955702913	1	main_z	11	advance_on_keypress_ZEE	102	stimuli_distractor_trianglediamonds.svg	stimuli_target_squarediamonds.svg	12	yes	57	0	72
6.6.1	win	2022-12-21	15:22:05	15:31:42	573655	5f13c80de764c617c6b83856	955702913	1	main_z	11	main_z	103	stimuli_target_trianglecircles.svg	stimuli_distractor_trianglediamonds.svg	17	yes	0	0	2000
6.6.1	win	2022-12-21	15:22:05	15:31:42	573655	5f13c80de764c617c6b83856	955702913	1	main_z	11	advance_on_keypress_ZEE	104	stimuli_target_trianglecircles.svg	stimuli_distractor_trianglediamonds.svg	17	yes	57	0	436
6.6.1	win	2022-12-21	15:22:05	15:31:43	574890	5f13c80de764c617c6b83856	955702913	1	main_z	11	main_z	105	stimuli_distractor_trianglediamonds.svg	stimuli_distractor_trianglediamonds.svg	33	no	44	0	150
6.6.1	win	2022-12-21	15:22:05	15:31:43	574890	5f13c80de764c617c6b83856	955702913	1	main_z	11	advance_on_keypress_ZEE	106	stimuli_distractor_trianglediamonds.svg	stimuli_distractor_trianglediamonds.svg	33	no	57	0	711
6.6.1	win	2022-12-21	15:22:05	15:31:45	576806	5f13c80de764c617c6b83856	955702913	1	main_z	11	main_z	107	stimuli_distractor_diamondtriangles.svg	stimuli_target_squarediamonds.svg	16	yes	44	1	551
6.6.1	win	2022-12-21	15:22:05	15:31:45	576806	5f13c80de764c617c6b83856	955702913	1	main_z	11	advance_on_keypress_ZEE	108	stimuli_distractor_diamondtriangles.svg	stimuli_target_squarediamonds.svg	16	yes	57	0	924
6.6.1	win	2022-12-21	15:22:05	15:31:47	578389	5f13c80de764c617c6b83856	955702913	1	main_z	11	main_z	109	stimuli_distractor_trianglediamonds.svg	stimuli_target_squaretriangles.svg	11	yes	44	1	16
6.6.1	win	2022-12-21	15:22:05	15:31:47	578389	5f13c80de764c617c6b83856	955702913	1	main_z	11	advance_on_keypress_ZEE	110	stimuli_distractor_trianglediamonds.svg	stimuli_target_squaretriangles.svg	11	yes	57	0	835
6.6.1	win	2022-12-21	15:22:05	15:31:48	580144	5f13c80de764c617c6b83856	955702913	1	main_z	11	main_z	111	stimuli_target_squarediamonds.svg	stimuli_distractor_diamondtriangles.svg	8	yes	44	1	271
6.6.1	win	2022-12-21	15:22:05	15:31:48	580144	5f13c80de764c617c6b83856	955702913	1	main_z	11	advance_on_keypress_ZEE	112	stimuli_target_squarediamonds.svg	stimuli_distractor_diamondtriangles.svg	8	yes	57	0	649
6.6.1	win	2022-12-21	15:22:05	15:31:50	581660	5f13c80de764c617c6b83856	955702913	1	main_z	11	main_z	113	stimuli_distractor_diamondtriangles.svg	stimuli_target_squaretriangles.svg	15	yes	44	1	219
6.6.1	win	2022-12-21	15:22:05	15:31:50	581660	5f13c80de764c617c6b83856	955702913	1	main_z	11	advance_on_keypress_ZEE	114	stimuli_distractor_diamondtriangles.svg	stimuli_target_squaretriangles.svg	15	yes	57	0	608
6.6.1	win	2022-12-21	15:22:05	15:31:51	582996	5f13c80de764c617c6b83856	955702913	1	main_z	11	main_z	115	stimuli_distractor_diamondtriangles.svg	stimuli_distractor_diamondtriangles.svg	39	no	44	0	89
6.6.1	win	2022-12-21	15:22:05	15:31:51	582996	5f13c80de764c617c6b83856	955702913	1	main_z	11	advance_on_keypress_ZEE	116	stimuli_distractor_diamondtriangles.svg	stimuli_distractor_diamondtriangles.svg	39	no	57	0	796
6.6.1	win	2022-12-21	15:22:05	15:31:53	584694	5f13c80de764c617c6b83856	955702913	1	main_z	11	main_z	117	stimuli_distractor_trianglediamonds.svg	stimuli_distractor_diamondtriangles.svg	36	no	44	0	254
6.6.1	win	2022-12-21	15:22:05	15:31:53	584694	5f13c80de764c617c6b83856	955702913	1	main_z	11	advance_on_keypress_ZEE	118	stimuli_distractor_trianglediamonds.svg	stimuli_distractor_diamondtriangles.svg	36	no	57	0	516
6.6.1	win	2022-12-21	15:22:05	15:31:54	586076	5f13c80de764c617c6b83856	955702913	1	main_z	11	main_z	119	stimuli_distractor_trianglediamonds.svg	stimuli_target_diamondcircles.svg	27	yes	44	1	219
6.6.1	win	2022-12-21	15:22:05	15:31:54	586076	5f13c80de764c617c6b83856	955702913	1	main_z	11	advance_on_keypress_ZEE	120	stimuli_distractor_trianglediamonds.svg	stimuli_target_diamondcircles.svg	27	yes	57	0	652
6.6.1	win	2022-12-21	15:22:05	15:31:56	587390	5f13c80de764c617c6b83856	955702913	1	main_z	11	main_z	121	stimuli_distractor_trianglediamonds.svg	stimuli_distractor_trianglediamonds.svg	34	no	44	0	16
6.6.1	win	2022-12-21	15:22:05	15:31:56	587390	5f13c80de764c617c6b83856	955702913	1	main_z	11	advance_on_keypress_ZEE	122	stimuli_distractor_trianglediamonds.svg	stimuli_distractor_trianglediamonds.svg	34	no	57	0	912
6.6.1	win	2022-12-21	15:22:05	15:31:57	589245	5f13c80de764c617c6b83856	955702913	1	main_z	11	main_z	123	stimuli_target_circletriangles.svg	stimuli_distractor_diamondtriangles.svg	5	yes	44	1	287
6.6.1	win	2022-12-21	15:22:05	15:31:57	589245	5f13c80de764c617c6b83856	955702913	1	main_z	11	advance_on_keypress_ZEE	124	stimuli_target_circletriangles.svg	stimuli_distractor_diamondtriangles.svg	5	yes	57	0	609
6.6.1	win	2022-12-21	15:22:05	15:31:59	590624	5f13c80de764c617c6b83856	955702913	1	main_z	11	main_z	125	stimuli_target_squaretriangles.svg	stimuli_distractor_diamondtriangles.svg	7	yes	44	1	128
6.6.1	win	2022-12-21	15:22:05	15:31:59	590624	5f13c80de764c617c6b83856	955702913	1	main_z	11	advance_on_keypress_ZEE	126	stimuli_target_squaretriangles.svg	stimuli_distractor_diamondtriangles.svg	7	yes	57	0	656
6.6.1	win	2022-12-21	15:22:05	15:32:00	592079	5f13c80de764c617c6b83856	955702913	1	main_z	11	main_z	127	stimuli_distractor_diamondtriangles.svg	stimuli_distractor_trianglediamonds.svg	37	no	44	0	154
6.6.1	win	2022-12-21	15:22:05	15:32:00	592079	5f13c80de764c617c6b83856	955702913	1	main_z	11	advance_on_keypress_ZEE	128	stimuli_distractor_diamondtriangles.svg	stimuli_distractor_trianglediamonds.svg	37	no	57	0	1037
6.6.1	win	2022-12-21	15:22:05	15:32:02	593944	5f13c80de764c617c6b83856	955702913	1	main_z	11	main_z	129	stimuli_target_squarediamonds.svg	stimuli_distractor_trianglediamonds.svg	4	yes	44	1	185
6.6.1	win	2022-12-21	15:22:05	15:32:02	593944	5f13c80de764c617c6b83856	955702913	1	main_z	11	advance_on_keypress_ZEE	130	stimuli_target_squarediamonds.svg	stimuli_distractor_trianglediamonds.svg	4	yes	57	0	625
6.6.1	win	2022-12-21	15:22:05	15:32:04	595369	5f13c80de764c617c6b83856	955702913	1	main_z	11	main_z	131	stimuli_target_diamondsquares.svg	stimuli_distractor_diamondtriangles.svg	24	yes	44	1	159
6.6.1	win	2022-12-21	15:22:05	15:32:04	595369	5f13c80de764c617c6b83856	955702913	1	main_z	11	advance_on_keypress_ZEE	132	stimuli_target_diamondsquares.svg	stimuli_distractor_diamondtriangles.svg	24	yes	57	0	887
6.6.1	win	2022-12-21	15:22:05	15:32:05	597087	5f13c80de764c617c6b83856	955702913	1	main_z	11	main_z	133	stimuli_distractor_trianglediamonds.svg	stimuli_target_trianglesquares.svg	26	yes	44	1	194
6.6.1	win	2022-12-21	15:22:05	15:32:05	597087	5f13c80de764c617c6b83856	955702913	1	main_z	11	advance_on_keypress_ZEE	134	stimuli_distractor_trianglediamonds.svg	stimuli_target_trianglesquares.svg	26	yes	57	0	758
6.6.1	win	2022-12-21	15:22:05	15:32:07	598689	5f13c80de764c617c6b83856	955702913	1	main_z	11	main_z	135	stimuli_target_diamondcircles.svg	stimuli_distractor_trianglediamonds.svg	19	yes	44	1	195
6.6.1	win	2022-12-21	15:22:05	15:32:07	598689	5f13c80de764c617c6b83856	955702913	1	main_z	11	advance_on_keypress_ZEE	136	stimuli_target_diamondcircles.svg	stimuli_distractor_trianglediamonds.svg	19	yes	57	0	919
6.6.1	win	2022-12-21	15:22:05	15:32:08	600273	5f13c80de764c617c6b83856	955702913	1	main_z	11	main_z	137	stimuli_distractor_diamondtriangles.svg	stimuli_target_diamondcircles.svg	31	yes	44	1	13
6.6.1	win	2022-12-21	15:22:05	15:32:08	600273	5f13c80de764c617c6b83856	955702913	1	main_z	11	advance_on_keypress_ZEE	138	stimuli_distractor_diamondtriangles.svg	stimuli_target_diamondcircles.svg	31	yes	57	0	986
6.6.1	win	2022-12-21	15:22:05	15:32:10	602186	5f13c80de764c617c6b83856	955702913	1	main_z	11	main_z	139	stimuli_distractor_diamondtriangles.svg	stimuli_distractor_trianglediamonds.svg	38	no	44	0	274
6.6.1	win	2022-12-21	15:22:05	15:32:10	602186	5f13c80de764c617c6b83856	955702913	1	main_z	11	advance_on_keypress_ZEE	140	stimuli_distractor_diamondtriangles.svg	stimuli_distractor_trianglediamonds.svg	38	no	57	0	638
6.6.1	win	2022-12-21	15:22:05	15:32:12	603718	5f13c80de764c617c6b83856	955702913	1	main_z	11	main_z	141	stimuli_target_squaretriangles.svg	stimuli_distractor_trianglediamonds.svg	3	yes	44	1	256
6.6.1	win	2022-12-21	15:22:05	15:32:12	603718	5f13c80de764c617c6b83856	955702913	1	main_z	11	advance_on_keypress_ZEE	142	stimuli_target_squaretriangles.svg	stimuli_distractor_trianglediamonds.svg	3	yes	57	0	499
6.6.1	win	2022-12-21	15:22:05	15:32:13	605098	5f13c80de764c617c6b83856	955702913	1	main_z	11	main_z	143	stimuli_distractor_trianglediamonds.svg	stimuli_target_circletriangles.svg	9	yes	44	1	236
6.6.1	win	2022-12-21	15:22:05	15:32:13	605098	5f13c80de764c617c6b83856	955702913	1	main_z	11	advance_on_keypress_ZEE	144	stimuli_distractor_trianglediamonds.svg	stimuli_target_circletriangles.svg	9	yes	57	0	452
6.6.1	win	2022-12-21	15:22:05	15:32:14	606284	5f13c80de764c617c6b83856	955702913	1	main_z	11	main_z	145	stimuli_distractor_diamondtriangles.svg	stimuli_target_circletriangles.svg	13	yes	44	1	89
6.6.1	win	2022-12-21	15:22:05	15:32:14	606284	5f13c80de764c617c6b83856	955702913	1	main_z	11	advance_on_keypress_ZEE	146	stimuli_distractor_diamondtriangles.svg	stimuli_target_circletriangles.svg	13	yes	57	0	675
6.6.1	win	2022-12-21	15:22:05	15:32:16	607621	5f13c80de764c617c6b83856	955702913	1	main_z	11	main_z	147	stimuli_distractor_trianglediamonds.svg	stimuli_distractor_diamondtriangles.svg	35	no	44	0	26
6.6.1	win	2022-12-21	15:22:05	15:32:16	607621	5f13c80de764c617c6b83856	955702913	1	main_z	11	advance_on_keypress_ZEE	148	stimuli_distractor_trianglediamonds.svg	stimuli_distractor_diamondtriangles.svg	35	no	57	0	783
6.6.1	win	2022-12-21	15:22:05	15:32:17	609219	5f13c80de764c617c6b83856	955702913	1	main_z	11	main_z	149	stimuli_target_diamondcircles.svg	stimuli_distractor_diamondtriangles.svg	23	yes	44	1	173
6.6.1	win	2022-12-21	15:22:05	15:32:17	609219	5f13c80de764c617c6b83856	955702913	1	main_z	11	advance_on_keypress_ZEE	150	stimuli_target_diamondcircles.svg	stimuli_distractor_diamondtriangles.svg	23	yes	57	0	956
6.6.1	win	2022-12-21	15:22:05	15:32:21	612813	5f13c80de764c617c6b83856	955702913	1	main_z	11	main_z	151	stimuli_distractor_diamondtriangles.svg	stimuli_distractor_diamondtriangles.svg	40	no	0	1	2000
6.6.1	win	2022-12-21	15:22:05	15:32:21	612813	5f13c80de764c617c6b83856	955702913	1	main_z	11	advance_on_keypress_ZEE	152	stimuli_distractor_diamondtriangles.svg	stimuli_distractor_diamondtriangles.svg	40	no	57	0	1126
6.6.1	win	2022-12-21	15:22:05	15:32:23	614752	5f13c80de764c617c6b83856	955702913	1	main_z	11	main_z	153	stimuli_target_trianglesquares.svg	stimuli_distractor_trianglediamonds.svg	18	yes	44	1	173
6.6.1	win	2022-12-21	15:22:05	15:32:23	614752	5f13c80de764c617c6b83856	955702913	1	main_z	11	advance_on_keypress_ZEE	154	stimuli_target_trianglesquares.svg	stimuli_distractor_trianglediamonds.svg	18	yes	57	0	959
6.6.1	win	2022-12-21	15:22:05	15:32:27	618347	5f13c80de764c617c6b83856	955702913	1	main_z	11	main_z	155	stimuli_distractor_diamondtriangles.svg	stimuli_target_trianglecircles.svg	29	yes	0	0	2000
6.6.1	win	2022-12-21	15:22:05	15:32:27	618347	5f13c80de764c617c6b83856	955702913	1	main_z	11	advance_on_keypress_ZEE	156	stimuli_distractor_diamondtriangles.svg	stimuli_target_trianglecircles.svg	29	yes	57	0	592
6.6.1	win	2022-12-21	15:22:05	15:32:28	619824	5f13c80de764c617c6b83856	955702913	1	main_z	11	main_z	157	stimuli_target_circlediamonds.svg	stimuli_distractor_diamondtriangles.svg	6	yes	44	1	244
6.6.1	win	2022-12-21	15:22:05	15:32:28	619824	5f13c80de764c617c6b83856	955702913	1	main_z	11	advance_on_keypress_ZEE	158	stimuli_target_circlediamonds.svg	stimuli_distractor_diamondtriangles.svg	6	yes	57	0	755
6.6.1	win	2022-12-21	15:22:05	15:32:30	621380	5f13c80de764c617c6b83856	955702913	1	main_z	11	main_z	159	stimuli_distractor_diamondtriangles.svg	stimuli_target_diamondsquares.svg	32	yes	44	1	166
6.6.1	win	2022-12-21	15:22:05	15:32:30	621380	5f13c80de764c617c6b83856	955702913	1	main_z	11	advance_on_keypress_ZEE	160	stimuli_distractor_diamondtriangles.svg	stimuli_target_diamondsquares.svg	32	yes	57	0	1110