build	computer.platform	date	time	timestamp	time_elapsed_ms	subject	group	session	blockcode	blocknum	trialcode	trialnum	stimulus_left	stimulus_right	stim_index	target_present	response	correct	latency
6.6.1	mac	2022-12-14	20:06:09	20:08:30	139184	6060cc2bf9ba38d90b1a6f12	345146431	1	practice_slash	5	practice_slash	1	stimuli_distractor_trianglediamonds.svg	stimuli_distractor_diamondtriangles.svg	16	no	53	0	1411
6.6.1	mac	2022-12-14	20:06:09	20:08:30	139184	6060cc2bf9ba38d90b1a6f12	345146431	1	practice_slash	5	advance_on_keypress_SLASH	2	stimuli_distractor_trianglediamonds.svg	stimuli_distractor_diamondtriangles.svg	16	no	57	0	1643
6.6.1	mac	2022-12-14	20:06:09	20:08:34	143330	6060cc2bf9ba38d90b1a6f12	345146431	1	practice_slash	5	practice_slash	3	stimuli_target_squarediamonds.svg	stimuli_distractor_trianglediamonds.svg	5	yes	53	1	858
6.6.1	mac	2022-12-14	20:06:09	20:08:34	143330	6060cc2bf9ba38d90b1a6f12	345146431	1	practice_slash	5	advance_on_keypress_SLASH	4	stimuli_target_squarediamonds.svg	stimuli_distractor_trianglediamonds.svg	5	yes	57	0	1575
6.6.1	mac	2022-12-14	20:06:09	20:08:38	147200	6060cc2bf9ba38d90b1a6f12	345146431	1	practice_slash	5	practice_slash	5	stimuli_target_circlediamonds.svg	stimuli_distractor_diamondtriangles.svg	1	yes	53	1	661
6.6.1	mac	2022-12-14	20:06:09	20:08:38	147200	6060cc2bf9ba38d90b1a6f12	345146431	1	practice_slash	5	advance_on_keypress_SLASH	6	stimuli_target_circlediamonds.svg	stimuli_distractor_diamondtriangles.svg	1	yes	57	0	797
6.6.1	mac	2022-12-14	20:06:09	20:08:41	150567	6060cc2bf9ba38d90b1a6f12	345146431	1	practice_slash	5	practice_slash	7	stimuli_distractor_diamondtriangles.svg	stimuli_target_circletriangles.svg	7	yes	53	1	944
6.6.1	mac	2022-12-14	20:06:09	20:08:41	150567	6060cc2bf9ba38d90b1a6f12	345146431	1	practice_slash	5	advance_on_keypress_SLASH	8	stimuli_distractor_diamondtriangles.svg	stimuli_target_circletriangles.svg	7	yes	57	0	526
6.6.1	mac	2022-12-14	20:06:09	20:08:44	153866	6060cc2bf9ba38d90b1a6f12	345146431	1	practice_slash	5	practice_slash	9	stimuli_distractor_trianglediamonds.svg	stimuli_target_squarediamonds.svg	11	yes	53	1	1128
6.6.1	mac	2022-12-14	20:06:09	20:08:44	153866	6060cc2bf9ba38d90b1a6f12	345146431	1	practice_slash	5	advance_on_keypress_SLASH	10	stimuli_distractor_trianglediamonds.svg	stimuli_target_squarediamonds.svg	11	yes	57	0	1133
6.6.1	mac	2022-12-14	20:06:09	20:08:48	157585	6060cc2bf9ba38d90b1a6f12	345146431	1	practice_slash	5	practice_slash	11	stimuli_distractor_diamondtriangles.svg	stimuli_target_trianglecircles.svg	9	yes	53	1	963
6.6.1	mac	2022-12-14	20:06:09	20:08:48	157585	6060cc2bf9ba38d90b1a6f12	345146431	1	practice_slash	5	advance_on_keypress_SLASH	12	stimuli_distractor_diamondtriangles.svg	stimuli_target_trianglecircles.svg	9	yes	57	0	492
6.6.1	mac	2022-12-14	20:06:09	20:08:52	161724	6060cc2bf9ba38d90b1a6f12	345146431	1	practice_slash	5	practice_slash	13	stimuli_distractor_diamondtriangles.svg	stimuli_target_diamondcircles.svg	8	yes	0	0	2000
6.6.1	mac	2022-12-14	20:06:09	20:08:52	161724	6060cc2bf9ba38d90b1a6f12	345146431	1	practice_slash	5	advance_on_keypress_SLASH	14	stimuli_distractor_diamondtriangles.svg	stimuli_target_diamondcircles.svg	8	yes	57	0	795
6.6.1	mac	2022-12-14	20:06:09	20:08:57	166157	6060cc2bf9ba38d90b1a6f12	345146431	1	practice_slash	5	practice_slash	15	stimuli_target_diamondsquares.svg	stimuli_distractor_trianglediamonds.svg	6	yes	0	0	2000
6.6.1	mac	2022-12-14	20:06:09	20:08:57	166157	6060cc2bf9ba38d90b1a6f12	345146431	1	practice_slash	5	advance_on_keypress_SLASH	16	stimuli_target_diamondsquares.svg	stimuli_distractor_trianglediamonds.svg	6	yes	57	0	675
6.6.1	mac	2022-12-14	20:06:09	20:09:00	169157	6060cc2bf9ba38d90b1a6f12	345146431	1	practice_slash	5	practice_slash	17	stimuli_distractor_trianglediamonds.svg	stimuli_target_circlediamonds.svg	10	yes	53	1	702
6.6.1	mac	2022-12-14	20:06:09	20:09:00	169157	6060cc2bf9ba38d90b1a6f12	345146431	1	practice_slash	5	advance_on_keypress_SLASH	18	stimuli_distractor_trianglediamonds.svg	stimuli_target_circlediamonds.svg	10	yes	57	0	368
6.6.1	mac	2022-12-14	20:06:09	20:09:04	173157	6060cc2bf9ba38d90b1a6f12	345146431	1	practice_slash	5	practice_slash	19	stimuli_distractor_trianglediamonds.svg	stimuli_distractor_trianglediamonds.svg	15	no	0	1	2000
6.6.1	mac	2022-12-14	20:06:09	20:09:04	173157	6060cc2bf9ba38d90b1a6f12	345146431	1	practice_slash	5	advance_on_keypress_SLASH	20	stimuli_distractor_trianglediamonds.svg	stimuli_distractor_trianglediamonds.svg	15	no	57	0	392
6.6.1	mac	2022-12-14	20:06:09	20:09:07	175979	6060cc2bf9ba38d90b1a6f12	345146431	1	practice_slash	5	practice_slash	21	stimuli_target_circlediamonds.svg	stimuli_distractor_trianglediamonds.svg	4	yes	53	1	790
6.6.1	mac	2022-12-14	20:06:09	20:09:07	175979	6060cc2bf9ba38d90b1a6f12	345146431	1	practice_slash	5	advance_on_keypress_SLASH	22	stimuli_target_circlediamonds.svg	stimuli_distractor_trianglediamonds.svg	4	yes	57	0	387
6.6.1	mac	2022-12-14	20:06:09	20:09:09	178839	6060cc2bf9ba38d90b1a6f12	345146431	1	practice_slash	5	practice_slash	23	stimuli_target_squarediamonds.svg	stimuli_distractor_diamondtriangles.svg	2	yes	53	1	849
6.6.1	mac	2022-12-14	20:06:09	20:09:09	178839	6060cc2bf9ba38d90b1a6f12	345146431	1	practice_slash	5	advance_on_keypress_SLASH	24	stimuli_target_squarediamonds.svg	stimuli_distractor_diamondtriangles.svg	2	yes	57	0	328
6.6.1	mac	2022-12-14	20:06:09	20:09:13	182807	6060cc2bf9ba38d90b1a6f12	345146431	1	practice_slash	5	practice_slash	25	stimuli_distractor_trianglediamonds.svg	stimuli_target_diamondcircles.svg	12	yes	0	0	2000
6.6.1	mac	2022-12-14	20:06:09	20:09:13	182807	6060cc2bf9ba38d90b1a6f12	345146431	1	practice_slash	5	advance_on_keypress_SLASH	26	stimuli_distractor_trianglediamonds.svg	stimuli_target_diamondcircles.svg	12	yes	57	0	321
6.6.1	mac	2022-12-14	20:06:09	20:09:16	185932	6060cc2bf9ba38d90b1a6f12	345146431	1	practice_slash	5	practice_slash	27	stimuli_target_diamondsquares.svg	stimuli_distractor_diamondtriangles.svg	3	yes	53	1	1176
6.6.1	mac	2022-12-14	20:06:09	20:09:16	185932	6060cc2bf9ba38d90b1a6f12	345146431	1	practice_slash	5	advance_on_keypress_SLASH	28	stimuli_target_diamondsquares.svg	stimuli_distractor_diamondtriangles.svg	3	yes	57	0	244
6.6.1	mac	2022-12-14	20:06:09	20:09:20	189807	6060cc2bf9ba38d90b1a6f12	345146431	1	practice_slash	5	practice_slash	29	stimuli_distractor_diamondtriangles.svg	stimuli_distractor_diamondtriangles.svg	13	no	0	1	2000
6.6.1	mac	2022-12-14	20:06:09	20:09:20	189807	6060cc2bf9ba38d90b1a6f12	345146431	1	practice_slash	5	advance_on_keypress_SLASH	30	stimuli_distractor_diamondtriangles.svg	stimuli_distractor_diamondtriangles.svg	13	no	57	0	82
6.6.1	mac	2022-12-14	20:06:09	20:09:24	193523	6060cc2bf9ba38d90b1a6f12	345146431	1	practice_slash	5	practice_slash	31	stimuli_distractor_diamondtriangles.svg	stimuli_distractor_trianglediamonds.svg	14	no	0	1	2000
6.6.1	mac	2022-12-14	20:06:09	20:09:24	193523	6060cc2bf9ba38d90b1a6f12	345146431	1	practice_slash	5	advance_on_keypress_SLASH	32	stimuli_distractor_diamondtriangles.svg	stimuli_distractor_trianglediamonds.svg	14	no	57	0	62
6.6.1	mac	2022-12-14	20:06:09	20:09:30	199204	6060cc2bf9ba38d90b1a6f12	345146431	1	main_slash	7	main_slash	1	stimuli_target_diamondcircles.svg	stimuli_distractor_trianglediamonds.svg	19	yes	53	1	900
6.6.1	mac	2022-12-14	20:06:09	20:09:30	199204	6060cc2bf9ba38d90b1a6f12	345146431	1	main_slash	7	advance_on_keypress_SLASH	2	stimuli_target_diamondcircles.svg	stimuli_distractor_trianglediamonds.svg	19	yes	57	0	1074
6.6.1	mac	2022-12-14	20:06:09	20:09:32	201828	6060cc2bf9ba38d90b1a6f12	345146431	1	main_slash	7	main_slash	3	stimuli_distractor_trianglediamonds.svg	stimuli_target_diamondcircles.svg	27	yes	53	1	923
6.6.1	mac	2022-12-14	20:06:09	20:09:32	201828	6060cc2bf9ba38d90b1a6f12	345146431	1	main_slash	7	advance_on_keypress_SLASH	4	stimuli_distractor_trianglediamonds.svg	stimuli_target_diamondcircles.svg	27	yes	57	0	450
6.6.1	mac	2022-12-14	20:06:09	20:09:35	204134	6060cc2bf9ba38d90b1a6f12	345146431	1	main_slash	7	main_slash	5	stimuli_distractor_trianglediamonds.svg	stimuli_target_circlediamonds.svg	10	yes	53	1	1230
6.6.1	mac	2022-12-14	20:06:09	20:09:35	204134	6060cc2bf9ba38d90b1a6f12	345146431	1	main_slash	7	advance_on_keypress_SLASH	6	stimuli_distractor_trianglediamonds.svg	stimuli_target_circlediamonds.svg	10	yes	57	0	486
6.6.1	mac	2022-12-14	20:06:09	20:09:37	206911	6060cc2bf9ba38d90b1a6f12	345146431	1	main_slash	7	main_slash	7	stimuli_distractor_diamondtriangles.svg	stimuli_target_diamondsquares.svg	32	yes	53	1	1657
6.6.1	mac	2022-12-14	20:06:09	20:09:37	206911	6060cc2bf9ba38d90b1a6f12	345146431	1	main_slash	7	advance_on_keypress_SLASH	8	stimuli_distractor_diamondtriangles.svg	stimuli_target_diamondsquares.svg	32	yes	57	0	479
6.6.1	mac	2022-12-14	20:06:09	20:09:41	210022	6060cc2bf9ba38d90b1a6f12	345146431	1	main_slash	7	main_slash	9	stimuli_distractor_trianglediamonds.svg	stimuli_target_squaretriangles.svg	11	yes	0	0	2000
6.6.1	mac	2022-12-14	20:06:09	20:09:41	210022	6060cc2bf9ba38d90b1a6f12	345146431	1	main_slash	7	advance_on_keypress_SLASH	10	stimuli_distractor_trianglediamonds.svg	stimuli_target_squaretriangles.svg	11	yes	57	0	755
6.6.1	mac	2022-12-14	20:06:09	20:09:43	212065	6060cc2bf9ba38d90b1a6f12	345146431	1	main_slash	7	main_slash	11	stimuli_target_squarediamonds.svg	stimuli_distractor_trianglediamonds.svg	4	yes	53	1	661
6.6.1	mac	2022-12-14	20:06:09	20:09:43	212065	6060cc2bf9ba38d90b1a6f12	345146431	1	main_slash	7	advance_on_keypress_SLASH	12	stimuli_target_squarediamonds.svg	stimuli_distractor_trianglediamonds.svg	4	yes	57	0	392
6.6.1	mac	2022-12-14	20:06:09	20:09:44	213808	6060cc2bf9ba38d90b1a6f12	345146431	1	main_slash	7	main_slash	13	stimuli_target_circletriangles.svg	stimuli_distractor_diamondtriangles.svg	5	yes	53	1	737
6.6.1	mac	2022-12-14	20:06:09	20:09:44	213808	6060cc2bf9ba38d90b1a6f12	345146431	1	main_slash	7	advance_on_keypress_SLASH	14	stimuli_target_circletriangles.svg	stimuli_distractor_diamondtriangles.svg	5	yes	57	0	366
6.6.1	mac	2022-12-14	20:06:09	20:09:47	216804	6060cc2bf9ba38d90b1a6f12	345146431	1	main_slash	7	main_slash	15	stimuli_distractor_diamondtriangles.svg	stimuli_distractor_diamondtriangles.svg	39	no	0	1	2000
6.6.1	mac	2022-12-14	20:06:09	20:09:47	216804	6060cc2bf9ba38d90b1a6f12	345146431	1	main_slash	7	advance_on_keypress_SLASH	16	stimuli_distractor_diamondtriangles.svg	stimuli_distractor_diamondtriangles.svg	39	no	57	0	274
6.6.1	mac	2022-12-14	20:06:09	20:09:49	218623	6060cc2bf9ba38d90b1a6f12	345146431	1	main_slash	7	main_slash	17	stimuli_target_diamondsquares.svg	stimuli_distractor_trianglediamonds.svg	20	yes	53	1	902
6.6.1	mac	2022-12-14	20:06:09	20:09:49	218623	6060cc2bf9ba38d90b1a6f12	345146431	1	main_slash	7	advance_on_keypress_SLASH	18	stimuli_target_diamondsquares.svg	stimuli_distractor_trianglediamonds.svg	20	yes	57	0	318
6.6.1	mac	2022-12-14	20:06:09	20:09:51	220329	6060cc2bf9ba38d90b1a6f12	345146431	1	main_slash	7	main_slash	19	stimuli_target_trianglecircles.svg	stimuli_distractor_diamondtriangles.svg	21	yes	53	1	758
6.6.1	mac	2022-12-14	20:06:09	20:09:51	220329	6060cc2bf9ba38d90b1a6f12	345146431	1	main_slash	7	advance_on_keypress_SLASH	20	stimuli_target_trianglecircles.svg	stimuli_distractor_diamondtriangles.svg	21	yes	57	0	375
6.6.1	mac	2022-12-14	20:06:09	20:09:53	222047	6060cc2bf9ba38d90b1a6f12	345146431	1	main_slash	7	main_slash	21	stimuli_distractor_diamondtriangles.svg	stimuli_target_diamondcircles.svg	31	yes	53	1	726
6.6.1	mac	2022-12-14	20:06:09	20:09:53	222047	6060cc2bf9ba38d90b1a6f12	345146431	1	main_slash	7	advance_on_keypress_SLASH	22	stimuli_distractor_diamondtriangles.svg	stimuli_target_diamondcircles.svg	31	yes	57	0	308
6.6.1	mac	2022-12-14	20:06:09	20:09:54	223629	6060cc2bf9ba38d90b1a6f12	345146431	1	main_slash	7	main_slash	23	stimuli_target_diamondcircles.svg	stimuli_distractor_diamondtriangles.svg	23	yes	53	1	658
6.6.1	mac	2022-12-14	20:06:09	20:09:54	223629	6060cc2bf9ba38d90b1a6f12	345146431	1	main_slash	7	advance_on_keypress_SLASH	24	stimuli_target_diamondcircles.svg	stimuli_distractor_diamondtriangles.svg	23	yes	57	0	378
6.6.1	mac	2022-12-14	20:06:09	20:09:56	225446	6060cc2bf9ba38d90b1a6f12	345146431	1	main_slash	7	main_slash	25	stimuli_target_diamondsquares.svg	stimuli_distractor_diamondtriangles.svg	24	yes	53	1	825
6.6.1	mac	2022-12-14	20:06:09	20:09:56	225446	6060cc2bf9ba38d90b1a6f12	345146431	1	main_slash	7	advance_on_keypress_SLASH	26	stimuli_target_diamondsquares.svg	stimuli_distractor_diamondtriangles.svg	24	yes	57	0	288
6.6.1	mac	2022-12-14	20:06:09	20:09:58	227659	6060cc2bf9ba38d90b1a6f12	345146431	1	main_slash	7	main_slash	27	stimuli_distractor_diamondtriangles.svg	stimuli_target_circlediamonds.svg	14	yes	53	1	1305
6.6.1	mac	2022-12-14	20:06:09	20:09:58	227659	6060cc2bf9ba38d90b1a6f12	345146431	1	main_slash	7	advance_on_keypress_SLASH	28	stimuli_distractor_diamondtriangles.svg	stimuli_target_circlediamonds.svg	14	yes	57	0	335
6.6.1	mac	2022-12-14	20:06:09	20:10:01	230623	6060cc2bf9ba38d90b1a6f12	345146431	1	main_slash	7	main_slash	29	stimuli_target_trianglesquares.svg	stimuli_distractor_diamondtriangles.svg	22	yes	0	0	2000
6.6.1	mac	2022-12-14	20:06:09	20:10:01	230623	6060cc2bf9ba38d90b1a6f12	345146431	1	main_slash	7	advance_on_keypress_SLASH	30	stimuli_target_trianglesquares.svg	stimuli_distractor_diamondtriangles.svg	22	yes	57	0	320
6.6.1	mac	2022-12-14	20:06:09	20:10:04	233573	6060cc2bf9ba38d90b1a6f12	345146431	1	main_slash	7	main_slash	31	stimuli_distractor_diamondtriangles.svg	stimuli_distractor_trianglediamonds.svg	38	no	0	1	2000
6.6.1	mac	2022-12-14	20:06:09	20:10:04	233573	6060cc2bf9ba38d90b1a6f12	345146431	1	main_slash	7	advance_on_keypress_SLASH	32	stimuli_distractor_diamondtriangles.svg	stimuli_distractor_trianglediamonds.svg	38	no	57	0	255
6.6.1	mac	2022-12-14	20:06:09	20:10:06	235914	6060cc2bf9ba38d90b1a6f12	345146431	1	main_slash	7	main_slash	33	stimuli_distractor_diamondtriangles.svg	stimuli_target_trianglesquares.svg	30	yes	53	1	1460
6.6.1	mac	2022-12-14	20:06:09	20:10:06	235914	6060cc2bf9ba38d90b1a6f12	345146431	1	main_slash	7	advance_on_keypress_SLASH	34	stimuli_distractor_diamondtriangles.svg	stimuli_target_trianglesquares.svg	30	yes	57	0	978
6.6.1	mac	2022-12-14	20:06:09	20:10:09	238425	6060cc2bf9ba38d90b1a6f12	345146431	1	main_slash	7	main_slash	35	stimuli_target_trianglesquares.svg	stimuli_distractor_trianglediamonds.svg	18	yes	53	1	904
6.6.1	mac	2022-12-14	20:06:09	20:10:09	238425	6060cc2bf9ba38d90b1a6f12	345146431	1	main_slash	7	advance_on_keypress_SLASH	36	stimuli_target_trianglesquares.svg	stimuli_distractor_trianglediamonds.svg	18	yes	57	0	346
6.6.1	mac	2022-12-14	20:06:09	20:10:11	240511	6060cc2bf9ba38d90b1a6f12	345146431	1	main_slash	7	main_slash	37	stimuli_target_trianglecircles.svg	stimuli_distractor_trianglediamonds.svg	17	yes	53	1	1107
6.6.1	mac	2022-12-14	20:06:09	20:10:11	240511	6060cc2bf9ba38d90b1a6f12	345146431	1	main_slash	7	advance_on_keypress_SLASH	38	stimuli_target_trianglecircles.svg	stimuli_distractor_trianglediamonds.svg	17	yes	57	0	334
6.6.1	mac	2022-12-14	20:06:09	20:10:13	242543	6060cc2bf9ba38d90b1a6f12	345146431	1	main_slash	7	main_slash	39	stimuli_distractor_trianglediamonds.svg	stimuli_target_squarediamonds.svg	12	yes	53	1	1072
6.6.1	mac	2022-12-14	20:06:09	20:10:13	242543	6060cc2bf9ba38d90b1a6f12	345146431	1	main_slash	7	advance_on_keypress_SLASH	40	stimuli_distractor_trianglediamonds.svg	stimuli_target_squarediamonds.svg	12	yes	57	0	357
6.6.1	mac	2022-12-14	20:06:09	20:10:16	245523	6060cc2bf9ba38d90b1a6f12	345146431	1	main_slash	7	main_slash	41	stimuli_distractor_diamondtriangles.svg	stimuli_distractor_trianglediamonds.svg	37	no	0	1	2000
6.6.1	mac	2022-12-14	20:06:09	20:10:16	245523	6060cc2bf9ba38d90b1a6f12	345146431	1	main_slash	7	advance_on_keypress_SLASH	42	stimuli_distractor_diamondtriangles.svg	stimuli_distractor_trianglediamonds.svg	37	no	57	0	281
6.6.1	mac	2022-12-14	20:06:09	20:10:18	247647	6060cc2bf9ba38d90b1a6f12	345146431	1	main_slash	7	main_slash	43	stimuli_distractor_trianglediamonds.svg	stimuli_target_diamondsquares.svg	28	yes	53	1	1209
6.6.1	mac	2022-12-14	20:06:09	20:10:18	247647	6060cc2bf9ba38d90b1a6f12	345146431	1	main_slash	7	advance_on_keypress_SLASH	44	stimuli_distractor_trianglediamonds.svg	stimuli_target_diamondsquares.svg	28	yes	57	0	362
6.6.1	mac	2022-12-14	20:06:09	20:10:20	249891	6060cc2bf9ba38d90b1a6f12	345146431	1	main_slash	7	main_slash	45	stimuli_distractor_trianglediamonds.svg	stimuli_target_circletriangles.svg	9	yes	53	1	1254
6.6.1	mac	2022-12-14	20:06:09	20:10:20	249891	6060cc2bf9ba38d90b1a6f12	345146431	1	main_slash	7	advance_on_keypress_SLASH	46	stimuli_distractor_trianglediamonds.svg	stimuli_target_circletriangles.svg	9	yes	57	0	365
6.6.1	mac	2022-12-14	20:06:09	20:10:22	251843	6060cc2bf9ba38d90b1a6f12	345146431	1	main_slash	7	main_slash	47	stimuli_distractor_diamondtriangles.svg	stimuli_target_trianglecircles.svg	29	yes	53	1	956
6.6.1	mac	2022-12-14	20:06:09	20:10:22	251843	6060cc2bf9ba38d90b1a6f12	345146431	1	main_slash	7	advance_on_keypress_SLASH	48	stimuli_distractor_diamondtriangles.svg	stimuli_target_trianglecircles.svg	29	yes	57	0	320
6.6.1	mac	2022-12-14	20:06:09	20:10:24	253926	6060cc2bf9ba38d90b1a6f12	345146431	1	main_slash	7	main_slash	49	stimuli_target_circlediamonds.svg	stimuli_distractor_diamondtriangles.svg	6	yes	53	1	1139
6.6.1	mac	2022-12-14	20:06:09	20:10:24	253926	6060cc2bf9ba38d90b1a6f12	345146431	1	main_slash	7	advance_on_keypress_SLASH	50	stimuli_target_circlediamonds.svg	stimuli_distractor_diamondtriangles.svg	6	yes	57	0	343
6.6.1	mac	2022-12-14	20:06:09	20:10:27	256889	6060cc2bf9ba38d90b1a6f12	345146431	1	main_slash	7	main_slash	51	stimuli_distractor_trianglediamonds.svg	stimuli_distractor_diamondtriangles.svg	35	no	0	1	2000
6.6.1	mac	2022-12-14	20:06:09	20:10:27	256889	6060cc2bf9ba38d90b1a6f12	345146431	1	main_slash	7	advance_on_keypress_SLASH	52	stimuli_distractor_trianglediamonds.svg	stimuli_distractor_diamondtriangles.svg	35	no	57	0	313
6.6.1	mac	2022-12-14	20:06:09	20:10:29	258736	6060cc2bf9ba38d90b1a6f12	345146431	1	main_slash	7	main_slash	53	stimuli_distractor_diamondtriangles.svg	stimuli_target_squaretriangles.svg	15	yes	53	1	899
6.6.1	mac	2022-12-14	20:06:09	20:10:29	258736	6060cc2bf9ba38d90b1a6f12	345146431	1	main_slash	7	advance_on_keypress_SLASH	54	stimuli_distractor_diamondtriangles.svg	stimuli_target_squaretriangles.svg	15	yes	57	0	334
6.6.1	mac	2022-12-14	20:06:09	20:10:31	260642	6060cc2bf9ba38d90b1a6f12	345146431	1	main_slash	7	main_slash	55	stimuli_target_circlediamonds.svg	stimuli_distractor_trianglediamonds.svg	2	yes	53	1	938
6.6.1	mac	2022-12-14	20:06:09	20:10:31	260642	6060cc2bf9ba38d90b1a6f12	345146431	1	main_slash	7	advance_on_keypress_SLASH	56	stimuli_target_circlediamonds.svg	stimuli_distractor_trianglediamonds.svg	2	yes	57	0	287
6.6.1	mac	2022-12-14	20:06:09	20:10:33	262345	6060cc2bf9ba38d90b1a6f12	345146431	1	main_slash	7	main_slash	57	stimuli_target_circletriangles.svg	stimuli_distractor_trianglediamonds.svg	1	yes	53	1	789
6.6.1	mac	2022-12-14	20:06:09	20:10:33	262345	6060cc2bf9ba38d90b1a6f12	345146431	1	main_slash	7	advance_on_keypress_SLASH	58	stimuli_target_circletriangles.svg	stimuli_distractor_trianglediamonds.svg	1	yes	57	0	303
6.6.1	mac	2022-12-14	20:06:09	20:10:36	265273	6060cc2bf9ba38d90b1a6f12	345146431	1	main_slash	7	main_slash	59	stimuli_distractor_trianglediamonds.svg	stimuli_distractor_trianglediamonds.svg	33	no	0	1	2000
6.6.1	mac	2022-12-14	20:06:09	20:10:36	265273	6060cc2bf9ba38d90b1a6f12	345146431	1	main_slash	7	advance_on_keypress_SLASH	60	stimuli_distractor_trianglediamonds.svg	stimuli_distractor_trianglediamonds.svg	33	no	57	0	287
6.6.1	mac	2022-12-14	20:06:09	20:10:37	266773	6060cc2bf9ba38d90b1a6f12	345146431	1	main_slash	7	main_slash	61	stimuli_target_squarediamonds.svg	stimuli_distractor_diamondtriangles.svg	8	yes	53	1	586
6.6.1	mac	2022-12-14	20:06:09	20:10:37	266773	6060cc2bf9ba38d90b1a6f12	345146431	1	main_slash	7	advance_on_keypress_SLASH	62	stimuli_target_squarediamonds.svg	stimuli_distractor_diamondtriangles.svg	8	yes	57	0	299
6.6.1	mac	2022-12-14	20:06:09	20:10:39	268425	6060cc2bf9ba38d90b1a6f12	345146431	1	main_slash	7	main_slash	63	stimuli_distractor_diamondtriangles.svg	stimuli_target_squarediamonds.svg	16	yes	53	1	721
6.6.1	mac	2022-12-14	20:06:09	20:10:39	268425	6060cc2bf9ba38d90b1a6f12	345146431	1	main_slash	7	advance_on_keypress_SLASH	64	stimuli_distractor_diamondtriangles.svg	stimuli_target_squarediamonds.svg	16	yes	57	0	300
6.6.1	mac	2022-12-14	20:06:09	20:10:40	269843	6060cc2bf9ba38d90b1a6f12	345146431	1	main_slash	7	main_slash	65	stimuli_target_squaretriangles.svg	stimuli_distractor_diamondtriangles.svg	7	yes	53	1	489
6.6.1	mac	2022-12-14	20:06:09	20:10:40	269843	6060cc2bf9ba38d90b1a6f12	345146431	1	main_slash	7	advance_on_keypress_SLASH	66	stimuli_target_squaretriangles.svg	stimuli_distractor_diamondtriangles.svg	7	yes	57	0	313
6.6.1	mac	2022-12-14	20:06:09	20:10:42	271363	6060cc2bf9ba38d90b1a6f12	345146431	1	main_slash	7	main_slash	67	stimuli_distractor_diamondtriangles.svg	stimuli_target_circletriangles.svg	13	yes	53	1	576
6.6.1	mac	2022-12-14	20:06:09	20:10:42	271363	6060cc2bf9ba38d90b1a6f12	345146431	1	main_slash	7	advance_on_keypress_SLASH	68	stimuli_distractor_diamondtriangles.svg	stimuli_target_circletriangles.svg	13	yes	57	0	327
6.6.1	mac	2022-12-14	20:06:09	20:10:45	274322	6060cc2bf9ba38d90b1a6f12	345146431	1	main_slash	7	main_slash	69	stimuli_distractor_trianglediamonds.svg	stimuli_distractor_diamondtriangles.svg	36	no	0	1	2000
6.6.1	mac	2022-12-14	20:06:09	20:10:45	274322	6060cc2bf9ba38d90b1a6f12	345146431	1	main_slash	7	advance_on_keypress_SLASH	70	stimuli_distractor_trianglediamonds.svg	stimuli_distractor_diamondtriangles.svg	36	no	57	0	284
6.6.1	mac	2022-12-14	20:06:09	20:10:46	275950	6060cc2bf9ba38d90b1a6f12	345146431	1	main_slash	7	main_slash	71	stimuli_target_squaretriangles.svg	stimuli_distractor_trianglediamonds.svg	3	yes	53	1	713
6.6.1	mac	2022-12-14	20:06:09	20:10:46	275950	6060cc2bf9ba38d90b1a6f12	345146431	1	main_slash	7	advance_on_keypress_SLASH	72	stimuli_target_squaretriangles.svg	stimuli_distractor_trianglediamonds.svg	3	yes	57	0	266
6.6.1	mac	2022-12-14	20:06:09	20:10:48	277584	6060cc2bf9ba38d90b1a6f12	345146431	1	main_slash	7	main_slash	73	stimuli_distractor_trianglediamonds.svg	stimuli_target_trianglecircles.svg	25	yes	53	1	730
6.6.1	mac	2022-12-14	20:06:09	20:10:48	277584	6060cc2bf9ba38d90b1a6f12	345146431	1	main_slash	7	advance_on_keypress_SLASH	74	stimuli_distractor_trianglediamonds.svg	stimuli_target_trianglecircles.svg	25	yes	57	0	268
6.6.1	mac	2022-12-14	20:06:09	20:10:51	280488	6060cc2bf9ba38d90b1a6f12	345146431	1	main_slash	7	main_slash	75	stimuli_distractor_trianglediamonds.svg	stimuli_distractor_trianglediamonds.svg	34	no	0	1	2000
6.6.1	mac	2022-12-14	20:06:09	20:10:51	280488	6060cc2bf9ba38d90b1a6f12	345146431	1	main_slash	7	advance_on_keypress_SLASH	76	stimuli_distractor_trianglediamonds.svg	stimuli_distractor_trianglediamonds.svg	34	no	57	0	305
6.6.1	mac	2022-12-14	20:06:09	20:10:54	283422	6060cc2bf9ba38d90b1a6f12	345146431	1	main_slash	7	main_slash	77	stimuli_distractor_diamondtriangles.svg	stimuli_distractor_diamondtriangles.svg	40	no	0	1	2000
6.6.1	mac	2022-12-14	20:06:09	20:10:54	283422	6060cc2bf9ba38d90b1a6f12	345146431	1	main_slash	7	advance_on_keypress_SLASH	78	stimuli_distractor_diamondtriangles.svg	stimuli_distractor_diamondtriangles.svg	40	no	57	0	275
6.6.1	mac	2022-12-14	20:06:09	20:10:56	285172	6060cc2bf9ba38d90b1a6f12	345146431	1	main_slash	7	main_slash	79	stimuli_distractor_trianglediamonds.svg	stimuli_target_trianglesquares.svg	26	yes	53	1	851
6.6.1	mac	2022-12-14	20:06:09	20:10:56	285172	6060cc2bf9ba38d90b1a6f12	345146431	1	main_slash	7	advance_on_keypress_SLASH	80	stimuli_distractor_trianglediamonds.svg	stimuli_target_trianglesquares.svg	26	yes	57	0	275
6.6.1	mac	2022-12-14	20:06:09	20:10:59	288072	6060cc2bf9ba38d90b1a6f12	345146431	1	main_slash	7	main_slash	81	stimuli_distractor_diamondtriangles.svg	stimuli_distractor_diamondtriangles.svg	40	no	0	1	2000
6.6.1	mac	2022-12-14	20:06:09	20:10:59	288072	6060cc2bf9ba38d90b1a6f12	345146431	1	main_slash	7	advance_on_keypress_SLASH	82	stimuli_distractor_diamondtriangles.svg	stimuli_distractor_diamondtriangles.svg	40	no	57	0	255
6.6.1	mac	2022-12-14	20:06:09	20:11:00	289589	6060cc2bf9ba38d90b1a6f12	345146431	1	main_slash	7	main_slash	83	stimuli_distractor_diamondtriangles.svg	stimuli_target_circlediamonds.svg	14	yes	53	1	633
6.6.1	mac	2022-12-14	20:06:09	20:11:00	289589	6060cc2bf9ba38d90b1a6f12	345146431	1	main_slash	7	advance_on_keypress_SLASH	84	stimuli_distractor_diamondtriangles.svg	stimuli_target_circlediamonds.svg	14	yes	57	0	239
6.6.1	mac	2022-12-14	20:06:09	20:11:03	292455	6060cc2bf9ba38d90b1a6f12	345146431	1	main_slash	7	main_slash	85	stimuli_distractor_diamondtriangles.svg	stimuli_distractor_diamondtriangles.svg	39	no	0	1	2000
6.6.1	mac	2022-12-14	20:06:09	20:11:03	292455	6060cc2bf9ba38d90b1a6f12	345146431	1	main_slash	7	advance_on_keypress_SLASH	86	stimuli_distractor_diamondtriangles.svg	stimuli_distractor_diamondtriangles.svg	39	no	57	0	260
6.6.1	mac	2022-12-14	20:06:09	20:11:04	293935	6060cc2bf9ba38d90b1a6f12	345146431	1	main_slash	7	main_slash	87	stimuli_target_squarediamonds.svg	stimuli_distractor_trianglediamonds.svg	4	yes	53	1	596
6.6.1	mac	2022-12-14	20:06:09	20:11:04	293935	6060cc2bf9ba38d90b1a6f12	345146431	1	main_slash	7	advance_on_keypress_SLASH	88	stimuli_target_squarediamonds.svg	stimuli_distractor_trianglediamonds.svg	4	yes	57	0	275
6.6.1	mac	2022-12-14	20:06:09	20:11:06	295478	6060cc2bf9ba38d90b1a6f12	345146431	1	main_slash	7	main_slash	89	stimuli_distractor_trianglediamonds.svg	stimuli_target_circletriangles.svg	9	yes	53	1	641
6.6.1	mac	2022-12-14	20:06:09	20:11:06	295478	6060cc2bf9ba38d90b1a6f12	345146431	1	main_slash	7	advance_on_keypress_SLASH	90	stimuli_distractor_trianglediamonds.svg	stimuli_target_circletriangles.svg	9	yes	57	0	253
6.6.1	mac	2022-12-14	20:06:09	20:11:08	297019	6060cc2bf9ba38d90b1a6f12	345146431	1	main_slash	7	main_slash	91	stimuli_target_trianglesquares.svg	stimuli_distractor_diamondtriangles.svg	22	yes	53	1	665
6.6.1	mac	2022-12-14	20:06:09	20:11:08	297019	6060cc2bf9ba38d90b1a6f12	345146431	1	main_slash	7	advance_on_keypress_SLASH	92	stimuli_target_trianglesquares.svg	stimuli_distractor_diamondtriangles.svg	22	yes	57	0	232
6.6.1	mac	2022-12-14	20:06:09	20:11:09	298563	6060cc2bf9ba38d90b1a6f12	345146431	1	main_slash	7	main_slash	93	stimuli_distractor_diamondtriangles.svg	stimuli_target_trianglecircles.svg	29	yes	53	1	675
6.6.1	mac	2022-12-14	20:06:09	20:11:09	298563	6060cc2bf9ba38d90b1a6f12	345146431	1	main_slash	7	advance_on_keypress_SLASH	94	stimuli_distractor_diamondtriangles.svg	stimuli_target_trianglecircles.svg	29	yes	57	0	260
6.6.1	mac	2022-12-14	20:06:09	20:11:11	300073	6060cc2bf9ba38d90b1a6f12	345146431	1	main_slash	7	main_slash	95	stimuli_distractor_diamondtriangles.svg	stimuli_target_squaretriangles.svg	15	yes	53	1	636
6.6.1	mac	2022-12-14	20:06:09	20:11:11	300073	6060cc2bf9ba38d90b1a6f12	345146431	1	main_slash	7	advance_on_keypress_SLASH	96	stimuli_distractor_diamondtriangles.svg	stimuli_target_squaretriangles.svg	15	yes	57	0	222
6.6.1	mac	2022-12-14	20:06:09	20:11:12	301453	6060cc2bf9ba38d90b1a6f12	345146431	1	main_slash	7	main_slash	97	stimuli_target_circletriangles.svg	stimuli_distractor_diamondtriangles.svg	5	yes	53	1	532
6.6.1	mac	2022-12-14	20:06:09	20:11:12	301453	6060cc2bf9ba38d90b1a6f12	345146431	1	main_slash	7	advance_on_keypress_SLASH	98	stimuli_target_circletriangles.svg	stimuli_distractor_diamondtriangles.svg	5	yes	57	0	260
6.6.1	mac	2022-12-14	20:06:09	20:11:14	303130	6060cc2bf9ba38d90b1a6f12	345146431	1	main_slash	7	main_slash	99	stimuli_target_diamondsquares.svg	stimuli_distractor_diamondtriangles.svg	24	yes	53	1	776
6.6.1	mac	2022-12-14	20:06:09	20:11:14	303130	6060cc2bf9ba38d90b1a6f12	345146431	1	main_slash	7	advance_on_keypress_SLASH	100	stimuli_target_diamondsquares.svg	stimuli_distractor_diamondtriangles.svg	24	yes	57	0	257
6.6.1	mac	2022-12-14	20:06:09	20:11:15	304842	6060cc2bf9ba38d90b1a6f12	345146431	1	main_slash	7	main_slash	101	stimuli_distractor_trianglediamonds.svg	stimuli_target_squarediamonds.svg	12	yes	53	1	838
6.6.1	mac	2022-12-14	20:06:09	20:11:15	304842	6060cc2bf9ba38d90b1a6f12	345146431	1	main_slash	7	advance_on_keypress_SLASH	102	stimuli_distractor_trianglediamonds.svg	stimuli_target_squarediamonds.svg	12	yes	57	0	241
6.6.1	mac	2022-12-14	20:06:09	20:11:17	306271	6060cc2bf9ba38d90b1a6f12	345146431	1	main_slash	7	main_slash	103	stimuli_target_circlediamonds.svg	stimuli_distractor_diamondtriangles.svg	6	yes	53	1	567
6.6.1	mac	2022-12-14	20:06:09	20:11:17	306271	6060cc2bf9ba38d90b1a6f12	345146431	1	main_slash	7	advance_on_keypress_SLASH	104	stimuli_target_circlediamonds.svg	stimuli_distractor_diamondtriangles.svg	6	yes	57	0	249
6.6.1	mac	2022-12-14	20:06:09	20:11:18	307787	6060cc2bf9ba38d90b1a6f12	345146431	1	main_slash	7	main_slash	105	stimuli_target_trianglesquares.svg	stimuli_distractor_trianglediamonds.svg	18	yes	53	1	632
6.6.1	mac	2022-12-14	20:06:09	20:11:18	307787	6060cc2bf9ba38d90b1a6f12	345146431	1	main_slash	7	advance_on_keypress_SLASH	106	stimuli_target_trianglesquares.svg	stimuli_distractor_trianglediamonds.svg	18	yes	57	0	267
6.6.1	mac	2022-12-14	20:06:09	20:11:20	309760	6060cc2bf9ba38d90b1a6f12	345146431	1	main_slash	7	main_slash	107	stimuli_distractor_trianglediamonds.svg	stimuli_target_squaretriangles.svg	11	yes	53	1	1073
6.6.1	mac	2022-12-14	20:06:09	20:11:20	309760	6060cc2bf9ba38d90b1a6f12	345146431	1	main_slash	7	advance_on_keypress_SLASH	108	stimuli_distractor_trianglediamonds.svg	stimuli_target_squaretriangles.svg	11	yes	57	0	216
6.6.1	mac	2022-12-14	20:06:09	20:11:22	311274	6060cc2bf9ba38d90b1a6f12	345146431	1	main_slash	7	main_slash	109	stimuli_distractor_trianglediamonds.svg	stimuli_target_trianglecircles.svg	25	yes	53	1	670
6.6.1	mac	2022-12-14	20:06:09	20:11:22	311274	6060cc2bf9ba38d90b1a6f12	345146431	1	main_slash	7	advance_on_keypress_SLASH	110	stimuli_distractor_trianglediamonds.svg	stimuli_target_trianglecircles.svg	25	yes	57	0	223
6.6.1	mac	2022-12-14	20:06:09	20:11:23	312766	6060cc2bf9ba38d90b1a6f12	345146431	1	main_slash	7	main_slash	111	stimuli_target_squarediamonds.svg	stimuli_distractor_diamondtriangles.svg	8	yes	53	1	645
6.6.1	mac	2022-12-14	20:06:09	20:11:23	312766	6060cc2bf9ba38d90b1a6f12	345146431	1	main_slash	7	advance_on_keypress_SLASH	112	stimuli_target_squarediamonds.svg	stimuli_distractor_diamondtriangles.svg	8	yes	57	0	267
6.6.1	mac	2022-12-14	20:06:09	20:11:25	314245	6060cc2bf9ba38d90b1a6f12	345146431	1	main_slash	7	main_slash	113	stimuli_target_circlediamonds.svg	stimuli_distractor_trianglediamonds.svg	2	yes	53	1	591
6.6.1	mac	2022-12-14	20:06:09	20:11:25	314245	6060cc2bf9ba38d90b1a6f12	345146431	1	main_slash	7	advance_on_keypress_SLASH	114	stimuli_target_circlediamonds.svg	stimuli_distractor_trianglediamonds.svg	2	yes	57	0	296
6.6.1	mac	2022-12-14	20:06:09	20:11:28	317172	6060cc2bf9ba38d90b1a6f12	345146431	1	main_slash	7	main_slash	115	stimuli_distractor_trianglediamonds.svg	stimuli_distractor_diamondtriangles.svg	36	no	0	1	2000
6.6.1	mac	2022-12-14	20:06:09	20:11:28	317172	6060cc2bf9ba38d90b1a6f12	345146431	1	main_slash	7	advance_on_keypress_SLASH	116	stimuli_distractor_trianglediamonds.svg	stimuli_distractor_diamondtriangles.svg	36	no	57	0	293
6.6.1	mac	2022-12-14	20:06:09	20:11:29	318604	6060cc2bf9ba38d90b1a6f12	345146431	1	main_slash	7	main_slash	117	stimuli_target_diamondcircles.svg	stimuli_distractor_trianglediamonds.svg	19	yes	53	1	518
6.6.1	mac	2022-12-14	20:06:09	20:11:29	318604	6060cc2bf9ba38d90b1a6f12	345146431	1	main_slash	7	advance_on_keypress_SLASH	118	stimuli_target_diamondcircles.svg	stimuli_distractor_trianglediamonds.svg	19	yes	57	0	218
6.6.1	mac	2022-12-14	20:06:09	20:11:31	320130	6060cc2bf9ba38d90b1a6f12	345146431	1	main_slash	7	main_slash	119	stimuli_target_squaretriangles.svg	stimuli_distractor_trianglediamonds.svg	3	yes	53	1	676
6.6.1	mac	2022-12-14	20:06:09	20:11:31	320130	6060cc2bf9ba38d90b1a6f12	345146431	1	main_slash	7	advance_on_keypress_SLASH	120	stimuli_target_squaretriangles.svg	stimuli_distractor_trianglediamonds.svg	3	yes	57	0	213
6.6.1	mac	2022-12-14	20:06:09	20:11:33	322409	6060cc2bf9ba38d90b1a6f12	345146431	1	main_slash	7	main_slash	121	stimuli_distractor_trianglediamonds.svg	stimuli_target_trianglesquares.svg	26	yes	53	1	1438
6.6.1	mac	2022-12-14	20:06:09	20:11:33	322409	6060cc2bf9ba38d90b1a6f12	345146431	1	main_slash	7	advance_on_keypress_SLASH	122	stimuli_distractor_trianglediamonds.svg	stimuli_target_trianglesquares.svg	26	yes	57	0	238
6.6.1	mac	2022-12-14	20:06:09	20:11:34	323944	6060cc2bf9ba38d90b1a6f12	345146431	1	main_slash	7	main_slash	123	stimuli_target_diamondsquares.svg	stimuli_distractor_trianglediamonds.svg	20	yes	53	1	673
6.6.1	mac	2022-12-14	20:06:09	20:11:34	323944	6060cc2bf9ba38d90b1a6f12	345146431	1	main_slash	7	advance_on_keypress_SLASH	124	stimuli_target_diamondsquares.svg	stimuli_distractor_trianglediamonds.svg	20	yes	57	0	212
6.6.1	mac	2022-12-14	20:06:09	20:11:37	326771	6060cc2bf9ba38d90b1a6f12	345146431	1	main_slash	7	main_slash	125	stimuli_distractor_trianglediamonds.svg	stimuli_target_diamondcircles.svg	27	yes	0	0	2000
6.6.1	mac	2022-12-14	20:06:09	20:11:37	326771	6060cc2bf9ba38d90b1a6f12	345146431	1	main_slash	7	advance_on_keypress_SLASH	126	stimuli_distractor_trianglediamonds.svg	stimuli_target_diamondcircles.svg	27	yes	57	0	301
6.6.1	mac	2022-12-14	20:06:09	20:11:39	328542	6060cc2bf9ba38d90b1a6f12	345146431	1	main_slash	7	main_slash	127	stimuli_distractor_trianglediamonds.svg	stimuli_target_circlediamonds.svg	10	yes	53	1	839
6.6.1	mac	2022-12-14	20:06:09	20:11:39	328542	6060cc2bf9ba38d90b1a6f12	345146431	1	main_slash	7	advance_on_keypress_SLASH	128	stimuli_distractor_trianglediamonds.svg	stimuli_target_circlediamonds.svg	10	yes	57	0	464
6.6.1	mac	2022-12-14	20:06:09	20:11:41	330366	6060cc2bf9ba38d90b1a6f12	345146431	1	main_slash	7	main_slash	129	stimuli_distractor_diamondtriangles.svg	stimuli_target_trianglesquares.svg	30	yes	53	1	729
6.6.1	mac	2022-12-14	20:06:09	20:11:41	330366	6060cc2bf9ba38d90b1a6f12	345146431	1	main_slash	7	advance_on_keypress_SLASH	130	stimuli_distractor_diamondtriangles.svg	stimuli_target_trianglesquares.svg	30	yes	57	0	199
6.6.1	mac	2022-12-14	20:06:09	20:11:44	333188	6060cc2bf9ba38d90b1a6f12	345146431	1	main_slash	7	main_slash	131	stimuli_distractor_trianglediamonds.svg	stimuli_distractor_trianglediamonds.svg	34	no	0	1	2000
6.6.1	mac	2022-12-14	20:06:09	20:11:44	333188	6060cc2bf9ba38d90b1a6f12	345146431	1	main_slash	7	advance_on_keypress_SLASH	132	stimuli_distractor_trianglediamonds.svg	stimuli_distractor_trianglediamonds.svg	34	no	57	0	214
6.6.1	mac	2022-12-14	20:06:09	20:11:47	336038	6060cc2bf9ba38d90b1a6f12	345146431	1	main_slash	7	main_slash	133	stimuli_distractor_trianglediamonds.svg	stimuli_distractor_trianglediamonds.svg	33	no	0	1	2000
6.6.1	mac	2022-12-14	20:06:09	20:11:47	336038	6060cc2bf9ba38d90b1a6f12	345146431	1	main_slash	7	advance_on_keypress_SLASH	134	stimuli_distractor_trianglediamonds.svg	stimuli_distractor_trianglediamonds.svg	33	no	57	0	280
6.6.1	mac	2022-12-14	20:06:09	20:11:48	337640	6060cc2bf9ba38d90b1a6f12	345146431	1	main_slash	7	main_slash	135	stimuli_distractor_trianglediamonds.svg	stimuli_target_diamondsquares.svg	28	yes	53	1	685
6.6.1	mac	2022-12-14	20:06:09	20:11:48	337640	6060cc2bf9ba38d90b1a6f12	345146431	1	main_slash	7	advance_on_keypress_SLASH	136	stimuli_distractor_trianglediamonds.svg	stimuli_target_diamondsquares.svg	28	yes	57	0	196
6.6.1	mac	2022-12-14	20:06:09	20:11:51	340472	6060cc2bf9ba38d90b1a6f12	345146431	1	main_slash	7	main_slash	137	stimuli_distractor_diamondtriangles.svg	stimuli_target_diamondsquares.svg	32	yes	0	0	2000
6.6.1	mac	2022-12-14	20:06:09	20:11:51	340472	6060cc2bf9ba38d90b1a6f12	345146431	1	main_slash	7	advance_on_keypress_SLASH	138	stimuli_distractor_diamondtriangles.svg	stimuli_target_diamondsquares.svg	32	yes	57	0	305
6.6.1	mac	2022-12-14	20:06:09	20:11:54	343405	6060cc2bf9ba38d90b1a6f12	345146431	1	main_slash	7	main_slash	139	stimuli_distractor_diamondtriangles.svg	stimuli_distractor_trianglediamonds.svg	38	no	0	1	2000
6.6.1	mac	2022-12-14	20:06:09	20:11:54	343405	6060cc2bf9ba38d90b1a6f12	345146431	1	main_slash	7	advance_on_keypress_SLASH	140	stimuli_distractor_diamondtriangles.svg	stimuli_distractor_trianglediamonds.svg	38	no	57	0	290
6.6.1	mac	2022-12-14	20:06:09	20:11:57	346322	6060cc2bf9ba38d90b1a6f12	345146431	1	main_slash	7	main_slash	141	stimuli_distractor_diamondtriangles.svg	stimuli_distractor_trianglediamonds.svg	37	no	0	1	2000
6.6.1	mac	2022-12-14	20:06:09	20:11:57	346322	6060cc2bf9ba38d90b1a6f12	345146431	1	main_slash	7	advance_on_keypress_SLASH	142	stimuli_distractor_diamondtriangles.svg	stimuli_distractor_trianglediamonds.svg	37	no	57	0	289
6.6.1	mac	2022-12-14	20:06:09	20:11:58	347945	6060cc2bf9ba38d90b1a6f12	345146431	1	main_slash	7	main_slash	143	stimuli_distractor_diamondtriangles.svg	stimuli_target_diamondcircles.svg	31	yes	53	1	708
6.6.1	mac	2022-12-14	20:06:09	20:11:58	347945	6060cc2bf9ba38d90b1a6f12	345146431	1	main_slash	7	advance_on_keypress_SLASH	144	stimuli_distractor_diamondtriangles.svg	stimuli_target_diamondcircles.svg	31	yes	57	0	245
6.6.1	mac	2022-12-14	20:06:09	20:12:00	349371	6060cc2bf9ba38d90b1a6f12	345146431	1	main_slash	7	main_slash	145	stimuli_target_diamondcircles.svg	stimuli_distractor_diamondtriangles.svg	23	yes	53	1	568
6.6.1	mac	2022-12-14	20:06:09	20:12:00	349371	6060cc2bf9ba38d90b1a6f12	345146431	1	main_slash	7	advance_on_keypress_SLASH	146	stimuli_target_diamondcircles.svg	stimuli_distractor_diamondtriangles.svg	23	yes	57	0	222
6.6.1	mac	2022-12-14	20:06:09	20:12:01	350708	6060cc2bf9ba38d90b1a6f12	345146431	1	main_slash	7	main_slash	147	stimuli_target_trianglecircles.svg	stimuli_distractor_trianglediamonds.svg	17	yes	53	1	471
6.6.1	mac	2022-12-14	20:06:09	20:12:01	350708	6060cc2bf9ba38d90b1a6f12	345146431	1	main_slash	7	advance_on_keypress_SLASH	148	stimuli_target_trianglecircles.svg	stimuli_distractor_trianglediamonds.svg	17	yes	57	0	215
6.6.1	mac	2022-12-14	20:06:09	20:12:04	353555	6060cc2bf9ba38d90b1a6f12	345146431	1	main_slash	7	main_slash	149	stimuli_distractor_trianglediamonds.svg	stimuli_distractor_diamondtriangles.svg	35	no	0	1	2000
6.6.1	mac	2022-12-14	20:06:09	20:12:04	353555	6060cc2bf9ba38d90b1a6f12	345146431	1	main_slash	7	advance_on_keypress_SLASH	150	stimuli_distractor_trianglediamonds.svg	stimuli_distractor_diamondtriangles.svg	35	no	57	0	260
6.6.1	mac	2022-12-14	20:06:09	20:12:06	355083	6060cc2bf9ba38d90b1a6f12	345146431	1	main_slash	7	main_slash	151	stimuli_target_circletriangles.svg	stimuli_distractor_trianglediamonds.svg	1	yes	53	1	645
6.6.1	mac	2022-12-14	20:06:09	20:12:06	355083	6060cc2bf9ba38d90b1a6f12	345146431	1	main_slash	7	advance_on_keypress_SLASH	152	stimuli_target_circletriangles.svg	stimuli_distractor_trianglediamonds.svg	1	yes	57	0	160
6.6.1	mac	2022-12-14	20:06:09	20:12:07	356475	6060cc2bf9ba38d90b1a6f12	345146431	1	main_slash	7	main_slash	153	stimuli_target_squaretriangles.svg	stimuli_distractor_diamondtriangles.svg	7	yes	53	1	604
6.6.1	mac	2022-12-14	20:06:09	20:12:07	356475	6060cc2bf9ba38d90b1a6f12	345146431	1	main_slash	7	advance_on_keypress_SLASH	154	stimuli_target_squaretriangles.svg	stimuli_distractor_diamondtriangles.svg	7	yes	57	0	188
6.6.1	mac	2022-12-14	20:06:09	20:12:08	357824	6060cc2bf9ba38d90b1a6f12	345146431	1	main_slash	7	main_slash	155	stimuli_distractor_diamondtriangles.svg	stimuli_target_squarediamonds.svg	16	yes	53	1	537
6.6.1	mac	2022-12-14	20:06:09	20:12:08	357824	6060cc2bf9ba38d90b1a6f12	345146431	1	main_slash	7	advance_on_keypress_SLASH	156	stimuli_distractor_diamondtriangles.svg	stimuli_target_squarediamonds.svg	16	yes	57	0	1189
6.6.1	mac	2022-12-14	20:06:09	20:12:11	360833	6060cc2bf9ba38d90b1a6f12	345146431	1	main_slash	7	main_slash	157	stimuli_target_trianglecircles.svg	stimuli_distractor_diamondtriangles.svg	21	yes	53	1	1178
6.6.1	mac	2022-12-14	20:06:09	20:12:11	360833	6060cc2bf9ba38d90b1a6f12	345146431	1	main_slash	7	advance_on_keypress_SLASH	158	stimuli_target_trianglecircles.svg	stimuli_distractor_diamondtriangles.svg	21	yes	57	0	204
6.6.1	mac	2022-12-14	20:06:09	20:12:13	362295	6060cc2bf9ba38d90b1a6f12	345146431	1	main_slash	7	main_slash	159	stimuli_distractor_diamondtriangles.svg	stimuli_target_circletriangles.svg	13	yes	53	1	624
6.6.1	mac	2022-12-14	20:06:09	20:12:13	362295	6060cc2bf9ba38d90b1a6f12	345146431	1	main_slash	7	advance_on_keypress_SLASH	160	stimuli_distractor_diamondtriangles.svg	stimuli_target_circletriangles.svg	13	yes	57	0	176
6.6.1	mac	2022-12-14	20:06:09	20:12:28	377644	6060cc2bf9ba38d90b1a6f12	345146431	1	practice_z	9	practice_z	1	stimuli_target_circlediamonds.svg	stimuli_distractor_trianglediamonds.svg	4	yes	44	1	455
6.6.1	mac	2022-12-14	20:06:09	20:12:28	377644	6060cc2bf9ba38d90b1a6f12	345146431	1	practice_z	9	advance_on_keypress_ZEE	2	stimuli_target_circlediamonds.svg	stimuli_distractor_trianglediamonds.svg	4	yes	57	0	516
6.6.1	mac	2022-12-14	20:06:09	20:12:31	380777	6060cc2bf9ba38d90b1a6f12	345146431	1	practice_z	9	practice_z	3	stimuli_distractor_trianglediamonds.svg	stimuli_target_diamondcircles.svg	12	yes	44	1	989
6.6.1	mac	2022-12-14	20:06:09	20:12:31	380777	6060cc2bf9ba38d90b1a6f12	345146431	1	practice_z	9	advance_on_keypress_ZEE	4	stimuli_distractor_trianglediamonds.svg	stimuli_target_diamondcircles.svg	12	yes	57	0	382
6.6.1	mac	2022-12-14	20:06:09	20:12:34	383327	6060cc2bf9ba38d90b1a6f12	345146431	1	practice_z	9	practice_z	5	stimuli_distractor_trianglediamonds.svg	stimuli_target_circlediamonds.svg	10	yes	44	1	539
6.6.1	mac	2022-12-14	20:06:09	20:12:34	383327	6060cc2bf9ba38d90b1a6f12	345146431	1	practice_z	9	advance_on_keypress_ZEE	6	stimuli_distractor_trianglediamonds.svg	stimuli_target_circlediamonds.svg	10	yes	57	0	392
6.6.1	mac	2022-12-14	20:06:09	20:12:37	386091	6060cc2bf9ba38d90b1a6f12	345146431	1	practice_z	9	practice_z	7	stimuli_distractor_diamondtriangles.svg	stimuli_target_circletriangles.svg	7	yes	44	1	753
6.6.1	mac	2022-12-14	20:06:09	20:12:37	386091	6060cc2bf9ba38d90b1a6f12	345146431	1	practice_z	9	advance_on_keypress_ZEE	8	stimuli_distractor_diamondtriangles.svg	stimuli_target_circletriangles.svg	7	yes	57	0	361
6.6.1	mac	2022-12-14	20:06:09	20:12:39	388657	6060cc2bf9ba38d90b1a6f12	345146431	1	practice_z	9	practice_z	9	stimuli_target_circlediamonds.svg	stimuli_distractor_diamondtriangles.svg	1	yes	44	1	585
6.6.1	mac	2022-12-14	20:06:09	20:12:39	388657	6060cc2bf9ba38d90b1a6f12	345146431	1	practice_z	9	advance_on_keypress_ZEE	10	stimuli_target_circlediamonds.svg	stimuli_distractor_diamondtriangles.svg	1	yes	57	0	326
6.6.1	mac	2022-12-14	20:06:09	20:12:43	392607	6060cc2bf9ba38d90b1a6f12	345146431	1	practice_z	9	practice_z	11	stimuli_distractor_diamondtriangles.svg	stimuli_distractor_trianglediamonds.svg	14	no	0	1	2000
6.6.1	mac	2022-12-14	20:06:09	20:12:43	392607	6060cc2bf9ba38d90b1a6f12	345146431	1	practice_z	9	advance_on_keypress_ZEE	12	stimuli_distractor_diamondtriangles.svg	stimuli_distractor_trianglediamonds.svg	14	no	57	0	326
6.6.1	mac	2022-12-14	20:06:09	20:12:47	396557	6060cc2bf9ba38d90b1a6f12	345146431	1	practice_z	9	practice_z	13	stimuli_distractor_trianglediamonds.svg	stimuli_distractor_diamondtriangles.svg	16	no	0	1	2000
6.6.1	mac	2022-12-14	20:06:09	20:12:47	396557	6060cc2bf9ba38d90b1a6f12	345146431	1	practice_z	9	advance_on_keypress_ZEE	14	stimuli_distractor_trianglediamonds.svg	stimuli_distractor_diamondtriangles.svg	16	no	57	0	336
6.6.1	mac	2022-12-14	20:06:09	20:12:50	399117	6060cc2bf9ba38d90b1a6f12	345146431	1	practice_z	9	practice_z	15	stimuli_target_squarediamonds.svg	stimuli_distractor_trianglediamonds.svg	5	yes	44	1	594
6.6.1	mac	2022-12-14	20:06:09	20:12:50	399117	6060cc2bf9ba38d90b1a6f12	345146431	1	practice_z	9	advance_on_keypress_ZEE	16	stimuli_target_squarediamonds.svg	stimuli_distractor_trianglediamonds.svg	5	yes	57	0	321
6.6.1	mac	2022-12-14	20:06:09	20:12:54	403074	6060cc2bf9ba38d90b1a6f12	345146431	1	practice_z	9	practice_z	17	stimuli_distractor_trianglediamonds.svg	stimuli_distractor_trianglediamonds.svg	15	no	0	1	2000
6.6.1	mac	2022-12-14	20:06:09	20:12:54	403074	6060cc2bf9ba38d90b1a6f12	345146431	1	practice_z	9	advance_on_keypress_ZEE	18	stimuli_distractor_trianglediamonds.svg	stimuli_distractor_trianglediamonds.svg	15	no	57	0	388
6.6.1	mac	2022-12-14	20:06:09	20:12:56	405826	6060cc2bf9ba38d90b1a6f12	345146431	1	practice_z	9	practice_z	19	stimuli_distractor_diamondtriangles.svg	stimuli_target_diamondcircles.svg	8	yes	44	1	736
6.6.1	mac	2022-12-14	20:06:09	20:12:56	405826	6060cc2bf9ba38d90b1a6f12	345146431	1	practice_z	9	advance_on_keypress_ZEE	20	stimuli_distractor_diamondtriangles.svg	stimuli_target_diamondcircles.svg	8	yes	57	0	292
6.6.1	mac	2022-12-14	20:06:09	20:12:59	408571	6060cc2bf9ba38d90b1a6f12	345146431	1	practice_z	9	practice_z	21	stimuli_target_diamondsquares.svg	stimuli_distractor_trianglediamonds.svg	6	yes	44	1	833
6.6.1	mac	2022-12-14	20:06:09	20:12:59	408571	6060cc2bf9ba38d90b1a6f12	345146431	1	practice_z	9	advance_on_keypress_ZEE	22	stimuli_target_diamondsquares.svg	stimuli_distractor_trianglediamonds.svg	6	yes	57	0	309
6.6.1	mac	2022-12-14	20:06:09	20:13:02	411137	6060cc2bf9ba38d90b1a6f12	345146431	1	practice_z	9	practice_z	23	stimuli_distractor_diamondtriangles.svg	stimuli_target_trianglecircles.svg	9	yes	44	1	632
6.6.1	mac	2022-12-14	20:06:09	20:13:02	411137	6060cc2bf9ba38d90b1a6f12	345146431	1	practice_z	9	advance_on_keypress_ZEE	24	stimuli_distractor_diamondtriangles.svg	stimuli_target_trianglecircles.svg	9	yes	57	0	321
6.6.1	mac	2022-12-14	20:06:09	20:13:04	413778	6060cc2bf9ba38d90b1a6f12	345146431	1	practice_z	9	practice_z	25	stimuli_target_squarediamonds.svg	stimuli_distractor_diamondtriangles.svg	2	yes	44	1	690
6.6.1	mac	2022-12-14	20:06:09	20:13:04	413778	6060cc2bf9ba38d90b1a6f12	345146431	1	practice_z	9	advance_on_keypress_ZEE	26	stimuli_target_squarediamonds.svg	stimuli_distractor_diamondtriangles.svg	2	yes	57	0	253
6.6.1	mac	2022-12-14	20:06:09	20:13:08	417657	6060cc2bf9ba38d90b1a6f12	345146431	1	practice_z	9	practice_z	27	stimuli_distractor_diamondtriangles.svg	stimuli_distractor_diamondtriangles.svg	13	no	0	1	2000
6.6.1	mac	2022-12-14	20:06:09	20:13:08	417657	6060cc2bf9ba38d90b1a6f12	345146431	1	practice_z	9	advance_on_keypress_ZEE	28	stimuli_distractor_diamondtriangles.svg	stimuli_distractor_diamondtriangles.svg	13	no	57	0	399
6.6.1	mac	2022-12-14	20:06:09	20:13:11	420283	6060cc2bf9ba38d90b1a6f12	345146431	1	practice_z	9	practice_z	29	stimuli_distractor_trianglediamonds.svg	stimuli_target_squarediamonds.svg	11	yes	44	1	595
6.6.1	mac	2022-12-14	20:06:09	20:13:11	420283	6060cc2bf9ba38d90b1a6f12	345146431	1	practice_z	9	advance_on_keypress_ZEE	30	stimuli_distractor_trianglediamonds.svg	stimuli_target_squarediamonds.svg	11	yes	57	0	367
6.6.1	mac	2022-12-14	20:06:09	20:13:13	422905	6060cc2bf9ba38d90b1a6f12	345146431	1	practice_z	9	practice_z	31	stimuli_target_diamondsquares.svg	stimuli_distractor_diamondtriangles.svg	3	yes	44	1	632
6.6.1	mac	2022-12-14	20:06:09	20:13:13	422905	6060cc2bf9ba38d90b1a6f12	345146431	1	practice_z	9	advance_on_keypress_ZEE	32	stimuli_target_diamondsquares.svg	stimuli_distractor_diamondtriangles.svg	3	yes	57	0	362
6.6.1	mac	2022-12-14	20:06:09	20:13:17	426094	6060cc2bf9ba38d90b1a6f12	345146431	1	main_z	11	main_z	1	stimuli_distractor_trianglediamonds.svg	stimuli_target_trianglesquares.svg	26	yes	44	1	606
6.6.1	mac	2022-12-14	20:06:09	20:13:17	426094	6060cc2bf9ba38d90b1a6f12	345146431	1	main_z	11	advance_on_keypress_ZEE	2	stimuli_distractor_trianglediamonds.svg	stimuli_target_trianglesquares.svg	26	yes	57	0	421
6.6.1	mac	2022-12-14	20:06:09	20:13:18	427599	6060cc2bf9ba38d90b1a6f12	345146431	1	main_z	11	main_z	3	stimuli_target_squarediamonds.svg	stimuli_distractor_diamondtriangles.svg	8	yes	44	1	462
6.6.1	mac	2022-12-14	20:06:09	20:13:18	427599	6060cc2bf9ba38d90b1a6f12	345146431	1	main_z	11	advance_on_keypress_ZEE	4	stimuli_target_squarediamonds.svg	stimuli_distractor_diamondtriangles.svg	8	yes	57	0	253
6.6.1	mac	2022-12-14	20:06:09	20:13:19	428888	6060cc2bf9ba38d90b1a6f12	345146431	1	main_z	11	main_z	5	stimuli_target_squaretriangles.svg	stimuli_distractor_trianglediamonds.svg	3	yes	44	1	416
6.6.1	mac	2022-12-14	20:06:09	20:13:19	428888	6060cc2bf9ba38d90b1a6f12	345146431	1	main_z	11	advance_on_keypress_ZEE	6	stimuli_target_squaretriangles.svg	stimuli_distractor_trianglediamonds.svg	3	yes	57	0	236
6.6.1	mac	2022-12-14	20:06:09	20:13:21	430181	6060cc2bf9ba38d90b1a6f12	345146431	1	main_z	11	main_z	7	stimuli_target_squaretriangles.svg	stimuli_distractor_diamondtriangles.svg	7	yes	44	1	426
6.6.1	mac	2022-12-14	20:06:09	20:13:21	430181	6060cc2bf9ba38d90b1a6f12	345146431	1	main_z	11	advance_on_keypress_ZEE	8	stimuli_target_squaretriangles.svg	stimuli_distractor_diamondtriangles.svg	7	yes	57	0	218
6.6.1	mac	2022-12-14	20:06:09	20:13:24	433022	6060cc2bf9ba38d90b1a6f12	345146431	1	main_z	11	main_z	9	stimuli_distractor_trianglediamonds.svg	stimuli_distractor_diamondtriangles.svg	35	no	0	1	2000
6.6.1	mac	2022-12-14	20:06:09	20:13:24	433022	6060cc2bf9ba38d90b1a6f12	345146431	1	main_z	11	advance_on_keypress_ZEE	10	stimuli_distractor_trianglediamonds.svg	stimuli_distractor_diamondtriangles.svg	35	no	57	0	289
6.6.1	mac	2022-12-14	20:06:09	20:13:25	434711	6060cc2bf9ba38d90b1a6f12	345146431	1	main_z	11	main_z	11	stimuli_target_diamondsquares.svg	stimuli_distractor_trianglediamonds.svg	20	yes	44	1	773
6.6.1	mac	2022-12-14	20:06:09	20:13:25	434711	6060cc2bf9ba38d90b1a6f12	345146431	1	main_z	11	advance_on_keypress_ZEE	12	stimuli_target_diamondsquares.svg	stimuli_distractor_trianglediamonds.svg	20	yes	57	0	157
6.6.1	mac	2022-12-14	20:06:09	20:13:27	435959	6060cc2bf9ba38d90b1a6f12	345146431	1	main_z	11	main_z	13	stimuli_target_diamondcircles.svg	stimuli_distractor_diamondtriangles.svg	23	yes	44	1	472
6.6.1	mac	2022-12-14	20:06:09	20:13:27	435959	6060cc2bf9ba38d90b1a6f12	345146431	1	main_z	11	advance_on_keypress_ZEE	14	stimuli_target_diamondcircles.svg	stimuli_distractor_diamondtriangles.svg	23	yes	57	0	167
6.6.1	mac	2022-12-14	20:06:09	20:13:28	437603	6060cc2bf9ba38d90b1a6f12	345146431	1	main_z	11	main_z	15	stimuli_distractor_diamondtriangles.svg	stimuli_target_trianglecircles.svg	29	yes	44	1	849
6.6.1	mac	2022-12-14	20:06:09	20:13:28	437603	6060cc2bf9ba38d90b1a6f12	345146431	1	main_z	11	advance_on_keypress_ZEE	16	stimuli_distractor_diamondtriangles.svg	stimuli_target_trianglecircles.svg	29	yes	57	0	149
6.6.1	mac	2022-12-14	20:06:09	20:13:29	438936	6060cc2bf9ba38d90b1a6f12	345146431	1	main_z	11	main_z	17	stimuli_target_diamondsquares.svg	stimuli_distractor_diamondtriangles.svg	24	yes	44	1	550
6.6.1	mac	2022-12-14	20:06:09	20:13:29	438936	6060cc2bf9ba38d90b1a6f12	345146431	1	main_z	11	advance_on_keypress_ZEE	18	stimuli_target_diamondsquares.svg	stimuli_distractor_diamondtriangles.svg	24	yes	57	0	191
6.6.1	mac	2022-12-14	20:06:09	20:13:31	440357	6060cc2bf9ba38d90b1a6f12	345146431	1	main_z	11	main_z	19	stimuli_distractor_trianglediamonds.svg	stimuli_target_circlediamonds.svg	10	yes	44	1	603
6.6.1	mac	2022-12-14	20:06:09	20:13:31	440357	6060cc2bf9ba38d90b1a6f12	345146431	1	main_z	11	advance_on_keypress_ZEE	20	stimuli_distractor_trianglediamonds.svg	stimuli_target_circlediamonds.svg	10	yes	57	0	142
6.6.1	mac	2022-12-14	20:06:09	20:13:32	441679	6060cc2bf9ba38d90b1a6f12	345146431	1	main_z	11	main_z	21	stimuli_target_trianglesquares.svg	stimuli_distractor_diamondtriangles.svg	22	yes	44	1	559
6.6.1	mac	2022-12-14	20:06:09	20:13:32	441679	6060cc2bf9ba38d90b1a6f12	345146431	1	main_z	11	advance_on_keypress_ZEE	22	stimuli_target_trianglesquares.svg	stimuli_distractor_diamondtriangles.svg	22	yes	57	0	141
6.6.1	mac	2022-12-14	20:06:09	20:13:34	443128	6060cc2bf9ba38d90b1a6f12	345146431	1	main_z	11	main_z	23	stimuli_distractor_diamondtriangles.svg	stimuli_target_squarediamonds.svg	16	yes	44	1	674
6.6.1	mac	2022-12-14	20:06:09	20:13:34	443128	6060cc2bf9ba38d90b1a6f12	345146431	1	main_z	11	advance_on_keypress_ZEE	24	stimuli_distractor_diamondtriangles.svg	stimuli_target_squarediamonds.svg	16	yes	57	0	146
6.6.1	mac	2022-12-14	20:06:09	20:13:36	445889	6060cc2bf9ba38d90b1a6f12	345146431	1	main_z	11	main_z	25	stimuli_distractor_trianglediamonds.svg	stimuli_target_diamondsquares.svg	28	yes	0	0	2000
6.6.1	mac	2022-12-14	20:06:09	20:13:36	445889	6060cc2bf9ba38d90b1a6f12	345146431	1	main_z	11	advance_on_keypress_ZEE	26	stimuli_distractor_trianglediamonds.svg	stimuli_target_diamondsquares.svg	28	yes	57	0	302
6.6.1	mac	2022-12-14	20:06:09	20:13:38	447840	6060cc2bf9ba38d90b1a6f12	345146431	1	main_z	11	main_z	27	stimuli_distractor_diamondtriangles.svg	stimuli_target_circlediamonds.svg	14	yes	44	1	1019
6.6.1	mac	2022-12-14	20:06:09	20:13:38	447840	6060cc2bf9ba38d90b1a6f12	345146431	1	main_z	11	advance_on_keypress_ZEE	28	stimuli_distractor_diamondtriangles.svg	stimuli_target_circlediamonds.svg	14	yes	57	0	167
6.6.1	mac	2022-12-14	20:06:09	20:13:40	449227	6060cc2bf9ba38d90b1a6f12	345146431	1	main_z	11	main_z	29	stimuli_distractor_trianglediamonds.svg	stimuli_target_squaretriangles.svg	11	yes	44	1	590
6.6.1	mac	2022-12-14	20:06:09	20:13:40	449227	6060cc2bf9ba38d90b1a6f12	345146431	1	main_z	11	advance_on_keypress_ZEE	30	stimuli_distractor_trianglediamonds.svg	stimuli_target_squaretriangles.svg	11	yes	57	0	162
6.6.1	mac	2022-12-14	20:06:09	20:13:41	450520	6060cc2bf9ba38d90b1a6f12	345146431	1	main_z	11	main_z	31	stimuli_target_circlediamonds.svg	stimuli_distractor_diamondtriangles.svg	6	yes	44	1	516
6.6.1	mac	2022-12-14	20:06:09	20:13:41	450520	6060cc2bf9ba38d90b1a6f12	345146431	1	main_z	11	advance_on_keypress_ZEE	32	stimuli_target_circlediamonds.svg	stimuli_distractor_diamondtriangles.svg	6	yes	57	0	159
6.6.1	mac	2022-12-14	20:06:09	20:13:42	451755	6060cc2bf9ba38d90b1a6f12	345146431	1	main_z	11	main_z	33	stimuli_target_circletriangles.svg	stimuli_distractor_trianglediamonds.svg	1	yes	44	1	451
6.6.1	mac	2022-12-14	20:06:09	20:13:42	451755	6060cc2bf9ba38d90b1a6f12	345146431	1	main_z	11	advance_on_keypress_ZEE	34	stimuli_target_circletriangles.svg	stimuli_distractor_trianglediamonds.svg	1	yes	57	0	156
6.6.1	mac	2022-12-14	20:06:09	20:13:44	453203	6060cc2bf9ba38d90b1a6f12	345146431	1	main_z	11	main_z	35	stimuli_distractor_diamondtriangles.svg	stimuli_target_diamondcircles.svg	31	yes	44	1	665
6.6.1	mac	2022-12-14	20:06:09	20:13:44	453203	6060cc2bf9ba38d90b1a6f12	345146431	1	main_z	11	advance_on_keypress_ZEE	36	stimuli_distractor_diamondtriangles.svg	stimuli_target_diamondcircles.svg	31	yes	57	0	111
6.6.1	mac	2022-12-14	20:06:09	20:13:45	454425	6060cc2bf9ba38d90b1a6f12	345146431	1	main_z	11	main_z	37	stimuli_distractor_trianglediamonds.svg	stimuli_target_squarediamonds.svg	12	yes	44	1	488
6.6.1	mac	2022-12-14	20:06:09	20:13:45	454425	6060cc2bf9ba38d90b1a6f12	345146431	1	main_z	11	advance_on_keypress_ZEE	38	stimuli_distractor_trianglediamonds.svg	stimuli_target_squarediamonds.svg	12	yes	57	0	151
6.6.1	mac	2022-12-14	20:06:09	20:13:48	457206	6060cc2bf9ba38d90b1a6f12	345146431	1	main_z	11	main_z	39	stimuli_distractor_diamondtriangles.svg	stimuli_distractor_diamondtriangles.svg	40	no	0	1	2000
6.6.1	mac	2022-12-14	20:06:09	20:13:48	457206	6060cc2bf9ba38d90b1a6f12	345146431	1	main_z	11	advance_on_keypress_ZEE	40	stimuli_distractor_diamondtriangles.svg	stimuli_distractor_diamondtriangles.svg	40	no	57	0	317
6.6.1	mac	2022-12-14	20:06:09	20:13:49	458675	6060cc2bf9ba38d90b1a6f12	345146431	1	main_z	11	main_z	41	stimuli_distractor_diamondtriangles.svg	stimuli_target_circletriangles.svg	13	yes	44	1	521
6.6.1	mac	2022-12-14	20:06:09	20:13:49	458675	6060cc2bf9ba38d90b1a6f12	345146431	1	main_z	11	advance_on_keypress_ZEE	42	stimuli_distractor_diamondtriangles.svg	stimuli_target_circletriangles.svg	13	yes	57	0	140
6.6.1	mac	2022-12-14	20:06:09	20:13:51	460060	6060cc2bf9ba38d90b1a6f12	345146431	1	main_z	11	main_z	43	stimuli_distractor_trianglediamonds.svg	stimuli_distractor_diamondtriangles.svg	36	no	44	0	606
6.6.1	mac	2022-12-14	20:06:09	20:13:51	460060	6060cc2bf9ba38d90b1a6f12	345146431	1	main_z	11	advance_on_keypress_ZEE	44	stimuli_distractor_trianglediamonds.svg	stimuli_distractor_diamondtriangles.svg	36	no	57	0	394
6.6.1	mac	2022-12-14	20:06:09	20:13:53	461975	6060cc2bf9ba38d90b1a6f12	345146431	1	main_z	11	main_z	45	stimuli_target_trianglecircles.svg	stimuli_distractor_trianglediamonds.svg	17	yes	44	1	905
6.6.1	mac	2022-12-14	20:06:09	20:13:53	461975	6060cc2bf9ba38d90b1a6f12	345146431	1	main_z	11	advance_on_keypress_ZEE	46	stimuli_target_trianglecircles.svg	stimuli_distractor_trianglediamonds.svg	17	yes	57	0	123
6.6.1	mac	2022-12-14	20:06:09	20:13:54	463300	6060cc2bf9ba38d90b1a6f12	345146431	1	main_z	11	main_z	47	stimuli_distractor_diamondtriangles.svg	stimuli_target_trianglesquares.svg	30	yes	44	1	579
6.6.1	mac	2022-12-14	20:06:09	20:13:54	463300	6060cc2bf9ba38d90b1a6f12	345146431	1	main_z	11	advance_on_keypress_ZEE	48	stimuli_distractor_diamondtriangles.svg	stimuli_target_trianglesquares.svg	30	yes	57	0	140
6.6.1	mac	2022-12-14	20:06:09	20:13:55	464546	6060cc2bf9ba38d90b1a6f12	345146431	1	main_z	11	main_z	49	stimuli_target_trianglecircles.svg	stimuli_distractor_diamondtriangles.svg	21	yes	44	1	475
6.6.1	mac	2022-12-14	20:06:09	20:13:55	464546	6060cc2bf9ba38d90b1a6f12	345146431	1	main_z	11	advance_on_keypress_ZEE	50	stimuli_target_trianglecircles.svg	stimuli_distractor_diamondtriangles.svg	21	yes	57	0	149
6.6.1	mac	2022-12-14	20:06:09	20:13:57	466192	6060cc2bf9ba38d90b1a6f12	345146431	1	main_z	11	main_z	51	stimuli_target_circletriangles.svg	stimuli_distractor_diamondtriangles.svg	5	yes	44	1	871
6.6.1	mac	2022-12-14	20:06:09	20:13:57	466192	6060cc2bf9ba38d90b1a6f12	345146431	1	main_z	11	advance_on_keypress_ZEE	52	stimuli_target_circletriangles.svg	stimuli_distractor_diamondtriangles.svg	5	yes	57	0	131
6.6.1	mac	2022-12-14	20:06:09	20:13:59	468956	6060cc2bf9ba38d90b1a6f12	345146431	1	main_z	11	main_z	53	stimuli_distractor_diamondtriangles.svg	stimuli_distractor_diamondtriangles.svg	39	no	0	1	2000
6.6.1	mac	2022-12-14	20:06:09	20:13:59	468956	6060cc2bf9ba38d90b1a6f12	345146431	1	main_z	11	advance_on_keypress_ZEE	54	stimuli_distractor_diamondtriangles.svg	stimuli_distractor_diamondtriangles.svg	39	no	57	0	315
6.6.1	mac	2022-12-14	20:06:09	20:14:02	471906	6060cc2bf9ba38d90b1a6f12	345146431	1	main_z	11	main_z	55	stimuli_distractor_trianglediamonds.svg	stimuli_distractor_trianglediamonds.svg	34	no	0	1	2000
6.6.1	mac	2022-12-14	20:06:09	20:14:02	471906	6060cc2bf9ba38d90b1a6f12	345146431	1	main_z	11	advance_on_keypress_ZEE	56	stimuli_distractor_trianglediamonds.svg	stimuli_distractor_trianglediamonds.svg	34	no	57	0	269
6.6.1	mac	2022-12-14	20:06:09	20:14:04	473337	6060cc2bf9ba38d90b1a6f12	345146431	1	main_z	11	main_z	57	stimuli_target_squarediamonds.svg	stimuli_distractor_trianglediamonds.svg	4	yes	44	1	533
6.6.1	mac	2022-12-14	20:06:09	20:14:04	473337	6060cc2bf9ba38d90b1a6f12	345146431	1	main_z	11	advance_on_keypress_ZEE	58	stimuli_target_squarediamonds.svg	stimuli_distractor_trianglediamonds.svg	4	yes	57	0	135
6.6.1	mac	2022-12-14	20:06:09	20:14:05	474627	6060cc2bf9ba38d90b1a6f12	345146431	1	main_z	11	main_z	59	stimuli_distractor_trianglediamonds.svg	stimuli_target_trianglecircles.svg	25	yes	44	1	524
6.6.1	mac	2022-12-14	20:06:09	20:14:05	474627	6060cc2bf9ba38d90b1a6f12	345146431	1	main_z	11	advance_on_keypress_ZEE	60	stimuli_distractor_trianglediamonds.svg	stimuli_target_trianglecircles.svg	25	yes	57	0	118
6.6.1	mac	2022-12-14	20:06:09	20:14:06	475854	6060cc2bf9ba38d90b1a6f12	345146431	1	main_z	11	main_z	61	stimuli_target_diamondcircles.svg	stimuli_distractor_trianglediamonds.svg	19	yes	44	1	483
6.6.1	mac	2022-12-14	20:06:09	20:14:06	475854	6060cc2bf9ba38d90b1a6f12	345146431	1	main_z	11	advance_on_keypress_ZEE	62	stimuli_target_diamondcircles.svg	stimuli_distractor_trianglediamonds.svg	19	yes	57	0	123
6.6.1	mac	2022-12-14	20:06:09	20:14:09	478606	6060cc2bf9ba38d90b1a6f12	345146431	1	main_z	11	main_z	63	stimuli_distractor_diamondtriangles.svg	stimuli_distractor_trianglediamonds.svg	37	no	0	1	2000
6.6.1	mac	2022-12-14	20:06:09	20:14:09	478606	6060cc2bf9ba38d90b1a6f12	345146431	1	main_z	11	advance_on_keypress_ZEE	64	stimuli_distractor_diamondtriangles.svg	stimuli_distractor_trianglediamonds.svg	37	no	57	0	264
6.6.1	mac	2022-12-14	20:06:09	20:14:11	480217	6060cc2bf9ba38d90b1a6f12	345146431	1	main_z	11	main_z	65	stimuli_distractor_diamondtriangles.svg	stimuli_target_diamondsquares.svg	32	yes	44	1	712
6.6.1	mac	2022-12-14	20:06:09	20:14:11	480217	6060cc2bf9ba38d90b1a6f12	345146431	1	main_z	11	advance_on_keypress_ZEE	66	stimuli_distractor_diamondtriangles.svg	stimuli_target_diamondsquares.svg	32	yes	57	0	137
6.6.1	mac	2022-12-14	20:06:09	20:14:12	481515	6060cc2bf9ba38d90b1a6f12	345146431	1	main_z	11	main_z	67	stimuli_distractor_trianglediamonds.svg	stimuli_target_diamondcircles.svg	27	yes	44	1	529
6.6.1	mac	2022-12-14	20:06:09	20:14:12	481515	6060cc2bf9ba38d90b1a6f12	345146431	1	main_z	11	advance_on_keypress_ZEE	68	stimuli_distractor_trianglediamonds.svg	stimuli_target_diamondcircles.svg	27	yes	57	0	133
6.6.1	mac	2022-12-14	20:06:09	20:14:13	482828	6060cc2bf9ba38d90b1a6f12	345146431	1	main_z	11	main_z	69	stimuli_distractor_trianglediamonds.svg	stimuli_target_circletriangles.svg	9	yes	44	1	557
6.6.1	mac	2022-12-14	20:06:09	20:14:13	482828	6060cc2bf9ba38d90b1a6f12	345146431	1	main_z	11	advance_on_keypress_ZEE	70	stimuli_distractor_trianglediamonds.svg	stimuli_target_circletriangles.svg	9	yes	57	0	112
6.6.1	mac	2022-12-14	20:06:09	20:14:16	485572	6060cc2bf9ba38d90b1a6f12	345146431	1	main_z	11	main_z	71	stimuli_distractor_diamondtriangles.svg	stimuli_distractor_trianglediamonds.svg	38	no	0	1	2000
6.6.1	mac	2022-12-14	20:06:09	20:14:16	485572	6060cc2bf9ba38d90b1a6f12	345146431	1	main_z	11	advance_on_keypress_ZEE	72	stimuli_distractor_diamondtriangles.svg	stimuli_distractor_trianglediamonds.svg	38	no	57	0	286
6.6.1	mac	2022-12-14	20:06:09	20:14:18	486982	6060cc2bf9ba38d90b1a6f12	345146431	1	main_z	11	main_z	73	stimuli_target_trianglesquares.svg	stimuli_distractor_trianglediamonds.svg	18	yes	44	1	494
6.6.1	mac	2022-12-14	20:06:09	20:14:18	486982	6060cc2bf9ba38d90b1a6f12	345146431	1	main_z	11	advance_on_keypress_ZEE	74	stimuli_target_trianglesquares.svg	stimuli_distractor_trianglediamonds.svg	18	yes	57	0	173
6.6.1	mac	2022-12-14	20:06:09	20:14:19	488484	6060cc2bf9ba38d90b1a6f12	345146431	1	main_z	11	main_z	75	stimuli_distractor_diamondtriangles.svg	stimuli_target_squaretriangles.svg	15	yes	44	1	712
6.6.1	mac	2022-12-14	20:06:09	20:14:19	488484	6060cc2bf9ba38d90b1a6f12	345146431	1	main_z	11	advance_on_keypress_ZEE	76	stimuli_distractor_diamondtriangles.svg	stimuli_target_squaretriangles.svg	15	yes	57	0	108
6.6.1	mac	2022-12-14	20:06:09	20:14:22	491222	6060cc2bf9ba38d90b1a6f12	345146431	1	main_z	11	main_z	77	stimuli_distractor_trianglediamonds.svg	stimuli_distractor_trianglediamonds.svg	33	no	0	1	2000
6.6.1	mac	2022-12-14	20:06:09	20:14:22	491222	6060cc2bf9ba38d90b1a6f12	345146431	1	main_z	11	advance_on_keypress_ZEE	78	stimuli_distractor_trianglediamonds.svg	stimuli_distractor_trianglediamonds.svg	33	no	57	0	314
6.6.1	mac	2022-12-14	20:06:09	20:14:23	492862	6060cc2bf9ba38d90b1a6f12	345146431	1	main_z	11	main_z	79	stimuli_target_circlediamonds.svg	stimuli_distractor_trianglediamonds.svg	2	yes	44	1	691
6.6.1	mac	2022-12-14	20:06:09	20:14:23	492862	6060cc2bf9ba38d90b1a6f12	345146431	1	main_z	11	advance_on_keypress_ZEE	80	stimuli_target_circlediamonds.svg	stimuli_distractor_trianglediamonds.svg	2	yes	57	0	149
6.6.1	mac	2022-12-14	20:06:09	20:14:25	494213	6060cc2bf9ba38d90b1a6f12	345146431	1	main_z	11	main_z	81	stimuli_distractor_trianglediamonds.svg	stimuli_target_circletriangles.svg	9	yes	44	1	576
6.6.1	mac	2022-12-14	20:06:09	20:14:25	494213	6060cc2bf9ba38d90b1a6f12	345146431	1	main_z	11	advance_on_keypress_ZEE	82	stimuli_distractor_trianglediamonds.svg	stimuli_target_circletriangles.svg	9	yes	57	0	127
6.6.1	mac	2022-12-14	20:06:09	20:14:28	496973	6060cc2bf9ba38d90b1a6f12	345146431	1	main_z	11	main_z	83	stimuli_distractor_diamondtriangles.svg	stimuli_distractor_diamondtriangles.svg	40	no	0	1	2000
6.6.1	mac	2022-12-14	20:06:09	20:14:28	496973	6060cc2bf9ba38d90b1a6f12	345146431	1	main_z	11	advance_on_keypress_ZEE	84	stimuli_distractor_diamondtriangles.svg	stimuli_distractor_diamondtriangles.svg	40	no	57	0	138
6.6.1	mac	2022-12-14	20:06:09	20:14:29	498251	6060cc2bf9ba38d90b1a6f12	345146431	1	main_z	11	main_z	85	stimuli_distractor_diamondtriangles.svg	stimuli_target_circlediamonds.svg	14	yes	44	1	514
6.6.1	mac	2022-12-14	20:06:09	20:14:29	498251	6060cc2bf9ba38d90b1a6f12	345146431	1	main_z	11	advance_on_keypress_ZEE	86	stimuli_distractor_diamondtriangles.svg	stimuli_target_circlediamonds.svg	14	yes	57	0	128
6.6.1	mac	2022-12-14	20:06:09	20:14:30	499565	6060cc2bf9ba38d90b1a6f12	345146431	1	main_z	11	main_z	87	stimuli_target_trianglesquares.svg	stimuli_distractor_diamondtriangles.svg	22	yes	44	1	561
6.6.1	mac	2022-12-14	20:06:09	20:14:30	499565	6060cc2bf9ba38d90b1a6f12	345146431	1	main_z	11	advance_on_keypress_ZEE	88	stimuli_target_trianglesquares.svg	stimuli_distractor_diamondtriangles.svg	22	yes	57	0	130
6.6.1	mac	2022-12-14	20:06:09	20:14:31	500885	6060cc2bf9ba38d90b1a6f12	345146431	1	main_z	11	main_z	89	stimuli_distractor_trianglediamonds.svg	stimuli_target_diamondsquares.svg	28	yes	44	1	564
6.6.1	mac	2022-12-14	20:06:09	20:14:31	500885	6060cc2bf9ba38d90b1a6f12	345146431	1	main_z	11	advance_on_keypress_ZEE	90	stimuli_distractor_trianglediamonds.svg	stimuli_target_diamondsquares.svg	28	yes	57	0	166
6.6.1	mac	2022-12-14	20:06:09	20:14:33	502419	6060cc2bf9ba38d90b1a6f12	345146431	1	main_z	11	main_z	91	stimuli_distractor_diamondtriangles.svg	stimuli_target_circletriangles.svg	13	yes	44	1	732
6.6.1	mac	2022-12-14	20:06:09	20:14:33	502419	6060cc2bf9ba38d90b1a6f12	345146431	1	main_z	11	advance_on_keypress_ZEE	92	stimuli_distractor_diamondtriangles.svg	stimuli_target_circletriangles.svg	13	yes	57	0	118
6.6.1	mac	2022-12-14	20:06:09	20:14:34	503819	6060cc2bf9ba38d90b1a6f12	345146431	1	main_z	11	main_z	93	stimuli_distractor_trianglediamonds.svg	stimuli_distractor_diamondtriangles.svg	36	no	44	0	647
6.6.1	mac	2022-12-14	20:06:09	20:14:34	503819	6060cc2bf9ba38d90b1a6f12	345146431	1	main_z	11	advance_on_keypress_ZEE	94	stimuli_distractor_trianglediamonds.svg	stimuli_distractor_diamondtriangles.svg	36	no	57	0	542
6.6.1	mac	2022-12-14	20:06:09	20:14:36	505507	6060cc2bf9ba38d90b1a6f12	345146431	1	main_z	11	main_z	95	stimuli_distractor_diamondtriangles.svg	stimuli_target_diamondcircles.svg	31	yes	44	1	520
6.6.1	mac	2022-12-14	20:06:09	20:14:36	505507	6060cc2bf9ba38d90b1a6f12	345146431	1	main_z	11	advance_on_keypress_ZEE	96	stimuli_distractor_diamondtriangles.svg	stimuli_target_diamondcircles.svg	31	yes	57	0	146
6.6.1	mac	2022-12-14	20:06:09	20:14:39	508289	6060cc2bf9ba38d90b1a6f12	345146431	1	main_z	11	main_z	97	stimuli_distractor_diamondtriangles.svg	stimuli_distractor_trianglediamonds.svg	38	no	0	1	2000
6.6.1	mac	2022-12-14	20:06:09	20:14:39	508289	6060cc2bf9ba38d90b1a6f12	345146431	1	main_z	11	advance_on_keypress_ZEE	98	stimuli_distractor_diamondtriangles.svg	stimuli_distractor_trianglediamonds.svg	38	no	57	0	191
6.6.1	mac	2022-12-14	20:06:09	20:14:42	511106	6060cc2bf9ba38d90b1a6f12	345146431	1	main_z	11	main_z	99	stimuli_distractor_trianglediamonds.svg	stimuli_distractor_diamondtriangles.svg	35	no	0	1	2000
6.6.1	mac	2022-12-14	20:06:09	20:14:42	511106	6060cc2bf9ba38d90b1a6f12	345146431	1	main_z	11	advance_on_keypress_ZEE	100	stimuli_distractor_trianglediamonds.svg	stimuli_distractor_diamondtriangles.svg	35	no	57	0	401
6.6.1	mac	2022-12-14	20:06:09	20:14:44	512976	6060cc2bf9ba38d90b1a6f12	345146431	1	main_z	11	main_z	101	stimuli_distractor_diamondtriangles.svg	stimuli_target_squaretriangles.svg	15	yes	44	1	839
6.6.1	mac	2022-12-14	20:06:09	20:14:44	512976	6060cc2bf9ba38d90b1a6f12	345146431	1	main_z	11	advance_on_keypress_ZEE	102	stimuli_distractor_diamondtriangles.svg	stimuli_target_squaretriangles.svg	15	yes	57	0	137
6.6.1	mac	2022-12-14	20:06:09	20:14:45	514291	6060cc2bf9ba38d90b1a6f12	345146431	1	main_z	11	main_z	103	stimuli_target_diamondsquares.svg	stimuli_distractor_diamondtriangles.svg	24	yes	44	1	554
6.6.1	mac	2022-12-14	20:06:09	20:14:45	514291	6060cc2bf9ba38d90b1a6f12	345146431	1	main_z	11	advance_on_keypress_ZEE	104	stimuli_target_diamondsquares.svg	stimuli_distractor_diamondtriangles.svg	24	yes	57	0	130
6.6.1	mac	2022-12-14	20:06:09	20:14:46	515553	6060cc2bf9ba38d90b1a6f12	345146431	1	main_z	11	main_z	105	stimuli_target_squaretriangles.svg	stimuli_distractor_diamondtriangles.svg	7	yes	44	1	516
6.6.1	mac	2022-12-14	20:06:09	20:14:46	515553	6060cc2bf9ba38d90b1a6f12	345146431	1	main_z	11	advance_on_keypress_ZEE	106	stimuli_target_squaretriangles.svg	stimuli_distractor_diamondtriangles.svg	7	yes	57	0	126
6.6.1	mac	2022-12-14	20:06:09	20:14:47	516848	6060cc2bf9ba38d90b1a6f12	345146431	1	main_z	11	main_z	107	stimuli_target_trianglecircles.svg	stimuli_distractor_diamondtriangles.svg	21	yes	44	1	544
6.6.1	mac	2022-12-14	20:06:09	20:14:47	516848	6060cc2bf9ba38d90b1a6f12	345146431	1	main_z	11	advance_on_keypress_ZEE	108	stimuli_target_trianglecircles.svg	stimuli_distractor_diamondtriangles.svg	21	yes	57	0	133
6.6.1	mac	2022-12-14	20:06:09	20:14:50	519606	6060cc2bf9ba38d90b1a6f12	345146431	1	main_z	11	main_z	109	stimuli_distractor_trianglediamonds.svg	stimuli_distractor_trianglediamonds.svg	34	no	0	1	2000
6.6.1	mac	2022-12-14	20:06:09	20:14:50	519606	6060cc2bf9ba38d90b1a6f12	345146431	1	main_z	11	advance_on_keypress_ZEE	110	stimuli_distractor_trianglediamonds.svg	stimuli_distractor_trianglediamonds.svg	34	no	57	0	331
6.6.1	mac	2022-12-14	20:06:09	20:14:52	521129	6060cc2bf9ba38d90b1a6f12	345146431	1	main_z	11	main_z	111	stimuli_target_squarediamonds.svg	stimuli_distractor_trianglediamonds.svg	4	yes	44	1	558
6.6.1	mac	2022-12-14	20:06:09	20:14:52	521129	6060cc2bf9ba38d90b1a6f12	345146431	1	main_z	11	advance_on_keypress_ZEE	112	stimuli_target_squarediamonds.svg	stimuli_distractor_trianglediamonds.svg	4	yes	57	0	142
6.6.1	mac	2022-12-14	20:06:09	20:14:53	522358	6060cc2bf9ba38d90b1a6f12	345146431	1	main_z	11	main_z	113	stimuli_target_circlediamonds.svg	stimuli_distractor_diamondtriangles.svg	6	yes	44	1	454
6.6.1	mac	2022-12-14	20:06:09	20:14:53	522358	6060cc2bf9ba38d90b1a6f12	345146431	1	main_z	11	advance_on_keypress_ZEE	114	stimuli_target_circlediamonds.svg	stimuli_distractor_diamondtriangles.svg	6	yes	57	0	124
6.6.1	mac	2022-12-14	20:06:09	20:14:54	523557	6060cc2bf9ba38d90b1a6f12	345146431	1	main_z	11	main_z	115	stimuli_target_squaretriangles.svg	stimuli_distractor_trianglediamonds.svg	3	yes	44	1	453
6.6.1	mac	2022-12-14	20:06:09	20:14:54	523557	6060cc2bf9ba38d90b1a6f12	345146431	1	main_z	11	advance_on_keypress_ZEE	116	stimuli_target_squaretriangles.svg	stimuli_distractor_trianglediamonds.svg	3	yes	57	0	138
6.6.1	mac	2022-12-14	20:06:09	20:14:55	524918	6060cc2bf9ba38d90b1a6f12	345146431	1	main_z	11	main_z	117	stimuli_target_trianglesquares.svg	stimuli_distractor_trianglediamonds.svg	18	yes	44	1	596
6.6.1	mac	2022-12-14	20:06:09	20:14:55	524918	6060cc2bf9ba38d90b1a6f12	345146431	1	main_z	11	advance_on_keypress_ZEE	118	stimuli_target_trianglesquares.svg	stimuli_distractor_trianglediamonds.svg	18	yes	57	0	130
6.6.1	mac	2022-12-14	20:06:09	20:14:57	526100	6060cc2bf9ba38d90b1a6f12	345146431	1	main_z	11	main_z	119	stimuli_target_circletriangles.svg	stimuli_distractor_trianglediamonds.svg	1	yes	44	1	429
6.6.1	mac	2022-12-14	20:06:09	20:14:57	526100	6060cc2bf9ba38d90b1a6f12	345146431	1	main_z	11	advance_on_keypress_ZEE	120	stimuli_target_circletriangles.svg	stimuli_distractor_trianglediamonds.svg	1	yes	57	0	135
6.6.1	mac	2022-12-14	20:06:09	20:14:58	527660	6060cc2bf9ba38d90b1a6f12	345146431	1	main_z	11	main_z	121	stimuli_distractor_trianglediamonds.svg	stimuli_target_diamondcircles.svg	27	yes	44	1	789
6.6.1	mac	2022-12-14	20:06:09	20:14:58	527660	6060cc2bf9ba38d90b1a6f12	345146431	1	main_z	11	advance_on_keypress_ZEE	122	stimuli_distractor_trianglediamonds.svg	stimuli_target_diamondcircles.svg	27	yes	57	0	305
6.6.1	mac	2022-12-14	20:06:09	20:15:01	530027	6060cc2bf9ba38d90b1a6f12	345146431	1	main_z	11	main_z	123	stimuli_distractor_diamondtriangles.svg	stimuli_target_trianglecircles.svg	29	yes	44	1	1441
6.6.1	mac	2022-12-14	20:06:09	20:15:01	530027	6060cc2bf9ba38d90b1a6f12	345146431	1	main_z	11	advance_on_keypress_ZEE	124	stimuli_distractor_diamondtriangles.svg	stimuli_target_trianglecircles.svg	29	yes	57	0	286
6.6.1	mac	2022-12-14	20:06:09	20:15:02	531393	6060cc2bf9ba38d90b1a6f12	345146431	1	main_z	11	main_z	125	stimuli_target_circlediamonds.svg	stimuli_distractor_trianglediamonds.svg	2	yes	44	1	456
6.6.1	mac	2022-12-14	20:06:09	20:15:02	531393	6060cc2bf9ba38d90b1a6f12	345146431	1	main_z	11	advance_on_keypress_ZEE	126	stimuli_target_circlediamonds.svg	stimuli_distractor_trianglediamonds.svg	2	yes	57	0	150
6.6.1	mac	2022-12-14	20:06:09	20:15:03	532765	6060cc2bf9ba38d90b1a6f12	345146431	1	main_z	11	main_z	127	stimuli_distractor_trianglediamonds.svg	stimuli_target_squarediamonds.svg	12	yes	44	1	594
6.6.1	mac	2022-12-14	20:06:09	20:15:03	532765	6060cc2bf9ba38d90b1a6f12	345146431	1	main_z	11	advance_on_keypress_ZEE	128	stimuli_distractor_trianglediamonds.svg	stimuli_target_squarediamonds.svg	12	yes	57	0	138
6.6.1	mac	2022-12-14	20:06:09	20:15:05	534034	6060cc2bf9ba38d90b1a6f12	345146431	1	main_z	11	main_z	129	stimuli_target_diamondcircles.svg	stimuli_distractor_trianglediamonds.svg	19	yes	44	1	513
6.6.1	mac	2022-12-14	20:06:09	20:15:05	534034	6060cc2bf9ba38d90b1a6f12	345146431	1	main_z	11	advance_on_keypress_ZEE	130	stimuli_target_diamondcircles.svg	stimuli_distractor_trianglediamonds.svg	19	yes	57	0	152
6.6.1	mac	2022-12-14	20:06:09	20:15:06	535368	6060cc2bf9ba38d90b1a6f12	345146431	1	main_z	11	main_z	131	stimuli_distractor_trianglediamonds.svg	stimuli_target_trianglecircles.svg	25	yes	44	1	547
6.6.1	mac	2022-12-14	20:06:09	20:15:06	535368	6060cc2bf9ba38d90b1a6f12	345146431	1	main_z	11	advance_on_keypress_ZEE	132	stimuli_distractor_trianglediamonds.svg	stimuli_target_trianglecircles.svg	25	yes	57	0	121
6.6.1	mac	2022-12-14	20:06:09	20:15:07	536559	6060cc2bf9ba38d90b1a6f12	345146431	1	main_z	11	main_z	133	stimuli_target_trianglecircles.svg	stimuli_distractor_trianglediamonds.svg	17	yes	44	1	439
6.6.1	mac	2022-12-14	20:06:09	20:15:07	536559	6060cc2bf9ba38d90b1a6f12	345146431	1	main_z	11	advance_on_keypress_ZEE	134	stimuli_target_trianglecircles.svg	stimuli_distractor_trianglediamonds.svg	17	yes	57	0	148
6.6.1	mac	2022-12-14	20:06:09	20:15:08	537823	6060cc2bf9ba38d90b1a6f12	345146431	1	main_z	11	main_z	135	stimuli_distractor_trianglediamonds.svg	stimuli_target_circlediamonds.svg	10	yes	44	1	486
6.6.1	mac	2022-12-14	20:06:09	20:15:08	537823	6060cc2bf9ba38d90b1a6f12	345146431	1	main_z	11	advance_on_keypress_ZEE	136	stimuli_distractor_trianglediamonds.svg	stimuli_target_circlediamonds.svg	10	yes	57	0	138
6.6.1	mac	2022-12-14	20:06:09	20:15:11	540589	6060cc2bf9ba38d90b1a6f12	345146431	1	main_z	11	main_z	137	stimuli_distractor_diamondtriangles.svg	stimuli_distractor_trianglediamonds.svg	37	no	0	1	2000
6.6.1	mac	2022-12-14	20:06:09	20:15:11	540589	6060cc2bf9ba38d90b1a6f12	345146431	1	main_z	11	advance_on_keypress_ZEE	138	stimuli_distractor_diamondtriangles.svg	stimuli_distractor_trianglediamonds.svg	37	no	57	0	299
6.6.1	mac	2022-12-14	20:06:09	20:15:13	542273	6060cc2bf9ba38d90b1a6f12	345146431	1	main_z	11	main_z	139	stimuli_distractor_diamondtriangles.svg	stimuli_target_diamondsquares.svg	32	yes	44	1	752
6.6.1	mac	2022-12-14	20:06:09	20:15:13	542273	6060cc2bf9ba38d90b1a6f12	345146431	1	main_z	11	advance_on_keypress_ZEE	140	stimuli_distractor_diamondtriangles.svg	stimuli_target_diamondsquares.svg	32	yes	57	0	159
6.6.1	mac	2022-12-14	20:06:09	20:15:14	543498	6060cc2bf9ba38d90b1a6f12	345146431	1	main_z	11	main_z	141	stimuli_target_diamondsquares.svg	stimuli_distractor_trianglediamonds.svg	20	yes	44	1	444
6.6.1	mac	2022-12-14	20:06:09	20:15:14	543498	6060cc2bf9ba38d90b1a6f12	345146431	1	main_z	11	advance_on_keypress_ZEE	142	stimuli_target_diamondsquares.svg	stimuli_distractor_trianglediamonds.svg	20	yes	57	0	152
6.6.1	mac	2022-12-14	20:06:09	20:15:17	546289	6060cc2bf9ba38d90b1a6f12	345146431	1	main_z	11	main_z	143	stimuli_distractor_trianglediamonds.svg	stimuli_distractor_trianglediamonds.svg	33	no	0	1	2000
6.6.1	mac	2022-12-14	20:06:09	20:15:17	546289	6060cc2bf9ba38d90b1a6f12	345146431	1	main_z	11	advance_on_keypress_ZEE	144	stimuli_distractor_trianglediamonds.svg	stimuli_distractor_trianglediamonds.svg	33	no	57	0	301
6.6.1	mac	2022-12-14	20:06:09	20:15:18	547787	6060cc2bf9ba38d90b1a6f12	345146431	1	main_z	11	main_z	145	stimuli_distractor_diamondtriangles.svg	stimuli_target_trianglesquares.svg	30	yes	44	1	566
6.6.1	mac	2022-12-14	20:06:09	20:15:18	547787	6060cc2bf9ba38d90b1a6f12	345146431	1	main_z	11	advance_on_keypress_ZEE	146	stimuli_distractor_diamondtriangles.svg	stimuli_target_trianglesquares.svg	30	yes	57	0	225
6.6.1	mac	2022-12-14	20:06:09	20:15:20	549295	6060cc2bf9ba38d90b1a6f12	345146431	1	main_z	11	main_z	147	stimuli_distractor_diamondtriangles.svg	stimuli_target_squarediamonds.svg	16	yes	44	1	657
6.6.1	mac	2022-12-14	20:06:09	20:15:20	549295	6060cc2bf9ba38d90b1a6f12	345146431	1	main_z	11	advance_on_keypress_ZEE	148	stimuli_distractor_diamondtriangles.svg	stimuli_target_squarediamonds.svg	16	yes	57	0	170
6.6.1	mac	2022-12-14	20:06:09	20:15:23	552089	6060cc2bf9ba38d90b1a6f12	345146431	1	main_z	11	main_z	149	stimuli_distractor_diamondtriangles.svg	stimuli_distractor_diamondtriangles.svg	39	no	0	1	2000
6.6.1	mac	2022-12-14	20:06:09	20:15:23	552089	6060cc2bf9ba38d90b1a6f12	345146431	1	main_z	11	advance_on_keypress_ZEE	150	stimuli_distractor_diamondtriangles.svg	stimuli_distractor_diamondtriangles.svg	39	no	57	0	291
6.6.1	mac	2022-12-14	20:06:09	20:15:24	553491	6060cc2bf9ba38d90b1a6f12	345146431	1	main_z	11	main_z	151	stimuli_target_diamondcircles.svg	stimuli_distractor_diamondtriangles.svg	23	yes	44	1	487
6.6.1	mac	2022-12-14	20:06:09	20:15:24	553491	6060cc2bf9ba38d90b1a6f12	345146431	1	main_z	11	advance_on_keypress_ZEE	152	stimuli_target_diamondcircles.svg	stimuli_distractor_diamondtriangles.svg	23	yes	57	0	175
6.6.1	mac	2022-12-14	20:06:09	20:15:25	554865	6060cc2bf9ba38d90b1a6f12	345146431	1	main_z	11	main_z	153	stimuli_distractor_trianglediamonds.svg	stimuli_target_trianglesquares.svg	26	yes	44	1	578
6.6.1	mac	2022-12-14	20:06:09	20:15:25	554865	6060cc2bf9ba38d90b1a6f12	345146431	1	main_z	11	advance_on_keypress_ZEE	154	stimuli_distractor_trianglediamonds.svg	stimuli_target_trianglesquares.svg	26	yes	57	0	140
6.6.1	mac	2022-12-14	20:06:09	20:15:27	556167	6060cc2bf9ba38d90b1a6f12	345146431	1	main_z	11	main_z	155	stimuli_distractor_trianglediamonds.svg	stimuli_target_squaretriangles.svg	11	yes	44	1	531
6.6.1	mac	2022-12-14	20:06:09	20:15:27	556167	6060cc2bf9ba38d90b1a6f12	345146431	1	main_z	11	advance_on_keypress_ZEE	156	stimuli_distractor_trianglediamonds.svg	stimuli_target_squaretriangles.svg	11	yes	57	0	125
6.6.1	mac	2022-12-14	20:06:09	20:15:28	557383	6060cc2bf9ba38d90b1a6f12	345146431	1	main_z	11	main_z	157	stimuli_target_squarediamonds.svg	stimuli_distractor_diamondtriangles.svg	8	yes	44	1	462
6.6.1	mac	2022-12-14	20:06:09	20:15:28	557383	6060cc2bf9ba38d90b1a6f12	345146431	1	main_z	11	advance_on_keypress_ZEE	158	stimuli_target_squarediamonds.svg	stimuli_distractor_diamondtriangles.svg	8	yes	57	0	128
6.6.1	mac	2022-12-14	20:06:09	20:15:31	560139	6060cc2bf9ba38d90b1a6f12	345146431	1	main_z	11	main_z	159	stimuli_target_circletriangles.svg	stimuli_distractor_diamondtriangles.svg	5	yes	0	0	2000
6.6.1	mac	2022-12-14	20:06:09	20:15:31	560139	6060cc2bf9ba38d90b1a6f12	345146431	1	main_z	11	advance_on_keypress_ZEE	160	stimuli_target_circletriangles.svg	stimuli_distractor_diamondtriangles.svg	5	yes	57	0	291