build	computer.platform	date	time	timestamp	time_elapsed_ms	subject	group	session	blockcode	blocknum	trialcode	trialnum	stimulus_left	stimulus_right	stim_index	target_present	response	correct	latency
6.6.1	mac	2022-12-24	19:05:06	19:07:04	117284	5dc87423f9d4a05edf6fa10d	711986623	1	practice_slash	5	practice_slash	1	stimuli_distractor_trianglediamonds.svg	stimuli_distractor_trianglediamonds.svg	15	no	0	1	2000
6.6.1	mac	2022-12-24	19:05:06	19:07:04	117284	5dc87423f9d4a05edf6fa10d	711986623	1	practice_slash	5	advance_on_keypress_SLASH	2	stimuli_distractor_trianglediamonds.svg	stimuli_distractor_trianglediamonds.svg	15	no	57	0	2213
6.6.1	mac	2022-12-24	19:05:06	19:07:10	122317	5dc87423f9d4a05edf6fa10d	711986623	1	practice_slash	5	practice_slash	3	stimuli_distractor_diamondtriangles.svg	stimuli_target_circletriangles.svg	7	yes	53	1	1186
6.6.1	mac	2022-12-24	19:05:06	19:07:10	122317	5dc87423f9d4a05edf6fa10d	711986623	1	practice_slash	5	advance_on_keypress_SLASH	4	stimuli_distractor_diamondtriangles.svg	stimuli_target_circletriangles.svg	7	yes	57	0	575
6.6.1	mac	2022-12-24	19:05:06	19:07:12	125043	5dc87423f9d4a05edf6fa10d	711986623	1	practice_slash	5	practice_slash	5	stimuli_target_squarediamonds.svg	stimuli_distractor_diamondtriangles.svg	2	yes	53	1	530
6.6.1	mac	2022-12-24	19:05:06	19:07:12	125043	5dc87423f9d4a05edf6fa10d	711986623	1	practice_slash	5	advance_on_keypress_SLASH	6	stimuli_target_squarediamonds.svg	stimuli_distractor_diamondtriangles.svg	2	yes	57	0	775
6.6.1	mac	2022-12-24	19:05:06	19:07:15	128213	5dc87423f9d4a05edf6fa10d	711986623	1	practice_slash	5	practice_slash	7	stimuli_distractor_diamondtriangles.svg	stimuli_target_trianglecircles.svg	9	yes	53	1	781
6.6.1	mac	2022-12-24	19:05:06	19:07:15	128213	5dc87423f9d4a05edf6fa10d	711986623	1	practice_slash	5	advance_on_keypress_SLASH	8	stimuli_distractor_diamondtriangles.svg	stimuli_target_trianglecircles.svg	9	yes	57	0	569
6.6.1	mac	2022-12-24	19:05:06	19:07:20	132416	5dc87423f9d4a05edf6fa10d	711986623	1	practice_slash	5	practice_slash	9	stimuli_distractor_diamondtriangles.svg	stimuli_distractor_diamondtriangles.svg	13	no	0	1	2000
6.6.1	mac	2022-12-24	19:05:06	19:07:20	132416	5dc87423f9d4a05edf6fa10d	711986623	1	practice_slash	5	advance_on_keypress_SLASH	10	stimuli_distractor_diamondtriangles.svg	stimuli_distractor_diamondtriangles.svg	13	no	57	0	572
6.6.1	mac	2022-12-24	19:05:06	19:07:22	135089	5dc87423f9d4a05edf6fa10d	711986623	1	practice_slash	5	practice_slash	11	stimuli_target_circlediamonds.svg	stimuli_distractor_diamondtriangles.svg	1	yes	53	1	475
6.6.1	mac	2022-12-24	19:05:06	19:07:22	135089	5dc87423f9d4a05edf6fa10d	711986623	1	practice_slash	5	advance_on_keypress_SLASH	12	stimuli_target_circlediamonds.svg	stimuli_distractor_diamondtriangles.svg	1	yes	57	0	449
6.6.1	mac	2022-12-24	19:05:06	19:07:26	139165	5dc87423f9d4a05edf6fa10d	711986623	1	practice_slash	5	practice_slash	13	stimuli_target_diamondsquares.svg	stimuli_distractor_diamondtriangles.svg	3	yes	0	0	2000
6.6.1	mac	2022-12-24	19:05:06	19:07:26	139165	5dc87423f9d4a05edf6fa10d	711986623	1	practice_slash	5	advance_on_keypress_SLASH	14	stimuli_target_diamondsquares.svg	stimuli_distractor_diamondtriangles.svg	3	yes	57	0	464
6.6.1	mac	2022-12-24	19:05:06	19:07:30	142464	5dc87423f9d4a05edf6fa10d	711986623	1	practice_slash	5	practice_slash	15	stimuli_distractor_diamondtriangles.svg	stimuli_target_diamondcircles.svg	8	yes	53	1	1200
6.6.1	mac	2022-12-24	19:05:06	19:07:30	142464	5dc87423f9d4a05edf6fa10d	711986623	1	practice_slash	5	advance_on_keypress_SLASH	16	stimuli_distractor_diamondtriangles.svg	stimuli_target_diamondcircles.svg	8	yes	57	0	680
6.6.1	mac	2022-12-24	19:05:06	19:07:34	146374	5dc87423f9d4a05edf6fa10d	711986623	1	practice_slash	5	practice_slash	17	stimuli_target_diamondsquares.svg	stimuli_distractor_trianglediamonds.svg	6	yes	53	1	1591
6.6.1	mac	2022-12-24	19:05:06	19:07:34	146374	5dc87423f9d4a05edf6fa10d	711986623	1	practice_slash	5	advance_on_keypress_SLASH	18	stimuli_target_diamondsquares.svg	stimuli_distractor_trianglediamonds.svg	6	yes	57	0	15714
6.6.1	mac	2022-12-24	19:05:06	19:07:51	164163	5dc87423f9d4a05edf6fa10d	711986623	1	practice_slash	5	practice_slash	19	stimuli_target_squarediamonds.svg	stimuli_distractor_trianglediamonds.svg	5	yes	53	1	449
6.6.1	mac	2022-12-24	19:05:06	19:07:51	164163	5dc87423f9d4a05edf6fa10d	711986623	1	practice_slash	5	advance_on_keypress_SLASH	20	stimuli_target_squarediamonds.svg	stimuli_distractor_trianglediamonds.svg	5	yes	57	0	967
6.6.1	mac	2022-12-24	19:05:06	19:07:56	168765	5dc87423f9d4a05edf6fa10d	711986623	1	practice_slash	5	practice_slash	21	stimuli_distractor_diamondtriangles.svg	stimuli_distractor_trianglediamonds.svg	14	no	0	1	2000
6.6.1	mac	2022-12-24	19:05:06	19:07:56	168765	5dc87423f9d4a05edf6fa10d	711986623	1	practice_slash	5	advance_on_keypress_SLASH	22	stimuli_distractor_diamondtriangles.svg	stimuli_distractor_trianglediamonds.svg	14	no	57	0	723
6.6.1	mac	2022-12-24	19:05:06	19:07:59	171934	5dc87423f9d4a05edf6fa10d	711986623	1	practice_slash	5	practice_slash	23	stimuli_distractor_trianglediamonds.svg	stimuli_target_diamondcircles.svg	12	yes	53	1	819
6.6.1	mac	2022-12-24	19:05:06	19:07:59	171934	5dc87423f9d4a05edf6fa10d	711986623	1	practice_slash	5	advance_on_keypress_SLASH	24	stimuli_distractor_trianglediamonds.svg	stimuli_target_diamondcircles.svg	12	yes	57	0	840
6.6.1	mac	2022-12-24	19:05:06	19:08:02	175077	5dc87423f9d4a05edf6fa10d	711986623	1	practice_slash	5	practice_slash	25	stimuli_distractor_trianglediamonds.svg	stimuli_target_squarediamonds.svg	11	yes	53	1	679
6.6.1	mac	2022-12-24	19:05:06	19:08:02	175077	5dc87423f9d4a05edf6fa10d	711986623	1	practice_slash	5	advance_on_keypress_SLASH	26	stimuli_distractor_trianglediamonds.svg	stimuli_target_squarediamonds.svg	11	yes	57	0	5747
6.6.1	mac	2022-12-24	19:05:06	19:08:10	182824	5dc87423f9d4a05edf6fa10d	711986623	1	practice_slash	5	practice_slash	27	stimuli_distractor_trianglediamonds.svg	stimuli_target_circlediamonds.svg	10	yes	53	1	377
6.6.1	mac	2022-12-24	19:05:06	19:08:10	182824	5dc87423f9d4a05edf6fa10d	711986623	1	practice_slash	5	advance_on_keypress_SLASH	28	stimuli_distractor_trianglediamonds.svg	stimuli_target_circlediamonds.svg	10	yes	57	0	788
6.6.1	mac	2022-12-24	19:05:06	19:08:13	185792	5dc87423f9d4a05edf6fa10d	711986623	1	practice_slash	5	practice_slash	29	stimuli_target_circlediamonds.svg	stimuli_distractor_trianglediamonds.svg	4	yes	53	1	562
6.6.1	mac	2022-12-24	19:05:06	19:08:13	185792	5dc87423f9d4a05edf6fa10d	711986623	1	practice_slash	5	advance_on_keypress_SLASH	30	stimuli_target_circlediamonds.svg	stimuli_distractor_trianglediamonds.svg	4	yes	57	0	541
6.6.1	mac	2022-12-24	19:05:06	19:08:17	189950	5dc87423f9d4a05edf6fa10d	711986623	1	practice_slash	5	practice_slash	31	stimuli_distractor_trianglediamonds.svg	stimuli_distractor_diamondtriangles.svg	16	no	0	1	2000
6.6.1	mac	2022-12-24	19:05:06	19:08:17	189950	5dc87423f9d4a05edf6fa10d	711986623	1	practice_slash	5	advance_on_keypress_SLASH	32	stimuli_distractor_trianglediamonds.svg	stimuli_distractor_diamondtriangles.svg	16	no	57	0	623
6.6.1	mac	2022-12-24	19:05:06	19:08:26	198654	5dc87423f9d4a05edf6fa10d	711986623	1	main_slash	7	main_slash	1	stimuli_distractor_diamondtriangles.svg	stimuli_target_diamondcircles.svg	31	yes	53	1	623
6.6.1	mac	2022-12-24	19:05:06	19:08:26	198654	5dc87423f9d4a05edf6fa10d	711986623	1	main_slash	7	advance_on_keypress_SLASH	2	stimuli_distractor_diamondtriangles.svg	stimuli_target_diamondcircles.svg	31	yes	57	0	825
6.6.1	mac	2022-12-24	19:05:06	19:08:28	200699	5dc87423f9d4a05edf6fa10d	711986623	1	main_slash	7	main_slash	3	stimuli_target_diamondcircles.svg	stimuli_distractor_diamondtriangles.svg	23	yes	53	1	602
6.6.1	mac	2022-12-24	19:05:06	19:08:28	200699	5dc87423f9d4a05edf6fa10d	711986623	1	main_slash	7	advance_on_keypress_SLASH	4	stimuli_target_diamondcircles.svg	stimuli_distractor_diamondtriangles.svg	23	yes	57	0	568
6.6.1	mac	2022-12-24	19:05:06	19:08:31	203900	5dc87423f9d4a05edf6fa10d	711986623	1	main_slash	7	main_slash	5	stimuli_distractor_trianglediamonds.svg	stimuli_distractor_trianglediamonds.svg	33	no	0	1	2000
6.6.1	mac	2022-12-24	19:05:06	19:08:31	203900	5dc87423f9d4a05edf6fa10d	711986623	1	main_slash	7	advance_on_keypress_SLASH	6	stimuli_distractor_trianglediamonds.svg	stimuli_distractor_trianglediamonds.svg	33	no	57	0	471
6.6.1	mac	2022-12-24	19:05:06	19:08:33	205388	5dc87423f9d4a05edf6fa10d	711986623	1	main_slash	7	main_slash	7	stimuli_target_trianglecircles.svg	stimuli_distractor_diamondtriangles.svg	21	yes	53	1	391
6.6.1	mac	2022-12-24	19:05:06	19:08:33	205388	5dc87423f9d4a05edf6fa10d	711986623	1	main_slash	7	advance_on_keypress_SLASH	8	stimuli_target_trianglecircles.svg	stimuli_distractor_diamondtriangles.svg	21	yes	57	0	414
6.6.1	mac	2022-12-24	19:05:06	19:08:34	207157	5dc87423f9d4a05edf6fa10d	711986623	1	main_slash	7	main_slash	9	stimuli_distractor_diamondtriangles.svg	stimuli_target_squaretriangles.svg	15	yes	53	1	727
6.6.1	mac	2022-12-24	19:05:06	19:08:34	207157	5dc87423f9d4a05edf6fa10d	711986623	1	main_slash	7	advance_on_keypress_SLASH	10	stimuli_distractor_diamondtriangles.svg	stimuli_target_squaretriangles.svg	15	yes	57	0	461
6.6.1	mac	2022-12-24	19:05:06	19:08:37	210232	5dc87423f9d4a05edf6fa10d	711986623	1	main_slash	7	main_slash	11	stimuli_target_trianglesquares.svg	stimuli_distractor_diamondtriangles.svg	22	yes	0	0	2000
6.6.1	mac	2022-12-24	19:05:06	19:08:37	210232	5dc87423f9d4a05edf6fa10d	711986623	1	main_slash	7	advance_on_keypress_SLASH	12	stimuli_target_trianglesquares.svg	stimuli_distractor_diamondtriangles.svg	22	yes	57	0	386
6.6.1	mac	2022-12-24	19:05:06	19:08:39	211720	5dc87423f9d4a05edf6fa10d	711986623	1	main_slash	7	main_slash	13	stimuli_distractor_trianglediamonds.svg	stimuli_target_trianglecircles.svg	25	yes	53	1	473
6.6.1	mac	2022-12-24	19:05:06	19:08:39	211720	5dc87423f9d4a05edf6fa10d	711986623	1	main_slash	7	advance_on_keypress_SLASH	14	stimuli_distractor_trianglediamonds.svg	stimuli_target_trianglecircles.svg	25	yes	57	0	495
6.6.1	mac	2022-12-24	19:05:06	19:08:41	213354	5dc87423f9d4a05edf6fa10d	711986623	1	main_slash	7	main_slash	15	stimuli_distractor_trianglediamonds.svg	stimuli_distractor_diamondtriangles.svg	35	no	53	0	524
6.6.1	mac	2022-12-24	19:05:06	19:08:41	213354	5dc87423f9d4a05edf6fa10d	711986623	1	main_slash	7	advance_on_keypress_SLASH	16	stimuli_distractor_trianglediamonds.svg	stimuli_distractor_diamondtriangles.svg	35	no	57	0	339
6.6.1	mac	2022-12-24	19:05:06	19:08:42	215100	5dc87423f9d4a05edf6fa10d	711986623	1	main_slash	7	main_slash	17	stimuli_target_squaretriangles.svg	stimuli_distractor_trianglediamonds.svg	3	yes	53	1	786
6.6.1	mac	2022-12-24	19:05:06	19:08:42	215100	5dc87423f9d4a05edf6fa10d	711986623	1	main_slash	7	advance_on_keypress_SLASH	18	stimuli_target_squaretriangles.svg	stimuli_distractor_trianglediamonds.svg	3	yes	57	0	426
6.6.1	mac	2022-12-24	19:05:06	19:08:45	218150	5dc87423f9d4a05edf6fa10d	711986623	1	main_slash	7	main_slash	19	stimuli_distractor_trianglediamonds.svg	stimuli_distractor_trianglediamonds.svg	34	no	0	1	2000
6.6.1	mac	2022-12-24	19:05:06	19:08:45	218150	5dc87423f9d4a05edf6fa10d	711986623	1	main_slash	7	advance_on_keypress_SLASH	20	stimuli_distractor_trianglediamonds.svg	stimuli_distractor_trianglediamonds.svg	34	no	57	0	293
6.6.1	mac	2022-12-24	19:05:06	19:08:47	219728	5dc87423f9d4a05edf6fa10d	711986623	1	main_slash	7	main_slash	21	stimuli_target_trianglesquares.svg	stimuli_distractor_trianglediamonds.svg	18	yes	53	1	664
6.6.1	mac	2022-12-24	19:05:06	19:08:47	219728	5dc87423f9d4a05edf6fa10d	711986623	1	main_slash	7	advance_on_keypress_SLASH	22	stimuli_target_trianglesquares.svg	stimuli_distractor_trianglediamonds.svg	18	yes	57	0	386
6.6.1	mac	2022-12-24	19:05:06	19:08:50	222749	5dc87423f9d4a05edf6fa10d	711986623	1	main_slash	7	main_slash	23	stimuli_distractor_diamondtriangles.svg	stimuli_distractor_diamondtriangles.svg	39	no	0	1	2000
6.6.1	mac	2022-12-24	19:05:06	19:08:50	222749	5dc87423f9d4a05edf6fa10d	711986623	1	main_slash	7	advance_on_keypress_SLASH	24	stimuli_distractor_diamondtriangles.svg	stimuli_distractor_diamondtriangles.svg	39	no	57	0	308
6.6.1	mac	2022-12-24	19:05:06	19:08:53	225684	5dc87423f9d4a05edf6fa10d	711986623	1	main_slash	7	main_slash	25	stimuli_distractor_diamondtriangles.svg	stimuli_distractor_trianglediamonds.svg	38	no	0	1	2000
6.6.1	mac	2022-12-24	19:05:06	19:08:53	225684	5dc87423f9d4a05edf6fa10d	711986623	1	main_slash	7	advance_on_keypress_SLASH	26	stimuli_distractor_diamondtriangles.svg	stimuli_distractor_trianglediamonds.svg	38	no	57	0	510
6.6.1	mac	2022-12-24	19:05:06	19:08:54	227192	5dc87423f9d4a05edf6fa10d	711986623	1	main_slash	7	main_slash	27	stimuli_target_squarediamonds.svg	stimuli_distractor_diamondtriangles.svg	8	yes	53	1	378
6.6.1	mac	2022-12-24	19:05:06	19:08:54	227192	5dc87423f9d4a05edf6fa10d	711986623	1	main_slash	7	advance_on_keypress_SLASH	28	stimuli_target_squarediamonds.svg	stimuli_distractor_diamondtriangles.svg	8	yes	57	0	299
6.6.1	mac	2022-12-24	19:05:06	19:08:56	228579	5dc87423f9d4a05edf6fa10d	711986623	1	main_slash	7	main_slash	29	stimuli_distractor_trianglediamonds.svg	stimuli_target_circlediamonds.svg	10	yes	53	1	465
6.6.1	mac	2022-12-24	19:05:06	19:08:56	228579	5dc87423f9d4a05edf6fa10d	711986623	1	main_slash	7	advance_on_keypress_SLASH	30	stimuli_distractor_trianglediamonds.svg	stimuli_target_circlediamonds.svg	10	yes	57	0	277
6.6.1	mac	2022-12-24	19:05:06	19:08:57	229946	5dc87423f9d4a05edf6fa10d	711986623	1	main_slash	7	main_slash	31	stimuli_target_circletriangles.svg	stimuli_distractor_diamondtriangles.svg	5	yes	53	1	465
6.6.1	mac	2022-12-24	19:05:06	19:08:57	229946	5dc87423f9d4a05edf6fa10d	711986623	1	main_slash	7	advance_on_keypress_SLASH	32	stimuli_target_circletriangles.svg	stimuli_distractor_diamondtriangles.svg	5	yes	57	0	252
6.6.1	mac	2022-12-24	19:05:06	19:09:00	232834	5dc87423f9d4a05edf6fa10d	711986623	1	main_slash	7	main_slash	33	stimuli_distractor_diamondtriangles.svg	stimuli_distractor_diamondtriangles.svg	40	no	0	1	2000
6.6.1	mac	2022-12-24	19:05:06	19:09:00	232834	5dc87423f9d4a05edf6fa10d	711986623	1	main_slash	7	advance_on_keypress_SLASH	34	stimuli_distractor_diamondtriangles.svg	stimuli_distractor_diamondtriangles.svg	40	no	57	0	281
6.6.1	mac	2022-12-24	19:05:06	19:09:01	234170	5dc87423f9d4a05edf6fa10d	711986623	1	main_slash	7	main_slash	35	stimuli_target_squarediamonds.svg	stimuli_distractor_trianglediamonds.svg	4	yes	53	1	423
6.6.1	mac	2022-12-24	19:05:06	19:09:01	234170	5dc87423f9d4a05edf6fa10d	711986623	1	main_slash	7	advance_on_keypress_SLASH	36	stimuli_target_squarediamonds.svg	stimuli_distractor_trianglediamonds.svg	4	yes	57	0	410
6.6.1	mac	2022-12-24	19:05:06	19:09:03	235667	5dc87423f9d4a05edf6fa10d	711986623	1	main_slash	7	main_slash	37	stimuli_target_circlediamonds.svg	stimuli_distractor_trianglediamonds.svg	2	yes	53	1	471
6.6.1	mac	2022-12-24	19:05:06	19:09:03	235667	5dc87423f9d4a05edf6fa10d	711986623	1	main_slash	7	advance_on_keypress_SLASH	38	stimuli_target_circlediamonds.svg	stimuli_distractor_trianglediamonds.svg	2	yes	57	0	302
6.6.1	mac	2022-12-24	19:05:06	19:09:04	237208	5dc87423f9d4a05edf6fa10d	711986623	1	main_slash	7	main_slash	39	stimuli_distractor_diamondtriangles.svg	stimuli_target_trianglecircles.svg	29	yes	53	1	611
6.6.1	mac	2022-12-24	19:05:06	19:09:04	237208	5dc87423f9d4a05edf6fa10d	711986623	1	main_slash	7	advance_on_keypress_SLASH	40	stimuli_distractor_diamondtriangles.svg	stimuli_target_trianglecircles.svg	29	yes	57	0	244
6.6.1	mac	2022-12-24	19:05:06	19:09:07	240066	5dc87423f9d4a05edf6fa10d	711986623	1	main_slash	7	main_slash	41	stimuli_distractor_trianglediamonds.svg	stimuli_target_diamondsquares.svg	28	yes	0	0	2000
6.6.1	mac	2022-12-24	19:05:06	19:09:07	240066	5dc87423f9d4a05edf6fa10d	711986623	1	main_slash	7	advance_on_keypress_SLASH	42	stimuli_distractor_trianglediamonds.svg	stimuli_target_diamondsquares.svg	28	yes	57	0	325
6.6.1	mac	2022-12-24	19:05:06	19:09:09	241552	5dc87423f9d4a05edf6fa10d	711986623	1	main_slash	7	main_slash	43	stimuli_target_diamondcircles.svg	stimuli_distractor_trianglediamonds.svg	19	yes	53	1	538
6.6.1	mac	2022-12-24	19:05:06	19:09:09	241552	5dc87423f9d4a05edf6fa10d	711986623	1	main_slash	7	advance_on_keypress_SLASH	44	stimuli_target_diamondcircles.svg	stimuli_distractor_trianglediamonds.svg	19	yes	57	0	353
6.6.1	mac	2022-12-24	19:05:06	19:09:11	243571	5dc87423f9d4a05edf6fa10d	711986623	1	main_slash	7	main_slash	45	stimuli_distractor_diamondtriangles.svg	stimuli_target_diamondsquares.svg	32	yes	53	1	1040
6.6.1	mac	2022-12-24	19:05:06	19:09:11	243571	5dc87423f9d4a05edf6fa10d	711986623	1	main_slash	7	advance_on_keypress_SLASH	46	stimuli_distractor_diamondtriangles.svg	stimuli_target_diamondsquares.svg	32	yes	57	0	228
6.6.1	mac	2022-12-24	19:05:06	19:09:12	244817	5dc87423f9d4a05edf6fa10d	711986623	1	main_slash	7	main_slash	47	stimuli_distractor_trianglediamonds.svg	stimuli_target_squarediamonds.svg	12	yes	53	1	403
6.6.1	mac	2022-12-24	19:05:06	19:09:12	244817	5dc87423f9d4a05edf6fa10d	711986623	1	main_slash	7	advance_on_keypress_SLASH	48	stimuli_distractor_trianglediamonds.svg	stimuli_target_squarediamonds.svg	12	yes	57	0	260
6.6.1	mac	2022-12-24	19:05:06	19:09:14	246307	5dc87423f9d4a05edf6fa10d	711986623	1	main_slash	7	main_slash	49	stimuli_distractor_diamondtriangles.svg	stimuli_target_squarediamonds.svg	16	yes	53	1	611
6.6.1	mac	2022-12-24	19:05:06	19:09:14	246307	5dc87423f9d4a05edf6fa10d	711986623	1	main_slash	7	advance_on_keypress_SLASH	50	stimuli_distractor_diamondtriangles.svg	stimuli_target_squarediamonds.svg	16	yes	57	0	248
6.6.1	mac	2022-12-24	19:05:06	19:09:15	247608	5dc87423f9d4a05edf6fa10d	711986623	1	main_slash	7	main_slash	51	stimuli_distractor_diamondtriangles.svg	stimuli_target_circletriangles.svg	13	yes	53	1	427
6.6.1	mac	2022-12-24	19:05:06	19:09:15	247608	5dc87423f9d4a05edf6fa10d	711986623	1	main_slash	7	advance_on_keypress_SLASH	52	stimuli_distractor_diamondtriangles.svg	stimuli_target_circletriangles.svg	13	yes	57	0	256
6.6.1	mac	2022-12-24	19:05:06	19:09:16	248940	5dc87423f9d4a05edf6fa10d	711986623	1	main_slash	7	main_slash	53	stimuli_target_circlediamonds.svg	stimuli_distractor_diamondtriangles.svg	6	yes	53	1	459
6.6.1	mac	2022-12-24	19:05:06	19:09:16	248940	5dc87423f9d4a05edf6fa10d	711986623	1	main_slash	7	advance_on_keypress_SLASH	54	stimuli_target_circlediamonds.svg	stimuli_distractor_diamondtriangles.svg	6	yes	57	0	265
6.6.1	mac	2022-12-24	19:05:06	19:09:18	250319	5dc87423f9d4a05edf6fa10d	711986623	1	main_slash	7	main_slash	55	stimuli_target_circletriangles.svg	stimuli_distractor_trianglediamonds.svg	1	yes	53	1	489
6.6.1	mac	2022-12-24	19:05:06	19:09:18	250319	5dc87423f9d4a05edf6fa10d	711986623	1	main_slash	7	advance_on_keypress_SLASH	56	stimuli_target_circletriangles.svg	stimuli_distractor_trianglediamonds.svg	1	yes	57	0	680
6.6.1	mac	2022-12-24	19:05:06	19:09:19	252059	5dc87423f9d4a05edf6fa10d	711986623	1	main_slash	7	main_slash	57	stimuli_distractor_diamondtriangles.svg	stimuli_target_circlediamonds.svg	14	yes	53	1	444
6.6.1	mac	2022-12-24	19:05:06	19:09:19	252059	5dc87423f9d4a05edf6fa10d	711986623	1	main_slash	7	advance_on_keypress_SLASH	58	stimuli_distractor_diamondtriangles.svg	stimuli_target_circlediamonds.svg	14	yes	57	0	331
6.6.1	mac	2022-12-24	19:05:06	19:09:21	253541	5dc87423f9d4a05edf6fa10d	711986623	1	main_slash	7	main_slash	59	stimuli_target_trianglecircles.svg	stimuli_distractor_trianglediamonds.svg	17	yes	53	1	527
6.6.1	mac	2022-12-24	19:05:06	19:09:21	253541	5dc87423f9d4a05edf6fa10d	711986623	1	main_slash	7	advance_on_keypress_SLASH	60	stimuli_target_trianglecircles.svg	stimuli_distractor_trianglediamonds.svg	17	yes	57	0	294
6.6.1	mac	2022-12-24	19:05:06	19:09:24	256448	5dc87423f9d4a05edf6fa10d	711986623	1	main_slash	7	main_slash	61	stimuli_distractor_diamondtriangles.svg	stimuli_distractor_trianglediamonds.svg	37	no	0	1	2000
6.6.1	mac	2022-12-24	19:05:06	19:09:24	256448	5dc87423f9d4a05edf6fa10d	711986623	1	main_slash	7	advance_on_keypress_SLASH	62	stimuli_distractor_diamondtriangles.svg	stimuli_distractor_trianglediamonds.svg	37	no	57	0	307
6.6.1	mac	2022-12-24	19:05:06	19:09:27	259382	5dc87423f9d4a05edf6fa10d	711986623	1	main_slash	7	main_slash	63	stimuli_distractor_diamondtriangles.svg	stimuli_target_trianglesquares.svg	30	yes	0	0	2000
6.6.1	mac	2022-12-24	19:05:06	19:09:27	259382	5dc87423f9d4a05edf6fa10d	711986623	1	main_slash	7	advance_on_keypress_SLASH	64	stimuli_distractor_diamondtriangles.svg	stimuli_target_trianglesquares.svg	30	yes	57	0	365
6.6.1	mac	2022-12-24	19:05:06	19:09:28	261138	5dc87423f9d4a05edf6fa10d	711986623	1	main_slash	7	main_slash	65	stimuli_target_diamondsquares.svg	stimuli_distractor_diamondtriangles.svg	24	yes	53	1	757
6.6.1	mac	2022-12-24	19:05:06	19:09:28	261138	5dc87423f9d4a05edf6fa10d	711986623	1	main_slash	7	advance_on_keypress_SLASH	66	stimuli_target_diamondsquares.svg	stimuli_distractor_diamondtriangles.svg	24	yes	57	0	388
6.6.1	mac	2022-12-24	19:05:06	19:09:31	264149	5dc87423f9d4a05edf6fa10d	711986623	1	main_slash	7	main_slash	67	stimuli_distractor_trianglediamonds.svg	stimuli_target_diamondcircles.svg	27	yes	0	0	2000
6.6.1	mac	2022-12-24	19:05:06	19:09:31	264149	5dc87423f9d4a05edf6fa10d	711986623	1	main_slash	7	advance_on_keypress_SLASH	68	stimuli_distractor_trianglediamonds.svg	stimuli_target_diamondcircles.svg	27	yes	57	0	365
6.6.1	mac	2022-12-24	19:05:06	19:09:34	267149	5dc87423f9d4a05edf6fa10d	711986623	1	main_slash	7	main_slash	69	stimuli_target_diamondsquares.svg	stimuli_distractor_trianglediamonds.svg	20	yes	0	0	2000
6.6.1	mac	2022-12-24	19:05:06	19:09:34	267149	5dc87423f9d4a05edf6fa10d	711986623	1	main_slash	7	advance_on_keypress_SLASH	70	stimuli_target_diamondsquares.svg	stimuli_distractor_trianglediamonds.svg	20	yes	57	0	293
6.6.1	mac	2022-12-24	19:05:06	19:09:36	268589	5dc87423f9d4a05edf6fa10d	711986623	1	main_slash	7	main_slash	71	stimuli_distractor_trianglediamonds.svg	stimuli_target_squaretriangles.svg	11	yes	53	1	526
6.6.1	mac	2022-12-24	19:05:06	19:09:36	268589	5dc87423f9d4a05edf6fa10d	711986623	1	main_slash	7	advance_on_keypress_SLASH	72	stimuli_distractor_trianglediamonds.svg	stimuli_target_squaretriangles.svg	11	yes	57	0	371
6.6.1	mac	2022-12-24	19:05:06	19:09:37	270038	5dc87423f9d4a05edf6fa10d	711986623	1	main_slash	7	main_slash	73	stimuli_distractor_trianglediamonds.svg	stimuli_target_circletriangles.svg	9	yes	53	1	457
6.6.1	mac	2022-12-24	19:05:06	19:09:37	270038	5dc87423f9d4a05edf6fa10d	711986623	1	main_slash	7	advance_on_keypress_SLASH	74	stimuli_distractor_trianglediamonds.svg	stimuli_target_circletriangles.svg	9	yes	57	0	295
6.6.1	mac	2022-12-24	19:05:06	19:09:40	272949	5dc87423f9d4a05edf6fa10d	711986623	1	main_slash	7	main_slash	75	stimuli_distractor_trianglediamonds.svg	stimuli_distractor_diamondtriangles.svg	36	no	0	1	2000
6.6.1	mac	2022-12-24	19:05:06	19:09:40	272949	5dc87423f9d4a05edf6fa10d	711986623	1	main_slash	7	advance_on_keypress_SLASH	76	stimuli_distractor_trianglediamonds.svg	stimuli_distractor_diamondtriangles.svg	36	no	57	0	312
6.6.1	mac	2022-12-24	19:05:06	19:09:42	274944	5dc87423f9d4a05edf6fa10d	711986623	1	main_slash	7	main_slash	77	stimuli_distractor_trianglediamonds.svg	stimuli_target_trianglesquares.svg	26	yes	53	1	1047
6.6.1	mac	2022-12-24	19:05:06	19:09:42	274944	5dc87423f9d4a05edf6fa10d	711986623	1	main_slash	7	advance_on_keypress_SLASH	78	stimuli_distractor_trianglediamonds.svg	stimuli_target_trianglesquares.svg	26	yes	57	0	218
6.6.1	mac	2022-12-24	19:05:06	19:09:44	276324	5dc87423f9d4a05edf6fa10d	711986623	1	main_slash	7	main_slash	79	stimuli_target_squaretriangles.svg	stimuli_distractor_diamondtriangles.svg	7	yes	53	1	544
6.6.1	mac	2022-12-24	19:05:06	19:09:44	276324	5dc87423f9d4a05edf6fa10d	711986623	1	main_slash	7	advance_on_keypress_SLASH	80	stimuli_target_squaretriangles.svg	stimuli_distractor_diamondtriangles.svg	7	yes	57	0	319
6.6.1	mac	2022-12-24	19:05:06	19:09:45	277858	5dc87423f9d4a05edf6fa10d	711986623	1	main_slash	7	main_slash	81	stimuli_target_diamondcircles.svg	stimuli_distractor_trianglediamonds.svg	19	yes	53	1	594
6.6.1	mac	2022-12-24	19:05:06	19:09:45	277858	5dc87423f9d4a05edf6fa10d	711986623	1	main_slash	7	advance_on_keypress_SLASH	82	stimuli_target_diamondcircles.svg	stimuli_distractor_trianglediamonds.svg	19	yes	57	0	313
6.6.1	mac	2022-12-24	19:05:06	19:09:47	279340	5dc87423f9d4a05edf6fa10d	711986623	1	main_slash	7	main_slash	83	stimuli_distractor_diamondtriangles.svg	stimuli_target_squarediamonds.svg	16	yes	53	1	543
6.6.1	mac	2022-12-24	19:05:06	19:09:47	279340	5dc87423f9d4a05edf6fa10d	711986623	1	main_slash	7	advance_on_keypress_SLASH	84	stimuli_distractor_diamondtriangles.svg	stimuli_target_squarediamonds.svg	16	yes	57	0	350
6.6.1	mac	2022-12-24	19:05:06	19:09:49	281386	5dc87423f9d4a05edf6fa10d	711986623	1	main_slash	7	main_slash	85	stimuli_distractor_diamondtriangles.svg	stimuli_target_diamondsquares.svg	32	yes	53	1	1073
6.6.1	mac	2022-12-24	19:05:06	19:09:49	281386	5dc87423f9d4a05edf6fa10d	711986623	1	main_slash	7	advance_on_keypress_SLASH	86	stimuli_distractor_diamondtriangles.svg	stimuli_target_diamondsquares.svg	32	yes	57	0	295
6.6.1	mac	2022-12-24	19:05:06	19:09:50	282759	5dc87423f9d4a05edf6fa10d	711986623	1	main_slash	7	main_slash	87	stimuli_distractor_trianglediamonds.svg	stimuli_target_trianglecircles.svg	25	yes	53	1	463
6.6.1	mac	2022-12-24	19:05:06	19:09:50	282759	5dc87423f9d4a05edf6fa10d	711986623	1	main_slash	7	advance_on_keypress_SLASH	88	stimuli_distractor_trianglediamonds.svg	stimuli_target_trianglecircles.svg	25	yes	57	0	313
6.6.1	mac	2022-12-24	19:05:06	19:09:51	284117	5dc87423f9d4a05edf6fa10d	711986623	1	main_slash	7	main_slash	89	stimuli_distractor_trianglediamonds.svg	stimuli_distractor_diamondtriangles.svg	35	no	53	0	421
6.6.1	mac	2022-12-24	19:05:06	19:09:51	284117	5dc87423f9d4a05edf6fa10d	711986623	1	main_slash	7	advance_on_keypress_SLASH	90	stimuli_distractor_trianglediamonds.svg	stimuli_distractor_diamondtriangles.svg	35	no	57	0	317
6.6.1	mac	2022-12-24	19:05:06	19:09:53	285739	5dc87423f9d4a05edf6fa10d	711986623	1	main_slash	7	main_slash	91	stimuli_distractor_diamondtriangles.svg	stimuli_target_trianglecircles.svg	29	yes	53	1	676
6.6.1	mac	2022-12-24	19:05:06	19:09:53	285739	5dc87423f9d4a05edf6fa10d	711986623	1	main_slash	7	advance_on_keypress_SLASH	92	stimuli_distractor_diamondtriangles.svg	stimuli_target_trianglecircles.svg	29	yes	57	0	281
6.6.1	mac	2022-12-24	19:05:06	19:09:54	287088	5dc87423f9d4a05edf6fa10d	711986623	1	main_slash	7	main_slash	93	stimuli_target_circletriangles.svg	stimuli_distractor_trianglediamonds.svg	1	yes	53	1	441
6.6.1	mac	2022-12-24	19:05:06	19:09:54	287088	5dc87423f9d4a05edf6fa10d	711986623	1	main_slash	7	advance_on_keypress_SLASH	94	stimuli_target_circletriangles.svg	stimuli_distractor_trianglediamonds.svg	1	yes	57	0	287
6.6.1	mac	2022-12-24	19:05:06	19:09:57	289999	5dc87423f9d4a05edf6fa10d	711986623	1	main_slash	7	main_slash	95	stimuli_distractor_diamondtriangles.svg	stimuli_distractor_trianglediamonds.svg	38	no	0	1	2000
6.6.1	mac	2022-12-24	19:05:06	19:09:57	289999	5dc87423f9d4a05edf6fa10d	711986623	1	main_slash	7	advance_on_keypress_SLASH	96	stimuli_distractor_diamondtriangles.svg	stimuli_distractor_trianglediamonds.svg	38	no	57	0	248
6.6.1	mac	2022-12-24	19:05:06	19:09:58	291256	5dc87423f9d4a05edf6fa10d	711986623	1	main_slash	7	main_slash	97	stimuli_distractor_trianglediamonds.svg	stimuli_target_squarediamonds.svg	12	yes	53	1	375
6.6.1	mac	2022-12-24	19:05:06	19:09:58	291256	5dc87423f9d4a05edf6fa10d	711986623	1	main_slash	7	advance_on_keypress_SLASH	98	stimuli_distractor_trianglediamonds.svg	stimuli_target_squarediamonds.svg	12	yes	57	0	298
6.6.1	mac	2022-12-24	19:05:06	19:10:00	292718	5dc87423f9d4a05edf6fa10d	711986623	1	main_slash	7	main_slash	99	stimuli_target_squaretriangles.svg	stimuli_distractor_trianglediamonds.svg	3	yes	53	1	538
6.6.1	mac	2022-12-24	19:05:06	19:10:00	292718	5dc87423f9d4a05edf6fa10d	711986623	1	main_slash	7	advance_on_keypress_SLASH	100	stimuli_target_squaretriangles.svg	stimuli_distractor_trianglediamonds.svg	3	yes	57	0	222
6.6.1	mac	2022-12-24	19:05:06	19:10:01	294250	5dc87423f9d4a05edf6fa10d	711986623	1	main_slash	7	main_slash	101	stimuli_target_diamondsquares.svg	stimuli_distractor_diamondtriangles.svg	24	yes	53	1	686
6.6.1	mac	2022-12-24	19:05:06	19:10:01	294250	5dc87423f9d4a05edf6fa10d	711986623	1	main_slash	7	advance_on_keypress_SLASH	102	stimuli_target_diamondsquares.svg	stimuli_distractor_diamondtriangles.svg	24	yes	57	0	323
6.6.1	mac	2022-12-24	19:05:06	19:10:03	295688	5dc87423f9d4a05edf6fa10d	711986623	1	main_slash	7	main_slash	103	stimuli_distractor_trianglediamonds.svg	stimuli_target_circlediamonds.svg	10	yes	53	1	492
6.6.1	mac	2022-12-24	19:05:06	19:10:03	295688	5dc87423f9d4a05edf6fa10d	711986623	1	main_slash	7	advance_on_keypress_SLASH	104	stimuli_distractor_trianglediamonds.svg	stimuli_target_circlediamonds.svg	10	yes	57	0	262
6.6.1	mac	2022-12-24	19:05:06	19:10:04	297258	5dc87423f9d4a05edf6fa10d	711986623	1	main_slash	7	main_slash	105	stimuli_target_trianglesquares.svg	stimuli_distractor_trianglediamonds.svg	18	yes	53	1	694
6.6.1	mac	2022-12-24	19:05:06	19:10:04	297258	5dc87423f9d4a05edf6fa10d	711986623	1	main_slash	7	advance_on_keypress_SLASH	106	stimuli_target_trianglesquares.svg	stimuli_distractor_trianglediamonds.svg	18	yes	57	0	336
6.6.1	mac	2022-12-24	19:05:06	19:10:06	298738	5dc87423f9d4a05edf6fa10d	711986623	1	main_slash	7	main_slash	107	stimuli_distractor_trianglediamonds.svg	stimuli_distractor_diamondtriangles.svg	36	no	53	0	524
6.6.1	mac	2022-12-24	19:05:06	19:10:06	298738	5dc87423f9d4a05edf6fa10d	711986623	1	main_slash	7	advance_on_keypress_SLASH	108	stimuli_distractor_trianglediamonds.svg	stimuli_distractor_diamondtriangles.svg	36	no	57	0	1167
6.6.1	mac	2022-12-24	19:05:06	19:10:08	301218	5dc87423f9d4a05edf6fa10d	711986623	1	main_slash	7	main_slash	109	stimuli_target_trianglecircles.svg	stimuli_distractor_diamondtriangles.svg	21	yes	53	1	687
6.6.1	mac	2022-12-24	19:05:06	19:10:08	301218	5dc87423f9d4a05edf6fa10d	711986623	1	main_slash	7	advance_on_keypress_SLASH	110	stimuli_target_trianglecircles.svg	stimuli_distractor_diamondtriangles.svg	21	yes	57	0	332
6.6.1	mac	2022-12-24	19:05:06	19:10:10	302880	5dc87423f9d4a05edf6fa10d	711986623	1	main_slash	7	main_slash	111	stimuli_distractor_trianglediamonds.svg	stimuli_target_trianglesquares.svg	26	yes	53	1	699
6.6.1	mac	2022-12-24	19:05:06	19:10:10	302880	5dc87423f9d4a05edf6fa10d	711986623	1	main_slash	7	advance_on_keypress_SLASH	112	stimuli_distractor_trianglediamonds.svg	stimuli_target_trianglesquares.svg	26	yes	57	0	183
6.6.1	mac	2022-12-24	19:05:06	19:10:11	304112	5dc87423f9d4a05edf6fa10d	711986623	1	main_slash	7	main_slash	113	stimuli_target_trianglesquares.svg	stimuli_distractor_diamondtriangles.svg	22	yes	53	1	415
6.6.1	mac	2022-12-24	19:05:06	19:10:11	304112	5dc87423f9d4a05edf6fa10d	711986623	1	main_slash	7	advance_on_keypress_SLASH	114	stimuli_target_trianglesquares.svg	stimuli_distractor_diamondtriangles.svg	22	yes	57	0	234
6.6.1	mac	2022-12-24	19:05:06	19:10:13	305440	5dc87423f9d4a05edf6fa10d	711986623	1	main_slash	7	main_slash	115	stimuli_distractor_diamondtriangles.svg	stimuli_target_circlediamonds.svg	14	yes	53	1	459
6.6.1	mac	2022-12-24	19:05:06	19:10:13	305440	5dc87423f9d4a05edf6fa10d	711986623	1	main_slash	7	advance_on_keypress_SLASH	116	stimuli_distractor_diamondtriangles.svg	stimuli_target_circlediamonds.svg	14	yes	57	0	204
6.6.1	mac	2022-12-24	19:05:06	19:10:14	306757	5dc87423f9d4a05edf6fa10d	711986623	1	main_slash	7	main_slash	117	stimuli_target_circlediamonds.svg	stimuli_distractor_trianglediamonds.svg	2	yes	53	1	494
6.6.1	mac	2022-12-24	19:05:06	19:10:14	306757	5dc87423f9d4a05edf6fa10d	711986623	1	main_slash	7	advance_on_keypress_SLASH	118	stimuli_target_circlediamonds.svg	stimuli_distractor_trianglediamonds.svg	2	yes	57	0	145
6.6.1	mac	2022-12-24	19:05:06	19:10:15	308136	5dc87423f9d4a05edf6fa10d	711986623	1	main_slash	7	main_slash	119	stimuli_distractor_trianglediamonds.svg	stimuli_target_circletriangles.svg	9	yes	53	1	622
6.6.1	mac	2022-12-24	19:05:06	19:10:15	308136	5dc87423f9d4a05edf6fa10d	711986623	1	main_slash	7	advance_on_keypress_SLASH	120	stimuli_distractor_trianglediamonds.svg	stimuli_target_circletriangles.svg	9	yes	57	0	151
6.6.1	mac	2022-12-24	19:05:06	19:10:18	310916	5dc87423f9d4a05edf6fa10d	711986623	1	main_slash	7	main_slash	121	stimuli_distractor_diamondtriangles.svg	stimuli_target_diamondcircles.svg	31	yes	0	0	2000
6.6.1	mac	2022-12-24	19:05:06	19:10:18	310916	5dc87423f9d4a05edf6fa10d	711986623	1	main_slash	7	advance_on_keypress_SLASH	122	stimuli_distractor_diamondtriangles.svg	stimuli_target_diamondcircles.svg	31	yes	57	0	548
6.6.1	mac	2022-12-24	19:05:06	19:10:20	312494	5dc87423f9d4a05edf6fa10d	711986623	1	main_slash	7	main_slash	123	stimuli_target_squarediamonds.svg	stimuli_distractor_diamondtriangles.svg	8	yes	53	1	398
6.6.1	mac	2022-12-24	19:05:06	19:10:20	312494	5dc87423f9d4a05edf6fa10d	711986623	1	main_slash	7	advance_on_keypress_SLASH	124	stimuli_target_squarediamonds.svg	stimuli_distractor_diamondtriangles.svg	8	yes	57	0	217
6.6.1	mac	2022-12-24	19:05:06	19:10:21	313688	5dc87423f9d4a05edf6fa10d	711986623	1	main_slash	7	main_slash	125	stimuli_target_circletriangles.svg	stimuli_distractor_diamondtriangles.svg	5	yes	53	1	342
6.6.1	mac	2022-12-24	19:05:06	19:10:21	313688	5dc87423f9d4a05edf6fa10d	711986623	1	main_slash	7	advance_on_keypress_SLASH	126	stimuli_target_circletriangles.svg	stimuli_distractor_diamondtriangles.svg	5	yes	57	0	193
6.6.1	mac	2022-12-24	19:05:06	19:10:24	316498	5dc87423f9d4a05edf6fa10d	711986623	1	main_slash	7	main_slash	127	stimuli_distractor_diamondtriangles.svg	stimuli_distractor_trianglediamonds.svg	37	no	0	1	2000
6.6.1	mac	2022-12-24	19:05:06	19:10:24	316498	5dc87423f9d4a05edf6fa10d	711986623	1	main_slash	7	advance_on_keypress_SLASH	128	stimuli_distractor_diamondtriangles.svg	stimuli_distractor_trianglediamonds.svg	37	no	57	0	465
6.6.1	mac	2022-12-24	19:05:06	19:10:25	318063	5dc87423f9d4a05edf6fa10d	711986623	1	main_slash	7	main_slash	129	stimuli_target_circlediamonds.svg	stimuli_distractor_diamondtriangles.svg	6	yes	53	1	466
6.6.1	mac	2022-12-24	19:05:06	19:10:25	318063	5dc87423f9d4a05edf6fa10d	711986623	1	main_slash	7	advance_on_keypress_SLASH	130	stimuli_target_circlediamonds.svg	stimuli_distractor_diamondtriangles.svg	6	yes	57	0	469
6.6.1	mac	2022-12-24	19:05:06	19:10:28	321165	5dc87423f9d4a05edf6fa10d	711986623	1	main_slash	7	main_slash	131	stimuli_distractor_trianglediamonds.svg	stimuli_distractor_trianglediamonds.svg	34	no	0	1	2000
6.6.1	mac	2022-12-24	19:05:06	19:10:28	321165	5dc87423f9d4a05edf6fa10d	711986623	1	main_slash	7	advance_on_keypress_SLASH	132	stimuli_distractor_trianglediamonds.svg	stimuli_distractor_trianglediamonds.svg	34	no	57	0	652
6.6.1	mac	2022-12-24	19:05:06	19:10:30	322892	5dc87423f9d4a05edf6fa10d	711986623	1	main_slash	7	main_slash	133	stimuli_distractor_trianglediamonds.svg	stimuli_target_diamondcircles.svg	27	yes	53	1	445
6.6.1	mac	2022-12-24	19:05:06	19:10:30	322892	5dc87423f9d4a05edf6fa10d	711986623	1	main_slash	7	advance_on_keypress_SLASH	134	stimuli_distractor_trianglediamonds.svg	stimuli_target_diamondcircles.svg	27	yes	57	0	426
6.6.1	mac	2022-12-24	19:05:06	19:10:32	324591	5dc87423f9d4a05edf6fa10d	711986623	1	main_slash	7	main_slash	135	stimuli_target_diamondcircles.svg	stimuli_distractor_diamondtriangles.svg	23	yes	53	1	661
6.6.1	mac	2022-12-24	19:05:06	19:10:32	324591	5dc87423f9d4a05edf6fa10d	711986623	1	main_slash	7	advance_on_keypress_SLASH	136	stimuli_target_diamondcircles.svg	stimuli_distractor_diamondtriangles.svg	23	yes	57	0	259
6.6.1	mac	2022-12-24	19:05:06	19:10:35	327465	5dc87423f9d4a05edf6fa10d	711986623	1	main_slash	7	main_slash	137	stimuli_distractor_diamondtriangles.svg	stimuli_distractor_diamondtriangles.svg	39	no	0	1	2000
6.6.1	mac	2022-12-24	19:05:06	19:10:35	327465	5dc87423f9d4a05edf6fa10d	711986623	1	main_slash	7	advance_on_keypress_SLASH	138	stimuli_distractor_diamondtriangles.svg	stimuli_distractor_diamondtriangles.svg	39	no	57	0	282
6.6.1	mac	2022-12-24	19:05:06	19:10:36	328768	5dc87423f9d4a05edf6fa10d	711986623	1	main_slash	7	main_slash	139	stimuli_distractor_trianglediamonds.svg	stimuli_target_diamondsquares.svg	28	yes	53	1	387
6.6.1	mac	2022-12-24	19:05:06	19:10:36	328768	5dc87423f9d4a05edf6fa10d	711986623	1	main_slash	7	advance_on_keypress_SLASH	140	stimuli_distractor_trianglediamonds.svg	stimuli_target_diamondsquares.svg	28	yes	57	0	263
6.6.1	mac	2022-12-24	19:05:06	19:10:37	330241	5dc87423f9d4a05edf6fa10d	711986623	1	main_slash	7	main_slash	141	stimuli_distractor_trianglediamonds.svg	stimuli_target_squaretriangles.svg	11	yes	53	1	577
6.6.1	mac	2022-12-24	19:05:06	19:10:37	330241	5dc87423f9d4a05edf6fa10d	711986623	1	main_slash	7	advance_on_keypress_SLASH	142	stimuli_distractor_trianglediamonds.svg	stimuli_target_squaretriangles.svg	11	yes	57	0	236
6.6.1	mac	2022-12-24	19:05:06	19:10:40	333099	5dc87423f9d4a05edf6fa10d	711986623	1	main_slash	7	main_slash	143	stimuli_distractor_diamondtriangles.svg	stimuli_distractor_diamondtriangles.svg	40	no	0	1	2000
6.6.1	mac	2022-12-24	19:05:06	19:10:40	333099	5dc87423f9d4a05edf6fa10d	711986623	1	main_slash	7	advance_on_keypress_SLASH	144	stimuli_distractor_diamondtriangles.svg	stimuli_distractor_diamondtriangles.svg	40	no	57	0	323
6.6.1	mac	2022-12-24	19:05:06	19:10:42	334499	5dc87423f9d4a05edf6fa10d	711986623	1	main_slash	7	main_slash	145	stimuli_target_squaretriangles.svg	stimuli_distractor_diamondtriangles.svg	7	yes	53	1	452
6.6.1	mac	2022-12-24	19:05:06	19:10:42	334499	5dc87423f9d4a05edf6fa10d	711986623	1	main_slash	7	advance_on_keypress_SLASH	146	stimuli_target_squaretriangles.svg	stimuli_distractor_diamondtriangles.svg	7	yes	57	0	226
6.6.1	mac	2022-12-24	19:05:06	19:10:45	337349	5dc87423f9d4a05edf6fa10d	711986623	1	main_slash	7	main_slash	147	stimuli_distractor_trianglediamonds.svg	stimuli_distractor_trianglediamonds.svg	33	no	0	1	2000
6.6.1	mac	2022-12-24	19:05:06	19:10:45	337349	5dc87423f9d4a05edf6fa10d	711986623	1	main_slash	7	advance_on_keypress_SLASH	148	stimuli_distractor_trianglediamonds.svg	stimuli_distractor_trianglediamonds.svg	33	no	57	0	371
6.6.1	mac	2022-12-24	19:05:06	19:10:47	339483	5dc87423f9d4a05edf6fa10d	711986623	1	main_slash	7	main_slash	149	stimuli_distractor_diamondtriangles.svg	stimuli_target_squaretriangles.svg	15	yes	53	1	1136
6.6.1	mac	2022-12-24	19:05:06	19:10:47	339483	5dc87423f9d4a05edf6fa10d	711986623	1	main_slash	7	advance_on_keypress_SLASH	150	stimuli_distractor_diamondtriangles.svg	stimuli_target_squaretriangles.svg	15	yes	57	0	742
6.6.1	mac	2022-12-24	19:05:06	19:10:49	341384	5dc87423f9d4a05edf6fa10d	711986623	1	main_slash	7	main_slash	151	stimuli_target_trianglecircles.svg	stimuli_distractor_trianglediamonds.svg	17	yes	53	1	537
6.6.1	mac	2022-12-24	19:05:06	19:10:49	341384	5dc87423f9d4a05edf6fa10d	711986623	1	main_slash	7	advance_on_keypress_SLASH	152	stimuli_target_trianglecircles.svg	stimuli_distractor_trianglediamonds.svg	17	yes	57	0	277
6.6.1	mac	2022-12-24	19:05:06	19:10:50	342974	5dc87423f9d4a05edf6fa10d	711986623	1	main_slash	7	main_slash	153	stimuli_distractor_diamondtriangles.svg	stimuli_target_trianglesquares.svg	30	yes	53	1	693
6.6.1	mac	2022-12-24	19:05:06	19:10:50	342974	5dc87423f9d4a05edf6fa10d	711986623	1	main_slash	7	advance_on_keypress_SLASH	154	stimuli_distractor_diamondtriangles.svg	stimuli_target_trianglesquares.svg	30	yes	57	0	284
6.6.1	mac	2022-12-24	19:05:06	19:10:53	345882	5dc87423f9d4a05edf6fa10d	711986623	1	main_slash	7	main_slash	155	stimuli_target_diamondsquares.svg	stimuli_distractor_trianglediamonds.svg	20	yes	0	0	2000
6.6.1	mac	2022-12-24	19:05:06	19:10:53	345882	5dc87423f9d4a05edf6fa10d	711986623	1	main_slash	7	advance_on_keypress_SLASH	156	stimuli_target_diamondsquares.svg	stimuli_distractor_trianglediamonds.svg	20	yes	57	0	316
6.6.1	mac	2022-12-24	19:05:06	19:10:55	347378	5dc87423f9d4a05edf6fa10d	711986623	1	main_slash	7	main_slash	157	stimuli_target_squarediamonds.svg	stimuli_distractor_trianglediamonds.svg	4	yes	53	1	548
6.6.1	mac	2022-12-24	19:05:06	19:10:55	347378	5dc87423f9d4a05edf6fa10d	711986623	1	main_slash	7	advance_on_keypress_SLASH	158	stimuli_target_squarediamonds.svg	stimuli_distractor_trianglediamonds.svg	4	yes	57	0	238
6.6.1	mac	2022-12-24	19:05:06	19:10:56	348785	5dc87423f9d4a05edf6fa10d	711986623	1	main_slash	7	main_slash	159	stimuli_distractor_diamondtriangles.svg	stimuli_target_circletriangles.svg	13	yes	53	1	538
6.6.1	mac	2022-12-24	19:05:06	19:10:56	348785	5dc87423f9d4a05edf6fa10d	711986623	1	main_slash	7	advance_on_keypress_SLASH	160	stimuli_distractor_diamondtriangles.svg	stimuli_target_circletriangles.svg	13	yes	57	0	233
6.6.1	mac	2022-12-24	19:05:06	19:11:13	365436	5dc87423f9d4a05edf6fa10d	711986623	1	practice_z	9	practice_z	1	stimuli_distractor_trianglediamonds.svg	stimuli_target_circlediamonds.svg	10	yes	44	1	438
6.6.1	mac	2022-12-24	19:05:06	19:11:13	365436	5dc87423f9d4a05edf6fa10d	711986623	1	practice_z	9	advance_on_keypress_ZEE	2	stimuli_distractor_trianglediamonds.svg	stimuli_target_circlediamonds.svg	10	yes	57	0	997
6.6.1	mac	2022-12-24	19:05:06	19:11:17	370067	5dc87423f9d4a05edf6fa10d	711986623	1	practice_z	9	practice_z	3	stimuli_distractor_trianglediamonds.svg	stimuli_distractor_diamondtriangles.svg	16	no	0	1	2000
6.6.1	mac	2022-12-24	19:05:06	19:11:17	370067	5dc87423f9d4a05edf6fa10d	711986623	1	practice_z	9	advance_on_keypress_ZEE	4	stimuli_distractor_trianglediamonds.svg	stimuli_distractor_diamondtriangles.svg	16	no	57	0	617
6.6.1	mac	2022-12-24	19:05:06	19:11:20	372723	5dc87423f9d4a05edf6fa10d	711986623	1	practice_z	9	practice_z	5	stimuli_target_squarediamonds.svg	stimuli_distractor_trianglediamonds.svg	5	yes	44	1	408
6.6.1	mac	2022-12-24	19:05:06	19:11:20	372723	5dc87423f9d4a05edf6fa10d	711986623	1	practice_z	9	advance_on_keypress_ZEE	6	stimuli_target_squarediamonds.svg	stimuli_distractor_trianglediamonds.svg	5	yes	57	0	532
6.6.1	mac	2022-12-24	19:05:06	19:11:23	375365	5dc87423f9d4a05edf6fa10d	711986623	1	practice_z	9	practice_z	7	stimuli_target_squarediamonds.svg	stimuli_distractor_diamondtriangles.svg	2	yes	44	1	483
6.6.1	mac	2022-12-24	19:05:06	19:11:23	375365	5dc87423f9d4a05edf6fa10d	711986623	1	practice_z	9	advance_on_keypress_ZEE	8	stimuli_target_squarediamonds.svg	stimuli_distractor_diamondtriangles.svg	2	yes	57	0	496
6.6.1	mac	2022-12-24	19:05:06	19:11:25	377973	5dc87423f9d4a05edf6fa10d	711986623	1	practice_z	9	practice_z	9	stimuli_distractor_diamondtriangles.svg	stimuli_target_circletriangles.svg	7	yes	44	1	476
6.6.1	mac	2022-12-24	19:05:06	19:11:25	377973	5dc87423f9d4a05edf6fa10d	711986623	1	practice_z	9	advance_on_keypress_ZEE	10	stimuli_distractor_diamondtriangles.svg	stimuli_target_circletriangles.svg	7	yes	57	0	530
6.6.1	mac	2022-12-24	19:05:06	19:11:29	382133	5dc87423f9d4a05edf6fa10d	711986623	1	practice_z	9	practice_z	11	stimuli_distractor_trianglediamonds.svg	stimuli_target_diamondcircles.svg	12	yes	0	0	2000
6.6.1	mac	2022-12-24	19:05:06	19:11:29	382133	5dc87423f9d4a05edf6fa10d	711986623	1	practice_z	9	advance_on_keypress_ZEE	12	stimuli_distractor_trianglediamonds.svg	stimuli_target_diamondcircles.svg	12	yes	57	0	450
6.6.1	mac	2022-12-24	19:05:06	19:11:32	384783	5dc87423f9d4a05edf6fa10d	711986623	1	practice_z	9	practice_z	13	stimuli_distractor_diamondtriangles.svg	stimuli_target_trianglecircles.svg	9	yes	44	1	568
6.6.1	mac	2022-12-24	19:05:06	19:11:32	384783	5dc87423f9d4a05edf6fa10d	711986623	1	practice_z	9	advance_on_keypress_ZEE	14	stimuli_distractor_diamondtriangles.svg	stimuli_target_trianglecircles.svg	9	yes	57	0	500
6.6.1	mac	2022-12-24	19:05:06	19:11:36	388915	5dc87423f9d4a05edf6fa10d	711986623	1	practice_z	9	practice_z	15	stimuli_distractor_diamondtriangles.svg	stimuli_distractor_trianglediamonds.svg	14	no	0	1	2000
6.6.1	mac	2022-12-24	19:05:06	19:11:36	388915	5dc87423f9d4a05edf6fa10d	711986623	1	practice_z	9	advance_on_keypress_ZEE	16	stimuli_distractor_diamondtriangles.svg	stimuli_distractor_trianglediamonds.svg	14	no	57	0	397
6.6.1	mac	2022-12-24	19:05:06	19:11:40	392949	5dc87423f9d4a05edf6fa10d	711986623	1	practice_z	9	practice_z	17	stimuli_target_diamondsquares.svg	stimuli_distractor_trianglediamonds.svg	6	yes	0	0	2000
6.6.1	mac	2022-12-24	19:05:06	19:11:40	392949	5dc87423f9d4a05edf6fa10d	711986623	1	practice_z	9	advance_on_keypress_ZEE	18	stimuli_target_diamondsquares.svg	stimuli_distractor_trianglediamonds.svg	6	yes	57	0	749
6.6.1	mac	2022-12-24	19:05:06	19:11:43	396117	5dc87423f9d4a05edf6fa10d	711986623	1	practice_z	9	practice_z	19	stimuli_target_circlediamonds.svg	stimuli_distractor_diamondtriangles.svg	1	yes	44	1	786
6.6.1	mac	2022-12-24	19:05:06	19:11:43	396117	5dc87423f9d4a05edf6fa10d	711986623	1	practice_z	9	advance_on_keypress_ZEE	20	stimuli_target_circlediamonds.svg	stimuli_distractor_diamondtriangles.svg	1	yes	57	0	452
6.6.1	mac	2022-12-24	19:05:06	19:11:47	400200	5dc87423f9d4a05edf6fa10d	711986623	1	practice_z	9	practice_z	21	stimuli_distractor_diamondtriangles.svg	stimuli_distractor_diamondtriangles.svg	13	no	0	1	2000
6.6.1	mac	2022-12-24	19:05:06	19:11:47	400200	5dc87423f9d4a05edf6fa10d	711986623	1	practice_z	9	advance_on_keypress_ZEE	22	stimuli_distractor_diamondtriangles.svg	stimuli_distractor_diamondtriangles.svg	13	no	57	0	412
6.6.1	mac	2022-12-24	19:05:06	19:11:50	402614	5dc87423f9d4a05edf6fa10d	711986623	1	practice_z	9	practice_z	23	stimuli_target_circlediamonds.svg	stimuli_distractor_trianglediamonds.svg	4	yes	44	1	367
6.6.1	mac	2022-12-24	19:05:06	19:11:50	402614	5dc87423f9d4a05edf6fa10d	711986623	1	practice_z	9	advance_on_keypress_ZEE	24	stimuli_target_circlediamonds.svg	stimuli_distractor_trianglediamonds.svg	4	yes	57	0	419
6.6.1	mac	2022-12-24	19:05:06	19:11:53	405444	5dc87423f9d4a05edf6fa10d	711986623	1	practice_z	9	practice_z	25	stimuli_distractor_diamondtriangles.svg	stimuli_target_diamondcircles.svg	8	yes	44	1	780
6.6.1	mac	2022-12-24	19:05:06	19:11:53	405444	5dc87423f9d4a05edf6fa10d	711986623	1	practice_z	9	advance_on_keypress_ZEE	26	stimuli_distractor_diamondtriangles.svg	stimuli_target_diamondcircles.svg	8	yes	57	0	449
6.6.1	mac	2022-12-24	19:05:06	19:11:57	409516	5dc87423f9d4a05edf6fa10d	711986623	1	practice_z	9	practice_z	27	stimuli_target_diamondsquares.svg	stimuli_distractor_diamondtriangles.svg	3	yes	0	0	2000
6.6.1	mac	2022-12-24	19:05:06	19:11:57	409516	5dc87423f9d4a05edf6fa10d	711986623	1	practice_z	9	advance_on_keypress_ZEE	28	stimuli_target_diamondsquares.svg	stimuli_distractor_diamondtriangles.svg	3	yes	57	0	453
6.6.1	mac	2022-12-24	19:05:06	19:11:59	412085	5dc87423f9d4a05edf6fa10d	711986623	1	practice_z	9	practice_z	29	stimuli_distractor_trianglediamonds.svg	stimuli_target_squarediamonds.svg	11	yes	44	1	487
6.6.1	mac	2022-12-24	19:05:06	19:11:59	412085	5dc87423f9d4a05edf6fa10d	711986623	1	practice_z	9	advance_on_keypress_ZEE	30	stimuli_distractor_trianglediamonds.svg	stimuli_target_squarediamonds.svg	11	yes	57	0	479
6.6.1	mac	2022-12-24	19:05:06	19:12:02	414696	5dc87423f9d4a05edf6fa10d	711986623	1	practice_z	9	practice_z	31	stimuli_distractor_trianglediamonds.svg	stimuli_distractor_trianglediamonds.svg	15	no	44	0	500
6.6.1	mac	2022-12-24	19:05:06	19:12:02	414696	5dc87423f9d4a05edf6fa10d	711986623	1	practice_z	9	advance_on_keypress_ZEE	32	stimuli_distractor_trianglediamonds.svg	stimuli_distractor_trianglediamonds.svg	15	no	57	0	432
6.6.1	mac	2022-12-24	19:05:06	19:12:09	421399	5dc87423f9d4a05edf6fa10d	711986623	1	main_z	11	main_z	1	stimuli_distractor_diamondtriangles.svg	stimuli_distractor_trianglediamonds.svg	37	no	0	1	2000
6.6.1	mac	2022-12-24	19:05:06	19:12:09	421399	5dc87423f9d4a05edf6fa10d	711986623	1	main_z	11	advance_on_keypress_ZEE	2	stimuli_distractor_diamondtriangles.svg	stimuli_distractor_trianglediamonds.svg	37	no	57	0	256
6.6.1	mac	2022-12-24	19:05:06	19:12:10	422731	5dc87423f9d4a05edf6fa10d	711986623	1	main_z	11	main_z	3	stimuli_target_diamondcircles.svg	stimuli_distractor_diamondtriangles.svg	23	yes	44	1	450
6.6.1	mac	2022-12-24	19:05:06	19:12:10	422731	5dc87423f9d4a05edf6fa10d	711986623	1	main_z	11	advance_on_keypress_ZEE	4	stimuli_target_diamondcircles.svg	stimuli_distractor_diamondtriangles.svg	23	yes	57	0	496
6.6.1	mac	2022-12-24	19:05:06	19:12:12	424571	5dc87423f9d4a05edf6fa10d	711986623	1	main_z	11	main_z	5	stimuli_target_diamondcircles.svg	stimuli_distractor_trianglediamonds.svg	19	yes	44	1	707
6.6.1	mac	2022-12-24	19:05:06	19:12:12	424571	5dc87423f9d4a05edf6fa10d	711986623	1	main_z	11	advance_on_keypress_ZEE	6	stimuli_target_diamondcircles.svg	stimuli_distractor_trianglediamonds.svg	19	yes	57	0	975
6.6.1	mac	2022-12-24	19:05:06	19:12:15	428165	5dc87423f9d4a05edf6fa10d	711986623	1	main_z	11	main_z	7	stimuli_distractor_diamondtriangles.svg	stimuli_distractor_trianglediamonds.svg	38	no	0	1	2000
6.6.1	mac	2022-12-24	19:05:06	19:12:15	428165	5dc87423f9d4a05edf6fa10d	711986623	1	main_z	11	advance_on_keypress_ZEE	8	stimuli_distractor_diamondtriangles.svg	stimuli_distractor_trianglediamonds.svg	38	no	57	0	362
6.6.1	mac	2022-12-24	19:05:06	19:12:18	431165	5dc87423f9d4a05edf6fa10d	711986623	1	main_z	11	main_z	9	stimuli_distractor_diamondtriangles.svg	stimuli_distractor_diamondtriangles.svg	40	no	0	1	2000
6.6.1	mac	2022-12-24	19:05:06	19:12:18	431165	5dc87423f9d4a05edf6fa10d	711986623	1	main_z	11	advance_on_keypress_ZEE	10	stimuli_distractor_diamondtriangles.svg	stimuli_distractor_diamondtriangles.svg	40	no	57	0	293
6.6.1	mac	2022-12-24	19:05:06	19:12:20	432528	5dc87423f9d4a05edf6fa10d	711986623	1	main_z	11	main_z	11	stimuli_target_squaretriangles.svg	stimuli_distractor_trianglediamonds.svg	3	yes	44	1	447
6.6.1	mac	2022-12-24	19:05:06	19:12:20	432528	5dc87423f9d4a05edf6fa10d	711986623	1	main_z	11	advance_on_keypress_ZEE	12	stimuli_target_squaretriangles.svg	stimuli_distractor_trianglediamonds.svg	3	yes	57	0	487
6.6.1	mac	2022-12-24	19:05:06	19:12:21	434154	5dc87423f9d4a05edf6fa10d	711986623	1	main_z	11	main_z	13	stimuli_distractor_diamondtriangles.svg	stimuli_target_diamondcircles.svg	31	yes	44	1	508
6.6.1	mac	2022-12-24	19:05:06	19:12:21	434154	5dc87423f9d4a05edf6fa10d	711986623	1	main_z	11	advance_on_keypress_ZEE	14	stimuli_distractor_diamondtriangles.svg	stimuli_target_diamondcircles.svg	31	yes	57	0	341
6.6.1	mac	2022-12-24	19:05:06	19:12:24	437115	5dc87423f9d4a05edf6fa10d	711986623	1	main_z	11	main_z	15	stimuli_distractor_trianglediamonds.svg	stimuli_distractor_diamondtriangles.svg	36	no	0	1	2000
6.6.1	mac	2022-12-24	19:05:06	19:12:24	437115	5dc87423f9d4a05edf6fa10d	711986623	1	main_z	11	advance_on_keypress_ZEE	16	stimuli_distractor_trianglediamonds.svg	stimuli_distractor_diamondtriangles.svg	36	no	57	0	253
6.6.1	mac	2022-12-24	19:05:06	19:12:27	439998	5dc87423f9d4a05edf6fa10d	711986623	1	main_z	11	main_z	17	stimuli_distractor_trianglediamonds.svg	stimuli_distractor_trianglediamonds.svg	33	no	0	1	2000
6.6.1	mac	2022-12-24	19:05:06	19:12:27	439998	5dc87423f9d4a05edf6fa10d	711986623	1	main_z	11	advance_on_keypress_ZEE	18	stimuli_distractor_trianglediamonds.svg	stimuli_distractor_trianglediamonds.svg	33	no	57	0	323
6.6.1	mac	2022-12-24	19:05:06	19:12:29	441731	5dc87423f9d4a05edf6fa10d	711986623	1	main_z	11	main_z	19	stimuli_target_diamondsquares.svg	stimuli_distractor_diamondtriangles.svg	24	yes	44	1	784
6.6.1	mac	2022-12-24	19:05:06	19:12:29	441731	5dc87423f9d4a05edf6fa10d	711986623	1	main_z	11	advance_on_keypress_ZEE	20	stimuli_target_diamondsquares.svg	stimuli_distractor_diamondtriangles.svg	24	yes	57	0	517
6.6.1	mac	2022-12-24	19:05:06	19:12:31	443457	5dc87423f9d4a05edf6fa10d	711986623	1	main_z	11	main_z	21	stimuli_target_circlediamonds.svg	stimuli_distractor_diamondtriangles.svg	6	yes	44	1	576
6.6.1	mac	2022-12-24	19:05:06	19:12:31	443457	5dc87423f9d4a05edf6fa10d	711986623	1	main_z	11	advance_on_keypress_ZEE	22	stimuli_target_circlediamonds.svg	stimuli_distractor_diamondtriangles.svg	6	yes	57	0	480
6.6.1	mac	2022-12-24	19:05:06	19:12:32	445038	5dc87423f9d4a05edf6fa10d	711986623	1	main_z	11	main_z	23	stimuli_target_squarediamonds.svg	stimuli_distractor_trianglediamonds.svg	4	yes	44	1	474
6.6.1	mac	2022-12-24	19:05:06	19:12:32	445038	5dc87423f9d4a05edf6fa10d	711986623	1	main_z	11	advance_on_keypress_ZEE	24	stimuli_target_squarediamonds.svg	stimuli_distractor_trianglediamonds.svg	4	yes	57	0	303
6.6.1	mac	2022-12-24	19:05:06	19:12:34	446538	5dc87423f9d4a05edf6fa10d	711986623	1	main_z	11	main_z	25	stimuli_distractor_diamondtriangles.svg	stimuli_target_circletriangles.svg	13	yes	44	1	574
6.6.1	mac	2022-12-24	19:05:06	19:12:34	446538	5dc87423f9d4a05edf6fa10d	711986623	1	main_z	11	advance_on_keypress_ZEE	26	stimuli_distractor_diamondtriangles.svg	stimuli_target_circletriangles.svg	13	yes	57	0	268
6.6.1	mac	2022-12-24	19:05:06	19:12:35	447856	5dc87423f9d4a05edf6fa10d	711986623	1	main_z	11	main_z	27	stimuli_target_circletriangles.svg	stimuli_distractor_trianglediamonds.svg	1	yes	44	1	425
6.6.1	mac	2022-12-24	19:05:06	19:12:35	447856	5dc87423f9d4a05edf6fa10d	711986623	1	main_z	11	advance_on_keypress_ZEE	28	stimuli_target_circletriangles.svg	stimuli_distractor_trianglediamonds.svg	1	yes	57	0	260
6.6.1	mac	2022-12-24	19:05:06	19:12:36	449195	5dc87423f9d4a05edf6fa10d	711986623	1	main_z	11	main_z	29	stimuli_distractor_trianglediamonds.svg	stimuli_target_diamondsquares.svg	28	yes	44	1	465
6.6.1	mac	2022-12-24	19:05:06	19:12:36	449195	5dc87423f9d4a05edf6fa10d	711986623	1	main_z	11	advance_on_keypress_ZEE	30	stimuli_distractor_trianglediamonds.svg	stimuli_target_diamondsquares.svg	28	yes	57	0	442
6.6.1	mac	2022-12-24	19:05:06	19:12:39	452265	5dc87423f9d4a05edf6fa10d	711986623	1	main_z	11	main_z	31	stimuli_distractor_diamondtriangles.svg	stimuli_distractor_diamondtriangles.svg	39	no	0	1	2000
6.6.1	mac	2022-12-24	19:05:06	19:12:39	452265	5dc87423f9d4a05edf6fa10d	711986623	1	main_z	11	advance_on_keypress_ZEE	32	stimuli_distractor_diamondtriangles.svg	stimuli_distractor_diamondtriangles.svg	39	no	57	0	296
6.6.1	mac	2022-12-24	19:05:06	19:12:42	454395	5dc87423f9d4a05edf6fa10d	711986623	1	main_z	11	main_z	33	stimuli_distractor_trianglediamonds.svg	stimuli_target_trianglesquares.svg	26	yes	44	1	1198
6.6.1	mac	2022-12-24	19:05:06	19:12:42	454395	5dc87423f9d4a05edf6fa10d	711986623	1	main_z	11	advance_on_keypress_ZEE	34	stimuli_distractor_trianglediamonds.svg	stimuli_target_trianglesquares.svg	26	yes	57	0	477
6.6.1	mac	2022-12-24	19:05:06	19:12:43	456080	5dc87423f9d4a05edf6fa10d	711986623	1	main_z	11	main_z	35	stimuli_distractor_trianglediamonds.svg	stimuli_target_trianglecircles.svg	25	yes	44	1	583
6.6.1	mac	2022-12-24	19:05:06	19:12:43	456080	5dc87423f9d4a05edf6fa10d	711986623	1	main_z	11	advance_on_keypress_ZEE	36	stimuli_distractor_trianglediamonds.svg	stimuli_target_trianglecircles.svg	25	yes	57	0	292
6.6.1	mac	2022-12-24	19:05:06	19:12:46	458999	5dc87423f9d4a05edf6fa10d	711986623	1	main_z	11	main_z	37	stimuli_distractor_diamondtriangles.svg	stimuli_target_trianglesquares.svg	30	yes	0	0	2000
6.6.1	mac	2022-12-24	19:05:06	19:12:46	458999	5dc87423f9d4a05edf6fa10d	711986623	1	main_z	11	advance_on_keypress_ZEE	38	stimuli_distractor_diamondtriangles.svg	stimuli_target_trianglesquares.svg	30	yes	57	0	387
6.6.1	mac	2022-12-24	19:05:06	19:12:49	462015	5dc87423f9d4a05edf6fa10d	711986623	1	main_z	11	main_z	39	stimuli_distractor_trianglediamonds.svg	stimuli_distractor_trianglediamonds.svg	34	no	0	1	2000
6.6.1	mac	2022-12-24	19:05:06	19:12:49	462015	5dc87423f9d4a05edf6fa10d	711986623	1	main_z	11	advance_on_keypress_ZEE	40	stimuli_distractor_trianglediamonds.svg	stimuli_distractor_trianglediamonds.svg	34	no	57	0	369
6.6.1	mac	2022-12-24	19:05:06	19:12:51	463499	5dc87423f9d4a05edf6fa10d	711986623	1	main_z	11	main_z	41	stimuli_distractor_diamondtriangles.svg	stimuli_target_circlediamonds.svg	14	yes	44	1	485
6.6.1	mac	2022-12-24	19:05:06	19:12:51	463499	5dc87423f9d4a05edf6fa10d	711986623	1	main_z	11	advance_on_keypress_ZEE	42	stimuli_distractor_diamondtriangles.svg	stimuli_target_circlediamonds.svg	14	yes	57	0	223
6.6.1	mac	2022-12-24	19:05:06	19:12:54	466349	5dc87423f9d4a05edf6fa10d	711986623	1	main_z	11	main_z	43	stimuli_target_circletriangles.svg	stimuli_distractor_diamondtriangles.svg	5	yes	0	0	2000
6.6.1	mac	2022-12-24	19:05:06	19:12:54	466349	5dc87423f9d4a05edf6fa10d	711986623	1	main_z	11	advance_on_keypress_ZEE	44	stimuli_target_circletriangles.svg	stimuli_distractor_diamondtriangles.svg	5	yes	57	0	358
6.6.1	mac	2022-12-24	19:05:06	19:12:55	467755	5dc87423f9d4a05edf6fa10d	711986623	1	main_z	11	main_z	45	stimuli_target_circlediamonds.svg	stimuli_distractor_trianglediamonds.svg	2	yes	44	1	425
6.6.1	mac	2022-12-24	19:05:06	19:12:55	467755	5dc87423f9d4a05edf6fa10d	711986623	1	main_z	11	advance_on_keypress_ZEE	46	stimuli_target_circlediamonds.svg	stimuli_distractor_trianglediamonds.svg	2	yes	57	0	271
6.6.1	mac	2022-12-24	19:05:06	19:12:56	469203	5dc87423f9d4a05edf6fa10d	711986623	1	main_z	11	main_z	47	stimuli_target_squarediamonds.svg	stimuli_distractor_diamondtriangles.svg	8	yes	44	1	556
6.6.1	mac	2022-12-24	19:05:06	19:12:56	469203	5dc87423f9d4a05edf6fa10d	711986623	1	main_z	11	advance_on_keypress_ZEE	48	stimuli_target_squarediamonds.svg	stimuli_distractor_diamondtriangles.svg	8	yes	57	0	367
6.6.1	mac	2022-12-24	19:05:06	19:12:59	472199	5dc87423f9d4a05edf6fa10d	711986623	1	main_z	11	main_z	49	stimuli_distractor_trianglediamonds.svg	stimuli_target_circletriangles.svg	9	yes	0	0	2000
6.6.1	mac	2022-12-24	19:05:06	19:12:59	472199	5dc87423f9d4a05edf6fa10d	711986623	1	main_z	11	advance_on_keypress_ZEE	50	stimuli_distractor_trianglediamonds.svg	stimuli_target_circletriangles.svg	9	yes	57	0	430
6.6.1	mac	2022-12-24	19:05:06	19:13:02	475265	5dc87423f9d4a05edf6fa10d	711986623	1	main_z	11	main_z	51	stimuli_target_trianglecircles.svg	stimuli_distractor_diamondtriangles.svg	21	yes	0	0	2000
6.6.1	mac	2022-12-24	19:05:06	19:13:02	475265	5dc87423f9d4a05edf6fa10d	711986623	1	main_z	11	advance_on_keypress_ZEE	52	stimuli_target_trianglecircles.svg	stimuli_distractor_diamondtriangles.svg	21	yes	57	0	532
6.6.1	mac	2022-12-24	19:05:06	19:13:04	476686	5dc87423f9d4a05edf6fa10d	711986623	1	main_z	11	main_z	53	stimuli_target_trianglecircles.svg	stimuli_distractor_trianglediamonds.svg	17	yes	44	1	255
6.6.1	mac	2022-12-24	19:05:06	19:13:04	476686	5dc87423f9d4a05edf6fa10d	711986623	1	main_z	11	advance_on_keypress_ZEE	54	stimuli_target_trianglecircles.svg	stimuli_distractor_trianglediamonds.svg	17	yes	57	0	653
6.6.1	mac	2022-12-24	19:05:06	19:13:07	479965	5dc87423f9d4a05edf6fa10d	711986623	1	main_z	11	main_z	55	stimuli_target_trianglesquares.svg	stimuli_distractor_trianglediamonds.svg	18	yes	0	0	2000
6.6.1	mac	2022-12-24	19:05:06	19:13:07	479965	5dc87423f9d4a05edf6fa10d	711986623	1	main_z	11	advance_on_keypress_ZEE	56	stimuli_target_trianglesquares.svg	stimuli_distractor_trianglediamonds.svg	18	yes	57	0	418
6.6.1	mac	2022-12-24	19:05:06	19:13:09	481354	5dc87423f9d4a05edf6fa10d	711986623	1	main_z	11	main_z	57	stimuli_distractor_trianglediamonds.svg	stimuli_target_circlediamonds.svg	10	yes	44	1	340
6.6.1	mac	2022-12-24	19:05:06	19:13:09	481354	5dc87423f9d4a05edf6fa10d	711986623	1	main_z	11	advance_on_keypress_ZEE	58	stimuli_distractor_trianglediamonds.svg	stimuli_target_circlediamonds.svg	10	yes	57	0	567
6.6.1	mac	2022-12-24	19:05:06	19:13:12	484549	5dc87423f9d4a05edf6fa10d	711986623	1	main_z	11	main_z	59	stimuli_distractor_diamondtriangles.svg	stimuli_target_trianglecircles.svg	29	yes	0	0	2000
6.6.1	mac	2022-12-24	19:05:06	19:13:12	484549	5dc87423f9d4a05edf6fa10d	711986623	1	main_z	11	advance_on_keypress_ZEE	60	stimuli_distractor_diamondtriangles.svg	stimuli_target_trianglecircles.svg	29	yes	57	0	361
6.6.1	mac	2022-12-24	19:05:06	19:13:15	487548	5dc87423f9d4a05edf6fa10d	711986623	1	main_z	11	main_z	61	stimuli_distractor_diamondtriangles.svg	stimuli_target_squaretriangles.svg	15	yes	0	0	2000
6.6.1	mac	2022-12-24	19:05:06	19:13:15	487548	5dc87423f9d4a05edf6fa10d	711986623	1	main_z	11	advance_on_keypress_ZEE	62	stimuli_distractor_diamondtriangles.svg	stimuli_target_squaretriangles.svg	15	yes	57	0	1130
6.6.1	mac	2022-12-24	19:05:06	19:13:17	489764	5dc87423f9d4a05edf6fa10d	711986623	1	main_z	11	main_z	63	stimuli_distractor_trianglediamonds.svg	stimuli_target_squarediamonds.svg	12	yes	44	1	451
6.6.1	mac	2022-12-24	19:05:06	19:13:17	489764	5dc87423f9d4a05edf6fa10d	711986623	1	main_z	11	advance_on_keypress_ZEE	64	stimuli_distractor_trianglediamonds.svg	stimuli_target_squarediamonds.svg	12	yes	57	0	537
6.6.1	mac	2022-12-24	19:05:06	19:13:20	492932	5dc87423f9d4a05edf6fa10d	711986623	1	main_z	11	main_z	65	stimuli_distractor_trianglediamonds.svg	stimuli_target_diamondcircles.svg	27	yes	0	0	2000
6.6.1	mac	2022-12-24	19:05:06	19:13:20	492932	5dc87423f9d4a05edf6fa10d	711986623	1	main_z	11	advance_on_keypress_ZEE	66	stimuli_distractor_trianglediamonds.svg	stimuli_target_diamondcircles.svg	27	yes	57	0	1044
6.6.1	mac	2022-12-24	19:05:06	19:13:22	494998	5dc87423f9d4a05edf6fa10d	711986623	1	main_z	11	main_z	67	stimuli_target_squaretriangles.svg	stimuli_distractor_diamondtriangles.svg	7	yes	44	1	385
6.6.1	mac	2022-12-24	19:05:06	19:13:22	494998	5dc87423f9d4a05edf6fa10d	711986623	1	main_z	11	advance_on_keypress_ZEE	68	stimuli_target_squaretriangles.svg	stimuli_distractor_diamondtriangles.svg	7	yes	57	0	454
6.6.1	mac	2022-12-24	19:05:06	19:13:25	497971	5dc87423f9d4a05edf6fa10d	711986623	1	main_z	11	main_z	69	stimuli_distractor_trianglediamonds.svg	stimuli_distractor_diamondtriangles.svg	35	no	44	0	1888
6.6.1	mac	2022-12-24	19:05:06	19:13:25	497971	5dc87423f9d4a05edf6fa10d	711986623	1	main_z	11	advance_on_keypress_ZEE	70	stimuli_distractor_trianglediamonds.svg	stimuli_distractor_diamondtriangles.svg	35	no	57	0	433
6.6.1	mac	2022-12-24	19:05:06	19:13:28	501031	5dc87423f9d4a05edf6fa10d	711986623	1	main_z	11	main_z	71	stimuli_distractor_diamondtriangles.svg	stimuli_target_squarediamonds.svg	16	yes	0	0	2000
6.6.1	mac	2022-12-24	19:05:06	19:13:28	501031	5dc87423f9d4a05edf6fa10d	711986623	1	main_z	11	advance_on_keypress_ZEE	72	stimuli_distractor_diamondtriangles.svg	stimuli_target_squarediamonds.svg	16	yes	57	0	575
6.6.1	mac	2022-12-24	19:05:06	19:13:31	504232	5dc87423f9d4a05edf6fa10d	711986623	1	main_z	11	main_z	73	stimuli_distractor_diamondtriangles.svg	stimuli_target_diamondsquares.svg	32	yes	0	0	2000
6.6.1	mac	2022-12-24	19:05:06	19:13:31	504232	5dc87423f9d4a05edf6fa10d	711986623	1	main_z	11	advance_on_keypress_ZEE	74	stimuli_distractor_diamondtriangles.svg	stimuli_target_diamondsquares.svg	32	yes	57	0	1032
6.6.1	mac	2022-12-24	19:05:06	19:13:35	507899	5dc87423f9d4a05edf6fa10d	711986623	1	main_z	11	main_z	75	stimuli_target_trianglesquares.svg	stimuli_distractor_diamondtriangles.svg	22	yes	0	0	2000
6.6.1	mac	2022-12-24	19:05:06	19:13:35	507899	5dc87423f9d4a05edf6fa10d	711986623	1	main_z	11	advance_on_keypress_ZEE	76	stimuli_target_trianglesquares.svg	stimuli_distractor_diamondtriangles.svg	22	yes	57	0	450
6.6.1	mac	2022-12-24	19:05:06	19:13:37	509982	5dc87423f9d4a05edf6fa10d	711986623	1	main_z	11	main_z	77	stimuli_target_diamondsquares.svg	stimuli_distractor_trianglediamonds.svg	20	yes	44	1	1002
6.6.1	mac	2022-12-24	19:05:06	19:13:37	509982	5dc87423f9d4a05edf6fa10d	711986623	1	main_z	11	advance_on_keypress_ZEE	78	stimuli_target_diamondsquares.svg	stimuli_distractor_trianglediamonds.svg	20	yes	57	0	334
6.6.1	mac	2022-12-24	19:05:06	19:13:40	512948	5dc87423f9d4a05edf6fa10d	711986623	1	main_z	11	main_z	79	stimuli_distractor_trianglediamonds.svg	stimuli_target_squaretriangles.svg	11	yes	0	0	2000
6.6.1	mac	2022-12-24	19:05:06	19:13:40	512948	5dc87423f9d4a05edf6fa10d	711986623	1	main_z	11	advance_on_keypress_ZEE	80	stimuli_distractor_trianglediamonds.svg	stimuli_target_squaretriangles.svg	11	yes	57	0	763
6.6.1	mac	2022-12-24	19:05:06	19:13:44	516348	5dc87423f9d4a05edf6fa10d	711986623	1	main_z	11	main_z	81	stimuli_distractor_trianglediamonds.svg	stimuli_distractor_trianglediamonds.svg	34	no	0	1	2000
6.6.1	mac	2022-12-24	19:05:06	19:13:44	516348	5dc87423f9d4a05edf6fa10d	711986623	1	main_z	11	advance_on_keypress_ZEE	82	stimuli_distractor_trianglediamonds.svg	stimuli_distractor_trianglediamonds.svg	34	no	57	0	463
6.6.1	mac	2022-12-24	19:05:06	19:13:47	519448	5dc87423f9d4a05edf6fa10d	711986623	1	main_z	11	main_z	83	stimuli_distractor_diamondtriangles.svg	stimuli_target_trianglesquares.svg	30	yes	0	0	2000
6.6.1	mac	2022-12-24	19:05:06	19:13:47	519448	5dc87423f9d4a05edf6fa10d	711986623	1	main_z	11	advance_on_keypress_ZEE	84	stimuli_distractor_diamondtriangles.svg	stimuli_target_trianglesquares.svg	30	yes	57	0	435
6.6.1	mac	2022-12-24	19:05:06	19:13:50	522515	5dc87423f9d4a05edf6fa10d	711986623	1	main_z	11	main_z	85	stimuli_distractor_diamondtriangles.svg	stimuli_distractor_diamondtriangles.svg	39	no	0	1	2000
6.6.1	mac	2022-12-24	19:05:06	19:13:50	522515	5dc87423f9d4a05edf6fa10d	711986623	1	main_z	11	advance_on_keypress_ZEE	86	stimuli_distractor_diamondtriangles.svg	stimuli_distractor_diamondtriangles.svg	39	no	57	0	504
6.6.1	mac	2022-12-24	19:05:06	19:13:53	525649	5dc87423f9d4a05edf6fa10d	711986623	1	main_z	11	main_z	87	stimuli_target_squarediamonds.svg	stimuli_distractor_trianglediamonds.svg	4	yes	0	0	2000
6.6.1	mac	2022-12-24	19:05:06	19:13:53	525649	5dc87423f9d4a05edf6fa10d	711986623	1	main_z	11	advance_on_keypress_ZEE	88	stimuli_target_squarediamonds.svg	stimuli_distractor_trianglediamonds.svg	4	yes	57	0	128
6.6.1	mac	2022-12-24	19:05:06	19:13:56	528399	5dc87423f9d4a05edf6fa10d	711986623	1	main_z	11	main_z	89	stimuli_distractor_diamondtriangles.svg	stimuli_distractor_diamondtriangles.svg	40	no	0	1	2000
6.6.1	mac	2022-12-24	19:05:06	19:13:56	528399	5dc87423f9d4a05edf6fa10d	711986623	1	main_z	11	advance_on_keypress_ZEE	90	stimuli_distractor_diamondtriangles.svg	stimuli_distractor_diamondtriangles.svg	40	no	57	0	566
6.6.1	mac	2022-12-24	19:05:06	19:13:57	530104	5dc87423f9d4a05edf6fa10d	711986623	1	main_z	11	main_z	91	stimuli_target_circletriangles.svg	stimuli_distractor_trianglediamonds.svg	1	yes	44	1	507
6.6.1	mac	2022-12-24	19:05:06	19:13:57	530104	5dc87423f9d4a05edf6fa10d	711986623	1	main_z	11	advance_on_keypress_ZEE	92	stimuli_target_circletriangles.svg	stimuli_distractor_trianglediamonds.svg	1	yes	57	0	382
6.6.1	mac	2022-12-24	19:05:06	19:14:00	533115	5dc87423f9d4a05edf6fa10d	711986623	1	main_z	11	main_z	93	stimuli_target_squaretriangles.svg	stimuli_distractor_diamondtriangles.svg	7	yes	0	0	2000
6.6.1	mac	2022-12-24	19:05:06	19:14:00	533115	5dc87423f9d4a05edf6fa10d	711986623	1	main_z	11	advance_on_keypress_ZEE	94	stimuli_target_squaretriangles.svg	stimuli_distractor_diamondtriangles.svg	7	yes	57	0	385
6.6.1	mac	2022-12-24	19:05:06	19:14:03	536132	5dc87423f9d4a05edf6fa10d	711986623	1	main_z	11	main_z	95	stimuli_target_diamondcircles.svg	stimuli_distractor_trianglediamonds.svg	19	yes	0	0	2000
6.6.1	mac	2022-12-24	19:05:06	19:14:03	536132	5dc87423f9d4a05edf6fa10d	711986623	1	main_z	11	advance_on_keypress_ZEE	96	stimuli_target_diamondcircles.svg	stimuli_distractor_trianglediamonds.svg	19	yes	57	0	427
6.6.1	mac	2022-12-24	19:05:06	19:14:05	537915	5dc87423f9d4a05edf6fa10d	711986623	1	main_z	11	main_z	97	stimuli_target_circletriangles.svg	stimuli_distractor_diamondtriangles.svg	5	yes	44	1	718
6.6.1	mac	2022-12-24	19:05:06	19:14:05	537915	5dc87423f9d4a05edf6fa10d	711986623	1	main_z	11	advance_on_keypress_ZEE	98	stimuli_target_circletriangles.svg	stimuli_distractor_diamondtriangles.svg	5	yes	57	0	567
6.6.1	mac	2022-12-24	19:05:06	19:14:08	541116	5dc87423f9d4a05edf6fa10d	711986623	1	main_z	11	main_z	99	stimuli_target_circlediamonds.svg	stimuli_distractor_trianglediamonds.svg	2	yes	0	0	2000
6.6.1	mac	2022-12-24	19:05:06	19:14:08	541116	5dc87423f9d4a05edf6fa10d	711986623	1	main_z	11	advance_on_keypress_ZEE	100	stimuli_target_circlediamonds.svg	stimuli_distractor_trianglediamonds.svg	2	yes	57	0	350
6.6.1	mac	2022-12-24	19:05:06	19:14:10	542770	5dc87423f9d4a05edf6fa10d	711986623	1	main_z	11	main_z	101	stimuli_distractor_trianglediamonds.svg	stimuli_target_trianglecircles.svg	25	yes	44	1	673
6.6.1	mac	2022-12-24	19:05:06	19:14:10	542770	5dc87423f9d4a05edf6fa10d	711986623	1	main_z	11	advance_on_keypress_ZEE	102	stimuli_distractor_trianglediamonds.svg	stimuli_target_trianglecircles.svg	25	yes	57	0	464
6.6.1	mac	2022-12-24	19:05:06	19:14:13	545867	5dc87423f9d4a05edf6fa10d	711986623	1	main_z	11	main_z	103	stimuli_distractor_trianglediamonds.svg	stimuli_distractor_trianglediamonds.svg	33	no	0	1	2000
6.6.1	mac	2022-12-24	19:05:06	19:14:13	545867	5dc87423f9d4a05edf6fa10d	711986623	1	main_z	11	advance_on_keypress_ZEE	104	stimuli_distractor_trianglediamonds.svg	stimuli_distractor_trianglediamonds.svg	33	no	57	0	326
6.6.1	mac	2022-12-24	19:05:06	19:14:16	548816	5dc87423f9d4a05edf6fa10d	711986623	1	main_z	11	main_z	105	stimuli_target_diamondsquares.svg	stimuli_distractor_diamondtriangles.svg	24	yes	0	0	2000
6.6.1	mac	2022-12-24	19:05:06	19:14:16	548816	5dc87423f9d4a05edf6fa10d	711986623	1	main_z	11	advance_on_keypress_ZEE	106	stimuli_target_diamondsquares.svg	stimuli_distractor_diamondtriangles.svg	24	yes	57	0	483
6.6.1	mac	2022-12-24	19:05:06	19:14:17	550261	5dc87423f9d4a05edf6fa10d	711986623	1	main_z	11	main_z	107	stimuli_distractor_trianglediamonds.svg	stimuli_target_diamondsquares.svg	28	yes	44	1	330
6.6.1	mac	2022-12-24	19:05:06	19:14:17	550261	5dc87423f9d4a05edf6fa10d	711986623	1	main_z	11	advance_on_keypress_ZEE	108	stimuli_distractor_trianglediamonds.svg	stimuli_target_diamondsquares.svg	28	yes	57	0	493
6.6.1	mac	2022-12-24	19:05:06	19:14:19	551840	5dc87423f9d4a05edf6fa10d	711986623	1	main_z	11	main_z	109	stimuli_distractor_diamondtriangles.svg	stimuli_target_circletriangles.svg	13	yes	44	1	459
6.6.1	mac	2022-12-24	19:05:06	19:14:19	551840	5dc87423f9d4a05edf6fa10d	711986623	1	main_z	11	advance_on_keypress_ZEE	110	stimuli_distractor_diamondtriangles.svg	stimuli_target_circletriangles.svg	13	yes	57	0	370
6.6.1	mac	2022-12-24	19:05:06	19:14:21	553379	5dc87423f9d4a05edf6fa10d	711986623	1	main_z	11	main_z	111	stimuli_distractor_trianglediamonds.svg	stimuli_target_squarediamonds.svg	12	yes	44	1	549
6.6.1	mac	2022-12-24	19:05:06	19:14:21	553379	5dc87423f9d4a05edf6fa10d	711986623	1	main_z	11	advance_on_keypress_ZEE	112	stimuli_distractor_trianglediamonds.svg	stimuli_target_squarediamonds.svg	12	yes	57	0	272
6.6.1	mac	2022-12-24	19:05:06	19:14:23	556282	5dc87423f9d4a05edf6fa10d	711986623	1	main_z	11	main_z	113	stimuli_target_trianglesquares.svg	stimuli_distractor_diamondtriangles.svg	22	yes	0	0	2000
6.6.1	mac	2022-12-24	19:05:06	19:14:23	556282	5dc87423f9d4a05edf6fa10d	711986623	1	main_z	11	advance_on_keypress_ZEE	114	stimuli_target_trianglesquares.svg	stimuli_distractor_diamondtriangles.svg	22	yes	57	0	419
6.6.1	mac	2022-12-24	19:05:06	19:14:25	557660	5dc87423f9d4a05edf6fa10d	711986623	1	main_z	11	main_z	115	stimuli_distractor_diamondtriangles.svg	stimuli_target_circlediamonds.svg	14	yes	44	1	329
6.6.1	mac	2022-12-24	19:05:06	19:14:25	557660	5dc87423f9d4a05edf6fa10d	711986623	1	main_z	11	advance_on_keypress_ZEE	116	stimuli_distractor_diamondtriangles.svg	stimuli_target_circlediamonds.svg	14	yes	57	0	611
6.6.1	mac	2022-12-24	19:05:06	19:14:28	560882	5dc87423f9d4a05edf6fa10d	711986623	1	main_z	11	main_z	117	stimuli_distractor_trianglediamonds.svg	stimuli_distractor_diamondtriangles.svg	36	no	0	1	2000
6.6.1	mac	2022-12-24	19:05:06	19:14:28	560882	5dc87423f9d4a05edf6fa10d	711986623	1	main_z	11	advance_on_keypress_ZEE	118	stimuli_distractor_trianglediamonds.svg	stimuli_distractor_diamondtriangles.svg	36	no	57	0	448
6.6.1	mac	2022-12-24	19:05:06	19:14:29	562265	5dc87423f9d4a05edf6fa10d	711986623	1	main_z	11	main_z	119	stimuli_distractor_diamondtriangles.svg	stimuli_target_trianglecircles.svg	29	yes	44	1	301
6.6.1	mac	2022-12-24	19:05:06	19:14:29	562265	5dc87423f9d4a05edf6fa10d	711986623	1	main_z	11	advance_on_keypress_ZEE	120	stimuli_distractor_diamondtriangles.svg	stimuli_target_trianglecircles.svg	29	yes	57	0	419
6.6.1	mac	2022-12-24	19:05:06	19:14:31	563745	5dc87423f9d4a05edf6fa10d	711986623	1	main_z	11	main_z	121	stimuli_target_diamondsquares.svg	stimuli_distractor_trianglediamonds.svg	20	yes	44	1	431
6.6.1	mac	2022-12-24	19:05:06	19:14:31	563745	5dc87423f9d4a05edf6fa10d	711986623	1	main_z	11	advance_on_keypress_ZEE	122	stimuli_target_diamondsquares.svg	stimuli_distractor_trianglediamonds.svg	20	yes	57	0	380
6.6.1	mac	2022-12-24	19:05:06	19:14:34	566749	5dc87423f9d4a05edf6fa10d	711986623	1	main_z	11	main_z	123	stimuli_distractor_diamondtriangles.svg	stimuli_distractor_trianglediamonds.svg	38	no	0	1	2000
6.6.1	mac	2022-12-24	19:05:06	19:14:34	566749	5dc87423f9d4a05edf6fa10d	711986623	1	main_z	11	advance_on_keypress_ZEE	124	stimuli_distractor_diamondtriangles.svg	stimuli_distractor_trianglediamonds.svg	38	no	57	0	453
6.6.1	mac	2022-12-24	19:05:06	19:14:35	568278	5dc87423f9d4a05edf6fa10d	711986623	1	main_z	11	main_z	125	stimuli_target_circlediamonds.svg	stimuli_distractor_diamondtriangles.svg	6	yes	44	1	447
6.6.1	mac	2022-12-24	19:05:06	19:14:35	568278	5dc87423f9d4a05edf6fa10d	711986623	1	main_z	11	advance_on_keypress_ZEE	126	stimuli_target_circlediamonds.svg	stimuli_distractor_diamondtriangles.svg	6	yes	57	0	452
6.6.1	mac	2022-12-24	19:05:06	19:14:39	571364	5dc87423f9d4a05edf6fa10d	711986623	1	main_z	11	main_z	127	stimuli_distractor_diamondtriangles.svg	stimuli_target_squaretriangles.svg	15	yes	0	0	2000
6.6.1	mac	2022-12-24	19:05:06	19:14:39	571364	5dc87423f9d4a05edf6fa10d	711986623	1	main_z	11	advance_on_keypress_ZEE	128	stimuli_distractor_diamondtriangles.svg	stimuli_target_squaretriangles.svg	15	yes	57	0	411
6.6.1	mac	2022-12-24	19:05:06	19:14:42	574398	5dc87423f9d4a05edf6fa10d	711986623	1	main_z	11	main_z	129	stimuli_distractor_trianglediamonds.svg	stimuli_target_squaretriangles.svg	11	yes	0	0	2000
6.6.1	mac	2022-12-24	19:05:06	19:14:42	574398	5dc87423f9d4a05edf6fa10d	711986623	1	main_z	11	advance_on_keypress_ZEE	130	stimuli_distractor_trianglediamonds.svg	stimuli_target_squaretriangles.svg	11	yes	57	0	466
6.6.1	mac	2022-12-24	19:05:06	19:14:45	577499	5dc87423f9d4a05edf6fa10d	711986623	1	main_z	11	main_z	131	stimuli_distractor_diamondtriangles.svg	stimuli_target_diamondsquares.svg	32	yes	0	0	2000
6.6.1	mac	2022-12-24	19:05:06	19:14:45	577499	5dc87423f9d4a05edf6fa10d	711986623	1	main_z	11	advance_on_keypress_ZEE	132	stimuli_distractor_diamondtriangles.svg	stimuli_target_diamondsquares.svg	32	yes	57	0	470
6.6.1	mac	2022-12-24	19:05:06	19:14:46	578992	5dc87423f9d4a05edf6fa10d	711986623	1	main_z	11	main_z	133	stimuli_target_squarediamonds.svg	stimuli_distractor_diamondtriangles.svg	8	yes	44	1	396
6.6.1	mac	2022-12-24	19:05:06	19:14:46	578992	5dc87423f9d4a05edf6fa10d	711986623	1	main_z	11	advance_on_keypress_ZEE	134	stimuli_target_squarediamonds.svg	stimuli_distractor_diamondtriangles.svg	8	yes	57	0	299
6.6.1	mac	2022-12-24	19:05:06	19:14:49	581915	5dc87423f9d4a05edf6fa10d	711986623	1	main_z	11	main_z	135	stimuli_target_diamondcircles.svg	stimuli_distractor_diamondtriangles.svg	23	yes	0	0	2000
6.6.1	mac	2022-12-24	19:05:06	19:14:49	581915	5dc87423f9d4a05edf6fa10d	711986623	1	main_z	11	advance_on_keypress_ZEE	136	stimuli_target_diamondcircles.svg	stimuli_distractor_diamondtriangles.svg	23	yes	57	0	344
6.6.1	mac	2022-12-24	19:05:06	19:14:52	584899	5dc87423f9d4a05edf6fa10d	711986623	1	main_z	11	main_z	137	stimuli_target_trianglecircles.svg	stimuli_distractor_trianglediamonds.svg	17	yes	0	0	2000
6.6.1	mac	2022-12-24	19:05:06	19:14:52	584899	5dc87423f9d4a05edf6fa10d	711986623	1	main_z	11	advance_on_keypress_ZEE	138	stimuli_target_trianglecircles.svg	stimuli_distractor_trianglediamonds.svg	17	yes	57	0	616
6.6.1	mac	2022-12-24	19:05:06	19:14:55	588148	5dc87423f9d4a05edf6fa10d	711986623	1	main_z	11	main_z	139	stimuli_target_trianglesquares.svg	stimuli_distractor_trianglediamonds.svg	18	yes	0	0	2000
6.6.1	mac	2022-12-24	19:05:06	19:14:55	588148	5dc87423f9d4a05edf6fa10d	711986623	1	main_z	11	advance_on_keypress_ZEE	140	stimuli_target_trianglesquares.svg	stimuli_distractor_trianglediamonds.svg	18	yes	57	0	395
6.6.1	mac	2022-12-24	19:05:06	19:14:58	591181	5dc87423f9d4a05edf6fa10d	711986623	1	main_z	11	main_z	141	stimuli_distractor_diamondtriangles.svg	stimuli_target_squarediamonds.svg	16	yes	0	0	2000
6.6.1	mac	2022-12-24	19:05:06	19:14:58	591181	5dc87423f9d4a05edf6fa10d	711986623	1	main_z	11	advance_on_keypress_ZEE	142	stimuli_distractor_diamondtriangles.svg	stimuli_target_squarediamonds.svg	16	yes	57	0	459
6.6.1	mac	2022-12-24	19:05:06	19:15:00	592801	5dc87423f9d4a05edf6fa10d	711986623	1	main_z	11	main_z	143	stimuli_distractor_trianglediamonds.svg	stimuli_target_circletriangles.svg	9	yes	44	1	538
6.6.1	mac	2022-12-24	19:05:06	19:15:00	592801	5dc87423f9d4a05edf6fa10d	711986623	1	main_z	11	advance_on_keypress_ZEE	144	stimuli_distractor_trianglediamonds.svg	stimuli_target_circletriangles.svg	9	yes	57	0	340
6.6.1	mac	2022-12-24	19:05:06	19:15:03	595765	5dc87423f9d4a05edf6fa10d	711986623	1	main_z	11	main_z	145	stimuli_distractor_trianglediamonds.svg	stimuli_target_trianglesquares.svg	26	yes	0	0	2000
6.6.1	mac	2022-12-24	19:05:06	19:15:03	595765	5dc87423f9d4a05edf6fa10d	711986623	1	main_z	11	advance_on_keypress_ZEE	146	stimuli_distractor_trianglediamonds.svg	stimuli_target_trianglesquares.svg	26	yes	57	0	363
6.6.1	mac	2022-12-24	19:05:06	19:15:05	597433	5dc87423f9d4a05edf6fa10d	711986623	1	main_z	11	main_z	147	stimuli_distractor_trianglediamonds.svg	stimuli_target_diamondcircles.svg	27	yes	44	1	669
6.6.1	mac	2022-12-24	19:05:06	19:15:05	597433	5dc87423f9d4a05edf6fa10d	711986623	1	main_z	11	advance_on_keypress_ZEE	148	stimuli_distractor_trianglediamonds.svg	stimuli_target_diamondcircles.svg	27	yes	57	0	624
6.6.1	mac	2022-12-24	19:05:06	19:15:06	599146	5dc87423f9d4a05edf6fa10d	711986623	1	main_z	11	main_z	149	stimuli_distractor_trianglediamonds.svg	stimuli_target_circlediamonds.svg	10	yes	44	1	465
6.6.1	mac	2022-12-24	19:05:06	19:15:06	599146	5dc87423f9d4a05edf6fa10d	711986623	1	main_z	11	advance_on_keypress_ZEE	150	stimuli_distractor_trianglediamonds.svg	stimuli_target_circlediamonds.svg	10	yes	57	0	212
6.6.1	mac	2022-12-24	19:05:06	19:15:09	601999	5dc87423f9d4a05edf6fa10d	711986623	1	main_z	11	main_z	151	stimuli_distractor_diamondtriangles.svg	stimuli_distractor_trianglediamonds.svg	37	no	0	1	2000
6.6.1	mac	2022-12-24	19:05:06	19:15:09	601999	5dc87423f9d4a05edf6fa10d	711986623	1	main_z	11	advance_on_keypress_ZEE	152	stimuli_distractor_diamondtriangles.svg	stimuli_distractor_trianglediamonds.svg	37	no	57	0	296
6.6.1	mac	2022-12-24	19:05:06	19:15:11	603445	5dc87423f9d4a05edf6fa10d	711986623	1	main_z	11	main_z	153	stimuli_distractor_diamondtriangles.svg	stimuli_target_diamondcircles.svg	31	yes	44	1	514
6.6.1	mac	2022-12-24	19:05:06	19:15:11	603445	5dc87423f9d4a05edf6fa10d	711986623	1	main_z	11	advance_on_keypress_ZEE	154	stimuli_distractor_diamondtriangles.svg	stimuli_target_diamondcircles.svg	31	yes	57	0	285
6.6.1	mac	2022-12-24	19:05:06	19:15:12	604949	5dc87423f9d4a05edf6fa10d	711986623	1	main_z	11	main_z	155	stimuli_target_squaretriangles.svg	stimuli_distractor_trianglediamonds.svg	3	yes	44	1	585
6.6.1	mac	2022-12-24	19:05:06	19:15:12	604949	5dc87423f9d4a05edf6fa10d	711986623	1	main_z	11	advance_on_keypress_ZEE	156	stimuli_target_squaretriangles.svg	stimuli_distractor_trianglediamonds.svg	3	yes	57	0	249
6.6.1	mac	2022-12-24	19:05:06	19:15:15	607832	5dc87423f9d4a05edf6fa10d	711986623	1	main_z	11	main_z	157	stimuli_distractor_trianglediamonds.svg	stimuli_distractor_diamondtriangles.svg	35	no	0	1	2000
6.6.1	mac	2022-12-24	19:05:06	19:15:15	607832	5dc87423f9d4a05edf6fa10d	711986623	1	main_z	11	advance_on_keypress_ZEE	158	stimuli_distractor_trianglediamonds.svg	stimuli_distractor_diamondtriangles.svg	35	no	57	0	305
6.6.1	mac	2022-12-24	19:05:06	19:15:16	609193	5dc87423f9d4a05edf6fa10d	711986623	1	main_z	11	main_z	159	stimuli_target_trianglecircles.svg	stimuli_distractor_diamondtriangles.svg	21	yes	44	1	429
6.6.1	mac	2022-12-24	19:05:06	19:15:16	609193	5dc87423f9d4a05edf6fa10d	711986623	1	main_z	11	advance_on_keypress_ZEE	160	stimuli_target_trianglecircles.svg	stimuli_distractor_diamondtriangles.svg	21	yes	57	0	293