build	computer.platform	date	time	timestamp	time_elapsed_ms	subject	group	session	blockcode	blocknum	trialcode	trialnum	stimulus_left	stimulus_right	stim_index	target_present	response	correct	latency
6.6.1	win	2022-12-14	18:08:30	18:10:35	120847	5aa6e29435237b0001130d68	55714098	1	practice_z	5	practice_z	1	stimuli_distractor_diamondtriangles.svg	stimuli_target_circletriangles.svg	7	yes	44	1	1652
6.6.1	win	2022-12-14	18:08:30	18:10:35	120847	5aa6e29435237b0001130d68	55714098	1	practice_z	5	advance_on_keypress_ZEE	2	stimuli_distractor_diamondtriangles.svg	stimuli_target_circletriangles.svg	7	yes	57	0	1474
6.6.1	win	2022-12-14	18:08:30	18:10:40	125991	5aa6e29435237b0001130d68	55714098	1	practice_z	5	practice_z	3	stimuli_target_diamondsquares.svg	stimuli_distractor_diamondtriangles.svg	3	yes	0	0	2000
6.6.1	win	2022-12-14	18:08:30	18:10:40	125991	5aa6e29435237b0001130d68	55714098	1	practice_z	5	advance_on_keypress_ZEE	4	stimuli_target_diamondsquares.svg	stimuli_distractor_diamondtriangles.svg	3	yes	57	0	828
6.6.1	win	2022-12-14	18:08:30	18:10:43	129673	5aa6e29435237b0001130d68	55714098	1	practice_z	5	practice_z	5	stimuli_distractor_trianglediamonds.svg	stimuli_target_squarediamonds.svg	11	yes	44	1	1203
6.6.1	win	2022-12-14	18:08:30	18:10:43	129673	5aa6e29435237b0001130d68	55714098	1	practice_z	5	advance_on_keypress_ZEE	6	stimuli_distractor_trianglediamonds.svg	stimuli_target_squarediamonds.svg	11	yes	57	0	1042
6.6.1	win	2022-12-14	18:08:30	18:10:48	134120	5aa6e29435237b0001130d68	55714098	1	practice_z	5	practice_z	7	stimuli_target_diamondsquares.svg	stimuli_distractor_trianglediamonds.svg	6	yes	44	1	1753
6.6.1	win	2022-12-14	18:08:30	18:10:48	134120	5aa6e29435237b0001130d68	55714098	1	practice_z	5	advance_on_keypress_ZEE	8	stimuli_target_diamondsquares.svg	stimuli_distractor_trianglediamonds.svg	6	yes	57	0	585
6.6.1	win	2022-12-14	18:08:30	18:10:52	138347	5aa6e29435237b0001130d68	55714098	1	practice_z	5	practice_z	9	stimuli_distractor_trianglediamonds.svg	stimuli_target_diamondcircles.svg	12	yes	0	0	2000
6.6.1	win	2022-12-14	18:08:30	18:10:52	138347	5aa6e29435237b0001130d68	55714098	1	practice_z	5	advance_on_keypress_ZEE	10	stimuli_distractor_trianglediamonds.svg	stimuli_target_diamondcircles.svg	12	yes	57	0	516
6.6.1	win	2022-12-14	18:08:30	18:10:56	142511	5aa6e29435237b0001130d68	55714098	1	practice_z	5	practice_z	11	stimuli_distractor_diamondtriangles.svg	stimuli_target_trianglecircles.svg	9	yes	0	0	2000
6.6.1	win	2022-12-14	18:08:30	18:10:56	142511	5aa6e29435237b0001130d68	55714098	1	practice_z	5	advance_on_keypress_ZEE	12	stimuli_distractor_diamondtriangles.svg	stimuli_target_trianglecircles.svg	9	yes	57	0	764
6.6.1	win	2022-12-14	18:08:30	18:10:59	145692	5aa6e29435237b0001130d68	55714098	1	practice_z	5	practice_z	13	stimuli_target_squarediamonds.svg	stimuli_distractor_trianglediamonds.svg	5	yes	44	1	768
6.6.1	win	2022-12-14	18:08:30	18:10:59	145692	5aa6e29435237b0001130d68	55714098	1	practice_z	5	advance_on_keypress_ZEE	14	stimuli_target_squarediamonds.svg	stimuli_distractor_trianglediamonds.svg	5	yes	57	0	502
6.6.1	win	2022-12-14	18:08:30	18:11:03	149838	5aa6e29435237b0001130d68	55714098	1	practice_z	5	practice_z	15	stimuli_distractor_diamondtriangles.svg	stimuli_target_diamondcircles.svg	8	yes	0	0	2000
6.6.1	win	2022-12-14	18:08:30	18:11:03	149838	5aa6e29435237b0001130d68	55714098	1	practice_z	5	advance_on_keypress_ZEE	16	stimuli_distractor_diamondtriangles.svg	stimuli_target_diamondcircles.svg	8	yes	57	0	590
6.6.1	win	2022-12-14	18:08:30	18:11:08	154068	5aa6e29435237b0001130d68	55714098	1	practice_z	5	practice_z	17	stimuli_distractor_trianglediamonds.svg	stimuli_distractor_trianglediamonds.svg	15	no	0	1	2000
6.6.1	win	2022-12-14	18:08:30	18:11:08	154068	5aa6e29435237b0001130d68	55714098	1	practice_z	5	advance_on_keypress_ZEE	18	stimuli_distractor_trianglediamonds.svg	stimuli_distractor_trianglediamonds.svg	15	no	57	0	604
6.6.1	win	2022-12-14	18:08:30	18:11:11	157010	5aa6e29435237b0001130d68	55714098	1	practice_z	5	practice_z	19	stimuli_target_circlediamonds.svg	stimuli_distractor_trianglediamonds.svg	4	yes	44	1	696
6.6.1	win	2022-12-14	18:08:30	18:11:11	157010	5aa6e29435237b0001130d68	55714098	1	practice_z	5	advance_on_keypress_ZEE	20	stimuli_target_circlediamonds.svg	stimuli_distractor_trianglediamonds.svg	4	yes	57	0	199
6.6.1	win	2022-12-14	18:08:30	18:11:13	159432	5aa6e29435237b0001130d68	55714098	1	practice_z	5	practice_z	21	stimuli_target_circlediamonds.svg	stimuli_distractor_diamondtriangles.svg	1	yes	44	1	569
6.6.1	win	2022-12-14	18:08:30	18:11:13	159432	5aa6e29435237b0001130d68	55714098	1	practice_z	5	advance_on_keypress_ZEE	22	stimuli_target_circlediamonds.svg	stimuli_distractor_diamondtriangles.svg	1	yes	57	0	420
6.6.1	win	2022-12-14	18:08:30	18:11:17	163493	5aa6e29435237b0001130d68	55714098	1	practice_z	5	practice_z	23	stimuli_distractor_trianglediamonds.svg	stimuli_distractor_diamondtriangles.svg	16	no	0	1	2000
6.6.1	win	2022-12-14	18:08:30	18:11:17	163493	5aa6e29435237b0001130d68	55714098	1	practice_z	5	advance_on_keypress_ZEE	24	stimuli_distractor_trianglediamonds.svg	stimuli_distractor_diamondtriangles.svg	16	no	57	0	315
6.6.1	win	2022-12-14	18:08:30	18:11:20	166053	5aa6e29435237b0001130d68	55714098	1	practice_z	5	practice_z	25	stimuli_target_squarediamonds.svg	stimuli_distractor_diamondtriangles.svg	2	yes	44	1	596
6.6.1	win	2022-12-14	18:08:30	18:11:20	166053	5aa6e29435237b0001130d68	55714098	1	practice_z	5	advance_on_keypress_ZEE	26	stimuli_target_squarediamonds.svg	stimuli_distractor_diamondtriangles.svg	2	yes	57	0	1003
6.6.1	win	2022-12-14	18:08:30	18:11:23	169348	5aa6e29435237b0001130d68	55714098	1	practice_z	5	practice_z	27	stimuli_distractor_trianglediamonds.svg	stimuli_target_circlediamonds.svg	10	yes	44	1	644
6.6.1	win	2022-12-14	18:08:30	18:11:23	169348	5aa6e29435237b0001130d68	55714098	1	practice_z	5	advance_on_keypress_ZEE	28	stimuli_distractor_trianglediamonds.svg	stimuli_target_circlediamonds.svg	10	yes	57	0	538
6.6.1	win	2022-12-14	18:08:30	18:11:27	173535	5aa6e29435237b0001130d68	55714098	1	practice_z	5	practice_z	29	stimuli_distractor_diamondtriangles.svg	stimuli_distractor_diamondtriangles.svg	13	no	0	1	2000
6.6.1	win	2022-12-14	18:08:30	18:11:27	173535	5aa6e29435237b0001130d68	55714098	1	practice_z	5	advance_on_keypress_ZEE	30	stimuli_distractor_diamondtriangles.svg	stimuli_distractor_diamondtriangles.svg	13	no	57	0	342
6.6.1	win	2022-12-14	18:08:30	18:11:31	177532	5aa6e29435237b0001130d68	55714098	1	practice_z	5	practice_z	31	stimuli_distractor_diamondtriangles.svg	stimuli_distractor_trianglediamonds.svg	14	no	0	1	2000
6.6.1	win	2022-12-14	18:08:30	18:11:31	177532	5aa6e29435237b0001130d68	55714098	1	practice_z	5	advance_on_keypress_ZEE	32	stimuli_distractor_diamondtriangles.svg	stimuli_distractor_trianglediamonds.svg	14	no	57	0	365
6.6.1	win	2022-12-14	18:08:30	18:11:39	185810	5aa6e29435237b0001130d68	55714098	1	main_z	7	main_z	1	stimuli_distractor_diamondtriangles.svg	stimuli_target_squaretriangles.svg	15	yes	44	1	590
6.6.1	win	2022-12-14	18:08:30	18:11:39	185810	5aa6e29435237b0001130d68	55714098	1	main_z	7	advance_on_keypress_ZEE	2	stimuli_distractor_diamondtriangles.svg	stimuli_target_squaretriangles.svg	15	yes	57	0	1303
6.6.1	win	2022-12-14	18:08:30	18:11:43	189768	5aa6e29435237b0001130d68	55714098	1	main_z	7	main_z	3	stimuli_target_diamondsquares.svg	stimuli_distractor_trianglediamonds.svg	20	yes	0	0	2000
6.6.1	win	2022-12-14	18:08:30	18:11:43	189768	5aa6e29435237b0001130d68	55714098	1	main_z	7	advance_on_keypress_ZEE	4	stimuli_target_diamondsquares.svg	stimuli_distractor_trianglediamonds.svg	20	yes	57	0	524
6.6.1	win	2022-12-14	18:08:30	18:11:46	191892	5aa6e29435237b0001130d68	55714098	1	main_z	7	main_z	5	stimuli_distractor_trianglediamonds.svg	stimuli_target_trianglecircles.svg	25	yes	44	1	960
6.6.1	win	2022-12-14	18:08:30	18:11:46	191892	5aa6e29435237b0001130d68	55714098	1	main_z	7	advance_on_keypress_ZEE	6	stimuli_distractor_trianglediamonds.svg	stimuli_target_trianglecircles.svg	25	yes	57	0	1098
6.6.1	win	2022-12-14	18:08:30	18:11:49	194862	5aa6e29435237b0001130d68	55714098	1	main_z	7	main_z	7	stimuli_distractor_diamondtriangles.svg	stimuli_target_diamondsquares.svg	32	yes	44	1	1216
6.6.1	win	2022-12-14	18:08:30	18:11:49	194862	5aa6e29435237b0001130d68	55714098	1	main_z	7	advance_on_keypress_ZEE	8	stimuli_distractor_diamondtriangles.svg	stimuli_target_diamondsquares.svg	32	yes	57	0	598
6.6.1	win	2022-12-14	18:08:30	18:11:51	196868	5aa6e29435237b0001130d68	55714098	1	main_z	7	main_z	9	stimuli_distractor_diamondtriangles.svg	stimuli_target_diamondcircles.svg	31	yes	44	1	757
6.6.1	win	2022-12-14	18:08:30	18:11:51	196868	5aa6e29435237b0001130d68	55714098	1	main_z	7	advance_on_keypress_ZEE	10	stimuli_distractor_diamondtriangles.svg	stimuli_target_diamondcircles.svg	31	yes	57	0	734
6.6.1	win	2022-12-14	18:08:30	18:11:54	200243	5aa6e29435237b0001130d68	55714098	1	main_z	7	main_z	11	stimuli_target_trianglesquares.svg	stimuli_distractor_trianglediamonds.svg	18	yes	0	0	2000
6.6.1	win	2022-12-14	18:08:30	18:11:54	200243	5aa6e29435237b0001130d68	55714098	1	main_z	7	advance_on_keypress_ZEE	12	stimuli_target_trianglesquares.svg	stimuli_distractor_trianglediamonds.svg	18	yes	57	0	56
6.6.1	win	2022-12-14	18:08:30	18:11:56	201938	5aa6e29435237b0001130d68	55714098	1	main_z	7	main_z	13	stimuli_target_diamondcircles.svg	stimuli_distractor_diamondtriangles.svg	23	yes	44	1	997
6.6.1	win	2022-12-14	18:08:30	18:11:56	201938	5aa6e29435237b0001130d68	55714098	1	main_z	7	advance_on_keypress_ZEE	14	stimuli_target_diamondcircles.svg	stimuli_distractor_diamondtriangles.svg	23	yes	57	0	644
6.6.1	win	2022-12-14	18:08:30	18:11:58	203917	5aa6e29435237b0001130d68	55714098	1	main_z	7	main_z	15	stimuli_distractor_diamondtriangles.svg	stimuli_target_squarediamonds.svg	16	yes	44	1	678
6.6.1	win	2022-12-14	18:08:30	18:11:58	203917	5aa6e29435237b0001130d68	55714098	1	main_z	7	advance_on_keypress_ZEE	16	stimuli_distractor_diamondtriangles.svg	stimuli_target_squarediamonds.svg	16	yes	57	0	769
6.6.1	win	2022-12-14	18:08:30	18:12:01	207337	5aa6e29435237b0001130d68	55714098	1	main_z	7	main_z	17	stimuli_distractor_diamondtriangles.svg	stimuli_distractor_trianglediamonds.svg	38	no	0	1	2000
6.6.1	win	2022-12-14	18:08:30	18:12:01	207337	5aa6e29435237b0001130d68	55714098	1	main_z	7	advance_on_keypress_ZEE	18	stimuli_distractor_diamondtriangles.svg	stimuli_distractor_trianglediamonds.svg	38	no	57	0	459
6.6.1	win	2022-12-14	18:08:30	18:12:03	209658	5aa6e29435237b0001130d68	55714098	1	main_z	7	main_z	19	stimuli_target_diamondcircles.svg	stimuli_distractor_trianglediamonds.svg	19	yes	44	1	1224
6.6.1	win	2022-12-14	18:08:30	18:12:03	209658	5aa6e29435237b0001130d68	55714098	1	main_z	7	advance_on_keypress_ZEE	20	stimuli_target_diamondcircles.svg	stimuli_distractor_trianglediamonds.svg	19	yes	57	0	850
6.6.1	win	2022-12-14	18:08:30	18:12:05	211804	5aa6e29435237b0001130d68	55714098	1	main_z	7	main_z	21	stimuli_distractor_diamondtriangles.svg	stimuli_target_circlediamonds.svg	14	yes	44	1	656
6.6.1	win	2022-12-14	18:08:30	18:12:05	211804	5aa6e29435237b0001130d68	55714098	1	main_z	7	advance_on_keypress_ZEE	22	stimuli_distractor_diamondtriangles.svg	stimuli_target_circlediamonds.svg	14	yes	57	0	661
6.6.1	win	2022-12-14	18:08:30	18:12:07	213716	5aa6e29435237b0001130d68	55714098	1	main_z	7	main_z	23	stimuli_target_circletriangles.svg	stimuli_distractor_diamondtriangles.svg	5	yes	44	1	602
6.6.1	win	2022-12-14	18:08:30	18:12:07	213716	5aa6e29435237b0001130d68	55714098	1	main_z	7	advance_on_keypress_ZEE	24	stimuli_target_circletriangles.svg	stimuli_distractor_diamondtriangles.svg	5	yes	57	0	447
6.6.1	win	2022-12-14	18:08:30	18:12:09	215439	5aa6e29435237b0001130d68	55714098	1	main_z	7	main_z	25	stimuli_target_squarediamonds.svg	stimuli_distractor_diamondtriangles.svg	8	yes	44	1	626
6.6.1	win	2022-12-14	18:08:30	18:12:09	215439	5aa6e29435237b0001130d68	55714098	1	main_z	7	advance_on_keypress_ZEE	26	stimuli_target_squarediamonds.svg	stimuli_distractor_diamondtriangles.svg	8	yes	57	0	397
6.6.1	win	2022-12-14	18:08:30	18:12:11	217410	5aa6e29435237b0001130d68	55714098	1	main_z	7	main_z	27	stimuli_distractor_diamondtriangles.svg	stimuli_target_trianglesquares.svg	30	yes	44	1	932
6.6.1	win	2022-12-14	18:08:30	18:12:11	217410	5aa6e29435237b0001130d68	55714098	1	main_z	7	advance_on_keypress_ZEE	28	stimuli_distractor_diamondtriangles.svg	stimuli_target_trianglesquares.svg	30	yes	57	0	353
6.6.1	win	2022-12-14	18:08:30	18:12:13	219741	5aa6e29435237b0001130d68	55714098	1	main_z	7	main_z	29	stimuli_distractor_trianglediamonds.svg	stimuli_target_diamondsquares.svg	28	yes	44	1	1331
6.6.1	win	2022-12-14	18:08:30	18:12:13	219741	5aa6e29435237b0001130d68	55714098	1	main_z	7	advance_on_keypress_ZEE	30	stimuli_distractor_trianglediamonds.svg	stimuli_target_diamondsquares.svg	28	yes	57	0	324
6.6.1	win	2022-12-14	18:08:30	18:12:15	221313	5aa6e29435237b0001130d68	55714098	1	main_z	7	main_z	31	stimuli_target_trianglecircles.svg	stimuli_distractor_trianglediamonds.svg	17	yes	44	1	606
6.6.1	win	2022-12-14	18:08:30	18:12:15	221313	5aa6e29435237b0001130d68	55714098	1	main_z	7	advance_on_keypress_ZEE	32	stimuli_target_trianglecircles.svg	stimuli_distractor_trianglediamonds.svg	17	yes	57	0	638
6.6.1	win	2022-12-14	18:08:30	18:12:17	223303	5aa6e29435237b0001130d68	55714098	1	main_z	7	main_z	33	stimuli_distractor_diamondtriangles.svg	stimuli_target_trianglecircles.svg	29	yes	44	1	714
6.6.1	win	2022-12-14	18:08:30	18:12:17	223303	5aa6e29435237b0001130d68	55714098	1	main_z	7	advance_on_keypress_ZEE	34	stimuli_distractor_diamondtriangles.svg	stimuli_target_trianglecircles.svg	29	yes	57	0	466
6.6.1	win	2022-12-14	18:08:30	18:12:19	225482	5aa6e29435237b0001130d68	55714098	1	main_z	7	main_z	35	stimuli_target_circletriangles.svg	stimuli_distractor_trianglediamonds.svg	1	yes	44	1	1060
6.6.1	win	2022-12-14	18:08:30	18:12:19	225482	5aa6e29435237b0001130d68	55714098	1	main_z	7	advance_on_keypress_ZEE	36	stimuli_target_circletriangles.svg	stimuli_distractor_trianglediamonds.svg	1	yes	57	0	564
6.6.1	win	2022-12-14	18:08:30	18:12:22	228703	5aa6e29435237b0001130d68	55714098	1	main_z	7	main_z	37	stimuli_distractor_trianglediamonds.svg	stimuli_distractor_diamondtriangles.svg	35	no	0	1	2000
6.6.1	win	2022-12-14	18:08:30	18:12:22	228703	5aa6e29435237b0001130d68	55714098	1	main_z	7	advance_on_keypress_ZEE	38	stimuli_distractor_trianglediamonds.svg	stimuli_distractor_diamondtriangles.svg	35	no	57	0	262
6.6.1	win	2022-12-14	18:08:30	18:12:24	230150	5aa6e29435237b0001130d68	55714098	1	main_z	7	main_z	39	stimuli_target_trianglecircles.svg	stimuli_distractor_diamondtriangles.svg	21	yes	44	1	532
6.6.1	win	2022-12-14	18:08:30	18:12:24	230150	5aa6e29435237b0001130d68	55714098	1	main_z	7	advance_on_keypress_ZEE	40	stimuli_target_trianglecircles.svg	stimuli_distractor_diamondtriangles.svg	21	yes	57	0	840
6.6.1	win	2022-12-14	18:08:30	18:12:26	232344	5aa6e29435237b0001130d68	55714098	1	main_z	7	main_z	41	stimuli_target_diamondsquares.svg	stimuli_distractor_diamondtriangles.svg	24	yes	44	1	712
6.6.1	win	2022-12-14	18:08:30	18:12:26	232344	5aa6e29435237b0001130d68	55714098	1	main_z	7	advance_on_keypress_ZEE	42	stimuli_target_diamondsquares.svg	stimuli_distractor_diamondtriangles.svg	24	yes	57	0	603
6.6.1	win	2022-12-14	18:08:30	18:12:28	234401	5aa6e29435237b0001130d68	55714098	1	main_z	7	main_z	43	stimuli_distractor_trianglediamonds.svg	stimuli_target_diamondcircles.svg	27	yes	44	1	803
6.6.1	win	2022-12-14	18:08:30	18:12:28	234401	5aa6e29435237b0001130d68	55714098	1	main_z	7	advance_on_keypress_ZEE	44	stimuli_distractor_trianglediamonds.svg	stimuli_target_diamondcircles.svg	27	yes	57	0	462
6.6.1	win	2022-12-14	18:08:30	18:12:31	237512	5aa6e29435237b0001130d68	55714098	1	main_z	7	main_z	45	stimuli_distractor_diamondtriangles.svg	stimuli_distractor_diamondtriangles.svg	39	no	0	1	2000
6.6.1	win	2022-12-14	18:08:30	18:12:31	237512	5aa6e29435237b0001130d68	55714098	1	main_z	7	advance_on_keypress_ZEE	46	stimuli_distractor_diamondtriangles.svg	stimuli_distractor_diamondtriangles.svg	39	no	57	0	233
6.6.1	win	2022-12-14	18:08:30	18:12:34	240393	5aa6e29435237b0001130d68	55714098	1	main_z	7	main_z	47	stimuli_distractor_diamondtriangles.svg	stimuli_distractor_trianglediamonds.svg	37	no	0	1	2000
6.6.1	win	2022-12-14	18:08:30	18:12:34	240393	5aa6e29435237b0001130d68	55714098	1	main_z	7	advance_on_keypress_ZEE	48	stimuli_distractor_diamondtriangles.svg	stimuli_distractor_trianglediamonds.svg	37	no	57	0	508
6.6.1	win	2022-12-14	18:08:30	18:12:36	242054	5aa6e29435237b0001130d68	55714098	1	main_z	7	main_z	49	stimuli_target_circlediamonds.svg	stimuli_distractor_trianglediamonds.svg	2	yes	44	1	504
6.6.1	win	2022-12-14	18:08:30	18:12:36	242054	5aa6e29435237b0001130d68	55714098	1	main_z	7	advance_on_keypress_ZEE	50	stimuli_target_circlediamonds.svg	stimuli_distractor_trianglediamonds.svg	2	yes	57	0	544
6.6.1	win	2022-12-14	18:08:30	18:12:37	243781	5aa6e29435237b0001130d68	55714098	1	main_z	7	main_z	51	stimuli_target_squaretriangles.svg	stimuli_distractor_diamondtriangles.svg	7	yes	44	1	525
6.6.1	win	2022-12-14	18:08:30	18:12:37	243781	5aa6e29435237b0001130d68	55714098	1	main_z	7	advance_on_keypress_ZEE	52	stimuli_target_squaretriangles.svg	stimuli_distractor_diamondtriangles.svg	7	yes	57	0	321
6.6.1	win	2022-12-14	18:08:30	18:12:39	245208	5aa6e29435237b0001130d68	55714098	1	main_z	7	main_z	53	stimuli_target_squaretriangles.svg	stimuli_distractor_trianglediamonds.svg	3	yes	44	1	471
6.6.1	win	2022-12-14	18:08:30	18:12:39	245208	5aa6e29435237b0001130d68	55714098	1	main_z	7	advance_on_keypress_ZEE	54	stimuli_target_squaretriangles.svg	stimuli_distractor_trianglediamonds.svg	3	yes	57	0	309
6.6.1	win	2022-12-14	18:08:30	18:12:42	248153	5aa6e29435237b0001130d68	55714098	1	main_z	7	main_z	55	stimuli_distractor_trianglediamonds.svg	stimuli_distractor_diamondtriangles.svg	36	no	0	1	2000
6.6.1	win	2022-12-14	18:08:30	18:12:42	248153	5aa6e29435237b0001130d68	55714098	1	main_z	7	advance_on_keypress_ZEE	56	stimuli_distractor_trianglediamonds.svg	stimuli_distractor_diamondtriangles.svg	36	no	57	0	460
6.6.1	win	2022-12-14	18:08:30	18:12:44	249960	5aa6e29435237b0001130d68	55714098	1	main_z	7	main_z	57	stimuli_distractor_diamondtriangles.svg	stimuli_target_circletriangles.svg	13	yes	44	1	692
6.6.1	win	2022-12-14	18:08:30	18:12:44	249960	5aa6e29435237b0001130d68	55714098	1	main_z	7	advance_on_keypress_ZEE	58	stimuli_distractor_diamondtriangles.svg	stimuli_target_circletriangles.svg	13	yes	57	0	415
6.6.1	win	2022-12-14	18:08:30	18:12:46	251888	5aa6e29435237b0001130d68	55714098	1	main_z	7	main_z	59	stimuli_target_circlediamonds.svg	stimuli_distractor_diamondtriangles.svg	6	yes	44	1	872
6.6.1	win	2022-12-14	18:08:30	18:12:46	251888	5aa6e29435237b0001130d68	55714098	1	main_z	7	advance_on_keypress_ZEE	60	stimuli_target_circlediamonds.svg	stimuli_distractor_diamondtriangles.svg	6	yes	57	0	500
6.6.1	win	2022-12-14	18:08:30	18:12:49	255031	5aa6e29435237b0001130d68	55714098	1	main_z	7	main_z	61	stimuli_distractor_diamondtriangles.svg	stimuli_distractor_diamondtriangles.svg	40	no	0	1	2000
6.6.1	win	2022-12-14	18:08:30	18:12:49	255031	5aa6e29435237b0001130d68	55714098	1	main_z	7	advance_on_keypress_ZEE	62	stimuli_distractor_diamondtriangles.svg	stimuli_distractor_diamondtriangles.svg	40	no	57	0	511
6.6.1	win	2022-12-14	18:08:30	18:12:52	258195	5aa6e29435237b0001130d68	55714098	1	main_z	7	main_z	63	stimuli_distractor_trianglediamonds.svg	stimuli_distractor_trianglediamonds.svg	33	no	0	1	2000
6.6.1	win	2022-12-14	18:08:30	18:12:52	258195	5aa6e29435237b0001130d68	55714098	1	main_z	7	advance_on_keypress_ZEE	64	stimuli_distractor_trianglediamonds.svg	stimuli_distractor_trianglediamonds.svg	33	no	57	0	436
6.6.1	win	2022-12-14	18:08:30	18:12:55	261276	5aa6e29435237b0001130d68	55714098	1	main_z	7	main_z	65	stimuli_distractor_trianglediamonds.svg	stimuli_distractor_trianglediamonds.svg	34	no	0	1	2000
6.6.1	win	2022-12-14	18:08:30	18:12:55	261276	5aa6e29435237b0001130d68	55714098	1	main_z	7	advance_on_keypress_ZEE	66	stimuli_distractor_trianglediamonds.svg	stimuli_distractor_trianglediamonds.svg	34	no	57	0	283
6.6.1	win	2022-12-14	18:08:30	18:12:56	262721	5aa6e29435237b0001130d68	55714098	1	main_z	7	main_z	67	stimuli_distractor_trianglediamonds.svg	stimuli_target_circlediamonds.svg	10	yes	44	1	504
6.6.1	win	2022-12-14	18:08:30	18:12:56	262721	5aa6e29435237b0001130d68	55714098	1	main_z	7	advance_on_keypress_ZEE	68	stimuli_distractor_trianglediamonds.svg	stimuli_target_circlediamonds.svg	10	yes	57	0	492
6.6.1	win	2022-12-14	18:08:30	18:12:58	264504	5aa6e29435237b0001130d68	55714098	1	main_z	7	main_z	69	stimuli_distractor_trianglediamonds.svg	stimuli_target_squaretriangles.svg	11	yes	44	1	649
6.6.1	win	2022-12-14	18:08:30	18:12:58	264504	5aa6e29435237b0001130d68	55714098	1	main_z	7	advance_on_keypress_ZEE	70	stimuli_distractor_trianglediamonds.svg	stimuli_target_squaretriangles.svg	11	yes	57	0	570
6.6.1	win	2022-12-14	18:08:30	18:13:01	266929	5aa6e29435237b0001130d68	55714098	1	main_z	7	main_z	71	stimuli_target_squarediamonds.svg	stimuli_distractor_trianglediamonds.svg	4	yes	44	1	1208
6.6.1	win	2022-12-14	18:08:30	18:13:01	266929	5aa6e29435237b0001130d68	55714098	1	main_z	7	advance_on_keypress_ZEE	72	stimuli_target_squarediamonds.svg	stimuli_distractor_trianglediamonds.svg	4	yes	57	0	446
6.6.1	win	2022-12-14	18:08:30	18:13:02	268627	5aa6e29435237b0001130d68	55714098	1	main_z	7	main_z	73	stimuli_distractor_trianglediamonds.svg	stimuli_target_trianglesquares.svg	26	yes	44	1	608
6.6.1	win	2022-12-14	18:08:30	18:13:02	268627	5aa6e29435237b0001130d68	55714098	1	main_z	7	advance_on_keypress_ZEE	74	stimuli_distractor_trianglediamonds.svg	stimuli_target_trianglesquares.svg	26	yes	57	0	462
6.6.1	win	2022-12-14	18:08:30	18:13:04	270534	5aa6e29435237b0001130d68	55714098	1	main_z	7	main_z	75	stimuli_target_trianglesquares.svg	stimuli_distractor_diamondtriangles.svg	22	yes	44	1	800
6.6.1	win	2022-12-14	18:08:30	18:13:04	270534	5aa6e29435237b0001130d68	55714098	1	main_z	7	advance_on_keypress_ZEE	76	stimuli_target_trianglesquares.svg	stimuli_distractor_diamondtriangles.svg	22	yes	57	0	382
6.6.1	win	2022-12-14	18:08:30	18:13:07	273291	5aa6e29435237b0001130d68	55714098	1	main_z	7	main_z	77	stimuli_distractor_trianglediamonds.svg	stimuli_target_squarediamonds.svg	12	yes	44	1	1726
6.6.1	win	2022-12-14	18:08:30	18:13:07	273291	5aa6e29435237b0001130d68	55714098	1	main_z	7	advance_on_keypress_ZEE	78	stimuli_distractor_trianglediamonds.svg	stimuli_target_squarediamonds.svg	12	yes	57	0	382
6.6.1	win	2022-12-14	18:08:30	18:13:09	274928	5aa6e29435237b0001130d68	55714098	1	main_z	7	main_z	79	stimuli_distractor_trianglediamonds.svg	stimuli_target_circletriangles.svg	9	yes	44	1	614
6.6.1	win	2022-12-14	18:08:30	18:13:09	274928	5aa6e29435237b0001130d68	55714098	1	main_z	7	advance_on_keypress_ZEE	80	stimuli_distractor_trianglediamonds.svg	stimuli_target_circletriangles.svg	9	yes	57	0	444
6.6.1	win	2022-12-14	18:08:30	18:13:12	278029	5aa6e29435237b0001130d68	55714098	1	main_z	7	main_z	81	stimuli_target_diamondsquares.svg	stimuli_distractor_trianglediamonds.svg	20	yes	0	0	2000
6.6.1	win	2022-12-14	18:08:30	18:13:12	278029	5aa6e29435237b0001130d68	55714098	1	main_z	7	advance_on_keypress_ZEE	82	stimuli_target_diamondsquares.svg	stimuli_distractor_trianglediamonds.svg	20	yes	57	0	297
6.6.1	win	2022-12-14	18:08:30	18:13:13	279494	5aa6e29435237b0001130d68	55714098	1	main_z	7	main_z	83	stimuli_target_trianglesquares.svg	stimuli_distractor_diamondtriangles.svg	22	yes	44	1	516
6.6.1	win	2022-12-14	18:08:30	18:13:13	279494	5aa6e29435237b0001130d68	55714098	1	main_z	7	advance_on_keypress_ZEE	84	stimuli_target_trianglesquares.svg	stimuli_distractor_diamondtriangles.svg	22	yes	57	0	356
6.6.1	win	2022-12-14	18:08:30	18:13:15	281090	5aa6e29435237b0001130d68	55714098	1	main_z	7	main_z	85	stimuli_distractor_diamondtriangles.svg	stimuli_target_trianglecircles.svg	29	yes	44	1	597
6.6.1	win	2022-12-14	18:08:30	18:13:15	281090	5aa6e29435237b0001130d68	55714098	1	main_z	7	advance_on_keypress_ZEE	86	stimuli_distractor_diamondtriangles.svg	stimuli_target_trianglecircles.svg	29	yes	57	0	375
6.6.1	win	2022-12-14	18:08:30	18:13:17	282858	5aa6e29435237b0001130d68	55714098	1	main_z	7	main_z	87	stimuli_distractor_trianglediamonds.svg	stimuli_target_trianglecircles.svg	25	yes	44	1	751
6.6.1	win	2022-12-14	18:08:30	18:13:17	282858	5aa6e29435237b0001130d68	55714098	1	main_z	7	advance_on_keypress_ZEE	88	stimuli_distractor_trianglediamonds.svg	stimuli_target_trianglecircles.svg	25	yes	57	0	388
6.6.1	win	2022-12-14	18:08:30	18:13:18	284633	5aa6e29435237b0001130d68	55714098	1	main_z	7	main_z	89	stimuli_distractor_trianglediamonds.svg	stimuli_target_squarediamonds.svg	12	yes	44	1	744
6.6.1	win	2022-12-14	18:08:30	18:13:18	284633	5aa6e29435237b0001130d68	55714098	1	main_z	7	advance_on_keypress_ZEE	90	stimuli_distractor_trianglediamonds.svg	stimuli_target_squarediamonds.svg	12	yes	57	0	561
6.6.1	win	2022-12-14	18:08:30	18:13:22	287854	5aa6e29435237b0001130d68	55714098	1	main_z	7	main_z	91	stimuli_distractor_trianglediamonds.svg	stimuli_target_squaretriangles.svg	11	yes	0	0	2000
6.6.1	win	2022-12-14	18:08:30	18:13:22	287854	5aa6e29435237b0001130d68	55714098	1	main_z	7	advance_on_keypress_ZEE	92	stimuli_distractor_trianglediamonds.svg	stimuli_target_squaretriangles.svg	11	yes	57	0	234
6.6.1	win	2022-12-14	18:08:30	18:13:23	289510	5aa6e29435237b0001130d68	55714098	1	main_z	7	main_z	93	stimuli_distractor_diamondtriangles.svg	stimuli_target_circlediamonds.svg	14	yes	44	1	775
6.6.1	win	2022-12-14	18:08:30	18:13:23	289510	5aa6e29435237b0001130d68	55714098	1	main_z	7	advance_on_keypress_ZEE	94	stimuli_distractor_diamondtriangles.svg	stimuli_target_circlediamonds.svg	14	yes	57	0	503
6.6.1	win	2022-12-14	18:08:30	18:13:25	291192	5aa6e29435237b0001130d68	55714098	1	main_z	7	main_z	95	stimuli_distractor_diamondtriangles.svg	stimuli_target_squaretriangles.svg	15	yes	44	1	542
6.6.1	win	2022-12-14	18:08:30	18:13:25	291192	5aa6e29435237b0001130d68	55714098	1	main_z	7	advance_on_keypress_ZEE	96	stimuli_distractor_diamondtriangles.svg	stimuli_target_squaretriangles.svg	15	yes	57	0	320
6.6.1	win	2022-12-14	18:08:30	18:13:26	292746	5aa6e29435237b0001130d68	55714098	1	main_z	7	main_z	97	stimuli_target_squarediamonds.svg	stimuli_distractor_trianglediamonds.svg	4	yes	44	1	597
6.6.1	win	2022-12-14	18:08:30	18:13:26	292746	5aa6e29435237b0001130d68	55714098	1	main_z	7	advance_on_keypress_ZEE	98	stimuli_target_squarediamonds.svg	stimuli_distractor_trianglediamonds.svg	4	yes	57	0	289
6.6.1	win	2022-12-14	18:08:30	18:13:28	294546	5aa6e29435237b0001130d68	55714098	1	main_z	7	main_z	99	stimuli_target_circletriangles.svg	stimuli_distractor_diamondtriangles.svg	5	yes	44	1	864
6.6.1	win	2022-12-14	18:08:30	18:13:28	294546	5aa6e29435237b0001130d68	55714098	1	main_z	7	advance_on_keypress_ZEE	100	stimuli_target_circletriangles.svg	stimuli_distractor_diamondtriangles.svg	5	yes	57	0	375
6.6.1	win	2022-12-14	18:08:30	18:13:30	296361	5aa6e29435237b0001130d68	55714098	1	main_z	7	main_z	101	stimuli_distractor_diamondtriangles.svg	stimuli_target_squarediamonds.svg	16	yes	44	1	799
6.6.1	win	2022-12-14	18:08:30	18:13:30	296361	5aa6e29435237b0001130d68	55714098	1	main_z	7	advance_on_keypress_ZEE	102	stimuli_distractor_diamondtriangles.svg	stimuli_target_squarediamonds.svg	16	yes	57	0	389
6.6.1	win	2022-12-14	18:08:30	18:13:32	297908	5aa6e29435237b0001130d68	55714098	1	main_z	7	main_z	103	stimuli_distractor_trianglediamonds.svg	stimuli_target_circletriangles.svg	9	yes	44	1	510
6.6.1	win	2022-12-14	18:08:30	18:13:32	297908	5aa6e29435237b0001130d68	55714098	1	main_z	7	advance_on_keypress_ZEE	104	stimuli_distractor_trianglediamonds.svg	stimuli_target_circletriangles.svg	9	yes	57	0	316
6.6.1	win	2022-12-14	18:08:30	18:13:34	300065	5aa6e29435237b0001130d68	55714098	1	main_z	7	main_z	105	stimuli_target_diamondcircles.svg	stimuli_distractor_trianglediamonds.svg	19	yes	44	1	1189
6.6.1	win	2022-12-14	18:08:30	18:13:34	300065	5aa6e29435237b0001130d68	55714098	1	main_z	7	advance_on_keypress_ZEE	106	stimuli_target_diamondcircles.svg	stimuli_distractor_trianglediamonds.svg	19	yes	57	0	258
6.6.1	win	2022-12-14	18:08:30	18:13:37	302958	5aa6e29435237b0001130d68	55714098	1	main_z	7	main_z	107	stimuli_target_diamondsquares.svg	stimuli_distractor_diamondtriangles.svg	24	yes	0	0	2000
6.6.1	win	2022-12-14	18:08:30	18:13:37	302958	5aa6e29435237b0001130d68	55714098	1	main_z	7	advance_on_keypress_ZEE	108	stimuli_target_diamondsquares.svg	stimuli_distractor_diamondtriangles.svg	24	yes	57	0	298
6.6.1	win	2022-12-14	18:08:30	18:13:38	304370	5aa6e29435237b0001130d68	55714098	1	main_z	7	main_z	109	stimuli_target_trianglecircles.svg	stimuli_distractor_trianglediamonds.svg	17	yes	44	1	464
6.6.1	win	2022-12-14	18:08:30	18:13:38	304370	5aa6e29435237b0001130d68	55714098	1	main_z	7	advance_on_keypress_ZEE	110	stimuli_target_trianglecircles.svg	stimuli_distractor_trianglediamonds.svg	17	yes	57	0	443
6.6.1	win	2022-12-14	18:08:30	18:13:41	307472	5aa6e29435237b0001130d68	55714098	1	main_z	7	main_z	111	stimuli_distractor_diamondtriangles.svg	stimuli_distractor_diamondtriangles.svg	40	no	0	1	2000
6.6.1	win	2022-12-14	18:08:30	18:13:41	307472	5aa6e29435237b0001130d68	55714098	1	main_z	7	advance_on_keypress_ZEE	112	stimuli_distractor_diamondtriangles.svg	stimuli_distractor_diamondtriangles.svg	40	no	57	0	268
6.6.1	win	2022-12-14	18:08:30	18:13:43	308961	5aa6e29435237b0001130d68	55714098	1	main_z	7	main_z	113	stimuli_target_circlediamonds.svg	stimuli_distractor_trianglediamonds.svg	2	yes	44	1	575
6.6.1	win	2022-12-14	18:08:30	18:13:43	308961	5aa6e29435237b0001130d68	55714098	1	main_z	7	advance_on_keypress_ZEE	114	stimuli_target_circlediamonds.svg	stimuli_distractor_trianglediamonds.svg	2	yes	57	0	356
6.6.1	win	2022-12-14	18:08:30	18:13:44	310505	5aa6e29435237b0001130d68	55714098	1	main_z	7	main_z	115	stimuli_distractor_diamondtriangles.svg	stimuli_target_circletriangles.svg	13	yes	44	1	554
6.6.1	win	2022-12-14	18:08:30	18:13:44	310505	5aa6e29435237b0001130d68	55714098	1	main_z	7	advance_on_keypress_ZEE	116	stimuli_distractor_diamondtriangles.svg	stimuli_target_circletriangles.svg	13	yes	57	0	328
6.6.1	win	2022-12-14	18:08:30	18:13:47	313483	5aa6e29435237b0001130d68	55714098	1	main_z	7	main_z	117	stimuli_distractor_trianglediamonds.svg	stimuli_distractor_trianglediamonds.svg	33	no	0	1	2000
6.6.1	win	2022-12-14	18:08:30	18:13:47	313483	5aa6e29435237b0001130d68	55714098	1	main_z	7	advance_on_keypress_ZEE	118	stimuli_distractor_trianglediamonds.svg	stimuli_distractor_trianglediamonds.svg	33	no	57	0	298
6.6.1	win	2022-12-14	18:08:30	18:13:49	315029	5aa6e29435237b0001130d68	55714098	1	main_z	7	main_z	119	stimuli_target_squaretriangles.svg	stimuli_distractor_trianglediamonds.svg	3	yes	44	1	599
6.6.1	win	2022-12-14	18:08:30	18:13:49	315029	5aa6e29435237b0001130d68	55714098	1	main_z	7	advance_on_keypress_ZEE	120	stimuli_target_squaretriangles.svg	stimuli_distractor_trianglediamonds.svg	3	yes	57	0	331
6.6.1	win	2022-12-14	18:08:30	18:13:52	318013	5aa6e29435237b0001130d68	55714098	1	main_z	7	main_z	121	stimuli_distractor_trianglediamonds.svg	stimuli_distractor_diamondtriangles.svg	36	no	0	1	2000
6.6.1	win	2022-12-14	18:08:30	18:13:52	318013	5aa6e29435237b0001130d68	55714098	1	main_z	7	advance_on_keypress_ZEE	122	stimuli_distractor_trianglediamonds.svg	stimuli_distractor_diamondtriangles.svg	36	no	57	0	249
6.6.1	win	2022-12-14	18:08:30	18:13:54	320204	5aa6e29435237b0001130d68	55714098	1	main_z	7	main_z	123	stimuli_distractor_trianglediamonds.svg	stimuli_distractor_trianglediamonds.svg	34	no	44	0	1294
6.6.1	win	2022-12-14	18:08:30	18:13:54	320204	5aa6e29435237b0001130d68	55714098	1	main_z	7	advance_on_keypress_ZEE	124	stimuli_distractor_trianglediamonds.svg	stimuli_distractor_trianglediamonds.svg	34	no	57	0	449
6.6.1	win	2022-12-14	18:08:30	18:13:56	322191	5aa6e29435237b0001130d68	55714098	1	main_z	7	main_z	125	stimuli_distractor_diamondtriangles.svg	stimuli_target_trianglesquares.svg	30	yes	44	1	883
6.6.1	win	2022-12-14	18:08:30	18:13:56	322191	5aa6e29435237b0001130d68	55714098	1	main_z	7	advance_on_keypress_ZEE	126	stimuli_distractor_diamondtriangles.svg	stimuli_target_trianglesquares.svg	30	yes	57	0	1901
6.6.1	win	2022-12-14	18:08:30	18:13:59	325295	5aa6e29435237b0001130d68	55714098	1	main_z	7	main_z	127	stimuli_target_circletriangles.svg	stimuli_distractor_trianglediamonds.svg	1	yes	44	1	556
6.6.1	win	2022-12-14	18:08:30	18:13:59	325295	5aa6e29435237b0001130d68	55714098	1	main_z	7	advance_on_keypress_ZEE	128	stimuli_target_circletriangles.svg	stimuli_distractor_trianglediamonds.svg	1	yes	57	0	529
6.6.1	win	2022-12-14	18:08:30	18:14:02	328471	5aa6e29435237b0001130d68	55714098	1	main_z	7	main_z	129	stimuli_distractor_diamondtriangles.svg	stimuli_distractor_diamondtriangles.svg	39	no	0	1	2000
6.6.1	win	2022-12-14	18:08:30	18:14:02	328471	5aa6e29435237b0001130d68	55714098	1	main_z	7	advance_on_keypress_ZEE	130	stimuli_distractor_diamondtriangles.svg	stimuli_distractor_diamondtriangles.svg	39	no	57	0	263
6.6.1	win	2022-12-14	18:08:30	18:14:04	330095	5aa6e29435237b0001130d68	55714098	1	main_z	7	main_z	131	stimuli_distractor_trianglediamonds.svg	stimuli_target_diamondcircles.svg	27	yes	44	1	709
6.6.1	win	2022-12-14	18:08:30	18:14:04	330095	5aa6e29435237b0001130d68	55714098	1	main_z	7	advance_on_keypress_ZEE	132	stimuli_distractor_trianglediamonds.svg	stimuli_target_diamondcircles.svg	27	yes	57	0	633
6.6.1	win	2022-12-14	18:08:30	18:14:07	333367	5aa6e29435237b0001130d68	55714098	1	main_z	7	main_z	133	stimuli_distractor_diamondtriangles.svg	stimuli_distractor_trianglediamonds.svg	37	no	0	1	2000
6.6.1	win	2022-12-14	18:08:30	18:14:07	333367	5aa6e29435237b0001130d68	55714098	1	main_z	7	advance_on_keypress_ZEE	134	stimuli_distractor_diamondtriangles.svg	stimuli_distractor_trianglediamonds.svg	37	no	57	0	325
6.6.1	win	2022-12-14	18:08:30	18:14:09	335131	5aa6e29435237b0001130d68	55714098	1	main_z	7	main_z	135	stimuli_distractor_diamondtriangles.svg	stimuli_target_diamondcircles.svg	31	yes	44	1	801
6.6.1	win	2022-12-14	18:08:30	18:14:09	335131	5aa6e29435237b0001130d68	55714098	1	main_z	7	advance_on_keypress_ZEE	136	stimuli_distractor_diamondtriangles.svg	stimuli_target_diamondcircles.svg	31	yes	57	0	406
6.6.1	win	2022-12-14	18:08:30	18:14:11	337023	5aa6e29435237b0001130d68	55714098	1	main_z	7	main_z	137	stimuli_target_squarediamonds.svg	stimuli_distractor_diamondtriangles.svg	8	yes	44	1	844
6.6.1	win	2022-12-14	18:08:30	18:14:11	337023	5aa6e29435237b0001130d68	55714098	1	main_z	7	advance_on_keypress_ZEE	138	stimuli_target_squarediamonds.svg	stimuli_distractor_diamondtriangles.svg	8	yes	57	0	468
6.6.1	win	2022-12-14	18:08:30	18:14:12	338712	5aa6e29435237b0001130d68	55714098	1	main_z	7	main_z	139	stimuli_target_trianglecircles.svg	stimuli_distractor_diamondtriangles.svg	21	yes	44	1	568
6.6.1	win	2022-12-14	18:08:30	18:14:12	338712	5aa6e29435237b0001130d68	55714098	1	main_z	7	advance_on_keypress_ZEE	140	stimuli_target_trianglecircles.svg	stimuli_distractor_diamondtriangles.svg	21	yes	57	0	469
6.6.1	win	2022-12-14	18:08:30	18:14:14	340423	5aa6e29435237b0001130d68	55714098	1	main_z	7	main_z	141	stimuli_distractor_trianglediamonds.svg	stimuli_target_diamondsquares.svg	28	yes	44	1	597
6.6.1	win	2022-12-14	18:08:30	18:14:14	340423	5aa6e29435237b0001130d68	55714098	1	main_z	7	advance_on_keypress_ZEE	142	stimuli_distractor_trianglediamonds.svg	stimuli_target_diamondsquares.svg	28	yes	57	0	302
6.6.1	win	2022-12-14	18:08:30	18:14:17	343375	5aa6e29435237b0001130d68	55714098	1	main_z	7	main_z	143	stimuli_distractor_trianglediamonds.svg	stimuli_distractor_diamondtriangles.svg	35	no	0	1	2000
6.6.1	win	2022-12-14	18:08:30	18:14:17	343375	5aa6e29435237b0001130d68	55714098	1	main_z	7	advance_on_keypress_ZEE	144	stimuli_distractor_trianglediamonds.svg	stimuli_distractor_diamondtriangles.svg	35	no	57	0	438
6.6.1	win	2022-12-14	18:08:30	18:14:19	344942	5aa6e29435237b0001130d68	55714098	1	main_z	7	main_z	145	stimuli_target_diamondcircles.svg	stimuli_distractor_diamondtriangles.svg	23	yes	44	1	486
6.6.1	win	2022-12-14	18:08:30	18:14:19	344942	5aa6e29435237b0001130d68	55714098	1	main_z	7	advance_on_keypress_ZEE	146	stimuli_target_diamondcircles.svg	stimuli_distractor_diamondtriangles.svg	23	yes	57	0	408
6.6.1	win	2022-12-14	18:08:30	18:14:20	346621	5aa6e29435237b0001130d68	55714098	1	main_z	7	main_z	147	stimuli_target_trianglesquares.svg	stimuli_distractor_trianglediamonds.svg	18	yes	44	1	632
6.6.1	win	2022-12-14	18:08:30	18:14:20	346621	5aa6e29435237b0001130d68	55714098	1	main_z	7	advance_on_keypress_ZEE	148	stimuli_target_trianglesquares.svg	stimuli_distractor_trianglediamonds.svg	18	yes	57	0	955
6.6.1	win	2022-12-14	18:08:30	18:14:22	348763	5aa6e29435237b0001130d68	55714098	1	main_z	7	main_z	149	stimuli_distractor_diamondtriangles.svg	stimuli_target_diamondsquares.svg	32	yes	44	1	544
6.6.1	win	2022-12-14	18:08:30	18:14:22	348763	5aa6e29435237b0001130d68	55714098	1	main_z	7	advance_on_keypress_ZEE	150	stimuli_distractor_diamondtriangles.svg	stimuli_target_diamondsquares.svg	32	yes	57	0	485
6.6.1	win	2022-12-14	18:08:30	18:14:24	350507	5aa6e29435237b0001130d68	55714098	1	main_z	7	main_z	151	stimuli_distractor_trianglediamonds.svg	stimuli_target_trianglesquares.svg	26	yes	44	1	605
6.6.1	win	2022-12-14	18:08:30	18:14:24	350507	5aa6e29435237b0001130d68	55714098	1	main_z	7	advance_on_keypress_ZEE	152	stimuli_distractor_trianglediamonds.svg	stimuli_target_trianglesquares.svg	26	yes	57	0	285
6.6.1	win	2022-12-14	18:08:30	18:14:26	351952	5aa6e29435237b0001130d68	55714098	1	main_z	7	main_z	153	stimuli_target_circlediamonds.svg	stimuli_distractor_diamondtriangles.svg	6	yes	44	1	519
6.6.1	win	2022-12-14	18:08:30	18:14:26	351952	5aa6e29435237b0001130d68	55714098	1	main_z	7	advance_on_keypress_ZEE	154	stimuli_target_circlediamonds.svg	stimuli_distractor_diamondtriangles.svg	6	yes	57	0	519
6.6.1	win	2022-12-14	18:08:30	18:14:29	355115	5aa6e29435237b0001130d68	55714098	1	main_z	7	main_z	155	stimuli_distractor_diamondtriangles.svg	stimuli_distractor_trianglediamonds.svg	38	no	0	1	2000
6.6.1	win	2022-12-14	18:08:30	18:14:29	355115	5aa6e29435237b0001130d68	55714098	1	main_z	7	advance_on_keypress_ZEE	156	stimuli_distractor_diamondtriangles.svg	stimuli_distractor_trianglediamonds.svg	38	no	57	0	334
6.6.1	win	2022-12-14	18:08:30	18:14:31	356974	5aa6e29435237b0001130d68	55714098	1	main_z	7	main_z	157	stimuli_target_squaretriangles.svg	stimuli_distractor_diamondtriangles.svg	7	yes	44	1	877
6.6.1	win	2022-12-14	18:08:30	18:14:31	356974	5aa6e29435237b0001130d68	55714098	1	main_z	7	advance_on_keypress_ZEE	158	stimuli_target_squaretriangles.svg	stimuli_distractor_diamondtriangles.svg	7	yes	57	0	399
6.6.1	win	2022-12-14	18:08:30	18:14:33	359699	5aa6e29435237b0001130d68	55714098	1	main_z	7	main_z	159	stimuli_distractor_trianglediamonds.svg	stimuli_target_circlediamonds.svg	10	yes	44	1	1670
6.6.1	win	2022-12-14	18:08:30	18:14:33	359699	5aa6e29435237b0001130d68	55714098	1	main_z	7	advance_on_keypress_ZEE	160	stimuli_distractor_trianglediamonds.svg	stimuli_target_circlediamonds.svg	10	yes	57	0	623
6.6.1	win	2022-12-14	18:08:30	18:15:44	430419	5aa6e29435237b0001130d68	55714098	1	practice_slash	9	practice_slash	1	stimuli_target_diamondsquares.svg	stimuli_distractor_trianglediamonds.svg	6	yes	53	1	1644
6.6.1	win	2022-12-14	18:08:30	18:15:44	430419	5aa6e29435237b0001130d68	55714098	1	practice_slash	9	advance_on_keypress_SLASH	2	stimuli_target_diamondsquares.svg	stimuli_distractor_trianglediamonds.svg	6	yes	57	0	546
6.6.1	win	2022-12-14	18:08:30	18:15:47	433225	5aa6e29435237b0001130d68	55714098	1	practice_slash	9	practice_slash	3	stimuli_target_diamondsquares.svg	stimuli_distractor_diamondtriangles.svg	3	yes	53	1	604
6.6.1	win	2022-12-14	18:08:30	18:15:47	433225	5aa6e29435237b0001130d68	55714098	1	practice_slash	9	advance_on_keypress_SLASH	4	stimuli_target_diamondsquares.svg	stimuli_distractor_diamondtriangles.svg	3	yes	57	0	465
6.6.1	win	2022-12-14	18:08:30	18:15:49	435828	5aa6e29435237b0001130d68	55714098	1	practice_slash	9	practice_slash	5	stimuli_target_circlediamonds.svg	stimuli_distractor_diamondtriangles.svg	1	yes	53	1	494
6.6.1	win	2022-12-14	18:08:30	18:15:49	435828	5aa6e29435237b0001130d68	55714098	1	practice_slash	9	advance_on_keypress_SLASH	6	stimuli_target_circlediamonds.svg	stimuli_distractor_diamondtriangles.svg	1	yes	57	0	377
6.6.1	win	2022-12-14	18:08:30	18:15:52	438320	5aa6e29435237b0001130d68	55714098	1	practice_slash	9	practice_slash	7	stimuli_target_circlediamonds.svg	stimuli_distractor_trianglediamonds.svg	4	yes	53	1	455
6.6.1	win	2022-12-14	18:08:30	18:15:52	438320	5aa6e29435237b0001130d68	55714098	1	practice_slash	9	advance_on_keypress_SLASH	8	stimuli_target_circlediamonds.svg	stimuli_distractor_trianglediamonds.svg	4	yes	57	0	374
6.6.1	win	2022-12-14	18:08:30	18:15:54	440816	5aa6e29435237b0001130d68	55714098	1	practice_slash	9	practice_slash	9	stimuli_target_squarediamonds.svg	stimuli_distractor_trianglediamonds.svg	5	yes	53	1	469
6.6.1	win	2022-12-14	18:08:30	18:15:54	440816	5aa6e29435237b0001130d68	55714098	1	practice_slash	9	advance_on_keypress_SLASH	10	stimuli_target_squarediamonds.svg	stimuli_distractor_trianglediamonds.svg	5	yes	57	0	312
6.6.1	win	2022-12-14	18:08:30	18:15:57	443356	5aa6e29435237b0001130d68	55714098	1	practice_slash	9	practice_slash	11	stimuli_distractor_diamondtriangles.svg	stimuli_target_diamondcircles.svg	8	yes	53	1	576
6.6.1	win	2022-12-14	18:08:30	18:15:57	443356	5aa6e29435237b0001130d68	55714098	1	practice_slash	9	advance_on_keypress_SLASH	12	stimuli_distractor_diamondtriangles.svg	stimuli_target_diamondcircles.svg	8	yes	57	0	358
6.6.1	win	2022-12-14	18:08:30	18:15:59	445762	5aa6e29435237b0001130d68	55714098	1	practice_slash	9	practice_slash	13	stimuli_distractor_diamondtriangles.svg	stimuli_target_trianglecircles.svg	9	yes	53	1	384
6.6.1	win	2022-12-14	18:08:30	18:15:59	445762	5aa6e29435237b0001130d68	55714098	1	practice_slash	9	advance_on_keypress_SLASH	14	stimuli_distractor_diamondtriangles.svg	stimuli_target_trianglecircles.svg	9	yes	57	0	618
6.6.1	win	2022-12-14	18:08:30	18:16:04	450025	5aa6e29435237b0001130d68	55714098	1	practice_slash	9	practice_slash	15	stimuli_distractor_trianglediamonds.svg	stimuli_distractor_trianglediamonds.svg	15	no	0	1	2000
6.6.1	win	2022-12-14	18:08:30	18:16:04	450025	5aa6e29435237b0001130d68	55714098	1	practice_slash	9	advance_on_keypress_SLASH	16	stimuli_distractor_trianglediamonds.svg	stimuli_distractor_trianglediamonds.svg	15	no	57	0	281
6.6.1	win	2022-12-14	18:08:30	18:16:06	452744	5aa6e29435237b0001130d68	55714098	1	practice_slash	9	practice_slash	17	stimuli_distractor_trianglediamonds.svg	stimuli_target_circlediamonds.svg	10	yes	53	1	790
6.6.1	win	2022-12-14	18:08:30	18:16:06	452744	5aa6e29435237b0001130d68	55714098	1	practice_slash	9	advance_on_keypress_SLASH	18	stimuli_distractor_trianglediamonds.svg	stimuli_target_circlediamonds.svg	10	yes	57	0	544
6.6.1	win	2022-12-14	18:08:30	18:16:11	456952	5aa6e29435237b0001130d68	55714098	1	practice_slash	9	practice_slash	19	stimuli_distractor_diamondtriangles.svg	stimuli_distractor_trianglediamonds.svg	14	no	0	1	2000
6.6.1	win	2022-12-14	18:08:30	18:16:11	456952	5aa6e29435237b0001130d68	55714098	1	practice_slash	9	advance_on_keypress_SLASH	20	stimuli_distractor_diamondtriangles.svg	stimuli_distractor_trianglediamonds.svg	14	no	57	0	465
6.6.1	win	2022-12-14	18:08:30	18:16:15	461066	5aa6e29435237b0001130d68	55714098	1	practice_slash	9	practice_slash	21	stimuli_distractor_diamondtriangles.svg	stimuli_distractor_diamondtriangles.svg	13	no	0	1	2000
6.6.1	win	2022-12-14	18:08:30	18:16:15	461066	5aa6e29435237b0001130d68	55714098	1	practice_slash	9	advance_on_keypress_SLASH	22	stimuli_distractor_diamondtriangles.svg	stimuli_distractor_diamondtriangles.svg	13	no	57	0	387
6.6.1	win	2022-12-14	18:08:30	18:16:17	463628	5aa6e29435237b0001130d68	55714098	1	practice_slash	9	practice_slash	23	stimuli_distractor_trianglediamonds.svg	stimuli_target_squarediamonds.svg	11	yes	53	1	532
6.6.1	win	2022-12-14	18:08:30	18:16:17	463628	5aa6e29435237b0001130d68	55714098	1	practice_slash	9	advance_on_keypress_SLASH	24	stimuli_distractor_trianglediamonds.svg	stimuli_target_squarediamonds.svg	11	yes	57	0	557
6.6.1	win	2022-12-14	18:08:30	18:16:21	467844	5aa6e29435237b0001130d68	55714098	1	practice_slash	9	practice_slash	25	stimuli_distractor_trianglediamonds.svg	stimuli_target_diamondcircles.svg	12	yes	0	0	2000
6.6.1	win	2022-12-14	18:08:30	18:16:21	467844	5aa6e29435237b0001130d68	55714098	1	practice_slash	9	advance_on_keypress_SLASH	26	stimuli_distractor_trianglediamonds.svg	stimuli_target_diamondcircles.svg	12	yes	57	0	454
6.6.1	win	2022-12-14	18:08:30	18:16:24	470563	5aa6e29435237b0001130d68	55714098	1	practice_slash	9	practice_slash	27	stimuli_distractor_diamondtriangles.svg	stimuli_target_circletriangles.svg	7	yes	53	1	622
6.6.1	win	2022-12-14	18:08:30	18:16:24	470563	5aa6e29435237b0001130d68	55714098	1	practice_slash	9	advance_on_keypress_SLASH	28	stimuli_distractor_diamondtriangles.svg	stimuli_target_circletriangles.svg	7	yes	57	0	625
6.6.1	win	2022-12-14	18:08:30	18:16:29	474854	5aa6e29435237b0001130d68	55714098	1	practice_slash	9	practice_slash	29	stimuli_distractor_trianglediamonds.svg	stimuli_distractor_diamondtriangles.svg	16	no	0	1	2000
6.6.1	win	2022-12-14	18:08:30	18:16:29	474854	5aa6e29435237b0001130d68	55714098	1	practice_slash	9	advance_on_keypress_SLASH	30	stimuli_distractor_trianglediamonds.svg	stimuli_distractor_diamondtriangles.svg	16	no	57	0	444
6.6.1	win	2022-12-14	18:08:30	18:16:31	477369	5aa6e29435237b0001130d68	55714098	1	practice_slash	9	practice_slash	31	stimuli_target_squarediamonds.svg	stimuli_distractor_diamondtriangles.svg	2	yes	53	1	418
6.6.1	win	2022-12-14	18:08:30	18:16:31	477369	5aa6e29435237b0001130d68	55714098	1	practice_slash	9	advance_on_keypress_SLASH	32	stimuli_target_squarediamonds.svg	stimuli_distractor_diamondtriangles.svg	2	yes	57	0	421
6.6.1	win	2022-12-14	18:08:30	18:16:36	482204	5aa6e29435237b0001130d68	55714098	1	main_slash	11	main_slash	1	stimuli_distractor_diamondtriangles.svg	stimuli_target_squaretriangles.svg	15	yes	53	1	544
6.6.1	win	2022-12-14	18:08:30	18:16:36	482204	5aa6e29435237b0001130d68	55714098	1	main_slash	11	advance_on_keypress_SLASH	2	stimuli_distractor_diamondtriangles.svg	stimuli_target_squaretriangles.svg	15	yes	57	0	914
6.6.1	win	2022-12-14	18:08:30	18:16:38	484230	5aa6e29435237b0001130d68	55714098	1	main_slash	11	main_slash	3	stimuli_target_circlediamonds.svg	stimuli_distractor_diamondtriangles.svg	6	yes	53	1	455
6.6.1	win	2022-12-14	18:08:30	18:16:38	484230	5aa6e29435237b0001130d68	55714098	1	main_slash	11	advance_on_keypress_SLASH	4	stimuli_target_circlediamonds.svg	stimuli_distractor_diamondtriangles.svg	6	yes	57	0	406
6.6.1	win	2022-12-14	18:08:30	18:16:39	485818	5aa6e29435237b0001130d68	55714098	1	main_slash	11	main_slash	5	stimuli_target_trianglecircles.svg	stimuli_distractor_trianglediamonds.svg	17	yes	53	1	544
6.6.1	win	2022-12-14	18:08:30	18:16:39	485818	5aa6e29435237b0001130d68	55714098	1	main_slash	11	advance_on_keypress_SLASH	6	stimuli_target_trianglecircles.svg	stimuli_distractor_trianglediamonds.svg	17	yes	57	0	452
6.6.1	win	2022-12-14	18:08:30	18:16:41	487364	5aa6e29435237b0001130d68	55714098	1	main_slash	11	main_slash	7	stimuli_target_circletriangles.svg	stimuli_distractor_trianglediamonds.svg	1	yes	53	1	441
6.6.1	win	2022-12-14	18:08:30	18:16:41	487364	5aa6e29435237b0001130d68	55714098	1	main_slash	11	advance_on_keypress_SLASH	8	stimuli_target_circletriangles.svg	stimuli_distractor_trianglediamonds.svg	1	yes	57	0	232
6.6.1	win	2022-12-14	18:08:30	18:16:42	488778	5aa6e29435237b0001130d68	55714098	1	main_slash	11	main_slash	9	stimuli_target_circletriangles.svg	stimuli_distractor_diamondtriangles.svg	5	yes	53	1	540
6.6.1	win	2022-12-14	18:08:30	18:16:42	488778	5aa6e29435237b0001130d68	55714098	1	main_slash	11	advance_on_keypress_SLASH	10	stimuli_target_circletriangles.svg	stimuli_distractor_diamondtriangles.svg	5	yes	57	0	159
6.6.1	win	2022-12-14	18:08:30	18:16:44	490062	5aa6e29435237b0001130d68	55714098	1	main_slash	11	main_slash	11	stimuli_target_squaretriangles.svg	stimuli_distractor_trianglediamonds.svg	3	yes	53	1	492
6.6.1	win	2022-12-14	18:08:30	18:16:44	490062	5aa6e29435237b0001130d68	55714098	1	main_slash	11	advance_on_keypress_SLASH	12	stimuli_target_squaretriangles.svg	stimuli_distractor_trianglediamonds.svg	3	yes	57	0	224
6.6.1	win	2022-12-14	18:08:30	18:16:47	492919	5aa6e29435237b0001130d68	55714098	1	main_slash	11	main_slash	13	stimuli_distractor_diamondtriangles.svg	stimuli_distractor_diamondtriangles.svg	40	no	0	1	2000
6.6.1	win	2022-12-14	18:08:30	18:16:47	492919	5aa6e29435237b0001130d68	55714098	1	main_slash	11	advance_on_keypress_SLASH	14	stimuli_distractor_diamondtriangles.svg	stimuli_distractor_diamondtriangles.svg	40	no	57	0	494
6.6.1	win	2022-12-14	18:08:30	18:16:48	494513	5aa6e29435237b0001130d68	55714098	1	main_slash	11	main_slash	15	stimuli_distractor_trianglediamonds.svg	stimuli_target_circlediamonds.svg	10	yes	53	1	447
6.6.1	win	2022-12-14	18:08:30	18:16:48	494513	5aa6e29435237b0001130d68	55714098	1	main_slash	11	advance_on_keypress_SLASH	16	stimuli_distractor_trianglediamonds.svg	stimuli_target_circlediamonds.svg	10	yes	57	0	530
6.6.1	win	2022-12-14	18:08:30	18:16:51	497699	5aa6e29435237b0001130d68	55714098	1	main_slash	11	main_slash	17	stimuli_distractor_diamondtriangles.svg	stimuli_distractor_diamondtriangles.svg	39	no	0	1	2000
6.6.1	win	2022-12-14	18:08:30	18:16:51	497699	5aa6e29435237b0001130d68	55714098	1	main_slash	11	advance_on_keypress_SLASH	18	stimuli_distractor_diamondtriangles.svg	stimuli_distractor_diamondtriangles.svg	39	no	57	0	264
6.6.1	win	2022-12-14	18:08:30	18:16:54	500613	5aa6e29435237b0001130d68	55714098	1	main_slash	11	main_slash	19	stimuli_distractor_diamondtriangles.svg	stimuli_distractor_trianglediamonds.svg	37	no	0	1	2000
6.6.1	win	2022-12-14	18:08:30	18:16:54	500613	5aa6e29435237b0001130d68	55714098	1	main_slash	11	advance_on_keypress_SLASH	20	stimuli_distractor_diamondtriangles.svg	stimuli_distractor_trianglediamonds.svg	37	no	57	0	1085
6.6.1	win	2022-12-14	18:08:30	18:16:57	502879	5aa6e29435237b0001130d68	55714098	1	main_slash	11	main_slash	21	stimuli_distractor_diamondtriangles.svg	stimuli_target_circletriangles.svg	13	yes	53	1	536
6.6.1	win	2022-12-14	18:08:30	18:16:57	502879	5aa6e29435237b0001130d68	55714098	1	main_slash	11	advance_on_keypress_SLASH	22	stimuli_distractor_diamondtriangles.svg	stimuli_target_circletriangles.svg	13	yes	57	0	428
6.6.1	win	2022-12-14	18:08:30	18:16:58	504500	5aa6e29435237b0001130d68	55714098	1	main_slash	11	main_slash	23	stimuli_target_trianglesquares.svg	stimuli_distractor_diamondtriangles.svg	22	yes	53	1	542
6.6.1	win	2022-12-14	18:08:30	18:16:58	504500	5aa6e29435237b0001130d68	55714098	1	main_slash	11	advance_on_keypress_SLASH	24	stimuli_target_trianglesquares.svg	stimuli_distractor_diamondtriangles.svg	22	yes	57	0	287
6.6.1	win	2022-12-14	18:08:30	18:17:00	505937	5aa6e29435237b0001130d68	55714098	1	main_slash	11	main_slash	25	stimuli_target_trianglecircles.svg	stimuli_distractor_diamondtriangles.svg	21	yes	53	1	509
6.6.1	win	2022-12-14	18:08:30	18:17:00	505937	5aa6e29435237b0001130d68	55714098	1	main_slash	11	advance_on_keypress_SLASH	26	stimuli_target_trianglecircles.svg	stimuli_distractor_diamondtriangles.svg	21	yes	57	0	265
6.6.1	win	2022-12-14	18:08:30	18:17:02	507993	5aa6e29435237b0001130d68	55714098	1	main_slash	11	main_slash	27	stimuli_distractor_trianglediamonds.svg	stimuli_target_diamondsquares.svg	28	yes	53	1	1137
6.6.1	win	2022-12-14	18:08:30	18:17:02	507993	5aa6e29435237b0001130d68	55714098	1	main_slash	11	advance_on_keypress_SLASH	28	stimuli_distractor_trianglediamonds.svg	stimuli_target_diamondsquares.svg	28	yes	57	0	236
6.6.1	win	2022-12-14	18:08:30	18:17:03	509473	5aa6e29435237b0001130d68	55714098	1	main_slash	11	main_slash	29	stimuli_distractor_diamondtriangles.svg	stimuli_target_diamondcircles.svg	31	yes	53	1	602
6.6.1	win	2022-12-14	18:08:30	18:17:03	509473	5aa6e29435237b0001130d68	55714098	1	main_slash	11	advance_on_keypress_SLASH	30	stimuli_distractor_diamondtriangles.svg	stimuli_target_diamondcircles.svg	31	yes	57	0	313
6.6.1	win	2022-12-14	18:08:30	18:17:05	510936	5aa6e29435237b0001130d68	55714098	1	main_slash	11	main_slash	31	stimuli_distractor_diamondtriangles.svg	stimuli_target_trianglesquares.svg	30	yes	53	1	499
6.6.1	win	2022-12-14	18:08:30	18:17:05	510936	5aa6e29435237b0001130d68	55714098	1	main_slash	11	advance_on_keypress_SLASH	32	stimuli_distractor_diamondtriangles.svg	stimuli_target_trianglesquares.svg	30	yes	57	0	238
6.6.1	win	2022-12-14	18:08:30	18:17:07	513819	5aa6e29435237b0001130d68	55714098	1	main_slash	11	main_slash	33	stimuli_distractor_trianglediamonds.svg	stimuli_distractor_diamondtriangles.svg	35	no	0	1	2000
6.6.1	win	2022-12-14	18:08:30	18:17:07	513819	5aa6e29435237b0001130d68	55714098	1	main_slash	11	advance_on_keypress_SLASH	34	stimuli_distractor_trianglediamonds.svg	stimuli_distractor_diamondtriangles.svg	35	no	57	0	357
6.6.1	win	2022-12-14	18:08:30	18:17:09	515356	5aa6e29435237b0001130d68	55714098	1	main_slash	11	main_slash	35	stimuli_target_squarediamonds.svg	stimuli_distractor_trianglediamonds.svg	4	yes	53	1	540
6.6.1	win	2022-12-14	18:08:30	18:17:09	515356	5aa6e29435237b0001130d68	55714098	1	main_slash	11	advance_on_keypress_SLASH	36	stimuli_target_squarediamonds.svg	stimuli_distractor_trianglediamonds.svg	4	yes	57	0	315
6.6.1	win	2022-12-14	18:08:30	18:17:12	518315	5aa6e29435237b0001130d68	55714098	1	main_slash	11	main_slash	37	stimuli_distractor_diamondtriangles.svg	stimuli_distractor_trianglediamonds.svg	38	no	0	1	2000
6.6.1	win	2022-12-14	18:08:30	18:17:12	518315	5aa6e29435237b0001130d68	55714098	1	main_slash	11	advance_on_keypress_SLASH	38	stimuli_distractor_diamondtriangles.svg	stimuli_distractor_trianglediamonds.svg	38	no	57	0	441
6.6.1	win	2022-12-14	18:08:30	18:17:14	519894	5aa6e29435237b0001130d68	55714098	1	main_slash	11	main_slash	39	stimuli_target_squaretriangles.svg	stimuli_distractor_diamondtriangles.svg	7	yes	53	1	499
6.6.1	win	2022-12-14	18:08:30	18:17:14	519894	5aa6e29435237b0001130d68	55714098	1	main_slash	11	advance_on_keypress_SLASH	40	stimuli_target_squaretriangles.svg	stimuli_distractor_diamondtriangles.svg	7	yes	57	0	222
6.6.1	win	2022-12-14	18:08:30	18:17:15	521476	5aa6e29435237b0001130d68	55714098	1	main_slash	11	main_slash	41	stimuli_distractor_diamondtriangles.svg	stimuli_target_diamondsquares.svg	32	yes	53	1	715
6.6.1	win	2022-12-14	18:08:30	18:17:15	521476	5aa6e29435237b0001130d68	55714098	1	main_slash	11	advance_on_keypress_SLASH	42	stimuli_distractor_diamondtriangles.svg	stimuli_target_diamondsquares.svg	32	yes	57	0	146
6.6.1	win	2022-12-14	18:08:30	18:17:17	523131	5aa6e29435237b0001130d68	55714098	1	main_slash	11	main_slash	43	stimuli_target_diamondsquares.svg	stimuli_distractor_trianglediamonds.svg	20	yes	53	1	854
6.6.1	win	2022-12-14	18:08:30	18:17:17	523131	5aa6e29435237b0001130d68	55714098	1	main_slash	11	advance_on_keypress_SLASH	44	stimuli_target_diamondsquares.svg	stimuli_distractor_trianglediamonds.svg	20	yes	57	0	156
6.6.1	win	2022-12-14	18:08:30	18:17:18	524408	5aa6e29435237b0001130d68	55714098	1	main_slash	11	main_slash	45	stimuli_distractor_trianglediamonds.svg	stimuli_target_squaretriangles.svg	11	yes	53	1	483
6.6.1	win	2022-12-14	18:08:30	18:17:18	524408	5aa6e29435237b0001130d68	55714098	1	main_slash	11	advance_on_keypress_SLASH	46	stimuli_distractor_trianglediamonds.svg	stimuli_target_squaretriangles.svg	11	yes	57	0	157
6.6.1	win	2022-12-14	18:08:30	18:17:19	525726	5aa6e29435237b0001130d68	55714098	1	main_slash	11	main_slash	47	stimuli_distractor_diamondtriangles.svg	stimuli_target_trianglecircles.svg	29	yes	53	1	519
6.6.1	win	2022-12-14	18:08:30	18:17:19	525726	5aa6e29435237b0001130d68	55714098	1	main_slash	11	advance_on_keypress_SLASH	48	stimuli_distractor_diamondtriangles.svg	stimuli_target_trianglecircles.svg	29	yes	57	0	254
6.6.1	win	2022-12-14	18:08:30	18:17:21	527117	5aa6e29435237b0001130d68	55714098	1	main_slash	11	main_slash	49	stimuli_distractor_trianglediamonds.svg	stimuli_target_trianglesquares.svg	26	yes	53	1	493
6.6.1	win	2022-12-14	18:08:30	18:17:21	527117	5aa6e29435237b0001130d68	55714098	1	main_slash	11	advance_on_keypress_SLASH	50	stimuli_distractor_trianglediamonds.svg	stimuli_target_trianglesquares.svg	26	yes	57	0	135
6.6.1	win	2022-12-14	18:08:30	18:17:22	528725	5aa6e29435237b0001130d68	55714098	1	main_slash	11	main_slash	51	stimuli_target_diamondsquares.svg	stimuli_distractor_diamondtriangles.svg	24	yes	53	1	820
6.6.1	win	2022-12-14	18:08:30	18:17:22	528725	5aa6e29435237b0001130d68	55714098	1	main_slash	11	advance_on_keypress_SLASH	52	stimuli_target_diamondsquares.svg	stimuli_distractor_diamondtriangles.svg	24	yes	57	0	179
6.6.1	win	2022-12-14	18:08:30	18:17:24	530416	5aa6e29435237b0001130d68	55714098	1	main_slash	11	main_slash	53	stimuli_distractor_trianglediamonds.svg	stimuli_target_circletriangles.svg	9	yes	53	1	862
6.6.1	win	2022-12-14	18:08:30	18:17:24	530416	5aa6e29435237b0001130d68	55714098	1	main_slash	11	advance_on_keypress_SLASH	54	stimuli_distractor_trianglediamonds.svg	stimuli_target_circletriangles.svg	9	yes	57	0	127
6.6.1	win	2022-12-14	18:08:30	18:17:27	533203	5aa6e29435237b0001130d68	55714098	1	main_slash	11	main_slash	55	stimuli_distractor_diamondtriangles.svg	stimuli_target_circlediamonds.svg	14	yes	0	0	2000
6.6.1	win	2022-12-14	18:08:30	18:17:27	533203	5aa6e29435237b0001130d68	55714098	1	main_slash	11	advance_on_keypress_SLASH	56	stimuli_distractor_diamondtriangles.svg	stimuli_target_circlediamonds.svg	14	yes	57	0	426
6.6.1	win	2022-12-14	18:08:30	18:17:28	534833	5aa6e29435237b0001130d68	55714098	1	main_slash	11	main_slash	57	stimuli_distractor_trianglediamonds.svg	stimuli_target_diamondcircles.svg	27	yes	53	1	566
6.6.1	win	2022-12-14	18:08:30	18:17:28	534833	5aa6e29435237b0001130d68	55714098	1	main_slash	11	advance_on_keypress_SLASH	58	stimuli_distractor_trianglediamonds.svg	stimuli_target_diamondcircles.svg	27	yes	57	0	140
6.6.1	win	2022-12-14	18:08:30	18:17:30	536171	5aa6e29435237b0001130d68	55714098	1	main_slash	11	main_slash	59	stimuli_target_diamondcircles.svg	stimuli_distractor_diamondtriangles.svg	23	yes	53	1	556
6.6.1	win	2022-12-14	18:08:30	18:17:30	536171	5aa6e29435237b0001130d68	55714098	1	main_slash	11	advance_on_keypress_SLASH	60	stimuli_target_diamondcircles.svg	stimuli_distractor_diamondtriangles.svg	23	yes	57	0	148
6.6.1	win	2022-12-14	18:08:30	18:17:33	538965	5aa6e29435237b0001130d68	55714098	1	main_slash	11	main_slash	61	stimuli_distractor_trianglediamonds.svg	stimuli_distractor_trianglediamonds.svg	34	no	0	1	2000
6.6.1	win	2022-12-14	18:08:30	18:17:33	538965	5aa6e29435237b0001130d68	55714098	1	main_slash	11	advance_on_keypress_SLASH	62	stimuli_distractor_trianglediamonds.svg	stimuli_distractor_trianglediamonds.svg	34	no	57	0	460
6.6.1	win	2022-12-14	18:08:30	18:17:34	540514	5aa6e29435237b0001130d68	55714098	1	main_slash	11	main_slash	63	stimuli_distractor_trianglediamonds.svg	stimuli_target_trianglecircles.svg	25	yes	53	1	451
6.6.1	win	2022-12-14	18:08:30	18:17:34	540514	5aa6e29435237b0001130d68	55714098	1	main_slash	11	advance_on_keypress_SLASH	64	stimuli_distractor_trianglediamonds.svg	stimuli_target_trianglecircles.svg	25	yes	57	0	150
6.6.1	win	2022-12-14	18:08:30	18:17:35	541748	5aa6e29435237b0001130d68	55714098	1	main_slash	11	main_slash	65	stimuli_distractor_trianglediamonds.svg	stimuli_target_squarediamonds.svg	12	yes	53	1	437
6.6.1	win	2022-12-14	18:08:30	18:17:35	541748	5aa6e29435237b0001130d68	55714098	1	main_slash	11	advance_on_keypress_SLASH	66	stimuli_distractor_trianglediamonds.svg	stimuli_target_squarediamonds.svg	12	yes	57	0	170
6.6.1	win	2022-12-14	18:08:30	18:17:37	543077	5aa6e29435237b0001130d68	55714098	1	main_slash	11	main_slash	67	stimuli_target_trianglesquares.svg	stimuli_distractor_trianglediamonds.svg	18	yes	53	1	514
6.6.1	win	2022-12-14	18:08:30	18:17:37	543077	5aa6e29435237b0001130d68	55714098	1	main_slash	11	advance_on_keypress_SLASH	68	stimuli_target_trianglesquares.svg	stimuli_distractor_trianglediamonds.svg	18	yes	57	0	121
6.6.1	win	2022-12-14	18:08:30	18:17:38	544303	5aa6e29435237b0001130d68	55714098	1	main_slash	11	main_slash	69	stimuli_target_diamondcircles.svg	stimuli_distractor_trianglediamonds.svg	19	yes	53	1	460
6.6.1	win	2022-12-14	18:08:30	18:17:38	544303	5aa6e29435237b0001130d68	55714098	1	main_slash	11	advance_on_keypress_SLASH	70	stimuli_target_diamondcircles.svg	stimuli_distractor_trianglediamonds.svg	19	yes	57	0	143
6.6.1	win	2022-12-14	18:08:30	18:17:40	546132	5aa6e29435237b0001130d68	55714098	1	main_slash	11	main_slash	71	stimuli_distractor_trianglediamonds.svg	stimuli_distractor_diamondtriangles.svg	36	no	53	0	1024
6.6.1	win	2022-12-14	18:08:30	18:17:40	546132	5aa6e29435237b0001130d68	55714098	1	main_slash	11	advance_on_keypress_SLASH	72	stimuli_distractor_trianglediamonds.svg	stimuli_distractor_diamondtriangles.svg	36	no	57	0	152
6.6.1	win	2022-12-14	18:08:30	18:17:41	547346	5aa6e29435237b0001130d68	55714098	1	main_slash	11	main_slash	73	stimuli_distractor_diamondtriangles.svg	stimuli_target_squarediamonds.svg	16	yes	53	1	423
6.6.1	win	2022-12-14	18:08:30	18:17:41	547346	5aa6e29435237b0001130d68	55714098	1	main_slash	11	advance_on_keypress_SLASH	74	stimuli_distractor_diamondtriangles.svg	stimuli_target_squarediamonds.svg	16	yes	57	0	139
6.6.1	win	2022-12-14	18:08:30	18:17:43	549561	5aa6e29435237b0001130d68	55714098	1	main_slash	11	main_slash	75	stimuli_target_squarediamonds.svg	stimuli_distractor_diamondtriangles.svg	8	yes	53	1	1439
6.6.1	win	2022-12-14	18:08:30	18:17:43	549561	5aa6e29435237b0001130d68	55714098	1	main_slash	11	advance_on_keypress_SLASH	76	stimuli_target_squarediamonds.svg	stimuli_distractor_diamondtriangles.svg	8	yes	57	0	132
6.6.1	win	2022-12-14	18:08:30	18:17:45	550850	5aa6e29435237b0001130d68	55714098	1	main_slash	11	main_slash	77	stimuli_target_circlediamonds.svg	stimuli_distractor_trianglediamonds.svg	2	yes	53	1	504
6.6.1	win	2022-12-14	18:08:30	18:17:45	550850	5aa6e29435237b0001130d68	55714098	1	main_slash	11	advance_on_keypress_SLASH	78	stimuli_target_circlediamonds.svg	stimuli_distractor_trianglediamonds.svg	2	yes	57	0	125
6.6.1	win	2022-12-14	18:08:30	18:17:47	553619	5aa6e29435237b0001130d68	55714098	1	main_slash	11	main_slash	79	stimuli_distractor_trianglediamonds.svg	stimuli_distractor_trianglediamonds.svg	33	no	0	1	2000
6.6.1	win	2022-12-14	18:08:30	18:17:47	553619	5aa6e29435237b0001130d68	55714098	1	main_slash	11	advance_on_keypress_SLASH	80	stimuli_distractor_trianglediamonds.svg	stimuli_distractor_trianglediamonds.svg	33	no	57	0	443
6.6.1	win	2022-12-14	18:08:30	18:17:49	555143	5aa6e29435237b0001130d68	55714098	1	main_slash	11	main_slash	81	stimuli_distractor_diamondtriangles.svg	stimuli_target_trianglecircles.svg	29	yes	53	1	425
6.6.1	win	2022-12-14	18:08:30	18:17:49	555143	5aa6e29435237b0001130d68	55714098	1	main_slash	11	advance_on_keypress_SLASH	82	stimuli_distractor_diamondtriangles.svg	stimuli_target_trianglecircles.svg	29	yes	57	0	132
6.6.1	win	2022-12-14	18:08:30	18:17:50	556809	5aa6e29435237b0001130d68	55714098	1	main_slash	11	main_slash	83	stimuli_distractor_diamondtriangles.svg	stimuli_target_circlediamonds.svg	14	yes	53	1	876
6.6.1	win	2022-12-14	18:08:30	18:17:50	556809	5aa6e29435237b0001130d68	55714098	1	main_slash	11	advance_on_keypress_SLASH	84	stimuli_distractor_diamondtriangles.svg	stimuli_target_circlediamonds.svg	14	yes	57	0	155
6.6.1	win	2022-12-14	18:08:30	18:17:52	558122	5aa6e29435237b0001130d68	55714098	1	main_slash	11	main_slash	85	stimuli_target_trianglecircles.svg	stimuli_distractor_diamondtriangles.svg	21	yes	53	1	524
6.6.1	win	2022-12-14	18:08:30	18:17:52	558122	5aa6e29435237b0001130d68	55714098	1	main_slash	11	advance_on_keypress_SLASH	86	stimuli_target_trianglecircles.svg	stimuli_distractor_diamondtriangles.svg	21	yes	57	0	146
6.6.1	win	2022-12-14	18:08:30	18:17:55	560913	5aa6e29435237b0001130d68	55714098	1	main_slash	11	main_slash	87	stimuli_distractor_diamondtriangles.svg	stimuli_distractor_trianglediamonds.svg	38	no	0	1	2000
6.6.1	win	2022-12-14	18:08:30	18:17:55	560913	5aa6e29435237b0001130d68	55714098	1	main_slash	11	advance_on_keypress_SLASH	88	stimuli_distractor_diamondtriangles.svg	stimuli_distractor_trianglediamonds.svg	38	no	57	0	432
6.6.1	win	2022-12-14	18:08:30	18:17:56	562570	5aa6e29435237b0001130d68	55714098	1	main_slash	11	main_slash	89	stimuli_target_squaretriangles.svg	stimuli_distractor_trianglediamonds.svg	3	yes	53	1	576
6.6.1	win	2022-12-14	18:08:30	18:17:56	562570	5aa6e29435237b0001130d68	55714098	1	main_slash	11	advance_on_keypress_SLASH	90	stimuli_target_squaretriangles.svg	stimuli_distractor_trianglediamonds.svg	3	yes	57	0	127
6.6.1	win	2022-12-14	18:08:30	18:17:58	563906	5aa6e29435237b0001130d68	55714098	1	main_slash	11	main_slash	91	stimuli_target_trianglesquares.svg	stimuli_distractor_diamondtriangles.svg	22	yes	53	1	563
6.6.1	win	2022-12-14	18:08:30	18:17:58	563906	5aa6e29435237b0001130d68	55714098	1	main_slash	11	advance_on_keypress_SLASH	92	stimuli_target_trianglesquares.svg	stimuli_distractor_diamondtriangles.svg	22	yes	57	0	115
6.6.1	win	2022-12-14	18:08:30	18:17:59	565122	5aa6e29435237b0001130d68	55714098	1	main_slash	11	main_slash	93	stimuli_distractor_trianglediamonds.svg	stimuli_target_diamondcircles.svg	27	yes	53	1	447
6.6.1	win	2022-12-14	18:08:30	18:17:59	565122	5aa6e29435237b0001130d68	55714098	1	main_slash	11	advance_on_keypress_SLASH	94	stimuli_distractor_trianglediamonds.svg	stimuli_target_diamondcircles.svg	27	yes	57	0	141
6.6.1	win	2022-12-14	18:08:30	18:18:00	566558	5aa6e29435237b0001130d68	55714098	1	main_slash	11	main_slash	95	stimuli_distractor_trianglediamonds.svg	stimuli_distractor_diamondtriangles.svg	35	no	53	0	651
6.6.1	win	2022-12-14	18:08:30	18:18:00	566558	5aa6e29435237b0001130d68	55714098	1	main_slash	11	advance_on_keypress_SLASH	96	stimuli_distractor_trianglediamonds.svg	stimuli_distractor_diamondtriangles.svg	35	no	57	0	145
6.6.1	win	2022-12-14	18:08:30	18:18:02	568208	5aa6e29435237b0001130d68	55714098	1	main_slash	11	main_slash	97	stimuli_target_diamondsquares.svg	stimuli_distractor_diamondtriangles.svg	24	yes	53	1	851
6.6.1	win	2022-12-14	18:08:30	18:18:02	568208	5aa6e29435237b0001130d68	55714098	1	main_slash	11	advance_on_keypress_SLASH	98	stimuli_target_diamondsquares.svg	stimuli_distractor_diamondtriangles.svg	24	yes	57	0	125
6.6.1	win	2022-12-14	18:08:30	18:18:03	569589	5aa6e29435237b0001130d68	55714098	1	main_slash	11	main_slash	99	stimuli_target_diamondsquares.svg	stimuli_distractor_trianglediamonds.svg	20	yes	53	1	618
6.6.1	win	2022-12-14	18:08:30	18:18:03	569589	5aa6e29435237b0001130d68	55714098	1	main_slash	11	advance_on_keypress_SLASH	100	stimuli_target_diamondsquares.svg	stimuli_distractor_trianglediamonds.svg	20	yes	57	0	163
6.6.1	win	2022-12-14	18:08:30	18:18:05	570917	5aa6e29435237b0001130d68	55714098	1	main_slash	11	main_slash	101	stimuli_target_circletriangles.svg	stimuli_distractor_trianglediamonds.svg	1	yes	53	1	510
6.6.1	win	2022-12-14	18:08:30	18:18:05	570917	5aa6e29435237b0001130d68	55714098	1	main_slash	11	advance_on_keypress_SLASH	102	stimuli_target_circletriangles.svg	stimuli_distractor_trianglediamonds.svg	1	yes	57	0	169
6.6.1	win	2022-12-14	18:08:30	18:18:06	572292	5aa6e29435237b0001130d68	55714098	1	main_slash	11	main_slash	103	stimuli_target_squaretriangles.svg	stimuli_distractor_diamondtriangles.svg	7	yes	53	1	556
6.6.1	win	2022-12-14	18:08:30	18:18:06	572292	5aa6e29435237b0001130d68	55714098	1	main_slash	11	advance_on_keypress_SLASH	104	stimuli_target_squaretriangles.svg	stimuli_distractor_diamondtriangles.svg	7	yes	57	0	222
6.6.1	win	2022-12-14	18:08:30	18:18:09	575152	5aa6e29435237b0001130d68	55714098	1	main_slash	11	main_slash	105	stimuli_distractor_diamondtriangles.svg	stimuli_distractor_diamondtriangles.svg	40	no	0	1	2000
6.6.1	win	2022-12-14	18:08:30	18:18:09	575152	5aa6e29435237b0001130d68	55714098	1	main_slash	11	advance_on_keypress_SLASH	106	stimuli_distractor_diamondtriangles.svg	stimuli_distractor_diamondtriangles.svg	40	no	57	0	298
6.6.1	win	2022-12-14	18:08:30	18:18:10	576527	5aa6e29435237b0001130d68	55714098	1	main_slash	11	main_slash	107	stimuli_distractor_diamondtriangles.svg	stimuli_target_squaretriangles.svg	15	yes	53	1	428
6.6.1	win	2022-12-14	18:08:30	18:18:10	576527	5aa6e29435237b0001130d68	55714098	1	main_slash	11	advance_on_keypress_SLASH	108	stimuli_distractor_diamondtriangles.svg	stimuli_target_squaretriangles.svg	15	yes	57	0	123
6.6.1	win	2022-12-14	18:08:30	18:18:13	579298	5aa6e29435237b0001130d68	55714098	1	main_slash	11	main_slash	109	stimuli_distractor_trianglediamonds.svg	stimuli_distractor_diamondtriangles.svg	36	no	0	1	2000
6.6.1	win	2022-12-14	18:08:30	18:18:13	579298	5aa6e29435237b0001130d68	55714098	1	main_slash	11	advance_on_keypress_SLASH	110	stimuli_distractor_trianglediamonds.svg	stimuli_distractor_diamondtriangles.svg	36	no	57	0	303
6.6.1	win	2022-12-14	18:08:30	18:18:16	582246	5aa6e29435237b0001130d68	55714098	1	main_slash	11	main_slash	111	stimuli_distractor_trianglediamonds.svg	stimuli_distractor_trianglediamonds.svg	33	no	0	1	2000
6.6.1	win	2022-12-14	18:08:30	18:18:16	582246	5aa6e29435237b0001130d68	55714098	1	main_slash	11	advance_on_keypress_SLASH	112	stimuli_distractor_trianglediamonds.svg	stimuli_distractor_trianglediamonds.svg	33	no	57	0	296
6.6.1	win	2022-12-14	18:08:30	18:18:18	584003	5aa6e29435237b0001130d68	55714098	1	main_slash	11	main_slash	113	stimuli_target_squarediamonds.svg	stimuli_distractor_diamondtriangles.svg	8	yes	53	1	810
6.6.1	win	2022-12-14	18:08:30	18:18:18	584003	5aa6e29435237b0001130d68	55714098	1	main_slash	11	advance_on_keypress_SLASH	114	stimuli_target_squarediamonds.svg	stimuli_distractor_diamondtriangles.svg	8	yes	57	0	122
6.6.1	win	2022-12-14	18:08:30	18:18:20	586775	5aa6e29435237b0001130d68	55714098	1	main_slash	11	main_slash	115	stimuli_distractor_diamondtriangles.svg	stimuli_distractor_diamondtriangles.svg	39	no	0	1	2000
6.6.1	win	2022-12-14	18:08:30	18:18:20	586775	5aa6e29435237b0001130d68	55714098	1	main_slash	11	advance_on_keypress_SLASH	116	stimuli_distractor_diamondtriangles.svg	stimuli_distractor_diamondtriangles.svg	39	no	57	0	467
6.6.1	win	2022-12-14	18:08:30	18:18:22	588351	5aa6e29435237b0001130d68	55714098	1	main_slash	11	main_slash	117	stimuli_distractor_trianglediamonds.svg	stimuli_target_trianglecircles.svg	25	yes	53	1	462
6.6.1	win	2022-12-14	18:08:30	18:18:22	588351	5aa6e29435237b0001130d68	55714098	1	main_slash	11	advance_on_keypress_SLASH	118	stimuli_distractor_trianglediamonds.svg	stimuli_target_trianglecircles.svg	25	yes	57	0	129
6.6.1	win	2022-12-14	18:08:30	18:18:23	589609	5aa6e29435237b0001130d68	55714098	1	main_slash	11	main_slash	119	stimuli_distractor_trianglediamonds.svg	stimuli_target_circletriangles.svg	9	yes	53	1	471
6.6.1	win	2022-12-14	18:08:30	18:18:23	589609	5aa6e29435237b0001130d68	55714098	1	main_slash	11	advance_on_keypress_SLASH	120	stimuli_distractor_trianglediamonds.svg	stimuli_target_circletriangles.svg	9	yes	57	0	133
6.6.1	win	2022-12-14	18:08:30	18:18:24	590776	5aa6e29435237b0001130d68	55714098	1	main_slash	11	main_slash	121	stimuli_distractor_diamondtriangles.svg	stimuli_target_trianglesquares.svg	30	yes	53	1	389
6.6.1	win	2022-12-14	18:08:30	18:18:24	590776	5aa6e29435237b0001130d68	55714098	1	main_slash	11	advance_on_keypress_SLASH	122	stimuli_distractor_diamondtriangles.svg	stimuli_target_trianglesquares.svg	30	yes	57	0	165
6.6.1	win	2022-12-14	18:08:30	18:18:27	593587	5aa6e29435237b0001130d68	55714098	1	main_slash	11	main_slash	123	stimuli_distractor_diamondtriangles.svg	stimuli_distractor_trianglediamonds.svg	37	no	0	1	2000
6.6.1	win	2022-12-14	18:08:30	18:18:27	593587	5aa6e29435237b0001130d68	55714098	1	main_slash	11	advance_on_keypress_SLASH	124	stimuli_distractor_diamondtriangles.svg	stimuli_distractor_trianglediamonds.svg	37	no	57	0	585
6.6.1	win	2022-12-14	18:08:30	18:18:29	595220	5aa6e29435237b0001130d68	55714098	1	main_slash	11	main_slash	125	stimuli_target_circlediamonds.svg	stimuli_distractor_diamondtriangles.svg	6	yes	53	1	402
6.6.1	win	2022-12-14	18:08:30	18:18:29	595220	5aa6e29435237b0001130d68	55714098	1	main_slash	11	advance_on_keypress_SLASH	126	stimuli_target_circlediamonds.svg	stimuli_distractor_diamondtriangles.svg	6	yes	57	0	130
6.6.1	win	2022-12-14	18:08:30	18:18:30	596438	5aa6e29435237b0001130d68	55714098	1	main_slash	11	main_slash	127	stimuli_distractor_trianglediamonds.svg	stimuli_target_trianglesquares.svg	26	yes	53	1	439
6.6.1	win	2022-12-14	18:08:30	18:18:30	596438	5aa6e29435237b0001130d68	55714098	1	main_slash	11	advance_on_keypress_SLASH	128	stimuli_distractor_trianglediamonds.svg	stimuli_target_trianglesquares.svg	26	yes	57	0	81
6.6.1	win	2022-12-14	18:08:30	18:18:31	597664	5aa6e29435237b0001130d68	55714098	1	main_slash	11	main_slash	129	stimuli_target_circlediamonds.svg	stimuli_distractor_trianglediamonds.svg	2	yes	53	1	499
6.6.1	win	2022-12-14	18:08:30	18:18:31	597664	5aa6e29435237b0001130d68	55714098	1	main_slash	11	advance_on_keypress_SLASH	130	stimuli_target_circlediamonds.svg	stimuli_distractor_trianglediamonds.svg	2	yes	57	0	95
6.6.1	win	2022-12-14	18:08:30	18:18:33	598966	5aa6e29435237b0001130d68	55714098	1	main_slash	11	main_slash	131	stimuli_target_circletriangles.svg	stimuli_distractor_diamondtriangles.svg	5	yes	53	1	551
6.6.1	win	2022-12-14	18:08:30	18:18:33	598966	5aa6e29435237b0001130d68	55714098	1	main_slash	11	advance_on_keypress_SLASH	132	stimuli_target_circletriangles.svg	stimuli_distractor_diamondtriangles.svg	5	yes	57	0	93
6.6.1	win	2022-12-14	18:08:30	18:18:34	600225	5aa6e29435237b0001130d68	55714098	1	main_slash	11	main_slash	133	stimuli_distractor_diamondtriangles.svg	stimuli_target_circletriangles.svg	13	yes	53	1	529
6.6.1	win	2022-12-14	18:08:30	18:18:34	600225	5aa6e29435237b0001130d68	55714098	1	main_slash	11	advance_on_keypress_SLASH	134	stimuli_distractor_diamondtriangles.svg	stimuli_target_circletriangles.svg	13	yes	57	0	119
6.6.1	win	2022-12-14	18:08:30	18:18:35	601538	5aa6e29435237b0001130d68	55714098	1	main_slash	11	main_slash	135	stimuli_distractor_diamondtriangles.svg	stimuli_target_diamondsquares.svg	32	yes	53	1	543
6.6.1	win	2022-12-14	18:08:30	18:18:35	601538	5aa6e29435237b0001130d68	55714098	1	main_slash	11	advance_on_keypress_SLASH	136	stimuli_distractor_diamondtriangles.svg	stimuli_target_diamondsquares.svg	32	yes	57	0	133
6.6.1	win	2022-12-14	18:08:30	18:18:36	602761	5aa6e29435237b0001130d68	55714098	1	main_slash	11	main_slash	137	stimuli_distractor_trianglediamonds.svg	stimuli_target_squarediamonds.svg	12	yes	53	1	450
6.6.1	win	2022-12-14	18:08:30	18:18:36	602761	5aa6e29435237b0001130d68	55714098	1	main_slash	11	advance_on_keypress_SLASH	138	stimuli_distractor_trianglediamonds.svg	stimuli_target_squarediamonds.svg	12	yes	57	0	133
6.6.1	win	2022-12-14	18:08:30	18:18:38	604057	5aa6e29435237b0001130d68	55714098	1	main_slash	11	main_slash	139	stimuli_distractor_diamondtriangles.svg	stimuli_target_squarediamonds.svg	16	yes	53	1	505
6.6.1	win	2022-12-14	18:08:30	18:18:38	604057	5aa6e29435237b0001130d68	55714098	1	main_slash	11	advance_on_keypress_SLASH	140	stimuli_distractor_diamondtriangles.svg	stimuli_target_squarediamonds.svg	16	yes	57	0	120
6.6.1	win	2022-12-14	18:08:30	18:18:39	605365	5aa6e29435237b0001130d68	55714098	1	main_slash	11	main_slash	141	stimuli_target_diamondcircles.svg	stimuli_distractor_trianglediamonds.svg	19	yes	53	1	540
6.6.1	win	2022-12-14	18:08:30	18:18:39	605365	5aa6e29435237b0001130d68	55714098	1	main_slash	11	advance_on_keypress_SLASH	142	stimuli_target_diamondcircles.svg	stimuli_distractor_trianglediamonds.svg	19	yes	57	0	148
6.6.1	win	2022-12-14	18:08:30	18:18:42	608158	5aa6e29435237b0001130d68	55714098	1	main_slash	11	main_slash	143	stimuli_distractor_trianglediamonds.svg	stimuli_distractor_trianglediamonds.svg	34	no	0	1	2000
6.6.1	win	2022-12-14	18:08:30	18:18:42	608158	5aa6e29435237b0001130d68	55714098	1	main_slash	11	advance_on_keypress_SLASH	144	stimuli_distractor_trianglediamonds.svg	stimuli_distractor_trianglediamonds.svg	34	no	57	0	402
6.6.1	win	2022-12-14	18:08:30	18:18:43	609670	5aa6e29435237b0001130d68	55714098	1	main_slash	11	main_slash	145	stimuli_target_squarediamonds.svg	stimuli_distractor_trianglediamonds.svg	4	yes	53	1	464
6.6.1	win	2022-12-14	18:08:30	18:18:43	609670	5aa6e29435237b0001130d68	55714098	1	main_slash	11	advance_on_keypress_SLASH	146	stimuli_target_squarediamonds.svg	stimuli_distractor_trianglediamonds.svg	4	yes	57	0	78
6.6.1	win	2022-12-14	18:08:30	18:18:45	611013	5aa6e29435237b0001130d68	55714098	1	main_slash	11	main_slash	147	stimuli_distractor_trianglediamonds.svg	stimuli_target_diamondsquares.svg	28	yes	53	1	608
6.6.1	win	2022-12-14	18:08:30	18:18:45	611013	5aa6e29435237b0001130d68	55714098	1	main_slash	11	advance_on_keypress_SLASH	148	stimuli_distractor_trianglediamonds.svg	stimuli_target_diamondsquares.svg	28	yes	57	0	105
6.6.1	win	2022-12-14	18:08:30	18:18:46	612193	5aa6e29435237b0001130d68	55714098	1	main_slash	11	main_slash	149	stimuli_distractor_trianglediamonds.svg	stimuli_target_squaretriangles.svg	11	yes	53	1	423
6.6.1	win	2022-12-14	18:08:30	18:18:46	612193	5aa6e29435237b0001130d68	55714098	1	main_slash	11	advance_on_keypress_SLASH	150	stimuli_distractor_trianglediamonds.svg	stimuli_target_squaretriangles.svg	11	yes	57	0	145
6.6.1	win	2022-12-14	18:08:30	18:18:47	613346	5aa6e29435237b0001130d68	55714098	1	main_slash	11	main_slash	151	stimuli_distractor_diamondtriangles.svg	stimuli_target_diamondcircles.svg	31	yes	53	1	361
6.6.1	win	2022-12-14	18:08:30	18:18:47	613346	5aa6e29435237b0001130d68	55714098	1	main_slash	11	advance_on_keypress_SLASH	152	stimuli_distractor_diamondtriangles.svg	stimuli_target_diamondcircles.svg	31	yes	57	0	90
6.6.1	win	2022-12-14	18:08:30	18:18:48	614484	5aa6e29435237b0001130d68	55714098	1	main_slash	11	main_slash	153	stimuli_target_diamondcircles.svg	stimuli_distractor_diamondtriangles.svg	23	yes	53	1	399
6.6.1	win	2022-12-14	18:08:30	18:18:48	614484	5aa6e29435237b0001130d68	55714098	1	main_slash	11	advance_on_keypress_SLASH	154	stimuli_target_diamondcircles.svg	stimuli_distractor_diamondtriangles.svg	23	yes	57	0	68
6.6.1	win	2022-12-14	18:08:30	18:18:49	615751	5aa6e29435237b0001130d68	55714098	1	main_slash	11	main_slash	155	stimuli_target_trianglesquares.svg	stimuli_distractor_trianglediamonds.svg	18	yes	53	1	550
6.6.1	win	2022-12-14	18:08:30	18:18:49	615751	5aa6e29435237b0001130d68	55714098	1	main_slash	11	advance_on_keypress_SLASH	156	stimuli_target_trianglesquares.svg	stimuli_distractor_trianglediamonds.svg	18	yes	57	0	54
6.6.1	win	2022-12-14	18:08:30	18:18:50	616796	5aa6e29435237b0001130d68	55714098	1	main_slash	11	main_slash	157	stimuli_distractor_trianglediamonds.svg	stimuli_target_circlediamonds.svg	10	yes	53	1	347
6.6.1	win	2022-12-14	18:08:30	18:18:50	616796	5aa6e29435237b0001130d68	55714098	1	main_slash	11	advance_on_keypress_SLASH	158	stimuli_distractor_trianglediamonds.svg	stimuli_target_circlediamonds.svg	10	yes	57	0	125
6.6.1	win	2022-12-14	18:08:30	18:18:52	618215	5aa6e29435237b0001130d68	55714098	1	main_slash	11	main_slash	159	stimuli_target_trianglecircles.svg	stimuli_distractor_trianglediamonds.svg	17	yes	53	1	651
6.6.1	win	2022-12-14	18:08:30	18:18:52	618215	5aa6e29435237b0001130d68	55714098	1	main_slash	11	advance_on_keypress_SLASH	160	stimuli_target_trianglecircles.svg	stimuli_distractor_trianglediamonds.svg	17	yes	57	0	97