build	computer.platform	date	time	timestamp	time_elapsed_ms	subject	group	session	blockcode	blocknum	trialcode	trialnum	stimulus_left	stimulus_right	stim_index	target_present	response	correct	latency
6.6.1	mac	2022-12-14	15:13:53	15:17:43	228937	60fdd7ce470f6c1005cb87cb	420664054	1	practice_z	5	practice_z	1	stimuli_distractor_diamondtriangles.svg	stimuli_distractor_diamondtriangles.svg	13	no	0	1	2000
6.6.1	mac	2022-12-14	15:13:53	15:17:43	228937	60fdd7ce470f6c1005cb87cb	420664054	1	practice_z	5	advance_on_keypress_ZEE	2	stimuli_distractor_diamondtriangles.svg	stimuli_distractor_diamondtriangles.svg	13	no	57	0	785
6.6.1	mac	2022-12-14	15:13:53	15:17:47	233353	60fdd7ce470f6c1005cb87cb	420664054	1	practice_z	5	practice_z	3	stimuli_distractor_trianglediamonds.svg	stimuli_distractor_trianglediamonds.svg	15	no	0	1	2000
6.6.1	mac	2022-12-14	15:13:53	15:17:47	233353	60fdd7ce470f6c1005cb87cb	420664054	1	practice_z	5	advance_on_keypress_ZEE	4	stimuli_distractor_trianglediamonds.svg	stimuli_distractor_trianglediamonds.svg	15	no	57	0	1757
6.6.1	mac	2022-12-14	15:13:53	15:17:53	238736	60fdd7ce470f6c1005cb87cb	420664054	1	practice_z	5	practice_z	5	stimuli_distractor_trianglediamonds.svg	stimuli_distractor_diamondtriangles.svg	16	no	0	1	2000
6.6.1	mac	2022-12-14	15:13:53	15:17:53	238736	60fdd7ce470f6c1005cb87cb	420664054	1	practice_z	5	advance_on_keypress_ZEE	6	stimuli_distractor_trianglediamonds.svg	stimuli_distractor_diamondtriangles.svg	16	no	57	0	644
6.6.1	mac	2022-12-14	15:13:53	15:17:57	242614	60fdd7ce470f6c1005cb87cb	420664054	1	practice_z	5	practice_z	7	stimuli_distractor_diamondtriangles.svg	stimuli_target_diamondcircles.svg	8	yes	44	1	1593
6.6.1	mac	2022-12-14	15:13:53	15:17:57	242614	60fdd7ce470f6c1005cb87cb	420664054	1	practice_z	5	advance_on_keypress_ZEE	8	stimuli_distractor_diamondtriangles.svg	stimuli_target_diamondcircles.svg	8	yes	57	0	1229
6.6.1	mac	2022-12-14	15:13:53	15:18:02	247485	60fdd7ce470f6c1005cb87cb	420664054	1	practice_z	5	practice_z	9	stimuli_target_squarediamonds.svg	stimuli_distractor_diamondtriangles.svg	2	yes	0	0	2000
6.6.1	mac	2022-12-14	15:13:53	15:18:02	247485	60fdd7ce470f6c1005cb87cb	420664054	1	practice_z	5	advance_on_keypress_ZEE	10	stimuli_target_squarediamonds.svg	stimuli_distractor_diamondtriangles.svg	2	yes	57	0	542
6.6.1	mac	2022-12-14	15:13:53	15:18:04	249906	60fdd7ce470f6c1005cb87cb	420664054	1	practice_z	5	practice_z	11	stimuli_target_diamondsquares.svg	stimuli_distractor_diamondtriangles.svg	3	yes	44	1	253
6.6.1	mac	2022-12-14	15:13:53	15:18:04	249906	60fdd7ce470f6c1005cb87cb	420664054	1	practice_z	5	advance_on_keypress_ZEE	12	stimuli_target_diamondsquares.svg	stimuli_distractor_diamondtriangles.svg	3	yes	57	0	1444
6.6.1	mac	2022-12-14	15:13:53	15:18:08	253442	60fdd7ce470f6c1005cb87cb	420664054	1	practice_z	5	practice_z	13	stimuli_distractor_trianglediamonds.svg	stimuli_target_circlediamonds.svg	10	yes	44	1	454
6.6.1	mac	2022-12-14	15:13:53	15:18:08	253442	60fdd7ce470f6c1005cb87cb	420664054	1	practice_z	5	advance_on_keypress_ZEE	14	stimuli_distractor_trianglediamonds.svg	stimuli_target_circlediamonds.svg	10	yes	57	0	1149
6.6.1	mac	2022-12-14	15:13:53	15:18:11	256625	60fdd7ce470f6c1005cb87cb	420664054	1	practice_z	5	practice_z	15	stimuli_target_circlediamonds.svg	stimuli_distractor_diamondtriangles.svg	1	yes	44	1	403
6.6.1	mac	2022-12-14	15:13:53	15:18:11	256625	60fdd7ce470f6c1005cb87cb	420664054	1	practice_z	5	advance_on_keypress_ZEE	16	stimuli_target_circlediamonds.svg	stimuli_distractor_diamondtriangles.svg	1	yes	57	0	556
6.6.1	mac	2022-12-14	15:13:53	15:18:15	260802	60fdd7ce470f6c1005cb87cb	420664054	1	practice_z	5	practice_z	17	stimuli_distractor_trianglediamonds.svg	stimuli_target_diamondcircles.svg	12	yes	0	0	2000
6.6.1	mac	2022-12-14	15:13:53	15:18:15	260802	60fdd7ce470f6c1005cb87cb	420664054	1	practice_z	5	advance_on_keypress_ZEE	18	stimuli_distractor_trianglediamonds.svg	stimuli_target_diamondcircles.svg	12	yes	57	0	3476
6.6.1	mac	2022-12-14	15:13:53	15:18:22	267902	60fdd7ce470f6c1005cb87cb	420664054	1	practice_z	5	practice_z	19	stimuli_target_diamondsquares.svg	stimuli_distractor_trianglediamonds.svg	6	yes	0	0	2000
6.6.1	mac	2022-12-14	15:13:53	15:18:22	267902	60fdd7ce470f6c1005cb87cb	420664054	1	practice_z	5	advance_on_keypress_ZEE	20	stimuli_target_diamondsquares.svg	stimuli_distractor_trianglediamonds.svg	6	yes	57	0	767
6.6.1	mac	2022-12-14	15:13:53	15:18:26	272302	60fdd7ce470f6c1005cb87cb	420664054	1	practice_z	5	practice_z	21	stimuli_distractor_diamondtriangles.svg	stimuli_distractor_trianglediamonds.svg	14	no	0	1	2000
6.6.1	mac	2022-12-14	15:13:53	15:18:26	272302	60fdd7ce470f6c1005cb87cb	420664054	1	practice_z	5	advance_on_keypress_ZEE	22	stimuli_distractor_diamondtriangles.svg	stimuli_distractor_trianglediamonds.svg	14	no	57	0	297
6.6.1	mac	2022-12-14	15:13:53	15:18:29	274667	60fdd7ce470f6c1005cb87cb	420664054	1	practice_z	5	practice_z	23	stimuli_target_circlediamonds.svg	stimuli_distractor_trianglediamonds.svg	4	yes	44	1	430
6.6.1	mac	2022-12-14	15:13:53	15:18:29	274667	60fdd7ce470f6c1005cb87cb	420664054	1	practice_z	5	advance_on_keypress_ZEE	24	stimuli_target_circlediamonds.svg	stimuli_distractor_trianglediamonds.svg	4	yes	57	0	2878
6.6.1	mac	2022-12-14	15:13:53	15:18:34	279846	60fdd7ce470f6c1005cb87cb	420664054	1	practice_z	5	practice_z	25	stimuli_distractor_diamondtriangles.svg	stimuli_target_circletriangles.svg	7	yes	44	1	659
6.6.1	mac	2022-12-14	15:13:53	15:18:34	279846	60fdd7ce470f6c1005cb87cb	420664054	1	practice_z	5	advance_on_keypress_ZEE	26	stimuli_distractor_diamondtriangles.svg	stimuli_target_circletriangles.svg	7	yes	57	0	605
6.6.1	mac	2022-12-14	15:13:53	15:18:37	282841	60fdd7ce470f6c1005cb87cb	420664054	1	practice_z	5	practice_z	27	stimuli_distractor_trianglediamonds.svg	stimuli_target_squarediamonds.svg	11	yes	44	1	770
6.6.1	mac	2022-12-14	15:13:53	15:18:37	282841	60fdd7ce470f6c1005cb87cb	420664054	1	practice_z	5	advance_on_keypress_ZEE	28	stimuli_distractor_trianglediamonds.svg	stimuli_target_squarediamonds.svg	11	yes	57	0	428
6.6.1	mac	2022-12-14	15:13:53	15:18:40	285401	60fdd7ce470f6c1005cb87cb	420664054	1	practice_z	5	practice_z	29	stimuli_target_squarediamonds.svg	stimuli_distractor_trianglediamonds.svg	5	yes	44	1	498
6.6.1	mac	2022-12-14	15:13:53	15:18:40	285401	60fdd7ce470f6c1005cb87cb	420664054	1	practice_z	5	advance_on_keypress_ZEE	30	stimuli_target_squarediamonds.svg	stimuli_distractor_trianglediamonds.svg	5	yes	57	0	422
6.6.1	mac	2022-12-14	15:13:53	15:18:42	288045	60fdd7ce470f6c1005cb87cb	420664054	1	practice_z	5	practice_z	31	stimuli_distractor_diamondtriangles.svg	stimuli_target_trianglecircles.svg	9	yes	44	1	591
6.6.1	mac	2022-12-14	15:13:53	15:18:42	288045	60fdd7ce470f6c1005cb87cb	420664054	1	practice_z	5	advance_on_keypress_ZEE	32	stimuli_distractor_diamondtriangles.svg	stimuli_target_trianglecircles.svg	9	yes	57	0	508
6.6.1	mac	2022-12-14	15:13:53	15:18:55	300751	60fdd7ce470f6c1005cb87cb	420664054	1	main_z	7	main_z	1	stimuli_target_trianglecircles.svg	stimuli_distractor_diamondtriangles.svg	21	yes	44	1	382
6.6.1	mac	2022-12-14	15:13:53	15:18:55	300751	60fdd7ce470f6c1005cb87cb	420664054	1	main_z	7	advance_on_keypress_ZEE	2	stimuli_target_trianglecircles.svg	stimuli_distractor_diamondtriangles.svg	21	yes	57	0	1022
6.6.1	mac	2022-12-14	15:13:53	15:18:57	302832	60fdd7ce470f6c1005cb87cb	420664054	1	main_z	7	main_z	3	stimuli_target_trianglecircles.svg	stimuli_distractor_trianglediamonds.svg	17	yes	44	1	428
6.6.1	mac	2022-12-14	15:13:53	15:18:57	302832	60fdd7ce470f6c1005cb87cb	420664054	1	main_z	7	advance_on_keypress_ZEE	4	stimuli_target_trianglecircles.svg	stimuli_distractor_trianglediamonds.svg	17	yes	57	0	861
6.6.1	mac	2022-12-14	15:13:53	15:19:00	306335	60fdd7ce470f6c1005cb87cb	420664054	1	main_z	7	main_z	5	stimuli_target_diamondsquares.svg	stimuli_distractor_diamondtriangles.svg	24	yes	0	0	2000
6.6.1	mac	2022-12-14	15:13:53	15:19:00	306335	60fdd7ce470f6c1005cb87cb	420664054	1	main_z	7	advance_on_keypress_ZEE	6	stimuli_target_diamondsquares.svg	stimuli_distractor_diamondtriangles.svg	24	yes	57	0	584
6.6.1	mac	2022-12-14	15:13:53	15:19:02	307967	60fdd7ce470f6c1005cb87cb	420664054	1	main_z	7	main_z	7	stimuli_target_diamondsquares.svg	stimuli_distractor_trianglediamonds.svg	20	yes	44	1	414
6.6.1	mac	2022-12-14	15:13:53	15:19:02	307967	60fdd7ce470f6c1005cb87cb	420664054	1	main_z	7	advance_on_keypress_ZEE	8	stimuli_target_diamondsquares.svg	stimuli_distractor_trianglediamonds.svg	20	yes	57	0	918
6.6.1	mac	2022-12-14	15:13:53	15:19:06	311518	60fdd7ce470f6c1005cb87cb	420664054	1	main_z	7	main_z	9	stimuli_distractor_trianglediamonds.svg	stimuli_target_diamondsquares.svg	28	yes	0	0	2000
6.6.1	mac	2022-12-14	15:13:53	15:19:06	311518	60fdd7ce470f6c1005cb87cb	420664054	1	main_z	7	advance_on_keypress_ZEE	10	stimuli_distractor_trianglediamonds.svg	stimuli_target_diamondsquares.svg	28	yes	57	0	461
6.6.1	mac	2022-12-14	15:13:53	15:19:07	313073	60fdd7ce470f6c1005cb87cb	420664054	1	main_z	7	main_z	11	stimuli_distractor_diamondtriangles.svg	stimuli_target_circletriangles.svg	13	yes	44	1	470
6.6.1	mac	2022-12-14	15:13:53	15:19:07	313073	60fdd7ce470f6c1005cb87cb	420664054	1	main_z	7	advance_on_keypress_ZEE	12	stimuli_distractor_diamondtriangles.svg	stimuli_target_circletriangles.svg	13	yes	57	0	887
6.6.1	mac	2022-12-14	15:13:53	15:19:11	316585	60fdd7ce470f6c1005cb87cb	420664054	1	main_z	7	main_z	13	stimuli_distractor_trianglediamonds.svg	stimuli_distractor_trianglediamonds.svg	34	no	0	1	2000
6.6.1	mac	2022-12-14	15:13:53	15:19:11	316585	60fdd7ce470f6c1005cb87cb	420664054	1	main_z	7	advance_on_keypress_ZEE	14	stimuli_distractor_trianglediamonds.svg	stimuli_distractor_trianglediamonds.svg	34	no	57	0	636
6.6.1	mac	2022-12-14	15:13:53	15:19:14	319851	60fdd7ce470f6c1005cb87cb	420664054	1	main_z	7	main_z	15	stimuli_distractor_diamondtriangles.svg	stimuli_distractor_trianglediamonds.svg	38	no	0	1	2000
6.6.1	mac	2022-12-14	15:13:53	15:19:14	319851	60fdd7ce470f6c1005cb87cb	420664054	1	main_z	7	advance_on_keypress_ZEE	16	stimuli_distractor_diamondtriangles.svg	stimuli_distractor_trianglediamonds.svg	38	no	57	0	347
6.6.1	mac	2022-12-14	15:13:53	15:19:17	322835	60fdd7ce470f6c1005cb87cb	420664054	1	main_z	7	main_z	17	stimuli_distractor_trianglediamonds.svg	stimuli_target_diamondcircles.svg	27	yes	0	0	2000
6.6.1	mac	2022-12-14	15:13:53	15:19:17	322835	60fdd7ce470f6c1005cb87cb	420664054	1	main_z	7	advance_on_keypress_ZEE	18	stimuli_distractor_trianglediamonds.svg	stimuli_target_diamondcircles.svg	27	yes	57	0	520
6.6.1	mac	2022-12-14	15:13:53	15:19:19	324605	60fdd7ce470f6c1005cb87cb	420664054	1	main_z	7	main_z	19	stimuli_distractor_diamondtriangles.svg	stimuli_target_squarediamonds.svg	16	yes	44	1	618
6.6.1	mac	2022-12-14	15:13:53	15:19:19	324605	60fdd7ce470f6c1005cb87cb	420664054	1	main_z	7	advance_on_keypress_ZEE	20	stimuli_distractor_diamondtriangles.svg	stimuli_target_squarediamonds.svg	16	yes	57	0	806
6.6.1	mac	2022-12-14	15:13:53	15:19:21	326511	60fdd7ce470f6c1005cb87cb	420664054	1	main_z	7	main_z	21	stimuli_target_squaretriangles.svg	stimuli_distractor_trianglediamonds.svg	3	yes	44	1	474
6.6.1	mac	2022-12-14	15:13:53	15:19:21	326511	60fdd7ce470f6c1005cb87cb	420664054	1	main_z	7	advance_on_keypress_ZEE	22	stimuli_target_squaretriangles.svg	stimuli_distractor_trianglediamonds.svg	3	yes	57	0	751
6.6.1	mac	2022-12-14	15:13:53	15:19:24	329884	60fdd7ce470f6c1005cb87cb	420664054	1	main_z	7	main_z	23	stimuli_distractor_diamondtriangles.svg	stimuli_distractor_diamondtriangles.svg	40	no	0	1	2000
6.6.1	mac	2022-12-14	15:13:53	15:19:24	329884	60fdd7ce470f6c1005cb87cb	420664054	1	main_z	7	advance_on_keypress_ZEE	24	stimuli_distractor_diamondtriangles.svg	stimuli_distractor_diamondtriangles.svg	40	no	57	0	289
6.6.1	mac	2022-12-14	15:13:53	15:19:26	331366	60fdd7ce470f6c1005cb87cb	420664054	1	main_z	7	main_z	25	stimuli_distractor_diamondtriangles.svg	stimuli_target_diamondsquares.svg	32	yes	44	1	564
6.6.1	mac	2022-12-14	15:13:53	15:19:26	331366	60fdd7ce470f6c1005cb87cb	420664054	1	main_z	7	advance_on_keypress_ZEE	26	stimuli_distractor_diamondtriangles.svg	stimuli_target_diamondsquares.svg	32	yes	57	0	677
6.6.1	mac	2022-12-14	15:13:53	15:19:29	334668	60fdd7ce470f6c1005cb87cb	420664054	1	main_z	7	main_z	27	stimuli_distractor_diamondtriangles.svg	stimuli_distractor_diamondtriangles.svg	39	no	0	1	2000
6.6.1	mac	2022-12-14	15:13:53	15:19:29	334668	60fdd7ce470f6c1005cb87cb	420664054	1	main_z	7	advance_on_keypress_ZEE	28	stimuli_distractor_diamondtriangles.svg	stimuli_distractor_diamondtriangles.svg	39	no	57	0	394
6.6.1	mac	2022-12-14	15:13:53	15:19:32	337685	60fdd7ce470f6c1005cb87cb	420664054	1	main_z	7	main_z	29	stimuli_distractor_trianglediamonds.svg	stimuli_distractor_trianglediamonds.svg	33	no	0	1	2000
6.6.1	mac	2022-12-14	15:13:53	15:19:32	337685	60fdd7ce470f6c1005cb87cb	420664054	1	main_z	7	advance_on_keypress_ZEE	30	stimuli_distractor_trianglediamonds.svg	stimuli_distractor_trianglediamonds.svg	33	no	57	0	408
6.6.1	mac	2022-12-14	15:13:53	15:19:33	339268	60fdd7ce470f6c1005cb87cb	420664054	1	main_z	7	main_z	31	stimuli_distractor_trianglediamonds.svg	stimuli_target_trianglesquares.svg	26	yes	44	1	548
6.6.1	mac	2022-12-14	15:13:53	15:19:33	339268	60fdd7ce470f6c1005cb87cb	420664054	1	main_z	7	advance_on_keypress_ZEE	32	stimuli_distractor_trianglediamonds.svg	stimuli_target_trianglesquares.svg	26	yes	57	0	468
6.6.1	mac	2022-12-14	15:13:53	15:19:35	341166	60fdd7ce470f6c1005cb87cb	420664054	1	main_z	7	main_z	33	stimuli_target_trianglesquares.svg	stimuli_distractor_trianglediamonds.svg	18	yes	44	1	796
6.6.1	mac	2022-12-14	15:13:53	15:19:35	341166	60fdd7ce470f6c1005cb87cb	420664054	1	main_z	7	advance_on_keypress_ZEE	34	stimuli_target_trianglesquares.svg	stimuli_distractor_trianglediamonds.svg	18	yes	57	0	1049
6.6.1	mac	2022-12-14	15:13:53	15:19:39	344852	60fdd7ce470f6c1005cb87cb	420664054	1	main_z	7	main_z	35	stimuli_distractor_diamondtriangles.svg	stimuli_distractor_trianglediamonds.svg	37	no	0	1	2000
6.6.1	mac	2022-12-14	15:13:53	15:19:39	344852	60fdd7ce470f6c1005cb87cb	420664054	1	main_z	7	advance_on_keypress_ZEE	36	stimuli_distractor_diamondtriangles.svg	stimuli_distractor_trianglediamonds.svg	37	no	57	0	1075
6.6.1	mac	2022-12-14	15:13:53	15:19:43	348551	60fdd7ce470f6c1005cb87cb	420664054	1	main_z	7	main_z	37	stimuli_distractor_trianglediamonds.svg	stimuli_distractor_diamondtriangles.svg	35	no	0	1	2000
6.6.1	mac	2022-12-14	15:13:53	15:19:43	348551	60fdd7ce470f6c1005cb87cb	420664054	1	main_z	7	advance_on_keypress_ZEE	38	stimuli_distractor_trianglediamonds.svg	stimuli_distractor_diamondtriangles.svg	35	no	57	0	313
6.6.1	mac	2022-12-14	15:13:53	15:19:44	350094	60fdd7ce470f6c1005cb87cb	420664054	1	main_z	7	main_z	39	stimuli_distractor_trianglediamonds.svg	stimuli_target_trianglecircles.svg	25	yes	44	1	591
6.6.1	mac	2022-12-14	15:13:53	15:19:44	350094	60fdd7ce470f6c1005cb87cb	420664054	1	main_z	7	advance_on_keypress_ZEE	40	stimuli_distractor_trianglediamonds.svg	stimuli_target_trianglecircles.svg	25	yes	57	0	607
6.6.1	mac	2022-12-14	15:13:53	15:19:47	353318	60fdd7ce470f6c1005cb87cb	420664054	1	main_z	7	main_z	41	stimuli_distractor_trianglediamonds.svg	stimuli_distractor_diamondtriangles.svg	36	no	0	1	2000
6.6.1	mac	2022-12-14	15:13:53	15:19:47	353318	60fdd7ce470f6c1005cb87cb	420664054	1	main_z	7	advance_on_keypress_ZEE	42	stimuli_distractor_trianglediamonds.svg	stimuli_distractor_diamondtriangles.svg	36	no	57	0	553
6.6.1	mac	2022-12-14	15:13:53	15:19:49	355151	60fdd7ce470f6c1005cb87cb	420664054	1	main_z	7	main_z	43	stimuli_distractor_trianglediamonds.svg	stimuli_target_circletriangles.svg	9	yes	44	1	648
6.6.1	mac	2022-12-14	15:13:53	15:19:49	355151	60fdd7ce470f6c1005cb87cb	420664054	1	main_z	7	advance_on_keypress_ZEE	44	stimuli_distractor_trianglediamonds.svg	stimuli_target_circletriangles.svg	9	yes	57	0	884
6.6.1	mac	2022-12-14	15:13:53	15:19:51	357344	60fdd7ce470f6c1005cb87cb	420664054	1	main_z	7	main_z	45	stimuli_target_circletriangles.svg	stimuli_distractor_trianglediamonds.svg	1	yes	44	1	673
6.6.1	mac	2022-12-14	15:13:53	15:19:51	357344	60fdd7ce470f6c1005cb87cb	420664054	1	main_z	7	advance_on_keypress_ZEE	46	stimuli_target_circletriangles.svg	stimuli_distractor_trianglediamonds.svg	1	yes	57	0	531
6.6.1	mac	2022-12-14	15:13:53	15:19:53	359109	60fdd7ce470f6c1005cb87cb	420664054	1	main_z	7	main_z	47	stimuli_target_squarediamonds.svg	stimuli_distractor_diamondtriangles.svg	8	yes	44	1	605
6.6.1	mac	2022-12-14	15:13:53	15:19:53	359109	60fdd7ce470f6c1005cb87cb	420664054	1	main_z	7	advance_on_keypress_ZEE	48	stimuli_target_squarediamonds.svg	stimuli_distractor_diamondtriangles.svg	8	yes	57	0	685
6.6.1	mac	2022-12-14	15:13:53	15:19:55	361220	60fdd7ce470f6c1005cb87cb	420664054	1	main_z	7	main_z	49	stimuli_distractor_diamondtriangles.svg	stimuli_target_diamondcircles.svg	31	yes	44	1	800
6.6.1	mac	2022-12-14	15:13:53	15:19:55	361220	60fdd7ce470f6c1005cb87cb	420664054	1	main_z	7	advance_on_keypress_ZEE	50	stimuli_distractor_diamondtriangles.svg	stimuli_target_diamondcircles.svg	31	yes	57	0	1104
6.6.1	mac	2022-12-14	15:13:53	15:19:58	363623	60fdd7ce470f6c1005cb87cb	420664054	1	main_z	7	main_z	51	stimuli_target_squarediamonds.svg	stimuli_distractor_trianglediamonds.svg	4	yes	44	1	669
6.6.1	mac	2022-12-14	15:13:53	15:19:58	363623	60fdd7ce470f6c1005cb87cb	420664054	1	main_z	7	advance_on_keypress_ZEE	52	stimuli_target_squarediamonds.svg	stimuli_distractor_trianglediamonds.svg	4	yes	57	0	933
6.6.1	mac	2022-12-14	15:13:53	15:20:00	365756	60fdd7ce470f6c1005cb87cb	420664054	1	main_z	7	main_z	53	stimuli_distractor_trianglediamonds.svg	stimuli_target_squarediamonds.svg	12	yes	44	1	568
6.6.1	mac	2022-12-14	15:13:53	15:20:00	365756	60fdd7ce470f6c1005cb87cb	420664054	1	main_z	7	advance_on_keypress_ZEE	54	stimuli_distractor_trianglediamonds.svg	stimuli_target_squarediamonds.svg	12	yes	57	0	500
6.6.1	mac	2022-12-14	15:13:53	15:20:02	367539	60fdd7ce470f6c1005cb87cb	420664054	1	main_z	7	main_z	55	stimuli_distractor_diamondtriangles.svg	stimuli_target_trianglecircles.svg	29	yes	44	1	652
6.6.1	mac	2022-12-14	15:13:53	15:20:02	367539	60fdd7ce470f6c1005cb87cb	420664054	1	main_z	7	advance_on_keypress_ZEE	56	stimuli_distractor_diamondtriangles.svg	stimuli_target_trianglecircles.svg	29	yes	57	0	549
6.6.1	mac	2022-12-14	15:13:53	15:20:05	370718	60fdd7ce470f6c1005cb87cb	420664054	1	main_z	7	main_z	57	stimuli_distractor_trianglediamonds.svg	stimuli_target_squaretriangles.svg	11	yes	0	0	2000
6.6.1	mac	2022-12-14	15:13:53	15:20:05	370718	60fdd7ce470f6c1005cb87cb	420664054	1	main_z	7	advance_on_keypress_ZEE	58	stimuli_distractor_trianglediamonds.svg	stimuli_target_squaretriangles.svg	11	yes	57	0	610
6.6.1	mac	2022-12-14	15:13:53	15:20:07	372621	60fdd7ce470f6c1005cb87cb	420664054	1	main_z	7	main_z	59	stimuli_distractor_trianglediamonds.svg	stimuli_target_circlediamonds.svg	10	yes	44	1	666
6.6.1	mac	2022-12-14	15:13:53	15:20:07	372621	60fdd7ce470f6c1005cb87cb	420664054	1	main_z	7	advance_on_keypress_ZEE	60	stimuli_distractor_trianglediamonds.svg	stimuli_target_circlediamonds.svg	10	yes	57	0	563
6.6.1	mac	2022-12-14	15:13:53	15:20:09	375072	60fdd7ce470f6c1005cb87cb	420664054	1	main_z	7	main_z	61	stimuli_target_diamondcircles.svg	stimuli_distractor_diamondtriangles.svg	23	yes	44	1	1252
6.6.1	mac	2022-12-14	15:13:53	15:20:09	375072	60fdd7ce470f6c1005cb87cb	420664054	1	main_z	7	advance_on_keypress_ZEE	62	stimuli_target_diamondcircles.svg	stimuli_distractor_diamondtriangles.svg	23	yes	57	0	1914
6.6.1	mac	2022-12-14	15:13:53	15:20:12	378017	60fdd7ce470f6c1005cb87cb	420664054	1	main_z	7	main_z	63	stimuli_target_circletriangles.svg	stimuli_distractor_diamondtriangles.svg	5	yes	44	1	397
6.6.1	mac	2022-12-14	15:13:53	15:20:12	378017	60fdd7ce470f6c1005cb87cb	420664054	1	main_z	7	advance_on_keypress_ZEE	64	stimuli_target_circletriangles.svg	stimuli_distractor_diamondtriangles.svg	5	yes	57	0	500
6.6.1	mac	2022-12-14	15:13:53	15:20:14	379724	60fdd7ce470f6c1005cb87cb	420664054	1	main_z	7	main_z	65	stimuli_target_diamondcircles.svg	stimuli_distractor_trianglediamonds.svg	19	yes	44	1	571
6.6.1	mac	2022-12-14	15:13:53	15:20:14	379724	60fdd7ce470f6c1005cb87cb	420664054	1	main_z	7	advance_on_keypress_ZEE	66	stimuli_target_diamondcircles.svg	stimuli_distractor_trianglediamonds.svg	19	yes	57	0	563
6.6.1	mac	2022-12-14	15:13:53	15:20:16	381615	60fdd7ce470f6c1005cb87cb	420664054	1	main_z	7	main_z	67	stimuli_distractor_diamondtriangles.svg	stimuli_target_circlediamonds.svg	14	yes	44	1	695
6.6.1	mac	2022-12-14	15:13:53	15:20:16	381615	60fdd7ce470f6c1005cb87cb	420664054	1	main_z	7	advance_on_keypress_ZEE	68	stimuli_distractor_diamondtriangles.svg	stimuli_target_circlediamonds.svg	14	yes	57	0	448
6.6.1	mac	2022-12-14	15:13:53	15:20:17	383286	60fdd7ce470f6c1005cb87cb	420664054	1	main_z	7	main_z	69	stimuli_target_circlediamonds.svg	stimuli_distractor_trianglediamonds.svg	2	yes	44	1	583
6.6.1	mac	2022-12-14	15:13:53	15:20:17	383286	60fdd7ce470f6c1005cb87cb	420664054	1	main_z	7	advance_on_keypress_ZEE	70	stimuli_target_circlediamonds.svg	stimuli_distractor_trianglediamonds.svg	2	yes	57	0	526
6.6.1	mac	2022-12-14	15:13:53	15:20:19	385038	60fdd7ce470f6c1005cb87cb	420664054	1	main_z	7	main_z	71	stimuli_distractor_diamondtriangles.svg	stimuli_target_squaretriangles.svg	15	yes	44	1	601
6.6.1	mac	2022-12-14	15:13:53	15:20:19	385038	60fdd7ce470f6c1005cb87cb	420664054	1	main_z	7	advance_on_keypress_ZEE	72	stimuli_distractor_diamondtriangles.svg	stimuli_target_squaretriangles.svg	15	yes	57	0	462
6.6.1	mac	2022-12-14	15:13:53	15:20:21	386746	60fdd7ce470f6c1005cb87cb	420664054	1	main_z	7	main_z	73	stimuli_target_trianglesquares.svg	stimuli_distractor_diamondtriangles.svg	22	yes	44	1	610
6.6.1	mac	2022-12-14	15:13:53	15:20:21	386746	60fdd7ce470f6c1005cb87cb	420664054	1	main_z	7	advance_on_keypress_ZEE	74	stimuli_target_trianglesquares.svg	stimuli_distractor_diamondtriangles.svg	22	yes	57	0	616
6.6.1	mac	2022-12-14	15:13:53	15:20:23	388613	60fdd7ce470f6c1005cb87cb	420664054	1	main_z	7	main_z	75	stimuli_distractor_diamondtriangles.svg	stimuli_target_trianglesquares.svg	30	yes	44	1	625
6.6.1	mac	2022-12-14	15:13:53	15:20:23	388613	60fdd7ce470f6c1005cb87cb	420664054	1	main_z	7	advance_on_keypress_ZEE	76	stimuli_distractor_diamondtriangles.svg	stimuli_target_trianglesquares.svg	30	yes	57	0	484
6.6.1	mac	2022-12-14	15:13:53	15:20:24	390288	60fdd7ce470f6c1005cb87cb	420664054	1	main_z	7	main_z	77	stimuli_target_circlediamonds.svg	stimuli_distractor_diamondtriangles.svg	6	yes	44	1	568
6.6.1	mac	2022-12-14	15:13:53	15:20:24	390288	60fdd7ce470f6c1005cb87cb	420664054	1	main_z	7	advance_on_keypress_ZEE	78	stimuli_target_circlediamonds.svg	stimuli_distractor_diamondtriangles.svg	6	yes	57	0	413
6.6.1	mac	2022-12-14	15:13:53	15:20:27	392384	60fdd7ce470f6c1005cb87cb	420664054	1	main_z	7	main_z	79	stimuli_target_squaretriangles.svg	stimuli_distractor_diamondtriangles.svg	7	yes	44	1	1047
6.6.1	mac	2022-12-14	15:13:53	15:20:27	392384	60fdd7ce470f6c1005cb87cb	420664054	1	main_z	7	advance_on_keypress_ZEE	80	stimuli_target_squaretriangles.svg	stimuli_distractor_diamondtriangles.svg	7	yes	57	0	369
6.6.1	mac	2022-12-14	15:13:53	15:20:28	394023	60fdd7ce470f6c1005cb87cb	420664054	1	main_z	7	main_z	81	stimuli_distractor_diamondtriangles.svg	stimuli_target_circlediamonds.svg	14	yes	44	1	636
6.6.1	mac	2022-12-14	15:13:53	15:20:28	394023	60fdd7ce470f6c1005cb87cb	420664054	1	main_z	7	advance_on_keypress_ZEE	82	stimuli_distractor_diamondtriangles.svg	stimuli_target_circlediamonds.svg	14	yes	57	0	440
6.6.1	mac	2022-12-14	15:13:53	15:20:30	395634	60fdd7ce470f6c1005cb87cb	420664054	1	main_z	7	main_z	83	stimuli_target_squaretriangles.svg	stimuli_distractor_trianglediamonds.svg	3	yes	44	1	548
6.6.1	mac	2022-12-14	15:13:53	15:20:30	395634	60fdd7ce470f6c1005cb87cb	420664054	1	main_z	7	advance_on_keypress_ZEE	84	stimuli_target_squaretriangles.svg	stimuli_distractor_trianglediamonds.svg	3	yes	57	0	408
6.6.1	mac	2022-12-14	15:13:53	15:20:32	397435	60fdd7ce470f6c1005cb87cb	420664054	1	main_z	7	main_z	85	stimuli_distractor_trianglediamonds.svg	stimuli_target_diamondcircles.svg	27	yes	44	1	765
6.6.1	mac	2022-12-14	15:13:53	15:20:32	397435	60fdd7ce470f6c1005cb87cb	420664054	1	main_z	7	advance_on_keypress_ZEE	86	stimuli_distractor_trianglediamonds.svg	stimuli_target_diamondcircles.svg	27	yes	57	0	447
6.6.1	mac	2022-12-14	15:13:53	15:20:35	400518	60fdd7ce470f6c1005cb87cb	420664054	1	main_z	7	main_z	87	stimuli_distractor_trianglediamonds.svg	stimuli_distractor_trianglediamonds.svg	34	no	0	1	2000
6.6.1	mac	2022-12-14	15:13:53	15:20:35	400518	60fdd7ce470f6c1005cb87cb	420664054	1	main_z	7	advance_on_keypress_ZEE	88	stimuli_distractor_trianglediamonds.svg	stimuli_distractor_trianglediamonds.svg	34	no	57	0	264
6.6.1	mac	2022-12-14	15:13:53	15:20:36	401799	60fdd7ce470f6c1005cb87cb	420664054	1	main_z	7	main_z	89	stimuli_target_circlediamonds.svg	stimuli_distractor_diamondtriangles.svg	6	yes	44	1	379
6.6.1	mac	2022-12-14	15:13:53	15:20:36	401799	60fdd7ce470f6c1005cb87cb	420664054	1	main_z	7	advance_on_keypress_ZEE	90	stimuli_target_circlediamonds.svg	stimuli_distractor_diamondtriangles.svg	6	yes	57	0	391
6.6.1	mac	2022-12-14	15:13:53	15:20:38	403334	60fdd7ce470f6c1005cb87cb	420664054	1	main_z	7	main_z	91	stimuli_distractor_trianglediamonds.svg	stimuli_target_circletriangles.svg	9	yes	44	1	515
6.6.1	mac	2022-12-14	15:13:53	15:20:38	403334	60fdd7ce470f6c1005cb87cb	420664054	1	main_z	7	advance_on_keypress_ZEE	92	stimuli_distractor_trianglediamonds.svg	stimuli_target_circletriangles.svg	9	yes	57	0	378
6.6.1	mac	2022-12-14	15:13:53	15:20:39	404842	60fdd7ce470f6c1005cb87cb	420664054	1	main_z	7	main_z	93	stimuli_distractor_trianglediamonds.svg	stimuli_target_circlediamonds.svg	10	yes	44	1	505
6.6.1	mac	2022-12-14	15:13:53	15:20:39	404842	60fdd7ce470f6c1005cb87cb	420664054	1	main_z	7	advance_on_keypress_ZEE	94	stimuli_distractor_trianglediamonds.svg	stimuli_target_circlediamonds.svg	10	yes	57	0	561
6.6.1	mac	2022-12-14	15:13:53	15:20:41	407015	60fdd7ce470f6c1005cb87cb	420664054	1	main_z	7	main_z	95	stimuli_distractor_diamondtriangles.svg	stimuli_target_circletriangles.svg	13	yes	44	1	978
6.6.1	mac	2022-12-14	15:13:53	15:20:41	407015	60fdd7ce470f6c1005cb87cb	420664054	1	main_z	7	advance_on_keypress_ZEE	96	stimuli_distractor_diamondtriangles.svg	stimuli_target_circletriangles.svg	13	yes	57	0	369
6.6.1	mac	2022-12-14	15:13:53	15:20:43	408756	60fdd7ce470f6c1005cb87cb	420664054	1	main_z	7	main_z	97	stimuli_distractor_trianglediamonds.svg	stimuli_target_squaretriangles.svg	11	yes	44	1	736
6.6.1	mac	2022-12-14	15:13:53	15:20:43	408756	60fdd7ce470f6c1005cb87cb	420664054	1	main_z	7	advance_on_keypress_ZEE	98	stimuli_distractor_trianglediamonds.svg	stimuli_target_squaretriangles.svg	11	yes	57	0	376
6.6.1	mac	2022-12-14	15:13:53	15:20:46	411752	60fdd7ce470f6c1005cb87cb	420664054	1	main_z	7	main_z	99	stimuli_distractor_diamondtriangles.svg	stimuli_distractor_trianglediamonds.svg	37	no	0	1	2000
6.6.1	mac	2022-12-14	15:13:53	15:20:46	411752	60fdd7ce470f6c1005cb87cb	420664054	1	main_z	7	advance_on_keypress_ZEE	100	stimuli_distractor_diamondtriangles.svg	stimuli_distractor_trianglediamonds.svg	37	no	57	0	535
6.6.1	mac	2022-12-14	15:13:53	15:20:48	413531	60fdd7ce470f6c1005cb87cb	420664054	1	main_z	7	main_z	101	stimuli_target_circletriangles.svg	stimuli_distractor_diamondtriangles.svg	5	yes	44	1	611
6.6.1	mac	2022-12-14	15:13:53	15:20:48	413531	60fdd7ce470f6c1005cb87cb	420664054	1	main_z	7	advance_on_keypress_ZEE	102	stimuli_target_circletriangles.svg	stimuli_distractor_diamondtriangles.svg	5	yes	57	0	373
6.6.1	mac	2022-12-14	15:13:53	15:20:51	416534	60fdd7ce470f6c1005cb87cb	420664054	1	main_z	7	main_z	103	stimuli_distractor_diamondtriangles.svg	stimuli_distractor_trianglediamonds.svg	38	no	0	1	2000
6.6.1	mac	2022-12-14	15:13:53	15:20:51	416534	60fdd7ce470f6c1005cb87cb	420664054	1	main_z	7	advance_on_keypress_ZEE	104	stimuli_distractor_diamondtriangles.svg	stimuli_distractor_trianglediamonds.svg	38	no	57	0	285
6.6.1	mac	2022-12-14	15:13:53	15:20:53	418333	60fdd7ce470f6c1005cb87cb	420664054	1	main_z	7	main_z	105	stimuli_target_diamondsquares.svg	stimuli_distractor_trianglediamonds.svg	20	yes	44	1	880
6.6.1	mac	2022-12-14	15:13:53	15:20:53	418333	60fdd7ce470f6c1005cb87cb	420664054	1	main_z	7	advance_on_keypress_ZEE	106	stimuli_target_diamondsquares.svg	stimuli_distractor_trianglediamonds.svg	20	yes	57	0	366
6.6.1	mac	2022-12-14	15:13:53	15:20:55	420344	60fdd7ce470f6c1005cb87cb	420664054	1	main_z	7	main_z	107	stimuli_distractor_diamondtriangles.svg	stimuli_target_trianglesquares.svg	30	yes	44	1	1006
6.6.1	mac	2022-12-14	15:13:53	15:20:55	420344	60fdd7ce470f6c1005cb87cb	420664054	1	main_z	7	advance_on_keypress_ZEE	108	stimuli_distractor_diamondtriangles.svg	stimuli_target_trianglesquares.svg	30	yes	57	0	437
6.6.1	mac	2022-12-14	15:13:53	15:20:57	422411	60fdd7ce470f6c1005cb87cb	420664054	1	main_z	7	main_z	109	stimuli_distractor_trianglediamonds.svg	stimuli_target_diamondsquares.svg	28	yes	44	1	1007
6.6.1	mac	2022-12-14	15:13:53	15:20:57	422411	60fdd7ce470f6c1005cb87cb	420664054	1	main_z	7	advance_on_keypress_ZEE	110	stimuli_distractor_trianglediamonds.svg	stimuli_target_diamondsquares.svg	28	yes	57	0	371
6.6.1	mac	2022-12-14	15:13:53	15:20:59	424502	60fdd7ce470f6c1005cb87cb	420664054	1	main_z	7	main_z	111	stimuli_distractor_diamondtriangles.svg	stimuli_target_squarediamonds.svg	16	yes	44	1	1098
6.6.1	mac	2022-12-14	15:13:53	15:20:59	424502	60fdd7ce470f6c1005cb87cb	420664054	1	main_z	7	advance_on_keypress_ZEE	112	stimuli_distractor_diamondtriangles.svg	stimuli_target_squarediamonds.svg	16	yes	57	0	360
6.6.1	mac	2022-12-14	15:13:53	15:21:00	426213	60fdd7ce470f6c1005cb87cb	420664054	1	main_z	7	main_z	113	stimuli_distractor_trianglediamonds.svg	stimuli_target_squarediamonds.svg	12	yes	44	1	725
6.6.1	mac	2022-12-14	15:13:53	15:21:00	426213	60fdd7ce470f6c1005cb87cb	420664054	1	main_z	7	advance_on_keypress_ZEE	114	stimuli_distractor_trianglediamonds.svg	stimuli_target_squarediamonds.svg	12	yes	57	0	340
6.6.1	mac	2022-12-14	15:13:53	15:21:03	429168	60fdd7ce470f6c1005cb87cb	420664054	1	main_z	7	main_z	115	stimuli_distractor_diamondtriangles.svg	stimuli_distractor_diamondtriangles.svg	40	no	0	1	2000
6.6.1	mac	2022-12-14	15:13:53	15:21:03	429168	60fdd7ce470f6c1005cb87cb	420664054	1	main_z	7	advance_on_keypress_ZEE	116	stimuli_distractor_diamondtriangles.svg	stimuli_distractor_diamondtriangles.svg	40	no	57	0	440
6.6.1	mac	2022-12-14	15:13:53	15:21:05	431262	60fdd7ce470f6c1005cb87cb	420664054	1	main_z	7	main_z	117	stimuli_target_diamondsquares.svg	stimuli_distractor_diamondtriangles.svg	24	yes	44	1	1025
6.6.1	mac	2022-12-14	15:13:53	15:21:05	431262	60fdd7ce470f6c1005cb87cb	420664054	1	main_z	7	advance_on_keypress_ZEE	118	stimuli_target_diamondsquares.svg	stimuli_distractor_diamondtriangles.svg	24	yes	57	0	352
6.6.1	mac	2022-12-14	15:13:53	15:21:07	433063	60fdd7ce470f6c1005cb87cb	420664054	1	main_z	7	main_z	119	stimuli_target_trianglecircles.svg	stimuli_distractor_diamondtriangles.svg	21	yes	44	1	826
6.6.1	mac	2022-12-14	15:13:53	15:21:07	433063	60fdd7ce470f6c1005cb87cb	420664054	1	main_z	7	advance_on_keypress_ZEE	120	stimuli_target_trianglecircles.svg	stimuli_distractor_diamondtriangles.svg	21	yes	57	0	551
6.6.1	mac	2022-12-14	15:13:53	15:21:09	435215	60fdd7ce470f6c1005cb87cb	420664054	1	main_z	7	main_z	121	stimuli_distractor_diamondtriangles.svg	stimuli_target_squaretriangles.svg	15	yes	44	1	978
6.6.1	mac	2022-12-14	15:13:53	15:21:09	435215	60fdd7ce470f6c1005cb87cb	420664054	1	main_z	7	advance_on_keypress_ZEE	122	stimuli_distractor_diamondtriangles.svg	stimuli_target_squaretriangles.svg	15	yes	57	0	384
6.6.1	mac	2022-12-14	15:13:53	15:21:12	438235	60fdd7ce470f6c1005cb87cb	420664054	1	main_z	7	main_z	123	stimuli_distractor_trianglediamonds.svg	stimuli_distractor_diamondtriangles.svg	35	no	0	1	2000
6.6.1	mac	2022-12-14	15:13:53	15:21:12	438235	60fdd7ce470f6c1005cb87cb	420664054	1	main_z	7	advance_on_keypress_ZEE	124	stimuli_distractor_trianglediamonds.svg	stimuli_distractor_diamondtriangles.svg	35	no	57	0	467
6.6.1	mac	2022-12-14	15:13:53	15:21:14	440241	60fdd7ce470f6c1005cb87cb	420664054	1	main_z	7	main_z	125	stimuli_target_trianglesquares.svg	stimuli_distractor_diamondtriangles.svg	22	yes	44	1	904
6.6.1	mac	2022-12-14	15:13:53	15:21:14	440241	60fdd7ce470f6c1005cb87cb	420664054	1	main_z	7	advance_on_keypress_ZEE	126	stimuli_target_trianglesquares.svg	stimuli_distractor_diamondtriangles.svg	22	yes	57	0	654
6.6.1	mac	2022-12-14	15:13:53	15:21:18	443518	60fdd7ce470f6c1005cb87cb	420664054	1	main_z	7	main_z	127	stimuli_distractor_trianglediamonds.svg	stimuli_distractor_diamondtriangles.svg	36	no	0	1	2000
6.6.1	mac	2022-12-14	15:13:53	15:21:18	443518	60fdd7ce470f6c1005cb87cb	420664054	1	main_z	7	advance_on_keypress_ZEE	128	stimuli_distractor_trianglediamonds.svg	stimuli_distractor_diamondtriangles.svg	36	no	57	0	925
6.6.1	mac	2022-12-14	15:13:53	15:21:20	445909	60fdd7ce470f6c1005cb87cb	420664054	1	main_z	7	main_z	129	stimuli_distractor_trianglediamonds.svg	stimuli_target_trianglesquares.svg	26	yes	44	1	839
6.6.1	mac	2022-12-14	15:13:53	15:21:20	445909	60fdd7ce470f6c1005cb87cb	420664054	1	main_z	7	advance_on_keypress_ZEE	130	stimuli_distractor_trianglediamonds.svg	stimuli_target_trianglesquares.svg	26	yes	57	0	444
6.6.1	mac	2022-12-14	15:13:53	15:21:22	447974	60fdd7ce470f6c1005cb87cb	420664054	1	main_z	7	main_z	131	stimuli_target_diamondcircles.svg	stimuli_distractor_diamondtriangles.svg	23	yes	44	1	1005
6.6.1	mac	2022-12-14	15:13:53	15:21:22	447974	60fdd7ce470f6c1005cb87cb	420664054	1	main_z	7	advance_on_keypress_ZEE	132	stimuli_target_diamondcircles.svg	stimuli_distractor_diamondtriangles.svg	23	yes	57	0	397
6.6.1	mac	2022-12-14	15:13:53	15:21:24	450082	60fdd7ce470f6c1005cb87cb	420664054	1	main_z	7	main_z	133	stimuli_distractor_diamondtriangles.svg	stimuli_target_diamondcircles.svg	31	yes	44	1	1078
6.6.1	mac	2022-12-14	15:13:53	15:21:24	450082	60fdd7ce470f6c1005cb87cb	420664054	1	main_z	7	advance_on_keypress_ZEE	134	stimuli_distractor_diamondtriangles.svg	stimuli_target_diamondcircles.svg	31	yes	57	0	1070
6.6.1	mac	2022-12-14	15:13:53	15:21:27	452631	60fdd7ce470f6c1005cb87cb	420664054	1	main_z	7	main_z	135	stimuli_distractor_diamondtriangles.svg	stimuli_target_diamondsquares.svg	32	yes	44	1	844
6.6.1	mac	2022-12-14	15:13:53	15:21:27	452631	60fdd7ce470f6c1005cb87cb	420664054	1	main_z	7	advance_on_keypress_ZEE	136	stimuli_distractor_diamondtriangles.svg	stimuli_target_diamondsquares.svg	32	yes	57	0	515
6.6.1	mac	2022-12-14	15:13:53	15:21:29	454582	60fdd7ce470f6c1005cb87cb	420664054	1	main_z	7	main_z	137	stimuli_target_circletriangles.svg	stimuli_distractor_trianglediamonds.svg	1	yes	44	1	795
6.6.1	mac	2022-12-14	15:13:53	15:21:29	454582	60fdd7ce470f6c1005cb87cb	420664054	1	main_z	7	advance_on_keypress_ZEE	138	stimuli_target_circletriangles.svg	stimuli_distractor_trianglediamonds.svg	1	yes	57	0	445
6.6.1	mac	2022-12-14	15:13:53	15:21:31	456410	60fdd7ce470f6c1005cb87cb	420664054	1	main_z	7	main_z	139	stimuli_distractor_diamondtriangles.svg	stimuli_target_trianglecircles.svg	29	yes	44	1	740
6.6.1	mac	2022-12-14	15:13:53	15:21:31	456410	60fdd7ce470f6c1005cb87cb	420664054	1	main_z	7	advance_on_keypress_ZEE	140	stimuli_distractor_diamondtriangles.svg	stimuli_target_trianglecircles.svg	29	yes	57	0	521
6.6.1	mac	2022-12-14	15:13:53	15:21:33	459002	60fdd7ce470f6c1005cb87cb	420664054	1	main_z	7	main_z	141	stimuli_target_squarediamonds.svg	stimuli_distractor_trianglediamonds.svg	4	yes	44	1	1449
6.6.1	mac	2022-12-14	15:13:53	15:21:33	459002	60fdd7ce470f6c1005cb87cb	420664054	1	main_z	7	advance_on_keypress_ZEE	142	stimuli_target_squarediamonds.svg	stimuli_distractor_trianglediamonds.svg	4	yes	57	0	676
6.6.1	mac	2022-12-14	15:13:53	15:21:36	462301	60fdd7ce470f6c1005cb87cb	420664054	1	main_z	7	main_z	143	stimuli_distractor_diamondtriangles.svg	stimuli_distractor_diamondtriangles.svg	39	no	0	1	2000
6.6.1	mac	2022-12-14	15:13:53	15:21:36	462301	60fdd7ce470f6c1005cb87cb	420664054	1	main_z	7	advance_on_keypress_ZEE	144	stimuli_distractor_diamondtriangles.svg	stimuli_distractor_diamondtriangles.svg	39	no	57	0	930
6.6.1	mac	2022-12-14	15:13:53	15:21:38	464292	60fdd7ce470f6c1005cb87cb	420664054	1	main_z	7	main_z	145	stimuli_target_squaretriangles.svg	stimuli_distractor_diamondtriangles.svg	7	yes	44	1	422
6.6.1	mac	2022-12-14	15:13:53	15:21:38	464292	60fdd7ce470f6c1005cb87cb	420664054	1	main_z	7	advance_on_keypress_ZEE	146	stimuli_target_squaretriangles.svg	stimuli_distractor_diamondtriangles.svg	7	yes	57	0	461
6.6.1	mac	2022-12-14	15:13:53	15:21:40	465965	60fdd7ce470f6c1005cb87cb	420664054	1	main_z	7	main_z	147	stimuli_target_circlediamonds.svg	stimuli_distractor_trianglediamonds.svg	2	yes	44	1	578
6.6.1	mac	2022-12-14	15:13:53	15:21:40	465965	60fdd7ce470f6c1005cb87cb	420664054	1	main_z	7	advance_on_keypress_ZEE	148	stimuli_target_circlediamonds.svg	stimuli_distractor_trianglediamonds.svg	2	yes	57	0	462
6.6.1	mac	2022-12-14	15:13:53	15:21:43	469068	60fdd7ce470f6c1005cb87cb	420664054	1	main_z	7	main_z	149	stimuli_distractor_trianglediamonds.svg	stimuli_distractor_trianglediamonds.svg	33	no	0	1	2000
6.6.1	mac	2022-12-14	15:13:53	15:21:43	469068	60fdd7ce470f6c1005cb87cb	420664054	1	main_z	7	advance_on_keypress_ZEE	150	stimuli_distractor_trianglediamonds.svg	stimuli_distractor_trianglediamonds.svg	33	no	57	0	689
6.6.1	mac	2022-12-14	15:13:53	15:21:45	470922	60fdd7ce470f6c1005cb87cb	420664054	1	main_z	7	main_z	151	stimuli_target_trianglecircles.svg	stimuli_distractor_trianglediamonds.svg	17	yes	44	1	535
6.6.1	mac	2022-12-14	15:13:53	15:21:45	470922	60fdd7ce470f6c1005cb87cb	420664054	1	main_z	7	advance_on_keypress_ZEE	152	stimuli_target_trianglecircles.svg	stimuli_distractor_trianglediamonds.svg	17	yes	57	0	381
6.6.1	mac	2022-12-14	15:13:53	15:21:47	472728	60fdd7ce470f6c1005cb87cb	420664054	1	main_z	7	main_z	153	stimuli_target_trianglesquares.svg	stimuli_distractor_trianglediamonds.svg	18	yes	44	1	790
6.6.1	mac	2022-12-14	15:13:53	15:21:47	472728	60fdd7ce470f6c1005cb87cb	420664054	1	main_z	7	advance_on_keypress_ZEE	154	stimuli_target_trianglesquares.svg	stimuli_distractor_trianglediamonds.svg	18	yes	57	0	421
6.6.1	mac	2022-12-14	15:13:53	15:21:49	474615	60fdd7ce470f6c1005cb87cb	420664054	1	main_z	7	main_z	155	stimuli_target_squarediamonds.svg	stimuli_distractor_diamondtriangles.svg	8	yes	44	1	845
6.6.1	mac	2022-12-14	15:13:53	15:21:49	474615	60fdd7ce470f6c1005cb87cb	420664054	1	main_z	7	advance_on_keypress_ZEE	156	stimuli_target_squarediamonds.svg	stimuli_distractor_diamondtriangles.svg	8	yes	57	0	456
6.6.1	mac	2022-12-14	15:13:53	15:21:51	476867	60fdd7ce470f6c1005cb87cb	420664054	1	main_z	7	main_z	157	stimuli_distractor_trianglediamonds.svg	stimuli_target_trianglecircles.svg	25	yes	44	1	1164
6.6.1	mac	2022-12-14	15:13:53	15:21:51	476867	60fdd7ce470f6c1005cb87cb	420664054	1	main_z	7	advance_on_keypress_ZEE	158	stimuli_distractor_trianglediamonds.svg	stimuli_target_trianglecircles.svg	25	yes	57	0	321
6.6.1	mac	2022-12-14	15:13:53	15:21:53	478579	60fdd7ce470f6c1005cb87cb	420664054	1	main_z	7	main_z	159	stimuli_target_diamondcircles.svg	stimuli_distractor_trianglediamonds.svg	19	yes	44	1	759
6.6.1	mac	2022-12-14	15:13:53	15:21:53	478579	60fdd7ce470f6c1005cb87cb	420664054	1	main_z	7	advance_on_keypress_ZEE	160	stimuli_target_diamondcircles.svg	stimuli_distractor_trianglediamonds.svg	19	yes	57	0	390
6.6.1	mac	2022-12-14	15:13:53	15:22:10	495634	60fdd7ce470f6c1005cb87cb	420664054	1	practice_slash	9	practice_slash	1	stimuli_distractor_diamondtriangles.svg	stimuli_target_trianglecircles.svg	9	yes	53	1	480
6.6.1	mac	2022-12-14	15:13:53	15:22:10	495634	60fdd7ce470f6c1005cb87cb	420664054	1	practice_slash	9	advance_on_keypress_SLASH	2	stimuli_distractor_diamondtriangles.svg	stimuli_target_trianglecircles.svg	9	yes	57	0	531
6.6.1	mac	2022-12-14	15:13:53	15:22:12	498295	60fdd7ce470f6c1005cb87cb	420664054	1	practice_slash	9	practice_slash	3	stimuli_target_squarediamonds.svg	stimuli_distractor_trianglediamonds.svg	5	yes	53	1	492
6.6.1	mac	2022-12-14	15:13:53	15:22:12	498295	60fdd7ce470f6c1005cb87cb	420664054	1	practice_slash	9	advance_on_keypress_SLASH	4	stimuli_target_squarediamonds.svg	stimuli_distractor_trianglediamonds.svg	5	yes	57	0	2098
6.6.1	mac	2022-12-14	15:13:53	15:22:17	502930	60fdd7ce470f6c1005cb87cb	420664054	1	practice_slash	9	practice_slash	5	stimuli_distractor_trianglediamonds.svg	stimuli_target_diamondcircles.svg	12	yes	53	1	908
6.6.1	mac	2022-12-14	15:13:53	15:22:17	502930	60fdd7ce470f6c1005cb87cb	420664054	1	practice_slash	9	advance_on_keypress_SLASH	6	stimuli_distractor_trianglediamonds.svg	stimuli_target_diamondcircles.svg	12	yes	57	0	559
6.6.1	mac	2022-12-14	15:13:53	15:22:20	505761	60fdd7ce470f6c1005cb87cb	420664054	1	practice_slash	9	practice_slash	7	stimuli_target_diamondsquares.svg	stimuli_distractor_diamondtriangles.svg	3	yes	53	1	639
6.6.1	mac	2022-12-14	15:13:53	15:22:20	505761	60fdd7ce470f6c1005cb87cb	420664054	1	practice_slash	9	advance_on_keypress_SLASH	8	stimuli_target_diamondsquares.svg	stimuli_distractor_diamondtriangles.svg	3	yes	57	0	438
6.6.1	mac	2022-12-14	15:13:53	15:22:24	509819	60fdd7ce470f6c1005cb87cb	420664054	1	practice_slash	9	practice_slash	9	stimuli_distractor_trianglediamonds.svg	stimuli_distractor_trianglediamonds.svg	15	no	0	1	2000
6.6.1	mac	2022-12-14	15:13:53	15:22:24	509819	60fdd7ce470f6c1005cb87cb	420664054	1	practice_slash	9	advance_on_keypress_SLASH	10	stimuli_distractor_trianglediamonds.svg	stimuli_distractor_trianglediamonds.svg	15	no	57	0	694
6.6.1	mac	2022-12-14	15:13:53	15:22:27	512583	60fdd7ce470f6c1005cb87cb	420664054	1	practice_slash	9	practice_slash	11	stimuli_distractor_diamondtriangles.svg	stimuli_target_diamondcircles.svg	8	yes	53	1	429
6.6.1	mac	2022-12-14	15:13:53	15:22:27	512583	60fdd7ce470f6c1005cb87cb	420664054	1	practice_slash	9	advance_on_keypress_SLASH	12	stimuli_distractor_diamondtriangles.svg	stimuli_target_diamondcircles.svg	8	yes	57	0	438
6.6.1	mac	2022-12-14	15:13:53	15:22:30	515353	60fdd7ce470f6c1005cb87cb	420664054	1	practice_slash	9	practice_slash	13	stimuli_distractor_diamondtriangles.svg	stimuli_target_circletriangles.svg	7	yes	53	1	699
6.6.1	mac	2022-12-14	15:13:53	15:22:30	515353	60fdd7ce470f6c1005cb87cb	420664054	1	practice_slash	9	advance_on_keypress_SLASH	14	stimuli_distractor_diamondtriangles.svg	stimuli_target_circletriangles.svg	7	yes	57	0	572
6.6.1	mac	2022-12-14	15:13:53	15:22:34	519552	60fdd7ce470f6c1005cb87cb	420664054	1	practice_slash	9	practice_slash	15	stimuli_distractor_diamondtriangles.svg	stimuli_distractor_diamondtriangles.svg	13	no	0	1	2000
6.6.1	mac	2022-12-14	15:13:53	15:22:34	519552	60fdd7ce470f6c1005cb87cb	420664054	1	practice_slash	9	advance_on_keypress_SLASH	16	stimuli_distractor_diamondtriangles.svg	stimuli_distractor_diamondtriangles.svg	13	no	57	0	681
6.6.1	mac	2022-12-14	15:13:53	15:22:37	522572	60fdd7ce470f6c1005cb87cb	420664054	1	practice_slash	9	practice_slash	17	stimuli_distractor_trianglediamonds.svg	stimuli_target_circlediamonds.svg	10	yes	53	1	701
6.6.1	mac	2022-12-14	15:13:53	15:22:37	522572	60fdd7ce470f6c1005cb87cb	420664054	1	practice_slash	9	advance_on_keypress_SLASH	18	stimuli_distractor_trianglediamonds.svg	stimuli_target_circlediamonds.svg	10	yes	57	0	695
6.6.1	mac	2022-12-14	15:13:53	15:22:41	526901	60fdd7ce470f6c1005cb87cb	420664054	1	practice_slash	9	practice_slash	19	stimuli_distractor_diamondtriangles.svg	stimuli_distractor_trianglediamonds.svg	14	no	0	1	2000
6.6.1	mac	2022-12-14	15:13:53	15:22:41	526901	60fdd7ce470f6c1005cb87cb	420664054	1	practice_slash	9	advance_on_keypress_SLASH	20	stimuli_distractor_diamondtriangles.svg	stimuli_distractor_trianglediamonds.svg	14	no	57	0	571
6.6.1	mac	2022-12-14	15:13:53	15:22:44	529721	60fdd7ce470f6c1005cb87cb	420664054	1	practice_slash	9	practice_slash	21	stimuli_distractor_trianglediamonds.svg	stimuli_target_squarediamonds.svg	11	yes	53	1	617
6.6.1	mac	2022-12-14	15:13:53	15:22:44	529721	60fdd7ce470f6c1005cb87cb	420664054	1	practice_slash	9	advance_on_keypress_SLASH	22	stimuli_distractor_trianglediamonds.svg	stimuli_target_squarediamonds.svg	11	yes	57	0	614
6.6.1	mac	2022-12-14	15:13:53	15:22:47	532569	60fdd7ce470f6c1005cb87cb	420664054	1	practice_slash	9	practice_slash	23	stimuli_target_circlediamonds.svg	stimuli_distractor_diamondtriangles.svg	1	yes	53	1	598
6.6.1	mac	2022-12-14	15:13:53	15:22:47	532569	60fdd7ce470f6c1005cb87cb	420664054	1	practice_slash	9	advance_on_keypress_SLASH	24	stimuli_target_circlediamonds.svg	stimuli_distractor_diamondtriangles.svg	1	yes	57	0	574
6.6.1	mac	2022-12-14	15:13:53	15:22:51	536769	60fdd7ce470f6c1005cb87cb	420664054	1	practice_slash	9	practice_slash	25	stimuli_distractor_trianglediamonds.svg	stimuli_distractor_diamondtriangles.svg	16	no	0	1	2000
6.6.1	mac	2022-12-14	15:13:53	15:22:51	536769	60fdd7ce470f6c1005cb87cb	420664054	1	practice_slash	9	advance_on_keypress_SLASH	26	stimuli_distractor_trianglediamonds.svg	stimuli_distractor_diamondtriangles.svg	16	no	57	0	526
6.6.1	mac	2022-12-14	15:13:53	15:22:54	539659	60fdd7ce470f6c1005cb87cb	420664054	1	practice_slash	9	practice_slash	27	stimuli_target_circlediamonds.svg	stimuli_distractor_trianglediamonds.svg	4	yes	53	1	720
6.6.1	mac	2022-12-14	15:13:53	15:22:54	539659	60fdd7ce470f6c1005cb87cb	420664054	1	practice_slash	9	advance_on_keypress_SLASH	28	stimuli_target_circlediamonds.svg	stimuli_distractor_trianglediamonds.svg	4	yes	57	0	623
6.6.1	mac	2022-12-14	15:13:53	15:22:57	543092	60fdd7ce470f6c1005cb87cb	420664054	1	practice_slash	9	practice_slash	29	stimuli_target_diamondsquares.svg	stimuli_distractor_trianglediamonds.svg	6	yes	53	1	1171
6.6.1	mac	2022-12-14	15:13:53	15:22:57	543092	60fdd7ce470f6c1005cb87cb	420664054	1	practice_slash	9	advance_on_keypress_SLASH	30	stimuli_target_diamondsquares.svg	stimuli_distractor_trianglediamonds.svg	6	yes	57	0	563
6.6.1	mac	2022-12-14	15:13:53	15:23:01	546323	60fdd7ce470f6c1005cb87cb	420664054	1	practice_slash	9	practice_slash	31	stimuli_target_squarediamonds.svg	stimuli_distractor_diamondtriangles.svg	2	yes	53	1	1034
6.6.1	mac	2022-12-14	15:13:53	15:23:01	546323	60fdd7ce470f6c1005cb87cb	420664054	1	practice_slash	9	advance_on_keypress_SLASH	32	stimuli_target_squarediamonds.svg	stimuli_distractor_diamondtriangles.svg	2	yes	57	0	594
6.6.1	mac	2022-12-14	15:13:53	15:23:07	553036	60fdd7ce470f6c1005cb87cb	420664054	1	main_slash	11	main_slash	1	stimuli_distractor_diamondtriangles.svg	stimuli_target_diamondcircles.svg	31	yes	0	0	2000
6.6.1	mac	2022-12-14	15:13:53	15:23:07	553036	60fdd7ce470f6c1005cb87cb	420664054	1	main_slash	11	advance_on_keypress_SLASH	2	stimuli_distractor_diamondtriangles.svg	stimuli_target_diamondcircles.svg	31	yes	57	0	928
6.6.1	mac	2022-12-14	15:13:53	15:23:10	555408	60fdd7ce470f6c1005cb87cb	420664054	1	main_slash	11	main_slash	3	stimuli_target_trianglesquares.svg	stimuli_distractor_diamondtriangles.svg	22	yes	53	1	804
6.6.1	mac	2022-12-14	15:13:53	15:23:10	555408	60fdd7ce470f6c1005cb87cb	420664054	1	main_slash	11	advance_on_keypress_SLASH	4	stimuli_target_trianglesquares.svg	stimuli_distractor_diamondtriangles.svg	22	yes	57	0	859
6.6.1	mac	2022-12-14	15:13:53	15:23:12	557786	60fdd7ce470f6c1005cb87cb	420664054	1	main_slash	11	main_slash	5	stimuli_distractor_trianglediamonds.svg	stimuli_target_circlediamonds.svg	10	yes	53	1	898
6.6.1	mac	2022-12-14	15:13:53	15:23:12	557786	60fdd7ce470f6c1005cb87cb	420664054	1	main_slash	11	advance_on_keypress_SLASH	6	stimuli_distractor_trianglediamonds.svg	stimuli_target_circlediamonds.svg	10	yes	57	0	1743
6.6.1	mac	2022-12-14	15:13:53	15:23:15	560785	60fdd7ce470f6c1005cb87cb	420664054	1	main_slash	11	main_slash	7	stimuli_target_circlediamonds.svg	stimuli_distractor_diamondtriangles.svg	6	yes	53	1	631
6.6.1	mac	2022-12-14	15:13:53	15:23:15	560785	60fdd7ce470f6c1005cb87cb	420664054	1	main_slash	11	advance_on_keypress_SLASH	8	stimuli_target_circlediamonds.svg	stimuli_distractor_diamondtriangles.svg	6	yes	57	0	664
6.6.1	mac	2022-12-14	15:13:53	15:23:18	564085	60fdd7ce470f6c1005cb87cb	420664054	1	main_slash	11	main_slash	9	stimuli_distractor_diamondtriangles.svg	stimuli_distractor_trianglediamonds.svg	37	no	0	1	2000
6.6.1	mac	2022-12-14	15:13:53	15:23:18	564085	60fdd7ce470f6c1005cb87cb	420664054	1	main_slash	11	advance_on_keypress_SLASH	10	stimuli_distractor_diamondtriangles.svg	stimuli_distractor_trianglediamonds.svg	37	no	57	0	432
6.6.1	mac	2022-12-14	15:13:53	15:23:20	565888	60fdd7ce470f6c1005cb87cb	420664054	1	main_slash	11	main_slash	11	stimuli_target_trianglecircles.svg	stimuli_distractor_diamondtriangles.svg	21	yes	53	1	735
6.6.1	mac	2022-12-14	15:13:53	15:23:20	565888	60fdd7ce470f6c1005cb87cb	420664054	1	main_slash	11	advance_on_keypress_SLASH	12	stimuli_target_trianglecircles.svg	stimuli_distractor_diamondtriangles.svg	21	yes	57	0	519
6.6.1	mac	2022-12-14	15:13:53	15:23:23	568542	60fdd7ce470f6c1005cb87cb	420664054	1	main_slash	11	main_slash	13	stimuli_distractor_trianglediamonds.svg	stimuli_target_diamondsquares.svg	28	yes	53	1	1505
6.6.1	mac	2022-12-14	15:13:53	15:23:23	568542	60fdd7ce470f6c1005cb87cb	420664054	1	main_slash	11	advance_on_keypress_SLASH	14	stimuli_distractor_trianglediamonds.svg	stimuli_target_diamondsquares.svg	28	yes	57	0	1199
6.6.1	mac	2022-12-14	15:13:53	15:23:27	572368	60fdd7ce470f6c1005cb87cb	420664054	1	main_slash	11	main_slash	15	stimuli_distractor_trianglediamonds.svg	stimuli_distractor_diamondtriangles.svg	35	no	0	1	2000
6.6.1	mac	2022-12-14	15:13:53	15:23:27	572368	60fdd7ce470f6c1005cb87cb	420664054	1	main_slash	11	advance_on_keypress_SLASH	16	stimuli_distractor_trianglediamonds.svg	stimuli_distractor_diamondtriangles.svg	35	no	57	0	351
6.6.1	mac	2022-12-14	15:13:53	15:23:28	573968	60fdd7ce470f6c1005cb87cb	420664054	1	main_slash	11	main_slash	17	stimuli_distractor_diamondtriangles.svg	stimuli_target_trianglecircles.svg	29	yes	53	1	615
6.6.1	mac	2022-12-14	15:13:53	15:23:28	573968	60fdd7ce470f6c1005cb87cb	420664054	1	main_slash	11	advance_on_keypress_SLASH	18	stimuli_distractor_diamondtriangles.svg	stimuli_target_trianglecircles.svg	29	yes	57	0	542
6.6.1	mac	2022-12-14	15:13:53	15:23:30	575692	60fdd7ce470f6c1005cb87cb	420664054	1	main_slash	11	main_slash	19	stimuli_target_diamondcircles.svg	stimuli_distractor_trianglediamonds.svg	19	yes	53	1	555
6.6.1	mac	2022-12-14	15:13:53	15:23:30	575692	60fdd7ce470f6c1005cb87cb	420664054	1	main_slash	11	advance_on_keypress_SLASH	20	stimuli_target_diamondcircles.svg	stimuli_distractor_trianglediamonds.svg	19	yes	57	0	451
6.6.1	mac	2022-12-14	15:13:53	15:23:33	578661	60fdd7ce470f6c1005cb87cb	420664054	1	main_slash	11	main_slash	21	stimuli_distractor_diamondtriangles.svg	stimuli_target_squaretriangles.svg	15	yes	53	1	1890
6.6.1	mac	2022-12-14	15:13:53	15:23:33	578661	60fdd7ce470f6c1005cb87cb	420664054	1	main_slash	11	advance_on_keypress_SLASH	22	stimuli_distractor_diamondtriangles.svg	stimuli_target_squaretriangles.svg	15	yes	57	0	600
6.6.1	mac	2022-12-14	15:13:53	15:23:35	580953	60fdd7ce470f6c1005cb87cb	420664054	1	main_slash	11	main_slash	23	stimuli_target_circlediamonds.svg	stimuli_distractor_trianglediamonds.svg	2	yes	53	1	1066
6.6.1	mac	2022-12-14	15:13:53	15:23:35	580953	60fdd7ce470f6c1005cb87cb	420664054	1	main_slash	11	advance_on_keypress_SLASH	24	stimuli_target_circlediamonds.svg	stimuli_distractor_trianglediamonds.svg	2	yes	57	0	446
6.6.1	mac	2022-12-14	15:13:53	15:23:38	584034	60fdd7ce470f6c1005cb87cb	420664054	1	main_slash	11	main_slash	25	stimuli_distractor_diamondtriangles.svg	stimuli_distractor_diamondtriangles.svg	40	no	0	1	2000
6.6.1	mac	2022-12-14	15:13:53	15:23:38	584034	60fdd7ce470f6c1005cb87cb	420664054	1	main_slash	11	advance_on_keypress_SLASH	26	stimuli_distractor_diamondtriangles.svg	stimuli_distractor_diamondtriangles.svg	40	no	57	0	320
6.6.1	mac	2022-12-14	15:13:53	15:23:41	586985	60fdd7ce470f6c1005cb87cb	420664054	1	main_slash	11	main_slash	27	stimuli_distractor_diamondtriangles.svg	stimuli_distractor_trianglediamonds.svg	38	no	0	1	2000
6.6.1	mac	2022-12-14	15:13:53	15:23:41	586985	60fdd7ce470f6c1005cb87cb	420664054	1	main_slash	11	advance_on_keypress_SLASH	28	stimuli_distractor_diamondtriangles.svg	stimuli_distractor_trianglediamonds.svg	38	no	57	0	520
6.6.1	mac	2022-12-14	15:13:53	15:23:43	588789	60fdd7ce470f6c1005cb87cb	420664054	1	main_slash	11	main_slash	29	stimuli_target_squaretriangles.svg	stimuli_distractor_trianglediamonds.svg	3	yes	53	1	652
6.6.1	mac	2022-12-14	15:13:53	15:23:43	588789	60fdd7ce470f6c1005cb87cb	420664054	1	main_slash	11	advance_on_keypress_SLASH	30	stimuli_target_squaretriangles.svg	stimuli_distractor_trianglediamonds.svg	3	yes	57	0	442
6.6.1	mac	2022-12-14	15:13:53	15:23:46	591851	60fdd7ce470f6c1005cb87cb	420664054	1	main_slash	11	main_slash	31	stimuli_distractor_trianglediamonds.svg	stimuli_distractor_trianglediamonds.svg	33	no	0	1	2000
6.6.1	mac	2022-12-14	15:13:53	15:23:46	591851	60fdd7ce470f6c1005cb87cb	420664054	1	main_slash	11	advance_on_keypress_SLASH	32	stimuli_distractor_trianglediamonds.svg	stimuli_distractor_trianglediamonds.svg	33	no	57	0	379
6.6.1	mac	2022-12-14	15:13:53	15:23:48	593458	60fdd7ce470f6c1005cb87cb	420664054	1	main_slash	11	main_slash	33	stimuli_target_diamondsquares.svg	stimuli_distractor_diamondtriangles.svg	24	yes	53	1	588
6.6.1	mac	2022-12-14	15:13:53	15:23:48	593458	60fdd7ce470f6c1005cb87cb	420664054	1	main_slash	11	advance_on_keypress_SLASH	34	stimuli_target_diamondsquares.svg	stimuli_distractor_diamondtriangles.svg	24	yes	57	0	453
6.6.1	mac	2022-12-14	15:13:53	15:23:50	595596	60fdd7ce470f6c1005cb87cb	420664054	1	main_slash	11	main_slash	35	stimuli_target_squarediamonds.svg	stimuli_distractor_diamondtriangles.svg	8	yes	53	1	1059
6.6.1	mac	2022-12-14	15:13:53	15:23:50	595596	60fdd7ce470f6c1005cb87cb	420664054	1	main_slash	11	advance_on_keypress_SLASH	36	stimuli_target_squarediamonds.svg	stimuli_distractor_diamondtriangles.svg	8	yes	57	0	528
6.6.1	mac	2022-12-14	15:13:53	15:23:52	597476	60fdd7ce470f6c1005cb87cb	420664054	1	main_slash	11	main_slash	37	stimuli_distractor_trianglediamonds.svg	stimuli_target_trianglecircles.svg	25	yes	53	1	739
6.6.1	mac	2022-12-14	15:13:53	15:23:52	597476	60fdd7ce470f6c1005cb87cb	420664054	1	main_slash	11	advance_on_keypress_SLASH	38	stimuli_distractor_trianglediamonds.svg	stimuli_target_trianglecircles.svg	25	yes	57	0	424
6.6.1	mac	2022-12-14	15:13:53	15:23:53	599157	60fdd7ce470f6c1005cb87cb	420664054	1	main_slash	11	main_slash	39	stimuli_target_trianglecircles.svg	stimuli_distractor_trianglediamonds.svg	17	yes	53	1	637
6.6.1	mac	2022-12-14	15:13:53	15:23:53	599157	60fdd7ce470f6c1005cb87cb	420664054	1	main_slash	11	advance_on_keypress_SLASH	40	stimuli_target_trianglecircles.svg	stimuli_distractor_trianglediamonds.svg	17	yes	57	0	417
6.6.1	mac	2022-12-14	15:13:53	15:23:55	601130	60fdd7ce470f6c1005cb87cb	420664054	1	main_slash	11	main_slash	41	stimuli_distractor_trianglediamonds.svg	stimuli_target_squaretriangles.svg	11	yes	53	1	926
6.6.1	mac	2022-12-14	15:13:53	15:23:55	601130	60fdd7ce470f6c1005cb87cb	420664054	1	main_slash	11	advance_on_keypress_SLASH	42	stimuli_distractor_trianglediamonds.svg	stimuli_target_squaretriangles.svg	11	yes	57	0	404
6.6.1	mac	2022-12-14	15:13:53	15:23:57	602801	60fdd7ce470f6c1005cb87cb	420664054	1	main_slash	11	main_slash	43	stimuli_target_circletriangles.svg	stimuli_distractor_diamondtriangles.svg	5	yes	53	1	648
6.6.1	mac	2022-12-14	15:13:53	15:23:57	602801	60fdd7ce470f6c1005cb87cb	420664054	1	main_slash	11	advance_on_keypress_SLASH	44	stimuli_target_circletriangles.svg	stimuli_distractor_diamondtriangles.svg	5	yes	57	0	439
6.6.1	mac	2022-12-14	15:13:53	15:23:59	604552	60fdd7ce470f6c1005cb87cb	420664054	1	main_slash	11	main_slash	45	stimuli_distractor_trianglediamonds.svg	stimuli_target_squarediamonds.svg	12	yes	53	1	682
6.6.1	mac	2022-12-14	15:13:53	15:23:59	604552	60fdd7ce470f6c1005cb87cb	420664054	1	main_slash	11	advance_on_keypress_SLASH	46	stimuli_distractor_trianglediamonds.svg	stimuli_target_squarediamonds.svg	12	yes	57	0	397
6.6.1	mac	2022-12-14	15:13:53	15:24:00	606090	60fdd7ce470f6c1005cb87cb	420664054	1	main_slash	11	main_slash	47	stimuli_target_circletriangles.svg	stimuli_distractor_trianglediamonds.svg	1	yes	53	1	502
6.6.1	mac	2022-12-14	15:13:53	15:24:00	606090	60fdd7ce470f6c1005cb87cb	420664054	1	main_slash	11	advance_on_keypress_SLASH	48	stimuli_target_circletriangles.svg	stimuli_distractor_trianglediamonds.svg	1	yes	57	0	406
6.6.1	mac	2022-12-14	15:13:53	15:24:02	607578	60fdd7ce470f6c1005cb87cb	420664054	1	main_slash	11	main_slash	49	stimuli_distractor_diamondtriangles.svg	stimuli_target_squarediamonds.svg	16	yes	53	1	458
6.6.1	mac	2022-12-14	15:13:53	15:24:02	607578	60fdd7ce470f6c1005cb87cb	420664054	1	main_slash	11	advance_on_keypress_SLASH	50	stimuli_distractor_diamondtriangles.svg	stimuli_target_squarediamonds.svg	16	yes	57	0	418
6.6.1	mac	2022-12-14	15:13:53	15:24:03	609244	60fdd7ce470f6c1005cb87cb	420664054	1	main_slash	11	main_slash	51	stimuli_distractor_trianglediamonds.svg	stimuli_target_diamondcircles.svg	27	yes	53	1	623
6.6.1	mac	2022-12-14	15:13:53	15:24:03	609244	60fdd7ce470f6c1005cb87cb	420664054	1	main_slash	11	advance_on_keypress_SLASH	52	stimuli_distractor_trianglediamonds.svg	stimuli_target_diamondcircles.svg	27	yes	57	0	542
6.6.1	mac	2022-12-14	15:13:53	15:24:05	611085	60fdd7ce470f6c1005cb87cb	420664054	1	main_slash	11	main_slash	53	stimuli_distractor_diamondtriangles.svg	stimuli_target_trianglesquares.svg	30	yes	53	1	681
6.6.1	mac	2022-12-14	15:13:53	15:24:05	611085	60fdd7ce470f6c1005cb87cb	420664054	1	main_slash	11	advance_on_keypress_SLASH	54	stimuli_distractor_diamondtriangles.svg	stimuli_target_trianglesquares.svg	30	yes	57	0	306
6.6.1	mac	2022-12-14	15:13:53	15:24:08	614018	60fdd7ce470f6c1005cb87cb	420664054	1	main_slash	11	main_slash	55	stimuli_distractor_diamondtriangles.svg	stimuli_distractor_diamondtriangles.svg	39	no	0	1	2000
6.6.1	mac	2022-12-14	15:13:53	15:24:08	614018	60fdd7ce470f6c1005cb87cb	420664054	1	main_slash	11	advance_on_keypress_SLASH	56	stimuli_distractor_diamondtriangles.svg	stimuli_distractor_diamondtriangles.svg	39	no	57	0	310
6.6.1	mac	2022-12-14	15:13:53	15:24:10	615316	60fdd7ce470f6c1005cb87cb	420664054	1	main_slash	11	main_slash	57	stimuli_distractor_trianglediamonds.svg	stimuli_target_trianglesquares.svg	26	yes	53	1	363
6.6.1	mac	2022-12-14	15:13:53	15:24:10	615316	60fdd7ce470f6c1005cb87cb	420664054	1	main_slash	11	advance_on_keypress_SLASH	58	stimuli_distractor_trianglediamonds.svg	stimuli_target_trianglesquares.svg	26	yes	57	0	551
6.6.1	mac	2022-12-14	15:13:53	15:24:12	617321	60fdd7ce470f6c1005cb87cb	420664054	1	main_slash	11	main_slash	59	stimuli_distractor_trianglediamonds.svg	stimuli_target_circletriangles.svg	9	yes	53	1	818
6.6.1	mac	2022-12-14	15:13:53	15:24:12	617321	60fdd7ce470f6c1005cb87cb	420664054	1	main_slash	11	advance_on_keypress_SLASH	60	stimuli_distractor_trianglediamonds.svg	stimuli_target_circletriangles.svg	9	yes	57	0	321
6.6.1	mac	2022-12-14	15:13:53	15:24:13	618938	60fdd7ce470f6c1005cb87cb	420664054	1	main_slash	11	main_slash	61	stimuli_target_diamondcircles.svg	stimuli_distractor_diamondtriangles.svg	23	yes	53	1	667
6.6.1	mac	2022-12-14	15:13:53	15:24:13	618938	60fdd7ce470f6c1005cb87cb	420664054	1	main_slash	11	advance_on_keypress_SLASH	62	stimuli_target_diamondcircles.svg	stimuli_distractor_diamondtriangles.svg	23	yes	57	0	334
6.6.1	mac	2022-12-14	15:13:53	15:24:16	621535	60fdd7ce470f6c1005cb87cb	420664054	1	main_slash	11	main_slash	63	stimuli_target_trianglesquares.svg	stimuli_distractor_trianglediamonds.svg	18	yes	53	1	1632
6.6.1	mac	2022-12-14	15:13:53	15:24:16	621535	60fdd7ce470f6c1005cb87cb	420664054	1	main_slash	11	advance_on_keypress_SLASH	64	stimuli_target_trianglesquares.svg	stimuli_distractor_trianglediamonds.svg	18	yes	57	0	395
6.6.1	mac	2022-12-14	15:13:53	15:24:19	624551	60fdd7ce470f6c1005cb87cb	420664054	1	main_slash	11	main_slash	65	stimuli_distractor_trianglediamonds.svg	stimuli_distractor_diamondtriangles.svg	36	no	0	1	2000
6.6.1	mac	2022-12-14	15:13:53	15:24:19	624551	60fdd7ce470f6c1005cb87cb	420664054	1	main_slash	11	advance_on_keypress_SLASH	66	stimuli_distractor_trianglediamonds.svg	stimuli_distractor_diamondtriangles.svg	36	no	57	0	418
6.6.1	mac	2022-12-14	15:13:53	15:24:20	626147	60fdd7ce470f6c1005cb87cb	420664054	1	main_slash	11	main_slash	67	stimuli_target_diamondsquares.svg	stimuli_distractor_trianglediamonds.svg	20	yes	53	1	544
6.6.1	mac	2022-12-14	15:13:53	15:24:20	626147	60fdd7ce470f6c1005cb87cb	420664054	1	main_slash	11	advance_on_keypress_SLASH	68	stimuli_target_diamondsquares.svg	stimuli_distractor_trianglediamonds.svg	20	yes	57	0	259
6.6.1	mac	2022-12-14	15:13:53	15:24:22	627495	60fdd7ce470f6c1005cb87cb	420664054	1	main_slash	11	main_slash	69	stimuli_distractor_diamondtriangles.svg	stimuli_target_diamondsquares.svg	32	yes	53	1	458
6.6.1	mac	2022-12-14	15:13:53	15:24:22	627495	60fdd7ce470f6c1005cb87cb	420664054	1	main_slash	11	advance_on_keypress_SLASH	70	stimuli_distractor_diamondtriangles.svg	stimuli_target_diamondsquares.svg	32	yes	57	0	354
6.6.1	mac	2022-12-14	15:13:53	15:24:23	628881	60fdd7ce470f6c1005cb87cb	420664054	1	main_slash	11	main_slash	71	stimuli_target_squarediamonds.svg	stimuli_distractor_trianglediamonds.svg	4	yes	53	1	411
6.6.1	mac	2022-12-14	15:13:53	15:24:23	628881	60fdd7ce470f6c1005cb87cb	420664054	1	main_slash	11	advance_on_keypress_SLASH	72	stimuli_target_squarediamonds.svg	stimuli_distractor_trianglediamonds.svg	4	yes	57	0	379
6.6.1	mac	2022-12-14	15:13:53	15:24:25	630438	60fdd7ce470f6c1005cb87cb	420664054	1	main_slash	11	main_slash	73	stimuli_target_squaretriangles.svg	stimuli_distractor_diamondtriangles.svg	7	yes	53	1	535
6.6.1	mac	2022-12-14	15:13:53	15:24:25	630438	60fdd7ce470f6c1005cb87cb	420664054	1	main_slash	11	advance_on_keypress_SLASH	74	stimuli_target_squaretriangles.svg	stimuli_distractor_diamondtriangles.svg	7	yes	57	0	331
6.6.1	mac	2022-12-14	15:13:53	15:24:26	631763	60fdd7ce470f6c1005cb87cb	420664054	1	main_slash	11	main_slash	75	stimuli_distractor_diamondtriangles.svg	stimuli_target_circlediamonds.svg	14	yes	53	1	360
6.6.1	mac	2022-12-14	15:13:53	15:24:26	631763	60fdd7ce470f6c1005cb87cb	420664054	1	main_slash	11	advance_on_keypress_SLASH	76	stimuli_distractor_diamondtriangles.svg	stimuli_target_circlediamonds.svg	14	yes	57	0	329
6.6.1	mac	2022-12-14	15:13:53	15:24:29	634719	60fdd7ce470f6c1005cb87cb	420664054	1	main_slash	11	main_slash	77	stimuli_distractor_trianglediamonds.svg	stimuli_distractor_trianglediamonds.svg	34	no	0	1	2000
6.6.1	mac	2022-12-14	15:13:53	15:24:29	634719	60fdd7ce470f6c1005cb87cb	420664054	1	main_slash	11	advance_on_keypress_SLASH	78	stimuli_distractor_trianglediamonds.svg	stimuli_distractor_trianglediamonds.svg	34	no	57	0	287
6.6.1	mac	2022-12-14	15:13:53	15:24:30	636101	60fdd7ce470f6c1005cb87cb	420664054	1	main_slash	11	main_slash	79	stimuli_distractor_diamondtriangles.svg	stimuli_target_circletriangles.svg	13	yes	53	1	464
6.6.1	mac	2022-12-14	15:13:53	15:24:30	636101	60fdd7ce470f6c1005cb87cb	420664054	1	main_slash	11	advance_on_keypress_SLASH	80	stimuli_distractor_diamondtriangles.svg	stimuli_target_circletriangles.svg	13	yes	57	0	285
6.6.1	mac	2022-12-14	15:13:53	15:24:32	637423	60fdd7ce470f6c1005cb87cb	420664054	1	main_slash	11	main_slash	81	stimuli_target_circlediamonds.svg	stimuli_distractor_trianglediamonds.svg	2	yes	53	1	402
6.6.1	mac	2022-12-14	15:13:53	15:24:32	637423	60fdd7ce470f6c1005cb87cb	420664054	1	main_slash	11	advance_on_keypress_SLASH	82	stimuli_target_circlediamonds.svg	stimuli_distractor_trianglediamonds.svg	2	yes	57	0	276
6.6.1	mac	2022-12-14	15:13:53	15:24:33	638870	60fdd7ce470f6c1005cb87cb	420664054	1	main_slash	11	main_slash	83	stimuli_target_diamondcircles.svg	stimuli_distractor_diamondtriangles.svg	23	yes	53	1	533
6.6.1	mac	2022-12-14	15:13:53	15:24:33	638870	60fdd7ce470f6c1005cb87cb	420664054	1	main_slash	11	advance_on_keypress_SLASH	84	stimuli_target_diamondcircles.svg	stimuli_distractor_diamondtriangles.svg	23	yes	57	0	391
6.6.1	mac	2022-12-14	15:13:53	15:24:34	640238	60fdd7ce470f6c1005cb87cb	420664054	1	main_slash	11	main_slash	85	stimuli_target_squaretriangles.svg	stimuli_distractor_trianglediamonds.svg	3	yes	53	1	335
6.6.1	mac	2022-12-14	15:13:53	15:24:34	640238	60fdd7ce470f6c1005cb87cb	420664054	1	main_slash	11	advance_on_keypress_SLASH	86	stimuli_target_squaretriangles.svg	stimuli_distractor_trianglediamonds.svg	3	yes	57	0	268
6.6.1	mac	2022-12-14	15:13:53	15:24:36	641439	60fdd7ce470f6c1005cb87cb	420664054	1	main_slash	11	main_slash	87	stimuli_target_trianglecircles.svg	stimuli_distractor_diamondtriangles.svg	21	yes	53	1	301
6.6.1	mac	2022-12-14	15:13:53	15:24:36	641439	60fdd7ce470f6c1005cb87cb	420664054	1	main_slash	11	advance_on_keypress_SLASH	88	stimuli_target_trianglecircles.svg	stimuli_distractor_diamondtriangles.svg	21	yes	57	0	335
6.6.1	mac	2022-12-14	15:13:53	15:24:37	642982	60fdd7ce470f6c1005cb87cb	420664054	1	main_slash	11	main_slash	89	stimuli_target_diamondsquares.svg	stimuli_distractor_trianglediamonds.svg	20	yes	53	1	578
6.6.1	mac	2022-12-14	15:13:53	15:24:37	642982	60fdd7ce470f6c1005cb87cb	420664054	1	main_slash	11	advance_on_keypress_SLASH	90	stimuli_target_diamondsquares.svg	stimuli_distractor_trianglediamonds.svg	20	yes	57	0	603
6.6.1	mac	2022-12-14	15:13:53	15:24:39	644718	60fdd7ce470f6c1005cb87cb	420664054	1	main_slash	11	main_slash	91	stimuli_distractor_diamondtriangles.svg	stimuli_target_squarediamonds.svg	16	yes	53	1	499
6.6.1	mac	2022-12-14	15:13:53	15:24:39	644718	60fdd7ce470f6c1005cb87cb	420664054	1	main_slash	11	advance_on_keypress_SLASH	92	stimuli_distractor_diamondtriangles.svg	stimuli_target_squarediamonds.svg	16	yes	57	0	316
6.6.1	mac	2022-12-14	15:13:53	15:24:40	646221	60fdd7ce470f6c1005cb87cb	420664054	1	main_slash	11	main_slash	93	stimuli_distractor_diamondtriangles.svg	stimuli_target_trianglecircles.svg	29	yes	53	1	551
6.6.1	mac	2022-12-14	15:13:53	15:24:40	646221	60fdd7ce470f6c1005cb87cb	420664054	1	main_slash	11	advance_on_keypress_SLASH	94	stimuli_distractor_diamondtriangles.svg	stimuli_target_trianglecircles.svg	29	yes	57	0	368
6.6.1	mac	2022-12-14	15:13:53	15:24:43	649218	60fdd7ce470f6c1005cb87cb	420664054	1	main_slash	11	main_slash	95	stimuli_distractor_diamondtriangles.svg	stimuli_distractor_diamondtriangles.svg	39	no	0	1	2000
6.6.1	mac	2022-12-14	15:13:53	15:24:43	649218	60fdd7ce470f6c1005cb87cb	420664054	1	main_slash	11	advance_on_keypress_SLASH	96	stimuli_distractor_diamondtriangles.svg	stimuli_distractor_diamondtriangles.svg	39	no	57	0	317
6.6.1	mac	2022-12-14	15:13:53	15:24:45	650570	60fdd7ce470f6c1005cb87cb	420664054	1	main_slash	11	main_slash	97	stimuli_distractor_trianglediamonds.svg	stimuli_target_squarediamonds.svg	12	yes	53	1	400
6.6.1	mac	2022-12-14	15:13:53	15:24:45	650570	60fdd7ce470f6c1005cb87cb	420664054	1	main_slash	11	advance_on_keypress_SLASH	98	stimuli_distractor_trianglediamonds.svg	stimuli_target_squarediamonds.svg	12	yes	57	0	264
6.6.1	mac	2022-12-14	15:13:53	15:24:46	651922	60fdd7ce470f6c1005cb87cb	420664054	1	main_slash	11	main_slash	99	stimuli_distractor_diamondtriangles.svg	stimuli_target_diamondcircles.svg	31	yes	53	1	452
6.6.1	mac	2022-12-14	15:13:53	15:24:46	651922	60fdd7ce470f6c1005cb87cb	420664054	1	main_slash	11	advance_on_keypress_SLASH	100	stimuli_distractor_diamondtriangles.svg	stimuli_target_diamondcircles.svg	31	yes	57	0	299
6.6.1	mac	2022-12-14	15:13:53	15:24:48	653405	60fdd7ce470f6c1005cb87cb	420664054	1	main_slash	11	main_slash	101	stimuli_distractor_trianglediamonds.svg	stimuli_target_circlediamonds.svg	10	yes	53	1	551
6.6.1	mac	2022-12-14	15:13:53	15:24:48	653405	60fdd7ce470f6c1005cb87cb	420664054	1	main_slash	11	advance_on_keypress_SLASH	102	stimuli_distractor_trianglediamonds.svg	stimuli_target_circlediamonds.svg	10	yes	57	0	295
6.6.1	mac	2022-12-14	15:13:53	15:24:49	655183	60fdd7ce470f6c1005cb87cb	420664054	1	main_slash	11	main_slash	103	stimuli_target_diamondsquares.svg	stimuli_distractor_diamondtriangles.svg	24	yes	53	1	847
6.6.1	mac	2022-12-14	15:13:53	15:24:49	655183	60fdd7ce470f6c1005cb87cb	420664054	1	main_slash	11	advance_on_keypress_SLASH	104	stimuli_target_diamondsquares.svg	stimuli_distractor_diamondtriangles.svg	24	yes	57	0	334
6.6.1	mac	2022-12-14	15:13:53	15:24:52	658151	60fdd7ce470f6c1005cb87cb	420664054	1	main_slash	11	main_slash	105	stimuli_distractor_diamondtriangles.svg	stimuli_distractor_trianglediamonds.svg	37	no	0	1	2000
6.6.1	mac	2022-12-14	15:13:53	15:24:52	658151	60fdd7ce470f6c1005cb87cb	420664054	1	main_slash	11	advance_on_keypress_SLASH	106	stimuli_distractor_diamondtriangles.svg	stimuli_distractor_trianglediamonds.svg	37	no	57	0	441
6.6.1	mac	2022-12-14	15:13:53	15:24:54	659644	60fdd7ce470f6c1005cb87cb	420664054	1	main_slash	11	main_slash	107	stimuli_distractor_diamondtriangles.svg	stimuli_target_squaretriangles.svg	15	yes	53	1	425
6.6.1	mac	2022-12-14	15:13:53	15:24:54	659644	60fdd7ce470f6c1005cb87cb	420664054	1	main_slash	11	advance_on_keypress_SLASH	108	stimuli_distractor_diamondtriangles.svg	stimuli_target_squaretriangles.svg	15	yes	57	0	336
6.6.1	mac	2022-12-14	15:13:53	15:24:55	661069	60fdd7ce470f6c1005cb87cb	420664054	1	main_slash	11	main_slash	109	stimuli_target_circlediamonds.svg	stimuli_distractor_diamondtriangles.svg	6	yes	53	1	466
6.6.1	mac	2022-12-14	15:13:53	15:24:55	661069	60fdd7ce470f6c1005cb87cb	420664054	1	main_slash	11	advance_on_keypress_SLASH	110	stimuli_target_circlediamonds.svg	stimuli_distractor_diamondtriangles.svg	6	yes	57	0	280
6.6.1	mac	2022-12-14	15:13:53	15:24:57	662347	60fdd7ce470f6c1005cb87cb	420664054	1	main_slash	11	main_slash	111	stimuli_distractor_diamondtriangles.svg	stimuli_target_circlediamonds.svg	14	yes	53	1	360
6.6.1	mac	2022-12-14	15:13:53	15:24:57	662347	60fdd7ce470f6c1005cb87cb	420664054	1	main_slash	11	advance_on_keypress_SLASH	112	stimuli_distractor_diamondtriangles.svg	stimuli_target_circlediamonds.svg	14	yes	57	0	280
6.6.1	mac	2022-12-14	15:13:53	15:24:59	665251	60fdd7ce470f6c1005cb87cb	420664054	1	main_slash	11	main_slash	113	stimuli_distractor_trianglediamonds.svg	stimuli_distractor_trianglediamonds.svg	33	no	0	1	2000
6.6.1	mac	2022-12-14	15:13:53	15:24:59	665251	60fdd7ce470f6c1005cb87cb	420664054	1	main_slash	11	advance_on_keypress_SLASH	114	stimuli_distractor_trianglediamonds.svg	stimuli_distractor_trianglediamonds.svg	33	no	57	0	266
6.6.1	mac	2022-12-14	15:13:53	15:25:01	666649	60fdd7ce470f6c1005cb87cb	420664054	1	main_slash	11	main_slash	115	stimuli_distractor_trianglediamonds.svg	stimuli_target_diamondcircles.svg	27	yes	53	1	496
6.6.1	mac	2022-12-14	15:13:53	15:25:01	666649	60fdd7ce470f6c1005cb87cb	420664054	1	main_slash	11	advance_on_keypress_SLASH	116	stimuli_distractor_trianglediamonds.svg	stimuli_target_diamondcircles.svg	27	yes	57	0	255
6.6.1	mac	2022-12-14	15:13:53	15:25:04	669535	60fdd7ce470f6c1005cb87cb	420664054	1	main_slash	11	main_slash	117	stimuli_distractor_diamondtriangles.svg	stimuli_distractor_diamondtriangles.svg	40	no	0	1	2000
6.6.1	mac	2022-12-14	15:13:53	15:25:04	669535	60fdd7ce470f6c1005cb87cb	420664054	1	main_slash	11	advance_on_keypress_SLASH	118	stimuli_distractor_diamondtriangles.svg	stimuli_distractor_diamondtriangles.svg	40	no	57	0	459
6.6.1	mac	2022-12-14	15:13:53	15:25:07	672618	60fdd7ce470f6c1005cb87cb	420664054	1	main_slash	11	main_slash	119	stimuli_distractor_trianglediamonds.svg	stimuli_distractor_diamondtriangles.svg	35	no	0	1	2000
6.6.1	mac	2022-12-14	15:13:53	15:25:07	672618	60fdd7ce470f6c1005cb87cb	420664054	1	main_slash	11	advance_on_keypress_SLASH	120	stimuli_distractor_trianglediamonds.svg	stimuli_distractor_diamondtriangles.svg	35	no	57	0	417
6.6.1	mac	2022-12-14	15:13:53	15:25:08	674276	60fdd7ce470f6c1005cb87cb	420664054	1	main_slash	11	main_slash	121	stimuli_distractor_trianglediamonds.svg	stimuli_target_trianglecircles.svg	25	yes	53	1	606
6.6.1	mac	2022-12-14	15:13:53	15:25:08	674276	60fdd7ce470f6c1005cb87cb	420664054	1	main_slash	11	advance_on_keypress_SLASH	122	stimuli_distractor_trianglediamonds.svg	stimuli_target_trianglecircles.svg	25	yes	57	0	245
6.6.1	mac	2022-12-14	15:13:53	15:25:10	675733	60fdd7ce470f6c1005cb87cb	420664054	1	main_slash	11	main_slash	123	stimuli_target_squarediamonds.svg	stimuli_distractor_diamondtriangles.svg	8	yes	53	1	580
6.6.1	mac	2022-12-14	15:13:53	15:25:10	675733	60fdd7ce470f6c1005cb87cb	420664054	1	main_slash	11	advance_on_keypress_SLASH	124	stimuli_target_squarediamonds.svg	stimuli_distractor_diamondtriangles.svg	8	yes	57	0	314
6.6.1	mac	2022-12-14	15:13:53	15:25:11	677279	60fdd7ce470f6c1005cb87cb	420664054	1	main_slash	11	main_slash	125	stimuli_target_squaretriangles.svg	stimuli_distractor_diamondtriangles.svg	7	yes	53	1	592
6.6.1	mac	2022-12-14	15:13:53	15:25:11	677279	60fdd7ce470f6c1005cb87cb	420664054	1	main_slash	11	advance_on_keypress_SLASH	126	stimuli_target_squaretriangles.svg	stimuli_distractor_diamondtriangles.svg	7	yes	57	0	280
6.6.1	mac	2022-12-14	15:13:53	15:25:13	678915	60fdd7ce470f6c1005cb87cb	420664054	1	main_slash	11	main_slash	127	stimuli_distractor_diamondtriangles.svg	stimuli_target_circletriangles.svg	13	yes	53	1	728
6.6.1	mac	2022-12-14	15:13:53	15:25:13	678915	60fdd7ce470f6c1005cb87cb	420664054	1	main_slash	11	advance_on_keypress_SLASH	128	stimuli_distractor_diamondtriangles.svg	stimuli_target_circletriangles.svg	13	yes	57	0	299
6.6.1	mac	2022-12-14	15:13:53	15:25:15	680592	60fdd7ce470f6c1005cb87cb	420664054	1	main_slash	11	main_slash	129	stimuli_distractor_diamondtriangles.svg	stimuli_target_trianglesquares.svg	30	yes	53	1	737
6.6.1	mac	2022-12-14	15:13:53	15:25:15	680592	60fdd7ce470f6c1005cb87cb	420664054	1	main_slash	11	advance_on_keypress_SLASH	130	stimuli_distractor_diamondtriangles.svg	stimuli_target_trianglesquares.svg	30	yes	57	0	466
6.6.1	mac	2022-12-14	15:13:53	15:25:17	682540	60fdd7ce470f6c1005cb87cb	420664054	1	main_slash	11	main_slash	131	stimuli_target_circletriangles.svg	stimuli_distractor_diamondtriangles.svg	5	yes	53	1	852
6.6.1	mac	2022-12-14	15:13:53	15:25:17	682540	60fdd7ce470f6c1005cb87cb	420664054	1	main_slash	11	advance_on_keypress_SLASH	132	stimuli_target_circletriangles.svg	stimuli_distractor_diamondtriangles.svg	5	yes	57	0	337
6.6.1	mac	2022-12-14	15:13:53	15:25:20	685501	60fdd7ce470f6c1005cb87cb	420664054	1	main_slash	11	main_slash	133	stimuli_target_diamondcircles.svg	stimuli_distractor_trianglediamonds.svg	19	yes	0	0	2000
6.6.1	mac	2022-12-14	15:13:53	15:25:20	685501	60fdd7ce470f6c1005cb87cb	420664054	1	main_slash	11	advance_on_keypress_SLASH	134	stimuli_target_diamondcircles.svg	stimuli_distractor_trianglediamonds.svg	19	yes	57	0	378
6.6.1	mac	2022-12-14	15:13:53	15:25:21	687135	60fdd7ce470f6c1005cb87cb	420664054	1	main_slash	11	main_slash	135	stimuli_target_trianglecircles.svg	stimuli_distractor_trianglediamonds.svg	17	yes	53	1	632
6.6.1	mac	2022-12-14	15:13:53	15:25:21	687135	60fdd7ce470f6c1005cb87cb	420664054	1	main_slash	11	advance_on_keypress_SLASH	136	stimuli_target_trianglecircles.svg	stimuli_distractor_trianglediamonds.svg	17	yes	57	0	273
6.6.1	mac	2022-12-14	15:13:53	15:25:24	690034	60fdd7ce470f6c1005cb87cb	420664054	1	main_slash	11	main_slash	137	stimuli_distractor_trianglediamonds.svg	stimuli_distractor_trianglediamonds.svg	34	no	0	1	2000
6.6.1	mac	2022-12-14	15:13:53	15:25:24	690034	60fdd7ce470f6c1005cb87cb	420664054	1	main_slash	11	advance_on_keypress_SLASH	138	stimuli_distractor_trianglediamonds.svg	stimuli_distractor_trianglediamonds.svg	34	no	57	0	452
6.6.1	mac	2022-12-14	15:13:53	15:25:26	691744	60fdd7ce470f6c1005cb87cb	420664054	1	main_slash	11	main_slash	139	stimuli_distractor_trianglediamonds.svg	stimuli_target_squaretriangles.svg	11	yes	53	1	624
6.6.1	mac	2022-12-14	15:13:53	15:25:26	691744	60fdd7ce470f6c1005cb87cb	420664054	1	main_slash	11	advance_on_keypress_SLASH	140	stimuli_distractor_trianglediamonds.svg	stimuli_target_squaretriangles.svg	11	yes	57	0	282
6.6.1	mac	2022-12-14	15:13:53	15:25:28	693374	60fdd7ce470f6c1005cb87cb	420664054	1	main_slash	11	main_slash	141	stimuli_distractor_trianglediamonds.svg	stimuli_target_diamondsquares.svg	28	yes	53	1	721
6.6.1	mac	2022-12-14	15:13:53	15:25:28	693374	60fdd7ce470f6c1005cb87cb	420664054	1	main_slash	11	advance_on_keypress_SLASH	142	stimuli_distractor_trianglediamonds.svg	stimuli_target_diamondsquares.svg	28	yes	57	0	337
6.6.1	mac	2022-12-14	15:13:53	15:25:31	696334	60fdd7ce470f6c1005cb87cb	420664054	1	main_slash	11	main_slash	143	stimuli_distractor_diamondtriangles.svg	stimuli_distractor_trianglediamonds.svg	38	no	0	1	2000
6.6.1	mac	2022-12-14	15:13:53	15:25:31	696334	60fdd7ce470f6c1005cb87cb	420664054	1	main_slash	11	advance_on_keypress_SLASH	144	stimuli_distractor_diamondtriangles.svg	stimuli_distractor_trianglediamonds.svg	38	no	57	0	591
6.6.1	mac	2022-12-14	15:13:53	15:25:32	698165	60fdd7ce470f6c1005cb87cb	420664054	1	main_slash	11	main_slash	145	stimuli_distractor_diamondtriangles.svg	stimuli_target_diamondsquares.svg	32	yes	53	1	612
6.6.1	mac	2022-12-14	15:13:53	15:25:32	698165	60fdd7ce470f6c1005cb87cb	420664054	1	main_slash	11	advance_on_keypress_SLASH	146	stimuli_distractor_diamondtriangles.svg	stimuli_target_diamondsquares.svg	32	yes	57	0	296
6.6.1	mac	2022-12-14	15:13:53	15:25:34	699657	60fdd7ce470f6c1005cb87cb	420664054	1	main_slash	11	main_slash	147	stimuli_distractor_trianglediamonds.svg	stimuli_target_circletriangles.svg	9	yes	53	1	554
6.6.1	mac	2022-12-14	15:13:53	15:25:34	699657	60fdd7ce470f6c1005cb87cb	420664054	1	main_slash	11	advance_on_keypress_SLASH	148	stimuli_distractor_trianglediamonds.svg	stimuli_target_circletriangles.svg	9	yes	57	0	339
6.6.1	mac	2022-12-14	15:13:53	15:25:36	701359	60fdd7ce470f6c1005cb87cb	420664054	1	main_slash	11	main_slash	149	stimuli_target_trianglesquares.svg	stimuli_distractor_trianglediamonds.svg	18	yes	53	1	722
6.6.1	mac	2022-12-14	15:13:53	15:25:36	701359	60fdd7ce470f6c1005cb87cb	420664054	1	main_slash	11	advance_on_keypress_SLASH	150	stimuli_target_trianglesquares.svg	stimuli_distractor_trianglediamonds.svg	18	yes	57	0	350
6.6.1	mac	2022-12-14	15:13:53	15:25:37	702814	60fdd7ce470f6c1005cb87cb	420664054	1	main_slash	11	main_slash	151	stimuli_target_squarediamonds.svg	stimuli_distractor_trianglediamonds.svg	4	yes	53	1	477
6.6.1	mac	2022-12-14	15:13:53	15:25:37	702814	60fdd7ce470f6c1005cb87cb	420664054	1	main_slash	11	advance_on_keypress_SLASH	152	stimuli_target_squarediamonds.svg	stimuli_distractor_trianglediamonds.svg	4	yes	57	0	328
6.6.1	mac	2022-12-14	15:13:53	15:25:38	704307	60fdd7ce470f6c1005cb87cb	420664054	1	main_slash	11	main_slash	153	stimuli_target_circletriangles.svg	stimuli_distractor_trianglediamonds.svg	1	yes	53	1	537
6.6.1	mac	2022-12-14	15:13:53	15:25:38	704307	60fdd7ce470f6c1005cb87cb	420664054	1	main_slash	11	advance_on_keypress_SLASH	154	stimuli_target_circletriangles.svg	stimuli_distractor_trianglediamonds.svg	1	yes	57	0	322
6.6.1	mac	2022-12-14	15:13:53	15:25:40	705866	60fdd7ce470f6c1005cb87cb	420664054	1	main_slash	11	main_slash	155	stimuli_target_trianglesquares.svg	stimuli_distractor_diamondtriangles.svg	22	yes	53	1	596
6.6.1	mac	2022-12-14	15:13:53	15:25:40	705866	60fdd7ce470f6c1005cb87cb	420664054	1	main_slash	11	advance_on_keypress_SLASH	156	stimuli_target_trianglesquares.svg	stimuli_distractor_diamondtriangles.svg	22	yes	57	0	356
6.6.1	mac	2022-12-14	15:13:53	15:25:43	708852	60fdd7ce470f6c1005cb87cb	420664054	1	main_slash	11	main_slash	157	stimuli_distractor_trianglediamonds.svg	stimuli_distractor_diamondtriangles.svg	36	no	0	1	2000
6.6.1	mac	2022-12-14	15:13:53	15:25:43	708852	60fdd7ce470f6c1005cb87cb	420664054	1	main_slash	11	advance_on_keypress_SLASH	158	stimuli_distractor_trianglediamonds.svg	stimuli_distractor_diamondtriangles.svg	36	no	57	0	332
6.6.1	mac	2022-12-14	15:13:53	15:25:44	710258	60fdd7ce470f6c1005cb87cb	420664054	1	main_slash	11	main_slash	159	stimuli_distractor_trianglediamonds.svg	stimuli_target_trianglesquares.svg	26	yes	53	1	439
6.6.1	mac	2022-12-14	15:13:53	15:25:44	710258	60fdd7ce470f6c1005cb87cb	420664054	1	main_slash	11	advance_on_keypress_SLASH	160	stimuli_distractor_trianglediamonds.svg	stimuli_target_trianglesquares.svg	26	yes	57	0	335