build	computer.platform	date	time	timestamp	time_elapsed_ms	subject	group	session	blockcode	blocknum	trialcode	trialnum	stimulus_left	stimulus_right	stim_index	target_present	response	correct	latency
6.6.1	win	2022-12-19	14:14:31	14:20:13	340157	631f626c1a2be3cc3d2069d8	871871735	1	practice_slash	5	practice_slash	1	stimuli_distractor_trianglediamonds.svg	stimuli_distractor_diamondtriangles.svg	16	no	0	1	2000
6.6.1	win	2022-12-19	14:14:31	14:20:13	340157	631f626c1a2be3cc3d2069d8	871871735	1	practice_slash	5	advance_on_keypress_SLASH	2	stimuli_distractor_trianglediamonds.svg	stimuli_distractor_diamondtriangles.svg	16	no	57	0	5308
6.6.1	win	2022-12-19	14:14:31	14:20:22	349091	631f626c1a2be3cc3d2069d8	871871735	1	practice_slash	5	practice_slash	3	stimuli_distractor_diamondtriangles.svg	stimuli_distractor_trianglediamonds.svg	14	no	0	1	2000
6.6.1	win	2022-12-19	14:14:31	14:20:22	349091	631f626c1a2be3cc3d2069d8	871871735	1	practice_slash	5	advance_on_keypress_SLASH	4	stimuli_distractor_diamondtriangles.svg	stimuli_distractor_trianglediamonds.svg	14	no	57	0	2647
6.6.1	win	2022-12-19	14:14:31	14:20:26	353727	631f626c1a2be3cc3d2069d8	871871735	1	practice_slash	5	practice_slash	5	stimuli_target_circlediamonds.svg	stimuli_distractor_diamondtriangles.svg	1	yes	53	1	367
6.6.1	win	2022-12-19	14:14:31	14:20:26	353727	631f626c1a2be3cc3d2069d8	871871735	1	practice_slash	5	advance_on_keypress_SLASH	6	stimuli_target_circlediamonds.svg	stimuli_distractor_diamondtriangles.svg	1	yes	57	0	1821
6.6.1	win	2022-12-19	14:14:31	14:20:30	357705	631f626c1a2be3cc3d2069d8	871871735	1	practice_slash	5	practice_slash	7	stimuli_distractor_trianglediamonds.svg	stimuli_distractor_trianglediamonds.svg	15	no	53	0	528
6.6.1	win	2022-12-19	14:14:31	14:20:30	357705	631f626c1a2be3cc3d2069d8	871871735	1	practice_slash	5	advance_on_keypress_SLASH	8	stimuli_distractor_trianglediamonds.svg	stimuli_distractor_trianglediamonds.svg	15	no	57	0	1322
6.6.1	win	2022-12-19	14:14:31	14:20:34	361050	631f626c1a2be3cc3d2069d8	871871735	1	practice_slash	5	practice_slash	9	stimuli_target_squarediamonds.svg	stimuli_distractor_diamondtriangles.svg	2	yes	53	1	404
6.6.1	win	2022-12-19	14:14:31	14:20:34	361050	631f626c1a2be3cc3d2069d8	871871735	1	practice_slash	5	advance_on_keypress_SLASH	10	stimuli_target_squarediamonds.svg	stimuli_distractor_diamondtriangles.svg	2	yes	57	0	1100
6.6.1	win	2022-12-19	14:14:31	14:20:37	364129	631f626c1a2be3cc3d2069d8	871871735	1	practice_slash	5	practice_slash	11	stimuli_distractor_diamondtriangles.svg	stimuli_target_circletriangles.svg	7	yes	53	1	360
6.6.1	win	2022-12-19	14:14:31	14:20:37	364129	631f626c1a2be3cc3d2069d8	871871735	1	practice_slash	5	advance_on_keypress_SLASH	12	stimuli_distractor_diamondtriangles.svg	stimuli_target_circletriangles.svg	7	yes	57	0	983
6.6.1	win	2022-12-19	14:14:31	14:20:41	368737	631f626c1a2be3cc3d2069d8	871871735	1	practice_slash	5	practice_slash	13	stimuli_target_diamondsquares.svg	stimuli_distractor_diamondtriangles.svg	3	yes	0	0	2000
6.6.1	win	2022-12-19	14:14:31	14:20:41	368737	631f626c1a2be3cc3d2069d8	871871735	1	practice_slash	5	advance_on_keypress_SLASH	14	stimuli_target_diamondsquares.svg	stimuli_distractor_diamondtriangles.svg	3	yes	57	0	849
6.6.1	win	2022-12-19	14:14:31	14:20:44	371636	631f626c1a2be3cc3d2069d8	871871735	1	practice_slash	5	practice_slash	15	stimuli_target_squarediamonds.svg	stimuli_distractor_trianglediamonds.svg	5	yes	53	1	426
6.6.1	win	2022-12-19	14:14:31	14:20:44	371636	631f626c1a2be3cc3d2069d8	871871735	1	practice_slash	5	advance_on_keypress_SLASH	16	stimuli_target_squarediamonds.svg	stimuli_distractor_trianglediamonds.svg	5	yes	57	0	928
6.6.1	win	2022-12-19	14:14:31	14:20:47	374506	631f626c1a2be3cc3d2069d8	871871735	1	practice_slash	5	practice_slash	17	stimuli_target_circlediamonds.svg	stimuli_distractor_trianglediamonds.svg	4	yes	53	1	324
6.6.1	win	2022-12-19	14:14:31	14:20:47	374506	631f626c1a2be3cc3d2069d8	871871735	1	practice_slash	5	advance_on_keypress_SLASH	18	stimuli_target_circlediamonds.svg	stimuli_distractor_trianglediamonds.svg	4	yes	57	0	540
6.6.1	win	2022-12-19	14:14:31	14:20:50	377151	631f626c1a2be3cc3d2069d8	871871735	1	practice_slash	5	practice_slash	19	stimuli_distractor_trianglediamonds.svg	stimuli_target_squarediamonds.svg	11	yes	53	1	487
6.6.1	win	2022-12-19	14:14:31	14:20:50	377151	631f626c1a2be3cc3d2069d8	871871735	1	practice_slash	5	advance_on_keypress_SLASH	20	stimuli_distractor_trianglediamonds.svg	stimuli_target_squarediamonds.svg	11	yes	57	0	539
6.6.1	win	2022-12-19	14:14:31	14:20:54	381310	631f626c1a2be3cc3d2069d8	871871735	1	practice_slash	5	practice_slash	21	stimuli_distractor_diamondtriangles.svg	stimuli_distractor_diamondtriangles.svg	13	no	0	1	2000
6.6.1	win	2022-12-19	14:14:31	14:20:54	381310	631f626c1a2be3cc3d2069d8	871871735	1	practice_slash	5	advance_on_keypress_SLASH	22	stimuli_distractor_diamondtriangles.svg	stimuli_distractor_diamondtriangles.svg	13	no	57	0	1046
6.6.1	win	2022-12-19	14:14:31	14:20:57	384511	631f626c1a2be3cc3d2069d8	871871735	1	practice_slash	5	practice_slash	23	stimuli_distractor_trianglediamonds.svg	stimuli_target_circlediamonds.svg	10	yes	53	1	536
6.6.1	win	2022-12-19	14:14:31	14:20:57	384511	631f626c1a2be3cc3d2069d8	871871735	1	practice_slash	5	advance_on_keypress_SLASH	24	stimuli_distractor_trianglediamonds.svg	stimuli_target_circlediamonds.svg	10	yes	57	0	508
6.6.1	win	2022-12-19	14:14:31	14:21:00	387015	631f626c1a2be3cc3d2069d8	871871735	1	practice_slash	5	practice_slash	25	stimuli_distractor_trianglediamonds.svg	stimuli_target_diamondcircles.svg	12	yes	53	1	378
6.6.1	win	2022-12-19	14:14:31	14:21:00	387015	631f626c1a2be3cc3d2069d8	871871735	1	practice_slash	5	advance_on_keypress_SLASH	26	stimuli_distractor_trianglediamonds.svg	stimuli_target_diamondcircles.svg	12	yes	57	0	583
6.6.1	win	2022-12-19	14:14:31	14:21:04	391217	631f626c1a2be3cc3d2069d8	871871735	1	practice_slash	5	practice_slash	27	stimuli_target_diamondsquares.svg	stimuli_distractor_trianglediamonds.svg	6	yes	0	0	2000
6.6.1	win	2022-12-19	14:14:31	14:21:04	391217	631f626c1a2be3cc3d2069d8	871871735	1	practice_slash	5	advance_on_keypress_SLASH	28	stimuli_target_diamondsquares.svg	stimuli_distractor_trianglediamonds.svg	6	yes	57	0	1096
6.6.1	win	2022-12-19	14:14:31	14:21:07	394324	631f626c1a2be3cc3d2069d8	871871735	1	practice_slash	5	practice_slash	29	stimuli_distractor_diamondtriangles.svg	stimuli_target_diamondcircles.svg	8	yes	53	1	386
6.6.1	win	2022-12-19	14:14:31	14:21:07	394324	631f626c1a2be3cc3d2069d8	871871735	1	practice_slash	5	advance_on_keypress_SLASH	30	stimuli_distractor_diamondtriangles.svg	stimuli_target_diamondcircles.svg	8	yes	57	0	410
6.6.1	win	2022-12-19	14:14:31	14:21:09	396804	631f626c1a2be3cc3d2069d8	871871735	1	practice_slash	5	practice_slash	31	stimuli_distractor_diamondtriangles.svg	stimuli_target_trianglecircles.svg	9	yes	53	1	446
6.6.1	win	2022-12-19	14:14:31	14:21:09	396804	631f626c1a2be3cc3d2069d8	871871735	1	practice_slash	5	advance_on_keypress_SLASH	32	stimuli_distractor_diamondtriangles.svg	stimuli_target_trianglecircles.svg	9	yes	57	0	107
6.6.1	win	2022-12-19	14:14:31	14:21:18	405586	631f626c1a2be3cc3d2069d8	871871735	1	main_slash	7	main_slash	1	stimuli_target_circlediamonds.svg	stimuli_distractor_diamondtriangles.svg	6	yes	53	1	419
6.6.1	win	2022-12-19	14:14:31	14:21:18	405586	631f626c1a2be3cc3d2069d8	871871735	1	main_slash	7	advance_on_keypress_SLASH	2	stimuli_target_circlediamonds.svg	stimuli_distractor_diamondtriangles.svg	6	yes	57	0	1292
6.6.1	win	2022-12-19	14:14:31	14:21:21	408169	631f626c1a2be3cc3d2069d8	871871735	1	main_slash	7	main_slash	3	stimuli_distractor_diamondtriangles.svg	stimuli_distractor_trianglediamonds.svg	38	no	53	0	673
6.6.1	win	2022-12-19	14:14:31	14:21:21	408169	631f626c1a2be3cc3d2069d8	871871735	1	main_slash	7	advance_on_keypress_SLASH	4	stimuli_distractor_diamondtriangles.svg	stimuli_distractor_trianglediamonds.svg	38	no	57	0	786
6.6.1	win	2022-12-19	14:14:31	14:21:24	411575	631f626c1a2be3cc3d2069d8	871871735	1	main_slash	7	main_slash	5	stimuli_target_diamondsquares.svg	stimuli_distractor_diamondtriangles.svg	24	yes	0	0	2000
6.6.1	win	2022-12-19	14:14:31	14:21:24	411575	631f626c1a2be3cc3d2069d8	871871735	1	main_slash	7	advance_on_keypress_SLASH	6	stimuli_target_diamondsquares.svg	stimuli_distractor_diamondtriangles.svg	24	yes	57	0	1567
6.6.1	win	2022-12-19	14:14:31	14:21:27	414289	631f626c1a2be3cc3d2069d8	871871735	1	main_slash	7	main_slash	7	stimuli_target_trianglecircles.svg	stimuli_distractor_diamondtriangles.svg	21	yes	53	1	527
6.6.1	win	2022-12-19	14:14:31	14:21:27	414289	631f626c1a2be3cc3d2069d8	871871735	1	main_slash	7	advance_on_keypress_SLASH	8	stimuli_target_trianglecircles.svg	stimuli_distractor_diamondtriangles.svg	21	yes	57	0	1414
6.6.1	win	2022-12-19	14:14:31	14:21:31	418325	631f626c1a2be3cc3d2069d8	871871735	1	main_slash	7	main_slash	9	stimuli_distractor_diamondtriangles.svg	stimuli_distractor_diamondtriangles.svg	40	no	0	1	2000
6.6.1	win	2022-12-19	14:14:31	14:21:31	418325	631f626c1a2be3cc3d2069d8	871871735	1	main_slash	7	advance_on_keypress_SLASH	10	stimuli_distractor_diamondtriangles.svg	stimuli_distractor_diamondtriangles.svg	40	no	57	0	462
6.6.1	win	2022-12-19	14:14:31	14:21:33	420800	631f626c1a2be3cc3d2069d8	871871735	1	main_slash	7	main_slash	11	stimuli_distractor_diamondtriangles.svg	stimuli_distractor_trianglediamonds.svg	37	no	53	0	1397
6.6.1	win	2022-12-19	14:14:31	14:21:33	420800	631f626c1a2be3cc3d2069d8	871871735	1	main_slash	7	advance_on_keypress_SLASH	12	stimuli_distractor_diamondtriangles.svg	stimuli_distractor_trianglediamonds.svg	37	no	57	0	3198
6.6.1	win	2022-12-19	14:14:31	14:21:38	425032	631f626c1a2be3cc3d2069d8	871871735	1	main_slash	7	main_slash	13	stimuli_target_squaretriangles.svg	stimuli_distractor_diamondtriangles.svg	7	yes	53	1	412
6.6.1	win	2022-12-19	14:14:31	14:21:38	425032	631f626c1a2be3cc3d2069d8	871871735	1	main_slash	7	advance_on_keypress_SLASH	14	stimuli_target_squaretriangles.svg	stimuli_distractor_diamondtriangles.svg	7	yes	57	0	1432
6.6.1	win	2022-12-19	14:14:31	14:21:40	427585	631f626c1a2be3cc3d2069d8	871871735	1	main_slash	7	main_slash	15	stimuli_distractor_trianglediamonds.svg	stimuli_target_circletriangles.svg	9	yes	53	1	499
6.6.1	win	2022-12-19	14:14:31	14:21:40	427585	631f626c1a2be3cc3d2069d8	871871735	1	main_slash	7	advance_on_keypress_SLASH	16	stimuli_distractor_trianglediamonds.svg	stimuli_target_circletriangles.svg	9	yes	57	0	927
6.6.1	win	2022-12-19	14:14:31	14:21:42	429820	631f626c1a2be3cc3d2069d8	871871735	1	main_slash	7	main_slash	17	stimuli_distractor_trianglediamonds.svg	stimuli_target_diamondcircles.svg	27	yes	53	1	690
6.6.1	win	2022-12-19	14:14:31	14:21:42	429820	631f626c1a2be3cc3d2069d8	871871735	1	main_slash	7	advance_on_keypress_SLASH	18	stimuli_distractor_trianglediamonds.svg	stimuli_target_diamondcircles.svg	27	yes	57	0	1266
6.6.1	win	2022-12-19	14:14:31	14:21:45	432352	631f626c1a2be3cc3d2069d8	871871735	1	main_slash	7	main_slash	19	stimuli_target_squarediamonds.svg	stimuli_distractor_trianglediamonds.svg	4	yes	53	1	650
6.6.1	win	2022-12-19	14:14:31	14:21:45	432352	631f626c1a2be3cc3d2069d8	871871735	1	main_slash	7	advance_on_keypress_SLASH	20	stimuli_target_squarediamonds.svg	stimuli_distractor_trianglediamonds.svg	4	yes	57	0	750
6.6.1	win	2022-12-19	14:14:31	14:21:47	434142	631f626c1a2be3cc3d2069d8	871871735	1	main_slash	7	main_slash	21	stimuli_target_squaretriangles.svg	stimuli_distractor_trianglediamonds.svg	3	yes	53	1	419
6.6.1	win	2022-12-19	14:14:31	14:21:47	434142	631f626c1a2be3cc3d2069d8	871871735	1	main_slash	7	advance_on_keypress_SLASH	22	stimuli_target_squaretriangles.svg	stimuli_distractor_trianglediamonds.svg	3	yes	57	0	744
6.6.1	win	2022-12-19	14:14:31	14:21:48	435838	631f626c1a2be3cc3d2069d8	871871735	1	main_slash	7	main_slash	23	stimuli_target_circletriangles.svg	stimuli_distractor_diamondtriangles.svg	5	yes	53	1	335
6.6.1	win	2022-12-19	14:14:31	14:21:48	435838	631f626c1a2be3cc3d2069d8	871871735	1	main_slash	7	advance_on_keypress_SLASH	24	stimuli_target_circletriangles.svg	stimuli_distractor_diamondtriangles.svg	5	yes	57	0	695
6.6.1	win	2022-12-19	14:14:31	14:21:51	438082	631f626c1a2be3cc3d2069d8	871871735	1	main_slash	7	main_slash	25	stimuli_distractor_trianglediamonds.svg	stimuli_target_diamondsquares.svg	28	yes	53	1	927
6.6.1	win	2022-12-19	14:14:31	14:21:51	438082	631f626c1a2be3cc3d2069d8	871871735	1	main_slash	7	advance_on_keypress_SLASH	26	stimuli_distractor_trianglediamonds.svg	stimuli_target_diamondsquares.svg	28	yes	57	0	537
6.6.1	win	2022-12-19	14:14:31	14:21:54	441240	631f626c1a2be3cc3d2069d8	871871735	1	main_slash	7	main_slash	27	stimuli_distractor_diamondtriangles.svg	stimuli_distractor_diamondtriangles.svg	39	no	0	1	2000
6.6.1	win	2022-12-19	14:14:31	14:21:54	441240	631f626c1a2be3cc3d2069d8	871871735	1	main_slash	7	advance_on_keypress_SLASH	28	stimuli_distractor_diamondtriangles.svg	stimuli_distractor_diamondtriangles.svg	39	no	57	0	40
6.6.1	win	2022-12-19	14:14:31	14:21:55	442386	631f626c1a2be3cc3d2069d8	871871735	1	main_slash	7	main_slash	29	stimuli_target_diamondcircles.svg	stimuli_distractor_diamondtriangles.svg	23	yes	53	1	488
6.6.1	win	2022-12-19	14:14:31	14:21:55	442386	631f626c1a2be3cc3d2069d8	871871735	1	main_slash	7	advance_on_keypress_SLASH	30	stimuli_target_diamondcircles.svg	stimuli_distractor_diamondtriangles.svg	23	yes	57	0	584
6.6.1	win	2022-12-19	14:14:31	14:21:57	444034	631f626c1a2be3cc3d2069d8	871871735	1	main_slash	7	main_slash	31	stimuli_distractor_trianglediamonds.svg	stimuli_target_circlediamonds.svg	10	yes	53	1	443
6.6.1	win	2022-12-19	14:14:31	14:21:57	444034	631f626c1a2be3cc3d2069d8	871871735	1	main_slash	7	advance_on_keypress_SLASH	32	stimuli_distractor_trianglediamonds.svg	stimuli_target_circlediamonds.svg	10	yes	57	0	714
6.6.1	win	2022-12-19	14:14:31	14:21:59	446455	631f626c1a2be3cc3d2069d8	871871735	1	main_slash	7	main_slash	33	stimuli_target_trianglesquares.svg	stimuli_distractor_diamondtriangles.svg	22	yes	53	1	1086
6.6.1	win	2022-12-19	14:14:31	14:21:59	446455	631f626c1a2be3cc3d2069d8	871871735	1	main_slash	7	advance_on_keypress_SLASH	34	stimuli_target_trianglesquares.svg	stimuli_distractor_diamondtriangles.svg	22	yes	57	0	618
6.6.1	win	2022-12-19	14:14:31	14:22:01	448174	631f626c1a2be3cc3d2069d8	871871735	1	main_slash	7	main_slash	35	stimuli_distractor_diamondtriangles.svg	stimuli_target_squaretriangles.svg	15	yes	53	1	479
6.6.1	win	2022-12-19	14:14:31	14:22:01	448174	631f626c1a2be3cc3d2069d8	871871735	1	main_slash	7	advance_on_keypress_SLASH	36	stimuli_distractor_diamondtriangles.svg	stimuli_target_squaretriangles.svg	15	yes	57	0	810
6.6.1	win	2022-12-19	14:14:31	14:22:03	450006	631f626c1a2be3cc3d2069d8	871871735	1	main_slash	7	main_slash	37	stimuli_target_diamondcircles.svg	stimuli_distractor_trianglediamonds.svg	19	yes	53	1	402
6.6.1	win	2022-12-19	14:14:31	14:22:03	450006	631f626c1a2be3cc3d2069d8	871871735	1	main_slash	7	advance_on_keypress_SLASH	38	stimuli_target_diamondcircles.svg	stimuli_distractor_trianglediamonds.svg	19	yes	57	0	591
6.6.1	win	2022-12-19	14:14:31	14:22:04	451625	631f626c1a2be3cc3d2069d8	871871735	1	main_slash	7	main_slash	39	stimuli_distractor_trianglediamonds.svg	stimuli_target_trianglecircles.svg	25	yes	53	1	412
6.6.1	win	2022-12-19	14:14:31	14:22:04	451625	631f626c1a2be3cc3d2069d8	871871735	1	main_slash	7	advance_on_keypress_SLASH	40	stimuli_distractor_trianglediamonds.svg	stimuli_target_trianglecircles.svg	25	yes	57	0	660
6.6.1	win	2022-12-19	14:14:31	14:22:06	453221	631f626c1a2be3cc3d2069d8	871871735	1	main_slash	7	main_slash	41	stimuli_distractor_diamondtriangles.svg	stimuli_target_circlediamonds.svg	14	yes	53	1	321
6.6.1	win	2022-12-19	14:14:31	14:22:06	453221	631f626c1a2be3cc3d2069d8	871871735	1	main_slash	7	advance_on_keypress_SLASH	42	stimuli_distractor_diamondtriangles.svg	stimuli_target_circlediamonds.svg	14	yes	57	0	670
6.6.1	win	2022-12-19	14:14:31	14:22:09	456514	631f626c1a2be3cc3d2069d8	871871735	1	main_slash	7	main_slash	43	stimuli_distractor_trianglediamonds.svg	stimuli_distractor_diamondtriangles.svg	35	no	0	1	2000
6.6.1	win	2022-12-19	14:14:31	14:22:09	456514	631f626c1a2be3cc3d2069d8	871871735	1	main_slash	7	advance_on_keypress_SLASH	44	stimuli_distractor_trianglediamonds.svg	stimuli_distractor_diamondtriangles.svg	35	no	57	0	610
6.6.1	win	2022-12-19	14:14:31	14:22:11	458101	631f626c1a2be3cc3d2069d8	871871735	1	main_slash	7	main_slash	45	stimuli_target_squarediamonds.svg	stimuli_distractor_diamondtriangles.svg	8	yes	53	1	355
6.6.1	win	2022-12-19	14:14:31	14:22:11	458101	631f626c1a2be3cc3d2069d8	871871735	1	main_slash	7	advance_on_keypress_SLASH	46	stimuli_target_squarediamonds.svg	stimuli_distractor_diamondtriangles.svg	8	yes	57	0	557
6.6.1	win	2022-12-19	14:14:31	14:22:13	460074	631f626c1a2be3cc3d2069d8	871871735	1	main_slash	7	main_slash	47	stimuli_distractor_trianglediamonds.svg	stimuli_target_trianglesquares.svg	26	yes	53	1	796
6.6.1	win	2022-12-19	14:14:31	14:22:13	460074	631f626c1a2be3cc3d2069d8	871871735	1	main_slash	7	advance_on_keypress_SLASH	48	stimuli_distractor_trianglediamonds.svg	stimuli_target_trianglesquares.svg	26	yes	57	0	505
6.6.1	win	2022-12-19	14:14:31	14:22:14	461763	631f626c1a2be3cc3d2069d8	871871735	1	main_slash	7	main_slash	49	stimuli_distractor_trianglediamonds.svg	stimuli_target_squaretriangles.svg	11	yes	53	1	567
6.6.1	win	2022-12-19	14:14:31	14:22:14	461763	631f626c1a2be3cc3d2069d8	871871735	1	main_slash	7	advance_on_keypress_SLASH	50	stimuli_distractor_trianglediamonds.svg	stimuli_target_squaretriangles.svg	11	yes	57	0	532
6.6.1	win	2022-12-19	14:14:31	14:22:17	464911	631f626c1a2be3cc3d2069d8	871871735	1	main_slash	7	main_slash	51	stimuli_distractor_trianglediamonds.svg	stimuli_distractor_diamondtriangles.svg	36	no	0	1	2000
6.6.1	win	2022-12-19	14:14:31	14:22:17	464911	631f626c1a2be3cc3d2069d8	871871735	1	main_slash	7	advance_on_keypress_SLASH	52	stimuli_distractor_trianglediamonds.svg	stimuli_distractor_diamondtriangles.svg	36	no	57	0	1332
6.6.1	win	2022-12-19	14:14:31	14:22:20	467271	631f626c1a2be3cc3d2069d8	871871735	1	main_slash	7	main_slash	53	stimuli_target_circlediamonds.svg	stimuli_distractor_trianglediamonds.svg	2	yes	53	1	411
6.6.1	win	2022-12-19	14:14:31	14:22:20	467271	631f626c1a2be3cc3d2069d8	871871735	1	main_slash	7	advance_on_keypress_SLASH	54	stimuli_target_circlediamonds.svg	stimuli_distractor_trianglediamonds.svg	2	yes	57	0	514
6.6.1	win	2022-12-19	14:14:31	14:22:21	468746	631f626c1a2be3cc3d2069d8	871871735	1	main_slash	7	main_slash	55	stimuli_target_trianglecircles.svg	stimuli_distractor_trianglediamonds.svg	17	yes	53	1	336
6.6.1	win	2022-12-19	14:14:31	14:22:21	468746	631f626c1a2be3cc3d2069d8	871871735	1	main_slash	7	advance_on_keypress_SLASH	56	stimuli_target_trianglecircles.svg	stimuli_distractor_trianglediamonds.svg	17	yes	57	0	555
6.6.1	win	2022-12-19	14:14:31	14:22:24	471915	631f626c1a2be3cc3d2069d8	871871735	1	main_slash	7	main_slash	57	stimuli_distractor_trianglediamonds.svg	stimuli_distractor_trianglediamonds.svg	34	no	0	1	2000
6.6.1	win	2022-12-19	14:14:31	14:22:24	471915	631f626c1a2be3cc3d2069d8	871871735	1	main_slash	7	advance_on_keypress_SLASH	58	stimuli_distractor_trianglediamonds.svg	stimuli_distractor_trianglediamonds.svg	34	no	57	0	1152
6.6.1	win	2022-12-19	14:14:31	14:22:27	474092	631f626c1a2be3cc3d2069d8	871871735	1	main_slash	7	main_slash	59	stimuli_distractor_diamondtriangles.svg	stimuli_target_diamondsquares.svg	32	yes	53	1	408
6.6.1	win	2022-12-19	14:14:31	14:22:27	474092	631f626c1a2be3cc3d2069d8	871871735	1	main_slash	7	advance_on_keypress_SLASH	60	stimuli_distractor_diamondtriangles.svg	stimuli_target_diamondsquares.svg	32	yes	57	0	932
6.6.1	win	2022-12-19	14:14:31	14:22:30	477641	631f626c1a2be3cc3d2069d8	871871735	1	main_slash	7	main_slash	61	stimuli_distractor_trianglediamonds.svg	stimuli_distractor_trianglediamonds.svg	33	no	0	1	2000
6.6.1	win	2022-12-19	14:14:31	14:22:30	477641	631f626c1a2be3cc3d2069d8	871871735	1	main_slash	7	advance_on_keypress_SLASH	62	stimuli_distractor_trianglediamonds.svg	stimuli_distractor_trianglediamonds.svg	33	no	57	0	632
6.6.1	win	2022-12-19	14:14:31	14:22:32	479406	631f626c1a2be3cc3d2069d8	871871735	1	main_slash	7	main_slash	63	stimuli_distractor_trianglediamonds.svg	stimuli_target_squarediamonds.svg	12	yes	53	1	511
6.6.1	win	2022-12-19	14:14:31	14:22:32	479406	631f626c1a2be3cc3d2069d8	871871735	1	main_slash	7	advance_on_keypress_SLASH	64	stimuli_distractor_trianglediamonds.svg	stimuli_target_squarediamonds.svg	12	yes	57	0	544
6.6.1	win	2022-12-19	14:14:31	14:22:34	481398	631f626c1a2be3cc3d2069d8	871871735	1	main_slash	7	main_slash	65	stimuli_target_trianglesquares.svg	stimuli_distractor_trianglediamonds.svg	18	yes	53	1	833
6.6.1	win	2022-12-19	14:14:31	14:22:34	481398	631f626c1a2be3cc3d2069d8	871871735	1	main_slash	7	advance_on_keypress_SLASH	66	stimuli_target_trianglesquares.svg	stimuli_distractor_trianglediamonds.svg	18	yes	57	0	487
6.6.1	win	2022-12-19	14:14:31	14:22:36	483002	631f626c1a2be3cc3d2069d8	871871735	1	main_slash	7	main_slash	67	stimuli_distractor_diamondtriangles.svg	stimuli_target_circletriangles.svg	13	yes	53	1	495
6.6.1	win	2022-12-19	14:14:31	14:22:36	483002	631f626c1a2be3cc3d2069d8	871871735	1	main_slash	7	advance_on_keypress_SLASH	68	stimuli_distractor_diamondtriangles.svg	stimuli_target_circletriangles.svg	13	yes	57	0	530
6.6.1	win	2022-12-19	14:14:31	14:22:37	484834	631f626c1a2be3cc3d2069d8	871871735	1	main_slash	7	main_slash	69	stimuli_distractor_diamondtriangles.svg	stimuli_target_trianglesquares.svg	30	yes	53	1	686
6.6.1	win	2022-12-19	14:14:31	14:22:37	484834	631f626c1a2be3cc3d2069d8	871871735	1	main_slash	7	advance_on_keypress_SLASH	70	stimuli_distractor_diamondtriangles.svg	stimuli_target_trianglesquares.svg	30	yes	57	0	555
6.6.1	win	2022-12-19	14:14:31	14:22:39	486541	631f626c1a2be3cc3d2069d8	871871735	1	main_slash	7	main_slash	71	stimuli_distractor_diamondtriangles.svg	stimuli_target_diamondcircles.svg	31	yes	53	1	530
6.6.1	win	2022-12-19	14:14:31	14:22:39	486541	631f626c1a2be3cc3d2069d8	871871735	1	main_slash	7	advance_on_keypress_SLASH	72	stimuli_distractor_diamondtriangles.svg	stimuli_target_diamondcircles.svg	31	yes	57	0	532
6.6.1	win	2022-12-19	14:14:31	14:22:41	488076	631f626c1a2be3cc3d2069d8	871871735	1	main_slash	7	main_slash	73	stimuli_distractor_diamondtriangles.svg	stimuli_target_trianglecircles.svg	29	yes	53	1	381
6.6.1	win	2022-12-19	14:14:31	14:22:41	488076	631f626c1a2be3cc3d2069d8	871871735	1	main_slash	7	advance_on_keypress_SLASH	74	stimuli_distractor_diamondtriangles.svg	stimuli_target_trianglecircles.svg	29	yes	57	0	900
6.6.1	win	2022-12-19	14:14:31	14:22:44	491592	631f626c1a2be3cc3d2069d8	871871735	1	main_slash	7	main_slash	75	stimuli_target_diamondsquares.svg	stimuli_distractor_trianglediamonds.svg	20	yes	0	0	2000
6.6.1	win	2022-12-19	14:14:31	14:22:44	491592	631f626c1a2be3cc3d2069d8	871871735	1	main_slash	7	advance_on_keypress_SLASH	76	stimuli_target_diamondsquares.svg	stimuli_distractor_trianglediamonds.svg	20	yes	57	0	893
6.6.1	win	2022-12-19	14:14:31	14:22:46	493484	631f626c1a2be3cc3d2069d8	871871735	1	main_slash	7	main_slash	77	stimuli_target_circletriangles.svg	stimuli_distractor_trianglediamonds.svg	1	yes	53	1	382
6.6.1	win	2022-12-19	14:14:31	14:22:46	493484	631f626c1a2be3cc3d2069d8	871871735	1	main_slash	7	advance_on_keypress_SLASH	78	stimuli_target_circletriangles.svg	stimuli_distractor_trianglediamonds.svg	1	yes	57	0	579
6.6.1	win	2022-12-19	14:14:31	14:22:48	495228	631f626c1a2be3cc3d2069d8	871871735	1	main_slash	7	main_slash	79	stimuli_distractor_diamondtriangles.svg	stimuli_target_squarediamonds.svg	16	yes	53	1	545
6.6.1	win	2022-12-19	14:14:31	14:22:48	495228	631f626c1a2be3cc3d2069d8	871871735	1	main_slash	7	advance_on_keypress_SLASH	80	stimuli_distractor_diamondtriangles.svg	stimuli_target_squarediamonds.svg	16	yes	57	0	472
6.6.1	win	2022-12-19	14:14:31	14:22:51	498321	631f626c1a2be3cc3d2069d8	871871735	1	main_slash	7	main_slash	81	stimuli_distractor_trianglediamonds.svg	stimuli_distractor_diamondtriangles.svg	36	no	0	1	2000
6.6.1	win	2022-12-19	14:14:31	14:22:51	498321	631f626c1a2be3cc3d2069d8	871871735	1	main_slash	7	advance_on_keypress_SLASH	82	stimuli_distractor_trianglediamonds.svg	stimuli_distractor_diamondtriangles.svg	36	no	57	0	538
6.6.1	win	2022-12-19	14:14:31	14:22:52	499885	631f626c1a2be3cc3d2069d8	871871735	1	main_slash	7	main_slash	83	stimuli_distractor_trianglediamonds.svg	stimuli_target_squarediamonds.svg	12	yes	53	1	407
6.6.1	win	2022-12-19	14:14:31	14:22:52	499885	631f626c1a2be3cc3d2069d8	871871735	1	main_slash	7	advance_on_keypress_SLASH	84	stimuli_distractor_trianglediamonds.svg	stimuli_target_squarediamonds.svg	12	yes	57	0	600
6.6.1	win	2022-12-19	14:14:31	14:22:54	501760	631f626c1a2be3cc3d2069d8	871871735	1	main_slash	7	main_slash	85	stimuli_distractor_trianglediamonds.svg	stimuli_target_trianglesquares.svg	26	yes	53	1	660
6.6.1	win	2022-12-19	14:14:31	14:22:54	501760	631f626c1a2be3cc3d2069d8	871871735	1	main_slash	7	advance_on_keypress_SLASH	86	stimuli_distractor_trianglediamonds.svg	stimuli_target_trianglesquares.svg	26	yes	57	0	516
6.6.1	win	2022-12-19	14:14:31	14:22:56	503366	631f626c1a2be3cc3d2069d8	871871735	1	main_slash	7	main_slash	87	stimuli_distractor_trianglediamonds.svg	stimuli_target_trianglecircles.svg	25	yes	53	1	469
6.6.1	win	2022-12-19	14:14:31	14:22:56	503366	631f626c1a2be3cc3d2069d8	871871735	1	main_slash	7	advance_on_keypress_SLASH	88	stimuli_distractor_trianglediamonds.svg	stimuli_target_trianglecircles.svg	25	yes	57	0	509
6.6.1	win	2022-12-19	14:14:31	14:22:58	505175	631f626c1a2be3cc3d2069d8	871871735	1	main_slash	7	main_slash	89	stimuli_distractor_trianglediamonds.svg	stimuli_target_diamondsquares.svg	28	yes	53	1	679
6.6.1	win	2022-12-19	14:14:31	14:22:58	505175	631f626c1a2be3cc3d2069d8	871871735	1	main_slash	7	advance_on_keypress_SLASH	90	stimuli_distractor_trianglediamonds.svg	stimuli_target_diamondsquares.svg	28	yes	57	0	474
6.6.1	win	2022-12-19	14:14:31	14:23:01	508264	631f626c1a2be3cc3d2069d8	871871735	1	main_slash	7	main_slash	91	stimuli_distractor_diamondtriangles.svg	stimuli_distractor_diamondtriangles.svg	39	no	0	1	2000
6.6.1	win	2022-12-19	14:14:31	14:23:01	508264	631f626c1a2be3cc3d2069d8	871871735	1	main_slash	7	advance_on_keypress_SLASH	92	stimuli_distractor_diamondtriangles.svg	stimuli_distractor_diamondtriangles.svg	39	no	57	0	67
6.6.1	win	2022-12-19	14:14:31	14:23:02	509772	631f626c1a2be3cc3d2069d8	871871735	1	main_slash	7	main_slash	93	stimuli_distractor_diamondtriangles.svg	stimuli_distractor_trianglediamonds.svg	37	no	53	0	825
6.6.1	win	2022-12-19	14:14:31	14:23:02	509772	631f626c1a2be3cc3d2069d8	871871735	1	main_slash	7	advance_on_keypress_SLASH	94	stimuli_distractor_diamondtriangles.svg	stimuli_distractor_trianglediamonds.svg	37	no	57	0	428
6.6.1	win	2022-12-19	14:14:31	14:23:04	511224	631f626c1a2be3cc3d2069d8	871871735	1	main_slash	7	main_slash	95	stimuli_distractor_diamondtriangles.svg	stimuli_target_squarediamonds.svg	16	yes	53	1	403
6.6.1	win	2022-12-19	14:14:31	14:23:04	511224	631f626c1a2be3cc3d2069d8	871871735	1	main_slash	7	advance_on_keypress_SLASH	96	stimuli_distractor_diamondtriangles.svg	stimuli_target_squarediamonds.svg	16	yes	57	0	516
6.6.1	win	2022-12-19	14:14:31	14:23:07	514356	631f626c1a2be3cc3d2069d8	871871735	1	main_slash	7	main_slash	97	stimuli_target_circlediamonds.svg	stimuli_distractor_diamondtriangles.svg	6	yes	0	0	2000
6.6.1	win	2022-12-19	14:14:31	14:23:07	514356	631f626c1a2be3cc3d2069d8	871871735	1	main_slash	7	advance_on_keypress_SLASH	98	stimuli_target_circlediamonds.svg	stimuli_distractor_diamondtriangles.svg	6	yes	57	0	652
6.6.1	win	2022-12-19	14:14:31	14:23:09	516163	631f626c1a2be3cc3d2069d8	871871735	1	main_slash	7	main_slash	99	stimuli_target_diamondcircles.svg	stimuli_distractor_diamondtriangles.svg	23	yes	53	1	540
6.6.1	win	2022-12-19	14:14:31	14:23:09	516163	631f626c1a2be3cc3d2069d8	871871735	1	main_slash	7	advance_on_keypress_SLASH	100	stimuli_target_diamondcircles.svg	stimuli_distractor_diamondtriangles.svg	23	yes	57	0	689
6.6.1	win	2022-12-19	14:14:31	14:23:10	517850	631f626c1a2be3cc3d2069d8	871871735	1	main_slash	7	main_slash	101	stimuli_distractor_diamondtriangles.svg	stimuli_target_diamondcircles.svg	31	yes	53	1	381
6.6.1	win	2022-12-19	14:14:31	14:23:10	517850	631f626c1a2be3cc3d2069d8	871871735	1	main_slash	7	advance_on_keypress_SLASH	102	stimuli_distractor_diamondtriangles.svg	stimuli_target_diamondcircles.svg	31	yes	57	0	483
6.6.1	win	2022-12-19	14:14:31	14:23:12	519369	631f626c1a2be3cc3d2069d8	871871735	1	main_slash	7	main_slash	103	stimuli_distractor_trianglediamonds.svg	stimuli_target_circletriangles.svg	9	yes	53	1	416
6.6.1	win	2022-12-19	14:14:31	14:23:12	519369	631f626c1a2be3cc3d2069d8	871871735	1	main_slash	7	advance_on_keypress_SLASH	104	stimuli_distractor_trianglediamonds.svg	stimuli_target_circletriangles.svg	9	yes	57	0	501
6.6.1	win	2022-12-19	14:14:31	14:23:14	521218	631f626c1a2be3cc3d2069d8	871871735	1	main_slash	7	main_slash	105	stimuli_target_diamondsquares.svg	stimuli_distractor_trianglediamonds.svg	20	yes	53	1	733
6.6.1	win	2022-12-19	14:14:31	14:23:14	521218	631f626c1a2be3cc3d2069d8	871871735	1	main_slash	7	advance_on_keypress_SLASH	106	stimuli_target_diamondsquares.svg	stimuli_distractor_trianglediamonds.svg	20	yes	57	0	456
6.6.1	win	2022-12-19	14:14:31	14:23:17	524292	631f626c1a2be3cc3d2069d8	871871735	1	main_slash	7	main_slash	107	stimuli_distractor_trianglediamonds.svg	stimuli_distractor_diamondtriangles.svg	35	no	0	1	2000
6.6.1	win	2022-12-19	14:14:31	14:23:17	524292	631f626c1a2be3cc3d2069d8	871871735	1	main_slash	7	advance_on_keypress_SLASH	108	stimuli_distractor_trianglediamonds.svg	stimuli_distractor_diamondtriangles.svg	35	no	57	0	1284
6.6.1	win	2022-12-19	14:14:31	14:23:19	526647	631f626c1a2be3cc3d2069d8	871871735	1	main_slash	7	main_slash	109	stimuli_target_squaretriangles.svg	stimuli_distractor_trianglediamonds.svg	3	yes	53	1	455
6.6.1	win	2022-12-19	14:14:31	14:23:19	526647	631f626c1a2be3cc3d2069d8	871871735	1	main_slash	7	advance_on_keypress_SLASH	110	stimuli_target_squaretriangles.svg	stimuli_distractor_trianglediamonds.svg	3	yes	57	0	738
6.6.1	win	2022-12-19	14:14:31	14:23:21	528440	631f626c1a2be3cc3d2069d8	871871735	1	main_slash	7	main_slash	111	stimuli_distractor_diamondtriangles.svg	stimuli_target_diamondsquares.svg	32	yes	53	1	434
6.6.1	win	2022-12-19	14:14:31	14:23:21	528440	631f626c1a2be3cc3d2069d8	871871735	1	main_slash	7	advance_on_keypress_SLASH	112	stimuli_distractor_diamondtriangles.svg	stimuli_target_diamondsquares.svg	32	yes	57	0	488
6.6.1	win	2022-12-19	14:14:31	14:23:24	531546	631f626c1a2be3cc3d2069d8	871871735	1	main_slash	7	main_slash	113	stimuli_distractor_trianglediamonds.svg	stimuli_distractor_trianglediamonds.svg	33	no	0	1	2000
6.6.1	win	2022-12-19	14:14:31	14:23:24	531546	631f626c1a2be3cc3d2069d8	871871735	1	main_slash	7	advance_on_keypress_SLASH	114	stimuli_distractor_trianglediamonds.svg	stimuli_distractor_trianglediamonds.svg	33	no	57	0	667
6.6.1	win	2022-12-19	14:14:31	14:23:26	533248	631f626c1a2be3cc3d2069d8	871871735	1	main_slash	7	main_slash	115	stimuli_distractor_diamondtriangles.svg	stimuli_target_circlediamonds.svg	14	yes	53	1	420
6.6.1	win	2022-12-19	14:14:31	14:23:26	533248	631f626c1a2be3cc3d2069d8	871871735	1	main_slash	7	advance_on_keypress_SLASH	116	stimuli_distractor_diamondtriangles.svg	stimuli_target_circlediamonds.svg	14	yes	57	0	474
6.6.1	win	2022-12-19	14:14:31	14:23:27	534698	631f626c1a2be3cc3d2069d8	871871735	1	main_slash	7	main_slash	117	stimuli_distractor_trianglediamonds.svg	stimuli_target_diamondcircles.svg	27	yes	53	1	362
6.6.1	win	2022-12-19	14:14:31	14:23:27	534698	631f626c1a2be3cc3d2069d8	871871735	1	main_slash	7	advance_on_keypress_SLASH	118	stimuli_distractor_trianglediamonds.svg	stimuli_target_diamondcircles.svg	27	yes	57	0	455
6.6.1	win	2022-12-19	14:14:31	14:23:29	536198	631f626c1a2be3cc3d2069d8	871871735	1	main_slash	7	main_slash	119	stimuli_target_circletriangles.svg	stimuli_distractor_trianglediamonds.svg	1	yes	53	1	424
6.6.1	win	2022-12-19	14:14:31	14:23:29	536198	631f626c1a2be3cc3d2069d8	871871735	1	main_slash	7	advance_on_keypress_SLASH	120	stimuli_target_circletriangles.svg	stimuli_distractor_trianglediamonds.svg	1	yes	57	0	470
6.6.1	win	2022-12-19	14:14:31	14:23:30	537874	631f626c1a2be3cc3d2069d8	871871735	1	main_slash	7	main_slash	121	stimuli_target_squarediamonds.svg	stimuli_distractor_diamondtriangles.svg	8	yes	53	1	591
6.6.1	win	2022-12-19	14:14:31	14:23:30	537874	631f626c1a2be3cc3d2069d8	871871735	1	main_slash	7	advance_on_keypress_SLASH	122	stimuli_target_squarediamonds.svg	stimuli_distractor_diamondtriangles.svg	8	yes	57	0	448
6.6.1	win	2022-12-19	14:14:31	14:23:32	539375	631f626c1a2be3cc3d2069d8	871871735	1	main_slash	7	main_slash	123	stimuli_target_squaretriangles.svg	stimuli_distractor_diamondtriangles.svg	7	yes	53	1	436
6.6.1	win	2022-12-19	14:14:31	14:23:32	539375	631f626c1a2be3cc3d2069d8	871871735	1	main_slash	7	advance_on_keypress_SLASH	124	stimuli_target_squaretriangles.svg	stimuli_distractor_diamondtriangles.svg	7	yes	57	0	443
6.6.1	win	2022-12-19	14:14:31	14:23:35	542440	631f626c1a2be3cc3d2069d8	871871735	1	main_slash	7	main_slash	125	stimuli_distractor_diamondtriangles.svg	stimuli_distractor_diamondtriangles.svg	40	no	0	1	2000
6.6.1	win	2022-12-19	14:14:31	14:23:35	542440	631f626c1a2be3cc3d2069d8	871871735	1	main_slash	7	advance_on_keypress_SLASH	126	stimuli_distractor_diamondtriangles.svg	stimuli_distractor_diamondtriangles.svg	40	no	57	0	650
6.6.1	win	2022-12-19	14:14:31	14:23:37	544066	631f626c1a2be3cc3d2069d8	871871735	1	main_slash	7	main_slash	127	stimuli_distractor_trianglediamonds.svg	stimuli_target_circlediamonds.svg	10	yes	53	1	360
6.6.1	win	2022-12-19	14:14:31	14:23:37	544066	631f626c1a2be3cc3d2069d8	871871735	1	main_slash	7	advance_on_keypress_SLASH	128	stimuli_distractor_trianglediamonds.svg	stimuli_target_circlediamonds.svg	10	yes	57	0	423
6.6.1	win	2022-12-19	14:14:31	14:23:38	545492	631f626c1a2be3cc3d2069d8	871871735	1	main_slash	7	main_slash	129	stimuli_distractor_diamondtriangles.svg	stimuli_target_squaretriangles.svg	15	yes	53	1	381
6.6.1	win	2022-12-19	14:14:31	14:23:38	545492	631f626c1a2be3cc3d2069d8	871871735	1	main_slash	7	advance_on_keypress_SLASH	130	stimuli_distractor_diamondtriangles.svg	stimuli_target_squaretriangles.svg	15	yes	57	0	476
6.6.1	win	2022-12-19	14:14:31	14:23:40	547098	631f626c1a2be3cc3d2069d8	871871735	1	main_slash	7	main_slash	131	stimuli_target_squarediamonds.svg	stimuli_distractor_trianglediamonds.svg	4	yes	53	1	508
6.6.1	win	2022-12-19	14:14:31	14:23:40	547098	631f626c1a2be3cc3d2069d8	871871735	1	main_slash	7	advance_on_keypress_SLASH	132	stimuli_target_squarediamonds.svg	stimuli_distractor_trianglediamonds.svg	4	yes	57	0	553
6.6.1	win	2022-12-19	14:14:31	14:23:41	548722	631f626c1a2be3cc3d2069d8	871871735	1	main_slash	7	main_slash	133	stimuli_distractor_trianglediamonds.svg	stimuli_target_squaretriangles.svg	11	yes	53	1	447
6.6.1	win	2022-12-19	14:14:31	14:23:41	548722	631f626c1a2be3cc3d2069d8	871871735	1	main_slash	7	advance_on_keypress_SLASH	134	stimuli_distractor_trianglediamonds.svg	stimuli_target_squaretriangles.svg	11	yes	57	0	504
6.6.1	win	2022-12-19	14:14:31	14:23:43	550528	631f626c1a2be3cc3d2069d8	871871735	1	main_slash	7	main_slash	135	stimuli_target_diamondsquares.svg	stimuli_distractor_diamondtriangles.svg	24	yes	53	1	682
6.6.1	win	2022-12-19	14:14:31	14:23:43	550528	631f626c1a2be3cc3d2069d8	871871735	1	main_slash	7	advance_on_keypress_SLASH	136	stimuli_target_diamondsquares.svg	stimuli_distractor_diamondtriangles.svg	24	yes	57	0	435
6.6.1	win	2022-12-19	14:14:31	14:23:45	552144	631f626c1a2be3cc3d2069d8	871871735	1	main_slash	7	main_slash	137	stimuli_distractor_diamondtriangles.svg	stimuli_target_circletriangles.svg	13	yes	53	1	560
6.6.1	win	2022-12-19	14:14:31	14:23:45	552144	631f626c1a2be3cc3d2069d8	871871735	1	main_slash	7	advance_on_keypress_SLASH	138	stimuli_distractor_diamondtriangles.svg	stimuli_target_circletriangles.svg	13	yes	57	0	422
6.6.1	win	2022-12-19	14:14:31	14:23:47	554120	631f626c1a2be3cc3d2069d8	871871735	1	main_slash	7	main_slash	139	stimuli_target_trianglesquares.svg	stimuli_distractor_diamondtriangles.svg	22	yes	53	1	936
6.6.1	win	2022-12-19	14:14:31	14:23:47	554120	631f626c1a2be3cc3d2069d8	871871735	1	main_slash	7	advance_on_keypress_SLASH	140	stimuli_target_trianglesquares.svg	stimuli_distractor_diamondtriangles.svg	22	yes	57	0	1630
6.6.1	win	2022-12-19	14:14:31	14:23:49	556779	631f626c1a2be3cc3d2069d8	871871735	1	main_slash	7	main_slash	141	stimuli_distractor_diamondtriangles.svg	stimuli_target_trianglesquares.svg	30	yes	53	1	415
6.6.1	win	2022-12-19	14:14:31	14:23:49	556779	631f626c1a2be3cc3d2069d8	871871735	1	main_slash	7	advance_on_keypress_SLASH	142	stimuli_distractor_diamondtriangles.svg	stimuli_target_trianglesquares.svg	30	yes	57	0	477
6.6.1	win	2022-12-19	14:14:31	14:23:51	558429	631f626c1a2be3cc3d2069d8	871871735	1	main_slash	7	main_slash	143	stimuli_target_trianglesquares.svg	stimuli_distractor_trianglediamonds.svg	18	yes	53	1	552
6.6.1	win	2022-12-19	14:14:31	14:23:51	558429	631f626c1a2be3cc3d2069d8	871871735	1	main_slash	7	advance_on_keypress_SLASH	144	stimuli_target_trianglesquares.svg	stimuli_distractor_trianglediamonds.svg	18	yes	57	0	439
6.6.1	win	2022-12-19	14:14:31	14:23:52	559906	631f626c1a2be3cc3d2069d8	871871735	1	main_slash	7	main_slash	145	stimuli_target_diamondcircles.svg	stimuli_distractor_trianglediamonds.svg	19	yes	53	1	420
6.6.1	win	2022-12-19	14:14:31	14:23:52	559906	631f626c1a2be3cc3d2069d8	871871735	1	main_slash	7	advance_on_keypress_SLASH	146	stimuli_target_diamondcircles.svg	stimuli_distractor_trianglediamonds.svg	19	yes	57	0	597
6.6.1	win	2022-12-19	14:14:31	14:23:54	561968	631f626c1a2be3cc3d2069d8	871871735	1	main_slash	7	main_slash	147	stimuli_distractor_diamondtriangles.svg	stimuli_distractor_trianglediamonds.svg	38	no	53	0	847
6.6.1	win	2022-12-19	14:14:31	14:23:54	561968	631f626c1a2be3cc3d2069d8	871871735	1	main_slash	7	advance_on_keypress_SLASH	148	stimuli_distractor_diamondtriangles.svg	stimuli_distractor_trianglediamonds.svg	38	no	57	0	454
6.6.1	win	2022-12-19	14:14:31	14:23:56	563751	631f626c1a2be3cc3d2069d8	871871735	1	main_slash	7	main_slash	149	stimuli_target_trianglecircles.svg	stimuli_distractor_trianglediamonds.svg	17	yes	53	1	707
6.6.1	win	2022-12-19	14:14:31	14:23:56	563751	631f626c1a2be3cc3d2069d8	871871735	1	main_slash	7	advance_on_keypress_SLASH	150	stimuli_target_trianglecircles.svg	stimuli_distractor_trianglediamonds.svg	17	yes	57	0	429
6.6.1	win	2022-12-19	14:14:31	14:23:59	566801	631f626c1a2be3cc3d2069d8	871871735	1	main_slash	7	main_slash	151	stimuli_distractor_trianglediamonds.svg	stimuli_distractor_trianglediamonds.svg	34	no	0	1	2000
6.6.1	win	2022-12-19	14:14:31	14:23:59	566801	631f626c1a2be3cc3d2069d8	871871735	1	main_slash	7	advance_on_keypress_SLASH	152	stimuli_distractor_trianglediamonds.svg	stimuli_distractor_trianglediamonds.svg	34	no	57	0	779
6.6.1	win	2022-12-19	14:14:31	14:24:01	568596	631f626c1a2be3cc3d2069d8	871871735	1	main_slash	7	main_slash	153	stimuli_target_trianglecircles.svg	stimuli_distractor_diamondtriangles.svg	21	yes	53	1	399
6.6.1	win	2022-12-19	14:14:31	14:24:01	568596	631f626c1a2be3cc3d2069d8	871871735	1	main_slash	7	advance_on_keypress_SLASH	154	stimuli_target_trianglecircles.svg	stimuli_distractor_diamondtriangles.svg	21	yes	57	0	397
6.6.1	win	2022-12-19	14:14:31	14:24:03	570014	631f626c1a2be3cc3d2069d8	871871735	1	main_slash	7	main_slash	155	stimuli_distractor_diamondtriangles.svg	stimuli_target_trianglecircles.svg	29	yes	53	1	401
6.6.1	win	2022-12-19	14:14:31	14:24:03	570014	631f626c1a2be3cc3d2069d8	871871735	1	main_slash	7	advance_on_keypress_SLASH	156	stimuli_distractor_diamondtriangles.svg	stimuli_target_trianglecircles.svg	29	yes	57	0	411
6.6.1	win	2022-12-19	14:14:31	14:24:04	571425	631f626c1a2be3cc3d2069d8	871871735	1	main_slash	7	main_slash	157	stimuli_target_circlediamonds.svg	stimuli_distractor_trianglediamonds.svg	2	yes	53	1	378
6.6.1	win	2022-12-19	14:14:31	14:24:04	571425	631f626c1a2be3cc3d2069d8	871871735	1	main_slash	7	advance_on_keypress_SLASH	158	stimuli_target_circlediamonds.svg	stimuli_distractor_trianglediamonds.svg	2	yes	57	0	906
6.6.1	win	2022-12-19	14:14:31	14:24:06	573312	631f626c1a2be3cc3d2069d8	871871735	1	main_slash	7	main_slash	159	stimuli_target_circletriangles.svg	stimuli_distractor_diamondtriangles.svg	5	yes	53	1	362
6.6.1	win	2022-12-19	14:14:31	14:24:06	573312	631f626c1a2be3cc3d2069d8	871871735	1	main_slash	7	advance_on_keypress_SLASH	160	stimuli_target_circletriangles.svg	stimuli_distractor_diamondtriangles.svg	5	yes	57	0	433
6.6.1	win	2022-12-19	14:14:31	14:24:31	598305	631f626c1a2be3cc3d2069d8	871871735	1	practice_z	9	practice_z	1	stimuli_target_squarediamonds.svg	stimuli_distractor_diamondtriangles.svg	2	yes	44	1	392
6.6.1	win	2022-12-19	14:14:31	14:24:31	598305	631f626c1a2be3cc3d2069d8	871871735	1	practice_z	9	advance_on_keypress_ZEE	2	stimuli_target_squarediamonds.svg	stimuli_distractor_diamondtriangles.svg	2	yes	57	0	1154
6.6.1	win	2022-12-19	14:14:31	14:24:34	601599	631f626c1a2be3cc3d2069d8	871871735	1	practice_z	9	practice_z	3	stimuli_distractor_diamondtriangles.svg	stimuli_distractor_trianglediamonds.svg	14	no	44	0	515
6.6.1	win	2022-12-19	14:14:31	14:24:34	601599	631f626c1a2be3cc3d2069d8	871871735	1	practice_z	9	advance_on_keypress_ZEE	4	stimuli_distractor_diamondtriangles.svg	stimuli_distractor_trianglediamonds.svg	14	no	57	0	666
6.6.1	win	2022-12-19	14:14:31	14:24:37	604225	631f626c1a2be3cc3d2069d8	871871735	1	practice_z	9	practice_z	5	stimuli_distractor_diamondtriangles.svg	stimuli_target_diamondcircles.svg	8	yes	44	1	342
6.6.1	win	2022-12-19	14:14:31	14:24:37	604225	631f626c1a2be3cc3d2069d8	871871735	1	practice_z	9	advance_on_keypress_ZEE	6	stimuli_distractor_diamondtriangles.svg	stimuli_target_diamondcircles.svg	8	yes	57	0	1402
6.6.1	win	2022-12-19	14:14:31	14:24:40	607604	631f626c1a2be3cc3d2069d8	871871735	1	practice_z	9	practice_z	7	stimuli_target_circlediamonds.svg	stimuli_distractor_trianglediamonds.svg	4	yes	44	1	358
6.6.1	win	2022-12-19	14:14:31	14:24:40	607604	631f626c1a2be3cc3d2069d8	871871735	1	practice_z	9	advance_on_keypress_ZEE	8	stimuli_target_circlediamonds.svg	stimuli_distractor_trianglediamonds.svg	4	yes	57	0	742
6.6.1	win	2022-12-19	14:14:31	14:24:43	610260	631f626c1a2be3cc3d2069d8	871871735	1	practice_z	9	practice_z	9	stimuli_distractor_trianglediamonds.svg	stimuli_target_diamondcircles.svg	12	yes	44	1	291
6.6.1	win	2022-12-19	14:14:31	14:24:43	610260	631f626c1a2be3cc3d2069d8	871871735	1	practice_z	9	advance_on_keypress_ZEE	10	stimuli_distractor_trianglediamonds.svg	stimuli_target_diamondcircles.svg	12	yes	57	0	2089
6.6.1	win	2022-12-19	14:14:31	14:24:47	614329	631f626c1a2be3cc3d2069d8	871871735	1	practice_z	9	practice_z	11	stimuli_target_circlediamonds.svg	stimuli_distractor_diamondtriangles.svg	1	yes	44	1	357
6.6.1	win	2022-12-19	14:14:31	14:24:47	614329	631f626c1a2be3cc3d2069d8	871871735	1	practice_z	9	advance_on_keypress_ZEE	12	stimuli_target_circlediamonds.svg	stimuli_distractor_diamondtriangles.svg	1	yes	57	0	458
6.6.1	win	2022-12-19	14:14:31	14:24:49	616807	631f626c1a2be3cc3d2069d8	871871735	1	practice_z	9	practice_z	13	stimuli_distractor_trianglediamonds.svg	stimuli_target_circlediamonds.svg	10	yes	44	1	393
6.6.1	win	2022-12-19	14:14:31	14:24:49	616807	631f626c1a2be3cc3d2069d8	871871735	1	practice_z	9	advance_on_keypress_ZEE	14	stimuli_distractor_trianglediamonds.svg	stimuli_target_circlediamonds.svg	10	yes	57	0	448
6.6.1	win	2022-12-19	14:14:31	14:24:52	619323	631f626c1a2be3cc3d2069d8	871871735	1	practice_z	9	practice_z	15	stimuli_target_diamondsquares.svg	stimuli_distractor_trianglediamonds.svg	6	yes	44	1	445
6.6.1	win	2022-12-19	14:14:31	14:24:52	619323	631f626c1a2be3cc3d2069d8	871871735	1	practice_z	9	advance_on_keypress_ZEE	16	stimuli_target_diamondsquares.svg	stimuli_distractor_trianglediamonds.svg	6	yes	57	0	516
6.6.1	win	2022-12-19	14:14:31	14:24:55	622026	631f626c1a2be3cc3d2069d8	871871735	1	practice_z	9	practice_z	17	stimuli_distractor_trianglediamonds.svg	stimuli_target_squarediamonds.svg	11	yes	44	1	565
6.6.1	win	2022-12-19	14:14:31	14:24:55	622026	631f626c1a2be3cc3d2069d8	871871735	1	practice_z	9	advance_on_keypress_ZEE	18	stimuli_distractor_trianglediamonds.svg	stimuli_target_squarediamonds.svg	11	yes	57	0	675
6.6.1	win	2022-12-19	14:14:31	14:24:57	624701	631f626c1a2be3cc3d2069d8	871871735	1	practice_z	9	practice_z	19	stimuli_distractor_diamondtriangles.svg	stimuli_target_circletriangles.svg	7	yes	44	1	353
6.6.1	win	2022-12-19	14:14:31	14:24:57	624701	631f626c1a2be3cc3d2069d8	871871735	1	practice_z	9	advance_on_keypress_ZEE	20	stimuli_distractor_diamondtriangles.svg	stimuli_target_circletriangles.svg	7	yes	57	0	173
6.6.1	win	2022-12-19	14:14:31	14:25:00	626969	631f626c1a2be3cc3d2069d8	871871735	1	practice_z	9	practice_z	21	stimuli_distractor_diamondtriangles.svg	stimuli_target_trianglecircles.svg	9	yes	44	1	474
6.6.1	win	2022-12-19	14:14:31	14:25:00	626969	631f626c1a2be3cc3d2069d8	871871735	1	practice_z	9	advance_on_keypress_ZEE	22	stimuli_distractor_diamondtriangles.svg	stimuli_target_trianglecircles.svg	9	yes	57	0	639
6.6.1	win	2022-12-19	14:14:31	14:25:02	629577	631f626c1a2be3cc3d2069d8	871871735	1	practice_z	9	practice_z	23	stimuli_distractor_diamondtriangles.svg	stimuli_distractor_diamondtriangles.svg	13	no	44	0	348
6.6.1	win	2022-12-19	14:14:31	14:25:02	629577	631f626c1a2be3cc3d2069d8	871871735	1	practice_z	9	advance_on_keypress_ZEE	24	stimuli_distractor_diamondtriangles.svg	stimuli_distractor_diamondtriangles.svg	13	no	57	0	572
6.6.1	win	2022-12-19	14:14:31	14:25:05	632133	631f626c1a2be3cc3d2069d8	871871735	1	practice_z	9	practice_z	25	stimuli_target_diamondsquares.svg	stimuli_distractor_diamondtriangles.svg	3	yes	44	1	367
6.6.1	win	2022-12-19	14:14:31	14:25:05	632133	631f626c1a2be3cc3d2069d8	871871735	1	practice_z	9	advance_on_keypress_ZEE	26	stimuli_target_diamondsquares.svg	stimuli_distractor_diamondtriangles.svg	3	yes	57	0	687
6.6.1	win	2022-12-19	14:14:31	14:25:07	634763	631f626c1a2be3cc3d2069d8	871871735	1	practice_z	9	practice_z	27	stimuli_target_squarediamonds.svg	stimuli_distractor_trianglediamonds.svg	5	yes	44	1	318
6.6.1	win	2022-12-19	14:14:31	14:25:07	634763	631f626c1a2be3cc3d2069d8	871871735	1	practice_z	9	advance_on_keypress_ZEE	28	stimuli_target_squarediamonds.svg	stimuli_distractor_trianglediamonds.svg	5	yes	57	0	154
6.6.1	win	2022-12-19	14:14:31	14:25:09	636955	631f626c1a2be3cc3d2069d8	871871735	1	practice_z	9	practice_z	29	stimuli_distractor_trianglediamonds.svg	stimuli_distractor_diamondtriangles.svg	16	no	44	0	419
6.6.1	win	2022-12-19	14:14:31	14:25:09	636955	631f626c1a2be3cc3d2069d8	871871735	1	practice_z	9	advance_on_keypress_ZEE	30	stimuli_distractor_trianglediamonds.svg	stimuli_distractor_diamondtriangles.svg	16	no	57	0	521
6.6.1	win	2022-12-19	14:14:31	14:25:13	640093	631f626c1a2be3cc3d2069d8	871871735	1	practice_z	9	practice_z	31	stimuli_distractor_trianglediamonds.svg	stimuli_distractor_trianglediamonds.svg	15	no	44	0	972
6.6.1	win	2022-12-19	14:14:31	14:25:13	640093	631f626c1a2be3cc3d2069d8	871871735	1	practice_z	9	advance_on_keypress_ZEE	32	stimuli_distractor_trianglediamonds.svg	stimuli_distractor_trianglediamonds.svg	15	no	57	0	525
6.6.1	win	2022-12-19	14:14:31	14:25:17	644410	631f626c1a2be3cc3d2069d8	871871735	1	main_z	11	main_z	1	stimuli_target_squaretriangles.svg	stimuli_distractor_diamondtriangles.svg	7	yes	44	1	513
6.6.1	win	2022-12-19	14:14:31	14:25:17	644410	631f626c1a2be3cc3d2069d8	871871735	1	main_z	11	advance_on_keypress_ZEE	2	stimuli_target_squaretriangles.svg	stimuli_distractor_diamondtriangles.svg	7	yes	57	0	1237
6.6.1	win	2022-12-19	14:14:31	14:25:19	646617	631f626c1a2be3cc3d2069d8	871871735	1	main_z	11	main_z	3	stimuli_target_trianglecircles.svg	stimuli_distractor_diamondtriangles.svg	21	yes	44	1	353
6.6.1	win	2022-12-19	14:14:31	14:25:19	646617	631f626c1a2be3cc3d2069d8	871871735	1	main_z	11	advance_on_keypress_ZEE	4	stimuli_target_trianglecircles.svg	stimuli_distractor_diamondtriangles.svg	21	yes	57	0	311
6.6.1	win	2022-12-19	14:14:31	14:25:20	647907	631f626c1a2be3cc3d2069d8	871871735	1	main_z	11	main_z	5	stimuli_target_squarediamonds.svg	stimuli_distractor_trianglediamonds.svg	4	yes	44	1	357
6.6.1	win	2022-12-19	14:14:31	14:25:20	647907	631f626c1a2be3cc3d2069d8	871871735	1	main_z	11	advance_on_keypress_ZEE	6	stimuli_target_squarediamonds.svg	stimuli_distractor_trianglediamonds.svg	4	yes	57	0	379
6.6.1	win	2022-12-19	14:14:31	14:25:22	649225	631f626c1a2be3cc3d2069d8	871871735	1	main_z	11	main_z	7	stimuli_target_squarediamonds.svg	stimuli_distractor_diamondtriangles.svg	8	yes	44	1	318
6.6.1	win	2022-12-19	14:14:31	14:25:22	649225	631f626c1a2be3cc3d2069d8	871871735	1	main_z	11	advance_on_keypress_ZEE	8	stimuli_target_squarediamonds.svg	stimuli_distractor_diamondtriangles.svg	8	yes	57	0	334
6.6.1	win	2022-12-19	14:14:31	14:25:24	651376	631f626c1a2be3cc3d2069d8	871871735	1	main_z	11	main_z	9	stimuli_distractor_trianglediamonds.svg	stimuli_target_diamondsquares.svg	28	yes	44	1	1197
6.6.1	win	2022-12-19	14:14:31	14:25:24	651376	631f626c1a2be3cc3d2069d8	871871735	1	main_z	11	advance_on_keypress_ZEE	10	stimuli_distractor_trianglediamonds.svg	stimuli_target_diamondsquares.svg	28	yes	57	0	851
6.6.1	win	2022-12-19	14:14:31	14:25:26	653191	631f626c1a2be3cc3d2069d8	871871735	1	main_z	11	main_z	11	stimuli_distractor_trianglediamonds.svg	stimuli_distractor_diamondtriangles.svg	36	no	44	0	347
6.6.1	win	2022-12-19	14:14:31	14:25:26	653191	631f626c1a2be3cc3d2069d8	871871735	1	main_z	11	advance_on_keypress_ZEE	12	stimuli_distractor_trianglediamonds.svg	stimuli_distractor_diamondtriangles.svg	36	no	57	0	426
6.6.1	win	2022-12-19	14:14:31	14:25:28	655129	631f626c1a2be3cc3d2069d8	871871735	1	main_z	11	main_z	13	stimuli_distractor_diamondtriangles.svg	stimuli_distractor_diamondtriangles.svg	40	no	44	0	896
6.6.1	win	2022-12-19	14:14:31	14:25:28	655129	631f626c1a2be3cc3d2069d8	871871735	1	main_z	11	advance_on_keypress_ZEE	14	stimuli_distractor_diamondtriangles.svg	stimuli_distractor_diamondtriangles.svg	40	no	57	0	461
6.6.1	win	2022-12-19	14:14:31	14:25:29	656847	631f626c1a2be3cc3d2069d8	871871735	1	main_z	11	main_z	15	stimuli_target_diamondsquares.svg	stimuli_distractor_trianglediamonds.svg	20	yes	44	1	634
6.6.1	win	2022-12-19	14:14:31	14:25:29	656847	631f626c1a2be3cc3d2069d8	871871735	1	main_z	11	advance_on_keypress_ZEE	16	stimuli_target_diamondsquares.svg	stimuli_distractor_trianglediamonds.svg	20	yes	57	0	393
6.6.1	win	2022-12-19	14:14:31	14:25:31	658302	631f626c1a2be3cc3d2069d8	871871735	1	main_z	11	main_z	17	stimuli_distractor_diamondtriangles.svg	stimuli_distractor_trianglediamonds.svg	37	no	44	0	441
6.6.1	win	2022-12-19	14:14:31	14:25:31	658302	631f626c1a2be3cc3d2069d8	871871735	1	main_z	11	advance_on_keypress_ZEE	18	stimuli_distractor_diamondtriangles.svg	stimuli_distractor_trianglediamonds.svg	37	no	57	0	408
6.6.1	win	2022-12-19	14:14:31	14:25:32	659951	631f626c1a2be3cc3d2069d8	871871735	1	main_z	11	main_z	19	stimuli_target_trianglecircles.svg	stimuli_distractor_trianglediamonds.svg	17	yes	44	1	619
6.6.1	win	2022-12-19	14:14:31	14:25:32	659951	631f626c1a2be3cc3d2069d8	871871735	1	main_z	11	advance_on_keypress_ZEE	20	stimuli_target_trianglecircles.svg	stimuli_distractor_trianglediamonds.svg	17	yes	57	0	348
6.6.1	win	2022-12-19	14:14:31	14:25:34	661270	631f626c1a2be3cc3d2069d8	871871735	1	main_z	11	main_z	21	stimuli_target_diamondsquares.svg	stimuli_distractor_diamondtriangles.svg	24	yes	44	1	357
6.6.1	win	2022-12-19	14:14:31	14:25:34	661270	631f626c1a2be3cc3d2069d8	871871735	1	main_z	11	advance_on_keypress_ZEE	22	stimuli_target_diamondsquares.svg	stimuli_distractor_diamondtriangles.svg	24	yes	57	0	296
6.6.1	win	2022-12-19	14:14:31	14:25:35	662525	631f626c1a2be3cc3d2069d8	871871735	1	main_z	11	main_z	23	stimuli_distractor_diamondtriangles.svg	stimuli_target_diamondcircles.svg	31	yes	44	1	338
6.6.1	win	2022-12-19	14:14:31	14:25:35	662525	631f626c1a2be3cc3d2069d8	871871735	1	main_z	11	advance_on_keypress_ZEE	24	stimuli_distractor_diamondtriangles.svg	stimuli_target_diamondcircles.svg	31	yes	57	0	306
6.6.1	win	2022-12-19	14:14:31	14:25:36	663727	631f626c1a2be3cc3d2069d8	871871735	1	main_z	11	main_z	25	stimuli_distractor_trianglediamonds.svg	stimuli_distractor_diamondtriangles.svg	35	no	44	0	275
6.6.1	win	2022-12-19	14:14:31	14:25:36	663727	631f626c1a2be3cc3d2069d8	871871735	1	main_z	11	advance_on_keypress_ZEE	26	stimuli_distractor_trianglediamonds.svg	stimuli_distractor_diamondtriangles.svg	35	no	57	0	363
6.6.1	win	2022-12-19	14:14:31	14:25:38	665495	631f626c1a2be3cc3d2069d8	871871735	1	main_z	11	main_z	27	stimuli_distractor_trianglediamonds.svg	stimuli_target_squaretriangles.svg	11	yes	44	1	784
6.6.1	win	2022-12-19	14:14:31	14:25:38	665495	631f626c1a2be3cc3d2069d8	871871735	1	main_z	11	advance_on_keypress_ZEE	28	stimuli_distractor_trianglediamonds.svg	stimuli_target_squaretriangles.svg	11	yes	57	0	2198
6.6.1	win	2022-12-19	14:14:31	14:25:41	668788	631f626c1a2be3cc3d2069d8	871871735	1	main_z	11	main_z	29	stimuli_distractor_diamondtriangles.svg	stimuli_target_squaretriangles.svg	15	yes	44	1	478
6.6.1	win	2022-12-19	14:14:31	14:25:41	668788	631f626c1a2be3cc3d2069d8	871871735	1	main_z	11	advance_on_keypress_ZEE	30	stimuli_distractor_diamondtriangles.svg	stimuli_target_squaretriangles.svg	15	yes	57	0	293
6.6.1	win	2022-12-19	14:14:31	14:25:43	670099	631f626c1a2be3cc3d2069d8	871871735	1	main_z	11	main_z	31	stimuli_distractor_trianglediamonds.svg	stimuli_target_circletriangles.svg	9	yes	44	1	391
6.6.1	win	2022-12-19	14:14:31	14:25:43	670099	631f626c1a2be3cc3d2069d8	871871735	1	main_z	11	advance_on_keypress_ZEE	32	stimuli_distractor_trianglediamonds.svg	stimuli_target_circletriangles.svg	9	yes	57	0	279
6.6.1	win	2022-12-19	14:14:31	14:25:44	671524	631f626c1a2be3cc3d2069d8	871871735	1	main_z	11	main_z	33	stimuli_target_trianglesquares.svg	stimuli_distractor_diamondtriangles.svg	22	yes	44	1	519
6.6.1	win	2022-12-19	14:14:31	14:25:44	671524	631f626c1a2be3cc3d2069d8	871871735	1	main_z	11	advance_on_keypress_ZEE	34	stimuli_target_trianglesquares.svg	stimuli_distractor_diamondtriangles.svg	22	yes	57	0	279
6.6.1	win	2022-12-19	14:14:31	14:25:45	672786	631f626c1a2be3cc3d2069d8	871871735	1	main_z	11	main_z	35	stimuli_target_circletriangles.svg	stimuli_distractor_diamondtriangles.svg	5	yes	44	1	369
6.6.1	win	2022-12-19	14:14:31	14:25:45	672786	631f626c1a2be3cc3d2069d8	871871735	1	main_z	11	advance_on_keypress_ZEE	36	stimuli_target_circletriangles.svg	stimuli_distractor_diamondtriangles.svg	5	yes	57	0	277
6.6.1	win	2022-12-19	14:14:31	14:25:47	674023	631f626c1a2be3cc3d2069d8	871871735	1	main_z	11	main_z	37	stimuli_distractor_trianglediamonds.svg	stimuli_target_trianglecircles.svg	25	yes	44	1	337
6.6.1	win	2022-12-19	14:14:31	14:25:47	674023	631f626c1a2be3cc3d2069d8	871871735	1	main_z	11	advance_on_keypress_ZEE	38	stimuli_distractor_trianglediamonds.svg	stimuli_target_trianglecircles.svg	25	yes	57	0	329
6.6.1	win	2022-12-19	14:14:31	14:25:48	675367	631f626c1a2be3cc3d2069d8	871871735	1	main_z	11	main_z	39	stimuli_target_squaretriangles.svg	stimuli_distractor_trianglediamonds.svg	3	yes	44	1	396
6.6.1	win	2022-12-19	14:14:31	14:25:48	675367	631f626c1a2be3cc3d2069d8	871871735	1	main_z	11	advance_on_keypress_ZEE	40	stimuli_target_squaretriangles.svg	stimuli_distractor_trianglediamonds.svg	3	yes	57	0	282
6.6.1	win	2022-12-19	14:14:31	14:25:49	676924	631f626c1a2be3cc3d2069d8	871871735	1	main_z	11	main_z	41	stimuli_distractor_diamondtriangles.svg	stimuli_target_diamondsquares.svg	32	yes	44	1	657
6.6.1	win	2022-12-19	14:14:31	14:25:49	676924	631f626c1a2be3cc3d2069d8	871871735	1	main_z	11	advance_on_keypress_ZEE	42	stimuli_distractor_diamondtriangles.svg	stimuli_target_diamondsquares.svg	32	yes	57	0	2108
6.6.1	win	2022-12-19	14:14:31	14:25:53	680064	631f626c1a2be3cc3d2069d8	871871735	1	main_z	11	main_z	43	stimuli_target_trianglesquares.svg	stimuli_distractor_trianglediamonds.svg	18	yes	44	1	415
6.6.1	win	2022-12-19	14:14:31	14:25:53	680064	631f626c1a2be3cc3d2069d8	871871735	1	main_z	11	advance_on_keypress_ZEE	44	stimuli_target_trianglesquares.svg	stimuli_distractor_trianglediamonds.svg	18	yes	57	0	302
6.6.1	win	2022-12-19	14:14:31	14:25:54	681270	631f626c1a2be3cc3d2069d8	871871735	1	main_z	11	main_z	45	stimuli_distractor_diamondtriangles.svg	stimuli_target_trianglecircles.svg	29	yes	44	1	288
6.6.1	win	2022-12-19	14:14:31	14:25:54	681270	631f626c1a2be3cc3d2069d8	871871735	1	main_z	11	advance_on_keypress_ZEE	46	stimuli_distractor_diamondtriangles.svg	stimuli_target_trianglecircles.svg	29	yes	57	0	320
6.6.1	win	2022-12-19	14:14:31	14:25:55	682501	631f626c1a2be3cc3d2069d8	871871735	1	main_z	11	main_z	47	stimuli_distractor_diamondtriangles.svg	stimuli_target_circletriangles.svg	13	yes	44	1	293
6.6.1	win	2022-12-19	14:14:31	14:25:55	682501	631f626c1a2be3cc3d2069d8	871871735	1	main_z	11	advance_on_keypress_ZEE	48	stimuli_distractor_diamondtriangles.svg	stimuli_target_circletriangles.svg	13	yes	57	0	345
6.6.1	win	2022-12-19	14:14:31	14:25:56	683748	631f626c1a2be3cc3d2069d8	871871735	1	main_z	11	main_z	49	stimuli_target_diamondcircles.svg	stimuli_distractor_trianglediamonds.svg	19	yes	44	1	284
6.6.1	win	2022-12-19	14:14:31	14:25:56	683748	631f626c1a2be3cc3d2069d8	871871735	1	main_z	11	advance_on_keypress_ZEE	50	stimuli_target_diamondcircles.svg	stimuli_distractor_trianglediamonds.svg	19	yes	57	0	332
6.6.1	win	2022-12-19	14:14:31	14:25:58	684972	631f626c1a2be3cc3d2069d8	871871735	1	main_z	11	main_z	51	stimuli_distractor_diamondtriangles.svg	stimuli_target_circlediamonds.svg	14	yes	44	1	274
6.6.1	win	2022-12-19	14:14:31	14:25:58	684972	631f626c1a2be3cc3d2069d8	871871735	1	main_z	11	advance_on_keypress_ZEE	52	stimuli_distractor_diamondtriangles.svg	stimuli_target_circlediamonds.svg	14	yes	57	0	348
6.6.1	win	2022-12-19	14:14:31	14:25:59	686300	631f626c1a2be3cc3d2069d8	871871735	1	main_z	11	main_z	53	stimuli_target_circlediamonds.svg	stimuli_distractor_diamondtriangles.svg	6	yes	44	1	359
6.6.1	win	2022-12-19	14:14:31	14:25:59	686300	631f626c1a2be3cc3d2069d8	871871735	1	main_z	11	advance_on_keypress_ZEE	54	stimuli_target_circlediamonds.svg	stimuli_distractor_diamondtriangles.svg	6	yes	57	0	340
6.6.1	win	2022-12-19	14:14:31	14:26:00	687669	631f626c1a2be3cc3d2069d8	871871735	1	main_z	11	main_z	55	stimuli_distractor_trianglediamonds.svg	stimuli_distractor_trianglediamonds.svg	34	no	44	0	413
6.6.1	win	2022-12-19	14:14:31	14:26:00	687669	631f626c1a2be3cc3d2069d8	871871735	1	main_z	11	advance_on_keypress_ZEE	56	stimuli_distractor_trianglediamonds.svg	stimuli_distractor_trianglediamonds.svg	34	no	57	0	390
6.6.1	win	2022-12-19	14:14:31	14:26:02	689028	631f626c1a2be3cc3d2069d8	871871735	1	main_z	11	main_z	57	stimuli_distractor_trianglediamonds.svg	stimuli_target_diamondcircles.svg	27	yes	44	1	352
6.6.1	win	2022-12-19	14:14:31	14:26:02	689028	631f626c1a2be3cc3d2069d8	871871735	1	main_z	11	advance_on_keypress_ZEE	58	stimuli_distractor_trianglediamonds.svg	stimuli_target_diamondcircles.svg	27	yes	57	0	311
6.6.1	win	2022-12-19	14:14:31	14:26:03	690246	631f626c1a2be3cc3d2069d8	871871735	1	main_z	11	main_z	59	stimuli_distractor_diamondtriangles.svg	stimuli_distractor_diamondtriangles.svg	39	no	44	0	285
6.6.1	win	2022-12-19	14:14:31	14:26:03	690246	631f626c1a2be3cc3d2069d8	871871735	1	main_z	11	advance_on_keypress_ZEE	60	stimuli_distractor_diamondtriangles.svg	stimuli_distractor_diamondtriangles.svg	39	no	57	0	886
6.6.1	win	2022-12-19	14:14:31	14:26:06	693756	631f626c1a2be3cc3d2069d8	871871735	1	main_z	11	main_z	61	stimuli_distractor_trianglediamonds.svg	stimuli_distractor_trianglediamonds.svg	33	no	0	1	2000
6.6.1	win	2022-12-19	14:14:31	14:26:06	693756	631f626c1a2be3cc3d2069d8	871871735	1	main_z	11	advance_on_keypress_ZEE	62	stimuli_distractor_trianglediamonds.svg	stimuli_distractor_trianglediamonds.svg	33	no	57	0	921
6.6.1	win	2022-12-19	14:14:31	14:26:08	695631	631f626c1a2be3cc3d2069d8	871871735	1	main_z	11	main_z	63	stimuli_target_diamondcircles.svg	stimuli_distractor_diamondtriangles.svg	23	yes	44	1	334
6.6.1	win	2022-12-19	14:14:31	14:26:08	695631	631f626c1a2be3cc3d2069d8	871871735	1	main_z	11	advance_on_keypress_ZEE	64	stimuli_target_diamondcircles.svg	stimuli_distractor_diamondtriangles.svg	23	yes	57	0	364
6.6.1	win	2022-12-19	14:14:31	14:26:10	697037	631f626c1a2be3cc3d2069d8	871871735	1	main_z	11	main_z	65	stimuli_distractor_trianglediamonds.svg	stimuli_target_circlediamonds.svg	10	yes	44	1	418
6.6.1	win	2022-12-19	14:14:31	14:26:10	697037	631f626c1a2be3cc3d2069d8	871871735	1	main_z	11	advance_on_keypress_ZEE	66	stimuli_distractor_trianglediamonds.svg	stimuli_target_circlediamonds.svg	10	yes	57	0	298
6.6.1	win	2022-12-19	14:14:31	14:26:11	698263	631f626c1a2be3cc3d2069d8	871871735	1	main_z	11	main_z	67	stimuli_distractor_diamondtriangles.svg	stimuli_target_trianglesquares.svg	30	yes	44	1	316
6.6.1	win	2022-12-19	14:14:31	14:26:11	698263	631f626c1a2be3cc3d2069d8	871871735	1	main_z	11	advance_on_keypress_ZEE	68	stimuli_distractor_diamondtriangles.svg	stimuli_target_trianglesquares.svg	30	yes	57	0	347
6.6.1	win	2022-12-19	14:14:31	14:26:12	699512	631f626c1a2be3cc3d2069d8	871871735	1	main_z	11	main_z	69	stimuli_distractor_trianglediamonds.svg	stimuli_target_trianglesquares.svg	26	yes	44	1	286
6.6.1	win	2022-12-19	14:14:31	14:26:12	699512	631f626c1a2be3cc3d2069d8	871871735	1	main_z	11	advance_on_keypress_ZEE	70	stimuli_distractor_trianglediamonds.svg	stimuli_target_trianglesquares.svg	26	yes	57	0	360
6.6.1	win	2022-12-19	14:14:31	14:26:15	702492	631f626c1a2be3cc3d2069d8	871871735	1	main_z	11	main_z	71	stimuli_distractor_diamondtriangles.svg	stimuli_distractor_trianglediamonds.svg	38	no	0	1	2000
6.6.1	win	2022-12-19	14:14:31	14:26:15	702492	631f626c1a2be3cc3d2069d8	871871735	1	main_z	11	advance_on_keypress_ZEE	72	stimuli_distractor_diamondtriangles.svg	stimuli_distractor_trianglediamonds.svg	38	no	57	0	517
6.6.1	win	2022-12-19	14:14:31	14:26:16	703957	631f626c1a2be3cc3d2069d8	871871735	1	main_z	11	main_z	73	stimuli_target_circletriangles.svg	stimuli_distractor_trianglediamonds.svg	1	yes	44	1	327
6.6.1	win	2022-12-19	14:14:31	14:26:16	703957	631f626c1a2be3cc3d2069d8	871871735	1	main_z	11	advance_on_keypress_ZEE	74	stimuli_target_circletriangles.svg	stimuli_distractor_trianglediamonds.svg	1	yes	57	0	286
6.6.1	win	2022-12-19	14:14:31	14:26:18	705165	631f626c1a2be3cc3d2069d8	871871735	1	main_z	11	main_z	75	stimuli_distractor_trianglediamonds.svg	stimuli_target_squarediamonds.svg	12	yes	44	1	298
6.6.1	win	2022-12-19	14:14:31	14:26:18	705165	631f626c1a2be3cc3d2069d8	871871735	1	main_z	11	advance_on_keypress_ZEE	76	stimuli_distractor_trianglediamonds.svg	stimuli_target_squarediamonds.svg	12	yes	57	0	301
6.6.1	win	2022-12-19	14:14:31	14:26:19	706495	631f626c1a2be3cc3d2069d8	871871735	1	main_z	11	main_z	77	stimuli_target_circlediamonds.svg	stimuli_distractor_trianglediamonds.svg	2	yes	44	1	407
6.6.1	win	2022-12-19	14:14:31	14:26:19	706495	631f626c1a2be3cc3d2069d8	871871735	1	main_z	11	advance_on_keypress_ZEE	78	stimuli_target_circlediamonds.svg	stimuli_distractor_trianglediamonds.svg	2	yes	57	0	361
6.6.1	win	2022-12-19	14:14:31	14:26:20	707803	631f626c1a2be3cc3d2069d8	871871735	1	main_z	11	main_z	79	stimuli_distractor_diamondtriangles.svg	stimuli_target_squarediamonds.svg	16	yes	44	1	326
6.6.1	win	2022-12-19	14:14:31	14:26:20	707803	631f626c1a2be3cc3d2069d8	871871735	1	main_z	11	advance_on_keypress_ZEE	80	stimuli_distractor_diamondtriangles.svg	stimuli_target_squarediamonds.svg	16	yes	57	0	320
6.6.1	win	2022-12-19	14:14:31	14:26:22	709566	631f626c1a2be3cc3d2069d8	871871735	1	main_z	11	main_z	81	stimuli_distractor_trianglediamonds.svg	stimuli_distractor_diamondtriangles.svg	35	no	44	0	826
6.6.1	win	2022-12-19	14:14:31	14:26:22	709566	631f626c1a2be3cc3d2069d8	871871735	1	main_z	11	advance_on_keypress_ZEE	82	stimuli_distractor_trianglediamonds.svg	stimuli_distractor_diamondtriangles.svg	35	no	57	0	406
6.6.1	win	2022-12-19	14:14:31	14:26:24	711371	631f626c1a2be3cc3d2069d8	871871735	1	main_z	11	main_z	83	stimuli_target_squaretriangles.svg	stimuli_distractor_diamondtriangles.svg	7	yes	44	1	776
6.6.1	win	2022-12-19	14:14:31	14:26:24	711371	631f626c1a2be3cc3d2069d8	871871735	1	main_z	11	advance_on_keypress_ZEE	84	stimuli_target_squaretriangles.svg	stimuli_distractor_diamondtriangles.svg	7	yes	57	0	443
6.6.1	win	2022-12-19	14:14:31	14:26:25	712852	631f626c1a2be3cc3d2069d8	871871735	1	main_z	11	main_z	85	stimuli_distractor_trianglediamonds.svg	stimuli_target_diamondcircles.svg	27	yes	44	1	417
6.6.1	win	2022-12-19	14:14:31	14:26:25	712852	631f626c1a2be3cc3d2069d8	871871735	1	main_z	11	advance_on_keypress_ZEE	86	stimuli_distractor_trianglediamonds.svg	stimuli_target_diamondcircles.svg	27	yes	57	0	304
6.6.1	win	2022-12-19	14:14:31	14:26:27	714089	631f626c1a2be3cc3d2069d8	871871735	1	main_z	11	main_z	87	stimuli_target_diamondcircles.svg	stimuli_distractor_diamondtriangles.svg	23	yes	44	1	313
6.6.1	win	2022-12-19	14:14:31	14:26:27	714089	631f626c1a2be3cc3d2069d8	871871735	1	main_z	11	advance_on_keypress_ZEE	88	stimuli_target_diamondcircles.svg	stimuli_distractor_diamondtriangles.svg	23	yes	57	0	309
6.6.1	win	2022-12-19	14:14:31	14:26:28	715345	631f626c1a2be3cc3d2069d8	871871735	1	main_z	11	main_z	89	stimuli_target_trianglesquares.svg	stimuli_distractor_diamondtriangles.svg	22	yes	44	1	328
6.6.1	win	2022-12-19	14:14:31	14:26:28	715345	631f626c1a2be3cc3d2069d8	871871735	1	main_z	11	advance_on_keypress_ZEE	90	stimuli_target_trianglesquares.svg	stimuli_distractor_diamondtriangles.svg	22	yes	57	0	383
6.6.1	win	2022-12-19	14:14:31	14:26:29	716660	631f626c1a2be3cc3d2069d8	871871735	1	main_z	11	main_z	91	stimuli_target_trianglesquares.svg	stimuli_distractor_trianglediamonds.svg	18	yes	44	1	310
6.6.1	win	2022-12-19	14:14:31	14:26:29	716660	631f626c1a2be3cc3d2069d8	871871735	1	main_z	11	advance_on_keypress_ZEE	92	stimuli_target_trianglesquares.svg	stimuli_distractor_trianglediamonds.svg	18	yes	57	0	388
6.6.1	win	2022-12-19	14:14:31	14:26:31	718842	631f626c1a2be3cc3d2069d8	871871735	1	main_z	11	main_z	93	stimuli_distractor_trianglediamonds.svg	stimuli_distractor_trianglediamonds.svg	34	no	44	0	1176
6.6.1	win	2022-12-19	14:14:31	14:26:31	718842	631f626c1a2be3cc3d2069d8	871871735	1	main_z	11	advance_on_keypress_ZEE	94	stimuli_distractor_trianglediamonds.svg	stimuli_distractor_trianglediamonds.svg	34	no	57	0	631
6.6.1	win	2022-12-19	14:14:31	14:26:33	720562	631f626c1a2be3cc3d2069d8	871871735	1	main_z	11	main_z	95	stimuli_distractor_diamondtriangles.svg	stimuli_distractor_diamondtriangles.svg	39	no	44	0	464
6.6.1	win	2022-12-19	14:14:31	14:26:33	720562	631f626c1a2be3cc3d2069d8	871871735	1	main_z	11	advance_on_keypress_ZEE	96	stimuli_distractor_diamondtriangles.svg	stimuli_distractor_diamondtriangles.svg	39	no	57	0	465
6.6.1	win	2022-12-19	14:14:31	14:26:35	722100	631f626c1a2be3cc3d2069d8	871871735	1	main_z	11	main_z	97	stimuli_distractor_diamondtriangles.svg	stimuli_target_trianglesquares.svg	30	yes	44	1	461
6.6.1	win	2022-12-19	14:14:31	14:26:35	722100	631f626c1a2be3cc3d2069d8	871871735	1	main_z	11	advance_on_keypress_ZEE	98	stimuli_distractor_diamondtriangles.svg	stimuli_target_trianglesquares.svg	30	yes	57	0	327
6.6.1	win	2022-12-19	14:14:31	14:26:36	723452	631f626c1a2be3cc3d2069d8	871871735	1	main_z	11	main_z	99	stimuli_target_squarediamonds.svg	stimuli_distractor_trianglediamonds.svg	4	yes	44	1	415
6.6.1	win	2022-12-19	14:14:31	14:26:36	723452	631f626c1a2be3cc3d2069d8	871871735	1	main_z	11	advance_on_keypress_ZEE	100	stimuli_target_squarediamonds.svg	stimuli_distractor_trianglediamonds.svg	4	yes	57	0	294
6.6.1	win	2022-12-19	14:14:31	14:26:37	724830	631f626c1a2be3cc3d2069d8	871871735	1	main_z	11	main_z	101	stimuli_target_trianglecircles.svg	stimuli_distractor_trianglediamonds.svg	17	yes	44	1	464
6.6.1	win	2022-12-19	14:14:31	14:26:37	724830	631f626c1a2be3cc3d2069d8	871871735	1	main_z	11	advance_on_keypress_ZEE	102	stimuli_target_trianglecircles.svg	stimuli_distractor_trianglediamonds.svg	17	yes	57	0	319
6.6.1	win	2022-12-19	14:14:31	14:26:39	726231	631f626c1a2be3cc3d2069d8	871871735	1	main_z	11	main_z	103	stimuli_distractor_diamondtriangles.svg	stimuli_target_squarediamonds.svg	16	yes	44	1	464
6.6.1	win	2022-12-19	14:14:31	14:26:39	726231	631f626c1a2be3cc3d2069d8	871871735	1	main_z	11	advance_on_keypress_ZEE	104	stimuli_distractor_diamondtriangles.svg	stimuli_target_squarediamonds.svg	16	yes	57	0	283
6.6.1	win	2022-12-19	14:14:31	14:26:40	727574	631f626c1a2be3cc3d2069d8	871871735	1	main_z	11	main_z	105	stimuli_distractor_trianglediamonds.svg	stimuli_target_diamondsquares.svg	28	yes	44	1	436
6.6.1	win	2022-12-19	14:14:31	14:26:40	727574	631f626c1a2be3cc3d2069d8	871871735	1	main_z	11	advance_on_keypress_ZEE	106	stimuli_distractor_trianglediamonds.svg	stimuli_target_diamondsquares.svg	28	yes	57	0	288
6.6.1	win	2022-12-19	14:14:31	14:26:41	728842	631f626c1a2be3cc3d2069d8	871871735	1	main_z	11	main_z	107	stimuli_distractor_trianglediamonds.svg	stimuli_target_squarediamonds.svg	12	yes	44	1	358
6.6.1	win	2022-12-19	14:14:31	14:26:41	728842	631f626c1a2be3cc3d2069d8	871871735	1	main_z	11	advance_on_keypress_ZEE	108	stimuli_distractor_trianglediamonds.svg	stimuli_target_squarediamonds.svg	12	yes	57	0	303
6.6.1	win	2022-12-19	14:14:31	14:26:43	730274	631f626c1a2be3cc3d2069d8	871871735	1	main_z	11	main_z	109	stimuli_target_squaretriangles.svg	stimuli_distractor_trianglediamonds.svg	3	yes	44	1	507
6.6.1	win	2022-12-19	14:14:31	14:26:43	730274	631f626c1a2be3cc3d2069d8	871871735	1	main_z	11	advance_on_keypress_ZEE	110	stimuli_target_squaretriangles.svg	stimuli_distractor_trianglediamonds.svg	3	yes	57	0	317
6.6.1	win	2022-12-19	14:14:31	14:26:44	731471	631f626c1a2be3cc3d2069d8	871871735	1	main_z	11	main_z	111	stimuli_target_trianglecircles.svg	stimuli_distractor_diamondtriangles.svg	21	yes	44	1	262
6.6.1	win	2022-12-19	14:14:31	14:26:44	731471	631f626c1a2be3cc3d2069d8	871871735	1	main_z	11	advance_on_keypress_ZEE	112	stimuli_target_trianglecircles.svg	stimuli_distractor_diamondtriangles.svg	21	yes	57	0	293
6.6.1	win	2022-12-19	14:14:31	14:26:45	732934	631f626c1a2be3cc3d2069d8	871871735	1	main_z	11	main_z	113	stimuli_target_diamondsquares.svg	stimuli_distractor_diamondtriangles.svg	24	yes	44	1	552
6.6.1	win	2022-12-19	14:14:31	14:26:45	732934	631f626c1a2be3cc3d2069d8	871871735	1	main_z	11	advance_on_keypress_ZEE	114	stimuli_target_diamondsquares.svg	stimuli_distractor_diamondtriangles.svg	24	yes	57	0	328
6.6.1	win	2022-12-19	14:14:31	14:26:47	734299	631f626c1a2be3cc3d2069d8	871871735	1	main_z	11	main_z	115	stimuli_target_squarediamonds.svg	stimuli_distractor_diamondtriangles.svg	8	yes	44	1	416
6.6.1	win	2022-12-19	14:14:31	14:26:47	734299	631f626c1a2be3cc3d2069d8	871871735	1	main_z	11	advance_on_keypress_ZEE	116	stimuli_target_squarediamonds.svg	stimuli_distractor_diamondtriangles.svg	8	yes	57	0	481
6.6.1	win	2022-12-19	14:14:31	14:26:50	737401	631f626c1a2be3cc3d2069d8	871871735	1	main_z	11	main_z	117	stimuli_distractor_trianglediamonds.svg	stimuli_distractor_trianglediamonds.svg	33	no	0	1	2000
6.6.1	win	2022-12-19	14:14:31	14:26:50	737401	631f626c1a2be3cc3d2069d8	871871735	1	main_z	11	advance_on_keypress_ZEE	118	stimuli_distractor_trianglediamonds.svg	stimuli_distractor_trianglediamonds.svg	33	no	57	0	648
6.6.1	win	2022-12-19	14:14:31	14:26:52	739146	631f626c1a2be3cc3d2069d8	871871735	1	main_z	11	main_z	119	stimuli_distractor_trianglediamonds.svg	stimuli_target_squaretriangles.svg	11	yes	44	1	480
6.6.1	win	2022-12-19	14:14:31	14:26:52	739146	631f626c1a2be3cc3d2069d8	871871735	1	main_z	11	advance_on_keypress_ZEE	120	stimuli_distractor_trianglediamonds.svg	stimuli_target_squaretriangles.svg	11	yes	57	0	266
6.6.1	win	2022-12-19	14:14:31	14:26:53	740399	631f626c1a2be3cc3d2069d8	871871735	1	main_z	11	main_z	121	stimuli_target_diamondsquares.svg	stimuli_distractor_trianglediamonds.svg	20	yes	44	1	367
6.6.1	win	2022-12-19	14:14:31	14:26:53	740399	631f626c1a2be3cc3d2069d8	871871735	1	main_z	11	advance_on_keypress_ZEE	122	stimuli_target_diamondsquares.svg	stimuli_distractor_trianglediamonds.svg	20	yes	57	0	317
6.6.1	win	2022-12-19	14:14:31	14:26:54	741756	631f626c1a2be3cc3d2069d8	871871735	1	main_z	11	main_z	123	stimuli_distractor_trianglediamonds.svg	stimuli_target_trianglesquares.svg	26	yes	44	1	422
6.6.1	win	2022-12-19	14:14:31	14:26:54	741756	631f626c1a2be3cc3d2069d8	871871735	1	main_z	11	advance_on_keypress_ZEE	124	stimuli_distractor_trianglediamonds.svg	stimuli_target_trianglesquares.svg	26	yes	57	0	310
6.6.1	win	2022-12-19	14:14:31	14:26:56	743034	631f626c1a2be3cc3d2069d8	871871735	1	main_z	11	main_z	125	stimuli_target_circlediamonds.svg	stimuli_distractor_trianglediamonds.svg	2	yes	44	1	353
6.6.1	win	2022-12-19	14:14:31	14:26:56	743034	631f626c1a2be3cc3d2069d8	871871735	1	main_z	11	advance_on_keypress_ZEE	126	stimuli_target_circlediamonds.svg	stimuli_distractor_trianglediamonds.svg	2	yes	57	0	327
6.6.1	win	2022-12-19	14:14:31	14:26:57	744314	631f626c1a2be3cc3d2069d8	871871735	1	main_z	11	main_z	127	stimuli_target_circletriangles.svg	stimuli_distractor_diamondtriangles.svg	5	yes	44	1	331
6.6.1	win	2022-12-19	14:14:31	14:26:57	744314	631f626c1a2be3cc3d2069d8	871871735	1	main_z	11	advance_on_keypress_ZEE	128	stimuli_target_circletriangles.svg	stimuli_distractor_diamondtriangles.svg	5	yes	57	0	324
6.6.1	win	2022-12-19	14:14:31	14:26:58	745666	631f626c1a2be3cc3d2069d8	871871735	1	main_z	11	main_z	129	stimuli_distractor_diamondtriangles.svg	stimuli_distractor_trianglediamonds.svg	38	no	44	0	406
6.6.1	win	2022-12-19	14:14:31	14:26:58	745666	631f626c1a2be3cc3d2069d8	871871735	1	main_z	11	advance_on_keypress_ZEE	130	stimuli_distractor_diamondtriangles.svg	stimuli_distractor_trianglediamonds.svg	38	no	57	0	346
6.6.1	win	2022-12-19	14:14:31	14:27:00	747047	631f626c1a2be3cc3d2069d8	871871735	1	main_z	11	main_z	131	stimuli_target_circlediamonds.svg	stimuli_distractor_diamondtriangles.svg	6	yes	44	1	417
6.6.1	win	2022-12-19	14:14:31	14:27:00	747047	631f626c1a2be3cc3d2069d8	871871735	1	main_z	11	advance_on_keypress_ZEE	132	stimuli_target_circlediamonds.svg	stimuli_distractor_diamondtriangles.svg	6	yes	57	0	320
6.6.1	win	2022-12-19	14:14:31	14:27:01	748459	631f626c1a2be3cc3d2069d8	871871735	1	main_z	11	main_z	133	stimuli_distractor_diamondtriangles.svg	stimuli_target_circlediamonds.svg	14	yes	44	1	477
6.6.1	win	2022-12-19	14:14:31	14:27:01	748459	631f626c1a2be3cc3d2069d8	871871735	1	main_z	11	advance_on_keypress_ZEE	134	stimuli_distractor_diamondtriangles.svg	stimuli_target_circlediamonds.svg	14	yes	57	0	285
6.6.1	win	2022-12-19	14:14:31	14:27:02	749783	631f626c1a2be3cc3d2069d8	871871735	1	main_z	11	main_z	135	stimuli_distractor_diamondtriangles.svg	stimuli_target_diamondcircles.svg	31	yes	44	1	423
6.6.1	win	2022-12-19	14:14:31	14:27:02	749783	631f626c1a2be3cc3d2069d8	871871735	1	main_z	11	advance_on_keypress_ZEE	136	stimuli_distractor_diamondtriangles.svg	stimuli_target_diamondcircles.svg	31	yes	57	0	452
6.6.1	win	2022-12-19	14:14:31	14:27:04	751524	631f626c1a2be3cc3d2069d8	871871735	1	main_z	11	main_z	137	stimuli_distractor_trianglediamonds.svg	stimuli_target_circletriangles.svg	9	yes	44	1	665
6.6.1	win	2022-12-19	14:14:31	14:27:04	751524	631f626c1a2be3cc3d2069d8	871871735	1	main_z	11	advance_on_keypress_ZEE	138	stimuli_distractor_trianglediamonds.svg	stimuli_target_circletriangles.svg	9	yes	57	0	448
6.6.1	win	2022-12-19	14:14:31	14:27:07	754587	631f626c1a2be3cc3d2069d8	871871735	1	main_z	11	main_z	139	stimuli_distractor_trianglediamonds.svg	stimuli_distractor_diamondtriangles.svg	36	no	0	1	2000
6.6.1	win	2022-12-19	14:14:31	14:27:07	754587	631f626c1a2be3cc3d2069d8	871871735	1	main_z	11	advance_on_keypress_ZEE	140	stimuli_distractor_trianglediamonds.svg	stimuli_distractor_diamondtriangles.svg	36	no	57	0	1117
6.6.1	win	2022-12-19	14:14:31	14:27:10	757500	631f626c1a2be3cc3d2069d8	871871735	1	main_z	11	main_z	141	stimuli_distractor_diamondtriangles.svg	stimuli_distractor_trianglediamonds.svg	37	no	44	0	1178
6.6.1	win	2022-12-19	14:14:31	14:27:10	757500	631f626c1a2be3cc3d2069d8	871871735	1	main_z	11	advance_on_keypress_ZEE	142	stimuli_distractor_diamondtriangles.svg	stimuli_distractor_trianglediamonds.svg	37	no	57	0	227
6.6.1	win	2022-12-19	14:14:31	14:27:11	758753	631f626c1a2be3cc3d2069d8	871871735	1	main_z	11	main_z	143	stimuli_distractor_trianglediamonds.svg	stimuli_target_trianglecircles.svg	25	yes	44	1	404
6.6.1	win	2022-12-19	14:14:31	14:27:11	758753	631f626c1a2be3cc3d2069d8	871871735	1	main_z	11	advance_on_keypress_ZEE	144	stimuli_distractor_trianglediamonds.svg	stimuli_target_trianglecircles.svg	25	yes	57	0	268
6.6.1	win	2022-12-19	14:14:31	14:27:13	759988	631f626c1a2be3cc3d2069d8	871871735	1	main_z	11	main_z	145	stimuli_distractor_trianglediamonds.svg	stimuli_target_circlediamonds.svg	10	yes	44	1	349
6.6.1	win	2022-12-19	14:14:31	14:27:13	759988	631f626c1a2be3cc3d2069d8	871871735	1	main_z	11	advance_on_keypress_ZEE	146	stimuli_distractor_trianglediamonds.svg	stimuli_target_circlediamonds.svg	10	yes	57	0	560
6.6.1	win	2022-12-19	14:14:31	14:27:14	761545	631f626c1a2be3cc3d2069d8	871871735	1	main_z	11	main_z	147	stimuli_distractor_diamondtriangles.svg	stimuli_target_trianglecircles.svg	29	yes	44	1	376
6.6.1	win	2022-12-19	14:14:31	14:27:14	761545	631f626c1a2be3cc3d2069d8	871871735	1	main_z	11	advance_on_keypress_ZEE	148	stimuli_distractor_diamondtriangles.svg	stimuli_target_trianglecircles.svg	29	yes	57	0	300
6.6.1	win	2022-12-19	14:14:31	14:27:17	764465	631f626c1a2be3cc3d2069d8	871871735	1	main_z	11	main_z	149	stimuli_distractor_diamondtriangles.svg	stimuli_distractor_diamondtriangles.svg	40	no	0	1	2000
6.6.1	win	2022-12-19	14:14:31	14:27:17	764465	631f626c1a2be3cc3d2069d8	871871735	1	main_z	11	advance_on_keypress_ZEE	150	stimuli_distractor_diamondtriangles.svg	stimuli_distractor_diamondtriangles.svg	40	no	57	0	815
6.6.1	win	2022-12-19	14:14:31	14:27:19	766247	631f626c1a2be3cc3d2069d8	871871735	1	main_z	11	main_z	151	stimuli_distractor_diamondtriangles.svg	stimuli_target_circletriangles.svg	13	yes	44	1	345
6.6.1	win	2022-12-19	14:14:31	14:27:19	766247	631f626c1a2be3cc3d2069d8	871871735	1	main_z	11	advance_on_keypress_ZEE	152	stimuli_distractor_diamondtriangles.svg	stimuli_target_circletriangles.svg	13	yes	57	0	266
6.6.1	win	2022-12-19	14:14:31	14:27:20	767536	631f626c1a2be3cc3d2069d8	871871735	1	main_z	11	main_z	153	stimuli_target_circletriangles.svg	stimuli_distractor_trianglediamonds.svg	1	yes	44	1	403
6.6.1	win	2022-12-19	14:14:31	14:27:20	767536	631f626c1a2be3cc3d2069d8	871871735	1	main_z	11	advance_on_keypress_ZEE	154	stimuli_target_circletriangles.svg	stimuli_distractor_trianglediamonds.svg	1	yes	57	0	317
6.6.1	win	2022-12-19	14:14:31	14:27:21	768708	631f626c1a2be3cc3d2069d8	871871735	1	main_z	11	main_z	155	stimuli_target_diamondcircles.svg	stimuli_distractor_trianglediamonds.svg	19	yes	44	1	243
6.6.1	win	2022-12-19	14:14:31	14:27:21	768708	631f626c1a2be3cc3d2069d8	871871735	1	main_z	11	advance_on_keypress_ZEE	156	stimuli_target_diamondcircles.svg	stimuli_distractor_trianglediamonds.svg	19	yes	57	0	323
6.6.1	win	2022-12-19	14:14:31	14:27:22	769727	631f626c1a2be3cc3d2069d8	871871735	1	main_z	11	main_z	157	stimuli_distractor_diamondtriangles.svg	stimuli_target_squaretriangles.svg	15	yes	44	1	73
6.6.1	win	2022-12-19	14:14:31	14:27:22	769727	631f626c1a2be3cc3d2069d8	871871735	1	main_z	11	advance_on_keypress_ZEE	158	stimuli_distractor_diamondtriangles.svg	stimuli_target_squaretriangles.svg	15	yes	57	0	397
6.6.1	win	2022-12-19	14:14:31	14:27:24	771047	631f626c1a2be3cc3d2069d8	871871735	1	main_z	11	main_z	159	stimuli_distractor_diamondtriangles.svg	stimuli_target_diamondsquares.svg	32	yes	44	1	300
6.6.1	win	2022-12-19	14:14:31	14:27:24	771047	631f626c1a2be3cc3d2069d8	871871735	1	main_z	11	advance_on_keypress_ZEE	160	stimuli_distractor_diamondtriangles.svg	stimuli_target_diamondsquares.svg	32	yes	57	0	449