build	computer.platform	date	time	timestamp	time_elapsed_ms	subject	group	session	blockcode	blocknum	trialcode	trialnum	stimulus_left	stimulus_right	stim_index	target_present	response	correct	latency
6.6.0	win	2022-12-20	12:09:17	12:12:20	182128	5a4c1ecaefd8df0001d34305	780243454	1	practice_z	5	practice_z	1	stimuli_distractor_trianglediamonds.svg	stimuli_distractor_diamondtriangles.svg	16	no	44	0	970
6.6.0	win	2022-12-20	12:09:17	12:12:20	182128	5a4c1ecaefd8df0001d34305	780243454	1	practice_z	5	advance_on_keypress_ZEE	2	stimuli_distractor_trianglediamonds.svg	stimuli_distractor_diamondtriangles.svg	16	no	57	0	553
6.6.0	win	2022-12-20	12:09:17	12:12:24	186325	5a4c1ecaefd8df0001d34305	780243454	1	practice_z	5	practice_z	3	stimuli_distractor_diamondtriangles.svg	stimuli_target_diamondcircles.svg	8	yes	0	0	2000
6.6.0	win	2022-12-20	12:09:17	12:12:24	186325	5a4c1ecaefd8df0001d34305	780243454	1	practice_z	5	advance_on_keypress_ZEE	4	stimuli_distractor_diamondtriangles.svg	stimuli_target_diamondcircles.svg	8	yes	57	0	546
6.6.0	win	2022-12-20	12:09:17	12:12:29	190525	5a4c1ecaefd8df0001d34305	780243454	1	practice_z	5	practice_z	5	stimuli_target_squarediamonds.svg	stimuli_distractor_diamondtriangles.svg	2	yes	0	0	2000
6.6.0	win	2022-12-20	12:09:17	12:12:29	190525	5a4c1ecaefd8df0001d34305	780243454	1	practice_z	5	advance_on_keypress_ZEE	6	stimuli_target_squarediamonds.svg	stimuli_distractor_diamondtriangles.svg	2	yes	57	0	538
6.6.0	win	2022-12-20	12:09:17	12:12:33	194708	5a4c1ecaefd8df0001d34305	780243454	1	practice_z	5	practice_z	7	stimuli_distractor_trianglediamonds.svg	stimuli_distractor_trianglediamonds.svg	15	no	0	1	2000
6.6.0	win	2022-12-20	12:09:17	12:12:33	194708	5a4c1ecaefd8df0001d34305	780243454	1	practice_z	5	advance_on_keypress_ZEE	8	stimuli_distractor_trianglediamonds.svg	stimuli_distractor_trianglediamonds.svg	15	no	57	0	662
6.6.0	win	2022-12-20	12:09:17	12:12:36	198241	5a4c1ecaefd8df0001d34305	780243454	1	practice_z	5	practice_z	9	stimuli_distractor_diamondtriangles.svg	stimuli_target_circletriangles.svg	7	yes	44	1	1232
6.6.0	win	2022-12-20	12:09:17	12:12:36	198241	5a4c1ecaefd8df0001d34305	780243454	1	practice_z	5	advance_on_keypress_ZEE	10	stimuli_distractor_diamondtriangles.svg	stimuli_target_circletriangles.svg	7	yes	57	0	729
6.6.0	win	2022-12-20	12:09:17	12:12:41	202625	5a4c1ecaefd8df0001d34305	780243454	1	practice_z	5	practice_z	11	stimuli_target_diamondsquares.svg	stimuli_distractor_trianglediamonds.svg	6	yes	0	0	2000
6.6.0	win	2022-12-20	12:09:17	12:12:41	202625	5a4c1ecaefd8df0001d34305	780243454	1	practice_z	5	advance_on_keypress_ZEE	12	stimuli_target_diamondsquares.svg	stimuli_distractor_trianglediamonds.svg	6	yes	57	0	561
6.6.0	win	2022-12-20	12:09:17	12:12:44	205707	5a4c1ecaefd8df0001d34305	780243454	1	practice_z	5	practice_z	13	stimuli_distractor_trianglediamonds.svg	stimuli_target_diamondcircles.svg	12	yes	44	1	882
6.6.0	win	2022-12-20	12:09:17	12:12:44	205707	5a4c1ecaefd8df0001d34305	780243454	1	practice_z	5	advance_on_keypress_ZEE	14	stimuli_distractor_trianglediamonds.svg	stimuli_target_diamondcircles.svg	12	yes	57	0	593
6.6.0	win	2022-12-20	12:09:17	12:12:47	208851	5a4c1ecaefd8df0001d34305	780243454	1	practice_z	5	practice_z	15	stimuli_distractor_diamondtriangles.svg	stimuli_target_trianglecircles.svg	9	yes	44	1	910
6.6.0	win	2022-12-20	12:09:17	12:12:47	208851	5a4c1ecaefd8df0001d34305	780243454	1	practice_z	5	advance_on_keypress_ZEE	16	stimuli_distractor_diamondtriangles.svg	stimuli_target_trianglecircles.svg	9	yes	57	0	481
6.6.0	win	2022-12-20	12:09:17	12:12:50	212022	5a4c1ecaefd8df0001d34305	780243454	1	practice_z	5	practice_z	17	stimuli_distractor_trianglediamonds.svg	stimuli_target_circlediamonds.svg	10	yes	44	1	1047
6.6.0	win	2022-12-20	12:09:17	12:12:50	212022	5a4c1ecaefd8df0001d34305	780243454	1	practice_z	5	advance_on_keypress_ZEE	18	stimuli_distractor_trianglediamonds.svg	stimuli_target_circlediamonds.svg	10	yes	57	0	480
6.6.0	win	2022-12-20	12:09:17	12:12:53	215048	5a4c1ecaefd8df0001d34305	780243454	1	practice_z	5	practice_z	19	stimuli_target_circlediamonds.svg	stimuli_distractor_trianglediamonds.svg	4	yes	44	1	923
6.6.0	win	2022-12-20	12:09:17	12:12:53	215048	5a4c1ecaefd8df0001d34305	780243454	1	practice_z	5	advance_on_keypress_ZEE	20	stimuli_target_circlediamonds.svg	stimuli_distractor_trianglediamonds.svg	4	yes	57	0	527
6.6.0	win	2022-12-20	12:09:17	12:12:57	219208	5a4c1ecaefd8df0001d34305	780243454	1	practice_z	5	practice_z	21	stimuli_distractor_diamondtriangles.svg	stimuli_distractor_trianglediamonds.svg	14	no	0	1	2000
6.6.0	win	2022-12-20	12:09:17	12:12:57	219208	5a4c1ecaefd8df0001d34305	780243454	1	practice_z	5	advance_on_keypress_ZEE	22	stimuli_distractor_diamondtriangles.svg	stimuli_distractor_trianglediamonds.svg	14	no	57	0	634
6.6.0	win	2022-12-20	12:09:17	12:13:00	222428	5a4c1ecaefd8df0001d34305	780243454	1	practice_z	5	practice_z	23	stimuli_distractor_diamondtriangles.svg	stimuli_distractor_diamondtriangles.svg	13	no	44	0	936
6.6.0	win	2022-12-20	12:09:17	12:13:00	222428	5a4c1ecaefd8df0001d34305	780243454	1	practice_z	5	advance_on_keypress_ZEE	24	stimuli_distractor_diamondtriangles.svg	stimuli_distractor_diamondtriangles.svg	13	no	57	0	682
6.6.0	win	2022-12-20	12:09:17	12:13:05	226758	5a4c1ecaefd8df0001d34305	780243454	1	practice_z	5	practice_z	25	stimuli_distractor_trianglediamonds.svg	stimuli_target_squarediamonds.svg	11	yes	0	0	2000
6.6.0	win	2022-12-20	12:09:17	12:13:05	226758	5a4c1ecaefd8df0001d34305	780243454	1	practice_z	5	advance_on_keypress_ZEE	26	stimuli_distractor_trianglediamonds.svg	stimuli_target_squarediamonds.svg	11	yes	57	0	604
6.6.0	win	2022-12-20	12:09:17	12:13:09	231008	5a4c1ecaefd8df0001d34305	780243454	1	practice_z	5	practice_z	27	stimuli_target_diamondsquares.svg	stimuli_distractor_diamondtriangles.svg	3	yes	0	0	2000
6.6.0	win	2022-12-20	12:09:17	12:13:09	231008	5a4c1ecaefd8df0001d34305	780243454	1	practice_z	5	advance_on_keypress_ZEE	28	stimuli_target_diamondsquares.svg	stimuli_distractor_diamondtriangles.svg	3	yes	57	0	613
6.6.0	win	2022-12-20	12:09:17	12:13:13	235258	5a4c1ecaefd8df0001d34305	780243454	1	practice_z	5	practice_z	29	stimuli_target_squarediamonds.svg	stimuli_distractor_trianglediamonds.svg	5	yes	0	0	2000
6.6.0	win	2022-12-20	12:09:17	12:13:13	235258	5a4c1ecaefd8df0001d34305	780243454	1	practice_z	5	advance_on_keypress_ZEE	30	stimuli_target_squarediamonds.svg	stimuli_distractor_trianglediamonds.svg	5	yes	57	0	559
6.6.0	win	2022-12-20	12:09:17	12:13:16	238337	5a4c1ecaefd8df0001d34305	780243454	1	practice_z	5	practice_z	31	stimuli_target_circlediamonds.svg	stimuli_distractor_diamondtriangles.svg	1	yes	44	1	879
6.6.0	win	2022-12-20	12:09:17	12:13:16	238337	5a4c1ecaefd8df0001d34305	780243454	1	practice_z	5	advance_on_keypress_ZEE	32	stimuli_target_circlediamonds.svg	stimuli_distractor_diamondtriangles.svg	1	yes	57	0	533
6.6.0	win	2022-12-20	12:09:17	12:13:28	250125	5a4c1ecaefd8df0001d34305	780243454	1	main_z	7	main_z	1	stimuli_distractor_trianglediamonds.svg	stimuli_distractor_trianglediamonds.svg	34	no	0	1	2000
6.6.0	win	2022-12-20	12:09:17	12:13:28	250125	5a4c1ecaefd8df0001d34305	780243454	1	main_z	7	advance_on_keypress_ZEE	2	stimuli_distractor_trianglediamonds.svg	stimuli_distractor_trianglediamonds.svg	34	no	57	0	560
6.6.0	win	2022-12-20	12:09:17	12:13:31	253325	5a4c1ecaefd8df0001d34305	780243454	1	main_z	7	main_z	3	stimuli_target_squarediamonds.svg	stimuli_distractor_diamondtriangles.svg	8	yes	0	0	2000
6.6.0	win	2022-12-20	12:09:17	12:13:31	253325	5a4c1ecaefd8df0001d34305	780243454	1	main_z	7	advance_on_keypress_ZEE	4	stimuli_target_squarediamonds.svg	stimuli_distractor_diamondtriangles.svg	8	yes	57	0	281
6.6.0	win	2022-12-20	12:09:17	12:13:34	256242	5a4c1ecaefd8df0001d34305	780243454	1	main_z	7	main_z	5	stimuli_distractor_diamondtriangles.svg	stimuli_distractor_trianglediamonds.svg	38	no	0	1	2000
6.6.0	win	2022-12-20	12:09:17	12:13:34	256242	5a4c1ecaefd8df0001d34305	780243454	1	main_z	7	advance_on_keypress_ZEE	6	stimuli_distractor_diamondtriangles.svg	stimuli_distractor_trianglediamonds.svg	38	no	57	0	550
6.6.0	win	2022-12-20	12:09:17	12:13:36	258338	5a4c1ecaefd8df0001d34305	780243454	1	main_z	7	main_z	7	stimuli_target_circletriangles.svg	stimuli_distractor_diamondtriangles.svg	5	yes	44	1	897
6.6.0	win	2022-12-20	12:09:17	12:13:36	258338	5a4c1ecaefd8df0001d34305	780243454	1	main_z	7	advance_on_keypress_ZEE	8	stimuli_target_circletriangles.svg	stimuli_distractor_diamondtriangles.svg	5	yes	57	0	575
6.6.0	win	2022-12-20	12:09:17	12:13:40	261542	5a4c1ecaefd8df0001d34305	780243454	1	main_z	7	main_z	9	stimuli_target_trianglesquares.svg	stimuli_distractor_diamondtriangles.svg	22	yes	0	0	2000
6.6.0	win	2022-12-20	12:09:17	12:13:40	261542	5a4c1ecaefd8df0001d34305	780243454	1	main_z	7	advance_on_keypress_ZEE	10	stimuli_target_trianglesquares.svg	stimuli_distractor_diamondtriangles.svg	22	yes	57	0	412
6.6.0	win	2022-12-20	12:09:17	12:13:41	263328	5a4c1ecaefd8df0001d34305	780243454	1	main_z	7	main_z	11	stimuli_target_trianglecircles.svg	stimuli_distractor_diamondtriangles.svg	21	yes	44	1	736
6.6.0	win	2022-12-20	12:09:17	12:13:41	263328	5a4c1ecaefd8df0001d34305	780243454	1	main_z	7	advance_on_keypress_ZEE	12	stimuli_target_trianglecircles.svg	stimuli_distractor_diamondtriangles.svg	21	yes	57	0	935
6.6.0	win	2022-12-20	12:09:17	12:13:45	266908	5a4c1ecaefd8df0001d34305	780243454	1	main_z	7	main_z	13	stimuli_target_diamondsquares.svg	stimuli_distractor_diamondtriangles.svg	24	yes	0	0	2000
6.6.0	win	2022-12-20	12:09:17	12:13:45	266908	5a4c1ecaefd8df0001d34305	780243454	1	main_z	7	advance_on_keypress_ZEE	14	stimuli_target_diamondsquares.svg	stimuli_distractor_diamondtriangles.svg	24	yes	57	0	556
6.6.0	win	2022-12-20	12:09:17	12:13:48	270108	5a4c1ecaefd8df0001d34305	780243454	1	main_z	7	main_z	15	stimuli_distractor_diamondtriangles.svg	stimuli_target_diamondsquares.svg	32	yes	0	0	2000
6.6.0	win	2022-12-20	12:09:17	12:13:48	270108	5a4c1ecaefd8df0001d34305	780243454	1	main_z	7	advance_on_keypress_ZEE	16	stimuli_distractor_diamondtriangles.svg	stimuli_target_diamondsquares.svg	32	yes	57	0	427
6.6.0	win	2022-12-20	12:09:17	12:13:50	272040	5a4c1ecaefd8df0001d34305	780243454	1	main_z	7	main_z	17	stimuli_target_circlediamonds.svg	stimuli_distractor_diamondtriangles.svg	6	yes	44	1	865
6.6.0	win	2022-12-20	12:09:17	12:13:50	272040	5a4c1ecaefd8df0001d34305	780243454	1	main_z	7	advance_on_keypress_ZEE	18	stimuli_target_circlediamonds.svg	stimuli_distractor_diamondtriangles.svg	6	yes	57	0	476
6.6.0	win	2022-12-20	12:09:17	12:13:53	275142	5a4c1ecaefd8df0001d34305	780243454	1	main_z	7	main_z	19	stimuli_distractor_diamondtriangles.svg	stimuli_distractor_trianglediamonds.svg	37	no	0	1	2000
6.6.0	win	2022-12-20	12:09:17	12:13:53	275142	5a4c1ecaefd8df0001d34305	780243454	1	main_z	7	advance_on_keypress_ZEE	20	stimuli_distractor_diamondtriangles.svg	stimuli_distractor_trianglediamonds.svg	37	no	57	0	455
6.6.0	win	2022-12-20	12:09:17	12:13:55	277292	5a4c1ecaefd8df0001d34305	780243454	1	main_z	7	main_z	21	stimuli_target_trianglecircles.svg	stimuli_distractor_trianglediamonds.svg	17	yes	44	1	1050
6.6.0	win	2022-12-20	12:09:17	12:13:55	277292	5a4c1ecaefd8df0001d34305	780243454	1	main_z	7	advance_on_keypress_ZEE	22	stimuli_target_trianglecircles.svg	stimuli_distractor_trianglediamonds.svg	17	yes	57	0	358
6.6.0	win	2022-12-20	12:09:17	12:13:58	280292	5a4c1ecaefd8df0001d34305	780243454	1	main_z	7	main_z	23	stimuli_distractor_diamondtriangles.svg	stimuli_distractor_diamondtriangles.svg	40	no	0	1	2000
6.6.0	win	2022-12-20	12:09:17	12:13:58	280292	5a4c1ecaefd8df0001d34305	780243454	1	main_z	7	advance_on_keypress_ZEE	24	stimuli_distractor_diamondtriangles.svg	stimuli_distractor_diamondtriangles.svg	40	no	57	0	476
6.6.0	win	2022-12-20	12:09:17	12:14:00	282157	5a4c1ecaefd8df0001d34305	780243454	1	main_z	7	main_z	25	stimuli_target_circlediamonds.svg	stimuli_distractor_trianglediamonds.svg	2	yes	44	1	749
6.6.0	win	2022-12-20	12:09:17	12:14:00	282157	5a4c1ecaefd8df0001d34305	780243454	1	main_z	7	advance_on_keypress_ZEE	26	stimuli_target_circlediamonds.svg	stimuli_distractor_trianglediamonds.svg	2	yes	57	0	330
6.6.0	win	2022-12-20	12:09:17	12:14:03	285125	5a4c1ecaefd8df0001d34305	780243454	1	main_z	7	main_z	27	stimuli_distractor_trianglediamonds.svg	stimuli_target_trianglesquares.svg	26	yes	0	0	2000
6.6.0	win	2022-12-20	12:09:17	12:14:03	285125	5a4c1ecaefd8df0001d34305	780243454	1	main_z	7	advance_on_keypress_ZEE	28	stimuli_distractor_trianglediamonds.svg	stimuli_target_trianglesquares.svg	26	yes	57	0	534
6.6.0	win	2022-12-20	12:09:17	12:14:06	288309	5a4c1ecaefd8df0001d34305	780243454	1	main_z	7	main_z	29	stimuli_target_diamondsquares.svg	stimuli_distractor_trianglediamonds.svg	20	yes	0	0	2000
6.6.0	win	2022-12-20	12:09:17	12:14:06	288309	5a4c1ecaefd8df0001d34305	780243454	1	main_z	7	advance_on_keypress_ZEE	30	stimuli_target_diamondsquares.svg	stimuli_distractor_trianglediamonds.svg	20	yes	57	0	430
6.6.0	win	2022-12-20	12:09:17	12:14:09	291375	5a4c1ecaefd8df0001d34305	780243454	1	main_z	7	main_z	31	stimuli_distractor_diamondtriangles.svg	stimuli_distractor_diamondtriangles.svg	39	no	0	1	2000
6.6.0	win	2022-12-20	12:09:17	12:14:09	291375	5a4c1ecaefd8df0001d34305	780243454	1	main_z	7	advance_on_keypress_ZEE	32	stimuli_distractor_diamondtriangles.svg	stimuli_distractor_diamondtriangles.svg	39	no	57	0	356
6.6.0	win	2022-12-20	12:09:17	12:14:12	294375	5a4c1ecaefd8df0001d34305	780243454	1	main_z	7	main_z	33	stimuli_distractor_trianglediamonds.svg	stimuli_target_squarediamonds.svg	12	yes	0	0	2000
6.6.0	win	2022-12-20	12:09:17	12:14:12	294375	5a4c1ecaefd8df0001d34305	780243454	1	main_z	7	advance_on_keypress_ZEE	34	stimuli_distractor_trianglediamonds.svg	stimuli_target_squarediamonds.svg	12	yes	57	0	385
6.6.0	win	2022-12-20	12:09:17	12:14:14	296473	5a4c1ecaefd8df0001d34305	780243454	1	main_z	7	main_z	35	stimuli_distractor_diamondtriangles.svg	stimuli_target_circletriangles.svg	13	yes	44	1	1065
6.6.0	win	2022-12-20	12:09:17	12:14:14	296473	5a4c1ecaefd8df0001d34305	780243454	1	main_z	7	advance_on_keypress_ZEE	36	stimuli_distractor_diamondtriangles.svg	stimuli_target_circletriangles.svg	13	yes	57	0	608
6.6.0	win	2022-12-20	12:09:17	12:14:17	298617	5a4c1ecaefd8df0001d34305	780243454	1	main_z	7	main_z	37	stimuli_distractor_trianglediamonds.svg	stimuli_target_circlediamonds.svg	10	yes	44	1	908
6.6.0	win	2022-12-20	12:09:17	12:14:17	298617	5a4c1ecaefd8df0001d34305	780243454	1	main_z	7	advance_on_keypress_ZEE	38	stimuli_distractor_trianglediamonds.svg	stimuli_target_circlediamonds.svg	10	yes	57	0	341
6.6.0	win	2022-12-20	12:09:17	12:14:20	301592	5a4c1ecaefd8df0001d34305	780243454	1	main_z	7	main_z	39	stimuli_distractor_trianglediamonds.svg	stimuli_distractor_trianglediamonds.svg	33	no	0	1	2000
6.6.0	win	2022-12-20	12:09:17	12:14:20	301592	5a4c1ecaefd8df0001d34305	780243454	1	main_z	7	advance_on_keypress_ZEE	40	stimuli_distractor_trianglediamonds.svg	stimuli_distractor_trianglediamonds.svg	33	no	57	0	421
6.6.0	win	2022-12-20	12:09:17	12:14:23	304659	5a4c1ecaefd8df0001d34305	780243454	1	main_z	7	main_z	41	stimuli_distractor_trianglediamonds.svg	stimuli_distractor_diamondtriangles.svg	36	no	0	1	2000
6.6.0	win	2022-12-20	12:09:17	12:14:23	304659	5a4c1ecaefd8df0001d34305	780243454	1	main_z	7	advance_on_keypress_ZEE	42	stimuli_distractor_trianglediamonds.svg	stimuli_distractor_diamondtriangles.svg	36	no	57	0	429
6.6.0	win	2022-12-20	12:09:17	12:14:26	307726	5a4c1ecaefd8df0001d34305	780243454	1	main_z	7	main_z	43	stimuli_target_squarediamonds.svg	stimuli_distractor_trianglediamonds.svg	4	yes	0	0	2000
6.6.0	win	2022-12-20	12:09:17	12:14:26	307726	5a4c1ecaefd8df0001d34305	780243454	1	main_z	7	advance_on_keypress_ZEE	44	stimuli_target_squarediamonds.svg	stimuli_distractor_trianglediamonds.svg	4	yes	57	0	476
6.6.0	win	2022-12-20	12:09:17	12:14:29	310842	5a4c1ecaefd8df0001d34305	780243454	1	main_z	7	main_z	45	stimuli_distractor_trianglediamonds.svg	stimuli_target_squaretriangles.svg	11	yes	0	0	2000
6.6.0	win	2022-12-20	12:09:17	12:14:29	310842	5a4c1ecaefd8df0001d34305	780243454	1	main_z	7	advance_on_keypress_ZEE	46	stimuli_distractor_trianglediamonds.svg	stimuli_target_squaretriangles.svg	11	yes	57	0	485
6.6.0	win	2022-12-20	12:09:17	12:14:31	312762	5a4c1ecaefd8df0001d34305	780243454	1	main_z	7	main_z	47	stimuli_target_circletriangles.svg	stimuli_distractor_trianglediamonds.svg	1	yes	44	1	787
6.6.0	win	2022-12-20	12:09:17	12:14:31	312762	5a4c1ecaefd8df0001d34305	780243454	1	main_z	7	advance_on_keypress_ZEE	48	stimuli_target_circletriangles.svg	stimuli_distractor_trianglediamonds.svg	1	yes	57	0	412
6.6.0	win	2022-12-20	12:09:17	12:14:34	315809	5a4c1ecaefd8df0001d34305	780243454	1	main_z	7	main_z	49	stimuli_distractor_trianglediamonds.svg	stimuli_target_diamondsquares.svg	28	yes	0	0	2000
6.6.0	win	2022-12-20	12:09:17	12:14:34	315809	5a4c1ecaefd8df0001d34305	780243454	1	main_z	7	advance_on_keypress_ZEE	50	stimuli_distractor_trianglediamonds.svg	stimuli_target_diamondsquares.svg	28	yes	57	0	434
6.6.0	win	2022-12-20	12:09:17	12:14:36	317838	5a4c1ecaefd8df0001d34305	780243454	1	main_z	7	main_z	51	stimuli_distractor_trianglediamonds.svg	stimuli_target_trianglecircles.svg	25	yes	44	1	946
6.6.0	win	2022-12-20	12:09:17	12:14:36	317838	5a4c1ecaefd8df0001d34305	780243454	1	main_z	7	advance_on_keypress_ZEE	52	stimuli_distractor_trianglediamonds.svg	stimuli_target_trianglecircles.svg	25	yes	57	0	311
6.6.0	win	2022-12-20	12:09:17	12:14:39	320776	5a4c1ecaefd8df0001d34305	780243454	1	main_z	7	main_z	53	stimuli_target_trianglesquares.svg	stimuli_distractor_trianglediamonds.svg	18	yes	0	0	2000
6.6.0	win	2022-12-20	12:09:17	12:14:39	320776	5a4c1ecaefd8df0001d34305	780243454	1	main_z	7	advance_on_keypress_ZEE	54	stimuli_target_trianglesquares.svg	stimuli_distractor_trianglediamonds.svg	18	yes	57	0	654
6.6.0	win	2022-12-20	12:09:17	12:14:41	322833	5a4c1ecaefd8df0001d34305	780243454	1	main_z	7	main_z	55	stimuli_target_diamondcircles.svg	stimuli_distractor_trianglediamonds.svg	19	yes	44	1	758
6.6.0	win	2022-12-20	12:09:17	12:14:41	322833	5a4c1ecaefd8df0001d34305	780243454	1	main_z	7	advance_on_keypress_ZEE	56	stimuli_target_diamondcircles.svg	stimuli_distractor_trianglediamonds.svg	19	yes	57	0	248
6.6.0	win	2022-12-20	12:09:17	12:14:43	324642	5a4c1ecaefd8df0001d34305	780243454	1	main_z	7	main_z	57	stimuli_distractor_trianglediamonds.svg	stimuli_target_diamondcircles.svg	27	yes	44	1	933
6.6.0	win	2022-12-20	12:09:17	12:14:43	324642	5a4c1ecaefd8df0001d34305	780243454	1	main_z	7	advance_on_keypress_ZEE	58	stimuli_distractor_trianglediamonds.svg	stimuli_target_diamondcircles.svg	27	yes	57	0	187
6.6.0	win	2022-12-20	12:09:17	12:14:45	327476	5a4c1ecaefd8df0001d34305	780243454	1	main_z	7	main_z	59	stimuli_distractor_diamondtriangles.svg	stimuli_target_squaretriangles.svg	15	yes	0	0	2000
6.6.0	win	2022-12-20	12:09:17	12:14:45	327476	5a4c1ecaefd8df0001d34305	780243454	1	main_z	7	advance_on_keypress_ZEE	60	stimuli_distractor_diamondtriangles.svg	stimuli_target_squaretriangles.svg	15	yes	57	0	375
6.6.0	win	2022-12-20	12:09:17	12:14:49	330492	5a4c1ecaefd8df0001d34305	780243454	1	main_z	7	main_z	61	stimuli_target_squaretriangles.svg	stimuli_distractor_diamondtriangles.svg	7	yes	0	0	2000
6.6.0	win	2022-12-20	12:09:17	12:14:49	330492	5a4c1ecaefd8df0001d34305	780243454	1	main_z	7	advance_on_keypress_ZEE	62	stimuli_target_squaretriangles.svg	stimuli_distractor_diamondtriangles.svg	7	yes	57	0	430
6.6.0	win	2022-12-20	12:09:17	12:14:52	333559	5a4c1ecaefd8df0001d34305	780243454	1	main_z	7	main_z	63	stimuli_distractor_diamondtriangles.svg	stimuli_target_squarediamonds.svg	16	yes	0	0	2000
6.6.0	win	2022-12-20	12:09:17	12:14:52	333559	5a4c1ecaefd8df0001d34305	780243454	1	main_z	7	advance_on_keypress_ZEE	64	stimuli_distractor_diamondtriangles.svg	stimuli_target_squarediamonds.svg	16	yes	57	0	486
6.6.0	win	2022-12-20	12:09:17	12:14:55	336692	5a4c1ecaefd8df0001d34305	780243454	1	main_z	7	main_z	65	stimuli_distractor_diamondtriangles.svg	stimuli_target_trianglesquares.svg	30	yes	0	0	2000
6.6.0	win	2022-12-20	12:09:17	12:14:55	336692	5a4c1ecaefd8df0001d34305	780243454	1	main_z	7	advance_on_keypress_ZEE	66	stimuli_distractor_diamondtriangles.svg	stimuli_target_trianglesquares.svg	30	yes	57	0	443
6.6.0	win	2022-12-20	12:09:17	12:14:57	338520	5a4c1ecaefd8df0001d34305	780243454	1	main_z	7	main_z	67	stimuli_distractor_diamondtriangles.svg	stimuli_target_trianglecircles.svg	29	yes	44	1	744
6.6.0	win	2022-12-20	12:09:17	12:14:57	338520	5a4c1ecaefd8df0001d34305	780243454	1	main_z	7	advance_on_keypress_ZEE	68	stimuli_distractor_diamondtriangles.svg	stimuli_target_trianglecircles.svg	29	yes	57	0	226
6.6.0	win	2022-12-20	12:09:17	12:14:59	341376	5a4c1ecaefd8df0001d34305	780243454	1	main_z	7	main_z	69	stimuli_target_squaretriangles.svg	stimuli_distractor_trianglediamonds.svg	3	yes	0	0	2000
6.6.0	win	2022-12-20	12:09:17	12:14:59	341376	5a4c1ecaefd8df0001d34305	780243454	1	main_z	7	advance_on_keypress_ZEE	70	stimuli_target_squaretriangles.svg	stimuli_distractor_trianglediamonds.svg	3	yes	57	0	567
6.6.0	win	2022-12-20	12:09:17	12:15:01	343314	5a4c1ecaefd8df0001d34305	780243454	1	main_z	7	main_z	71	stimuli_distractor_diamondtriangles.svg	stimuli_target_diamondcircles.svg	31	yes	44	1	722
6.6.0	win	2022-12-20	12:09:17	12:15:01	343314	5a4c1ecaefd8df0001d34305	780243454	1	main_z	7	advance_on_keypress_ZEE	72	stimuli_distractor_diamondtriangles.svg	stimuli_target_diamondcircles.svg	31	yes	57	0	211
6.6.0	win	2022-12-20	12:09:17	12:15:03	345050	5a4c1ecaefd8df0001d34305	780243454	1	main_z	7	main_z	73	stimuli_distractor_diamondtriangles.svg	stimuli_target_circlediamonds.svg	14	yes	44	1	891
6.6.0	win	2022-12-20	12:09:17	12:15:03	345050	5a4c1ecaefd8df0001d34305	780243454	1	main_z	7	advance_on_keypress_ZEE	74	stimuli_distractor_diamondtriangles.svg	stimuli_target_circlediamonds.svg	14	yes	57	0	130
6.6.0	win	2022-12-20	12:09:17	12:15:05	346880	5a4c1ecaefd8df0001d34305	780243454	1	main_z	7	main_z	75	stimuli_target_diamondcircles.svg	stimuli_distractor_diamondtriangles.svg	23	yes	44	1	1071
6.6.0	win	2022-12-20	12:09:17	12:15:05	346880	5a4c1ecaefd8df0001d34305	780243454	1	main_z	7	advance_on_keypress_ZEE	76	stimuli_target_diamondcircles.svg	stimuli_distractor_diamondtriangles.svg	23	yes	57	0	171
6.6.0	win	2022-12-20	12:09:17	12:15:07	348643	5a4c1ecaefd8df0001d34305	780243454	1	main_z	7	main_z	77	stimuli_distractor_trianglediamonds.svg	stimuli_target_circletriangles.svg	9	yes	44	1	951
6.6.0	win	2022-12-20	12:09:17	12:15:07	348643	5a4c1ecaefd8df0001d34305	780243454	1	main_z	7	advance_on_keypress_ZEE	78	stimuli_distractor_trianglediamonds.svg	stimuli_target_circletriangles.svg	9	yes	57	0	133
6.6.0	win	2022-12-20	12:09:17	12:15:09	351426	5a4c1ecaefd8df0001d34305	780243454	1	main_z	7	main_z	79	stimuli_distractor_trianglediamonds.svg	stimuli_distractor_diamondtriangles.svg	35	no	0	1	2000
6.6.0	win	2022-12-20	12:09:17	12:15:09	351426	5a4c1ecaefd8df0001d34305	780243454	1	main_z	7	advance_on_keypress_ZEE	80	stimuli_distractor_trianglediamonds.svg	stimuli_distractor_diamondtriangles.svg	35	no	57	0	1853
6.6.0	win	2022-12-20	12:09:17	12:15:14	355926	5a4c1ecaefd8df0001d34305	780243454	1	main_z	7	main_z	81	stimuli_target_diamondsquares.svg	stimuli_distractor_trianglediamonds.svg	20	yes	0	0	2000
6.6.0	win	2022-12-20	12:09:17	12:15:14	355926	5a4c1ecaefd8df0001d34305	780243454	1	main_z	7	advance_on_keypress_ZEE	82	stimuli_target_diamondsquares.svg	stimuli_distractor_trianglediamonds.svg	20	yes	57	0	521
6.6.0	win	2022-12-20	12:09:17	12:15:17	359093	5a4c1ecaefd8df0001d34305	780243454	1	main_z	7	main_z	83	stimuli_distractor_trianglediamonds.svg	stimuli_target_trianglesquares.svg	26	yes	0	0	2000
6.6.0	win	2022-12-20	12:09:17	12:15:17	359093	5a4c1ecaefd8df0001d34305	780243454	1	main_z	7	advance_on_keypress_ZEE	84	stimuli_distractor_trianglediamonds.svg	stimuli_target_trianglesquares.svg	26	yes	57	0	641
6.6.0	win	2022-12-20	12:09:17	12:15:20	362376	5a4c1ecaefd8df0001d34305	780243454	1	main_z	7	main_z	85	stimuli_distractor_diamondtriangles.svg	stimuli_distractor_diamondtriangles.svg	39	no	0	1	2000
6.6.0	win	2022-12-20	12:09:17	12:15:20	362376	5a4c1ecaefd8df0001d34305	780243454	1	main_z	7	advance_on_keypress_ZEE	86	stimuli_distractor_diamondtriangles.svg	stimuli_distractor_diamondtriangles.svg	39	no	57	0	632
6.6.0	win	2022-12-20	12:09:17	12:15:22	364425	5a4c1ecaefd8df0001d34305	780243454	1	main_z	7	main_z	87	stimuli_distractor_trianglediamonds.svg	stimuli_target_circletriangles.svg	9	yes	44	1	783
6.6.0	win	2022-12-20	12:09:17	12:15:22	364425	5a4c1ecaefd8df0001d34305	780243454	1	main_z	7	advance_on_keypress_ZEE	88	stimuli_distractor_trianglediamonds.svg	stimuli_target_circletriangles.svg	9	yes	57	0	97
6.6.0	win	2022-12-20	12:09:17	12:15:24	366248	5a4c1ecaefd8df0001d34305	780243454	1	main_z	7	main_z	89	stimuli_target_diamondcircles.svg	stimuli_distractor_trianglediamonds.svg	19	yes	44	1	1089
6.6.0	win	2022-12-20	12:09:17	12:15:24	366248	5a4c1ecaefd8df0001d34305	780243454	1	main_z	7	advance_on_keypress_ZEE	90	stimuli_target_diamondcircles.svg	stimuli_distractor_trianglediamonds.svg	19	yes	57	0	90
6.6.0	win	2022-12-20	12:09:17	12:15:27	368976	5a4c1ecaefd8df0001d34305	780243454	1	main_z	7	main_z	91	stimuli_target_diamondsquares.svg	stimuli_distractor_diamondtriangles.svg	24	yes	0	0	2000
6.6.0	win	2022-12-20	12:09:17	12:15:27	368976	5a4c1ecaefd8df0001d34305	780243454	1	main_z	7	advance_on_keypress_ZEE	92	stimuli_target_diamondsquares.svg	stimuli_distractor_diamondtriangles.svg	24	yes	57	0	513
6.6.0	win	2022-12-20	12:09:17	12:15:30	372126	5a4c1ecaefd8df0001d34305	780243454	1	main_z	7	main_z	93	stimuli_distractor_diamondtriangles.svg	stimuli_distractor_trianglediamonds.svg	37	no	0	1	2000
6.6.0	win	2022-12-20	12:09:17	12:15:30	372126	5a4c1ecaefd8df0001d34305	780243454	1	main_z	7	advance_on_keypress_ZEE	94	stimuli_distractor_diamondtriangles.svg	stimuli_distractor_trianglediamonds.svg	37	no	57	0	478
6.6.0	win	2022-12-20	12:09:17	12:15:33	375243	5a4c1ecaefd8df0001d34305	780243454	1	main_z	7	main_z	95	stimuli_distractor_trianglediamonds.svg	stimuli_distractor_diamondtriangles.svg	36	no	0	1	2000
6.6.0	win	2022-12-20	12:09:17	12:15:33	375243	5a4c1ecaefd8df0001d34305	780243454	1	main_z	7	advance_on_keypress_ZEE	96	stimuli_distractor_trianglediamonds.svg	stimuli_distractor_diamondtriangles.svg	36	no	57	0	505
6.6.0	win	2022-12-20	12:09:17	12:15:36	378393	5a4c1ecaefd8df0001d34305	780243454	1	main_z	7	main_z	97	stimuli_distractor_diamondtriangles.svg	stimuli_distractor_trianglediamonds.svg	38	no	0	1	2000
6.6.0	win	2022-12-20	12:09:17	12:15:36	378393	5a4c1ecaefd8df0001d34305	780243454	1	main_z	7	advance_on_keypress_ZEE	98	stimuli_distractor_diamondtriangles.svg	stimuli_distractor_trianglediamonds.svg	38	no	57	0	571
6.6.0	win	2022-12-20	12:09:17	12:15:40	381609	5a4c1ecaefd8df0001d34305	780243454	1	main_z	7	main_z	99	stimuli_distractor_trianglediamonds.svg	stimuli_target_diamondsquares.svg	28	yes	0	0	2000
6.6.0	win	2022-12-20	12:09:17	12:15:40	381609	5a4c1ecaefd8df0001d34305	780243454	1	main_z	7	advance_on_keypress_ZEE	100	stimuli_distractor_trianglediamonds.svg	stimuli_target_diamondsquares.svg	28	yes	57	0	556
6.6.0	win	2022-12-20	12:09:17	12:15:43	384809	5a4c1ecaefd8df0001d34305	780243454	1	main_z	7	main_z	101	stimuli_distractor_diamondtriangles.svg	stimuli_target_trianglesquares.svg	30	yes	0	0	2000
6.6.0	win	2022-12-20	12:09:17	12:15:43	384809	5a4c1ecaefd8df0001d34305	780243454	1	main_z	7	advance_on_keypress_ZEE	102	stimuli_distractor_diamondtriangles.svg	stimuli_target_trianglesquares.svg	30	yes	57	0	409
6.6.0	win	2022-12-20	12:09:17	12:15:46	387859	5a4c1ecaefd8df0001d34305	780243454	1	main_z	7	main_z	103	stimuli_target_squarediamonds.svg	stimuli_distractor_diamondtriangles.svg	8	yes	0	0	2000
6.6.0	win	2022-12-20	12:09:17	12:15:46	387859	5a4c1ecaefd8df0001d34305	780243454	1	main_z	7	advance_on_keypress_ZEE	104	stimuli_target_squarediamonds.svg	stimuli_distractor_diamondtriangles.svg	8	yes	57	0	410
6.6.0	win	2022-12-20	12:09:17	12:15:49	390909	5a4c1ecaefd8df0001d34305	780243454	1	main_z	7	main_z	105	stimuli_distractor_trianglediamonds.svg	stimuli_target_squarediamonds.svg	12	yes	0	0	2000
6.6.0	win	2022-12-20	12:09:17	12:15:49	390909	5a4c1ecaefd8df0001d34305	780243454	1	main_z	7	advance_on_keypress_ZEE	106	stimuli_distractor_trianglediamonds.svg	stimuli_target_squarediamonds.svg	12	yes	57	0	609
6.6.0	win	2022-12-20	12:09:17	12:15:52	394160	5a4c1ecaefd8df0001d34305	780243454	1	main_z	7	main_z	107	stimuli_target_squaretriangles.svg	stimuli_distractor_trianglediamonds.svg	3	yes	0	0	2000
6.6.0	win	2022-12-20	12:09:17	12:15:52	394160	5a4c1ecaefd8df0001d34305	780243454	1	main_z	7	advance_on_keypress_ZEE	108	stimuli_target_squaretriangles.svg	stimuli_distractor_trianglediamonds.svg	3	yes	57	0	527
6.6.0	win	2022-12-20	12:09:17	12:15:54	396008	5a4c1ecaefd8df0001d34305	780243454	1	main_z	7	main_z	109	stimuli_distractor_trianglediamonds.svg	stimuli_target_trianglecircles.svg	25	yes	44	1	682
6.6.0	win	2022-12-20	12:09:17	12:15:54	396008	5a4c1ecaefd8df0001d34305	780243454	1	main_z	7	advance_on_keypress_ZEE	110	stimuli_distractor_trianglediamonds.svg	stimuli_target_trianglecircles.svg	25	yes	57	0	156
6.6.0	win	2022-12-20	12:09:17	12:15:55	397471	5a4c1ecaefd8df0001d34305	780243454	1	main_z	7	main_z	111	stimuli_target_circlediamonds.svg	stimuli_distractor_trianglediamonds.svg	2	yes	44	1	678
6.6.0	win	2022-12-20	12:09:17	12:15:55	397471	5a4c1ecaefd8df0001d34305	780243454	1	main_z	7	advance_on_keypress_ZEE	112	stimuli_target_circlediamonds.svg	stimuli_distractor_trianglediamonds.svg	2	yes	57	0	125
6.6.0	win	2022-12-20	12:09:17	12:15:58	400226	5a4c1ecaefd8df0001d34305	780243454	1	main_z	7	main_z	113	stimuli_distractor_trianglediamonds.svg	stimuli_target_squaretriangles.svg	11	yes	0	0	2000
6.6.0	win	2022-12-20	12:09:17	12:15:58	400226	5a4c1ecaefd8df0001d34305	780243454	1	main_z	7	advance_on_keypress_ZEE	114	stimuli_distractor_trianglediamonds.svg	stimuli_target_squaretriangles.svg	11	yes	57	0	1963
6.6.0	win	2022-12-20	12:09:17	12:16:01	403429	5a4c1ecaefd8df0001d34305	780243454	1	main_z	7	main_z	115	stimuli_target_circletriangles.svg	stimuli_distractor_diamondtriangles.svg	5	yes	44	1	603
6.6.0	win	2022-12-20	12:09:17	12:16:01	403429	5a4c1ecaefd8df0001d34305	780243454	1	main_z	7	advance_on_keypress_ZEE	116	stimuli_target_circletriangles.svg	stimuli_distractor_diamondtriangles.svg	5	yes	57	0	111
6.6.0	win	2022-12-20	12:09:17	12:16:04	406177	5a4c1ecaefd8df0001d34305	780243454	1	main_z	7	main_z	117	stimuli_distractor_diamondtriangles.svg	stimuli_target_squaretriangles.svg	15	yes	0	0	2000
6.6.0	win	2022-12-20	12:09:17	12:16:04	406177	5a4c1ecaefd8df0001d34305	780243454	1	main_z	7	advance_on_keypress_ZEE	118	stimuli_distractor_diamondtriangles.svg	stimuli_target_squaretriangles.svg	15	yes	57	0	1117
6.6.0	win	2022-12-20	12:09:17	12:16:06	408430	5a4c1ecaefd8df0001d34305	780243454	1	main_z	7	main_z	119	stimuli_target_circlediamonds.svg	stimuli_distractor_diamondtriangles.svg	6	yes	44	1	487
6.6.0	win	2022-12-20	12:09:17	12:16:06	408430	5a4c1ecaefd8df0001d34305	780243454	1	main_z	7	advance_on_keypress_ZEE	120	stimuli_target_circlediamonds.svg	stimuli_distractor_diamondtriangles.svg	6	yes	57	0	105
6.6.0	win	2022-12-20	12:09:17	12:16:08	409826	5a4c1ecaefd8df0001d34305	780243454	1	main_z	7	main_z	121	stimuli_target_trianglecircles.svg	stimuli_distractor_diamondtriangles.svg	21	yes	44	1	650
6.6.0	win	2022-12-20	12:09:17	12:16:08	409826	5a4c1ecaefd8df0001d34305	780243454	1	main_z	7	advance_on_keypress_ZEE	122	stimuli_target_trianglecircles.svg	stimuli_distractor_diamondtriangles.svg	21	yes	57	0	73
6.6.0	win	2022-12-20	12:09:17	12:16:11	412543	5a4c1ecaefd8df0001d34305	780243454	1	main_z	7	main_z	123	stimuli_distractor_diamondtriangles.svg	stimuli_distractor_diamondtriangles.svg	40	no	0	1	2000
6.6.0	win	2022-12-20	12:09:17	12:16:11	412543	5a4c1ecaefd8df0001d34305	780243454	1	main_z	7	advance_on_keypress_ZEE	124	stimuli_distractor_diamondtriangles.svg	stimuli_distractor_diamondtriangles.svg	40	no	57	0	424
6.6.0	win	2022-12-20	12:09:17	12:16:14	415610	5a4c1ecaefd8df0001d34305	780243454	1	main_z	7	main_z	125	stimuli_distractor_diamondtriangles.svg	stimuli_target_squarediamonds.svg	16	yes	0	0	2000
6.6.0	win	2022-12-20	12:09:17	12:16:14	415610	5a4c1ecaefd8df0001d34305	780243454	1	main_z	7	advance_on_keypress_ZEE	126	stimuli_distractor_diamondtriangles.svg	stimuli_target_squarediamonds.svg	16	yes	57	0	668
6.6.0	win	2022-12-20	12:09:17	12:16:16	417552	5a4c1ecaefd8df0001d34305	780243454	1	main_z	7	main_z	127	stimuli_distractor_diamondtriangles.svg	stimuli_target_trianglecircles.svg	29	yes	44	1	626
6.6.0	win	2022-12-20	12:09:17	12:16:16	417552	5a4c1ecaefd8df0001d34305	780243454	1	main_z	7	advance_on_keypress_ZEE	128	stimuli_distractor_diamondtriangles.svg	stimuli_target_trianglecircles.svg	29	yes	57	0	101
6.6.0	win	2022-12-20	12:09:17	12:16:17	419102	5a4c1ecaefd8df0001d34305	780243454	1	main_z	7	main_z	129	stimuli_distractor_trianglediamonds.svg	stimuli_target_circlediamonds.svg	10	yes	44	1	809
6.6.0	win	2022-12-20	12:09:17	12:16:17	419102	5a4c1ecaefd8df0001d34305	780243454	1	main_z	7	advance_on_keypress_ZEE	130	stimuli_distractor_trianglediamonds.svg	stimuli_target_circlediamonds.svg	10	yes	57	0	93
6.6.0	win	2022-12-20	12:09:17	12:16:20	421826	5a4c1ecaefd8df0001d34305	780243454	1	main_z	7	main_z	131	stimuli_target_squarediamonds.svg	stimuli_distractor_trianglediamonds.svg	4	yes	0	0	2000
6.6.0	win	2022-12-20	12:09:17	12:16:20	421826	5a4c1ecaefd8df0001d34305	780243454	1	main_z	7	advance_on_keypress_ZEE	132	stimuli_target_squarediamonds.svg	stimuli_distractor_trianglediamonds.svg	4	yes	57	0	1241
6.6.0	win	2022-12-20	12:09:17	12:16:24	425710	5a4c1ecaefd8df0001d34305	780243454	1	main_z	7	main_z	133	stimuli_distractor_diamondtriangles.svg	stimuli_target_diamondsquares.svg	32	yes	0	0	2000
6.6.0	win	2022-12-20	12:09:17	12:16:24	425710	5a4c1ecaefd8df0001d34305	780243454	1	main_z	7	advance_on_keypress_ZEE	134	stimuli_distractor_diamondtriangles.svg	stimuli_target_diamondsquares.svg	32	yes	57	0	785
6.6.0	win	2022-12-20	12:09:17	12:16:27	429143	5a4c1ecaefd8df0001d34305	780243454	1	main_z	7	main_z	135	stimuli_target_trianglecircles.svg	stimuli_distractor_trianglediamonds.svg	17	yes	0	0	2000
6.6.0	win	2022-12-20	12:09:17	12:16:27	429143	5a4c1ecaefd8df0001d34305	780243454	1	main_z	7	advance_on_keypress_ZEE	136	stimuli_target_trianglecircles.svg	stimuli_distractor_trianglediamonds.svg	17	yes	57	0	502
6.6.0	win	2022-12-20	12:09:17	12:16:29	430953	5a4c1ecaefd8df0001d34305	780243454	1	main_z	7	main_z	137	stimuli_distractor_diamondtriangles.svg	stimuli_target_diamondcircles.svg	31	yes	44	1	660
6.6.0	win	2022-12-20	12:09:17	12:16:29	430953	5a4c1ecaefd8df0001d34305	780243454	1	main_z	7	advance_on_keypress_ZEE	138	stimuli_distractor_diamondtriangles.svg	stimuli_target_diamondcircles.svg	31	yes	57	0	111
6.6.0	win	2022-12-20	12:09:17	12:16:30	432330	5a4c1ecaefd8df0001d34305	780243454	1	main_z	7	main_z	139	stimuli_distractor_trianglediamonds.svg	stimuli_distractor_diamondtriangles.svg	35	no	44	0	637
6.6.0	win	2022-12-20	12:09:17	12:16:30	432330	5a4c1ecaefd8df0001d34305	780243454	1	main_z	7	advance_on_keypress_ZEE	140	stimuli_distractor_trianglediamonds.svg	stimuli_distractor_diamondtriangles.svg	35	no	57	0	95
6.6.0	win	2022-12-20	12:09:17	12:16:32	433766	5a4c1ecaefd8df0001d34305	780243454	1	main_z	7	main_z	141	stimuli_distractor_diamondtriangles.svg	stimuli_target_circletriangles.svg	13	yes	44	1	706
6.6.0	win	2022-12-20	12:09:17	12:16:32	433766	5a4c1ecaefd8df0001d34305	780243454	1	main_z	7	advance_on_keypress_ZEE	142	stimuli_distractor_diamondtriangles.svg	stimuli_target_circletriangles.svg	13	yes	57	0	91
6.6.0	win	2022-12-20	12:09:17	12:16:35	436493	5a4c1ecaefd8df0001d34305	780243454	1	main_z	7	main_z	143	stimuli_distractor_trianglediamonds.svg	stimuli_distractor_trianglediamonds.svg	33	no	0	1	2000
6.6.0	win	2022-12-20	12:09:17	12:16:35	436493	5a4c1ecaefd8df0001d34305	780243454	1	main_z	7	advance_on_keypress_ZEE	144	stimuli_distractor_trianglediamonds.svg	stimuli_distractor_trianglediamonds.svg	33	no	57	0	496
6.6.0	win	2022-12-20	12:09:17	12:16:37	438736	5a4c1ecaefd8df0001d34305	780243454	1	main_z	7	main_z	145	stimuli_distractor_diamondtriangles.svg	stimuli_target_circlediamonds.svg	14	yes	44	1	1110
6.6.0	win	2022-12-20	12:09:17	12:16:37	438736	5a4c1ecaefd8df0001d34305	780243454	1	main_z	7	advance_on_keypress_ZEE	146	stimuli_distractor_diamondtriangles.svg	stimuli_target_circlediamonds.svg	14	yes	57	0	96
6.6.0	win	2022-12-20	12:09:17	12:16:39	441460	5a4c1ecaefd8df0001d34305	780243454	1	main_z	7	main_z	147	stimuli_target_trianglesquares.svg	stimuli_distractor_diamondtriangles.svg	22	yes	0	0	2000
6.6.0	win	2022-12-20	12:09:17	12:16:39	441460	5a4c1ecaefd8df0001d34305	780243454	1	main_z	7	advance_on_keypress_ZEE	148	stimuli_target_trianglesquares.svg	stimuli_distractor_diamondtriangles.svg	22	yes	57	0	449
6.6.0	win	2022-12-20	12:09:17	12:16:43	444543	5a4c1ecaefd8df0001d34305	780243454	1	main_z	7	main_z	149	stimuli_distractor_trianglediamonds.svg	stimuli_target_diamondcircles.svg	27	yes	0	0	2000
6.6.0	win	2022-12-20	12:09:17	12:16:43	444543	5a4c1ecaefd8df0001d34305	780243454	1	main_z	7	advance_on_keypress_ZEE	150	stimuli_distractor_trianglediamonds.svg	stimuli_target_diamondcircles.svg	27	yes	57	0	571
6.6.0	win	2022-12-20	12:09:17	12:16:46	447760	5a4c1ecaefd8df0001d34305	780243454	1	main_z	7	main_z	151	stimuli_distractor_trianglediamonds.svg	stimuli_distractor_trianglediamonds.svg	34	no	0	1	2000
6.6.0	win	2022-12-20	12:09:17	12:16:46	447760	5a4c1ecaefd8df0001d34305	780243454	1	main_z	7	advance_on_keypress_ZEE	152	stimuli_distractor_trianglediamonds.svg	stimuli_distractor_trianglediamonds.svg	34	no	57	0	621
6.6.0	win	2022-12-20	12:09:17	12:16:49	451027	5a4c1ecaefd8df0001d34305	780243454	1	main_z	7	main_z	153	stimuli_target_squaretriangles.svg	stimuli_distractor_diamondtriangles.svg	7	yes	0	0	2000
6.6.0	win	2022-12-20	12:09:17	12:16:49	451027	5a4c1ecaefd8df0001d34305	780243454	1	main_z	7	advance_on_keypress_ZEE	154	stimuli_target_squaretriangles.svg	stimuli_distractor_diamondtriangles.svg	7	yes	57	0	586
6.6.0	win	2022-12-20	12:09:17	12:16:52	454260	5a4c1ecaefd8df0001d34305	780243454	1	main_z	7	main_z	155	stimuli_target_circletriangles.svg	stimuli_distractor_trianglediamonds.svg	1	yes	0	0	2000
6.6.0	win	2022-12-20	12:09:17	12:16:52	454260	5a4c1ecaefd8df0001d34305	780243454	1	main_z	7	advance_on_keypress_ZEE	156	stimuli_target_circletriangles.svg	stimuli_distractor_trianglediamonds.svg	1	yes	57	0	234
6.6.0	win	2022-12-20	12:09:17	12:16:55	457156	5a4c1ecaefd8df0001d34305	780243454	1	main_z	7	main_z	157	stimuli_target_diamondcircles.svg	stimuli_distractor_diamondtriangles.svg	23	yes	0	0	2000
6.6.0	win	2022-12-20	12:09:17	12:16:55	457156	5a4c1ecaefd8df0001d34305	780243454	1	main_z	7	advance_on_keypress_ZEE	158	stimuli_target_diamondcircles.svg	stimuli_distractor_diamondtriangles.svg	23	yes	57	0	995
6.6.0	win	2022-12-20	12:09:17	12:16:59	460777	5a4c1ecaefd8df0001d34305	780243454	1	main_z	7	main_z	159	stimuli_target_trianglesquares.svg	stimuli_distractor_trianglediamonds.svg	18	yes	0	0	2000
6.6.0	win	2022-12-20	12:09:17	12:16:59	460777	5a4c1ecaefd8df0001d34305	780243454	1	main_z	7	advance_on_keypress_ZEE	160	stimuli_target_trianglesquares.svg	stimuli_distractor_trianglediamonds.svg	18	yes	57	0	1624
6.6.0	win	2022-12-20	12:09:17	12:17:48	509561	5a4c1ecaefd8df0001d34305	780243454	1	practice_slash	9	practice_slash	1	stimuli_distractor_diamondtriangles.svg	stimuli_target_circletriangles.svg	7	yes	0	0	2000
6.6.0	win	2022-12-20	12:09:17	12:17:48	509561	5a4c1ecaefd8df0001d34305	780243454	1	practice_slash	9	advance_on_keypress_SLASH	2	stimuli_distractor_diamondtriangles.svg	stimuli_target_circletriangles.svg	7	yes	57	0	613
6.6.0	win	2022-12-20	12:09:17	12:17:52	513811	5a4c1ecaefd8df0001d34305	780243454	1	practice_slash	9	practice_slash	3	stimuli_distractor_diamondtriangles.svg	stimuli_target_trianglecircles.svg	9	yes	0	0	2000
6.6.0	win	2022-12-20	12:09:17	12:17:52	513811	5a4c1ecaefd8df0001d34305	780243454	1	practice_slash	9	advance_on_keypress_SLASH	4	stimuli_distractor_diamondtriangles.svg	stimuli_target_trianglecircles.svg	9	yes	57	0	2163
6.6.0	win	2022-12-20	12:09:17	12:17:58	519611	5a4c1ecaefd8df0001d34305	780243454	1	practice_slash	9	practice_slash	5	stimuli_distractor_diamondtriangles.svg	stimuli_distractor_diamondtriangles.svg	13	no	0	1	2000
6.6.0	win	2022-12-20	12:09:17	12:17:58	519611	5a4c1ecaefd8df0001d34305	780243454	1	practice_slash	9	advance_on_keypress_SLASH	6	stimuli_distractor_diamondtriangles.svg	stimuli_distractor_diamondtriangles.svg	13	no	57	0	397
6.6.0	win	2022-12-20	12:09:17	12:18:00	522044	5a4c1ecaefd8df0001d34305	780243454	1	practice_slash	9	practice_slash	7	stimuli_target_circlediamonds.svg	stimuli_distractor_trianglediamonds.svg	4	yes	53	1	400
6.6.0	win	2022-12-20	12:09:17	12:18:00	522044	5a4c1ecaefd8df0001d34305	780243454	1	practice_slash	9	advance_on_keypress_SLASH	8	stimuli_target_circlediamonds.svg	stimuli_distractor_trianglediamonds.svg	4	yes	57	0	1690
6.6.0	win	2022-12-20	12:09:17	12:18:04	526246	5a4c1ecaefd8df0001d34305	780243454	1	practice_slash	9	practice_slash	9	stimuli_distractor_trianglediamonds.svg	stimuli_distractor_diamondtriangles.svg	16	no	53	0	868
6.6.0	win	2022-12-20	12:09:17	12:18:04	526246	5a4c1ecaefd8df0001d34305	780243454	1	practice_slash	9	advance_on_keypress_SLASH	10	stimuli_distractor_trianglediamonds.svg	stimuli_distractor_diamondtriangles.svg	16	no	57	0	742
6.6.0	win	2022-12-20	12:09:17	12:18:09	530628	5a4c1ecaefd8df0001d34305	780243454	1	practice_slash	9	practice_slash	11	stimuli_target_squarediamonds.svg	stimuli_distractor_diamondtriangles.svg	2	yes	0	0	2000
6.6.0	win	2022-12-20	12:09:17	12:18:09	530628	5a4c1ecaefd8df0001d34305	780243454	1	practice_slash	9	advance_on_keypress_SLASH	12	stimuli_target_squarediamonds.svg	stimuli_distractor_diamondtriangles.svg	2	yes	57	0	1228
6.6.0	win	2022-12-20	12:09:17	12:18:14	535494	5a4c1ecaefd8df0001d34305	780243454	1	practice_slash	9	practice_slash	13	stimuli_target_diamondsquares.svg	stimuli_distractor_diamondtriangles.svg	3	yes	0	0	2000
6.6.0	win	2022-12-20	12:09:17	12:18:14	535494	5a4c1ecaefd8df0001d34305	780243454	1	practice_slash	9	advance_on_keypress_SLASH	14	stimuli_target_diamondsquares.svg	stimuli_distractor_diamondtriangles.svg	3	yes	57	0	481
6.6.0	win	2022-12-20	12:09:17	12:18:18	539628	5a4c1ecaefd8df0001d34305	780243454	1	practice_slash	9	practice_slash	15	stimuli_target_diamondsquares.svg	stimuli_distractor_trianglediamonds.svg	6	yes	0	0	2000
6.6.0	win	2022-12-20	12:09:17	12:18:18	539628	5a4c1ecaefd8df0001d34305	780243454	1	practice_slash	9	advance_on_keypress_SLASH	16	stimuli_target_diamondsquares.svg	stimuli_distractor_trianglediamonds.svg	6	yes	57	0	658
6.6.0	win	2022-12-20	12:09:17	12:18:21	542699	5a4c1ecaefd8df0001d34305	780243454	1	practice_slash	9	practice_slash	17	stimuli_target_circlediamonds.svg	stimuli_distractor_diamondtriangles.svg	1	yes	53	1	771
6.6.0	win	2022-12-20	12:09:17	12:18:21	542699	5a4c1ecaefd8df0001d34305	780243454	1	practice_slash	9	advance_on_keypress_SLASH	18	stimuli_target_circlediamonds.svg	stimuli_distractor_diamondtriangles.svg	1	yes	57	0	906
6.6.0	win	2022-12-20	12:09:17	12:18:24	545761	5a4c1ecaefd8df0001d34305	780243454	1	practice_slash	9	practice_slash	19	stimuli_distractor_trianglediamonds.svg	stimuli_distractor_trianglediamonds.svg	15	no	53	0	503
6.6.0	win	2022-12-20	12:09:17	12:18:24	545761	5a4c1ecaefd8df0001d34305	780243454	1	practice_slash	9	advance_on_keypress_SLASH	20	stimuli_distractor_trianglediamonds.svg	stimuli_distractor_trianglediamonds.svg	15	no	57	0	810
6.6.0	win	2022-12-20	12:09:17	12:18:28	550211	5a4c1ecaefd8df0001d34305	780243454	1	practice_slash	9	practice_slash	21	stimuli_distractor_diamondtriangles.svg	stimuli_distractor_trianglediamonds.svg	14	no	0	1	2000
6.6.0	win	2022-12-20	12:09:17	12:18:28	550211	5a4c1ecaefd8df0001d34305	780243454	1	practice_slash	9	advance_on_keypress_SLASH	22	stimuli_distractor_diamondtriangles.svg	stimuli_distractor_trianglediamonds.svg	14	no	57	0	605
6.6.0	win	2022-12-20	12:09:17	12:18:32	554461	5a4c1ecaefd8df0001d34305	780243454	1	practice_slash	9	practice_slash	23	stimuli_distractor_trianglediamonds.svg	stimuli_target_squarediamonds.svg	11	yes	0	0	2000
6.6.0	win	2022-12-20	12:09:17	12:18:32	554461	5a4c1ecaefd8df0001d34305	780243454	1	practice_slash	9	advance_on_keypress_SLASH	24	stimuli_distractor_trianglediamonds.svg	stimuli_target_squarediamonds.svg	11	yes	57	0	697
6.6.0	win	2022-12-20	12:09:17	12:18:36	558134	5a4c1ecaefd8df0001d34305	780243454	1	practice_slash	9	practice_slash	25	stimuli_distractor_trianglediamonds.svg	stimuli_target_diamondcircles.svg	12	yes	53	1	1340
6.6.0	win	2022-12-20	12:09:17	12:18:36	558134	5a4c1ecaefd8df0001d34305	780243454	1	practice_slash	9	advance_on_keypress_SLASH	26	stimuli_distractor_trianglediamonds.svg	stimuli_target_diamondcircles.svg	12	yes	57	0	517
6.6.0	win	2022-12-20	12:09:17	12:18:39	561013	5a4c1ecaefd8df0001d34305	780243454	1	practice_slash	9	practice_slash	27	stimuli_target_squarediamonds.svg	stimuli_distractor_trianglediamonds.svg	5	yes	53	1	718
6.6.0	win	2022-12-20	12:09:17	12:18:39	561013	5a4c1ecaefd8df0001d34305	780243454	1	practice_slash	9	advance_on_keypress_SLASH	28	stimuli_target_squarediamonds.svg	stimuli_distractor_trianglediamonds.svg	5	yes	57	0	458
6.6.0	win	2022-12-20	12:09:17	12:18:42	563673	5a4c1ecaefd8df0001d34305	780243454	1	practice_slash	9	practice_slash	29	stimuli_distractor_trianglediamonds.svg	stimuli_target_circlediamonds.svg	10	yes	53	1	562
6.6.0	win	2022-12-20	12:09:17	12:18:42	563673	5a4c1ecaefd8df0001d34305	780243454	1	practice_slash	9	advance_on_keypress_SLASH	30	stimuli_distractor_trianglediamonds.svg	stimuli_target_circlediamonds.svg	10	yes	57	0	556
6.6.0	win	2022-12-20	12:09:17	12:18:46	567861	5a4c1ecaefd8df0001d34305	780243454	1	practice_slash	9	practice_slash	31	stimuli_distractor_diamondtriangles.svg	stimuli_target_diamondcircles.svg	8	yes	0	0	2000
6.6.0	win	2022-12-20	12:09:17	12:18:46	567861	5a4c1ecaefd8df0001d34305	780243454	1	practice_slash	9	advance_on_keypress_SLASH	32	stimuli_distractor_diamondtriangles.svg	stimuli_target_diamondcircles.svg	8	yes	57	0	664
6.6.0	win	2022-12-20	12:09:17	12:18:50	572103	5a4c1ecaefd8df0001d34305	780243454	1	main_slash	11	main_slash	1	stimuli_distractor_trianglediamonds.svg	stimuli_target_diamondcircles.svg	27	yes	53	1	359
6.6.0	win	2022-12-20	12:09:17	12:18:50	572103	5a4c1ecaefd8df0001d34305	780243454	1	main_slash	11	advance_on_keypress_SLASH	2	stimuli_distractor_trianglediamonds.svg	stimuli_target_diamondcircles.svg	27	yes	57	0	206
6.6.0	win	2022-12-20	12:09:17	12:18:53	574944	5a4c1ecaefd8df0001d34305	780243454	1	main_slash	11	main_slash	3	stimuli_distractor_diamondtriangles.svg	stimuli_target_circlediamonds.svg	14	yes	0	0	2000
6.6.0	win	2022-12-20	12:09:17	12:18:53	574944	5a4c1ecaefd8df0001d34305	780243454	1	main_slash	11	advance_on_keypress_SLASH	4	stimuli_distractor_diamondtriangles.svg	stimuli_target_circlediamonds.svg	14	yes	57	0	1040
6.6.0	win	2022-12-20	12:09:17	12:18:57	578628	5a4c1ecaefd8df0001d34305	780243454	1	main_slash	11	main_slash	5	stimuli_target_diamondcircles.svg	stimuli_distractor_diamondtriangles.svg	23	yes	0	0	2000
6.6.0	win	2022-12-20	12:09:17	12:18:57	578628	5a4c1ecaefd8df0001d34305	780243454	1	main_slash	11	advance_on_keypress_SLASH	6	stimuli_target_diamondcircles.svg	stimuli_distractor_diamondtriangles.svg	23	yes	57	0	534
6.6.0	win	2022-12-20	12:09:17	12:18:59	581147	5a4c1ecaefd8df0001d34305	780243454	1	main_slash	11	main_slash	7	stimuli_distractor_trianglediamonds.svg	stimuli_target_squaretriangles.svg	11	yes	53	1	1336
6.6.0	win	2022-12-20	12:09:17	12:18:59	581147	5a4c1ecaefd8df0001d34305	780243454	1	main_slash	11	advance_on_keypress_SLASH	8	stimuli_distractor_trianglediamonds.svg	stimuli_target_squaretriangles.svg	11	yes	57	0	221
6.6.0	win	2022-12-20	12:09:17	12:19:02	583940	5a4c1ecaefd8df0001d34305	780243454	1	main_slash	11	main_slash	9	stimuli_distractor_trianglediamonds.svg	stimuli_distractor_trianglediamonds.svg	33	no	53	0	1929
6.6.0	win	2022-12-20	12:09:17	12:19:02	583940	5a4c1ecaefd8df0001d34305	780243454	1	main_slash	11	advance_on_keypress_SLASH	10	stimuli_distractor_trianglediamonds.svg	stimuli_distractor_trianglediamonds.svg	33	no	57	0	148
6.6.0	win	2022-12-20	12:09:17	12:19:04	586187	5a4c1ecaefd8df0001d34305	780243454	1	main_slash	11	main_slash	11	stimuli_distractor_diamondtriangles.svg	stimuli_target_circletriangles.svg	13	yes	53	1	1475
6.6.0	win	2022-12-20	12:09:17	12:19:04	586187	5a4c1ecaefd8df0001d34305	780243454	1	main_slash	11	advance_on_keypress_SLASH	12	stimuli_distractor_diamondtriangles.svg	stimuli_target_circletriangles.svg	13	yes	57	0	4503
6.6.0	win	2022-12-20	12:09:17	12:19:11	593124	5a4c1ecaefd8df0001d34305	780243454	1	main_slash	11	main_slash	13	stimuli_target_circletriangles.svg	stimuli_distractor_trianglediamonds.svg	1	yes	53	1	1796
6.6.0	win	2022-12-20	12:09:17	12:19:11	593124	5a4c1ecaefd8df0001d34305	780243454	1	main_slash	11	advance_on_keypress_SLASH	14	stimuli_target_circletriangles.svg	stimuli_distractor_trianglediamonds.svg	1	yes	57	0	2304
6.6.0	win	2022-12-20	12:09:17	12:19:14	596111	5a4c1ecaefd8df0001d34305	780243454	1	main_slash	11	main_slash	15	stimuli_distractor_trianglediamonds.svg	stimuli_target_trianglecircles.svg	25	yes	53	1	50
6.6.0	win	2022-12-20	12:09:17	12:19:14	596111	5a4c1ecaefd8df0001d34305	780243454	1	main_slash	11	advance_on_keypress_SLASH	16	stimuli_distractor_trianglediamonds.svg	stimuli_target_trianglecircles.svg	25	yes	57	0	215
6.6.0	win	2022-12-20	12:09:17	12:19:15	597475	5a4c1ecaefd8df0001d34305	780243454	1	main_slash	11	main_slash	17	stimuli_target_circlediamonds.svg	stimuli_distractor_diamondtriangles.svg	6	yes	53	1	497
6.6.0	win	2022-12-20	12:09:17	12:19:15	597475	5a4c1ecaefd8df0001d34305	780243454	1	main_slash	11	advance_on_keypress_SLASH	18	stimuli_target_circlediamonds.svg	stimuli_distractor_diamondtriangles.svg	6	yes	57	0	148
6.6.0	win	2022-12-20	12:09:17	12:19:18	600245	5a4c1ecaefd8df0001d34305	780243454	1	main_slash	11	main_slash	19	stimuli_distractor_diamondtriangles.svg	stimuli_distractor_diamondtriangles.svg	39	no	0	1	2000
6.6.0	win	2022-12-20	12:09:17	12:19:18	600245	5a4c1ecaefd8df0001d34305	780243454	1	main_slash	11	advance_on_keypress_SLASH	20	stimuli_distractor_diamondtriangles.svg	stimuli_distractor_diamondtriangles.svg	39	no	57	0	155
6.6.0	win	2022-12-20	12:09:17	12:19:20	601726	5a4c1ecaefd8df0001d34305	780243454	1	main_slash	11	main_slash	21	stimuli_target_squarediamonds.svg	stimuli_distractor_diamondtriangles.svg	8	yes	53	1	681
6.6.0	win	2022-12-20	12:09:17	12:19:20	601726	5a4c1ecaefd8df0001d34305	780243454	1	main_slash	11	advance_on_keypress_SLASH	22	stimuli_target_squarediamonds.svg	stimuli_distractor_diamondtriangles.svg	8	yes	57	0	163
6.6.0	win	2022-12-20	12:09:17	12:19:21	603115	5a4c1ecaefd8df0001d34305	780243454	1	main_slash	11	main_slash	23	stimuli_target_circlediamonds.svg	stimuli_distractor_trianglediamonds.svg	2	yes	53	1	604
6.6.0	win	2022-12-20	12:09:17	12:19:21	603115	5a4c1ecaefd8df0001d34305	780243454	1	main_slash	11	advance_on_keypress_SLASH	24	stimuli_target_circlediamonds.svg	stimuli_distractor_trianglediamonds.svg	2	yes	57	0	737
6.6.0	win	2022-12-20	12:09:17	12:19:25	606495	5a4c1ecaefd8df0001d34305	780243454	1	main_slash	11	main_slash	25	stimuli_target_diamondsquares.svg	stimuli_distractor_diamondtriangles.svg	24	yes	0	0	2000
6.6.0	win	2022-12-20	12:09:17	12:19:25	606495	5a4c1ecaefd8df0001d34305	780243454	1	main_slash	11	advance_on_keypress_SLASH	26	stimuli_target_diamondsquares.svg	stimuli_distractor_diamondtriangles.svg	24	yes	57	0	386
6.6.0	win	2022-12-20	12:09:17	12:19:26	608144	5a4c1ecaefd8df0001d34305	780243454	1	main_slash	11	main_slash	27	stimuli_distractor_diamondtriangles.svg	stimuli_target_diamondsquares.svg	32	yes	53	1	616
6.6.0	win	2022-12-20	12:09:17	12:19:26	608144	5a4c1ecaefd8df0001d34305	780243454	1	main_slash	11	advance_on_keypress_SLASH	28	stimuli_distractor_diamondtriangles.svg	stimuli_target_diamondsquares.svg	32	yes	57	0	136
6.6.0	win	2022-12-20	12:09:17	12:19:28	610349	5a4c1ecaefd8df0001d34305	780243454	1	main_slash	11	main_slash	29	stimuli_distractor_diamondtriangles.svg	stimuli_target_squaretriangles.svg	15	yes	53	1	1421
6.6.0	win	2022-12-20	12:09:17	12:19:28	610349	5a4c1ecaefd8df0001d34305	780243454	1	main_slash	11	advance_on_keypress_SLASH	30	stimuli_distractor_diamondtriangles.svg	stimuli_target_squaretriangles.svg	15	yes	57	0	144
6.6.0	win	2022-12-20	12:09:17	12:19:30	612232	5a4c1ecaefd8df0001d34305	780243454	1	main_slash	11	main_slash	31	stimuli_distractor_diamondtriangles.svg	stimuli_target_diamondcircles.svg	31	yes	53	1	1104
6.6.0	win	2022-12-20	12:09:17	12:19:30	612232	5a4c1ecaefd8df0001d34305	780243454	1	main_slash	11	advance_on_keypress_SLASH	32	stimuli_distractor_diamondtriangles.svg	stimuli_target_diamondcircles.svg	31	yes	57	0	161
6.6.0	win	2022-12-20	12:09:17	12:19:33	615028	5a4c1ecaefd8df0001d34305	780243454	1	main_slash	11	main_slash	33	stimuli_distractor_diamondtriangles.svg	stimuli_distractor_trianglediamonds.svg	38	no	0	1	2000
6.6.0	win	2022-12-20	12:09:17	12:19:33	615028	5a4c1ecaefd8df0001d34305	780243454	1	main_slash	11	advance_on_keypress_SLASH	34	stimuli_distractor_diamondtriangles.svg	stimuli_distractor_trianglediamonds.svg	38	no	57	0	340
6.6.0	win	2022-12-20	12:09:17	12:19:35	616695	5a4c1ecaefd8df0001d34305	780243454	1	main_slash	11	main_slash	35	stimuli_distractor_trianglediamonds.svg	stimuli_target_diamondsquares.svg	28	yes	53	1	684
6.6.0	win	2022-12-20	12:09:17	12:19:35	616695	5a4c1ecaefd8df0001d34305	780243454	1	main_slash	11	advance_on_keypress_SLASH	36	stimuli_distractor_trianglediamonds.svg	stimuli_target_diamondsquares.svg	28	yes	57	0	129
6.6.0	win	2022-12-20	12:09:17	12:19:36	618161	5a4c1ecaefd8df0001d34305	780243454	1	main_slash	11	main_slash	37	stimuli_target_trianglesquares.svg	stimuli_distractor_diamondtriangles.svg	22	yes	53	1	700
6.6.0	win	2022-12-20	12:09:17	12:19:36	618161	5a4c1ecaefd8df0001d34305	780243454	1	main_slash	11	advance_on_keypress_SLASH	38	stimuli_target_trianglesquares.svg	stimuli_distractor_diamondtriangles.svg	22	yes	57	0	154
6.6.0	win	2022-12-20	12:09:17	12:19:38	619614	5a4c1ecaefd8df0001d34305	780243454	1	main_slash	11	main_slash	39	stimuli_target_trianglecircles.svg	stimuli_distractor_diamondtriangles.svg	21	yes	53	1	652
6.6.0	win	2022-12-20	12:09:17	12:19:38	619614	5a4c1ecaefd8df0001d34305	780243454	1	main_slash	11	advance_on_keypress_SLASH	40	stimuli_target_trianglecircles.svg	stimuli_distractor_diamondtriangles.svg	21	yes	57	0	168
6.6.0	win	2022-12-20	12:09:17	12:19:39	620902	5a4c1ecaefd8df0001d34305	780243454	1	main_slash	11	main_slash	41	stimuli_target_trianglecircles.svg	stimuli_distractor_trianglediamonds.svg	17	yes	53	1	474
6.6.0	win	2022-12-20	12:09:17	12:19:39	620902	5a4c1ecaefd8df0001d34305	780243454	1	main_slash	11	advance_on_keypress_SLASH	42	stimuli_target_trianglecircles.svg	stimuli_distractor_trianglediamonds.svg	17	yes	57	0	207
6.6.0	win	2022-12-20	12:09:17	12:19:40	622458	5a4c1ecaefd8df0001d34305	780243454	1	main_slash	11	main_slash	43	stimuli_distractor_trianglediamonds.svg	stimuli_distractor_diamondtriangles.svg	35	no	53	0	713
6.6.0	win	2022-12-20	12:09:17	12:19:40	622458	5a4c1ecaefd8df0001d34305	780243454	1	main_slash	11	advance_on_keypress_SLASH	44	stimuli_distractor_trianglediamonds.svg	stimuli_distractor_diamondtriangles.svg	35	no	57	0	187
6.6.0	win	2022-12-20	12:09:17	12:19:42	624273	5a4c1ecaefd8df0001d34305	780243454	1	main_slash	11	main_slash	45	stimuli_target_trianglesquares.svg	stimuli_distractor_trianglediamonds.svg	18	yes	53	1	995
6.6.0	win	2022-12-20	12:09:17	12:19:42	624273	5a4c1ecaefd8df0001d34305	780243454	1	main_slash	11	advance_on_keypress_SLASH	46	stimuli_target_trianglesquares.svg	stimuli_distractor_trianglediamonds.svg	18	yes	57	0	26
6.6.0	win	2022-12-20	12:09:17	12:19:44	625579	5a4c1ecaefd8df0001d34305	780243454	1	main_slash	11	main_slash	47	stimuli_distractor_diamondtriangles.svg	stimuli_target_trianglecircles.svg	29	yes	53	1	651
6.6.0	win	2022-12-20	12:09:17	12:19:44	625579	5a4c1ecaefd8df0001d34305	780243454	1	main_slash	11	advance_on_keypress_SLASH	48	stimuli_distractor_diamondtriangles.svg	stimuli_target_trianglecircles.svg	29	yes	57	0	162
6.6.0	win	2022-12-20	12:09:17	12:19:45	626955	5a4c1ecaefd8df0001d34305	780243454	1	main_slash	11	main_slash	49	stimuli_distractor_trianglediamonds.svg	stimuli_target_trianglesquares.svg	26	yes	53	1	577
6.6.0	win	2022-12-20	12:09:17	12:19:45	626955	5a4c1ecaefd8df0001d34305	780243454	1	main_slash	11	advance_on_keypress_SLASH	50	stimuli_distractor_trianglediamonds.svg	stimuli_target_trianglesquares.svg	26	yes	57	0	141
6.6.0	win	2022-12-20	12:09:17	12:19:47	628528	5a4c1ecaefd8df0001d34305	780243454	1	main_slash	11	main_slash	51	stimuli_distractor_diamondtriangles.svg	stimuli_target_squarediamonds.svg	16	yes	53	1	800
6.6.0	win	2022-12-20	12:09:17	12:19:47	628528	5a4c1ecaefd8df0001d34305	780243454	1	main_slash	11	advance_on_keypress_SLASH	52	stimuli_distractor_diamondtriangles.svg	stimuli_target_squarediamonds.svg	16	yes	57	0	146
6.6.0	win	2022-12-20	12:09:17	12:19:49	631312	5a4c1ecaefd8df0001d34305	780243454	1	main_slash	11	main_slash	53	stimuli_distractor_trianglediamonds.svg	stimuli_distractor_trianglediamonds.svg	34	no	0	1	2000
6.6.0	win	2022-12-20	12:09:17	12:19:49	631312	5a4c1ecaefd8df0001d34305	780243454	1	main_slash	11	advance_on_keypress_SLASH	54	stimuli_distractor_trianglediamonds.svg	stimuli_distractor_trianglediamonds.svg	34	no	57	0	678
6.6.0	win	2022-12-20	12:09:17	12:19:51	633321	5a4c1ecaefd8df0001d34305	780243454	1	main_slash	11	main_slash	55	stimuli_target_diamondcircles.svg	stimuli_distractor_trianglediamonds.svg	19	yes	53	1	693
6.6.0	win	2022-12-20	12:09:17	12:19:51	633321	5a4c1ecaefd8df0001d34305	780243454	1	main_slash	11	advance_on_keypress_SLASH	56	stimuli_target_diamondcircles.svg	stimuli_distractor_trianglediamonds.svg	19	yes	57	0	176
6.6.0	win	2022-12-20	12:09:17	12:19:53	634800	5a4c1ecaefd8df0001d34305	780243454	1	main_slash	11	main_slash	57	stimuli_target_diamondsquares.svg	stimuli_distractor_trianglediamonds.svg	20	yes	53	1	672
6.6.0	win	2022-12-20	12:09:17	12:19:53	634800	5a4c1ecaefd8df0001d34305	780243454	1	main_slash	11	advance_on_keypress_SLASH	58	stimuli_target_diamondsquares.svg	stimuli_distractor_trianglediamonds.svg	20	yes	57	0	182
6.6.0	win	2022-12-20	12:09:17	12:19:56	637628	5a4c1ecaefd8df0001d34305	780243454	1	main_slash	11	main_slash	59	stimuli_distractor_trianglediamonds.svg	stimuli_target_squarediamonds.svg	12	yes	0	0	2000
6.6.0	win	2022-12-20	12:09:17	12:19:56	637628	5a4c1ecaefd8df0001d34305	780243454	1	main_slash	11	advance_on_keypress_SLASH	60	stimuli_distractor_trianglediamonds.svg	stimuli_target_squarediamonds.svg	12	yes	57	0	1645
6.6.0	win	2022-12-20	12:09:17	12:19:58	640332	5a4c1ecaefd8df0001d34305	780243454	1	main_slash	11	main_slash	61	stimuli_distractor_trianglediamonds.svg	stimuli_target_circletriangles.svg	9	yes	53	1	420
6.6.0	win	2022-12-20	12:09:17	12:19:58	640332	5a4c1ecaefd8df0001d34305	780243454	1	main_slash	11	advance_on_keypress_SLASH	62	stimuli_distractor_trianglediamonds.svg	stimuli_target_circletriangles.svg	9	yes	57	0	150
6.6.0	win	2022-12-20	12:09:17	12:20:01	642691	5a4c1ecaefd8df0001d34305	780243454	1	main_slash	11	main_slash	63	stimuli_target_squarediamonds.svg	stimuli_distractor_trianglediamonds.svg	4	yes	53	1	1562
6.6.0	win	2022-12-20	12:09:17	12:20:01	642691	5a4c1ecaefd8df0001d34305	780243454	1	main_slash	11	advance_on_keypress_SLASH	64	stimuli_target_squarediamonds.svg	stimuli_distractor_trianglediamonds.svg	4	yes	57	0	1855
6.6.0	win	2022-12-20	12:09:17	12:20:04	646016	5a4c1ecaefd8df0001d34305	780243454	1	main_slash	11	main_slash	65	stimuli_distractor_trianglediamonds.svg	stimuli_distractor_diamondtriangles.svg	36	no	53	0	838
6.6.0	win	2022-12-20	12:09:17	12:20:04	646016	5a4c1ecaefd8df0001d34305	780243454	1	main_slash	11	advance_on_keypress_SLASH	66	stimuli_distractor_trianglediamonds.svg	stimuli_distractor_diamondtriangles.svg	36	no	57	0	209
6.6.0	win	2022-12-20	12:09:17	12:20:07	648862	5a4c1ecaefd8df0001d34305	780243454	1	main_slash	11	main_slash	67	stimuli_distractor_diamondtriangles.svg	stimuli_distractor_diamondtriangles.svg	40	no	0	1	2000
6.6.0	win	2022-12-20	12:09:17	12:20:07	648862	5a4c1ecaefd8df0001d34305	780243454	1	main_slash	11	advance_on_keypress_SLASH	68	stimuli_distractor_diamondtriangles.svg	stimuli_distractor_diamondtriangles.svg	40	no	57	0	93
6.6.0	win	2022-12-20	12:09:17	12:20:09	651468	5a4c1ecaefd8df0001d34305	780243454	1	main_slash	11	main_slash	69	stimuli_target_circletriangles.svg	stimuli_distractor_diamondtriangles.svg	5	yes	53	1	1873
6.6.0	win	2022-12-20	12:09:17	12:20:09	651468	5a4c1ecaefd8df0001d34305	780243454	1	main_slash	11	advance_on_keypress_SLASH	70	stimuli_target_circletriangles.svg	stimuli_distractor_diamondtriangles.svg	5	yes	57	0	334
6.6.0	win	2022-12-20	12:09:17	12:20:12	654445	5a4c1ecaefd8df0001d34305	780243454	1	main_slash	11	main_slash	71	stimuli_distractor_diamondtriangles.svg	stimuli_distractor_trianglediamonds.svg	37	no	0	1	2000
6.6.0	win	2022-12-20	12:09:17	12:20:12	654445	5a4c1ecaefd8df0001d34305	780243454	1	main_slash	11	advance_on_keypress_SLASH	72	stimuli_distractor_diamondtriangles.svg	stimuli_distractor_trianglediamonds.svg	37	no	57	0	691
6.6.0	win	2022-12-20	12:09:17	12:20:16	657787	5a4c1ecaefd8df0001d34305	780243454	1	main_slash	11	main_slash	73	stimuli_target_squaretriangles.svg	stimuli_distractor_diamondtriangles.svg	7	yes	0	0	2000
6.6.0	win	2022-12-20	12:09:17	12:20:16	657787	5a4c1ecaefd8df0001d34305	780243454	1	main_slash	11	advance_on_keypress_SLASH	74	stimuli_target_squaretriangles.svg	stimuli_distractor_diamondtriangles.svg	7	yes	57	0	256
6.6.0	win	2022-12-20	12:09:17	12:20:18	659772	5a4c1ecaefd8df0001d34305	780243454	1	main_slash	11	main_slash	75	stimuli_distractor_diamondtriangles.svg	stimuli_target_trianglesquares.svg	30	yes	53	1	1094
6.6.0	win	2022-12-20	12:09:17	12:20:18	659772	5a4c1ecaefd8df0001d34305	780243454	1	main_slash	11	advance_on_keypress_SLASH	76	stimuli_distractor_diamondtriangles.svg	stimuli_target_trianglesquares.svg	30	yes	57	0	287
6.6.0	win	2022-12-20	12:09:17	12:20:20	661789	5a4c1ecaefd8df0001d34305	780243454	1	main_slash	11	main_slash	77	stimuli_distractor_trianglediamonds.svg	stimuli_target_circlediamonds.svg	10	yes	53	1	1094
6.6.0	win	2022-12-20	12:09:17	12:20:20	661789	5a4c1ecaefd8df0001d34305	780243454	1	main_slash	11	advance_on_keypress_SLASH	78	stimuli_distractor_trianglediamonds.svg	stimuli_target_circlediamonds.svg	10	yes	57	0	248
6.6.0	win	2022-12-20	12:09:17	12:20:21	663079	5a4c1ecaefd8df0001d34305	780243454	1	main_slash	11	main_slash	79	stimuli_target_squaretriangles.svg	stimuli_distractor_trianglediamonds.svg	3	yes	53	1	417
6.6.0	win	2022-12-20	12:09:17	12:20:21	663079	5a4c1ecaefd8df0001d34305	780243454	1	main_slash	11	advance_on_keypress_SLASH	80	stimuli_target_squaretriangles.svg	stimuli_distractor_trianglediamonds.svg	3	yes	57	0	246
6.6.0	win	2022-12-20	12:09:17	12:20:24	665962	5a4c1ecaefd8df0001d34305	780243454	1	main_slash	11	main_slash	81	stimuli_distractor_diamondtriangles.svg	stimuli_target_trianglesquares.svg	30	yes	0	0	2000
6.6.0	win	2022-12-20	12:09:17	12:20:24	665962	5a4c1ecaefd8df0001d34305	780243454	1	main_slash	11	advance_on_keypress_SLASH	82	stimuli_distractor_diamondtriangles.svg	stimuli_target_trianglesquares.svg	30	yes	57	0	1749
6.6.0	win	2022-12-20	12:09:17	12:20:28	670362	5a4c1ecaefd8df0001d34305	780243454	1	main_slash	11	main_slash	83	stimuli_distractor_trianglediamonds.svg	stimuli_target_squaretriangles.svg	11	yes	0	0	2000
6.6.0	win	2022-12-20	12:09:17	12:20:28	670362	5a4c1ecaefd8df0001d34305	780243454	1	main_slash	11	advance_on_keypress_SLASH	84	stimuli_distractor_trianglediamonds.svg	stimuli_target_squaretriangles.svg	11	yes	57	0	2097
6.6.0	win	2022-12-20	12:09:17	12:20:33	675095	5a4c1ecaefd8df0001d34305	780243454	1	main_slash	11	main_slash	85	stimuli_distractor_diamondtriangles.svg	stimuli_target_diamondsquares.svg	32	yes	0	0	2000
6.6.0	win	2022-12-20	12:09:17	12:20:33	675095	5a4c1ecaefd8df0001d34305	780243454	1	main_slash	11	advance_on_keypress_SLASH	86	stimuli_distractor_diamondtriangles.svg	stimuli_target_diamondsquares.svg	32	yes	57	0	537
6.6.0	win	2022-12-20	12:09:17	12:20:35	676983	5a4c1ecaefd8df0001d34305	780243454	1	main_slash	11	main_slash	87	stimuli_distractor_diamondtriangles.svg	stimuli_target_squarediamonds.svg	16	yes	53	1	704
6.6.0	win	2022-12-20	12:09:17	12:20:35	676983	5a4c1ecaefd8df0001d34305	780243454	1	main_slash	11	advance_on_keypress_SLASH	88	stimuli_distractor_diamondtriangles.svg	stimuli_target_squarediamonds.svg	16	yes	57	0	169
6.6.0	win	2022-12-20	12:09:17	12:20:37	678631	5a4c1ecaefd8df0001d34305	780243454	1	main_slash	11	main_slash	89	stimuli_target_trianglesquares.svg	stimuli_distractor_trianglediamonds.svg	18	yes	53	1	836
6.6.0	win	2022-12-20	12:09:17	12:20:37	678631	5a4c1ecaefd8df0001d34305	780243454	1	main_slash	11	advance_on_keypress_SLASH	90	stimuli_target_trianglesquares.svg	stimuli_distractor_trianglediamonds.svg	18	yes	57	0	231
6.6.0	win	2022-12-20	12:09:17	12:20:38	679973	5a4c1ecaefd8df0001d34305	780243454	1	main_slash	11	main_slash	91	stimuli_distractor_trianglediamonds.svg	stimuli_target_trianglecircles.svg	25	yes	53	1	477
6.6.0	win	2022-12-20	12:09:17	12:20:38	679973	5a4c1ecaefd8df0001d34305	780243454	1	main_slash	11	advance_on_keypress_SLASH	92	stimuli_distractor_trianglediamonds.svg	stimuli_target_trianglecircles.svg	25	yes	57	0	150
6.6.0	win	2022-12-20	12:09:17	12:20:39	681355	5a4c1ecaefd8df0001d34305	780243454	1	main_slash	11	main_slash	93	stimuli_target_circletriangles.svg	stimuli_distractor_trianglediamonds.svg	1	yes	53	1	592
6.6.0	win	2022-12-20	12:09:17	12:20:39	681355	5a4c1ecaefd8df0001d34305	780243454	1	main_slash	11	advance_on_keypress_SLASH	94	stimuli_target_circletriangles.svg	stimuli_distractor_trianglediamonds.svg	1	yes	57	0	177
6.6.0	win	2022-12-20	12:09:17	12:20:41	682730	5a4c1ecaefd8df0001d34305	780243454	1	main_slash	11	main_slash	95	stimuli_target_diamondcircles.svg	stimuli_distractor_trianglediamonds.svg	19	yes	53	1	568
6.6.0	win	2022-12-20	12:09:17	12:20:41	682730	5a4c1ecaefd8df0001d34305	780243454	1	main_slash	11	advance_on_keypress_SLASH	96	stimuli_target_diamondcircles.svg	stimuli_distractor_trianglediamonds.svg	19	yes	57	0	151
6.6.0	win	2022-12-20	12:09:17	12:20:44	685529	5a4c1ecaefd8df0001d34305	780243454	1	main_slash	11	main_slash	97	stimuli_distractor_diamondtriangles.svg	stimuli_distractor_trianglediamonds.svg	37	no	0	1	2000
6.6.0	win	2022-12-20	12:09:17	12:20:44	685529	5a4c1ecaefd8df0001d34305	780243454	1	main_slash	11	advance_on_keypress_SLASH	98	stimuli_distractor_diamondtriangles.svg	stimuli_distractor_trianglediamonds.svg	37	no	57	0	695
6.6.0	win	2022-12-20	12:09:17	12:20:45	687199	5a4c1ecaefd8df0001d34305	780243454	1	main_slash	11	main_slash	99	stimuli_distractor_diamondtriangles.svg	stimuli_target_diamondcircles.svg	31	yes	53	1	336
6.6.0	win	2022-12-20	12:09:17	12:20:45	687199	5a4c1ecaefd8df0001d34305	780243454	1	main_slash	11	advance_on_keypress_SLASH	100	stimuli_distractor_diamondtriangles.svg	stimuli_target_diamondcircles.svg	31	yes	57	0	169
6.6.0	win	2022-12-20	12:09:17	12:20:46	688365	5a4c1ecaefd8df0001d34305	780243454	1	main_slash	11	main_slash	101	stimuli_distractor_trianglediamonds.svg	stimuli_distractor_diamondtriangles.svg	35	no	53	0	352
6.6.0	win	2022-12-20	12:09:17	12:20:46	688365	5a4c1ecaefd8df0001d34305	780243454	1	main_slash	11	advance_on_keypress_SLASH	102	stimuli_distractor_trianglediamonds.svg	stimuli_distractor_diamondtriangles.svg	35	no	57	0	234
6.6.0	win	2022-12-20	12:09:17	12:20:48	689863	5a4c1ecaefd8df0001d34305	780243454	1	main_slash	11	main_slash	103	stimuli_distractor_trianglediamonds.svg	stimuli_target_circlediamonds.svg	10	yes	53	1	618
6.6.0	win	2022-12-20	12:09:17	12:20:48	689863	5a4c1ecaefd8df0001d34305	780243454	1	main_slash	11	advance_on_keypress_SLASH	104	stimuli_distractor_trianglediamonds.svg	stimuli_target_circlediamonds.svg	10	yes	57	0	187
6.6.0	win	2022-12-20	12:09:17	12:20:49	691079	5a4c1ecaefd8df0001d34305	780243454	1	main_slash	11	main_slash	105	stimuli_distractor_trianglediamonds.svg	stimuli_target_squarediamonds.svg	12	yes	53	1	379
6.6.0	win	2022-12-20	12:09:17	12:20:49	691079	5a4c1ecaefd8df0001d34305	780243454	1	main_slash	11	advance_on_keypress_SLASH	106	stimuli_distractor_trianglediamonds.svg	stimuli_target_squarediamonds.svg	12	yes	57	0	179
6.6.0	win	2022-12-20	12:09:17	12:20:52	693895	5a4c1ecaefd8df0001d34305	780243454	1	main_slash	11	main_slash	107	stimuli_distractor_trianglediamonds.svg	stimuli_target_diamondcircles.svg	27	yes	0	0	2000
6.6.0	win	2022-12-20	12:09:17	12:20:52	693895	5a4c1ecaefd8df0001d34305	780243454	1	main_slash	11	advance_on_keypress_SLASH	108	stimuli_distractor_trianglediamonds.svg	stimuli_target_diamondcircles.svg	27	yes	57	0	645
6.6.0	win	2022-12-20	12:09:17	12:20:54	695719	5a4c1ecaefd8df0001d34305	780243454	1	main_slash	11	main_slash	109	stimuli_distractor_diamondtriangles.svg	stimuli_target_trianglecircles.svg	29	yes	53	1	539
6.6.0	win	2022-12-20	12:09:17	12:20:54	695719	5a4c1ecaefd8df0001d34305	780243454	1	main_slash	11	advance_on_keypress_SLASH	110	stimuli_distractor_diamondtriangles.svg	stimuli_target_trianglecircles.svg	29	yes	57	0	116
6.6.0	win	2022-12-20	12:09:17	12:20:57	698479	5a4c1ecaefd8df0001d34305	780243454	1	main_slash	11	main_slash	111	stimuli_target_circlediamonds.svg	stimuli_distractor_trianglediamonds.svg	2	yes	0	0	2000
6.6.0	win	2022-12-20	12:09:17	12:20:57	698479	5a4c1ecaefd8df0001d34305	780243454	1	main_slash	11	advance_on_keypress_SLASH	112	stimuli_target_circlediamonds.svg	stimuli_distractor_trianglediamonds.svg	2	yes	57	0	599
6.6.0	win	2022-12-20	12:09:17	12:20:58	700219	5a4c1ecaefd8df0001d34305	780243454	1	main_slash	11	main_slash	113	stimuli_distractor_diamondtriangles.svg	stimuli_target_circletriangles.svg	13	yes	53	1	489
6.6.0	win	2022-12-20	12:09:17	12:20:58	700219	5a4c1ecaefd8df0001d34305	780243454	1	main_slash	11	advance_on_keypress_SLASH	114	stimuli_distractor_diamondtriangles.svg	stimuli_target_circletriangles.svg	13	yes	57	0	180
6.6.0	win	2022-12-20	12:09:17	12:21:00	701663	5a4c1ecaefd8df0001d34305	780243454	1	main_slash	11	main_slash	115	stimuli_distractor_diamondtriangles.svg	stimuli_target_squaretriangles.svg	15	yes	53	1	634
6.6.0	win	2022-12-20	12:09:17	12:21:00	701663	5a4c1ecaefd8df0001d34305	780243454	1	main_slash	11	advance_on_keypress_SLASH	116	stimuli_distractor_diamondtriangles.svg	stimuli_target_squaretriangles.svg	15	yes	57	0	189
6.6.0	win	2022-12-20	12:09:17	12:21:03	704496	5a4c1ecaefd8df0001d34305	780243454	1	main_slash	11	main_slash	117	stimuli_distractor_trianglediamonds.svg	stimuli_distractor_trianglediamonds.svg	34	no	0	1	2000
6.6.0	win	2022-12-20	12:09:17	12:21:03	704496	5a4c1ecaefd8df0001d34305	780243454	1	main_slash	11	advance_on_keypress_SLASH	118	stimuli_distractor_trianglediamonds.svg	stimuli_distractor_trianglediamonds.svg	34	no	57	0	612
6.6.0	win	2022-12-20	12:09:17	12:21:04	706316	5a4c1ecaefd8df0001d34305	780243454	1	main_slash	11	main_slash	119	stimuli_distractor_diamondtriangles.svg	stimuli_target_circlediamonds.svg	14	yes	53	1	570
6.6.0	win	2022-12-20	12:09:17	12:21:04	706316	5a4c1ecaefd8df0001d34305	780243454	1	main_slash	11	advance_on_keypress_SLASH	120	stimuli_distractor_diamondtriangles.svg	stimuli_target_circlediamonds.svg	14	yes	57	0	173
6.6.0	win	2022-12-20	12:09:17	12:21:06	707988	5a4c1ecaefd8df0001d34305	780243454	1	main_slash	11	main_slash	121	stimuli_target_diamondsquares.svg	stimuli_distractor_trianglediamonds.svg	20	yes	53	1	858
6.6.0	win	2022-12-20	12:09:17	12:21:06	707988	5a4c1ecaefd8df0001d34305	780243454	1	main_slash	11	advance_on_keypress_SLASH	122	stimuli_target_diamondsquares.svg	stimuli_distractor_trianglediamonds.svg	20	yes	57	0	199
6.6.0	win	2022-12-20	12:09:17	12:21:09	710829	5a4c1ecaefd8df0001d34305	780243454	1	main_slash	11	main_slash	123	stimuli_distractor_diamondtriangles.svg	stimuli_distractor_diamondtriangles.svg	40	no	0	1	2000
6.6.0	win	2022-12-20	12:09:17	12:21:09	710829	5a4c1ecaefd8df0001d34305	780243454	1	main_slash	11	advance_on_keypress_SLASH	124	stimuli_distractor_diamondtriangles.svg	stimuli_distractor_diamondtriangles.svg	40	no	57	0	349
6.6.0	win	2022-12-20	12:09:17	12:21:10	712349	5a4c1ecaefd8df0001d34305	780243454	1	main_slash	11	main_slash	125	stimuli_target_trianglecircles.svg	stimuli_distractor_trianglediamonds.svg	17	yes	53	1	519
6.6.0	win	2022-12-20	12:09:17	12:21:10	712349	5a4c1ecaefd8df0001d34305	780243454	1	main_slash	11	advance_on_keypress_SLASH	126	stimuli_target_trianglecircles.svg	stimuli_distractor_trianglediamonds.svg	17	yes	57	0	165
6.6.0	win	2022-12-20	12:09:17	12:21:11	713429	5a4c1ecaefd8df0001d34305	780243454	1	main_slash	11	main_slash	127	stimuli_target_trianglesquares.svg	stimuli_distractor_diamondtriangles.svg	22	yes	53	1	266
6.6.0	win	2022-12-20	12:09:17	12:21:11	713429	5a4c1ecaefd8df0001d34305	780243454	1	main_slash	11	advance_on_keypress_SLASH	128	stimuli_target_trianglesquares.svg	stimuli_distractor_diamondtriangles.svg	22	yes	57	0	130
6.6.0	win	2022-12-20	12:09:17	12:21:13	714626	5a4c1ecaefd8df0001d34305	780243454	1	main_slash	11	main_slash	129	stimuli_target_circletriangles.svg	stimuli_distractor_diamondtriangles.svg	5	yes	53	1	429
6.6.0	win	2022-12-20	12:09:17	12:21:13	714626	5a4c1ecaefd8df0001d34305	780243454	1	main_slash	11	advance_on_keypress_SLASH	130	stimuli_target_circletriangles.svg	stimuli_distractor_diamondtriangles.svg	5	yes	57	0	143
6.6.0	win	2022-12-20	12:09:17	12:21:14	716293	5a4c1ecaefd8df0001d34305	780243454	1	main_slash	11	main_slash	131	stimuli_distractor_trianglediamonds.svg	stimuli_target_diamondsquares.svg	28	yes	53	1	896
6.6.0	win	2022-12-20	12:09:17	12:21:14	716293	5a4c1ecaefd8df0001d34305	780243454	1	main_slash	11	advance_on_keypress_SLASH	132	stimuli_distractor_trianglediamonds.svg	stimuli_target_diamondsquares.svg	28	yes	57	0	105
6.6.0	win	2022-12-20	12:09:17	12:21:15	717474	5a4c1ecaefd8df0001d34305	780243454	1	main_slash	11	main_slash	133	stimuli_distractor_diamondtriangles.svg	stimuli_distractor_trianglediamonds.svg	38	no	53	0	444
6.6.0	win	2022-12-20	12:09:17	12:21:15	717474	5a4c1ecaefd8df0001d34305	780243454	1	main_slash	11	advance_on_keypress_SLASH	134	stimuli_distractor_diamondtriangles.svg	stimuli_distractor_trianglediamonds.svg	38	no	57	0	168
6.6.0	win	2022-12-20	12:09:17	12:21:17	718623	5a4c1ecaefd8df0001d34305	780243454	1	main_slash	11	main_slash	135	stimuli_target_circlediamonds.svg	stimuli_distractor_diamondtriangles.svg	6	yes	53	1	343
6.6.0	win	2022-12-20	12:09:17	12:21:17	718623	5a4c1ecaefd8df0001d34305	780243454	1	main_slash	11	advance_on_keypress_SLASH	136	stimuli_target_circlediamonds.svg	stimuli_distractor_diamondtriangles.svg	6	yes	57	0	110
6.6.0	win	2022-12-20	12:09:17	12:21:18	719827	5a4c1ecaefd8df0001d34305	780243454	1	main_slash	11	main_slash	137	stimuli_target_squarediamonds.svg	stimuli_distractor_diamondtriangles.svg	8	yes	53	1	464
6.6.0	win	2022-12-20	12:09:17	12:21:18	719827	5a4c1ecaefd8df0001d34305	780243454	1	main_slash	11	advance_on_keypress_SLASH	138	stimuli_target_squarediamonds.svg	stimuli_distractor_diamondtriangles.svg	8	yes	57	0	127
6.6.0	win	2022-12-20	12:09:17	12:21:21	722579	5a4c1ecaefd8df0001d34305	780243454	1	main_slash	11	main_slash	139	stimuli_target_diamondcircles.svg	stimuli_distractor_diamondtriangles.svg	23	yes	0	0	2000
6.6.0	win	2022-12-20	12:09:17	12:21:21	722579	5a4c1ecaefd8df0001d34305	780243454	1	main_slash	11	advance_on_keypress_SLASH	140	stimuli_target_diamondcircles.svg	stimuli_distractor_diamondtriangles.svg	23	yes	57	0	494
6.6.0	win	2022-12-20	12:09:17	12:21:23	724691	5a4c1ecaefd8df0001d34305	780243454	1	main_slash	11	main_slash	141	stimuli_target_squarediamonds.svg	stimuli_distractor_trianglediamonds.svg	4	yes	53	1	978
6.6.0	win	2022-12-20	12:09:17	12:21:23	724691	5a4c1ecaefd8df0001d34305	780243454	1	main_slash	11	advance_on_keypress_SLASH	142	stimuli_target_squarediamonds.svg	stimuli_distractor_trianglediamonds.svg	4	yes	57	0	131
6.6.0	win	2022-12-20	12:09:17	12:21:24	726423	5a4c1ecaefd8df0001d34305	780243454	1	main_slash	11	main_slash	143	stimuli_distractor_trianglediamonds.svg	stimuli_distractor_trianglediamonds.svg	33	no	53	0	976
6.6.0	win	2022-12-20	12:09:17	12:21:24	726423	5a4c1ecaefd8df0001d34305	780243454	1	main_slash	11	advance_on_keypress_SLASH	144	stimuli_distractor_trianglediamonds.svg	stimuli_distractor_trianglediamonds.svg	33	no	57	0	560
6.6.0	win	2022-12-20	12:09:17	12:21:28	729614	5a4c1ecaefd8df0001d34305	780243454	1	main_slash	11	main_slash	145	stimuli_distractor_diamondtriangles.svg	stimuli_distractor_diamondtriangles.svg	39	no	0	1	2000
6.6.0	win	2022-12-20	12:09:17	12:21:28	729614	5a4c1ecaefd8df0001d34305	780243454	1	main_slash	11	advance_on_keypress_SLASH	146	stimuli_distractor_diamondtriangles.svg	stimuli_distractor_diamondtriangles.svg	39	no	57	0	392
6.6.0	win	2022-12-20	12:09:17	12:21:29	731233	5a4c1ecaefd8df0001d34305	780243454	1	main_slash	11	main_slash	147	stimuli_target_trianglecircles.svg	stimuli_distractor_diamondtriangles.svg	21	yes	53	1	586
6.6.0	win	2022-12-20	12:09:17	12:21:29	731233	5a4c1ecaefd8df0001d34305	780243454	1	main_slash	11	advance_on_keypress_SLASH	148	stimuli_target_trianglecircles.svg	stimuli_distractor_diamondtriangles.svg	21	yes	57	0	121
6.6.0	win	2022-12-20	12:09:17	12:21:32	733996	5a4c1ecaefd8df0001d34305	780243454	1	main_slash	11	main_slash	149	stimuli_distractor_trianglediamonds.svg	stimuli_distractor_diamondtriangles.svg	36	no	0	1	2000
6.6.0	win	2022-12-20	12:09:17	12:21:32	733996	5a4c1ecaefd8df0001d34305	780243454	1	main_slash	11	advance_on_keypress_SLASH	150	stimuli_distractor_trianglediamonds.svg	stimuli_distractor_diamondtriangles.svg	36	no	57	0	5361
6.6.0	win	2022-12-20	12:09:17	12:21:40	741996	5a4c1ecaefd8df0001d34305	780243454	1	main_slash	11	main_slash	151	stimuli_target_squaretriangles.svg	stimuli_distractor_diamondtriangles.svg	7	yes	0	0	2000
6.6.0	win	2022-12-20	12:09:17	12:21:40	741996	5a4c1ecaefd8df0001d34305	780243454	1	main_slash	11	advance_on_keypress_SLASH	152	stimuli_target_squaretriangles.svg	stimuli_distractor_diamondtriangles.svg	7	yes	57	0	913
6.6.0	win	2022-12-20	12:09:17	12:21:44	745546	5a4c1ecaefd8df0001d34305	780243454	1	main_slash	11	main_slash	153	stimuli_target_diamondsquares.svg	stimuli_distractor_diamondtriangles.svg	24	yes	0	0	2000
6.6.0	win	2022-12-20	12:09:17	12:21:44	745546	5a4c1ecaefd8df0001d34305	780243454	1	main_slash	11	advance_on_keypress_SLASH	154	stimuli_target_diamondsquares.svg	stimuli_distractor_diamondtriangles.svg	24	yes	57	0	1619
6.6.0	win	2022-12-20	12:09:17	12:21:48	749813	5a4c1ecaefd8df0001d34305	780243454	1	main_slash	11	main_slash	155	stimuli_distractor_trianglediamonds.svg	stimuli_target_trianglesquares.svg	26	yes	0	0	2000
6.6.0	win	2022-12-20	12:09:17	12:21:48	749813	5a4c1ecaefd8df0001d34305	780243454	1	main_slash	11	advance_on_keypress_SLASH	156	stimuli_distractor_trianglediamonds.svg	stimuli_target_trianglesquares.svg	26	yes	57	0	2427
6.6.0	win	2022-12-20	12:09:17	12:21:53	754879	5a4c1ecaefd8df0001d34305	780243454	1	main_slash	11	main_slash	157	stimuli_distractor_trianglediamonds.svg	stimuli_target_circletriangles.svg	9	yes	0	0	2000
6.6.0	win	2022-12-20	12:09:17	12:21:53	754879	5a4c1ecaefd8df0001d34305	780243454	1	main_slash	11	advance_on_keypress_SLASH	158	stimuli_distractor_trianglediamonds.svg	stimuli_target_circletriangles.svg	9	yes	57	0	2204
6.6.0	win	2022-12-20	12:09:17	12:21:58	759729	5a4c1ecaefd8df0001d34305	780243454	1	main_slash	11	main_slash	159	stimuli_target_squaretriangles.svg	stimuli_distractor_trianglediamonds.svg	3	yes	0	0	2000
6.6.0	win	2022-12-20	12:09:17	12:21:58	759729	5a4c1ecaefd8df0001d34305	780243454	1	main_slash	11	advance_on_keypress_SLASH	160	stimuli_target_squaretriangles.svg	stimuli_distractor_trianglediamonds.svg	3	yes	57	0	960