build	computer.platform	date	time	timestamp	time_elapsed_ms	subject	group	session	blockcode	blocknum	trialcode	trialnum	stimulus_left	stimulus_right	stim_index	target_present	response	correct	latency
6.6.1	win	2022-11-07	11:47:49	11:51:00	190085	5e3dff6b8714b707b9a258b0	796860068	1	practice_z	5	practice_z	1	stimuli_distractor_trianglediamonds.svg	stimuli_target_diamondcircles.svg	12	yes	44	1	1853
6.6.1	win	2022-11-07	11:47:49	11:51:00	190085	5e3dff6b8714b707b9a258b0	796860068	1	practice_z	5	advance_on_keypress_ZEE	2	stimuli_distractor_trianglediamonds.svg	stimuli_target_diamondcircles.svg	12	yes	57	0	631
6.6.1	win	2022-11-07	11:47:49	11:51:05	194339	5e3dff6b8714b707b9a258b0	796860068	1	practice_z	5	practice_z	3	stimuli_distractor_trianglediamonds.svg	stimuli_distractor_diamondtriangles.svg	16	no	0	1	2003
6.6.1	win	2022-11-07	11:47:49	11:51:05	194339	5e3dff6b8714b707b9a258b0	796860068	1	practice_z	5	advance_on_keypress_ZEE	4	stimuli_distractor_trianglediamonds.svg	stimuli_distractor_diamondtriangles.svg	16	no	57	0	533
6.6.1	win	2022-11-07	11:47:49	11:51:09	198492	5e3dff6b8714b707b9a258b0	796860068	1	practice_z	5	practice_z	5	stimuli_distractor_trianglediamonds.svg	stimuli_target_circlediamonds.svg	10	yes	0	0	2003
6.6.1	win	2022-11-07	11:47:49	11:51:09	198492	5e3dff6b8714b707b9a258b0	796860068	1	practice_z	5	advance_on_keypress_ZEE	6	stimuli_distractor_trianglediamonds.svg	stimuli_target_circlediamonds.svg	10	yes	57	0	511
6.6.1	win	2022-11-07	11:47:49	11:51:12	201937	5e3dff6b8714b707b9a258b0	796860068	1	practice_z	5	practice_z	7	stimuli_target_squarediamonds.svg	stimuli_distractor_diamondtriangles.svg	2	yes	44	1	1315
6.6.1	win	2022-11-07	11:47:49	11:51:12	201937	5e3dff6b8714b707b9a258b0	796860068	1	practice_z	5	advance_on_keypress_ZEE	8	stimuli_target_squarediamonds.svg	stimuli_distractor_diamondtriangles.svg	2	yes	57	0	567
6.6.1	win	2022-11-07	11:47:49	11:51:16	206124	5e3dff6b8714b707b9a258b0	796860068	1	practice_z	5	practice_z	9	stimuli_target_diamondsquares.svg	stimuli_distractor_trianglediamonds.svg	6	yes	0	0	2003
6.6.1	win	2022-11-07	11:47:49	11:51:16	206124	5e3dff6b8714b707b9a258b0	796860068	1	practice_z	5	advance_on_keypress_ZEE	10	stimuli_target_diamondsquares.svg	stimuli_distractor_trianglediamonds.svg	6	yes	57	0	383
6.6.1	win	2022-11-07	11:47:49	11:51:20	210111	5e3dff6b8714b707b9a258b0	796860068	1	practice_z	5	practice_z	11	stimuli_distractor_diamondtriangles.svg	stimuli_distractor_trianglediamonds.svg	14	no	44	0	1984
6.6.1	win	2022-11-07	11:47:49	11:51:20	210111	5e3dff6b8714b707b9a258b0	796860068	1	practice_z	5	advance_on_keypress_ZEE	12	stimuli_distractor_diamondtriangles.svg	stimuli_distractor_trianglediamonds.svg	14	no	57	0	7
6.6.1	win	2022-11-07	11:47:49	11:51:24	213305	5e3dff6b8714b707b9a258b0	796860068	1	practice_z	5	practice_z	13	stimuli_distractor_diamondtriangles.svg	stimuli_target_trianglecircles.svg	9	yes	44	1	1566
6.6.1	win	2022-11-07	11:47:49	11:51:24	213305	5e3dff6b8714b707b9a258b0	796860068	1	practice_z	5	advance_on_keypress_ZEE	14	stimuli_distractor_diamondtriangles.svg	stimuli_target_trianglecircles.svg	9	yes	57	0	259
6.6.1	win	2022-11-07	11:47:49	11:51:26	216076	5e3dff6b8714b707b9a258b0	796860068	1	practice_z	5	practice_z	15	stimuli_target_circlediamonds.svg	stimuli_distractor_diamondtriangles.svg	1	yes	44	1	893
6.6.1	win	2022-11-07	11:47:49	11:51:26	216076	5e3dff6b8714b707b9a258b0	796860068	1	practice_z	5	advance_on_keypress_ZEE	16	stimuli_target_circlediamonds.svg	stimuli_distractor_diamondtriangles.svg	1	yes	57	0	590
6.6.1	win	2022-11-07	11:47:49	11:51:31	220285	5e3dff6b8714b707b9a258b0	796860068	1	practice_z	5	practice_z	17	stimuli_distractor_diamondtriangles.svg	stimuli_distractor_diamondtriangles.svg	13	no	0	1	2003
6.6.1	win	2022-11-07	11:47:49	11:51:31	220285	5e3dff6b8714b707b9a258b0	796860068	1	practice_z	5	advance_on_keypress_ZEE	18	stimuli_distractor_diamondtriangles.svg	stimuli_distractor_diamondtriangles.svg	13	no	57	0	827
6.6.1	win	2022-11-07	11:47:49	11:51:35	224736	5e3dff6b8714b707b9a258b0	796860068	1	practice_z	5	practice_z	19	stimuli_distractor_trianglediamonds.svg	stimuli_distractor_trianglediamonds.svg	15	no	0	1	2003
6.6.1	win	2022-11-07	11:47:49	11:51:35	224736	5e3dff6b8714b707b9a258b0	796860068	1	practice_z	5	advance_on_keypress_ZEE	20	stimuli_distractor_trianglediamonds.svg	stimuli_distractor_trianglediamonds.svg	15	no	57	0	44
6.6.1	win	2022-11-07	11:47:49	11:51:38	227252	5e3dff6b8714b707b9a258b0	796860068	1	practice_z	5	practice_z	21	stimuli_target_circlediamonds.svg	stimuli_distractor_trianglediamonds.svg	4	yes	44	1	853
6.6.1	win	2022-11-07	11:47:49	11:51:38	227252	5e3dff6b8714b707b9a258b0	796860068	1	practice_z	5	advance_on_keypress_ZEE	22	stimuli_target_circlediamonds.svg	stimuli_distractor_trianglediamonds.svg	4	yes	57	0	424
6.6.1	win	2022-11-07	11:47:49	11:51:41	230576	5e3dff6b8714b707b9a258b0	796860068	1	practice_z	5	practice_z	23	stimuli_target_diamondsquares.svg	stimuli_distractor_diamondtriangles.svg	3	yes	44	1	1280
6.6.1	win	2022-11-07	11:47:49	11:51:41	230576	5e3dff6b8714b707b9a258b0	796860068	1	practice_z	5	advance_on_keypress_ZEE	24	stimuli_target_diamondsquares.svg	stimuli_distractor_diamondtriangles.svg	3	yes	57	0	427
6.6.1	win	2022-11-07	11:47:49	11:51:44	233590	5e3dff6b8714b707b9a258b0	796860068	1	practice_z	5	practice_z	25	stimuli_distractor_trianglediamonds.svg	stimuli_target_squarediamonds.svg	11	yes	44	1	968
6.6.1	win	2022-11-07	11:47:49	11:51:44	233590	5e3dff6b8714b707b9a258b0	796860068	1	practice_z	5	advance_on_keypress_ZEE	26	stimuli_distractor_trianglediamonds.svg	stimuli_target_squarediamonds.svg	11	yes	57	0	82
6.6.1	win	2022-11-07	11:47:49	11:51:48	237299	5e3dff6b8714b707b9a258b0	796860068	1	practice_z	5	practice_z	27	stimuli_distractor_diamondtriangles.svg	stimuli_target_circletriangles.svg	7	yes	0	0	2003
6.6.1	win	2022-11-07	11:47:49	11:51:48	237299	5e3dff6b8714b707b9a258b0	796860068	1	practice_z	5	advance_on_keypress_ZEE	28	stimuli_distractor_diamondtriangles.svg	stimuli_target_circletriangles.svg	7	yes	57	0	357
6.6.1	win	2022-11-07	11:47:49	11:51:50	239984	5e3dff6b8714b707b9a258b0	796860068	1	practice_z	5	practice_z	29	stimuli_target_squarediamonds.svg	stimuli_distractor_trianglediamonds.svg	5	yes	44	1	706
6.6.1	win	2022-11-07	11:47:49	11:51:50	239984	5e3dff6b8714b707b9a258b0	796860068	1	practice_z	5	advance_on_keypress_ZEE	30	stimuli_target_squarediamonds.svg	stimuli_distractor_trianglediamonds.svg	5	yes	57	0	316
6.6.1	win	2022-11-07	11:47:49	11:51:53	242908	5e3dff6b8714b707b9a258b0	796860068	1	practice_z	5	practice_z	31	stimuli_distractor_diamondtriangles.svg	stimuli_target_diamondcircles.svg	8	yes	44	1	987
6.6.1	win	2022-11-07	11:47:49	11:51:53	242908	5e3dff6b8714b707b9a258b0	796860068	1	practice_z	5	advance_on_keypress_ZEE	32	stimuli_distractor_diamondtriangles.svg	stimuli_target_diamondcircles.svg	8	yes	57	0	296
6.6.1	win	2022-11-07	11:47:49	11:52:03	252306	5e3dff6b8714b707b9a258b0	796860068	1	main_z	7	main_z	1	stimuli_distractor_diamondtriangles.svg	stimuli_target_diamondsquares.svg	32	yes	0	0	2003
6.6.1	win	2022-11-07	11:47:49	11:52:03	252306	5e3dff6b8714b707b9a258b0	796860068	1	main_z	7	advance_on_keypress_ZEE	2	stimuli_distractor_diamondtriangles.svg	stimuli_target_diamondsquares.svg	32	yes	57	0	692
6.6.1	win	2022-11-07	11:47:49	11:52:05	254611	5e3dff6b8714b707b9a258b0	796860068	1	main_z	7	main_z	3	stimuli_distractor_trianglediamonds.svg	stimuli_target_squaretriangles.svg	11	yes	44	1	995
6.6.1	win	2022-11-07	11:47:49	11:52:05	254611	5e3dff6b8714b707b9a258b0	796860068	1	main_z	7	advance_on_keypress_ZEE	4	stimuli_distractor_trianglediamonds.svg	stimuli_target_squaretriangles.svg	11	yes	57	0	207
6.6.1	win	2022-11-07	11:47:49	11:52:08	257438	5e3dff6b8714b707b9a258b0	796860068	1	main_z	7	main_z	5	stimuli_distractor_trianglediamonds.svg	stimuli_distractor_diamondtriangles.svg	35	no	0	1	2003
6.6.1	win	2022-11-07	11:47:49	11:52:08	257438	5e3dff6b8714b707b9a258b0	796860068	1	main_z	7	advance_on_keypress_ZEE	6	stimuli_distractor_trianglediamonds.svg	stimuli_distractor_diamondtriangles.svg	35	no	57	0	384
6.6.1	win	2022-11-07	11:47:49	11:52:10	259908	5e3dff6b8714b707b9a258b0	796860068	1	main_z	7	main_z	7	stimuli_distractor_diamondtriangles.svg	stimuli_distractor_diamondtriangles.svg	39	no	44	0	1471
6.6.1	win	2022-11-07	11:47:49	11:52:10	259908	5e3dff6b8714b707b9a258b0	796860068	1	main_z	7	advance_on_keypress_ZEE	8	stimuli_distractor_diamondtriangles.svg	stimuli_distractor_diamondtriangles.svg	39	no	57	0	482
6.6.1	win	2022-11-07	11:47:49	11:52:13	262260	5e3dff6b8714b707b9a258b0	796860068	1	main_z	7	main_z	9	stimuli_target_trianglesquares.svg	stimuli_distractor_diamondtriangles.svg	22	yes	44	1	1255
6.6.1	win	2022-11-07	11:47:49	11:52:13	262260	5e3dff6b8714b707b9a258b0	796860068	1	main_z	7	advance_on_keypress_ZEE	10	stimuli_target_trianglesquares.svg	stimuli_distractor_diamondtriangles.svg	22	yes	57	0	224
6.6.1	win	2022-11-07	11:47:49	11:52:14	264104	5e3dff6b8714b707b9a258b0	796860068	1	main_z	7	main_z	11	stimuli_target_squaretriangles.svg	stimuli_distractor_diamondtriangles.svg	7	yes	44	1	1009
6.6.1	win	2022-11-07	11:47:49	11:52:14	264104	5e3dff6b8714b707b9a258b0	796860068	1	main_z	7	advance_on_keypress_ZEE	12	stimuli_target_squaretriangles.svg	stimuli_distractor_diamondtriangles.svg	7	yes	57	0	150
6.6.1	win	2022-11-07	11:47:49	11:52:17	266869	5e3dff6b8714b707b9a258b0	796860068	1	main_z	7	main_z	13	stimuli_target_diamondsquares.svg	stimuli_distractor_diamondtriangles.svg	24	yes	0	0	2003
6.6.1	win	2022-11-07	11:47:49	11:52:17	266869	5e3dff6b8714b707b9a258b0	796860068	1	main_z	7	advance_on_keypress_ZEE	14	stimuli_target_diamondsquares.svg	stimuli_distractor_diamondtriangles.svg	24	yes	57	0	321
6.6.1	win	2022-11-07	11:47:49	11:52:20	269444	5e3dff6b8714b707b9a258b0	796860068	1	main_z	7	main_z	15	stimuli_target_diamondsquares.svg	stimuli_distractor_trianglediamonds.svg	20	yes	44	1	1639
6.6.1	win	2022-11-07	11:47:49	11:52:20	269444	5e3dff6b8714b707b9a258b0	796860068	1	main_z	7	advance_on_keypress_ZEE	16	stimuli_target_diamondsquares.svg	stimuli_distractor_trianglediamonds.svg	20	yes	57	0	180
6.6.1	win	2022-11-07	11:47:49	11:52:22	271614	5e3dff6b8714b707b9a258b0	796860068	1	main_z	7	main_z	17	stimuli_target_squarediamonds.svg	stimuli_distractor_trianglediamonds.svg	4	yes	44	1	1372
6.6.1	win	2022-11-07	11:47:49	11:52:22	271614	5e3dff6b8714b707b9a258b0	796860068	1	main_z	7	advance_on_keypress_ZEE	18	stimuli_target_squarediamonds.svg	stimuli_distractor_trianglediamonds.svg	4	yes	57	0	246
6.6.1	win	2022-11-07	11:47:49	11:52:24	273262	5e3dff6b8714b707b9a258b0	796860068	1	main_z	7	main_z	19	stimuli_target_circletriangles.svg	stimuli_distractor_trianglediamonds.svg	1	yes	44	1	791
6.6.1	win	2022-11-07	11:47:49	11:52:24	273262	5e3dff6b8714b707b9a258b0	796860068	1	main_z	7	advance_on_keypress_ZEE	20	stimuli_target_circletriangles.svg	stimuli_distractor_trianglediamonds.svg	1	yes	57	0	207
6.6.1	win	2022-11-07	11:47:49	11:52:25	275031	5e3dff6b8714b707b9a258b0	796860068	1	main_z	7	main_z	21	stimuli_target_trianglecircles.svg	stimuli_distractor_trianglediamonds.svg	17	yes	44	1	949
6.6.1	win	2022-11-07	11:47:49	11:52:25	275031	5e3dff6b8714b707b9a258b0	796860068	1	main_z	7	advance_on_keypress_ZEE	22	stimuli_target_trianglecircles.svg	stimuli_distractor_trianglediamonds.svg	17	yes	57	0	171
6.6.1	win	2022-11-07	11:47:49	11:52:27	276926	5e3dff6b8714b707b9a258b0	796860068	1	main_z	7	main_z	23	stimuli_distractor_trianglediamonds.svg	stimuli_target_squarediamonds.svg	12	yes	44	1	1115
6.6.1	win	2022-11-07	11:47:49	11:52:27	276926	5e3dff6b8714b707b9a258b0	796860068	1	main_z	7	advance_on_keypress_ZEE	24	stimuli_distractor_trianglediamonds.svg	stimuli_target_squarediamonds.svg	12	yes	57	0	147
6.6.1	win	2022-11-07	11:47:49	11:52:29	278538	5e3dff6b8714b707b9a258b0	796860068	1	main_z	7	main_z	25	stimuli_distractor_diamondtriangles.svg	stimuli_target_squaretriangles.svg	15	yes	44	1	852
6.6.1	win	2022-11-07	11:47:49	11:52:29	278538	5e3dff6b8714b707b9a258b0	796860068	1	main_z	7	advance_on_keypress_ZEE	26	stimuli_distractor_diamondtriangles.svg	stimuli_target_squaretriangles.svg	15	yes	57	0	159
6.6.1	win	2022-11-07	11:47:49	11:52:30	280055	5e3dff6b8714b707b9a258b0	796860068	1	main_z	7	main_z	27	stimuli_distractor_diamondtriangles.svg	stimuli_target_squarediamonds.svg	16	yes	44	1	745
6.6.1	win	2022-11-07	11:47:49	11:52:30	280055	5e3dff6b8714b707b9a258b0	796860068	1	main_z	7	advance_on_keypress_ZEE	28	stimuli_distractor_diamondtriangles.svg	stimuli_target_squarediamonds.svg	16	yes	57	0	185
6.6.1	win	2022-11-07	11:47:49	11:52:32	281628	5e3dff6b8714b707b9a258b0	796860068	1	main_z	7	main_z	29	stimuli_distractor_trianglediamonds.svg	stimuli_target_trianglesquares.svg	26	yes	44	1	775
6.6.1	win	2022-11-07	11:47:49	11:52:32	281628	5e3dff6b8714b707b9a258b0	796860068	1	main_z	7	advance_on_keypress_ZEE	30	stimuli_distractor_trianglediamonds.svg	stimuli_target_trianglesquares.svg	26	yes	57	0	232
6.6.1	win	2022-11-07	11:47:49	11:52:35	284474	5e3dff6b8714b707b9a258b0	796860068	1	main_z	7	main_z	31	stimuli_distractor_trianglediamonds.svg	stimuli_target_diamondsquares.svg	28	yes	0	0	2003
6.6.1	win	2022-11-07	11:47:49	11:52:35	284474	5e3dff6b8714b707b9a258b0	796860068	1	main_z	7	advance_on_keypress_ZEE	32	stimuli_distractor_trianglediamonds.svg	stimuli_target_diamondsquares.svg	28	yes	57	0	494
6.6.1	win	2022-11-07	11:47:49	11:52:37	286562	5e3dff6b8714b707b9a258b0	796860068	1	main_z	7	main_z	33	stimuli_target_trianglesquares.svg	stimuli_distractor_trianglediamonds.svg	18	yes	44	1	980
6.6.1	win	2022-11-07	11:47:49	11:52:37	286562	5e3dff6b8714b707b9a258b0	796860068	1	main_z	7	advance_on_keypress_ZEE	34	stimuli_target_trianglesquares.svg	stimuli_distractor_trianglediamonds.svg	18	yes	57	0	145
6.6.1	win	2022-11-07	11:47:49	11:52:39	288375	5e3dff6b8714b707b9a258b0	796860068	1	main_z	7	main_z	35	stimuli_distractor_diamondtriangles.svg	stimuli_target_circlediamonds.svg	14	yes	44	1	1045
6.6.1	win	2022-11-07	11:47:49	11:52:39	288375	5e3dff6b8714b707b9a258b0	796860068	1	main_z	7	advance_on_keypress_ZEE	36	stimuli_distractor_diamondtriangles.svg	stimuli_target_circlediamonds.svg	14	yes	57	0	181
6.6.1	win	2022-11-07	11:47:49	11:52:41	291176	5e3dff6b8714b707b9a258b0	796860068	1	main_z	7	main_z	37	stimuli_distractor_trianglediamonds.svg	stimuli_distractor_diamondtriangles.svg	36	no	0	1	2003
6.6.1	win	2022-11-07	11:47:49	11:52:41	291176	5e3dff6b8714b707b9a258b0	796860068	1	main_z	7	advance_on_keypress_ZEE	38	stimuli_distractor_trianglediamonds.svg	stimuli_distractor_diamondtriangles.svg	36	no	57	0	622
6.6.1	win	2022-11-07	11:47:49	11:52:43	293229	5e3dff6b8714b707b9a258b0	796860068	1	main_z	7	main_z	39	stimuli_target_squaretriangles.svg	stimuli_distractor_trianglediamonds.svg	3	yes	44	1	821
6.6.1	win	2022-11-07	11:47:49	11:52:43	293229	5e3dff6b8714b707b9a258b0	796860068	1	main_z	7	advance_on_keypress_ZEE	40	stimuli_target_squaretriangles.svg	stimuli_distractor_trianglediamonds.svg	3	yes	57	0	309
6.6.1	win	2022-11-07	11:47:49	11:52:46	295488	5e3dff6b8714b707b9a258b0	796860068	1	main_z	7	main_z	41	stimuli_distractor_diamondtriangles.svg	stimuli_target_diamondcircles.svg	31	yes	44	1	1336
6.6.1	win	2022-11-07	11:47:49	11:52:46	295488	5e3dff6b8714b707b9a258b0	796860068	1	main_z	7	advance_on_keypress_ZEE	42	stimuli_distractor_diamondtriangles.svg	stimuli_target_diamondcircles.svg	31	yes	57	0	227
6.6.1	win	2022-11-07	11:47:49	11:52:49	298329	5e3dff6b8714b707b9a258b0	796860068	1	main_z	7	main_z	43	stimuli_distractor_trianglediamonds.svg	stimuli_distractor_trianglediamonds.svg	33	no	0	1	2003
6.6.1	win	2022-11-07	11:47:49	11:52:49	298329	5e3dff6b8714b707b9a258b0	796860068	1	main_z	7	advance_on_keypress_ZEE	44	stimuli_distractor_trianglediamonds.svg	stimuli_distractor_trianglediamonds.svg	33	no	57	0	359
6.6.1	win	2022-11-07	11:47:49	11:52:50	300141	5e3dff6b8714b707b9a258b0	796860068	1	main_z	7	main_z	45	stimuli_distractor_trianglediamonds.svg	stimuli_target_trianglecircles.svg	25	yes	44	1	836
6.6.1	win	2022-11-07	11:47:49	11:52:50	300141	5e3dff6b8714b707b9a258b0	796860068	1	main_z	7	advance_on_keypress_ZEE	46	stimuli_distractor_trianglediamonds.svg	stimuli_target_trianglecircles.svg	25	yes	57	0	184
6.6.1	win	2022-11-07	11:47:49	11:52:52	302121	5e3dff6b8714b707b9a258b0	796860068	1	main_z	7	main_z	47	stimuli_target_circletriangles.svg	stimuli_distractor_diamondtriangles.svg	5	yes	44	1	1184
6.6.1	win	2022-11-07	11:47:49	11:52:52	302121	5e3dff6b8714b707b9a258b0	796860068	1	main_z	7	advance_on_keypress_ZEE	48	stimuli_target_circletriangles.svg	stimuli_distractor_diamondtriangles.svg	5	yes	57	0	401
6.6.1	win	2022-11-07	11:47:49	11:52:54	304153	5e3dff6b8714b707b9a258b0	796860068	1	main_z	7	main_z	49	stimuli_distractor_diamondtriangles.svg	stimuli_target_trianglesquares.svg	30	yes	44	1	1014
6.6.1	win	2022-11-07	11:47:49	11:52:54	304153	5e3dff6b8714b707b9a258b0	796860068	1	main_z	7	advance_on_keypress_ZEE	50	stimuli_distractor_diamondtriangles.svg	stimuli_target_trianglesquares.svg	30	yes	57	0	165
6.6.1	win	2022-11-07	11:47:49	11:52:57	306426	5e3dff6b8714b707b9a258b0	796860068	1	main_z	7	main_z	51	stimuli_distractor_diamondtriangles.svg	stimuli_distractor_trianglediamonds.svg	38	no	44	0	1495
6.6.1	win	2022-11-07	11:47:49	11:52:57	306426	5e3dff6b8714b707b9a258b0	796860068	1	main_z	7	advance_on_keypress_ZEE	52	stimuli_distractor_diamondtriangles.svg	stimuli_distractor_trianglediamonds.svg	38	no	57	0	201
6.6.1	win	2022-11-07	11:47:49	11:52:59	309246	5e3dff6b8714b707b9a258b0	796860068	1	main_z	7	main_z	53	stimuli_distractor_diamondtriangles.svg	stimuli_distractor_trianglediamonds.svg	37	no	0	1	2003
6.6.1	win	2022-11-07	11:47:49	11:52:59	309246	5e3dff6b8714b707b9a258b0	796860068	1	main_z	7	advance_on_keypress_ZEE	54	stimuli_distractor_diamondtriangles.svg	stimuli_distractor_trianglediamonds.svg	37	no	57	0	743
6.6.1	win	2022-11-07	11:47:49	11:53:02	311460	5e3dff6b8714b707b9a258b0	796860068	1	main_z	7	main_z	55	stimuli_distractor_trianglediamonds.svg	stimuli_target_circletriangles.svg	9	yes	44	1	856
6.6.1	win	2022-11-07	11:47:49	11:53:02	311460	5e3dff6b8714b707b9a258b0	796860068	1	main_z	7	advance_on_keypress_ZEE	56	stimuli_distractor_trianglediamonds.svg	stimuli_target_circletriangles.svg	9	yes	57	0	425
6.6.1	win	2022-11-07	11:47:49	11:53:03	313240	5e3dff6b8714b707b9a258b0	796860068	1	main_z	7	main_z	57	stimuli_target_circlediamonds.svg	stimuli_distractor_diamondtriangles.svg	6	yes	44	1	740
6.6.1	win	2022-11-07	11:47:49	11:53:03	313240	5e3dff6b8714b707b9a258b0	796860068	1	main_z	7	advance_on_keypress_ZEE	58	stimuli_target_circlediamonds.svg	stimuli_distractor_diamondtriangles.svg	6	yes	57	0	271
6.6.1	win	2022-11-07	11:47:49	11:53:05	314879	5e3dff6b8714b707b9a258b0	796860068	1	main_z	7	main_z	59	stimuli_distractor_trianglediamonds.svg	stimuli_target_circlediamonds.svg	10	yes	44	1	754
6.6.1	win	2022-11-07	11:47:49	11:53:05	314879	5e3dff6b8714b707b9a258b0	796860068	1	main_z	7	advance_on_keypress_ZEE	60	stimuli_distractor_trianglediamonds.svg	stimuli_target_circlediamonds.svg	10	yes	57	0	303
6.6.1	win	2022-11-07	11:47:49	11:53:07	317148	5e3dff6b8714b707b9a258b0	796860068	1	main_z	7	main_z	61	stimuli_distractor_diamondtriangles.svg	stimuli_target_trianglecircles.svg	29	yes	44	1	1356
6.6.1	win	2022-11-07	11:47:49	11:53:07	317148	5e3dff6b8714b707b9a258b0	796860068	1	main_z	7	advance_on_keypress_ZEE	62	stimuli_distractor_diamondtriangles.svg	stimuli_target_trianglecircles.svg	29	yes	57	0	208
6.6.1	win	2022-11-07	11:47:49	11:53:09	318837	5e3dff6b8714b707b9a258b0	796860068	1	main_z	7	main_z	63	stimuli_distractor_trianglediamonds.svg	stimuli_target_diamondcircles.svg	27	yes	44	1	865
6.6.1	win	2022-11-07	11:47:49	11:53:09	318837	5e3dff6b8714b707b9a258b0	796860068	1	main_z	7	advance_on_keypress_ZEE	64	stimuli_distractor_trianglediamonds.svg	stimuli_target_diamondcircles.svg	27	yes	57	0	235
6.6.1	win	2022-11-07	11:47:49	11:53:11	320603	5e3dff6b8714b707b9a258b0	796860068	1	main_z	7	main_z	65	stimuli_target_squarediamonds.svg	stimuli_distractor_diamondtriangles.svg	8	yes	44	1	922
6.6.1	win	2022-11-07	11:47:49	11:53:11	320603	5e3dff6b8714b707b9a258b0	796860068	1	main_z	7	advance_on_keypress_ZEE	66	stimuli_target_squarediamonds.svg	stimuli_distractor_diamondtriangles.svg	8	yes	57	0	161
6.6.1	win	2022-11-07	11:47:49	11:53:14	323392	5e3dff6b8714b707b9a258b0	796860068	1	main_z	7	main_z	67	stimuli_distractor_diamondtriangles.svg	stimuli_target_circletriangles.svg	13	yes	0	0	2003
6.6.1	win	2022-11-07	11:47:49	11:53:14	323392	5e3dff6b8714b707b9a258b0	796860068	1	main_z	7	advance_on_keypress_ZEE	68	stimuli_distractor_diamondtriangles.svg	stimuli_target_circletriangles.svg	13	yes	57	0	264
6.6.1	win	2022-11-07	11:47:49	11:53:15	324983	5e3dff6b8714b707b9a258b0	796860068	1	main_z	7	main_z	69	stimuli_target_diamondcircles.svg	stimuli_distractor_trianglediamonds.svg	19	yes	44	1	712
6.6.1	win	2022-11-07	11:47:49	11:53:15	324983	5e3dff6b8714b707b9a258b0	796860068	1	main_z	7	advance_on_keypress_ZEE	70	stimuli_target_diamondcircles.svg	stimuli_distractor_trianglediamonds.svg	19	yes	57	0	298
6.6.1	win	2022-11-07	11:47:49	11:53:18	327899	5e3dff6b8714b707b9a258b0	796860068	1	main_z	7	main_z	71	stimuli_distractor_trianglediamonds.svg	stimuli_distractor_trianglediamonds.svg	34	no	0	1	2003
6.6.1	win	2022-11-07	11:47:49	11:53:18	327899	5e3dff6b8714b707b9a258b0	796860068	1	main_z	7	advance_on_keypress_ZEE	72	stimuli_distractor_trianglediamonds.svg	stimuli_distractor_trianglediamonds.svg	34	no	57	0	542
6.6.1	win	2022-11-07	11:47:49	11:53:20	329872	5e3dff6b8714b707b9a258b0	796860068	1	main_z	7	main_z	73	stimuli_target_diamondcircles.svg	stimuli_distractor_diamondtriangles.svg	23	yes	44	1	817
6.6.1	win	2022-11-07	11:47:49	11:53:20	329872	5e3dff6b8714b707b9a258b0	796860068	1	main_z	7	advance_on_keypress_ZEE	74	stimuli_target_diamondcircles.svg	stimuli_distractor_diamondtriangles.svg	23	yes	57	0	312
6.6.1	win	2022-11-07	11:47:49	11:53:23	332463	5e3dff6b8714b707b9a258b0	796860068	1	main_z	7	main_z	75	stimuli_target_trianglecircles.svg	stimuli_distractor_diamondtriangles.svg	21	yes	44	1	1664
6.6.1	win	2022-11-07	11:47:49	11:53:23	332463	5e3dff6b8714b707b9a258b0	796860068	1	main_z	7	advance_on_keypress_ZEE	76	stimuli_target_trianglecircles.svg	stimuli_distractor_diamondtriangles.svg	21	yes	57	0	244
6.6.1	win	2022-11-07	11:47:49	11:53:25	335000	5e3dff6b8714b707b9a258b0	796860068	1	main_z	7	main_z	77	stimuli_target_circlediamonds.svg	stimuli_distractor_trianglediamonds.svg	2	yes	44	1	1680
6.6.1	win	2022-11-07	11:47:49	11:53:25	335000	5e3dff6b8714b707b9a258b0	796860068	1	main_z	7	advance_on_keypress_ZEE	78	stimuli_target_circlediamonds.svg	stimuli_distractor_trianglediamonds.svg	2	yes	57	0	308
6.6.1	win	2022-11-07	11:47:49	11:53:28	337929	5e3dff6b8714b707b9a258b0	796860068	1	main_z	7	main_z	79	stimuli_distractor_diamondtriangles.svg	stimuli_distractor_diamondtriangles.svg	40	no	0	1	2003
6.6.1	win	2022-11-07	11:47:49	11:53:28	337929	5e3dff6b8714b707b9a258b0	796860068	1	main_z	7	advance_on_keypress_ZEE	80	stimuli_distractor_diamondtriangles.svg	stimuli_distractor_diamondtriangles.svg	40	no	57	0	482
6.6.1	win	2022-11-07	11:47:49	11:53:31	340297	5e3dff6b8714b707b9a258b0	796860068	1	main_z	7	main_z	81	stimuli_distractor_diamondtriangles.svg	stimuli_target_squarediamonds.svg	16	yes	44	1	1275
6.6.1	win	2022-11-07	11:47:49	11:53:31	340297	5e3dff6b8714b707b9a258b0	796860068	1	main_z	7	advance_on_keypress_ZEE	82	stimuli_distractor_diamondtriangles.svg	stimuli_target_squarediamonds.svg	16	yes	57	0	194
6.6.1	win	2022-11-07	11:47:49	11:53:33	343109	5e3dff6b8714b707b9a258b0	796860068	1	main_z	7	main_z	83	stimuli_distractor_trianglediamonds.svg	stimuli_target_trianglesquares.svg	26	yes	0	0	2003
6.6.1	win	2022-11-07	11:47:49	11:53:33	343109	5e3dff6b8714b707b9a258b0	796860068	1	main_z	7	advance_on_keypress_ZEE	84	stimuli_distractor_trianglediamonds.svg	stimuli_target_trianglesquares.svg	26	yes	57	0	431
6.6.1	win	2022-11-07	11:47:49	11:53:35	344832	5e3dff6b8714b707b9a258b0	796860068	1	main_z	7	main_z	85	stimuli_target_diamondcircles.svg	stimuli_distractor_trianglediamonds.svg	19	yes	44	1	678
6.6.1	win	2022-11-07	11:47:49	11:53:35	344832	5e3dff6b8714b707b9a258b0	796860068	1	main_z	7	advance_on_keypress_ZEE	86	stimuli_target_diamondcircles.svg	stimuli_distractor_trianglediamonds.svg	19	yes	57	0	406
6.6.1	win	2022-11-07	11:47:49	11:53:37	346631	5e3dff6b8714b707b9a258b0	796860068	1	main_z	7	main_z	87	stimuli_target_diamondsquares.svg	stimuli_distractor_trianglediamonds.svg	20	yes	44	1	784
6.6.1	win	2022-11-07	11:47:49	11:53:37	346631	5e3dff6b8714b707b9a258b0	796860068	1	main_z	7	advance_on_keypress_ZEE	88	stimuli_target_diamondsquares.svg	stimuli_distractor_trianglediamonds.svg	20	yes	57	0	350
6.6.1	win	2022-11-07	11:47:49	11:53:39	348585	5e3dff6b8714b707b9a258b0	796860068	1	main_z	7	main_z	89	stimuli_distractor_trianglediamonds.svg	stimuli_target_diamondcircles.svg	27	yes	44	1	987
6.6.1	win	2022-11-07	11:47:49	11:53:39	348585	5e3dff6b8714b707b9a258b0	796860068	1	main_z	7	advance_on_keypress_ZEE	90	stimuli_distractor_trianglediamonds.svg	stimuli_target_diamondcircles.svg	27	yes	57	0	214
6.6.1	win	2022-11-07	11:47:49	11:53:41	350354	5e3dff6b8714b707b9a258b0	796860068	1	main_z	7	main_z	91	stimuli_distractor_diamondtriangles.svg	stimuli_target_diamondcircles.svg	31	yes	44	1	936
6.6.1	win	2022-11-07	11:47:49	11:53:41	350354	5e3dff6b8714b707b9a258b0	796860068	1	main_z	7	advance_on_keypress_ZEE	92	stimuli_distractor_diamondtriangles.svg	stimuli_target_diamondcircles.svg	31	yes	57	0	251
6.6.1	win	2022-11-07	11:47:49	11:53:43	352606	5e3dff6b8714b707b9a258b0	796860068	1	main_z	7	main_z	93	stimuli_distractor_trianglediamonds.svg	stimuli_distractor_diamondtriangles.svg	36	no	44	0	1389
6.6.1	win	2022-11-07	11:47:49	11:53:43	352606	5e3dff6b8714b707b9a258b0	796860068	1	main_z	7	advance_on_keypress_ZEE	94	stimuli_distractor_trianglediamonds.svg	stimuli_distractor_diamondtriangles.svg	36	no	57	0	155
6.6.1	win	2022-11-07	11:47:49	11:53:45	354395	5e3dff6b8714b707b9a258b0	796860068	1	main_z	7	main_z	95	stimuli_distractor_trianglediamonds.svg	stimuli_target_squaretriangles.svg	11	yes	44	1	1019
6.6.1	win	2022-11-07	11:47:49	11:53:45	354395	5e3dff6b8714b707b9a258b0	796860068	1	main_z	7	advance_on_keypress_ZEE	96	stimuli_distractor_trianglediamonds.svg	stimuli_target_squaretriangles.svg	11	yes	57	0	213
6.6.1	win	2022-11-07	11:47:49	11:53:46	356140	5e3dff6b8714b707b9a258b0	796860068	1	main_z	7	main_z	97	stimuli_target_diamondcircles.svg	stimuli_distractor_diamondtriangles.svg	23	yes	44	1	923
6.6.1	win	2022-11-07	11:47:49	11:53:46	356140	5e3dff6b8714b707b9a258b0	796860068	1	main_z	7	advance_on_keypress_ZEE	98	stimuli_target_diamondcircles.svg	stimuli_distractor_diamondtriangles.svg	23	yes	57	0	208
6.6.1	win	2022-11-07	11:47:49	11:53:49	358970	5e3dff6b8714b707b9a258b0	796860068	1	main_z	7	main_z	99	stimuli_distractor_diamondtriangles.svg	stimuli_target_diamondsquares.svg	32	yes	0	0	2003
6.6.1	win	2022-11-07	11:47:49	11:53:49	358970	5e3dff6b8714b707b9a258b0	796860068	1	main_z	7	advance_on_keypress_ZEE	100	stimuli_distractor_diamondtriangles.svg	stimuli_target_diamondsquares.svg	32	yes	57	0	734
6.6.1	win	2022-11-07	11:47:49	11:53:53	362324	5e3dff6b8714b707b9a258b0	796860068	1	main_z	7	main_z	101	stimuli_distractor_diamondtriangles.svg	stimuli_distractor_diamondtriangles.svg	40	no	0	1	2003
6.6.1	win	2022-11-07	11:47:49	11:53:53	362324	5e3dff6b8714b707b9a258b0	796860068	1	main_z	7	advance_on_keypress_ZEE	102	stimuli_distractor_diamondtriangles.svg	stimuli_distractor_diamondtriangles.svg	40	no	57	0	519
6.6.1	win	2022-11-07	11:47:49	11:53:55	364344	5e3dff6b8714b707b9a258b0	796860068	1	main_z	7	main_z	103	stimuli_distractor_diamondtriangles.svg	stimuli_target_trianglecircles.svg	29	yes	44	1	892
6.6.1	win	2022-11-07	11:47:49	11:53:55	364344	5e3dff6b8714b707b9a258b0	796860068	1	main_z	7	advance_on_keypress_ZEE	104	stimuli_distractor_diamondtriangles.svg	stimuli_target_trianglecircles.svg	29	yes	57	0	277
6.6.1	win	2022-11-07	11:47:49	11:53:57	367241	5e3dff6b8714b707b9a258b0	796860068	1	main_z	7	main_z	105	stimuli_distractor_diamondtriangles.svg	stimuli_distractor_diamondtriangles.svg	39	no	0	1	2003
6.6.1	win	2022-11-07	11:47:49	11:53:57	367241	5e3dff6b8714b707b9a258b0	796860068	1	main_z	7	advance_on_keypress_ZEE	106	stimuli_distractor_diamondtriangles.svg	stimuli_distractor_diamondtriangles.svg	39	no	57	0	625
6.6.1	win	2022-11-07	11:47:49	11:54:01	370484	5e3dff6b8714b707b9a258b0	796860068	1	main_z	7	main_z	107	stimuli_distractor_diamondtriangles.svg	stimuli_distractor_trianglediamonds.svg	38	no	0	1	2003
6.6.1	win	2022-11-07	11:47:49	11:54:01	370484	5e3dff6b8714b707b9a258b0	796860068	1	main_z	7	advance_on_keypress_ZEE	108	stimuli_distractor_diamondtriangles.svg	stimuli_distractor_trianglediamonds.svg	38	no	57	0	979
6.6.1	win	2022-11-07	11:47:49	11:54:03	372897	5e3dff6b8714b707b9a258b0	796860068	1	main_z	7	main_z	109	stimuli_target_squarediamonds.svg	stimuli_distractor_trianglediamonds.svg	4	yes	44	1	818
6.6.1	win	2022-11-07	11:47:49	11:54:03	372897	5e3dff6b8714b707b9a258b0	796860068	1	main_z	7	advance_on_keypress_ZEE	110	stimuli_target_squarediamonds.svg	stimuli_distractor_trianglediamonds.svg	4	yes	57	0	760
6.6.1	win	2022-11-07	11:47:49	11:54:06	375382	5e3dff6b8714b707b9a258b0	796860068	1	main_z	7	main_z	111	stimuli_distractor_diamondtriangles.svg	stimuli_target_trianglesquares.svg	30	yes	44	1	1109
6.6.1	win	2022-11-07	11:47:49	11:54:06	375382	5e3dff6b8714b707b9a258b0	796860068	1	main_z	7	advance_on_keypress_ZEE	112	stimuli_distractor_diamondtriangles.svg	stimuli_target_trianglesquares.svg	30	yes	57	0	197
6.6.1	win	2022-11-07	11:47:49	11:54:08	377640	5e3dff6b8714b707b9a258b0	796860068	1	main_z	7	main_z	113	stimuli_distractor_trianglediamonds.svg	stimuli_target_circletriangles.svg	9	yes	44	1	1450
6.6.1	win	2022-11-07	11:47:49	11:54:08	377640	5e3dff6b8714b707b9a258b0	796860068	1	main_z	7	advance_on_keypress_ZEE	114	stimuli_distractor_trianglediamonds.svg	stimuli_target_circletriangles.svg	9	yes	57	0	232
6.6.1	win	2022-11-07	11:47:49	11:54:10	379275	5e3dff6b8714b707b9a258b0	796860068	1	main_z	7	main_z	115	stimuli_target_circlediamonds.svg	stimuli_distractor_diamondtriangles.svg	6	yes	44	1	793
6.6.1	win	2022-11-07	11:47:49	11:54:10	379275	5e3dff6b8714b707b9a258b0	796860068	1	main_z	7	advance_on_keypress_ZEE	116	stimuli_target_circlediamonds.svg	stimuli_distractor_diamondtriangles.svg	6	yes	57	0	233
6.6.1	win	2022-11-07	11:47:49	11:54:11	380920	5e3dff6b8714b707b9a258b0	796860068	1	main_z	7	main_z	117	stimuli_target_circletriangles.svg	stimuli_distractor_trianglediamonds.svg	1	yes	44	1	798
6.6.1	win	2022-11-07	11:47:49	11:54:11	380920	5e3dff6b8714b707b9a258b0	796860068	1	main_z	7	advance_on_keypress_ZEE	118	stimuli_target_circletriangles.svg	stimuli_distractor_trianglediamonds.svg	1	yes	57	0	382
6.6.1	win	2022-11-07	11:47:49	11:54:13	382889	5e3dff6b8714b707b9a258b0	796860068	1	main_z	7	main_z	119	stimuli_target_trianglesquares.svg	stimuli_distractor_trianglediamonds.svg	18	yes	44	1	968
6.6.1	win	2022-11-07	11:47:49	11:54:13	382889	5e3dff6b8714b707b9a258b0	796860068	1	main_z	7	advance_on_keypress_ZEE	120	stimuli_target_trianglesquares.svg	stimuli_distractor_trianglediamonds.svg	18	yes	57	0	150
6.6.1	win	2022-11-07	11:47:49	11:54:16	385651	5e3dff6b8714b707b9a258b0	796860068	1	main_z	7	main_z	121	stimuli_distractor_diamondtriangles.svg	stimuli_distractor_trianglediamonds.svg	37	no	0	1	2003
6.6.1	win	2022-11-07	11:47:49	11:54:16	385651	5e3dff6b8714b707b9a258b0	796860068	1	main_z	7	advance_on_keypress_ZEE	122	stimuli_distractor_diamondtriangles.svg	stimuli_distractor_trianglediamonds.svg	37	no	57	0	516
6.6.1	win	2022-11-07	11:47:49	11:54:18	387865	5e3dff6b8714b707b9a258b0	796860068	1	main_z	7	main_z	123	stimuli_target_trianglesquares.svg	stimuli_distractor_diamondtriangles.svg	22	yes	44	1	1085
6.6.1	win	2022-11-07	11:47:49	11:54:18	387865	5e3dff6b8714b707b9a258b0	796860068	1	main_z	7	advance_on_keypress_ZEE	124	stimuli_target_trianglesquares.svg	stimuli_distractor_diamondtriangles.svg	22	yes	57	0	205
6.6.1	win	2022-11-07	11:47:49	11:54:20	389614	5e3dff6b8714b707b9a258b0	796860068	1	main_z	7	main_z	125	stimuli_distractor_diamondtriangles.svg	stimuli_target_circletriangles.svg	13	yes	44	1	931
6.6.1	win	2022-11-07	11:47:49	11:54:20	389614	5e3dff6b8714b707b9a258b0	796860068	1	main_z	7	advance_on_keypress_ZEE	126	stimuli_distractor_diamondtriangles.svg	stimuli_target_circletriangles.svg	13	yes	57	0	219
6.6.1	win	2022-11-07	11:47:49	11:54:22	391394	5e3dff6b8714b707b9a258b0	796860068	1	main_z	7	main_z	127	stimuli_distractor_diamondtriangles.svg	stimuli_target_squaretriangles.svg	15	yes	44	1	946
6.6.1	win	2022-11-07	11:47:49	11:54:22	391394	5e3dff6b8714b707b9a258b0	796860068	1	main_z	7	advance_on_keypress_ZEE	128	stimuli_distractor_diamondtriangles.svg	stimuli_target_squaretriangles.svg	15	yes	57	0	142
6.6.1	win	2022-11-07	11:47:49	11:54:23	393116	5e3dff6b8714b707b9a258b0	796860068	1	main_z	7	main_z	129	stimuli_target_trianglecircles.svg	stimuli_distractor_diamondtriangles.svg	21	yes	44	1	964
6.6.1	win	2022-11-07	11:47:49	11:54:23	393116	5e3dff6b8714b707b9a258b0	796860068	1	main_z	7	advance_on_keypress_ZEE	130	stimuli_target_trianglecircles.svg	stimuli_distractor_diamondtriangles.svg	21	yes	57	0	166
6.6.1	win	2022-11-07	11:47:49	11:54:26	395902	5e3dff6b8714b707b9a258b0	796860068	1	main_z	7	main_z	131	stimuli_target_diamondsquares.svg	stimuli_distractor_diamondtriangles.svg	24	yes	0	0	2003
6.6.1	win	2022-11-07	11:47:49	11:54:26	395902	5e3dff6b8714b707b9a258b0	796860068	1	main_z	7	advance_on_keypress_ZEE	132	stimuli_target_diamondsquares.svg	stimuli_distractor_diamondtriangles.svg	24	yes	57	0	639
6.6.1	win	2022-11-07	11:47:49	11:54:28	398083	5e3dff6b8714b707b9a258b0	796860068	1	main_z	7	main_z	133	stimuli_target_squaretriangles.svg	stimuli_distractor_trianglediamonds.svg	3	yes	44	1	927
6.6.1	win	2022-11-07	11:47:49	11:54:28	398083	5e3dff6b8714b707b9a258b0	796860068	1	main_z	7	advance_on_keypress_ZEE	134	stimuli_target_squaretriangles.svg	stimuli_distractor_trianglediamonds.svg	3	yes	57	0	216
6.6.1	win	2022-11-07	11:47:49	11:54:31	400917	5e3dff6b8714b707b9a258b0	796860068	1	main_z	7	main_z	135	stimuli_distractor_trianglediamonds.svg	stimuli_distractor_trianglediamonds.svg	34	no	0	1	2003
6.6.1	win	2022-11-07	11:47:49	11:54:31	400917	5e3dff6b8714b707b9a258b0	796860068	1	main_z	7	advance_on_keypress_ZEE	136	stimuli_distractor_trianglediamonds.svg	stimuli_distractor_trianglediamonds.svg	34	no	57	0	296
6.6.1	win	2022-11-07	11:47:49	11:54:34	403826	5e3dff6b8714b707b9a258b0	796860068	1	main_z	7	main_z	137	stimuli_distractor_trianglediamonds.svg	stimuli_distractor_diamondtriangles.svg	35	no	0	1	2003
6.6.1	win	2022-11-07	11:47:49	11:54:34	403826	5e3dff6b8714b707b9a258b0	796860068	1	main_z	7	advance_on_keypress_ZEE	138	stimuli_distractor_trianglediamonds.svg	stimuli_distractor_diamondtriangles.svg	35	no	57	0	256
6.6.1	win	2022-11-07	11:47:49	11:54:37	406382	5e3dff6b8714b707b9a258b0	796860068	1	main_z	7	main_z	139	stimuli_distractor_trianglediamonds.svg	stimuli_target_diamondsquares.svg	28	yes	44	1	1685
6.6.1	win	2022-11-07	11:47:49	11:54:37	406382	5e3dff6b8714b707b9a258b0	796860068	1	main_z	7	advance_on_keypress_ZEE	140	stimuli_distractor_trianglediamonds.svg	stimuli_target_diamondsquares.svg	28	yes	57	0	244
6.6.1	win	2022-11-07	11:47:49	11:54:38	408177	5e3dff6b8714b707b9a258b0	796860068	1	main_z	7	main_z	141	stimuli_target_circlediamonds.svg	stimuli_distractor_trianglediamonds.svg	2	yes	44	1	938
6.6.1	win	2022-11-07	11:47:49	11:54:38	408177	5e3dff6b8714b707b9a258b0	796860068	1	main_z	7	advance_on_keypress_ZEE	142	stimuli_target_circlediamonds.svg	stimuli_distractor_trianglediamonds.svg	2	yes	57	0	209
6.6.1	win	2022-11-07	11:47:49	11:54:40	409906	5e3dff6b8714b707b9a258b0	796860068	1	main_z	7	main_z	143	stimuli_target_squaretriangles.svg	stimuli_distractor_diamondtriangles.svg	7	yes	44	1	902
6.6.1	win	2022-11-07	11:47:49	11:54:40	409906	5e3dff6b8714b707b9a258b0	796860068	1	main_z	7	advance_on_keypress_ZEE	144	stimuli_target_squaretriangles.svg	stimuli_distractor_diamondtriangles.svg	7	yes	57	0	161
6.6.1	win	2022-11-07	11:47:49	11:54:42	411611	5e3dff6b8714b707b9a258b0	796860068	1	main_z	7	main_z	145	stimuli_target_trianglecircles.svg	stimuli_distractor_trianglediamonds.svg	17	yes	44	1	927
6.6.1	win	2022-11-07	11:47:49	11:54:42	411611	5e3dff6b8714b707b9a258b0	796860068	1	main_z	7	advance_on_keypress_ZEE	146	stimuli_target_trianglecircles.svg	stimuli_distractor_trianglediamonds.svg	17	yes	57	0	187
6.6.1	win	2022-11-07	11:47:49	11:54:44	413492	5e3dff6b8714b707b9a258b0	796860068	1	main_z	7	main_z	147	stimuli_distractor_diamondtriangles.svg	stimuli_target_circlediamonds.svg	14	yes	44	1	1079
6.6.1	win	2022-11-07	11:47:49	11:54:44	413492	5e3dff6b8714b707b9a258b0	796860068	1	main_z	7	advance_on_keypress_ZEE	148	stimuli_distractor_diamondtriangles.svg	stimuli_target_circlediamonds.svg	14	yes	57	0	174
6.6.1	win	2022-11-07	11:47:49	11:54:45	415235	5e3dff6b8714b707b9a258b0	796860068	1	main_z	7	main_z	149	stimuli_target_circletriangles.svg	stimuli_distractor_diamondtriangles.svg	5	yes	44	1	952
6.6.1	win	2022-11-07	11:47:49	11:54:45	415235	5e3dff6b8714b707b9a258b0	796860068	1	main_z	7	advance_on_keypress_ZEE	150	stimuli_target_circletriangles.svg	stimuli_distractor_diamondtriangles.svg	5	yes	57	0	145
6.6.1	win	2022-11-07	11:47:49	11:54:47	416856	5e3dff6b8714b707b9a258b0	796860068	1	main_z	7	main_z	151	stimuli_target_squarediamonds.svg	stimuli_distractor_diamondtriangles.svg	8	yes	44	1	859
6.6.1	win	2022-11-07	11:47:49	11:54:47	416856	5e3dff6b8714b707b9a258b0	796860068	1	main_z	7	advance_on_keypress_ZEE	152	stimuli_target_squarediamonds.svg	stimuli_distractor_diamondtriangles.svg	8	yes	57	0	156
6.6.1	win	2022-11-07	11:47:49	11:54:49	418453	5e3dff6b8714b707b9a258b0	796860068	1	main_z	7	main_z	153	stimuli_distractor_trianglediamonds.svg	stimuli_target_circlediamonds.svg	10	yes	44	1	831
6.6.1	win	2022-11-07	11:47:49	11:54:49	418453	5e3dff6b8714b707b9a258b0	796860068	1	main_z	7	advance_on_keypress_ZEE	154	stimuli_distractor_trianglediamonds.svg	stimuli_target_circlediamonds.svg	10	yes	57	0	164
6.6.1	win	2022-11-07	11:47:49	11:54:51	421230	5e3dff6b8714b707b9a258b0	796860068	1	main_z	7	main_z	155	stimuli_distractor_trianglediamonds.svg	stimuli_distractor_trianglediamonds.svg	33	no	0	1	2003
6.6.1	win	2022-11-07	11:47:49	11:54:51	421230	5e3dff6b8714b707b9a258b0	796860068	1	main_z	7	advance_on_keypress_ZEE	156	stimuli_distractor_trianglediamonds.svg	stimuli_distractor_trianglediamonds.svg	33	no	57	0	392
6.6.1	win	2022-11-07	11:47:49	11:54:54	423673	5e3dff6b8714b707b9a258b0	796860068	1	main_z	7	main_z	157	stimuli_distractor_trianglediamonds.svg	stimuli_target_trianglecircles.svg	25	yes	44	1	1440
6.6.1	win	2022-11-07	11:47:49	11:54:54	423673	5e3dff6b8714b707b9a258b0	796860068	1	main_z	7	advance_on_keypress_ZEE	158	stimuli_distractor_trianglediamonds.svg	stimuli_target_trianglecircles.svg	25	yes	57	0	152
6.6.1	win	2022-11-07	11:47:49	11:54:57	426447	5e3dff6b8714b707b9a258b0	796860068	1	main_z	7	main_z	159	stimuli_distractor_trianglediamonds.svg	stimuli_target_squarediamonds.svg	12	yes	0	0	2003
6.6.1	win	2022-11-07	11:47:49	11:54:57	426447	5e3dff6b8714b707b9a258b0	796860068	1	main_z	7	advance_on_keypress_ZEE	160	stimuli_distractor_trianglediamonds.svg	stimuli_target_squarediamonds.svg	12	yes	57	0	239
6.6.1	win	2022-11-07	11:47:49	12:03:27	937205	5e3dff6b8714b707b9a258b0	796860068	1	practice_slash	9	practice_slash	1	stimuli_target_diamondsquares.svg	stimuli_distractor_trianglediamonds.svg	6	yes	53	1	986
6.6.1	win	2022-11-07	11:47:49	12:03:27	937205	5e3dff6b8714b707b9a258b0	796860068	1	practice_slash	9	advance_on_keypress_SLASH	2	stimuli_target_diamondsquares.svg	stimuli_distractor_trianglediamonds.svg	6	yes	57	0	1184
6.6.1	win	2022-11-07	11:47:49	12:03:31	940516	5e3dff6b8714b707b9a258b0	796860068	1	practice_slash	9	practice_slash	3	stimuli_distractor_trianglediamonds.svg	stimuli_target_squarediamonds.svg	11	yes	53	1	505
6.6.1	win	2022-11-07	11:47:49	12:03:31	940516	5e3dff6b8714b707b9a258b0	796860068	1	practice_slash	9	advance_on_keypress_SLASH	4	stimuli_distractor_trianglediamonds.svg	stimuli_target_squarediamonds.svg	11	yes	57	0	923
6.6.1	win	2022-11-07	11:47:49	12:03:34	943588	5e3dff6b8714b707b9a258b0	796860068	1	practice_slash	9	practice_slash	5	stimuli_target_squarediamonds.svg	stimuli_distractor_diamondtriangles.svg	2	yes	53	1	529
6.6.1	win	2022-11-07	11:47:49	12:03:34	943588	5e3dff6b8714b707b9a258b0	796860068	1	practice_slash	9	advance_on_keypress_SLASH	6	stimuli_target_squarediamonds.svg	stimuli_distractor_diamondtriangles.svg	2	yes	57	0	249
6.6.1	win	2022-11-07	11:47:49	12:03:37	946453	5e3dff6b8714b707b9a258b0	796860068	1	practice_slash	9	practice_slash	7	stimuli_target_squarediamonds.svg	stimuli_distractor_trianglediamonds.svg	5	yes	53	1	999
6.6.1	win	2022-11-07	11:47:49	12:03:37	946453	5e3dff6b8714b707b9a258b0	796860068	1	practice_slash	9	advance_on_keypress_SLASH	8	stimuli_target_squarediamonds.svg	stimuli_distractor_trianglediamonds.svg	5	yes	57	0	20
6.6.1	win	2022-11-07	11:47:49	12:03:40	950097	5e3dff6b8714b707b9a258b0	796860068	1	practice_slash	9	practice_slash	9	stimuli_distractor_diamondtriangles.svg	stimuli_distractor_diamondtriangles.svg	13	no	0	1	2003
6.6.1	win	2022-11-07	11:47:49	12:03:40	950097	5e3dff6b8714b707b9a258b0	796860068	1	practice_slash	9	advance_on_keypress_SLASH	10	stimuli_distractor_diamondtriangles.svg	stimuli_distractor_diamondtriangles.svg	13	no	57	0	618
6.6.1	win	2022-11-07	11:47:49	12:03:45	954333	5e3dff6b8714b707b9a258b0	796860068	1	practice_slash	9	practice_slash	11	stimuli_distractor_trianglediamonds.svg	stimuli_distractor_trianglediamonds.svg	15	no	0	1	2003
6.6.1	win	2022-11-07	11:47:49	12:03:45	954333	5e3dff6b8714b707b9a258b0	796860068	1	practice_slash	9	advance_on_keypress_SLASH	12	stimuli_distractor_trianglediamonds.svg	stimuli_distractor_trianglediamonds.svg	15	no	57	0	77
6.6.1	win	2022-11-07	11:47:49	12:03:48	958028	5e3dff6b8714b707b9a258b0	796860068	1	practice_slash	9	practice_slash	13	stimuli_distractor_diamondtriangles.svg	stimuli_target_trianglecircles.svg	9	yes	0	0	2003
6.6.1	win	2022-11-07	11:47:49	12:03:48	958028	5e3dff6b8714b707b9a258b0	796860068	1	practice_slash	9	advance_on_keypress_SLASH	14	stimuli_distractor_diamondtriangles.svg	stimuli_target_trianglecircles.svg	9	yes	57	0	240
6.6.1	win	2022-11-07	11:47:49	12:03:51	960857	5e3dff6b8714b707b9a258b0	796860068	1	practice_slash	9	practice_slash	15	stimuli_distractor_diamondtriangles.svg	stimuli_target_diamondcircles.svg	8	yes	53	1	971
6.6.1	win	2022-11-07	11:47:49	12:03:51	960857	5e3dff6b8714b707b9a258b0	796860068	1	practice_slash	9	advance_on_keypress_SLASH	16	stimuli_distractor_diamondtriangles.svg	stimuli_target_diamondcircles.svg	8	yes	57	0	512
6.6.1	win	2022-11-07	11:47:49	12:03:55	964993	5e3dff6b8714b707b9a258b0	796860068	1	practice_slash	9	practice_slash	17	stimuli_distractor_trianglediamonds.svg	stimuli_target_circlediamonds.svg	10	yes	0	0	2003
6.6.1	win	2022-11-07	11:47:49	12:03:55	964993	5e3dff6b8714b707b9a258b0	796860068	1	practice_slash	9	advance_on_keypress_SLASH	18	stimuli_distractor_trianglediamonds.svg	stimuli_target_circlediamonds.svg	10	yes	57	0	492
6.6.1	win	2022-11-07	11:47:49	12:03:58	968002	5e3dff6b8714b707b9a258b0	796860068	1	practice_slash	9	practice_slash	19	stimuli_distractor_diamondtriangles.svg	stimuli_distractor_trianglediamonds.svg	14	no	53	0	900
6.6.1	win	2022-11-07	11:47:49	12:03:58	968002	5e3dff6b8714b707b9a258b0	796860068	1	practice_slash	9	advance_on_keypress_SLASH	20	stimuli_distractor_diamondtriangles.svg	stimuli_distractor_trianglediamonds.svg	14	no	57	0	559
6.6.1	win	2022-11-07	11:47:49	12:04:01	970940	5e3dff6b8714b707b9a258b0	796860068	1	practice_slash	9	practice_slash	21	stimuli_distractor_diamondtriangles.svg	stimuli_target_circletriangles.svg	7	yes	53	1	755
6.6.1	win	2022-11-07	11:47:49	12:04:01	970940	5e3dff6b8714b707b9a258b0	796860068	1	practice_slash	9	advance_on_keypress_SLASH	22	stimuli_distractor_diamondtriangles.svg	stimuli_target_circletriangles.svg	7	yes	57	0	24
6.6.1	win	2022-11-07	11:47:49	12:04:04	973425	5e3dff6b8714b707b9a258b0	796860068	1	practice_slash	9	practice_slash	23	stimuli_target_circlediamonds.svg	stimuli_distractor_trianglediamonds.svg	4	yes	53	1	836
6.6.1	win	2022-11-07	11:47:49	12:04:04	973425	5e3dff6b8714b707b9a258b0	796860068	1	practice_slash	9	advance_on_keypress_SLASH	24	stimuli_target_circlediamonds.svg	stimuli_distractor_trianglediamonds.svg	4	yes	57	0	453
6.6.1	win	2022-11-07	11:47:49	12:04:07	976385	5e3dff6b8714b707b9a258b0	796860068	1	practice_slash	9	practice_slash	25	stimuli_target_circlediamonds.svg	stimuli_distractor_diamondtriangles.svg	1	yes	53	1	894
6.6.1	win	2022-11-07	11:47:49	12:04:07	976385	5e3dff6b8714b707b9a258b0	796860068	1	practice_slash	9	advance_on_keypress_SLASH	26	stimuli_target_circlediamonds.svg	stimuli_distractor_diamondtriangles.svg	1	yes	57	0	88
6.6.1	win	2022-11-07	11:47:49	12:04:10	979326	5e3dff6b8714b707b9a258b0	796860068	1	practice_slash	9	practice_slash	27	stimuli_distractor_trianglediamonds.svg	stimuli_target_diamondcircles.svg	12	yes	53	1	1230
6.6.1	win	2022-11-07	11:47:49	12:04:10	979326	5e3dff6b8714b707b9a258b0	796860068	1	practice_slash	9	advance_on_keypress_SLASH	28	stimuli_distractor_trianglediamonds.svg	stimuli_target_diamondcircles.svg	12	yes	57	0	6
6.6.1	win	2022-11-07	11:47:49	12:04:13	982970	5e3dff6b8714b707b9a258b0	796860068	1	practice_slash	9	practice_slash	29	stimuli_distractor_trianglediamonds.svg	stimuli_distractor_diamondtriangles.svg	16	no	0	1	2003
6.6.1	win	2022-11-07	11:47:49	12:04:13	982970	5e3dff6b8714b707b9a258b0	796860068	1	practice_slash	9	advance_on_keypress_SLASH	30	stimuli_distractor_trianglediamonds.svg	stimuli_distractor_diamondtriangles.svg	16	no	57	0	695
6.6.1	win	2022-11-07	11:47:49	12:04:17	986369	5e3dff6b8714b707b9a258b0	796860068	1	practice_slash	9	practice_slash	31	stimuli_target_diamondsquares.svg	stimuli_distractor_diamondtriangles.svg	3	yes	53	1	1084
6.6.1	win	2022-11-07	11:47:49	12:04:17	986369	5e3dff6b8714b707b9a258b0	796860068	1	practice_slash	9	advance_on_keypress_SLASH	32	stimuli_target_diamondsquares.svg	stimuli_distractor_diamondtriangles.svg	3	yes	57	0	603
6.6.1	win	2022-11-07	11:47:49	12:04:24	993974	5e3dff6b8714b707b9a258b0	796860068	1	main_slash	11	main_slash	1	stimuli_distractor_diamondtriangles.svg	stimuli_target_circlediamonds.svg	14	yes	53	1	712
6.6.1	win	2022-11-07	11:47:49	12:04:24	993974	5e3dff6b8714b707b9a258b0	796860068	1	main_slash	11	advance_on_keypress_SLASH	2	stimuli_distractor_diamondtriangles.svg	stimuli_target_circlediamonds.svg	14	yes	57	0	452
6.6.1	win	2022-11-07	11:47:49	12:04:26	995874	5e3dff6b8714b707b9a258b0	796860068	1	main_slash	11	main_slash	3	stimuli_distractor_trianglediamonds.svg	stimuli_target_trianglecircles.svg	25	yes	53	1	827
6.6.1	win	2022-11-07	11:47:49	12:04:26	995874	5e3dff6b8714b707b9a258b0	796860068	1	main_slash	11	advance_on_keypress_SLASH	4	stimuli_distractor_trianglediamonds.svg	stimuli_target_trianglecircles.svg	25	yes	57	0	256
6.6.1	win	2022-11-07	11:47:49	12:04:28	997521	5e3dff6b8714b707b9a258b0	796860068	1	main_slash	11	main_slash	5	stimuli_target_circlediamonds.svg	stimuli_distractor_trianglediamonds.svg	2	yes	53	1	773
6.6.1	win	2022-11-07	11:47:49	12:04:28	997521	5e3dff6b8714b707b9a258b0	796860068	1	main_slash	11	advance_on_keypress_SLASH	6	stimuli_target_circlediamonds.svg	stimuli_distractor_trianglediamonds.svg	2	yes	57	0	227
6.6.1	win	2022-11-07	11:47:49	12:04:31	1000362	5e3dff6b8714b707b9a258b0	796860068	1	main_slash	11	main_slash	7	stimuli_target_circletriangles.svg	stimuli_distractor_trianglediamonds.svg	1	yes	0	0	2003
6.6.1	win	2022-11-07	11:47:49	12:04:31	1000362	5e3dff6b8714b707b9a258b0	796860068	1	main_slash	11	advance_on_keypress_SLASH	8	stimuli_target_circletriangles.svg	stimuli_distractor_trianglediamonds.svg	1	yes	57	0	289
6.6.1	win	2022-11-07	11:47:49	12:04:32	1002024	5e3dff6b8714b707b9a258b0	796860068	1	main_slash	11	main_slash	9	stimuli_distractor_diamondtriangles.svg	stimuli_target_trianglecircles.svg	29	yes	53	1	762
6.6.1	win	2022-11-07	11:47:49	12:04:32	1002024	5e3dff6b8714b707b9a258b0	796860068	1	main_slash	11	advance_on_keypress_SLASH	10	stimuli_distractor_diamondtriangles.svg	stimuli_target_trianglecircles.svg	29	yes	57	0	336
6.6.1	win	2022-11-07	11:47:49	12:04:34	1003776	5e3dff6b8714b707b9a258b0	796860068	1	main_slash	11	main_slash	11	stimuli_target_squarediamonds.svg	stimuli_distractor_diamondtriangles.svg	8	yes	53	1	799
6.6.1	win	2022-11-07	11:47:49	12:04:34	1003776	5e3dff6b8714b707b9a258b0	796860068	1	main_slash	11	advance_on_keypress_SLASH	12	stimuli_target_squarediamonds.svg	stimuli_distractor_diamondtriangles.svg	8	yes	57	0	308
6.6.1	win	2022-11-07	11:47:49	12:04:36	1005822	5e3dff6b8714b707b9a258b0	796860068	1	main_slash	11	main_slash	13	stimuli_distractor_trianglediamonds.svg	stimuli_target_squaretriangles.svg	11	yes	53	1	1122
6.6.1	win	2022-11-07	11:47:49	12:04:36	1005822	5e3dff6b8714b707b9a258b0	796860068	1	main_slash	11	advance_on_keypress_SLASH	14	stimuli_distractor_trianglediamonds.svg	stimuli_target_squaretriangles.svg	11	yes	57	0	326
6.6.1	win	2022-11-07	11:47:49	12:04:38	1007511	5e3dff6b8714b707b9a258b0	796860068	1	main_slash	11	main_slash	15	stimuli_target_diamondcircles.svg	stimuli_distractor_diamondtriangles.svg	23	yes	53	1	742
6.6.1	win	2022-11-07	11:47:49	12:04:38	1007511	5e3dff6b8714b707b9a258b0	796860068	1	main_slash	11	advance_on_keypress_SLASH	16	stimuli_target_diamondcircles.svg	stimuli_distractor_diamondtriangles.svg	23	yes	57	0	309
6.6.1	win	2022-11-07	11:47:49	12:04:40	1009359	5e3dff6b8714b707b9a258b0	796860068	1	main_slash	11	main_slash	17	stimuli_distractor_diamondtriangles.svg	stimuli_target_diamondcircles.svg	31	yes	53	1	923
6.6.1	win	2022-11-07	11:47:49	12:04:40	1009359	5e3dff6b8714b707b9a258b0	796860068	1	main_slash	11	advance_on_keypress_SLASH	18	stimuli_distractor_diamondtriangles.svg	stimuli_target_diamondcircles.svg	31	yes	57	0	187
6.6.1	win	2022-11-07	11:47:49	12:04:41	1011123	5e3dff6b8714b707b9a258b0	796860068	1	main_slash	11	main_slash	19	stimuli_distractor_diamondtriangles.svg	stimuli_target_squarediamonds.svg	16	yes	53	1	958
6.6.1	win	2022-11-07	11:47:49	12:04:41	1011123	5e3dff6b8714b707b9a258b0	796860068	1	main_slash	11	advance_on_keypress_SLASH	20	stimuli_distractor_diamondtriangles.svg	stimuli_target_squarediamonds.svg	16	yes	57	0	184
6.6.1	win	2022-11-07	11:47:49	12:04:43	1012837	5e3dff6b8714b707b9a258b0	796860068	1	main_slash	11	main_slash	21	stimuli_distractor_trianglediamonds.svg	stimuli_target_circletriangles.svg	9	yes	53	1	915
6.6.1	win	2022-11-07	11:47:49	12:04:43	1012837	5e3dff6b8714b707b9a258b0	796860068	1	main_slash	11	advance_on_keypress_SLASH	22	stimuli_distractor_trianglediamonds.svg	stimuli_target_circletriangles.svg	9	yes	57	0	222
6.6.1	win	2022-11-07	11:47:49	12:04:45	1014458	5e3dff6b8714b707b9a258b0	796860068	1	main_slash	11	main_slash	23	stimuli_target_trianglecircles.svg	stimuli_distractor_diamondtriangles.svg	21	yes	53	1	778
6.6.1	win	2022-11-07	11:47:49	12:04:45	1014458	5e3dff6b8714b707b9a258b0	796860068	1	main_slash	11	advance_on_keypress_SLASH	24	stimuli_target_trianglecircles.svg	stimuli_distractor_diamondtriangles.svg	21	yes	57	0	223
6.6.1	win	2022-11-07	11:47:49	12:04:46	1016072	5e3dff6b8714b707b9a258b0	796860068	1	main_slash	11	main_slash	25	stimuli_target_squarediamonds.svg	stimuli_distractor_trianglediamonds.svg	4	yes	53	1	775
6.6.1	win	2022-11-07	11:47:49	12:04:46	1016072	5e3dff6b8714b707b9a258b0	796860068	1	main_slash	11	advance_on_keypress_SLASH	26	stimuli_target_squarediamonds.svg	stimuli_distractor_trianglediamonds.svg	4	yes	57	0	247
6.6.1	win	2022-11-07	11:47:49	12:04:48	1017739	5e3dff6b8714b707b9a258b0	796860068	1	main_slash	11	main_slash	27	stimuli_target_diamondcircles.svg	stimuli_distractor_trianglediamonds.svg	19	yes	53	1	810
6.6.1	win	2022-11-07	11:47:49	12:04:48	1017739	5e3dff6b8714b707b9a258b0	796860068	1	main_slash	11	advance_on_keypress_SLASH	28	stimuli_target_diamondcircles.svg	stimuli_distractor_trianglediamonds.svg	19	yes	57	0	256
6.6.1	win	2022-11-07	11:47:49	12:04:50	1019450	5e3dff6b8714b707b9a258b0	796860068	1	main_slash	11	main_slash	29	stimuli_target_squaretriangles.svg	stimuli_distractor_trianglediamonds.svg	3	yes	53	1	840
6.6.1	win	2022-11-07	11:47:49	12:04:50	1019450	5e3dff6b8714b707b9a258b0	796860068	1	main_slash	11	advance_on_keypress_SLASH	30	stimuli_target_squaretriangles.svg	stimuli_distractor_trianglediamonds.svg	3	yes	57	0	230
6.6.1	win	2022-11-07	11:47:49	12:04:53	1022300	5e3dff6b8714b707b9a258b0	796860068	1	main_slash	11	main_slash	31	stimuli_distractor_diamondtriangles.svg	stimuli_target_squaretriangles.svg	15	yes	0	0	2003
6.6.1	win	2022-11-07	11:47:49	12:04:53	1022300	5e3dff6b8714b707b9a258b0	796860068	1	main_slash	11	advance_on_keypress_SLASH	32	stimuli_distractor_diamondtriangles.svg	stimuli_target_squaretriangles.svg	15	yes	57	0	379
6.6.1	win	2022-11-07	11:47:49	12:04:54	1024129	5e3dff6b8714b707b9a258b0	796860068	1	main_slash	11	main_slash	33	stimuli_distractor_trianglediamonds.svg	stimuli_target_diamondcircles.svg	27	yes	53	1	838
6.6.1	win	2022-11-07	11:47:49	12:04:54	1024129	5e3dff6b8714b707b9a258b0	796860068	1	main_slash	11	advance_on_keypress_SLASH	34	stimuli_distractor_trianglediamonds.svg	stimuli_target_diamondcircles.svg	27	yes	57	0	365
6.6.1	win	2022-11-07	11:47:49	12:04:57	1027107	5e3dff6b8714b707b9a258b0	796860068	1	main_slash	11	main_slash	35	stimuli_distractor_diamondtriangles.svg	stimuli_distractor_trianglediamonds.svg	37	no	0	1	2003
6.6.1	win	2022-11-07	11:47:49	12:04:57	1027107	5e3dff6b8714b707b9a258b0	796860068	1	main_slash	11	advance_on_keypress_SLASH	36	stimuli_distractor_diamondtriangles.svg	stimuli_distractor_trianglediamonds.svg	37	no	57	0	313
6.6.1	win	2022-11-07	11:47:49	12:05:00	1029565	5e3dff6b8714b707b9a258b0	796860068	1	main_slash	11	main_slash	37	stimuli_distractor_diamondtriangles.svg	stimuli_target_diamondsquares.svg	32	yes	53	1	1531
6.6.1	win	2022-11-07	11:47:49	12:05:00	1029565	5e3dff6b8714b707b9a258b0	796860068	1	main_slash	11	advance_on_keypress_SLASH	38	stimuli_distractor_diamondtriangles.svg	stimuli_target_diamondsquares.svg	32	yes	57	0	243
6.6.1	win	2022-11-07	11:47:49	12:05:02	1031275	5e3dff6b8714b707b9a258b0	796860068	1	main_slash	11	main_slash	39	stimuli_target_trianglesquares.svg	stimuli_distractor_diamondtriangles.svg	22	yes	53	1	852
6.6.1	win	2022-11-07	11:47:49	12:05:02	1031275	5e3dff6b8714b707b9a258b0	796860068	1	main_slash	11	advance_on_keypress_SLASH	40	stimuli_target_trianglesquares.svg	stimuli_distractor_diamondtriangles.svg	22	yes	57	0	267
6.6.1	win	2022-11-07	11:47:49	12:05:03	1033008	5e3dff6b8714b707b9a258b0	796860068	1	main_slash	11	main_slash	41	stimuli_target_diamondsquares.svg	stimuli_distractor_diamondtriangles.svg	24	yes	53	1	856
6.6.1	win	2022-11-07	11:47:49	12:05:03	1033008	5e3dff6b8714b707b9a258b0	796860068	1	main_slash	11	advance_on_keypress_SLASH	42	stimuli_target_diamondsquares.svg	stimuli_distractor_diamondtriangles.svg	24	yes	57	0	201
6.6.1	win	2022-11-07	11:47:49	12:05:05	1034733	5e3dff6b8714b707b9a258b0	796860068	1	main_slash	11	main_slash	43	stimuli_target_circletriangles.svg	stimuli_distractor_diamondtriangles.svg	5	yes	53	1	907
6.6.1	win	2022-11-07	11:47:49	12:05:05	1034733	5e3dff6b8714b707b9a258b0	796860068	1	main_slash	11	advance_on_keypress_SLASH	44	stimuli_target_circletriangles.svg	stimuli_distractor_diamondtriangles.svg	5	yes	57	0	226
6.6.1	win	2022-11-07	11:47:49	12:05:07	1036487	5e3dff6b8714b707b9a258b0	796860068	1	main_slash	11	main_slash	45	stimuli_distractor_trianglediamonds.svg	stimuli_target_circlediamonds.svg	10	yes	53	1	918
6.6.1	win	2022-11-07	11:47:49	12:05:07	1036487	5e3dff6b8714b707b9a258b0	796860068	1	main_slash	11	advance_on_keypress_SLASH	46	stimuli_distractor_trianglediamonds.svg	stimuli_target_circlediamonds.svg	10	yes	57	0	159
6.6.1	win	2022-11-07	11:47:49	12:05:08	1038164	5e3dff6b8714b707b9a258b0	796860068	1	main_slash	11	main_slash	47	stimuli_target_trianglecircles.svg	stimuli_distractor_trianglediamonds.svg	17	yes	53	1	901
6.6.1	win	2022-11-07	11:47:49	12:05:08	1038164	5e3dff6b8714b707b9a258b0	796860068	1	main_slash	11	advance_on_keypress_SLASH	48	stimuli_target_trianglecircles.svg	stimuli_distractor_trianglediamonds.svg	17	yes	57	0	262
6.6.1	win	2022-11-07	11:47:49	12:05:10	1039900	5e3dff6b8714b707b9a258b0	796860068	1	main_slash	11	main_slash	49	stimuli_distractor_diamondtriangles.svg	stimuli_target_circletriangles.svg	13	yes	53	1	866
6.6.1	win	2022-11-07	11:47:49	12:05:10	1039900	5e3dff6b8714b707b9a258b0	796860068	1	main_slash	11	advance_on_keypress_SLASH	50	stimuli_distractor_diamondtriangles.svg	stimuli_target_circletriangles.svg	13	yes	57	0	228
6.6.1	win	2022-11-07	11:47:49	12:05:13	1042746	5e3dff6b8714b707b9a258b0	796860068	1	main_slash	11	main_slash	51	stimuli_distractor_trianglediamonds.svg	stimuli_distractor_trianglediamonds.svg	34	no	0	1	2003
6.6.1	win	2022-11-07	11:47:49	12:05:13	1042746	5e3dff6b8714b707b9a258b0	796860068	1	main_slash	11	advance_on_keypress_SLASH	52	stimuli_distractor_trianglediamonds.svg	stimuli_distractor_trianglediamonds.svg	34	no	57	0	275
6.6.1	win	2022-11-07	11:47:49	12:05:15	1044561	5e3dff6b8714b707b9a258b0	796860068	1	main_slash	11	main_slash	53	stimuli_target_diamondsquares.svg	stimuli_distractor_trianglediamonds.svg	20	yes	53	1	929
6.6.1	win	2022-11-07	11:47:49	12:05:15	1044561	5e3dff6b8714b707b9a258b0	796860068	1	main_slash	11	advance_on_keypress_SLASH	54	stimuli_target_diamondsquares.svg	stimuli_distractor_trianglediamonds.svg	20	yes	57	0	188
6.6.1	win	2022-11-07	11:47:49	12:05:18	1047371	5e3dff6b8714b707b9a258b0	796860068	1	main_slash	11	main_slash	55	stimuli_distractor_trianglediamonds.svg	stimuli_distractor_diamondtriangles.svg	36	no	0	1	2003
6.6.1	win	2022-11-07	11:47:49	12:05:18	1047371	5e3dff6b8714b707b9a258b0	796860068	1	main_slash	11	advance_on_keypress_SLASH	56	stimuli_distractor_trianglediamonds.svg	stimuli_distractor_diamondtriangles.svg	36	no	57	0	393
6.6.1	win	2022-11-07	11:47:49	12:05:21	1050381	5e3dff6b8714b707b9a258b0	796860068	1	main_slash	11	main_slash	57	stimuli_distractor_trianglediamonds.svg	stimuli_target_trianglesquares.svg	26	yes	0	0	2003
6.6.1	win	2022-11-07	11:47:49	12:05:21	1050381	5e3dff6b8714b707b9a258b0	796860068	1	main_slash	11	advance_on_keypress_SLASH	58	stimuli_distractor_trianglediamonds.svg	stimuli_target_trianglesquares.svg	26	yes	57	0	295
6.6.1	win	2022-11-07	11:47:49	12:05:24	1053295	5e3dff6b8714b707b9a258b0	796860068	1	main_slash	11	main_slash	59	stimuli_distractor_diamondtriangles.svg	stimuli_distractor_trianglediamonds.svg	38	no	0	1	2003
6.6.1	win	2022-11-07	11:47:49	12:05:24	1053295	5e3dff6b8714b707b9a258b0	796860068	1	main_slash	11	advance_on_keypress_SLASH	60	stimuli_distractor_diamondtriangles.svg	stimuli_distractor_trianglediamonds.svg	38	no	57	0	261
6.6.1	win	2022-11-07	11:47:49	12:05:26	1056170	5e3dff6b8714b707b9a258b0	796860068	1	main_slash	11	main_slash	61	stimuli_distractor_trianglediamonds.svg	stimuli_distractor_trianglediamonds.svg	33	no	0	1	2003
6.6.1	win	2022-11-07	11:47:49	12:05:26	1056170	5e3dff6b8714b707b9a258b0	796860068	1	main_slash	11	advance_on_keypress_SLASH	62	stimuli_distractor_trianglediamonds.svg	stimuli_distractor_trianglediamonds.svg	33	no	57	0	255
6.6.1	win	2022-11-07	11:47:49	12:05:29	1059038	5e3dff6b8714b707b9a258b0	796860068	1	main_slash	11	main_slash	63	stimuli_distractor_diamondtriangles.svg	stimuli_distractor_diamondtriangles.svg	40	no	0	1	2003
6.6.1	win	2022-11-07	11:47:49	12:05:29	1059038	5e3dff6b8714b707b9a258b0	796860068	1	main_slash	11	advance_on_keypress_SLASH	64	stimuli_distractor_diamondtriangles.svg	stimuli_distractor_diamondtriangles.svg	40	no	57	0	271
6.6.1	win	2022-11-07	11:47:49	12:05:32	1061800	5e3dff6b8714b707b9a258b0	796860068	1	main_slash	11	main_slash	65	stimuli_distractor_diamondtriangles.svg	stimuli_target_trianglesquares.svg	30	yes	53	1	1868
6.6.1	win	2022-11-07	11:47:49	12:05:32	1061800	5e3dff6b8714b707b9a258b0	796860068	1	main_slash	11	advance_on_keypress_SLASH	66	stimuli_distractor_diamondtriangles.svg	stimuli_target_trianglesquares.svg	30	yes	57	0	375
6.6.1	win	2022-11-07	11:47:49	12:05:34	1063622	5e3dff6b8714b707b9a258b0	796860068	1	main_slash	11	main_slash	67	stimuli_distractor_trianglediamonds.svg	stimuli_target_squarediamonds.svg	12	yes	53	1	830
6.6.1	win	2022-11-07	11:47:49	12:05:34	1063622	5e3dff6b8714b707b9a258b0	796860068	1	main_slash	11	advance_on_keypress_SLASH	68	stimuli_distractor_trianglediamonds.svg	stimuli_target_squarediamonds.svg	12	yes	57	0	352
6.6.1	win	2022-11-07	11:47:49	12:05:37	1066594	5e3dff6b8714b707b9a258b0	796860068	1	main_slash	11	main_slash	69	stimuli_distractor_diamondtriangles.svg	stimuli_distractor_diamondtriangles.svg	39	no	0	1	2003
6.6.1	win	2022-11-07	11:47:49	12:05:37	1066594	5e3dff6b8714b707b9a258b0	796860068	1	main_slash	11	advance_on_keypress_SLASH	70	stimuli_distractor_diamondtriangles.svg	stimuli_distractor_diamondtriangles.svg	39	no	57	0	280
6.6.1	win	2022-11-07	11:47:49	12:05:38	1068249	5e3dff6b8714b707b9a258b0	796860068	1	main_slash	11	main_slash	71	stimuli_target_circlediamonds.svg	stimuli_distractor_diamondtriangles.svg	6	yes	53	1	762
6.6.1	win	2022-11-07	11:47:49	12:05:38	1068249	5e3dff6b8714b707b9a258b0	796860068	1	main_slash	11	advance_on_keypress_SLASH	72	stimuli_target_circlediamonds.svg	stimuli_distractor_diamondtriangles.svg	6	yes	57	0	253
6.6.1	win	2022-11-07	11:47:49	12:05:40	1069815	5e3dff6b8714b707b9a258b0	796860068	1	main_slash	11	main_slash	73	stimuli_target_squaretriangles.svg	stimuli_distractor_diamondtriangles.svg	7	yes	53	1	703
6.6.1	win	2022-11-07	11:47:49	12:05:40	1069815	5e3dff6b8714b707b9a258b0	796860068	1	main_slash	11	advance_on_keypress_SLASH	74	stimuli_target_squaretriangles.svg	stimuli_distractor_diamondtriangles.svg	7	yes	57	0	206
6.6.1	win	2022-11-07	11:47:49	12:05:43	1072636	5e3dff6b8714b707b9a258b0	796860068	1	main_slash	11	main_slash	75	stimuli_distractor_trianglediamonds.svg	stimuli_target_diamondsquares.svg	28	yes	0	0	2003
6.6.1	win	2022-11-07	11:47:49	12:05:43	1072636	5e3dff6b8714b707b9a258b0	796860068	1	main_slash	11	advance_on_keypress_SLASH	76	stimuli_distractor_trianglediamonds.svg	stimuli_target_diamondsquares.svg	28	yes	57	0	238
6.6.1	win	2022-11-07	11:47:49	12:05:46	1075490	5e3dff6b8714b707b9a258b0	796860068	1	main_slash	11	main_slash	77	stimuli_distractor_trianglediamonds.svg	stimuli_distractor_diamondtriangles.svg	35	no	0	1	2003
6.6.1	win	2022-11-07	11:47:49	12:05:46	1075490	5e3dff6b8714b707b9a258b0	796860068	1	main_slash	11	advance_on_keypress_SLASH	78	stimuli_distractor_trianglediamonds.svg	stimuli_distractor_diamondtriangles.svg	35	no	57	0	85
6.6.1	win	2022-11-07	11:47:49	12:05:47	1076896	5e3dff6b8714b707b9a258b0	796860068	1	main_slash	11	main_slash	79	stimuli_target_trianglesquares.svg	stimuli_distractor_trianglediamonds.svg	18	yes	53	1	707
6.6.1	win	2022-11-07	11:47:49	12:05:47	1076896	5e3dff6b8714b707b9a258b0	796860068	1	main_slash	11	advance_on_keypress_SLASH	80	stimuli_target_trianglesquares.svg	stimuli_distractor_trianglediamonds.svg	18	yes	57	0	281
6.6.1	win	2022-11-07	11:47:49	12:05:49	1078559	5e3dff6b8714b707b9a258b0	796860068	1	main_slash	11	main_slash	81	stimuli_distractor_trianglediamonds.svg	stimuli_target_diamondcircles.svg	27	yes	53	1	766
6.6.1	win	2022-11-07	11:47:49	12:05:49	1078559	5e3dff6b8714b707b9a258b0	796860068	1	main_slash	11	advance_on_keypress_SLASH	82	stimuli_distractor_trianglediamonds.svg	stimuli_target_diamondcircles.svg	27	yes	57	0	234
6.6.1	win	2022-11-07	11:47:49	12:05:50	1080209	5e3dff6b8714b707b9a258b0	796860068	1	main_slash	11	main_slash	83	stimuli_distractor_trianglediamonds.svg	stimuli_target_trianglecircles.svg	25	yes	53	1	803
6.6.1	win	2022-11-07	11:47:49	12:05:50	1080209	5e3dff6b8714b707b9a258b0	796860068	1	main_slash	11	advance_on_keypress_SLASH	84	stimuli_distractor_trianglediamonds.svg	stimuli_target_trianglecircles.svg	25	yes	57	0	145
6.6.1	win	2022-11-07	11:47:49	12:05:52	1081751	5e3dff6b8714b707b9a258b0	796860068	1	main_slash	11	main_slash	85	stimuli_distractor_trianglediamonds.svg	stimuli_target_circletriangles.svg	9	yes	53	1	778
6.6.1	win	2022-11-07	11:47:49	12:05:52	1081751	5e3dff6b8714b707b9a258b0	796860068	1	main_slash	11	advance_on_keypress_SLASH	86	stimuli_distractor_trianglediamonds.svg	stimuli_target_circletriangles.svg	9	yes	57	0	196
6.6.1	win	2022-11-07	11:47:49	12:05:55	1084567	5e3dff6b8714b707b9a258b0	796860068	1	main_slash	11	main_slash	87	stimuli_distractor_diamondtriangles.svg	stimuli_target_circlediamonds.svg	14	yes	0	0	2003
6.6.1	win	2022-11-07	11:47:49	12:05:55	1084567	5e3dff6b8714b707b9a258b0	796860068	1	main_slash	11	advance_on_keypress_SLASH	88	stimuli_distractor_diamondtriangles.svg	stimuli_target_circlediamonds.svg	14	yes	57	0	278
6.6.1	win	2022-11-07	11:47:49	12:05:57	1086996	5e3dff6b8714b707b9a258b0	796860068	1	main_slash	11	main_slash	89	stimuli_distractor_diamondtriangles.svg	stimuli_target_squaretriangles.svg	15	yes	53	1	1534
6.6.1	win	2022-11-07	11:47:49	12:05:57	1086996	5e3dff6b8714b707b9a258b0	796860068	1	main_slash	11	advance_on_keypress_SLASH	90	stimuli_distractor_diamondtriangles.svg	stimuli_target_squaretriangles.svg	15	yes	57	0	652
6.6.1	win	2022-11-07	11:47:49	12:05:59	1089241	5e3dff6b8714b707b9a258b0	796860068	1	main_slash	11	main_slash	91	stimuli_distractor_diamondtriangles.svg	stimuli_target_trianglesquares.svg	30	yes	53	1	976
6.6.1	win	2022-11-07	11:47:49	12:05:59	1089241	5e3dff6b8714b707b9a258b0	796860068	1	main_slash	11	advance_on_keypress_SLASH	92	stimuli_distractor_diamondtriangles.svg	stimuli_target_trianglesquares.svg	30	yes	57	0	351
6.6.1	win	2022-11-07	11:47:49	12:06:02	1092206	5e3dff6b8714b707b9a258b0	796860068	1	main_slash	11	main_slash	93	stimuli_distractor_diamondtriangles.svg	stimuli_distractor_trianglediamonds.svg	37	no	0	1	2003
6.6.1	win	2022-11-07	11:47:49	12:06:02	1092206	5e3dff6b8714b707b9a258b0	796860068	1	main_slash	11	advance_on_keypress_SLASH	94	stimuli_distractor_diamondtriangles.svg	stimuli_distractor_trianglediamonds.svg	37	no	57	0	359
6.6.1	win	2022-11-07	11:47:49	12:06:05	1095185	5e3dff6b8714b707b9a258b0	796860068	1	main_slash	11	main_slash	95	stimuli_distractor_trianglediamonds.svg	stimuli_distractor_diamondtriangles.svg	36	no	0	1	2003
6.6.1	win	2022-11-07	11:47:49	12:06:05	1095185	5e3dff6b8714b707b9a258b0	796860068	1	main_slash	11	advance_on_keypress_SLASH	96	stimuli_distractor_trianglediamonds.svg	stimuli_distractor_diamondtriangles.svg	36	no	57	0	260
6.6.1	win	2022-11-07	11:47:49	12:06:07	1096916	5e3dff6b8714b707b9a258b0	796860068	1	main_slash	11	main_slash	97	stimuli_target_squaretriangles.svg	stimuli_distractor_diamondtriangles.svg	7	yes	53	1	859
6.6.1	win	2022-11-07	11:47:49	12:06:07	1096916	5e3dff6b8714b707b9a258b0	796860068	1	main_slash	11	advance_on_keypress_SLASH	98	stimuli_target_squaretriangles.svg	stimuli_distractor_diamondtriangles.svg	7	yes	57	0	293
6.6.1	win	2022-11-07	11:47:49	12:06:09	1098520	5e3dff6b8714b707b9a258b0	796860068	1	main_slash	11	main_slash	99	stimuli_distractor_diamondtriangles.svg	stimuli_target_diamondcircles.svg	31	yes	53	1	699
6.6.1	win	2022-11-07	11:47:49	12:06:09	1098520	5e3dff6b8714b707b9a258b0	796860068	1	main_slash	11	advance_on_keypress_SLASH	100	stimuli_distractor_diamondtriangles.svg	stimuli_target_diamondcircles.svg	31	yes	57	0	224
6.6.1	win	2022-11-07	11:47:49	12:06:12	1101366	5e3dff6b8714b707b9a258b0	796860068	1	main_slash	11	main_slash	101	stimuli_target_diamondsquares.svg	stimuli_distractor_trianglediamonds.svg	20	yes	0	0	2003
6.6.1	win	2022-11-07	11:47:49	12:06:12	1101366	5e3dff6b8714b707b9a258b0	796860068	1	main_slash	11	advance_on_keypress_SLASH	102	stimuli_target_diamondsquares.svg	stimuli_distractor_trianglediamonds.svg	20	yes	57	0	135
6.6.1	win	2022-11-07	11:47:49	12:06:13	1102977	5e3dff6b8714b707b9a258b0	796860068	1	main_slash	11	main_slash	103	stimuli_target_squarediamonds.svg	stimuli_distractor_trianglediamonds.svg	4	yes	53	1	862
6.6.1	win	2022-11-07	11:47:49	12:06:13	1102977	5e3dff6b8714b707b9a258b0	796860068	1	main_slash	11	advance_on_keypress_SLASH	104	stimuli_target_squarediamonds.svg	stimuli_distractor_trianglediamonds.svg	4	yes	57	0	154
6.6.1	win	2022-11-07	11:47:49	12:06:16	1105748	5e3dff6b8714b707b9a258b0	796860068	1	main_slash	11	main_slash	105	stimuli_distractor_diamondtriangles.svg	stimuli_distractor_diamondtriangles.svg	39	no	0	1	2003
6.6.1	win	2022-11-07	11:47:49	12:06:16	1105748	5e3dff6b8714b707b9a258b0	796860068	1	main_slash	11	advance_on_keypress_SLASH	106	stimuli_distractor_diamondtriangles.svg	stimuli_distractor_diamondtriangles.svg	39	no	57	0	214
6.6.1	win	2022-11-07	11:47:49	12:06:19	1108582	5e3dff6b8714b707b9a258b0	796860068	1	main_slash	11	main_slash	107	stimuli_distractor_diamondtriangles.svg	stimuli_distractor_trianglediamonds.svg	38	no	0	1	2003
6.6.1	win	2022-11-07	11:47:49	12:06:19	1108582	5e3dff6b8714b707b9a258b0	796860068	1	main_slash	11	advance_on_keypress_SLASH	108	stimuli_distractor_diamondtriangles.svg	stimuli_distractor_trianglediamonds.svg	38	no	57	0	327
6.6.1	win	2022-11-07	11:47:49	12:06:22	1111526	5e3dff6b8714b707b9a258b0	796860068	1	main_slash	11	main_slash	109	stimuli_distractor_trianglediamonds.svg	stimuli_distractor_trianglediamonds.svg	34	no	0	1	2003
6.6.1	win	2022-11-07	11:47:49	12:06:22	1111526	5e3dff6b8714b707b9a258b0	796860068	1	main_slash	11	advance_on_keypress_SLASH	110	stimuli_distractor_trianglediamonds.svg	stimuli_distractor_trianglediamonds.svg	34	no	57	0	276
6.6.1	win	2022-11-07	11:47:49	12:06:24	1113461	5e3dff6b8714b707b9a258b0	796860068	1	main_slash	11	main_slash	111	stimuli_distractor_trianglediamonds.svg	stimuli_distractor_diamondtriangles.svg	35	no	53	0	1049
6.6.1	win	2022-11-07	11:47:49	12:06:24	1113461	5e3dff6b8714b707b9a258b0	796860068	1	main_slash	11	advance_on_keypress_SLASH	112	stimuli_distractor_trianglediamonds.svg	stimuli_distractor_diamondtriangles.svg	35	no	57	0	302
6.6.1	win	2022-11-07	11:47:49	12:06:27	1116380	5e3dff6b8714b707b9a258b0	796860068	1	main_slash	11	main_slash	113	stimuli_distractor_trianglediamonds.svg	stimuli_distractor_trianglediamonds.svg	33	no	0	1	2003
6.6.1	win	2022-11-07	11:47:49	12:06:27	1116380	5e3dff6b8714b707b9a258b0	796860068	1	main_slash	11	advance_on_keypress_SLASH	114	stimuli_distractor_trianglediamonds.svg	stimuli_distractor_trianglediamonds.svg	33	no	57	0	65
6.6.1	win	2022-11-07	11:47:49	12:06:28	1117822	5e3dff6b8714b707b9a258b0	796860068	1	main_slash	11	main_slash	115	stimuli_target_diamondcircles.svg	stimuli_distractor_trianglediamonds.svg	19	yes	53	1	764
6.6.1	win	2022-11-07	11:47:49	12:06:28	1117822	5e3dff6b8714b707b9a258b0	796860068	1	main_slash	11	advance_on_keypress_SLASH	116	stimuli_target_diamondcircles.svg	stimuli_distractor_trianglediamonds.svg	19	yes	57	0	236
6.6.1	win	2022-11-07	11:47:49	12:06:30	1119394	5e3dff6b8714b707b9a258b0	796860068	1	main_slash	11	main_slash	117	stimuli_distractor_trianglediamonds.svg	stimuli_target_circlediamonds.svg	10	yes	53	1	718
6.6.1	win	2022-11-07	11:47:49	12:06:30	1119394	5e3dff6b8714b707b9a258b0	796860068	1	main_slash	11	advance_on_keypress_SLASH	118	stimuli_distractor_trianglediamonds.svg	stimuli_target_circlediamonds.svg	10	yes	57	0	144
6.6.1	win	2022-11-07	11:47:49	12:06:31	1121027	5e3dff6b8714b707b9a258b0	796860068	1	main_slash	11	main_slash	119	stimuli_target_diamondcircles.svg	stimuli_distractor_diamondtriangles.svg	23	yes	53	1	870
6.6.1	win	2022-11-07	11:47:49	12:06:31	1121027	5e3dff6b8714b707b9a258b0	796860068	1	main_slash	11	advance_on_keypress_SLASH	120	stimuli_target_diamondcircles.svg	stimuli_distractor_diamondtriangles.svg	23	yes	57	0	169
6.6.1	win	2022-11-07	11:47:49	12:06:34	1123811	5e3dff6b8714b707b9a258b0	796860068	1	main_slash	11	main_slash	121	stimuli_distractor_trianglediamonds.svg	stimuli_target_trianglesquares.svg	26	yes	0	0	2003
6.6.1	win	2022-11-07	11:47:49	12:06:34	1123811	5e3dff6b8714b707b9a258b0	796860068	1	main_slash	11	advance_on_keypress_SLASH	122	stimuli_distractor_trianglediamonds.svg	stimuli_target_trianglesquares.svg	26	yes	57	0	243
6.6.1	win	2022-11-07	11:47:49	12:06:36	1125582	5e3dff6b8714b707b9a258b0	796860068	1	main_slash	11	main_slash	123	stimuli_target_circlediamonds.svg	stimuli_distractor_diamondtriangles.svg	6	yes	53	1	912
6.6.1	win	2022-11-07	11:47:49	12:06:36	1125582	5e3dff6b8714b707b9a258b0	796860068	1	main_slash	11	advance_on_keypress_SLASH	124	stimuli_target_circlediamonds.svg	stimuli_distractor_diamondtriangles.svg	6	yes	57	0	195
6.6.1	win	2022-11-07	11:47:49	12:06:38	1127377	5e3dff6b8714b707b9a258b0	796860068	1	main_slash	11	main_slash	125	stimuli_target_diamondsquares.svg	stimuli_distractor_diamondtriangles.svg	24	yes	53	1	985
6.6.1	win	2022-11-07	11:47:49	12:06:38	1127377	5e3dff6b8714b707b9a258b0	796860068	1	main_slash	11	advance_on_keypress_SLASH	126	stimuli_target_diamondsquares.svg	stimuli_distractor_diamondtriangles.svg	24	yes	57	0	177
6.6.1	win	2022-11-07	11:47:49	12:06:39	1129098	5e3dff6b8714b707b9a258b0	796860068	1	main_slash	11	main_slash	127	stimuli_target_trianglecircles.svg	stimuli_distractor_trianglediamonds.svg	17	yes	53	1	925
6.6.1	win	2022-11-07	11:47:49	12:06:39	1129098	5e3dff6b8714b707b9a258b0	796860068	1	main_slash	11	advance_on_keypress_SLASH	128	stimuli_target_trianglecircles.svg	stimuli_distractor_trianglediamonds.svg	17	yes	57	0	153
6.6.1	win	2022-11-07	11:47:49	12:06:42	1131867	5e3dff6b8714b707b9a258b0	796860068	1	main_slash	11	main_slash	129	stimuli_distractor_diamondtriangles.svg	stimuli_target_diamondsquares.svg	32	yes	0	0	2003
6.6.1	win	2022-11-07	11:47:49	12:06:42	1131867	5e3dff6b8714b707b9a258b0	796860068	1	main_slash	11	advance_on_keypress_SLASH	130	stimuli_distractor_diamondtriangles.svg	stimuli_target_diamondsquares.svg	32	yes	57	0	276
6.6.1	win	2022-11-07	11:47:49	12:06:44	1133603	5e3dff6b8714b707b9a258b0	796860068	1	main_slash	11	main_slash	131	stimuli_target_circletriangles.svg	stimuli_distractor_trianglediamonds.svg	1	yes	53	1	850
6.6.1	win	2022-11-07	11:47:49	12:06:44	1133603	5e3dff6b8714b707b9a258b0	796860068	1	main_slash	11	advance_on_keypress_SLASH	132	stimuli_target_circletriangles.svg	stimuli_distractor_trianglediamonds.svg	1	yes	57	0	198
6.6.1	win	2022-11-07	11:47:49	12:06:46	1135313	5e3dff6b8714b707b9a258b0	796860068	1	main_slash	11	main_slash	133	stimuli_target_squarediamonds.svg	stimuli_distractor_diamondtriangles.svg	8	yes	53	1	900
6.6.1	win	2022-11-07	11:47:49	12:06:46	1135313	5e3dff6b8714b707b9a258b0	796860068	1	main_slash	11	advance_on_keypress_SLASH	134	stimuli_target_squarediamonds.svg	stimuli_distractor_diamondtriangles.svg	8	yes	57	0	156
6.6.1	win	2022-11-07	11:47:49	12:06:47	1136913	5e3dff6b8714b707b9a258b0	796860068	1	main_slash	11	main_slash	135	stimuli_target_trianglecircles.svg	stimuli_distractor_diamondtriangles.svg	21	yes	53	1	833
6.6.1	win	2022-11-07	11:47:49	12:06:47	1136913	5e3dff6b8714b707b9a258b0	796860068	1	main_slash	11	advance_on_keypress_SLASH	136	stimuli_target_trianglecircles.svg	stimuli_distractor_diamondtriangles.svg	21	yes	57	0	130
6.6.1	win	2022-11-07	11:47:49	12:06:49	1138536	5e3dff6b8714b707b9a258b0	796860068	1	main_slash	11	main_slash	137	stimuli_target_circletriangles.svg	stimuli_distractor_diamondtriangles.svg	5	yes	53	1	870
6.6.1	win	2022-11-07	11:47:49	12:06:49	1138536	5e3dff6b8714b707b9a258b0	796860068	1	main_slash	11	advance_on_keypress_SLASH	138	stimuli_target_circletriangles.svg	stimuli_distractor_diamondtriangles.svg	5	yes	57	0	149
6.6.1	win	2022-11-07	11:47:49	12:06:52	1141298	5e3dff6b8714b707b9a258b0	796860068	1	main_slash	11	main_slash	139	stimuli_distractor_trianglediamonds.svg	stimuli_target_diamondsquares.svg	28	yes	0	0	2003
6.6.1	win	2022-11-07	11:47:49	12:06:52	1141298	5e3dff6b8714b707b9a258b0	796860068	1	main_slash	11	advance_on_keypress_SLASH	140	stimuli_distractor_trianglediamonds.svg	stimuli_target_diamondsquares.svg	28	yes	57	0	411
6.6.1	win	2022-11-07	11:47:49	12:06:53	1143190	5e3dff6b8714b707b9a258b0	796860068	1	main_slash	11	main_slash	141	stimuli_target_squaretriangles.svg	stimuli_distractor_trianglediamonds.svg	3	yes	53	1	867
6.6.1	win	2022-11-07	11:47:49	12:06:53	1143190	5e3dff6b8714b707b9a258b0	796860068	1	main_slash	11	advance_on_keypress_SLASH	142	stimuli_target_squaretriangles.svg	stimuli_distractor_trianglediamonds.svg	3	yes	57	0	161
6.6.1	win	2022-11-07	11:47:49	12:06:55	1144736	5e3dff6b8714b707b9a258b0	796860068	1	main_slash	11	main_slash	143	stimuli_target_trianglesquares.svg	stimuli_distractor_trianglediamonds.svg	18	yes	53	1	767
6.6.1	win	2022-11-07	11:47:49	12:06:55	1144736	5e3dff6b8714b707b9a258b0	796860068	1	main_slash	11	advance_on_keypress_SLASH	144	stimuli_target_trianglesquares.svg	stimuli_distractor_trianglediamonds.svg	18	yes	57	0	160
6.6.1	win	2022-11-07	11:47:49	12:06:58	1147514	5e3dff6b8714b707b9a258b0	796860068	1	main_slash	11	main_slash	145	stimuli_distractor_diamondtriangles.svg	stimuli_distractor_diamondtriangles.svg	40	no	0	1	2003
6.6.1	win	2022-11-07	11:47:49	12:06:58	1147514	5e3dff6b8714b707b9a258b0	796860068	1	main_slash	11	advance_on_keypress_SLASH	146	stimuli_distractor_diamondtriangles.svg	stimuli_distractor_diamondtriangles.svg	40	no	57	0	309
6.6.1	win	2022-11-07	11:47:49	12:06:59	1149240	5e3dff6b8714b707b9a258b0	796860068	1	main_slash	11	main_slash	147	stimuli_distractor_trianglediamonds.svg	stimuli_target_squaretriangles.svg	11	yes	53	1	805
6.6.1	win	2022-11-07	11:47:49	12:06:59	1149240	5e3dff6b8714b707b9a258b0	796860068	1	main_slash	11	advance_on_keypress_SLASH	148	stimuli_distractor_trianglediamonds.svg	stimuli_target_squaretriangles.svg	11	yes	57	0	169
6.6.1	win	2022-11-07	11:47:49	12:07:01	1150797	5e3dff6b8714b707b9a258b0	796860068	1	main_slash	11	main_slash	149	stimuli_target_circlediamonds.svg	stimuli_distractor_trianglediamonds.svg	2	yes	53	1	772
6.6.1	win	2022-11-07	11:47:49	12:07:01	1150797	5e3dff6b8714b707b9a258b0	796860068	1	main_slash	11	advance_on_keypress_SLASH	150	stimuli_target_circlediamonds.svg	stimuli_distractor_trianglediamonds.svg	2	yes	57	0	203
6.6.1	win	2022-11-07	11:47:49	12:07:03	1152439	5e3dff6b8714b707b9a258b0	796860068	1	main_slash	11	main_slash	151	stimuli_distractor_diamondtriangles.svg	stimuli_target_circletriangles.svg	13	yes	53	1	824
6.6.1	win	2022-11-07	11:47:49	12:07:03	1152439	5e3dff6b8714b707b9a258b0	796860068	1	main_slash	11	advance_on_keypress_SLASH	152	stimuli_distractor_diamondtriangles.svg	stimuli_target_circletriangles.svg	13	yes	57	0	149
6.6.1	win	2022-11-07	11:47:49	12:07:04	1154023	5e3dff6b8714b707b9a258b0	796860068	1	main_slash	11	main_slash	153	stimuli_target_trianglesquares.svg	stimuli_distractor_diamondtriangles.svg	22	yes	53	1	825
6.6.1	win	2022-11-07	11:47:49	12:07:04	1154023	5e3dff6b8714b707b9a258b0	796860068	1	main_slash	11	advance_on_keypress_SLASH	154	stimuli_target_trianglesquares.svg	stimuli_distractor_diamondtriangles.svg	22	yes	57	0	127
6.6.1	win	2022-11-07	11:47:49	12:07:07	1156393	5e3dff6b8714b707b9a258b0	796860068	1	main_slash	11	main_slash	155	stimuli_distractor_trianglediamonds.svg	stimuli_target_squarediamonds.svg	12	yes	53	1	1632
6.6.1	win	2022-11-07	11:47:49	12:07:07	1156393	5e3dff6b8714b707b9a258b0	796860068	1	main_slash	11	advance_on_keypress_SLASH	156	stimuli_distractor_trianglediamonds.svg	stimuli_target_squarediamonds.svg	12	yes	57	0	228
6.6.1	win	2022-11-07	11:47:49	12:07:08	1157983	5e3dff6b8714b707b9a258b0	796860068	1	main_slash	11	main_slash	157	stimuli_distractor_diamondtriangles.svg	stimuli_target_squarediamonds.svg	16	yes	53	1	743
6.6.1	win	2022-11-07	11:47:49	12:07:08	1157983	5e3dff6b8714b707b9a258b0	796860068	1	main_slash	11	advance_on_keypress_SLASH	158	stimuli_distractor_diamondtriangles.svg	stimuli_target_squarediamonds.svg	16	yes	57	0	149
6.6.1	win	2022-11-07	11:47:49	12:07:10	1159466	5e3dff6b8714b707b9a258b0	796860068	1	main_slash	11	main_slash	159	stimuli_distractor_diamondtriangles.svg	stimuli_target_trianglecircles.svg	29	yes	53	1	719
6.6.1	win	2022-11-07	11:47:49	12:07:10	1159466	5e3dff6b8714b707b9a258b0	796860068	1	main_slash	11	advance_on_keypress_SLASH	160	stimuli_distractor_diamondtriangles.svg	stimuli_target_trianglecircles.svg	29	yes	57	0	223