build	computer.platform	date	time	timestamp	time_elapsed_ms	subject	group	session	blockcode	blocknum	trialcode	trialnum	stimulus_left	stimulus_right	stim_index	target_present	response	correct	latency
6.6.1	win	2022-12-20	17:43:33	17:46:33	177904	5f0f5df48a1b1a114c3dacc5	498016076	1	practice_z	5	practice_z	1	stimuli_distractor_trianglediamonds.svg	stimuli_target_squarediamonds.svg	11	yes	44	1	706
6.6.1	win	2022-12-20	17:43:33	17:46:33	177904	5f0f5df48a1b1a114c3dacc5	498016076	1	practice_z	5	advance_on_keypress_ZEE	2	stimuli_distractor_trianglediamonds.svg	stimuli_target_squarediamonds.svg	11	yes	57	0	1303
6.6.1	win	2022-12-20	17:43:33	17:46:38	182161	5f0f5df48a1b1a114c3dacc5	498016076	1	practice_z	5	practice_z	3	stimuli_target_diamondsquares.svg	stimuli_distractor_diamondtriangles.svg	3	yes	44	1	1313
6.6.1	win	2022-12-20	17:43:33	17:46:38	182161	5f0f5df48a1b1a114c3dacc5	498016076	1	practice_z	5	advance_on_keypress_ZEE	4	stimuli_target_diamondsquares.svg	stimuli_distractor_diamondtriangles.svg	3	yes	57	0	698
6.6.1	win	2022-12-20	17:43:33	17:46:41	185443	5f0f5df48a1b1a114c3dacc5	498016076	1	practice_z	5	practice_z	5	stimuli_distractor_trianglediamonds.svg	stimuli_target_diamondcircles.svg	12	yes	44	1	945
6.6.1	win	2022-12-20	17:43:33	17:46:41	185443	5f0f5df48a1b1a114c3dacc5	498016076	1	practice_z	5	advance_on_keypress_ZEE	6	stimuli_distractor_trianglediamonds.svg	stimuli_target_diamondcircles.svg	12	yes	57	0	630
6.6.1	win	2022-12-20	17:43:33	17:46:44	188612	5f0f5df48a1b1a114c3dacc5	498016076	1	practice_z	5	practice_z	7	stimuli_distractor_trianglediamonds.svg	stimuli_target_circlediamonds.svg	10	yes	44	1	896
6.6.1	win	2022-12-20	17:43:33	17:46:44	188612	5f0f5df48a1b1a114c3dacc5	498016076	1	practice_z	5	advance_on_keypress_ZEE	8	stimuli_distractor_trianglediamonds.svg	stimuli_target_circlediamonds.svg	10	yes	57	0	449
6.6.1	win	2022-12-20	17:43:33	17:46:48	192699	5f0f5df48a1b1a114c3dacc5	498016076	1	practice_z	5	practice_z	9	stimuli_distractor_diamondtriangles.svg	stimuli_distractor_trianglediamonds.svg	14	no	0	1	2000
6.6.1	win	2022-12-20	17:43:33	17:46:48	192699	5f0f5df48a1b1a114c3dacc5	498016076	1	practice_z	5	advance_on_keypress_ZEE	10	stimuli_distractor_diamondtriangles.svg	stimuli_distractor_trianglediamonds.svg	14	no	57	0	560
6.6.1	win	2022-12-20	17:43:33	17:46:51	195687	5f0f5df48a1b1a114c3dacc5	498016076	1	practice_z	5	practice_z	11	stimuli_target_squarediamonds.svg	stimuli_distractor_diamondtriangles.svg	2	yes	44	1	789
6.6.1	win	2022-12-20	17:43:33	17:46:51	195687	5f0f5df48a1b1a114c3dacc5	498016076	1	practice_z	5	advance_on_keypress_ZEE	12	stimuli_target_squarediamonds.svg	stimuli_distractor_diamondtriangles.svg	2	yes	57	0	670
6.6.1	win	2022-12-20	17:43:33	17:46:54	198862	5f0f5df48a1b1a114c3dacc5	498016076	1	practice_z	5	practice_z	13	stimuli_target_circlediamonds.svg	stimuli_distractor_diamondtriangles.svg	1	yes	44	1	863
6.6.1	win	2022-12-20	17:43:33	17:46:54	198862	5f0f5df48a1b1a114c3dacc5	498016076	1	practice_z	5	advance_on_keypress_ZEE	14	stimuli_target_circlediamonds.svg	stimuli_distractor_diamondtriangles.svg	1	yes	57	0	564
6.6.1	win	2022-12-20	17:43:33	17:46:58	202346	5f0f5df48a1b1a114c3dacc5	498016076	1	practice_z	5	practice_z	15	stimuli_distractor_trianglediamonds.svg	stimuli_distractor_diamondtriangles.svg	16	no	44	0	1297
6.6.1	win	2022-12-20	17:43:33	17:46:58	202346	5f0f5df48a1b1a114c3dacc5	498016076	1	practice_z	5	advance_on_keypress_ZEE	16	stimuli_distractor_trianglediamonds.svg	stimuli_distractor_diamondtriangles.svg	16	no	57	0	745
6.6.1	win	2022-12-20	17:43:33	17:47:01	205813	5f0f5df48a1b1a114c3dacc5	498016076	1	practice_z	5	practice_z	17	stimuli_distractor_diamondtriangles.svg	stimuli_target_circletriangles.svg	7	yes	44	1	1080
6.6.1	win	2022-12-20	17:43:33	17:47:01	205813	5f0f5df48a1b1a114c3dacc5	498016076	1	practice_z	5	advance_on_keypress_ZEE	18	stimuli_distractor_diamondtriangles.svg	stimuli_target_circletriangles.svg	7	yes	57	0	590
6.6.1	win	2022-12-20	17:43:33	17:47:04	209047	5f0f5df48a1b1a114c3dacc5	498016076	1	practice_z	5	practice_z	19	stimuli_distractor_diamondtriangles.svg	stimuli_target_diamondcircles.svg	8	yes	44	1	1014
6.6.1	win	2022-12-20	17:43:33	17:47:04	209047	5f0f5df48a1b1a114c3dacc5	498016076	1	practice_z	5	advance_on_keypress_ZEE	20	stimuli_distractor_diamondtriangles.svg	stimuli_target_diamondcircles.svg	8	yes	57	0	454
6.6.1	win	2022-12-20	17:43:33	17:47:08	212248	5f0f5df48a1b1a114c3dacc5	498016076	1	practice_z	5	practice_z	21	stimuli_distractor_diamondtriangles.svg	stimuli_target_trianglecircles.svg	9	yes	44	1	1099
6.6.1	win	2022-12-20	17:43:33	17:47:08	212248	5f0f5df48a1b1a114c3dacc5	498016076	1	practice_z	5	advance_on_keypress_ZEE	22	stimuli_distractor_diamondtriangles.svg	stimuli_target_trianglecircles.svg	9	yes	57	0	422
6.6.1	win	2022-12-20	17:43:33	17:47:12	216316	5f0f5df48a1b1a114c3dacc5	498016076	1	practice_z	5	practice_z	23	stimuli_distractor_trianglediamonds.svg	stimuli_distractor_trianglediamonds.svg	15	no	0	1	2000
6.6.1	win	2022-12-20	17:43:33	17:47:12	216316	5f0f5df48a1b1a114c3dacc5	498016076	1	practice_z	5	advance_on_keypress_ZEE	24	stimuli_distractor_trianglediamonds.svg	stimuli_distractor_trianglediamonds.svg	15	no	57	0	458
6.6.1	win	2022-12-20	17:43:33	17:47:16	220416	5f0f5df48a1b1a114c3dacc5	498016076	1	practice_z	5	practice_z	25	stimuli_target_diamondsquares.svg	stimuli_distractor_trianglediamonds.svg	6	yes	0	0	2000
6.6.1	win	2022-12-20	17:43:33	17:47:16	220416	5f0f5df48a1b1a114c3dacc5	498016076	1	practice_z	5	advance_on_keypress_ZEE	26	stimuli_target_diamondsquares.svg	stimuli_distractor_trianglediamonds.svg	6	yes	57	0	481
6.6.1	win	2022-12-20	17:43:33	17:47:20	224550	5f0f5df48a1b1a114c3dacc5	498016076	1	practice_z	5	practice_z	27	stimuli_distractor_diamondtriangles.svg	stimuli_distractor_diamondtriangles.svg	13	no	0	1	2000
6.6.1	win	2022-12-20	17:43:33	17:47:20	224550	5f0f5df48a1b1a114c3dacc5	498016076	1	practice_z	5	advance_on_keypress_ZEE	28	stimuli_distractor_diamondtriangles.svg	stimuli_distractor_diamondtriangles.svg	13	no	57	0	496
6.6.1	win	2022-12-20	17:43:33	17:47:23	227710	5f0f5df48a1b1a114c3dacc5	498016076	1	practice_z	5	practice_z	29	stimuli_target_squarediamonds.svg	stimuli_distractor_trianglediamonds.svg	5	yes	44	1	1028
6.6.1	win	2022-12-20	17:43:33	17:47:23	227710	5f0f5df48a1b1a114c3dacc5	498016076	1	practice_z	5	advance_on_keypress_ZEE	30	stimuli_target_squarediamonds.svg	stimuli_distractor_trianglediamonds.svg	5	yes	57	0	406
6.6.1	win	2022-12-20	17:43:33	17:47:26	230386	5f0f5df48a1b1a114c3dacc5	498016076	1	practice_z	5	practice_z	31	stimuli_target_circlediamonds.svg	stimuli_distractor_trianglediamonds.svg	4	yes	44	1	637
6.6.1	win	2022-12-20	17:43:33	17:47:26	230386	5f0f5df48a1b1a114c3dacc5	498016076	1	practice_z	5	advance_on_keypress_ZEE	32	stimuli_target_circlediamonds.svg	stimuli_distractor_trianglediamonds.svg	4	yes	57	0	381
6.6.1	win	2022-12-20	17:43:33	17:47:32	236851	5f0f5df48a1b1a114c3dacc5	498016076	1	main_z	7	main_z	1	stimuli_distractor_trianglediamonds.svg	stimuli_target_circletriangles.svg	9	yes	44	1	535
6.6.1	win	2022-12-20	17:43:33	17:47:32	236851	5f0f5df48a1b1a114c3dacc5	498016076	1	main_z	7	advance_on_keypress_ZEE	2	stimuli_distractor_trianglediamonds.svg	stimuli_target_circletriangles.svg	9	yes	57	0	907
6.6.1	win	2022-12-20	17:43:33	17:47:35	239232	5f0f5df48a1b1a114c3dacc5	498016076	1	main_z	7	main_z	3	stimuli_distractor_trianglediamonds.svg	stimuli_target_squaretriangles.svg	11	yes	44	1	833
6.6.1	win	2022-12-20	17:43:33	17:47:35	239232	5f0f5df48a1b1a114c3dacc5	498016076	1	main_z	7	advance_on_keypress_ZEE	4	stimuli_distractor_trianglediamonds.svg	stimuli_target_squaretriangles.svg	11	yes	57	0	763
6.6.1	win	2022-12-20	17:43:33	17:47:37	241593	5f0f5df48a1b1a114c3dacc5	498016076	1	main_z	7	main_z	5	stimuli_distractor_trianglediamonds.svg	stimuli_target_diamondsquares.svg	28	yes	44	1	960
6.6.1	win	2022-12-20	17:43:33	17:47:37	241593	5f0f5df48a1b1a114c3dacc5	498016076	1	main_z	7	advance_on_keypress_ZEE	6	stimuli_distractor_trianglediamonds.svg	stimuli_target_diamondsquares.svg	28	yes	57	0	701
6.6.1	win	2022-12-20	17:43:33	17:47:39	243650	5f0f5df48a1b1a114c3dacc5	498016076	1	main_z	7	main_z	7	stimuli_target_circlediamonds.svg	stimuli_distractor_trianglediamonds.svg	2	yes	44	1	718
6.6.1	win	2022-12-20	17:43:33	17:47:39	243650	5f0f5df48a1b1a114c3dacc5	498016076	1	main_z	7	advance_on_keypress_ZEE	8	stimuli_target_circlediamonds.svg	stimuli_distractor_trianglediamonds.svg	2	yes	57	0	497
6.6.1	win	2022-12-20	17:43:33	17:47:41	245629	5f0f5df48a1b1a114c3dacc5	498016076	1	main_z	7	main_z	9	stimuli_distractor_trianglediamonds.svg	stimuli_target_circlediamonds.svg	10	yes	44	1	846
6.6.1	win	2022-12-20	17:43:33	17:47:41	245629	5f0f5df48a1b1a114c3dacc5	498016076	1	main_z	7	advance_on_keypress_ZEE	10	stimuli_distractor_trianglediamonds.svg	stimuli_target_circlediamonds.svg	10	yes	57	0	514
6.6.1	win	2022-12-20	17:43:33	17:47:44	248766	5f0f5df48a1b1a114c3dacc5	498016076	1	main_z	7	main_z	11	stimuli_distractor_diamondtriangles.svg	stimuli_target_circletriangles.svg	13	yes	0	0	2000
6.6.1	win	2022-12-20	17:43:33	17:47:44	248766	5f0f5df48a1b1a114c3dacc5	498016076	1	main_z	7	advance_on_keypress_ZEE	12	stimuli_distractor_diamondtriangles.svg	stimuli_target_circletriangles.svg	13	yes	57	0	519
6.6.1	win	2022-12-20	17:43:33	17:47:46	250653	5f0f5df48a1b1a114c3dacc5	498016076	1	main_z	7	main_z	13	stimuli_distractor_diamondtriangles.svg	stimuli_target_diamondcircles.svg	31	yes	44	1	721
6.6.1	win	2022-12-20	17:43:33	17:47:46	250653	5f0f5df48a1b1a114c3dacc5	498016076	1	main_z	7	advance_on_keypress_ZEE	14	stimuli_distractor_diamondtriangles.svg	stimuli_target_diamondcircles.svg	31	yes	57	0	418
6.6.1	win	2022-12-20	17:43:33	17:47:49	253716	5f0f5df48a1b1a114c3dacc5	498016076	1	main_z	7	main_z	15	stimuli_distractor_trianglediamonds.svg	stimuli_distractor_trianglediamonds.svg	33	no	0	1	2000
6.6.1	win	2022-12-20	17:43:33	17:47:49	253716	5f0f5df48a1b1a114c3dacc5	498016076	1	main_z	7	advance_on_keypress_ZEE	16	stimuli_distractor_trianglediamonds.svg	stimuli_distractor_trianglediamonds.svg	33	no	57	0	492
6.6.1	win	2022-12-20	17:43:33	17:47:51	255536	5f0f5df48a1b1a114c3dacc5	498016076	1	main_z	7	main_z	17	stimuli_target_squarediamonds.svg	stimuli_distractor_trianglediamonds.svg	4	yes	44	1	686
6.6.1	win	2022-12-20	17:43:33	17:47:51	255536	5f0f5df48a1b1a114c3dacc5	498016076	1	main_z	7	advance_on_keypress_ZEE	18	stimuli_target_squarediamonds.svg	stimuli_distractor_trianglediamonds.svg	4	yes	57	0	423
6.6.1	win	2022-12-20	17:43:33	17:47:53	257283	5f0f5df48a1b1a114c3dacc5	498016076	1	main_z	7	main_z	19	stimuli_target_diamondcircles.svg	stimuli_distractor_diamondtriangles.svg	23	yes	44	1	684
6.6.1	win	2022-12-20	17:43:33	17:47:53	257283	5f0f5df48a1b1a114c3dacc5	498016076	1	main_z	7	advance_on_keypress_ZEE	20	stimuli_target_diamondcircles.svg	stimuli_distractor_diamondtriangles.svg	23	yes	57	0	388
6.6.1	win	2022-12-20	17:43:33	17:47:56	260316	5f0f5df48a1b1a114c3dacc5	498016076	1	main_z	7	main_z	21	stimuli_distractor_trianglediamonds.svg	stimuli_distractor_trianglediamonds.svg	34	no	0	1	2000
6.6.1	win	2022-12-20	17:43:33	17:47:56	260316	5f0f5df48a1b1a114c3dacc5	498016076	1	main_z	7	advance_on_keypress_ZEE	22	stimuli_distractor_trianglediamonds.svg	stimuli_distractor_trianglediamonds.svg	34	no	57	0	562
6.6.1	win	2022-12-20	17:43:33	17:47:57	262146	5f0f5df48a1b1a114c3dacc5	498016076	1	main_z	7	main_z	23	stimuli_target_trianglecircles.svg	stimuli_distractor_diamondtriangles.svg	21	yes	44	1	630
6.6.1	win	2022-12-20	17:43:33	17:47:57	262146	5f0f5df48a1b1a114c3dacc5	498016076	1	main_z	7	advance_on_keypress_ZEE	24	stimuli_target_trianglecircles.svg	stimuli_distractor_diamondtriangles.svg	21	yes	57	0	534
6.6.1	win	2022-12-20	17:43:33	17:48:00	264216	5f0f5df48a1b1a114c3dacc5	498016076	1	main_z	7	main_z	25	stimuli_target_squarediamonds.svg	stimuli_distractor_diamondtriangles.svg	8	yes	44	1	901
6.6.1	win	2022-12-20	17:43:33	17:48:00	264216	5f0f5df48a1b1a114c3dacc5	498016076	1	main_z	7	advance_on_keypress_ZEE	26	stimuli_target_squarediamonds.svg	stimuli_distractor_diamondtriangles.svg	8	yes	57	0	421
6.6.1	win	2022-12-20	17:43:33	17:48:03	267283	5f0f5df48a1b1a114c3dacc5	498016076	1	main_z	7	main_z	27	stimuli_target_diamondsquares.svg	stimuli_distractor_trianglediamonds.svg	20	yes	0	0	2000
6.6.1	win	2022-12-20	17:43:33	17:48:03	267283	5f0f5df48a1b1a114c3dacc5	498016076	1	main_z	7	advance_on_keypress_ZEE	28	stimuli_target_diamondsquares.svg	stimuli_distractor_trianglediamonds.svg	20	yes	57	0	441
6.6.1	win	2022-12-20	17:43:33	17:48:06	270366	5f0f5df48a1b1a114c3dacc5	498016076	1	main_z	7	main_z	29	stimuli_distractor_trianglediamonds.svg	stimuli_distractor_diamondtriangles.svg	35	no	0	1	2000
6.6.1	win	2022-12-20	17:43:33	17:48:06	270366	5f0f5df48a1b1a114c3dacc5	498016076	1	main_z	7	advance_on_keypress_ZEE	30	stimuli_distractor_trianglediamonds.svg	stimuli_distractor_diamondtriangles.svg	35	no	57	0	419
6.6.1	win	2022-12-20	17:43:33	17:48:08	272818	5f0f5df48a1b1a114c3dacc5	498016076	1	main_z	7	main_z	31	stimuli_target_diamondsquares.svg	stimuli_distractor_diamondtriangles.svg	24	yes	44	1	1386
6.6.1	win	2022-12-20	17:43:33	17:48:08	272818	5f0f5df48a1b1a114c3dacc5	498016076	1	main_z	7	advance_on_keypress_ZEE	32	stimuli_target_diamondsquares.svg	stimuli_distractor_diamondtriangles.svg	24	yes	57	0	545
6.6.1	win	2022-12-20	17:43:33	17:48:10	274945	5f0f5df48a1b1a114c3dacc5	498016076	1	main_z	7	main_z	33	stimuli_target_circletriangles.svg	stimuli_distractor_trianglediamonds.svg	1	yes	44	1	945
6.6.1	win	2022-12-20	17:43:33	17:48:10	274945	5f0f5df48a1b1a114c3dacc5	498016076	1	main_z	7	advance_on_keypress_ZEE	34	stimuli_target_circletriangles.svg	stimuli_distractor_trianglediamonds.svg	1	yes	57	0	426
6.6.1	win	2022-12-20	17:43:33	17:48:12	276922	5f0f5df48a1b1a114c3dacc5	498016076	1	main_z	7	main_z	35	stimuli_distractor_diamondtriangles.svg	stimuli_target_trianglecircles.svg	29	yes	44	1	923
6.6.1	win	2022-12-20	17:43:33	17:48:12	276922	5f0f5df48a1b1a114c3dacc5	498016076	1	main_z	7	advance_on_keypress_ZEE	36	stimuli_distractor_diamondtriangles.svg	stimuli_target_trianglecircles.svg	29	yes	57	0	508
6.6.1	win	2022-12-20	17:43:33	17:48:14	278718	5f0f5df48a1b1a114c3dacc5	498016076	1	main_z	7	main_z	37	stimuli_target_circlediamonds.svg	stimuli_distractor_diamondtriangles.svg	6	yes	44	1	652
6.6.1	win	2022-12-20	17:43:33	17:48:14	278718	5f0f5df48a1b1a114c3dacc5	498016076	1	main_z	7	advance_on_keypress_ZEE	38	stimuli_target_circlediamonds.svg	stimuli_distractor_diamondtriangles.svg	6	yes	57	0	416
6.6.1	win	2022-12-20	17:43:33	17:48:16	280407	5f0f5df48a1b1a114c3dacc5	498016076	1	main_z	7	main_z	39	stimuli_target_trianglecircles.svg	stimuli_distractor_trianglediamonds.svg	17	yes	44	1	625
6.6.1	win	2022-12-20	17:43:33	17:48:16	280407	5f0f5df48a1b1a114c3dacc5	498016076	1	main_z	7	advance_on_keypress_ZEE	40	stimuli_target_trianglecircles.svg	stimuli_distractor_trianglediamonds.svg	17	yes	57	0	529
6.6.1	win	2022-12-20	17:43:33	17:48:18	282183	5f0f5df48a1b1a114c3dacc5	498016076	1	main_z	7	main_z	41	stimuli_distractor_trianglediamonds.svg	stimuli_target_trianglecircles.svg	25	yes	44	1	616
6.6.1	win	2022-12-20	17:43:33	17:48:18	282183	5f0f5df48a1b1a114c3dacc5	498016076	1	main_z	7	advance_on_keypress_ZEE	42	stimuli_distractor_trianglediamonds.svg	stimuli_target_trianglecircles.svg	25	yes	57	0	400
6.6.1	win	2022-12-20	17:43:33	17:48:19	284012	5f0f5df48a1b1a114c3dacc5	498016076	1	main_z	7	main_z	43	stimuli_distractor_trianglediamonds.svg	stimuli_target_trianglesquares.svg	26	yes	44	1	780
6.6.1	win	2022-12-20	17:43:33	17:48:19	284012	5f0f5df48a1b1a114c3dacc5	498016076	1	main_z	7	advance_on_keypress_ZEE	44	stimuli_distractor_trianglediamonds.svg	stimuli_target_trianglesquares.svg	26	yes	57	0	433
6.6.1	win	2022-12-20	17:43:33	17:48:22	287083	5f0f5df48a1b1a114c3dacc5	498016076	1	main_z	7	main_z	45	stimuli_distractor_diamondtriangles.svg	stimuli_distractor_diamondtriangles.svg	40	no	0	1	2000
6.6.1	win	2022-12-20	17:43:33	17:48:22	287083	5f0f5df48a1b1a114c3dacc5	498016076	1	main_z	7	advance_on_keypress_ZEE	46	stimuli_distractor_diamondtriangles.svg	stimuli_distractor_diamondtriangles.svg	40	no	57	0	384
6.6.1	win	2022-12-20	17:43:33	17:48:24	289158	5f0f5df48a1b1a114c3dacc5	498016076	1	main_z	7	main_z	47	stimuli_target_trianglesquares.svg	stimuli_distractor_trianglediamonds.svg	18	yes	44	1	1041
6.6.1	win	2022-12-20	17:43:33	17:48:24	289158	5f0f5df48a1b1a114c3dacc5	498016076	1	main_z	7	advance_on_keypress_ZEE	48	stimuli_target_trianglesquares.svg	stimuli_distractor_trianglediamonds.svg	18	yes	57	0	476
6.6.1	win	2022-12-20	17:43:33	17:48:27	291955	5f0f5df48a1b1a114c3dacc5	498016076	1	main_z	7	main_z	49	stimuli_distractor_trianglediamonds.svg	stimuli_target_squarediamonds.svg	12	yes	44	1	1689
6.6.1	win	2022-12-20	17:43:33	17:48:27	291955	5f0f5df48a1b1a114c3dacc5	498016076	1	main_z	7	advance_on_keypress_ZEE	50	stimuli_distractor_trianglediamonds.svg	stimuli_target_squarediamonds.svg	12	yes	57	0	359
6.6.1	win	2022-12-20	17:43:33	17:48:29	293820	5f0f5df48a1b1a114c3dacc5	498016076	1	main_z	7	main_z	51	stimuli_distractor_diamondtriangles.svg	stimuli_target_circlediamonds.svg	14	yes	44	1	870
6.6.1	win	2022-12-20	17:43:33	17:48:29	293820	5f0f5df48a1b1a114c3dacc5	498016076	1	main_z	7	advance_on_keypress_ZEE	52	stimuli_distractor_diamondtriangles.svg	stimuli_target_circlediamonds.svg	14	yes	57	0	234
6.6.1	win	2022-12-20	17:43:33	17:48:31	295574	5f0f5df48a1b1a114c3dacc5	498016076	1	main_z	7	main_z	53	stimuli_distractor_trianglediamonds.svg	stimuli_target_diamondcircles.svg	27	yes	44	1	875
6.6.1	win	2022-12-20	17:43:33	17:48:31	295574	5f0f5df48a1b1a114c3dacc5	498016076	1	main_z	7	advance_on_keypress_ZEE	54	stimuli_distractor_trianglediamonds.svg	stimuli_target_diamondcircles.svg	27	yes	57	0	260
6.6.1	win	2022-12-20	17:43:33	17:48:34	298467	5f0f5df48a1b1a114c3dacc5	498016076	1	main_z	7	main_z	55	stimuli_distractor_diamondtriangles.svg	stimuli_target_squarediamonds.svg	16	yes	0	0	2000
6.6.1	win	2022-12-20	17:43:33	17:48:34	298467	5f0f5df48a1b1a114c3dacc5	498016076	1	main_z	7	advance_on_keypress_ZEE	56	stimuli_distractor_diamondtriangles.svg	stimuli_target_squarediamonds.svg	16	yes	57	0	394
6.6.1	win	2022-12-20	17:43:33	17:48:35	300142	5f0f5df48a1b1a114c3dacc5	498016076	1	main_z	7	main_z	57	stimuli_target_diamondcircles.svg	stimuli_distractor_trianglediamonds.svg	19	yes	44	1	643
6.6.1	win	2022-12-20	17:43:33	17:48:35	300142	5f0f5df48a1b1a114c3dacc5	498016076	1	main_z	7	advance_on_keypress_ZEE	58	stimuli_target_diamondcircles.svg	stimuli_distractor_trianglediamonds.svg	19	yes	57	0	262
6.6.1	win	2022-12-20	17:43:33	17:48:38	303033	5f0f5df48a1b1a114c3dacc5	498016076	1	main_z	7	main_z	59	stimuli_distractor_diamondtriangles.svg	stimuli_distractor_diamondtriangles.svg	39	no	0	1	2000
6.6.1	win	2022-12-20	17:43:33	17:48:38	303033	5f0f5df48a1b1a114c3dacc5	498016076	1	main_z	7	advance_on_keypress_ZEE	60	stimuli_distractor_diamondtriangles.svg	stimuli_distractor_diamondtriangles.svg	39	no	57	0	422
6.6.1	win	2022-12-20	17:43:33	17:48:41	306100	5f0f5df48a1b1a114c3dacc5	498016076	1	main_z	7	main_z	61	stimuli_distractor_trianglediamonds.svg	stimuli_distractor_diamondtriangles.svg	36	no	0	1	2000
6.6.1	win	2022-12-20	17:43:33	17:48:41	306100	5f0f5df48a1b1a114c3dacc5	498016076	1	main_z	7	advance_on_keypress_ZEE	62	stimuli_distractor_trianglediamonds.svg	stimuli_distractor_diamondtriangles.svg	36	no	57	0	625
6.6.1	win	2022-12-20	17:43:33	17:48:43	308101	5f0f5df48a1b1a114c3dacc5	498016076	1	main_z	7	main_z	63	stimuli_target_squaretriangles.svg	stimuli_distractor_diamondtriangles.svg	7	yes	44	1	734
6.6.1	win	2022-12-20	17:43:33	17:48:43	308101	5f0f5df48a1b1a114c3dacc5	498016076	1	main_z	7	advance_on_keypress_ZEE	64	stimuli_target_squaretriangles.svg	stimuli_distractor_diamondtriangles.svg	7	yes	57	0	300
6.6.1	win	2022-12-20	17:43:33	17:48:46	311050	5f0f5df48a1b1a114c3dacc5	498016076	1	main_z	7	main_z	65	stimuli_distractor_diamondtriangles.svg	stimuli_distractor_trianglediamonds.svg	38	no	0	1	2000
6.6.1	win	2022-12-20	17:43:33	17:48:46	311050	5f0f5df48a1b1a114c3dacc5	498016076	1	main_z	7	advance_on_keypress_ZEE	66	stimuli_distractor_diamondtriangles.svg	stimuli_distractor_trianglediamonds.svg	38	no	57	0	390
6.6.1	win	2022-12-20	17:43:33	17:48:48	312856	5f0f5df48a1b1a114c3dacc5	498016076	1	main_z	7	main_z	67	stimuli_target_circletriangles.svg	stimuli_distractor_diamondtriangles.svg	5	yes	44	1	772
6.6.1	win	2022-12-20	17:43:33	17:48:48	312856	5f0f5df48a1b1a114c3dacc5	498016076	1	main_z	7	advance_on_keypress_ZEE	68	stimuli_target_circletriangles.svg	stimuli_distractor_diamondtriangles.svg	5	yes	57	0	312
6.6.1	win	2022-12-20	17:43:33	17:48:51	315800	5f0f5df48a1b1a114c3dacc5	498016076	1	main_z	7	main_z	69	stimuli_distractor_diamondtriangles.svg	stimuli_distractor_trianglediamonds.svg	37	no	0	1	2000
6.6.1	win	2022-12-20	17:43:33	17:48:51	315800	5f0f5df48a1b1a114c3dacc5	498016076	1	main_z	7	advance_on_keypress_ZEE	70	stimuli_distractor_diamondtriangles.svg	stimuli_distractor_trianglediamonds.svg	37	no	57	0	355
6.6.1	win	2022-12-20	17:43:33	17:48:53	318149	5f0f5df48a1b1a114c3dacc5	498016076	1	main_z	7	main_z	71	stimuli_distractor_diamondtriangles.svg	stimuli_target_trianglesquares.svg	30	yes	44	1	1348
6.6.1	win	2022-12-20	17:43:33	17:48:53	318149	5f0f5df48a1b1a114c3dacc5	498016076	1	main_z	7	advance_on_keypress_ZEE	72	stimuli_distractor_diamondtriangles.svg	stimuli_target_trianglesquares.svg	30	yes	57	0	1495
6.6.1	win	2022-12-20	17:43:33	17:48:56	321108	5f0f5df48a1b1a114c3dacc5	498016076	1	main_z	7	main_z	73	stimuli_target_squaretriangles.svg	stimuli_distractor_trianglediamonds.svg	3	yes	44	1	825
6.6.1	win	2022-12-20	17:43:33	17:48:56	321108	5f0f5df48a1b1a114c3dacc5	498016076	1	main_z	7	advance_on_keypress_ZEE	74	stimuli_target_squaretriangles.svg	stimuli_distractor_trianglediamonds.svg	3	yes	57	0	220
6.6.1	win	2022-12-20	17:43:33	17:48:58	322827	5f0f5df48a1b1a114c3dacc5	498016076	1	main_z	7	main_z	75	stimuli_distractor_diamondtriangles.svg	stimuli_target_diamondsquares.svg	32	yes	44	1	858
6.6.1	win	2022-12-20	17:43:33	17:48:58	322827	5f0f5df48a1b1a114c3dacc5	498016076	1	main_z	7	advance_on_keypress_ZEE	76	stimuli_distractor_diamondtriangles.svg	stimuli_target_diamondsquares.svg	32	yes	57	0	232
6.6.1	win	2022-12-20	17:43:33	17:49:00	324585	5f0f5df48a1b1a114c3dacc5	498016076	1	main_z	7	main_z	77	stimuli_distractor_diamondtriangles.svg	stimuli_target_squaretriangles.svg	15	yes	44	1	885
6.6.1	win	2022-12-20	17:43:33	17:49:00	324585	5f0f5df48a1b1a114c3dacc5	498016076	1	main_z	7	advance_on_keypress_ZEE	78	stimuli_distractor_diamondtriangles.svg	stimuli_target_squaretriangles.svg	15	yes	57	0	402
6.6.1	win	2022-12-20	17:43:33	17:49:02	326416	5f0f5df48a1b1a114c3dacc5	498016076	1	main_z	7	main_z	79	stimuli_target_trianglesquares.svg	stimuli_distractor_diamondtriangles.svg	22	yes	44	1	782
6.6.1	win	2022-12-20	17:43:33	17:49:02	326416	5f0f5df48a1b1a114c3dacc5	498016076	1	main_z	7	advance_on_keypress_ZEE	80	stimuli_target_trianglesquares.svg	stimuli_distractor_diamondtriangles.svg	22	yes	57	0	340
6.6.1	win	2022-12-20	17:43:33	17:49:05	329400	5f0f5df48a1b1a114c3dacc5	498016076	1	main_z	7	main_z	81	stimuli_distractor_trianglediamonds.svg	stimuli_distractor_diamondtriangles.svg	36	no	0	1	2000
6.6.1	win	2022-12-20	17:43:33	17:49:05	329400	5f0f5df48a1b1a114c3dacc5	498016076	1	main_z	7	advance_on_keypress_ZEE	82	stimuli_distractor_trianglediamonds.svg	stimuli_distractor_diamondtriangles.svg	36	no	57	0	274
6.6.1	win	2022-12-20	17:43:33	17:49:08	332318	5f0f5df48a1b1a114c3dacc5	498016076	1	main_z	7	main_z	83	stimuli_distractor_diamondtriangles.svg	stimuli_distractor_diamondtriangles.svg	39	no	0	1	2000
6.6.1	win	2022-12-20	17:43:33	17:49:08	332318	5f0f5df48a1b1a114c3dacc5	498016076	1	main_z	7	advance_on_keypress_ZEE	84	stimuli_distractor_diamondtriangles.svg	stimuli_distractor_diamondtriangles.svg	39	no	57	0	264
6.6.1	win	2022-12-20	17:43:33	17:49:09	334125	5f0f5df48a1b1a114c3dacc5	498016076	1	main_z	7	main_z	85	stimuli_target_diamondcircles.svg	stimuli_distractor_diamondtriangles.svg	23	yes	44	1	907
6.6.1	win	2022-12-20	17:43:33	17:49:09	334125	5f0f5df48a1b1a114c3dacc5	498016076	1	main_z	7	advance_on_keypress_ZEE	86	stimuli_target_diamondcircles.svg	stimuli_distractor_diamondtriangles.svg	23	yes	57	0	2231
6.6.1	win	2022-12-20	17:43:33	17:49:13	337825	5f0f5df48a1b1a114c3dacc5	498016076	1	main_z	7	main_z	87	stimuli_distractor_diamondtriangles.svg	stimuli_target_trianglesquares.svg	30	yes	44	1	840
6.6.1	win	2022-12-20	17:43:33	17:49:13	337825	5f0f5df48a1b1a114c3dacc5	498016076	1	main_z	7	advance_on_keypress_ZEE	88	stimuli_distractor_diamondtriangles.svg	stimuli_target_trianglesquares.svg	30	yes	57	0	86
6.6.1	win	2022-12-20	17:43:33	17:49:15	339236	5f0f5df48a1b1a114c3dacc5	498016076	1	main_z	7	main_z	89	stimuli_target_circlediamonds.svg	stimuli_distractor_trianglediamonds.svg	2	yes	44	1	686
6.6.1	win	2022-12-20	17:43:33	17:49:15	339236	5f0f5df48a1b1a114c3dacc5	498016076	1	main_z	7	advance_on_keypress_ZEE	90	stimuli_target_circlediamonds.svg	stimuli_distractor_trianglediamonds.svg	2	yes	57	0	201
6.6.1	win	2022-12-20	17:43:33	17:49:16	340912	5f0f5df48a1b1a114c3dacc5	498016076	1	main_z	7	main_z	91	stimuli_target_squaretriangles.svg	stimuli_distractor_trianglediamonds.svg	3	yes	44	1	827
6.6.1	win	2022-12-20	17:43:33	17:49:16	340912	5f0f5df48a1b1a114c3dacc5	498016076	1	main_z	7	advance_on_keypress_ZEE	92	stimuli_target_squaretriangles.svg	stimuli_distractor_trianglediamonds.svg	3	yes	57	0	81
6.6.1	win	2022-12-20	17:43:33	17:49:18	342553	5f0f5df48a1b1a114c3dacc5	498016076	1	main_z	7	main_z	93	stimuli_distractor_diamondtriangles.svg	stimuli_target_circletriangles.svg	13	yes	44	1	918
6.6.1	win	2022-12-20	17:43:33	17:49:18	342553	5f0f5df48a1b1a114c3dacc5	498016076	1	main_z	7	advance_on_keypress_ZEE	94	stimuli_distractor_diamondtriangles.svg	stimuli_target_circletriangles.svg	13	yes	57	0	66
6.6.1	win	2022-12-20	17:43:33	17:49:19	343944	5f0f5df48a1b1a114c3dacc5	498016076	1	main_z	7	main_z	95	stimuli_distractor_trianglediamonds.svg	stimuli_target_circlediamonds.svg	10	yes	44	1	677
6.6.1	win	2022-12-20	17:43:33	17:49:19	343944	5f0f5df48a1b1a114c3dacc5	498016076	1	main_z	7	advance_on_keypress_ZEE	96	stimuli_distractor_trianglediamonds.svg	stimuli_target_circlediamonds.svg	10	yes	57	0	102
6.6.1	win	2022-12-20	17:43:33	17:49:21	345592	5f0f5df48a1b1a114c3dacc5	498016076	1	main_z	7	main_z	97	stimuli_target_trianglecircles.svg	stimuli_distractor_diamondtriangles.svg	21	yes	44	1	908
6.6.1	win	2022-12-20	17:43:33	17:49:21	345592	5f0f5df48a1b1a114c3dacc5	498016076	1	main_z	7	advance_on_keypress_ZEE	98	stimuli_target_trianglecircles.svg	stimuli_distractor_diamondtriangles.svg	21	yes	57	0	39
6.6.1	win	2022-12-20	17:43:33	17:49:22	347133	5f0f5df48a1b1a114c3dacc5	498016076	1	main_z	7	main_z	99	stimuli_distractor_trianglediamonds.svg	stimuli_target_squaretriangles.svg	11	yes	44	1	865
6.6.1	win	2022-12-20	17:43:33	17:49:22	347133	5f0f5df48a1b1a114c3dacc5	498016076	1	main_z	7	advance_on_keypress_ZEE	100	stimuli_distractor_trianglediamonds.svg	stimuli_target_squaretriangles.svg	11	yes	57	0	76
6.6.1	win	2022-12-20	17:43:33	17:49:24	348546	5f0f5df48a1b1a114c3dacc5	498016076	1	main_z	7	main_z	101	stimuli_distractor_trianglediamonds.svg	stimuli_target_trianglesquares.svg	26	yes	44	1	695
6.6.1	win	2022-12-20	17:43:33	17:49:24	348546	5f0f5df48a1b1a114c3dacc5	498016076	1	main_z	7	advance_on_keypress_ZEE	102	stimuli_distractor_trianglediamonds.svg	stimuli_target_trianglesquares.svg	26	yes	57	0	75
6.6.1	win	2022-12-20	17:43:33	17:49:26	350160	5f0f5df48a1b1a114c3dacc5	498016076	1	main_z	7	main_z	103	stimuli_distractor_trianglediamonds.svg	stimuli_target_circletriangles.svg	9	yes	44	1	909
6.6.1	win	2022-12-20	17:43:33	17:49:26	350160	5f0f5df48a1b1a114c3dacc5	498016076	1	main_z	7	advance_on_keypress_ZEE	104	stimuli_distractor_trianglediamonds.svg	stimuli_target_circletriangles.svg	9	yes	57	0	160
6.6.1	win	2022-12-20	17:43:33	17:49:28	352951	5f0f5df48a1b1a114c3dacc5	498016076	1	main_z	7	main_z	105	stimuli_distractor_trianglediamonds.svg	stimuli_distractor_diamondtriangles.svg	35	no	0	1	2000
6.6.1	win	2022-12-20	17:43:33	17:49:28	352951	5f0f5df48a1b1a114c3dacc5	498016076	1	main_z	7	advance_on_keypress_ZEE	106	stimuli_distractor_trianglediamonds.svg	stimuli_distractor_diamondtriangles.svg	35	no	57	0	481
6.6.1	win	2022-12-20	17:43:33	17:49:30	354806	5f0f5df48a1b1a114c3dacc5	498016076	1	main_z	7	main_z	107	stimuli_target_trianglesquares.svg	stimuli_distractor_trianglediamonds.svg	18	yes	44	1	739
6.6.1	win	2022-12-20	17:43:33	17:49:30	354806	5f0f5df48a1b1a114c3dacc5	498016076	1	main_z	7	advance_on_keypress_ZEE	108	stimuli_target_trianglesquares.svg	stimuli_distractor_trianglediamonds.svg	18	yes	57	0	70
6.6.1	win	2022-12-20	17:43:33	17:49:32	356368	5f0f5df48a1b1a114c3dacc5	498016076	1	main_z	7	main_z	109	stimuli_distractor_diamondtriangles.svg	stimuli_target_diamondcircles.svg	31	yes	44	1	850
6.6.1	win	2022-12-20	17:43:33	17:49:32	356368	5f0f5df48a1b1a114c3dacc5	498016076	1	main_z	7	advance_on_keypress_ZEE	110	stimuli_distractor_diamondtriangles.svg	stimuli_target_diamondcircles.svg	31	yes	57	0	44
6.6.1	win	2022-12-20	17:43:33	17:49:33	357902	5f0f5df48a1b1a114c3dacc5	498016076	1	main_z	7	main_z	111	stimuli_distractor_diamondtriangles.svg	stimuli_target_squaretriangles.svg	15	yes	44	1	850
6.6.1	win	2022-12-20	17:43:33	17:49:33	357902	5f0f5df48a1b1a114c3dacc5	498016076	1	main_z	7	advance_on_keypress_ZEE	112	stimuli_distractor_diamondtriangles.svg	stimuli_target_squaretriangles.svg	15	yes	57	0	38
6.6.1	win	2022-12-20	17:43:33	17:49:36	360584	5f0f5df48a1b1a114c3dacc5	498016076	1	main_z	7	main_z	113	stimuli_distractor_diamondtriangles.svg	stimuli_distractor_trianglediamonds.svg	37	no	0	1	2000
6.6.1	win	2022-12-20	17:43:33	17:49:36	360584	5f0f5df48a1b1a114c3dacc5	498016076	1	main_z	7	advance_on_keypress_ZEE	114	stimuli_distractor_diamondtriangles.svg	stimuli_distractor_trianglediamonds.svg	37	no	57	0	495
6.6.1	win	2022-12-20	17:43:33	17:49:38	362616	5f0f5df48a1b1a114c3dacc5	498016076	1	main_z	7	main_z	115	stimuli_distractor_diamondtriangles.svg	stimuli_target_diamondsquares.svg	32	yes	44	1	899
6.6.1	win	2022-12-20	17:43:33	17:49:38	362616	5f0f5df48a1b1a114c3dacc5	498016076	1	main_z	7	advance_on_keypress_ZEE	116	stimuli_distractor_diamondtriangles.svg	stimuli_target_diamondsquares.svg	32	yes	57	0	50
6.6.1	win	2022-12-20	17:43:33	17:49:40	364185	5f0f5df48a1b1a114c3dacc5	498016076	1	main_z	7	main_z	117	stimuli_target_diamondcircles.svg	stimuli_distractor_trianglediamonds.svg	19	yes	44	1	867
6.6.1	win	2022-12-20	17:43:33	17:49:40	364185	5f0f5df48a1b1a114c3dacc5	498016076	1	main_z	7	advance_on_keypress_ZEE	118	stimuli_target_diamondcircles.svg	stimuli_distractor_trianglediamonds.svg	19	yes	57	0	57
6.6.1	win	2022-12-20	17:43:33	17:49:41	365760	5f0f5df48a1b1a114c3dacc5	498016076	1	main_z	7	main_z	119	stimuli_distractor_trianglediamonds.svg	stimuli_target_diamondsquares.svg	28	yes	44	1	875
6.6.1	win	2022-12-20	17:43:33	17:49:41	365760	5f0f5df48a1b1a114c3dacc5	498016076	1	main_z	7	advance_on_keypress_ZEE	120	stimuli_distractor_trianglediamonds.svg	stimuli_target_diamondsquares.svg	28	yes	57	0	72
6.6.1	win	2022-12-20	17:43:33	17:49:42	367050	5f0f5df48a1b1a114c3dacc5	498016076	1	main_z	7	main_z	121	stimuli_target_squarediamonds.svg	stimuli_distractor_trianglediamonds.svg	4	yes	44	1	582
6.6.1	win	2022-12-20	17:43:33	17:49:42	367050	5f0f5df48a1b1a114c3dacc5	498016076	1	main_z	7	advance_on_keypress_ZEE	122	stimuli_target_squarediamonds.svg	stimuli_distractor_trianglediamonds.svg	4	yes	57	0	56
6.6.1	win	2022-12-20	17:43:33	17:49:44	368530	5f0f5df48a1b1a114c3dacc5	498016076	1	main_z	7	main_z	123	stimuli_target_circletriangles.svg	stimuli_distractor_diamondtriangles.svg	5	yes	44	1	778
6.6.1	win	2022-12-20	17:43:33	17:49:44	368530	5f0f5df48a1b1a114c3dacc5	498016076	1	main_z	7	advance_on_keypress_ZEE	124	stimuli_target_circletriangles.svg	stimuli_distractor_diamondtriangles.svg	5	yes	57	0	75
6.6.1	win	2022-12-20	17:43:33	17:49:47	371235	5f0f5df48a1b1a114c3dacc5	498016076	1	main_z	7	main_z	125	stimuli_distractor_diamondtriangles.svg	stimuli_distractor_diamondtriangles.svg	40	no	0	1	2000
6.6.1	win	2022-12-20	17:43:33	17:49:47	371235	5f0f5df48a1b1a114c3dacc5	498016076	1	main_z	7	advance_on_keypress_ZEE	126	stimuli_distractor_diamondtriangles.svg	stimuli_distractor_diamondtriangles.svg	40	no	57	0	338
6.6.1	win	2022-12-20	17:43:33	17:49:48	372646	5f0f5df48a1b1a114c3dacc5	498016076	1	main_z	7	main_z	127	stimuli_target_circlediamonds.svg	stimuli_distractor_diamondtriangles.svg	6	yes	44	1	428
6.6.1	win	2022-12-20	17:43:33	17:49:48	372646	5f0f5df48a1b1a114c3dacc5	498016076	1	main_z	7	advance_on_keypress_ZEE	128	stimuli_target_circlediamonds.svg	stimuli_distractor_diamondtriangles.svg	6	yes	57	0	68
6.6.1	win	2022-12-20	17:43:33	17:49:50	374206	5f0f5df48a1b1a114c3dacc5	498016076	1	main_z	7	main_z	129	stimuli_target_squaretriangles.svg	stimuli_distractor_diamondtriangles.svg	7	yes	44	1	854
6.6.1	win	2022-12-20	17:43:33	17:49:50	374206	5f0f5df48a1b1a114c3dacc5	498016076	1	main_z	7	advance_on_keypress_ZEE	130	stimuli_target_squaretriangles.svg	stimuli_distractor_diamondtriangles.svg	7	yes	57	0	55
6.6.1	win	2022-12-20	17:43:33	17:49:51	375605	5f0f5df48a1b1a114c3dacc5	498016076	1	main_z	7	main_z	131	stimuli_target_trianglecircles.svg	stimuli_distractor_trianglediamonds.svg	17	yes	44	1	703
6.6.1	win	2022-12-20	17:43:33	17:49:51	375605	5f0f5df48a1b1a114c3dacc5	498016076	1	main_z	7	advance_on_keypress_ZEE	132	stimuli_target_trianglecircles.svg	stimuli_distractor_trianglediamonds.svg	17	yes	57	0	27
6.6.1	win	2022-12-20	17:43:33	17:49:52	377025	5f0f5df48a1b1a114c3dacc5	498016076	1	main_z	7	main_z	133	stimuli_target_circletriangles.svg	stimuli_distractor_trianglediamonds.svg	1	yes	44	1	756
6.6.1	win	2022-12-20	17:43:33	17:49:52	377025	5f0f5df48a1b1a114c3dacc5	498016076	1	main_z	7	advance_on_keypress_ZEE	134	stimuli_target_circletriangles.svg	stimuli_distractor_trianglediamonds.svg	1	yes	57	0	57
6.6.1	win	2022-12-20	17:43:33	17:49:55	379718	5f0f5df48a1b1a114c3dacc5	498016076	1	main_z	7	main_z	135	stimuli_distractor_diamondtriangles.svg	stimuli_distractor_trianglediamonds.svg	38	no	0	1	2000
6.6.1	win	2022-12-20	17:43:33	17:49:55	379718	5f0f5df48a1b1a114c3dacc5	498016076	1	main_z	7	advance_on_keypress_ZEE	136	stimuli_distractor_diamondtriangles.svg	stimuli_distractor_trianglediamonds.svg	38	no	57	0	445
6.6.1	win	2022-12-20	17:43:33	17:49:57	381376	5f0f5df48a1b1a114c3dacc5	498016076	1	main_z	7	main_z	137	stimuli_distractor_diamondtriangles.svg	stimuli_target_circlediamonds.svg	14	yes	44	1	575
6.6.1	win	2022-12-20	17:43:33	17:49:57	381376	5f0f5df48a1b1a114c3dacc5	498016076	1	main_z	7	advance_on_keypress_ZEE	138	stimuli_distractor_diamondtriangles.svg	stimuli_target_circlediamonds.svg	14	yes	57	0	93
6.6.1	win	2022-12-20	17:43:33	17:49:59	384102	5f0f5df48a1b1a114c3dacc5	498016076	1	main_z	7	main_z	139	stimuli_distractor_trianglediamonds.svg	stimuli_distractor_trianglediamonds.svg	34	no	0	1	2000
6.6.1	win	2022-12-20	17:43:33	17:49:59	384102	5f0f5df48a1b1a114c3dacc5	498016076	1	main_z	7	advance_on_keypress_ZEE	140	stimuli_distractor_trianglediamonds.svg	stimuli_distractor_trianglediamonds.svg	34	no	57	0	635
6.6.1	win	2022-12-20	17:43:33	17:50:02	386219	5f0f5df48a1b1a114c3dacc5	498016076	1	main_z	7	main_z	141	stimuli_target_diamondsquares.svg	stimuli_distractor_trianglediamonds.svg	20	yes	44	1	835
6.6.1	win	2022-12-20	17:43:33	17:50:02	386219	5f0f5df48a1b1a114c3dacc5	498016076	1	main_z	7	advance_on_keypress_ZEE	142	stimuli_target_diamondsquares.svg	stimuli_distractor_trianglediamonds.svg	20	yes	57	0	584
6.6.1	win	2022-12-20	17:43:33	17:50:04	388312	5f0f5df48a1b1a114c3dacc5	498016076	1	main_z	7	main_z	143	stimuli_target_diamondsquares.svg	stimuli_distractor_diamondtriangles.svg	24	yes	44	1	860
6.6.1	win	2022-12-20	17:43:33	17:50:04	388312	5f0f5df48a1b1a114c3dacc5	498016076	1	main_z	7	advance_on_keypress_ZEE	144	stimuli_target_diamondsquares.svg	stimuli_distractor_diamondtriangles.svg	24	yes	57	0	202
6.6.1	win	2022-12-20	17:43:33	17:50:05	390088	5f0f5df48a1b1a114c3dacc5	498016076	1	main_z	7	main_z	145	stimuli_target_squarediamonds.svg	stimuli_distractor_diamondtriangles.svg	8	yes	44	1	936
6.6.1	win	2022-12-20	17:43:33	17:50:05	390088	5f0f5df48a1b1a114c3dacc5	498016076	1	main_z	7	advance_on_keypress_ZEE	146	stimuli_target_squarediamonds.svg	stimuli_distractor_diamondtriangles.svg	8	yes	57	0	363
6.6.1	win	2022-12-20	17:43:33	17:50:07	391917	5f0f5df48a1b1a114c3dacc5	498016076	1	main_z	7	main_z	147	stimuli_distractor_trianglediamonds.svg	stimuli_target_trianglecircles.svg	25	yes	44	1	833
6.6.1	win	2022-12-20	17:43:33	17:50:07	391917	5f0f5df48a1b1a114c3dacc5	498016076	1	main_z	7	advance_on_keypress_ZEE	148	stimuli_distractor_trianglediamonds.svg	stimuli_target_trianglecircles.svg	25	yes	57	0	36
6.6.1	win	2022-12-20	17:43:33	17:50:10	394211	5f0f5df48a1b1a114c3dacc5	498016076	1	main_z	7	main_z	149	stimuli_target_trianglesquares.svg	stimuli_distractor_diamondtriangles.svg	22	yes	44	1	1610
6.6.1	win	2022-12-20	17:43:33	17:50:10	394211	5f0f5df48a1b1a114c3dacc5	498016076	1	main_z	7	advance_on_keypress_ZEE	150	stimuli_target_trianglesquares.svg	stimuli_distractor_diamondtriangles.svg	22	yes	57	0	100
6.6.1	win	2022-12-20	17:43:33	17:50:11	395818	5f0f5df48a1b1a114c3dacc5	498016076	1	main_z	7	main_z	151	stimuli_distractor_trianglediamonds.svg	stimuli_target_diamondcircles.svg	27	yes	44	1	867
6.6.1	win	2022-12-20	17:43:33	17:50:11	395818	5f0f5df48a1b1a114c3dacc5	498016076	1	main_z	7	advance_on_keypress_ZEE	152	stimuli_distractor_trianglediamonds.svg	stimuli_target_diamondcircles.svg	27	yes	57	0	44
6.6.1	win	2022-12-20	17:43:33	17:50:13	397359	5f0f5df48a1b1a114c3dacc5	498016076	1	main_z	7	main_z	153	stimuli_distractor_diamondtriangles.svg	stimuli_target_squarediamonds.svg	16	yes	44	1	857
6.6.1	win	2022-12-20	17:43:33	17:50:13	397359	5f0f5df48a1b1a114c3dacc5	498016076	1	main_z	7	advance_on_keypress_ZEE	154	stimuli_distractor_diamondtriangles.svg	stimuli_target_squarediamonds.svg	16	yes	57	0	44
6.6.1	win	2022-12-20	17:43:33	17:50:15	400035	5f0f5df48a1b1a114c3dacc5	498016076	1	main_z	7	main_z	155	stimuli_distractor_trianglediamonds.svg	stimuli_distractor_trianglediamonds.svg	33	no	0	1	2000
6.6.1	win	2022-12-20	17:43:33	17:50:15	400035	5f0f5df48a1b1a114c3dacc5	498016076	1	main_z	7	advance_on_keypress_ZEE	156	stimuli_distractor_trianglediamonds.svg	stimuli_distractor_trianglediamonds.svg	33	no	57	0	422
6.6.1	win	2022-12-20	17:43:33	17:50:17	401738	5f0f5df48a1b1a114c3dacc5	498016076	1	main_z	7	main_z	157	stimuli_distractor_trianglediamonds.svg	stimuli_target_squarediamonds.svg	12	yes	44	1	636
6.6.1	win	2022-12-20	17:43:33	17:50:17	401738	5f0f5df48a1b1a114c3dacc5	498016076	1	main_z	7	advance_on_keypress_ZEE	158	stimuli_distractor_trianglediamonds.svg	stimuli_target_squarediamonds.svg	12	yes	57	0	40
6.6.1	win	2022-12-20	17:43:33	17:50:19	403237	5f0f5df48a1b1a114c3dacc5	498016076	1	main_z	7	main_z	159	stimuli_distractor_diamondtriangles.svg	stimuli_target_trianglecircles.svg	29	yes	44	1	819
6.6.1	win	2022-12-20	17:43:33	17:50:19	403237	5f0f5df48a1b1a114c3dacc5	498016076	1	main_z	7	advance_on_keypress_ZEE	160	stimuli_distractor_diamondtriangles.svg	stimuli_target_trianglecircles.svg	29	yes	57	0	27
6.6.1	win	2022-12-20	17:43:33	17:51:28	472901	5f0f5df48a1b1a114c3dacc5	498016076	1	practice_slash	9	practice_slash	1	stimuli_distractor_diamondtriangles.svg	stimuli_target_diamondcircles.svg	8	yes	53	1	663
6.6.1	win	2022-12-20	17:43:33	17:51:28	472901	5f0f5df48a1b1a114c3dacc5	498016076	1	practice_slash	9	advance_on_keypress_SLASH	2	stimuli_distractor_diamondtriangles.svg	stimuli_target_diamondcircles.svg	8	yes	57	0	2821
6.6.1	win	2022-12-20	17:43:33	17:51:34	478636	5f0f5df48a1b1a114c3dacc5	498016076	1	practice_slash	9	practice_slash	3	stimuli_distractor_trianglediamonds.svg	stimuli_distractor_diamondtriangles.svg	16	no	53	0	1266
6.6.1	win	2022-12-20	17:43:33	17:51:34	478636	5f0f5df48a1b1a114c3dacc5	498016076	1	practice_slash	9	advance_on_keypress_SLASH	4	stimuli_distractor_trianglediamonds.svg	stimuli_distractor_diamondtriangles.svg	16	no	57	0	435
6.6.1	win	2022-12-20	17:43:33	17:51:38	482721	5f0f5df48a1b1a114c3dacc5	498016076	1	practice_slash	9	practice_slash	5	stimuli_distractor_diamondtriangles.svg	stimuli_distractor_diamondtriangles.svg	13	no	0	1	2000
6.6.1	win	2022-12-20	17:43:33	17:51:38	482721	5f0f5df48a1b1a114c3dacc5	498016076	1	practice_slash	9	advance_on_keypress_SLASH	6	stimuli_distractor_diamondtriangles.svg	stimuli_distractor_diamondtriangles.svg	13	no	57	0	320
6.6.1	win	2022-12-20	17:43:33	17:51:41	485321	5f0f5df48a1b1a114c3dacc5	498016076	1	practice_slash	9	practice_slash	7	stimuli_distractor_trianglediamonds.svg	stimuli_target_circlediamonds.svg	10	yes	53	1	634
6.6.1	win	2022-12-20	17:43:33	17:51:41	485321	5f0f5df48a1b1a114c3dacc5	498016076	1	practice_slash	9	advance_on_keypress_SLASH	8	stimuli_distractor_trianglediamonds.svg	stimuli_target_circlediamonds.svg	10	yes	57	0	371
6.6.1	win	2022-12-20	17:43:33	17:51:43	488058	5f0f5df48a1b1a114c3dacc5	498016076	1	practice_slash	9	practice_slash	9	stimuli_target_diamondsquares.svg	stimuli_distractor_trianglediamonds.svg	6	yes	53	1	721
6.6.1	win	2022-12-20	17:43:33	17:51:43	488058	5f0f5df48a1b1a114c3dacc5	498016076	1	practice_slash	9	advance_on_keypress_SLASH	10	stimuli_target_diamondsquares.svg	stimuli_distractor_trianglediamonds.svg	6	yes	57	0	447
6.6.1	win	2022-12-20	17:43:33	17:51:46	490771	5f0f5df48a1b1a114c3dacc5	498016076	1	practice_slash	9	practice_slash	11	stimuli_target_squarediamonds.svg	stimuli_distractor_diamondtriangles.svg	2	yes	53	1	616
6.6.1	win	2022-12-20	17:43:33	17:51:46	490771	5f0f5df48a1b1a114c3dacc5	498016076	1	practice_slash	9	advance_on_keypress_SLASH	12	stimuli_target_squarediamonds.svg	stimuli_distractor_diamondtriangles.svg	2	yes	57	0	347
6.6.1	win	2022-12-20	17:43:33	17:51:49	493628	5f0f5df48a1b1a114c3dacc5	498016076	1	practice_slash	9	practice_slash	13	stimuli_target_squarediamonds.svg	stimuli_distractor_trianglediamonds.svg	5	yes	53	1	873
6.6.1	win	2022-12-20	17:43:33	17:51:49	493628	5f0f5df48a1b1a114c3dacc5	498016076	1	practice_slash	9	advance_on_keypress_SLASH	14	stimuli_target_squarediamonds.svg	stimuli_distractor_trianglediamonds.svg	5	yes	57	0	409
6.6.1	win	2022-12-20	17:43:33	17:51:52	496293	5f0f5df48a1b1a114c3dacc5	498016076	1	practice_slash	9	practice_slash	15	stimuli_distractor_trianglediamonds.svg	stimuli_target_squarediamonds.svg	11	yes	53	1	572
6.6.1	win	2022-12-20	17:43:33	17:51:52	496293	5f0f5df48a1b1a114c3dacc5	498016076	1	practice_slash	9	advance_on_keypress_SLASH	16	stimuli_distractor_trianglediamonds.svg	stimuli_target_squarediamonds.svg	11	yes	57	0	426
6.6.1	win	2022-12-20	17:43:33	17:51:54	498955	5f0f5df48a1b1a114c3dacc5	498016076	1	practice_slash	9	practice_slash	17	stimuli_target_circlediamonds.svg	stimuli_distractor_diamondtriangles.svg	1	yes	53	1	600
6.6.1	win	2022-12-20	17:43:33	17:51:54	498955	5f0f5df48a1b1a114c3dacc5	498016076	1	practice_slash	9	advance_on_keypress_SLASH	18	stimuli_target_circlediamonds.svg	stimuli_distractor_diamondtriangles.svg	1	yes	57	0	274
6.6.1	win	2022-12-20	17:43:33	17:51:57	501543	5f0f5df48a1b1a114c3dacc5	498016076	1	practice_slash	9	practice_slash	19	stimuli_distractor_trianglediamonds.svg	stimuli_target_diamondcircles.svg	12	yes	53	1	672
6.6.1	win	2022-12-20	17:43:33	17:51:57	501543	5f0f5df48a1b1a114c3dacc5	498016076	1	practice_slash	9	advance_on_keypress_SLASH	20	stimuli_distractor_trianglediamonds.svg	stimuli_target_diamondcircles.svg	12	yes	57	0	314
6.6.1	win	2022-12-20	17:43:33	17:52:00	504361	5f0f5df48a1b1a114c3dacc5	498016076	1	practice_slash	9	practice_slash	21	stimuli_target_circlediamonds.svg	stimuli_distractor_trianglediamonds.svg	4	yes	53	1	857
6.6.1	win	2022-12-20	17:43:33	17:52:00	504361	5f0f5df48a1b1a114c3dacc5	498016076	1	practice_slash	9	advance_on_keypress_SLASH	22	stimuli_target_circlediamonds.svg	stimuli_distractor_trianglediamonds.svg	4	yes	57	0	449
6.6.1	win	2022-12-20	17:43:33	17:52:02	507119	5f0f5df48a1b1a114c3dacc5	498016076	1	practice_slash	9	practice_slash	23	stimuli_distractor_diamondtriangles.svg	stimuli_target_trianglecircles.svg	9	yes	53	1	664
6.6.1	win	2022-12-20	17:43:33	17:52:02	507119	5f0f5df48a1b1a114c3dacc5	498016076	1	practice_slash	9	advance_on_keypress_SLASH	24	stimuli_distractor_diamondtriangles.svg	stimuli_target_trianglecircles.svg	9	yes	57	0	420
6.6.1	win	2022-12-20	17:43:33	17:52:05	509842	5f0f5df48a1b1a114c3dacc5	498016076	1	practice_slash	9	practice_slash	25	stimuli_distractor_diamondtriangles.svg	stimuli_target_circletriangles.svg	7	yes	53	1	654
6.6.1	win	2022-12-20	17:43:33	17:52:05	509842	5f0f5df48a1b1a114c3dacc5	498016076	1	practice_slash	9	advance_on_keypress_SLASH	26	stimuli_distractor_diamondtriangles.svg	stimuli_target_circletriangles.svg	7	yes	57	0	447
6.6.1	win	2022-12-20	17:43:33	17:52:08	512721	5f0f5df48a1b1a114c3dacc5	498016076	1	practice_slash	9	practice_slash	27	stimuli_target_diamondsquares.svg	stimuli_distractor_diamondtriangles.svg	3	yes	53	1	799
6.6.1	win	2022-12-20	17:43:33	17:52:08	512721	5f0f5df48a1b1a114c3dacc5	498016076	1	practice_slash	9	advance_on_keypress_SLASH	28	stimuli_target_diamondsquares.svg	stimuli_distractor_diamondtriangles.svg	3	yes	57	0	252
6.6.1	win	2022-12-20	17:43:33	17:52:12	516622	5f0f5df48a1b1a114c3dacc5	498016076	1	practice_slash	9	practice_slash	29	stimuli_distractor_trianglediamonds.svg	stimuli_distractor_trianglediamonds.svg	15	no	0	1	2000
6.6.1	win	2022-12-20	17:43:33	17:52:12	516622	5f0f5df48a1b1a114c3dacc5	498016076	1	practice_slash	9	advance_on_keypress_SLASH	30	stimuli_distractor_trianglediamonds.svg	stimuli_distractor_trianglediamonds.svg	15	no	57	0	454
6.6.1	win	2022-12-20	17:43:33	17:52:15	519895	5f0f5df48a1b1a114c3dacc5	498016076	1	practice_slash	9	practice_slash	31	stimuli_distractor_diamondtriangles.svg	stimuli_distractor_trianglediamonds.svg	14	no	53	0	1173
6.6.1	win	2022-12-20	17:43:33	17:52:15	519895	5f0f5df48a1b1a114c3dacc5	498016076	1	practice_slash	9	advance_on_keypress_SLASH	32	stimuli_distractor_diamondtriangles.svg	stimuli_distractor_trianglediamonds.svg	14	no	57	0	422
6.6.1	win	2022-12-20	17:43:33	17:52:22	526451	5f0f5df48a1b1a114c3dacc5	498016076	1	main_slash	11	main_slash	1	stimuli_target_squarediamonds.svg	stimuli_distractor_diamondtriangles.svg	8	yes	53	1	897
6.6.1	win	2022-12-20	17:43:33	17:52:22	526451	5f0f5df48a1b1a114c3dacc5	498016076	1	main_slash	11	advance_on_keypress_SLASH	2	stimuli_target_squarediamonds.svg	stimuli_distractor_diamondtriangles.svg	8	yes	57	0	607
6.6.1	win	2022-12-20	17:43:33	17:52:24	528456	5f0f5df48a1b1a114c3dacc5	498016076	1	main_slash	11	main_slash	3	stimuli_target_diamondcircles.svg	stimuli_distractor_trianglediamonds.svg	19	yes	53	1	751
6.6.1	win	2022-12-20	17:43:33	17:52:24	528456	5f0f5df48a1b1a114c3dacc5	498016076	1	main_slash	11	advance_on_keypress_SLASH	4	stimuli_target_diamondcircles.svg	stimuli_distractor_trianglediamonds.svg	19	yes	57	0	483
6.6.1	win	2022-12-20	17:43:33	17:52:26	530299	5f0f5df48a1b1a114c3dacc5	498016076	1	main_slash	11	main_slash	5	stimuli_target_trianglesquares.svg	stimuli_distractor_trianglediamonds.svg	18	yes	53	1	711
6.6.1	win	2022-12-20	17:43:33	17:52:26	530299	5f0f5df48a1b1a114c3dacc5	498016076	1	main_slash	11	advance_on_keypress_SLASH	6	stimuli_target_trianglesquares.svg	stimuli_distractor_trianglediamonds.svg	18	yes	57	0	411
6.6.1	win	2022-12-20	17:43:33	17:52:27	532155	5f0f5df48a1b1a114c3dacc5	498016076	1	main_slash	11	main_slash	7	stimuli_distractor_trianglediamonds.svg	stimuli_target_diamondcircles.svg	27	yes	53	1	817
6.6.1	win	2022-12-20	17:43:33	17:52:27	532155	5f0f5df48a1b1a114c3dacc5	498016076	1	main_slash	11	advance_on_keypress_SLASH	8	stimuli_distractor_trianglediamonds.svg	stimuli_target_diamondcircles.svg	27	yes	57	0	482
6.6.1	win	2022-12-20	17:43:33	17:52:29	534091	5f0f5df48a1b1a114c3dacc5	498016076	1	main_slash	11	main_slash	9	stimuli_distractor_trianglediamonds.svg	stimuli_target_squaretriangles.svg	11	yes	53	1	804
6.6.1	win	2022-12-20	17:43:33	17:52:29	534091	5f0f5df48a1b1a114c3dacc5	498016076	1	main_slash	11	advance_on_keypress_SLASH	10	stimuli_distractor_trianglediamonds.svg	stimuli_target_squaretriangles.svg	11	yes	57	0	511
6.6.1	win	2022-12-20	17:43:33	17:52:31	535940	5f0f5df48a1b1a114c3dacc5	498016076	1	main_slash	11	main_slash	11	stimuli_distractor_diamondtriangles.svg	stimuli_target_squaretriangles.svg	15	yes	53	1	703
6.6.1	win	2022-12-20	17:43:33	17:52:31	535940	5f0f5df48a1b1a114c3dacc5	498016076	1	main_slash	11	advance_on_keypress_SLASH	12	stimuli_distractor_diamondtriangles.svg	stimuli_target_squaretriangles.svg	15	yes	57	0	363
6.6.1	win	2022-12-20	17:43:33	17:52:34	538938	5f0f5df48a1b1a114c3dacc5	498016076	1	main_slash	11	main_slash	13	stimuli_distractor_trianglediamonds.svg	stimuli_distractor_diamondtriangles.svg	35	no	0	1	2000
6.6.1	win	2022-12-20	17:43:33	17:52:34	538938	5f0f5df48a1b1a114c3dacc5	498016076	1	main_slash	11	advance_on_keypress_SLASH	14	stimuli_distractor_trianglediamonds.svg	stimuli_distractor_diamondtriangles.svg	35	no	57	0	611
6.6.1	win	2022-12-20	17:43:33	17:52:36	541018	5f0f5df48a1b1a114c3dacc5	498016076	1	main_slash	11	main_slash	15	stimuli_distractor_diamondtriangles.svg	stimuli_target_diamondcircles.svg	31	yes	53	1	830
6.6.1	win	2022-12-20	17:43:33	17:52:36	541018	5f0f5df48a1b1a114c3dacc5	498016076	1	main_slash	11	advance_on_keypress_SLASH	16	stimuli_distractor_diamondtriangles.svg	stimuli_target_diamondcircles.svg	31	yes	57	0	507
6.6.1	win	2022-12-20	17:43:33	17:52:39	544154	5f0f5df48a1b1a114c3dacc5	498016076	1	main_slash	11	main_slash	17	stimuli_distractor_trianglediamonds.svg	stimuli_distractor_trianglediamonds.svg	33	no	0	1	2000
6.6.1	win	2022-12-20	17:43:33	17:52:39	544154	5f0f5df48a1b1a114c3dacc5	498016076	1	main_slash	11	advance_on_keypress_SLASH	18	stimuli_distractor_trianglediamonds.svg	stimuli_distractor_trianglediamonds.svg	33	no	57	0	323
6.6.1	win	2022-12-20	17:43:33	17:52:42	547121	5f0f5df48a1b1a114c3dacc5	498016076	1	main_slash	11	main_slash	19	stimuli_distractor_diamondtriangles.svg	stimuli_distractor_diamondtriangles.svg	39	no	0	1	2000
6.6.1	win	2022-12-20	17:43:33	17:52:42	547121	5f0f5df48a1b1a114c3dacc5	498016076	1	main_slash	11	advance_on_keypress_SLASH	20	stimuli_distractor_diamondtriangles.svg	stimuli_distractor_diamondtriangles.svg	39	no	57	0	289
6.6.1	win	2022-12-20	17:43:33	17:52:44	548927	5f0f5df48a1b1a114c3dacc5	498016076	1	main_slash	11	main_slash	21	stimuli_target_diamondcircles.svg	stimuli_distractor_diamondtriangles.svg	23	yes	53	1	873
6.6.1	win	2022-12-20	17:43:33	17:52:44	548927	5f0f5df48a1b1a114c3dacc5	498016076	1	main_slash	11	advance_on_keypress_SLASH	22	stimuli_target_diamondcircles.svg	stimuli_distractor_diamondtriangles.svg	23	yes	57	0	507
6.6.1	win	2022-12-20	17:43:33	17:52:46	550850	5f0f5df48a1b1a114c3dacc5	498016076	1	main_slash	11	main_slash	23	stimuli_target_squaretriangles.svg	stimuli_distractor_diamondtriangles.svg	7	yes	53	1	778
6.6.1	win	2022-12-20	17:43:33	17:52:46	550850	5f0f5df48a1b1a114c3dacc5	498016076	1	main_slash	11	advance_on_keypress_SLASH	24	stimuli_target_squaretriangles.svg	stimuli_distractor_diamondtriangles.svg	7	yes	57	0	432
6.6.1	win	2022-12-20	17:43:33	17:52:48	552712	5f0f5df48a1b1a114c3dacc5	498016076	1	main_slash	11	main_slash	25	stimuli_target_squarediamonds.svg	stimuli_distractor_trianglediamonds.svg	4	yes	53	1	791
6.6.1	win	2022-12-20	17:43:33	17:52:48	552712	5f0f5df48a1b1a114c3dacc5	498016076	1	main_slash	11	advance_on_keypress_SLASH	26	stimuli_target_squarediamonds.svg	stimuli_distractor_trianglediamonds.svg	4	yes	57	0	300
6.6.1	win	2022-12-20	17:43:33	17:52:50	554475	5f0f5df48a1b1a114c3dacc5	498016076	1	main_slash	11	main_slash	27	stimuli_target_diamondsquares.svg	stimuli_distractor_diamondtriangles.svg	24	yes	53	1	820
6.6.1	win	2022-12-20	17:43:33	17:52:50	554475	5f0f5df48a1b1a114c3dacc5	498016076	1	main_slash	11	advance_on_keypress_SLASH	28	stimuli_target_diamondsquares.svg	stimuli_distractor_diamondtriangles.svg	24	yes	57	0	312
6.6.1	win	2022-12-20	17:43:33	17:52:52	556250	5f0f5df48a1b1a114c3dacc5	498016076	1	main_slash	11	main_slash	29	stimuli_distractor_trianglediamonds.svg	stimuli_target_circletriangles.svg	9	yes	53	1	828
6.6.1	win	2022-12-20	17:43:33	17:52:52	556250	5f0f5df48a1b1a114c3dacc5	498016076	1	main_slash	11	advance_on_keypress_SLASH	30	stimuli_distractor_trianglediamonds.svg	stimuli_target_circletriangles.svg	9	yes	57	0	318
6.6.1	win	2022-12-20	17:43:33	17:52:53	558005	5f0f5df48a1b1a114c3dacc5	498016076	1	main_slash	11	main_slash	31	stimuli_distractor_trianglediamonds.svg	stimuli_target_diamondsquares.svg	28	yes	53	1	800
6.6.1	win	2022-12-20	17:43:33	17:52:53	558005	5f0f5df48a1b1a114c3dacc5	498016076	1	main_slash	11	advance_on_keypress_SLASH	32	stimuli_distractor_trianglediamonds.svg	stimuli_target_diamondsquares.svg	28	yes	57	0	266
6.6.1	win	2022-12-20	17:43:33	17:52:55	559686	5f0f5df48a1b1a114c3dacc5	498016076	1	main_slash	11	main_slash	33	stimuli_target_trianglecircles.svg	stimuli_distractor_trianglediamonds.svg	17	yes	53	1	765
6.6.1	win	2022-12-20	17:43:33	17:52:55	559686	5f0f5df48a1b1a114c3dacc5	498016076	1	main_slash	11	advance_on_keypress_SLASH	34	stimuli_target_trianglecircles.svg	stimuli_distractor_trianglediamonds.svg	17	yes	57	0	264
6.6.1	win	2022-12-20	17:43:33	17:52:57	561401	5f0f5df48a1b1a114c3dacc5	498016076	1	main_slash	11	main_slash	35	stimuli_target_diamondsquares.svg	stimuli_distractor_trianglediamonds.svg	20	yes	53	1	812
6.6.1	win	2022-12-20	17:43:33	17:52:57	561401	5f0f5df48a1b1a114c3dacc5	498016076	1	main_slash	11	advance_on_keypress_SLASH	36	stimuli_target_diamondsquares.svg	stimuli_distractor_trianglediamonds.svg	20	yes	57	0	286
6.6.1	win	2022-12-20	17:43:33	17:52:58	563109	5f0f5df48a1b1a114c3dacc5	498016076	1	main_slash	11	main_slash	37	stimuli_target_trianglesquares.svg	stimuli_distractor_diamondtriangles.svg	22	yes	53	1	787
6.6.1	win	2022-12-20	17:43:33	17:52:58	563109	5f0f5df48a1b1a114c3dacc5	498016076	1	main_slash	11	advance_on_keypress_SLASH	38	stimuli_target_trianglesquares.svg	stimuli_distractor_diamondtriangles.svg	22	yes	57	0	209
6.6.1	win	2022-12-20	17:43:33	17:53:01	565955	5f0f5df48a1b1a114c3dacc5	498016076	1	main_slash	11	main_slash	39	stimuli_distractor_trianglediamonds.svg	stimuli_distractor_diamondtriangles.svg	36	no	0	1	2000
6.6.1	win	2022-12-20	17:43:33	17:53:01	565955	5f0f5df48a1b1a114c3dacc5	498016076	1	main_slash	11	advance_on_keypress_SLASH	40	stimuli_distractor_trianglediamonds.svg	stimuli_distractor_diamondtriangles.svg	36	no	57	0	265
6.6.1	win	2022-12-20	17:43:33	17:53:03	567737	5f0f5df48a1b1a114c3dacc5	498016076	1	main_slash	11	main_slash	41	stimuli_target_circletriangles.svg	stimuli_distractor_diamondtriangles.svg	5	yes	53	1	865
6.6.1	win	2022-12-20	17:43:33	17:53:03	567737	5f0f5df48a1b1a114c3dacc5	498016076	1	main_slash	11	advance_on_keypress_SLASH	42	stimuli_target_circletriangles.svg	stimuli_distractor_diamondtriangles.svg	5	yes	57	0	392
6.6.1	win	2022-12-20	17:43:33	17:53:05	569632	5f0f5df48a1b1a114c3dacc5	498016076	1	main_slash	11	main_slash	43	stimuli_distractor_trianglediamonds.svg	stimuli_target_squarediamonds.svg	12	yes	53	1	861
6.6.1	win	2022-12-20	17:43:33	17:53:05	569632	5f0f5df48a1b1a114c3dacc5	498016076	1	main_slash	11	advance_on_keypress_SLASH	44	stimuli_distractor_trianglediamonds.svg	stimuli_target_squarediamonds.svg	12	yes	57	0	263
6.6.1	win	2022-12-20	17:43:33	17:53:07	571273	5f0f5df48a1b1a114c3dacc5	498016076	1	main_slash	11	main_slash	45	stimuli_distractor_diamondtriangles.svg	stimuli_target_squarediamonds.svg	16	yes	53	1	752
6.6.1	win	2022-12-20	17:43:33	17:53:07	571273	5f0f5df48a1b1a114c3dacc5	498016076	1	main_slash	11	advance_on_keypress_SLASH	46	stimuli_distractor_diamondtriangles.svg	stimuli_target_squarediamonds.svg	16	yes	57	0	294
6.6.1	win	2022-12-20	17:43:33	17:53:08	572988	5f0f5df48a1b1a114c3dacc5	498016076	1	main_slash	11	main_slash	47	stimuli_target_circlediamonds.svg	stimuli_distractor_diamondtriangles.svg	6	yes	53	1	783
6.6.1	win	2022-12-20	17:43:33	17:53:08	572988	5f0f5df48a1b1a114c3dacc5	498016076	1	main_slash	11	advance_on_keypress_SLASH	48	stimuli_target_circlediamonds.svg	stimuli_distractor_diamondtriangles.svg	6	yes	57	0	325
6.6.1	win	2022-12-20	17:43:33	17:53:10	574682	5f0f5df48a1b1a114c3dacc5	498016076	1	main_slash	11	main_slash	49	stimuli_distractor_trianglediamonds.svg	stimuli_target_trianglesquares.svg	26	yes	53	1	727
6.6.1	win	2022-12-20	17:43:33	17:53:10	574682	5f0f5df48a1b1a114c3dacc5	498016076	1	main_slash	11	advance_on_keypress_SLASH	50	stimuli_distractor_trianglediamonds.svg	stimuli_target_trianglesquares.svg	26	yes	57	0	384
6.6.1	win	2022-12-20	17:43:33	17:53:12	576371	5f0f5df48a1b1a114c3dacc5	498016076	1	main_slash	11	main_slash	51	stimuli_distractor_diamondtriangles.svg	stimuli_target_circlediamonds.svg	14	yes	53	1	665
6.6.1	win	2022-12-20	17:43:33	17:53:12	576371	5f0f5df48a1b1a114c3dacc5	498016076	1	main_slash	11	advance_on_keypress_SLASH	52	stimuli_distractor_diamondtriangles.svg	stimuli_target_circlediamonds.svg	14	yes	57	0	251
6.6.1	win	2022-12-20	17:43:33	17:53:13	577964	5f0f5df48a1b1a114c3dacc5	498016076	1	main_slash	11	main_slash	53	stimuli_distractor_diamondtriangles.svg	stimuli_target_circletriangles.svg	13	yes	53	1	692
6.6.1	win	2022-12-20	17:43:33	17:53:13	577964	5f0f5df48a1b1a114c3dacc5	498016076	1	main_slash	11	advance_on_keypress_SLASH	54	stimuli_distractor_diamondtriangles.svg	stimuli_target_circletriangles.svg	13	yes	57	0	254
6.6.1	win	2022-12-20	17:43:33	17:53:15	579618	5f0f5df48a1b1a114c3dacc5	498016076	1	main_slash	11	main_slash	55	stimuli_distractor_diamondtriangles.svg	stimuli_target_trianglecircles.svg	29	yes	53	1	762
6.6.1	win	2022-12-20	17:43:33	17:53:15	579618	5f0f5df48a1b1a114c3dacc5	498016076	1	main_slash	11	advance_on_keypress_SLASH	56	stimuli_distractor_diamondtriangles.svg	stimuli_target_trianglecircles.svg	29	yes	57	0	211
6.6.1	win	2022-12-20	17:43:33	17:53:18	582455	5f0f5df48a1b1a114c3dacc5	498016076	1	main_slash	11	main_slash	57	stimuli_distractor_trianglediamonds.svg	stimuli_distractor_trianglediamonds.svg	34	no	0	1	2000
6.6.1	win	2022-12-20	17:43:33	17:53:18	582455	5f0f5df48a1b1a114c3dacc5	498016076	1	main_slash	11	advance_on_keypress_SLASH	58	stimuli_distractor_trianglediamonds.svg	stimuli_distractor_trianglediamonds.svg	34	no	57	0	266
6.6.1	win	2022-12-20	17:43:33	17:53:19	584122	5f0f5df48a1b1a114c3dacc5	498016076	1	main_slash	11	main_slash	59	stimuli_target_squaretriangles.svg	stimuli_distractor_trianglediamonds.svg	3	yes	53	1	750
6.6.1	win	2022-12-20	17:43:33	17:53:19	584122	5f0f5df48a1b1a114c3dacc5	498016076	1	main_slash	11	advance_on_keypress_SLASH	60	stimuli_target_squaretriangles.svg	stimuli_distractor_trianglediamonds.svg	3	yes	57	0	252
6.6.1	win	2022-12-20	17:43:33	17:53:21	585778	5f0f5df48a1b1a114c3dacc5	498016076	1	main_slash	11	main_slash	61	stimuli_target_trianglecircles.svg	stimuli_distractor_diamondtriangles.svg	21	yes	53	1	755
6.6.1	win	2022-12-20	17:43:33	17:53:21	585778	5f0f5df48a1b1a114c3dacc5	498016076	1	main_slash	11	advance_on_keypress_SLASH	62	stimuli_target_trianglecircles.svg	stimuli_distractor_diamondtriangles.svg	21	yes	57	0	230
6.6.1	win	2022-12-20	17:43:33	17:53:23	587382	5f0f5df48a1b1a114c3dacc5	498016076	1	main_slash	11	main_slash	63	stimuli_distractor_trianglediamonds.svg	stimuli_target_circlediamonds.svg	10	yes	53	1	744
6.6.1	win	2022-12-20	17:43:33	17:53:23	587382	5f0f5df48a1b1a114c3dacc5	498016076	1	main_slash	11	advance_on_keypress_SLASH	64	stimuli_distractor_trianglediamonds.svg	stimuli_target_circlediamonds.svg	10	yes	57	0	211
6.6.1	win	2022-12-20	17:43:33	17:53:24	588855	5f0f5df48a1b1a114c3dacc5	498016076	1	main_slash	11	main_slash	65	stimuli_distractor_diamondtriangles.svg	stimuli_target_trianglesquares.svg	30	yes	53	1	633
6.6.1	win	2022-12-20	17:43:33	17:53:24	588855	5f0f5df48a1b1a114c3dacc5	498016076	1	main_slash	11	advance_on_keypress_SLASH	66	stimuli_distractor_diamondtriangles.svg	stimuli_target_trianglesquares.svg	30	yes	57	0	225
6.6.1	win	2022-12-20	17:43:33	17:53:26	590354	5f0f5df48a1b1a114c3dacc5	498016076	1	main_slash	11	main_slash	67	stimuli_target_circlediamonds.svg	stimuli_distractor_trianglediamonds.svg	2	yes	53	1	633
6.6.1	win	2022-12-20	17:43:33	17:53:26	590354	5f0f5df48a1b1a114c3dacc5	498016076	1	main_slash	11	advance_on_keypress_SLASH	68	stimuli_target_circlediamonds.svg	stimuli_distractor_trianglediamonds.svg	2	yes	57	0	197
6.6.1	win	2022-12-20	17:43:33	17:53:27	591779	5f0f5df48a1b1a114c3dacc5	498016076	1	main_slash	11	main_slash	69	stimuli_target_circletriangles.svg	stimuli_distractor_trianglediamonds.svg	1	yes	53	1	591
6.6.1	win	2022-12-20	17:43:33	17:53:27	591779	5f0f5df48a1b1a114c3dacc5	498016076	1	main_slash	11	advance_on_keypress_SLASH	70	stimuli_target_circletriangles.svg	stimuli_distractor_trianglediamonds.svg	1	yes	57	0	227
6.6.1	win	2022-12-20	17:43:33	17:53:30	594639	5f0f5df48a1b1a114c3dacc5	498016076	1	main_slash	11	main_slash	71	stimuli_distractor_diamondtriangles.svg	stimuli_distractor_trianglediamonds.svg	38	no	0	1	2000
6.6.1	win	2022-12-20	17:43:33	17:53:30	594639	5f0f5df48a1b1a114c3dacc5	498016076	1	main_slash	11	advance_on_keypress_SLASH	72	stimuli_distractor_diamondtriangles.svg	stimuli_distractor_trianglediamonds.svg	38	no	57	0	662
6.6.1	win	2022-12-20	17:43:33	17:53:33	597939	5f0f5df48a1b1a114c3dacc5	498016076	1	main_slash	11	main_slash	73	stimuli_distractor_diamondtriangles.svg	stimuli_distractor_diamondtriangles.svg	40	no	0	1	2000
6.6.1	win	2022-12-20	17:43:33	17:53:33	597939	5f0f5df48a1b1a114c3dacc5	498016076	1	main_slash	11	advance_on_keypress_SLASH	74	stimuli_distractor_diamondtriangles.svg	stimuli_distractor_diamondtriangles.svg	40	no	57	0	361
6.6.1	win	2022-12-20	17:43:33	17:53:36	600939	5f0f5df48a1b1a114c3dacc5	498016076	1	main_slash	11	main_slash	75	stimuli_distractor_diamondtriangles.svg	stimuli_distractor_trianglediamonds.svg	37	no	0	1	2000
6.6.1	win	2022-12-20	17:43:33	17:53:36	600939	5f0f5df48a1b1a114c3dacc5	498016076	1	main_slash	11	advance_on_keypress_SLASH	76	stimuli_distractor_diamondtriangles.svg	stimuli_distractor_trianglediamonds.svg	37	no	57	0	355
6.6.1	win	2022-12-20	17:43:33	17:53:38	602758	5f0f5df48a1b1a114c3dacc5	498016076	1	main_slash	11	main_slash	77	stimuli_distractor_trianglediamonds.svg	stimuli_target_trianglecircles.svg	25	yes	53	1	819
6.6.1	win	2022-12-20	17:43:33	17:53:38	602758	5f0f5df48a1b1a114c3dacc5	498016076	1	main_slash	11	advance_on_keypress_SLASH	78	stimuli_distractor_trianglediamonds.svg	stimuli_target_trianglecircles.svg	25	yes	57	0	227
6.6.1	win	2022-12-20	17:43:33	17:53:40	604411	5f0f5df48a1b1a114c3dacc5	498016076	1	main_slash	11	main_slash	79	stimuli_distractor_diamondtriangles.svg	stimuli_target_diamondsquares.svg	32	yes	53	1	789
6.6.1	win	2022-12-20	17:43:33	17:53:40	604411	5f0f5df48a1b1a114c3dacc5	498016076	1	main_slash	11	advance_on_keypress_SLASH	80	stimuli_distractor_diamondtriangles.svg	stimuli_target_diamondsquares.svg	32	yes	57	0	150
6.6.1	win	2022-12-20	17:43:33	17:53:41	605910	5f0f5df48a1b1a114c3dacc5	498016076	1	main_slash	11	main_slash	81	stimuli_target_squaretriangles.svg	stimuli_distractor_trianglediamonds.svg	3	yes	53	1	705
6.6.1	win	2022-12-20	17:43:33	17:53:41	605910	5f0f5df48a1b1a114c3dacc5	498016076	1	main_slash	11	advance_on_keypress_SLASH	82	stimuli_target_squaretriangles.svg	stimuli_distractor_trianglediamonds.svg	3	yes	57	0	231
6.6.1	win	2022-12-20	17:43:33	17:53:43	607385	5f0f5df48a1b1a114c3dacc5	498016076	1	main_slash	11	main_slash	83	stimuli_distractor_trianglediamonds.svg	stimuli_target_squaretriangles.svg	11	yes	53	1	596
6.6.1	win	2022-12-20	17:43:33	17:53:43	607385	5f0f5df48a1b1a114c3dacc5	498016076	1	main_slash	11	advance_on_keypress_SLASH	84	stimuli_distractor_trianglediamonds.svg	stimuli_target_squaretriangles.svg	11	yes	57	0	258
6.6.1	win	2022-12-20	17:43:33	17:53:44	608932	5f0f5df48a1b1a114c3dacc5	498016076	1	main_slash	11	main_slash	85	stimuli_target_squarediamonds.svg	stimuli_distractor_trianglediamonds.svg	4	yes	53	1	659
6.6.1	win	2022-12-20	17:43:33	17:53:44	608932	5f0f5df48a1b1a114c3dacc5	498016076	1	main_slash	11	advance_on_keypress_SLASH	86	stimuli_target_squarediamonds.svg	stimuli_distractor_trianglediamonds.svg	4	yes	57	0	161
6.6.1	win	2022-12-20	17:43:33	17:53:46	610458	5f0f5df48a1b1a114c3dacc5	498016076	1	main_slash	11	main_slash	87	stimuli_target_circletriangles.svg	stimuli_distractor_diamondtriangles.svg	5	yes	53	1	735
6.6.1	win	2022-12-20	17:43:33	17:53:46	610458	5f0f5df48a1b1a114c3dacc5	498016076	1	main_slash	11	advance_on_keypress_SLASH	88	stimuli_target_circletriangles.svg	stimuli_distractor_diamondtriangles.svg	5	yes	57	0	121
6.6.1	win	2022-12-20	17:43:33	17:53:49	613222	5f0f5df48a1b1a114c3dacc5	498016076	1	main_slash	11	main_slash	89	stimuli_distractor_diamondtriangles.svg	stimuli_distractor_diamondtriangles.svg	40	no	0	1	2000
6.6.1	win	2022-12-20	17:43:33	17:53:49	613222	5f0f5df48a1b1a114c3dacc5	498016076	1	main_slash	11	advance_on_keypress_SLASH	90	stimuli_distractor_diamondtriangles.svg	stimuli_distractor_diamondtriangles.svg	40	no	57	0	272
6.6.1	win	2022-12-20	17:43:33	17:53:50	614958	5f0f5df48a1b1a114c3dacc5	498016076	1	main_slash	11	main_slash	91	stimuli_distractor_trianglediamonds.svg	stimuli_target_circlediamonds.svg	10	yes	53	1	818
6.6.1	win	2022-12-20	17:43:33	17:53:50	614958	5f0f5df48a1b1a114c3dacc5	498016076	1	main_slash	11	advance_on_keypress_SLASH	92	stimuli_distractor_trianglediamonds.svg	stimuli_target_circlediamonds.svg	10	yes	57	0	107
6.6.1	win	2022-12-20	17:43:33	17:53:53	617706	5f0f5df48a1b1a114c3dacc5	498016076	1	main_slash	11	main_slash	93	stimuli_distractor_diamondtriangles.svg	stimuli_distractor_diamondtriangles.svg	39	no	0	1	2000
6.6.1	win	2022-12-20	17:43:33	17:53:53	617706	5f0f5df48a1b1a114c3dacc5	498016076	1	main_slash	11	advance_on_keypress_SLASH	94	stimuli_distractor_diamondtriangles.svg	stimuli_distractor_diamondtriangles.svg	39	no	57	0	262
6.6.1	win	2022-12-20	17:43:33	17:53:55	619410	5f0f5df48a1b1a114c3dacc5	498016076	1	main_slash	11	main_slash	95	stimuli_distractor_diamondtriangles.svg	stimuli_target_diamondcircles.svg	31	yes	53	1	805
6.6.1	win	2022-12-20	17:43:33	17:53:55	619410	5f0f5df48a1b1a114c3dacc5	498016076	1	main_slash	11	advance_on_keypress_SLASH	96	stimuli_distractor_diamondtriangles.svg	stimuli_target_diamondcircles.svg	31	yes	57	0	257
6.6.1	win	2022-12-20	17:43:33	17:53:58	622306	5f0f5df48a1b1a114c3dacc5	498016076	1	main_slash	11	main_slash	97	stimuli_distractor_trianglediamonds.svg	stimuli_distractor_diamondtriangles.svg	35	no	0	1	2000
6.6.1	win	2022-12-20	17:43:33	17:53:58	622306	5f0f5df48a1b1a114c3dacc5	498016076	1	main_slash	11	advance_on_keypress_SLASH	98	stimuli_distractor_trianglediamonds.svg	stimuli_distractor_diamondtriangles.svg	35	no	57	0	249
6.6.1	win	2022-12-20	17:43:33	17:53:59	623958	5f0f5df48a1b1a114c3dacc5	498016076	1	main_slash	11	main_slash	99	stimuli_target_diamondsquares.svg	stimuli_distractor_trianglediamonds.svg	20	yes	53	1	752
6.6.1	win	2022-12-20	17:43:33	17:53:59	623958	5f0f5df48a1b1a114c3dacc5	498016076	1	main_slash	11	advance_on_keypress_SLASH	100	stimuli_target_diamondsquares.svg	stimuli_distractor_trianglediamonds.svg	20	yes	57	0	141
6.6.1	win	2022-12-20	17:43:33	17:54:01	625485	5f0f5df48a1b1a114c3dacc5	498016076	1	main_slash	11	main_slash	101	stimuli_distractor_trianglediamonds.svg	stimuli_target_squarediamonds.svg	12	yes	53	1	745
6.6.1	win	2022-12-20	17:43:33	17:54:01	625485	5f0f5df48a1b1a114c3dacc5	498016076	1	main_slash	11	advance_on_keypress_SLASH	102	stimuli_distractor_trianglediamonds.svg	stimuli_target_squarediamonds.svg	12	yes	57	0	163
6.6.1	win	2022-12-20	17:43:33	17:54:02	626985	5f0f5df48a1b1a114c3dacc5	498016076	1	main_slash	11	main_slash	103	stimuli_target_trianglecircles.svg	stimuli_distractor_trianglediamonds.svg	17	yes	53	1	712
6.6.1	win	2022-12-20	17:43:33	17:54:02	626985	5f0f5df48a1b1a114c3dacc5	498016076	1	main_slash	11	advance_on_keypress_SLASH	104	stimuli_target_trianglecircles.svg	stimuli_distractor_trianglediamonds.svg	17	yes	57	0	144
6.6.1	win	2022-12-20	17:43:33	17:54:04	628445	5f0f5df48a1b1a114c3dacc5	498016076	1	main_slash	11	main_slash	105	stimuli_target_diamondcircles.svg	stimuli_distractor_diamondtriangles.svg	23	yes	53	1	688
6.6.1	win	2022-12-20	17:43:33	17:54:04	628445	5f0f5df48a1b1a114c3dacc5	498016076	1	main_slash	11	advance_on_keypress_SLASH	106	stimuli_target_diamondcircles.svg	stimuli_distractor_diamondtriangles.svg	23	yes	57	0	237
6.6.1	win	2022-12-20	17:43:33	17:54:05	630073	5f0f5df48a1b1a114c3dacc5	498016076	1	main_slash	11	main_slash	107	stimuli_target_trianglesquares.svg	stimuli_distractor_trianglediamonds.svg	18	yes	53	1	750
6.6.1	win	2022-12-20	17:43:33	17:54:05	630073	5f0f5df48a1b1a114c3dacc5	498016076	1	main_slash	11	advance_on_keypress_SLASH	108	stimuli_target_trianglesquares.svg	stimuli_distractor_trianglediamonds.svg	18	yes	57	0	104
6.6.1	win	2022-12-20	17:43:33	17:54:07	631814	5f0f5df48a1b1a114c3dacc5	498016076	1	main_slash	11	main_slash	109	stimuli_distractor_trianglediamonds.svg	stimuli_target_diamondcircles.svg	27	yes	53	1	992
6.6.1	win	2022-12-20	17:43:33	17:54:07	631814	5f0f5df48a1b1a114c3dacc5	498016076	1	main_slash	11	advance_on_keypress_SLASH	110	stimuli_distractor_trianglediamonds.svg	stimuli_target_diamondcircles.svg	27	yes	57	0	187
6.6.1	win	2022-12-20	17:43:33	17:54:09	633443	5f0f5df48a1b1a114c3dacc5	498016076	1	main_slash	11	main_slash	111	stimuli_target_diamondsquares.svg	stimuli_distractor_diamondtriangles.svg	24	yes	53	1	803
6.6.1	win	2022-12-20	17:43:33	17:54:09	633443	5f0f5df48a1b1a114c3dacc5	498016076	1	main_slash	11	advance_on_keypress_SLASH	112	stimuli_target_diamondsquares.svg	stimuli_distractor_diamondtriangles.svg	24	yes	57	0	113
6.6.1	win	2022-12-20	17:43:33	17:54:10	634976	5f0f5df48a1b1a114c3dacc5	498016076	1	main_slash	11	main_slash	113	stimuli_target_circlediamonds.svg	stimuli_distractor_trianglediamonds.svg	2	yes	53	1	786
6.6.1	win	2022-12-20	17:43:33	17:54:10	634976	5f0f5df48a1b1a114c3dacc5	498016076	1	main_slash	11	advance_on_keypress_SLASH	114	stimuli_target_circlediamonds.svg	stimuli_distractor_trianglediamonds.svg	2	yes	57	0	168
6.6.1	win	2022-12-20	17:43:33	17:54:12	636503	5f0f5df48a1b1a114c3dacc5	498016076	1	main_slash	11	main_slash	115	stimuli_distractor_diamondtriangles.svg	stimuli_target_diamondsquares.svg	32	yes	53	1	713
6.6.1	win	2022-12-20	17:43:33	17:54:12	636503	5f0f5df48a1b1a114c3dacc5	498016076	1	main_slash	11	advance_on_keypress_SLASH	116	stimuli_distractor_diamondtriangles.svg	stimuli_target_diamondsquares.svg	32	yes	57	0	151
6.6.1	win	2022-12-20	17:43:33	17:54:13	638091	5f0f5df48a1b1a114c3dacc5	498016076	1	main_slash	11	main_slash	117	stimuli_target_circletriangles.svg	stimuli_distractor_trianglediamonds.svg	1	yes	53	1	801
6.6.1	win	2022-12-20	17:43:33	17:54:13	638091	5f0f5df48a1b1a114c3dacc5	498016076	1	main_slash	11	advance_on_keypress_SLASH	118	stimuli_target_circletriangles.svg	stimuli_distractor_trianglediamonds.svg	1	yes	57	0	118
6.6.1	win	2022-12-20	17:43:33	17:54:15	639618	5f0f5df48a1b1a114c3dacc5	498016076	1	main_slash	11	main_slash	119	stimuli_distractor_trianglediamonds.svg	stimuli_target_circletriangles.svg	9	yes	53	1	761
6.6.1	win	2022-12-20	17:43:33	17:54:15	639618	5f0f5df48a1b1a114c3dacc5	498016076	1	main_slash	11	advance_on_keypress_SLASH	120	stimuli_distractor_trianglediamonds.svg	stimuli_target_circletriangles.svg	9	yes	57	0	132
6.6.1	win	2022-12-20	17:43:33	17:54:16	641138	5f0f5df48a1b1a114c3dacc5	498016076	1	main_slash	11	main_slash	121	stimuli_distractor_diamondtriangles.svg	stimuli_target_circletriangles.svg	13	yes	53	1	748
6.6.1	win	2022-12-20	17:43:33	17:54:16	641138	5f0f5df48a1b1a114c3dacc5	498016076	1	main_slash	11	advance_on_keypress_SLASH	122	stimuli_distractor_diamondtriangles.svg	stimuli_target_circletriangles.svg	13	yes	57	0	89
6.6.1	win	2022-12-20	17:43:33	17:54:18	642741	5f0f5df48a1b1a114c3dacc5	498016076	1	main_slash	11	main_slash	123	stimuli_distractor_diamondtriangles.svg	stimuli_target_squarediamonds.svg	16	yes	53	1	867
6.6.1	win	2022-12-20	17:43:33	17:54:18	642741	5f0f5df48a1b1a114c3dacc5	498016076	1	main_slash	11	advance_on_keypress_SLASH	124	stimuli_distractor_diamondtriangles.svg	stimuli_target_squarediamonds.svg	16	yes	57	0	124
6.6.1	win	2022-12-20	17:43:33	17:54:20	644183	5f0f5df48a1b1a114c3dacc5	498016076	1	main_slash	11	main_slash	125	stimuli_target_squarediamonds.svg	stimuli_distractor_diamondtriangles.svg	8	yes	53	1	677
6.6.1	win	2022-12-20	17:43:33	17:54:20	644183	5f0f5df48a1b1a114c3dacc5	498016076	1	main_slash	11	advance_on_keypress_SLASH	126	stimuli_target_squarediamonds.svg	stimuli_distractor_diamondtriangles.svg	8	yes	57	0	237
6.6.1	win	2022-12-20	17:43:33	17:54:21	645535	5f0f5df48a1b1a114c3dacc5	498016076	1	main_slash	11	main_slash	127	stimuli_distractor_diamondtriangles.svg	stimuli_target_circlediamonds.svg	14	yes	53	1	479
6.6.1	win	2022-12-20	17:43:33	17:54:21	645535	5f0f5df48a1b1a114c3dacc5	498016076	1	main_slash	11	advance_on_keypress_SLASH	128	stimuli_distractor_diamondtriangles.svg	stimuli_target_circlediamonds.svg	14	yes	57	0	178
6.6.1	win	2022-12-20	17:43:33	17:54:24	648340	5f0f5df48a1b1a114c3dacc5	498016076	1	main_slash	11	main_slash	129	stimuli_distractor_trianglediamonds.svg	stimuli_distractor_trianglediamonds.svg	33	no	0	1	2000
6.6.1	win	2022-12-20	17:43:33	17:54:24	648340	5f0f5df48a1b1a114c3dacc5	498016076	1	main_slash	11	advance_on_keypress_SLASH	130	stimuli_distractor_trianglediamonds.svg	stimuli_distractor_trianglediamonds.svg	33	no	57	0	293
6.6.1	win	2022-12-20	17:43:33	17:54:25	650028	5f0f5df48a1b1a114c3dacc5	498016076	1	main_slash	11	main_slash	131	stimuli_target_squaretriangles.svg	stimuli_distractor_diamondtriangles.svg	7	yes	53	1	754
6.6.1	win	2022-12-20	17:43:33	17:54:25	650028	5f0f5df48a1b1a114c3dacc5	498016076	1	main_slash	11	advance_on_keypress_SLASH	132	stimuli_target_squaretriangles.svg	stimuli_distractor_diamondtriangles.svg	7	yes	57	0	318
6.6.1	win	2022-12-20	17:43:33	17:54:27	651682	5f0f5df48a1b1a114c3dacc5	498016076	1	main_slash	11	main_slash	133	stimuli_distractor_diamondtriangles.svg	stimuli_target_trianglesquares.svg	30	yes	53	1	693
6.6.1	win	2022-12-20	17:43:33	17:54:27	651682	5f0f5df48a1b1a114c3dacc5	498016076	1	main_slash	11	advance_on_keypress_SLASH	134	stimuli_distractor_diamondtriangles.svg	stimuli_target_trianglesquares.svg	30	yes	57	0	107
6.6.1	win	2022-12-20	17:43:33	17:54:30	654423	5f0f5df48a1b1a114c3dacc5	498016076	1	main_slash	11	main_slash	135	stimuli_distractor_diamondtriangles.svg	stimuli_distractor_trianglediamonds.svg	37	no	0	1	2000
6.6.1	win	2022-12-20	17:43:33	17:54:30	654423	5f0f5df48a1b1a114c3dacc5	498016076	1	main_slash	11	advance_on_keypress_SLASH	136	stimuli_distractor_diamondtriangles.svg	stimuli_distractor_trianglediamonds.svg	37	no	57	0	276
6.6.1	win	2022-12-20	17:43:33	17:54:31	655933	5f0f5df48a1b1a114c3dacc5	498016076	1	main_slash	11	main_slash	137	stimuli_target_circlediamonds.svg	stimuli_distractor_diamondtriangles.svg	6	yes	53	1	593
6.6.1	win	2022-12-20	17:43:33	17:54:31	655933	5f0f5df48a1b1a114c3dacc5	498016076	1	main_slash	11	advance_on_keypress_SLASH	138	stimuli_target_circlediamonds.svg	stimuli_distractor_diamondtriangles.svg	6	yes	57	0	249
6.6.1	win	2022-12-20	17:43:33	17:54:33	657427	5f0f5df48a1b1a114c3dacc5	498016076	1	main_slash	11	main_slash	139	stimuli_target_trianglecircles.svg	stimuli_distractor_diamondtriangles.svg	21	yes	53	1	603
6.6.1	win	2022-12-20	17:43:33	17:54:33	657427	5f0f5df48a1b1a114c3dacc5	498016076	1	main_slash	11	advance_on_keypress_SLASH	140	stimuli_target_trianglecircles.svg	stimuli_distractor_diamondtriangles.svg	21	yes	57	0	121
6.6.1	win	2022-12-20	17:43:33	17:54:34	658808	5f0f5df48a1b1a114c3dacc5	498016076	1	main_slash	11	main_slash	141	stimuli_target_diamondcircles.svg	stimuli_distractor_trianglediamonds.svg	19	yes	53	1	618
6.6.1	win	2022-12-20	17:43:33	17:54:34	658808	5f0f5df48a1b1a114c3dacc5	498016076	1	main_slash	11	advance_on_keypress_SLASH	142	stimuli_target_diamondcircles.svg	stimuli_distractor_trianglediamonds.svg	19	yes	57	0	170
6.6.1	win	2022-12-20	17:43:33	17:54:36	660251	5f0f5df48a1b1a114c3dacc5	498016076	1	main_slash	11	main_slash	143	stimuli_distractor_trianglediamonds.svg	stimuli_distractor_diamondtriangles.svg	36	no	53	0	628
6.6.1	win	2022-12-20	17:43:33	17:54:36	660251	5f0f5df48a1b1a114c3dacc5	498016076	1	main_slash	11	advance_on_keypress_SLASH	144	stimuli_distractor_trianglediamonds.svg	stimuli_distractor_diamondtriangles.svg	36	no	57	0	217
6.6.1	win	2022-12-20	17:43:33	17:54:37	661745	5f0f5df48a1b1a114c3dacc5	498016076	1	main_slash	11	main_slash	145	stimuli_target_trianglesquares.svg	stimuli_distractor_diamondtriangles.svg	22	yes	53	1	638
6.6.1	win	2022-12-20	17:43:33	17:54:37	661745	5f0f5df48a1b1a114c3dacc5	498016076	1	main_slash	11	advance_on_keypress_SLASH	146	stimuli_target_trianglesquares.svg	stimuli_distractor_diamondtriangles.svg	22	yes	57	0	156
6.6.1	win	2022-12-20	17:43:33	17:54:38	663096	5f0f5df48a1b1a114c3dacc5	498016076	1	main_slash	11	main_slash	147	stimuli_distractor_trianglediamonds.svg	stimuli_target_trianglecircles.svg	25	yes	53	1	557
6.6.1	win	2022-12-20	17:43:33	17:54:38	663096	5f0f5df48a1b1a114c3dacc5	498016076	1	main_slash	11	advance_on_keypress_SLASH	148	stimuli_distractor_trianglediamonds.svg	stimuli_target_trianglecircles.svg	25	yes	57	0	145
6.6.1	win	2022-12-20	17:43:33	17:54:40	664510	5f0f5df48a1b1a114c3dacc5	498016076	1	main_slash	11	main_slash	149	stimuli_distractor_diamondtriangles.svg	stimuli_target_squaretriangles.svg	15	yes	53	1	636
6.6.1	win	2022-12-20	17:43:33	17:54:40	664510	5f0f5df48a1b1a114c3dacc5	498016076	1	main_slash	11	advance_on_keypress_SLASH	150	stimuli_distractor_diamondtriangles.svg	stimuli_target_squaretriangles.svg	15	yes	57	0	147
6.6.1	win	2022-12-20	17:43:33	17:54:41	665828	5f0f5df48a1b1a114c3dacc5	498016076	1	main_slash	11	main_slash	151	stimuli_distractor_trianglediamonds.svg	stimuli_target_diamondsquares.svg	28	yes	53	1	522
6.6.1	win	2022-12-20	17:43:33	17:54:41	665828	5f0f5df48a1b1a114c3dacc5	498016076	1	main_slash	11	advance_on_keypress_SLASH	152	stimuli_distractor_trianglediamonds.svg	stimuli_target_diamondsquares.svg	28	yes	57	0	116
6.6.1	win	2022-12-20	17:43:33	17:54:44	668590	5f0f5df48a1b1a114c3dacc5	498016076	1	main_slash	11	main_slash	153	stimuli_distractor_diamondtriangles.svg	stimuli_distractor_trianglediamonds.svg	38	no	0	1	2000
6.6.1	win	2022-12-20	17:43:33	17:54:44	668590	5f0f5df48a1b1a114c3dacc5	498016076	1	main_slash	11	advance_on_keypress_SLASH	154	stimuli_distractor_diamondtriangles.svg	stimuli_distractor_trianglediamonds.svg	38	no	57	0	295
6.6.1	win	2022-12-20	17:43:33	17:54:47	671524	5f0f5df48a1b1a114c3dacc5	498016076	1	main_slash	11	main_slash	155	stimuli_distractor_trianglediamonds.svg	stimuli_distractor_trianglediamonds.svg	34	no	0	1	2000
6.6.1	win	2022-12-20	17:43:33	17:54:47	671524	5f0f5df48a1b1a114c3dacc5	498016076	1	main_slash	11	advance_on_keypress_SLASH	156	stimuli_distractor_trianglediamonds.svg	stimuli_distractor_trianglediamonds.svg	34	no	57	0	260
6.6.1	win	2022-12-20	17:43:33	17:54:48	673133	5f0f5df48a1b1a114c3dacc5	498016076	1	main_slash	11	main_slash	157	stimuli_distractor_trianglediamonds.svg	stimuli_target_trianglesquares.svg	26	yes	53	1	710
6.6.1	win	2022-12-20	17:43:33	17:54:48	673133	5f0f5df48a1b1a114c3dacc5	498016076	1	main_slash	11	advance_on_keypress_SLASH	158	stimuli_distractor_trianglediamonds.svg	stimuli_target_trianglesquares.svg	26	yes	57	0	120
6.6.1	win	2022-12-20	17:43:33	17:54:50	674531	5f0f5df48a1b1a114c3dacc5	498016076	1	main_slash	11	main_slash	159	stimuli_distractor_diamondtriangles.svg	stimuli_target_trianglecircles.svg	29	yes	53	1	641
6.6.1	win	2022-12-20	17:43:33	17:54:50	674531	5f0f5df48a1b1a114c3dacc5	498016076	1	main_slash	11	advance_on_keypress_SLASH	160	stimuli_distractor_diamondtriangles.svg	stimuli_target_trianglecircles.svg	29	yes	57	0	106