build	computer.platform	date	time	timestamp	time_elapsed_ms	subject	group	session	blockcode	blocknum	trialcode	trialnum	stimulus_left	stimulus_right	stim_index	target_present	response	correct	latency
6.6.1	win	2022-12-14	15:01:54	15:04:45	169314	612fcbbd5386d9edb42da147	754108718	1	practice_z	5	practice_z	1	stimuli_target_diamondsquares.svg	stimuli_distractor_diamondtriangles.svg	3	yes	44	1	612
6.6.1	win	2022-12-14	15:01:54	15:04:45	169314	612fcbbd5386d9edb42da147	754108718	1	practice_z	5	advance_on_keypress_ZEE	2	stimuli_target_diamondsquares.svg	stimuli_distractor_diamondtriangles.svg	3	yes	57	0	1834
6.6.1	win	2022-12-14	15:01:54	15:04:49	173370	612fcbbd5386d9edb42da147	754108718	1	practice_z	5	practice_z	3	stimuli_distractor_diamondtriangles.svg	stimuli_target_diamondcircles.svg	8	yes	44	1	498
6.6.1	win	2022-12-14	15:01:54	15:04:49	173370	612fcbbd5386d9edb42da147	754108718	1	practice_z	5	advance_on_keypress_ZEE	4	stimuli_distractor_diamondtriangles.svg	stimuli_target_diamondcircles.svg	8	yes	57	0	560
6.6.1	win	2022-12-14	15:01:54	15:04:51	176024	612fcbbd5386d9edb42da147	754108718	1	practice_z	5	practice_z	5	stimuli_distractor_trianglediamonds.svg	stimuli_target_squarediamonds.svg	11	yes	44	1	466
6.6.1	win	2022-12-14	15:01:54	15:04:51	176024	612fcbbd5386d9edb42da147	754108718	1	practice_z	5	advance_on_keypress_ZEE	6	stimuli_distractor_trianglediamonds.svg	stimuli_target_squarediamonds.svg	11	yes	57	0	507
6.6.1	win	2022-12-14	15:01:54	15:04:54	178750	612fcbbd5386d9edb42da147	754108718	1	practice_z	5	practice_z	7	stimuli_distractor_trianglediamonds.svg	stimuli_target_diamondcircles.svg	12	yes	44	1	589
6.6.1	win	2022-12-14	15:01:54	15:04:54	178750	612fcbbd5386d9edb42da147	754108718	1	practice_z	5	advance_on_keypress_ZEE	8	stimuli_distractor_trianglediamonds.svg	stimuli_target_diamondcircles.svg	12	yes	57	0	361
6.6.1	win	2022-12-14	15:01:54	15:04:57	181404	612fcbbd5386d9edb42da147	754108718	1	practice_z	5	practice_z	9	stimuli_target_circlediamonds.svg	stimuli_distractor_diamondtriangles.svg	1	yes	44	1	657
6.6.1	win	2022-12-14	15:01:54	15:04:57	181404	612fcbbd5386d9edb42da147	754108718	1	practice_z	5	advance_on_keypress_ZEE	10	stimuli_target_circlediamonds.svg	stimuli_distractor_diamondtriangles.svg	1	yes	57	0	409
6.6.1	win	2022-12-14	15:01:54	15:05:00	184235	612fcbbd5386d9edb42da147	754108718	1	practice_z	5	practice_z	11	stimuli_distractor_diamondtriangles.svg	stimuli_target_circletriangles.svg	7	yes	44	1	785
6.6.1	win	2022-12-14	15:01:54	15:05:00	184235	612fcbbd5386d9edb42da147	754108718	1	practice_z	5	advance_on_keypress_ZEE	12	stimuli_distractor_diamondtriangles.svg	stimuli_target_circletriangles.svg	7	yes	57	0	388
6.6.1	win	2022-12-14	15:01:54	15:05:04	188270	612fcbbd5386d9edb42da147	754108718	1	practice_z	5	practice_z	13	stimuli_distractor_diamondtriangles.svg	stimuli_distractor_diamondtriangles.svg	13	no	0	1	2000
6.6.1	win	2022-12-14	15:01:54	15:05:04	188270	612fcbbd5386d9edb42da147	754108718	1	practice_z	5	advance_on_keypress_ZEE	14	stimuli_distractor_diamondtriangles.svg	stimuli_distractor_diamondtriangles.svg	13	no	57	0	621
6.6.1	win	2022-12-14	15:01:54	15:05:08	192523	612fcbbd5386d9edb42da147	754108718	1	practice_z	5	practice_z	15	stimuli_target_diamondsquares.svg	stimuli_distractor_trianglediamonds.svg	6	yes	0	0	2000
6.6.1	win	2022-12-14	15:01:54	15:05:08	192523	612fcbbd5386d9edb42da147	754108718	1	practice_z	5	advance_on_keypress_ZEE	16	stimuli_target_diamondsquares.svg	stimuli_distractor_trianglediamonds.svg	6	yes	57	0	670
6.6.1	win	2022-12-14	15:01:54	15:05:12	196205	612fcbbd5386d9edb42da147	754108718	1	practice_z	5	practice_z	17	stimuli_distractor_trianglediamonds.svg	stimuli_distractor_diamondtriangles.svg	16	no	44	0	1377
6.6.1	win	2022-12-14	15:01:54	15:05:12	196205	612fcbbd5386d9edb42da147	754108718	1	practice_z	5	advance_on_keypress_ZEE	18	stimuli_distractor_trianglediamonds.svg	stimuli_distractor_diamondtriangles.svg	16	no	57	0	496
6.6.1	win	2022-12-14	15:01:54	15:05:15	199119	612fcbbd5386d9edb42da147	754108718	1	practice_z	5	practice_z	19	stimuli_target_circlediamonds.svg	stimuli_distractor_trianglediamonds.svg	4	yes	44	1	787
6.6.1	win	2022-12-14	15:01:54	15:05:15	199119	612fcbbd5386d9edb42da147	754108718	1	practice_z	5	advance_on_keypress_ZEE	20	stimuli_target_circlediamonds.svg	stimuli_distractor_trianglediamonds.svg	4	yes	57	0	295
6.6.1	win	2022-12-14	15:01:54	15:05:17	201766	612fcbbd5386d9edb42da147	754108718	1	practice_z	5	practice_z	21	stimuli_distractor_trianglediamonds.svg	stimuli_target_circlediamonds.svg	10	yes	44	1	715
6.6.1	win	2022-12-14	15:01:54	15:05:17	201766	612fcbbd5386d9edb42da147	754108718	1	practice_z	5	advance_on_keypress_ZEE	22	stimuli_distractor_trianglediamonds.svg	stimuli_target_circlediamonds.svg	10	yes	57	0	243
6.6.1	win	2022-12-14	15:01:54	15:05:21	205638	612fcbbd5386d9edb42da147	754108718	1	practice_z	5	practice_z	23	stimuli_distractor_trianglediamonds.svg	stimuli_distractor_trianglediamonds.svg	15	no	0	1	2000
6.6.1	win	2022-12-14	15:01:54	15:05:21	205638	612fcbbd5386d9edb42da147	754108718	1	practice_z	5	advance_on_keypress_ZEE	24	stimuli_distractor_trianglediamonds.svg	stimuli_distractor_trianglediamonds.svg	15	no	57	0	468
6.6.1	win	2022-12-14	15:01:54	15:05:25	209741	612fcbbd5386d9edb42da147	754108718	1	practice_z	5	practice_z	25	stimuli_distractor_diamondtriangles.svg	stimuli_distractor_trianglediamonds.svg	14	no	0	1	2000
6.6.1	win	2022-12-14	15:01:54	15:05:25	209741	612fcbbd5386d9edb42da147	754108718	1	practice_z	5	advance_on_keypress_ZEE	26	stimuli_distractor_diamondtriangles.svg	stimuli_distractor_trianglediamonds.svg	14	no	57	0	358
6.6.1	win	2022-12-14	15:01:54	15:05:28	212530	612fcbbd5386d9edb42da147	754108718	1	practice_z	5	practice_z	27	stimuli_distractor_diamondtriangles.svg	stimuli_target_trianglecircles.svg	9	yes	44	1	801
6.6.1	win	2022-12-14	15:01:54	15:05:28	212530	612fcbbd5386d9edb42da147	754108718	1	practice_z	5	advance_on_keypress_ZEE	28	stimuli_distractor_diamondtriangles.svg	stimuli_target_trianglecircles.svg	9	yes	57	0	507
6.6.1	win	2022-12-14	15:01:54	15:05:31	215461	612fcbbd5386d9edb42da147	754108718	1	practice_z	5	practice_z	29	stimuli_target_squarediamonds.svg	stimuli_distractor_trianglediamonds.svg	5	yes	44	1	778
6.6.1	win	2022-12-14	15:01:54	15:05:31	215461	612fcbbd5386d9edb42da147	754108718	1	practice_z	5	advance_on_keypress_ZEE	30	stimuli_target_squarediamonds.svg	stimuli_distractor_trianglediamonds.svg	5	yes	57	0	474
6.6.1	win	2022-12-14	15:01:54	15:05:34	218390	612fcbbd5386d9edb42da147	754108718	1	practice_z	5	practice_z	31	stimuli_target_squarediamonds.svg	stimuli_distractor_diamondtriangles.svg	2	yes	44	1	822
6.6.1	win	2022-12-14	15:01:54	15:05:34	218390	612fcbbd5386d9edb42da147	754108718	1	practice_z	5	advance_on_keypress_ZEE	32	stimuli_target_squarediamonds.svg	stimuli_distractor_diamondtriangles.svg	2	yes	57	0	355
6.6.1	win	2022-12-14	15:01:54	15:05:50	234488	612fcbbd5386d9edb42da147	754108718	1	main_z	7	main_z	1	stimuli_distractor_diamondtriangles.svg	stimuli_distractor_trianglediamonds.svg	37	no	44	0	1053
6.6.1	win	2022-12-14	15:01:54	15:05:50	234488	612fcbbd5386d9edb42da147	754108718	1	main_z	7	advance_on_keypress_ZEE	2	stimuli_distractor_diamondtriangles.svg	stimuli_distractor_trianglediamonds.svg	37	no	57	0	1041
6.6.1	win	2022-12-14	15:01:54	15:05:52	236922	612fcbbd5386d9edb42da147	754108718	1	main_z	7	main_z	3	stimuli_target_circlediamonds.svg	stimuli_distractor_trianglediamonds.svg	2	yes	44	1	760
6.6.1	win	2022-12-14	15:01:54	15:05:52	236922	612fcbbd5386d9edb42da147	754108718	1	main_z	7	advance_on_keypress_ZEE	4	stimuli_target_circlediamonds.svg	stimuli_distractor_trianglediamonds.svg	2	yes	57	0	548
6.6.1	win	2022-12-14	15:01:54	15:05:54	238804	612fcbbd5386d9edb42da147	754108718	1	main_z	7	main_z	5	stimuli_target_circletriangles.svg	stimuli_distractor_trianglediamonds.svg	1	yes	44	1	707
6.6.1	win	2022-12-14	15:01:54	15:05:54	238804	612fcbbd5386d9edb42da147	754108718	1	main_z	7	advance_on_keypress_ZEE	6	stimuli_target_circletriangles.svg	stimuli_distractor_trianglediamonds.svg	1	yes	57	0	487
6.6.1	win	2022-12-14	15:01:54	15:05:57	241932	612fcbbd5386d9edb42da147	754108718	1	main_z	7	main_z	7	stimuli_distractor_trianglediamonds.svg	stimuli_distractor_diamondtriangles.svg	36	no	0	1	2000
6.6.1	win	2022-12-14	15:01:54	15:05:57	241932	612fcbbd5386d9edb42da147	754108718	1	main_z	7	advance_on_keypress_ZEE	8	stimuli_distractor_trianglediamonds.svg	stimuli_distractor_diamondtriangles.svg	36	no	57	0	577
6.6.1	win	2022-12-14	15:01:54	15:06:01	245136	612fcbbd5386d9edb42da147	754108718	1	main_z	7	main_z	9	stimuli_target_diamondsquares.svg	stimuli_distractor_trianglediamonds.svg	20	yes	0	0	2000
6.6.1	win	2022-12-14	15:01:54	15:06:01	245136	612fcbbd5386d9edb42da147	754108718	1	main_z	7	advance_on_keypress_ZEE	10	stimuli_target_diamondsquares.svg	stimuli_distractor_trianglediamonds.svg	20	yes	57	0	482
6.6.1	win	2022-12-14	15:01:54	15:06:04	248256	612fcbbd5386d9edb42da147	754108718	1	main_z	7	main_z	11	stimuli_distractor_diamondtriangles.svg	stimuli_distractor_diamondtriangles.svg	39	no	0	1	2000
6.6.1	win	2022-12-14	15:01:54	15:06:04	248256	612fcbbd5386d9edb42da147	754108718	1	main_z	7	advance_on_keypress_ZEE	12	stimuli_distractor_diamondtriangles.svg	stimuli_distractor_diamondtriangles.svg	39	no	57	0	442
6.6.1	win	2022-12-14	15:01:54	15:06:07	251325	612fcbbd5386d9edb42da147	754108718	1	main_z	7	main_z	13	stimuli_target_diamondsquares.svg	stimuli_distractor_diamondtriangles.svg	24	yes	0	0	2000
6.6.1	win	2022-12-14	15:01:54	15:06:07	251325	612fcbbd5386d9edb42da147	754108718	1	main_z	7	advance_on_keypress_ZEE	14	stimuli_target_diamondsquares.svg	stimuli_distractor_diamondtriangles.svg	24	yes	57	0	390
6.6.1	win	2022-12-14	15:01:54	15:06:09	253120	612fcbbd5386d9edb42da147	754108718	1	main_z	7	main_z	15	stimuli_target_diamondcircles.svg	stimuli_distractor_trianglediamonds.svg	19	yes	44	1	776
6.6.1	win	2022-12-14	15:01:54	15:06:09	253120	612fcbbd5386d9edb42da147	754108718	1	main_z	7	advance_on_keypress_ZEE	16	stimuli_target_diamondcircles.svg	stimuli_distractor_trianglediamonds.svg	19	yes	57	0	827
6.6.1	win	2022-12-14	15:01:54	15:06:11	255478	612fcbbd5386d9edb42da147	754108718	1	main_z	7	main_z	17	stimuli_target_squarediamonds.svg	stimuli_distractor_diamondtriangles.svg	8	yes	44	1	897
6.6.1	win	2022-12-14	15:01:54	15:06:11	255478	612fcbbd5386d9edb42da147	754108718	1	main_z	7	advance_on_keypress_ZEE	18	stimuli_target_squarediamonds.svg	stimuli_distractor_diamondtriangles.svg	8	yes	57	0	562
6.6.1	win	2022-12-14	15:01:54	15:06:13	257532	612fcbbd5386d9edb42da147	754108718	1	main_z	7	main_z	19	stimuli_target_circletriangles.svg	stimuli_distractor_diamondtriangles.svg	5	yes	44	1	867
6.6.1	win	2022-12-14	15:01:54	15:06:13	257532	612fcbbd5386d9edb42da147	754108718	1	main_z	7	advance_on_keypress_ZEE	20	stimuli_target_circletriangles.svg	stimuli_distractor_diamondtriangles.svg	5	yes	57	0	489
6.6.1	win	2022-12-14	15:01:54	15:06:15	259486	612fcbbd5386d9edb42da147	754108718	1	main_z	7	main_z	21	stimuli_distractor_diamondtriangles.svg	stimuli_target_circletriangles.svg	13	yes	44	1	818
6.6.1	win	2022-12-14	15:01:54	15:06:15	259486	612fcbbd5386d9edb42da147	754108718	1	main_z	7	advance_on_keypress_ZEE	22	stimuli_distractor_diamondtriangles.svg	stimuli_target_circletriangles.svg	13	yes	57	0	434
6.6.1	win	2022-12-14	15:01:54	15:06:17	261679	612fcbbd5386d9edb42da147	754108718	1	main_z	7	main_z	23	stimuli_distractor_diamondtriangles.svg	stimuli_target_squarediamonds.svg	16	yes	44	1	1109
6.6.1	win	2022-12-14	15:01:54	15:06:17	261679	612fcbbd5386d9edb42da147	754108718	1	main_z	7	advance_on_keypress_ZEE	24	stimuli_distractor_diamondtriangles.svg	stimuli_target_squarediamonds.svg	16	yes	57	0	351
6.6.1	win	2022-12-14	15:01:54	15:06:19	263581	612fcbbd5386d9edb42da147	754108718	1	main_z	7	main_z	25	stimuli_distractor_diamondtriangles.svg	stimuli_target_trianglesquares.svg	30	yes	44	1	908
6.6.1	win	2022-12-14	15:01:54	15:06:19	263581	612fcbbd5386d9edb42da147	754108718	1	main_z	7	advance_on_keypress_ZEE	26	stimuli_distractor_diamondtriangles.svg	stimuli_target_trianglesquares.svg	30	yes	57	0	381
6.6.1	win	2022-12-14	15:01:54	15:06:21	265482	612fcbbd5386d9edb42da147	754108718	1	main_z	7	main_z	27	stimuli_target_trianglesquares.svg	stimuli_distractor_diamondtriangles.svg	22	yes	44	1	891
6.6.1	win	2022-12-14	15:01:54	15:06:21	265482	612fcbbd5386d9edb42da147	754108718	1	main_z	7	advance_on_keypress_ZEE	28	stimuli_target_trianglesquares.svg	stimuli_distractor_diamondtriangles.svg	22	yes	57	0	371
6.6.1	win	2022-12-14	15:01:54	15:06:23	267322	612fcbbd5386d9edb42da147	754108718	1	main_z	7	main_z	29	stimuli_distractor_trianglediamonds.svg	stimuli_target_trianglecircles.svg	25	yes	44	1	829
6.6.1	win	2022-12-14	15:01:54	15:06:23	267322	612fcbbd5386d9edb42da147	754108718	1	main_z	7	advance_on_keypress_ZEE	30	stimuli_distractor_trianglediamonds.svg	stimuli_target_trianglecircles.svg	25	yes	57	0	434
6.6.1	win	2022-12-14	15:01:54	15:06:25	269180	612fcbbd5386d9edb42da147	754108718	1	main_z	7	main_z	31	stimuli_target_squaretriangles.svg	stimuli_distractor_diamondtriangles.svg	7	yes	44	1	785
6.6.1	win	2022-12-14	15:01:54	15:06:25	269180	612fcbbd5386d9edb42da147	754108718	1	main_z	7	advance_on_keypress_ZEE	32	stimuli_target_squaretriangles.svg	stimuli_distractor_diamondtriangles.svg	7	yes	57	0	358
6.6.1	win	2022-12-14	15:01:54	15:06:26	271022	612fcbbd5386d9edb42da147	754108718	1	main_z	7	main_z	33	stimuli_distractor_trianglediamonds.svg	stimuli_target_circlediamonds.svg	10	yes	44	1	842
6.6.1	win	2022-12-14	15:01:54	15:06:26	271022	612fcbbd5386d9edb42da147	754108718	1	main_z	7	advance_on_keypress_ZEE	34	stimuli_distractor_trianglediamonds.svg	stimuli_target_circlediamonds.svg	10	yes	57	0	406
6.6.1	win	2022-12-14	15:01:54	15:06:28	272924	612fcbbd5386d9edb42da147	754108718	1	main_z	7	main_z	35	stimuli_target_trianglecircles.svg	stimuli_distractor_trianglediamonds.svg	17	yes	44	1	858
6.6.1	win	2022-12-14	15:01:54	15:06:28	272924	612fcbbd5386d9edb42da147	754108718	1	main_z	7	advance_on_keypress_ZEE	36	stimuli_target_trianglecircles.svg	stimuli_distractor_trianglediamonds.svg	17	yes	57	0	417
6.6.1	win	2022-12-14	15:01:54	15:06:30	274906	612fcbbd5386d9edb42da147	754108718	1	main_z	7	main_z	37	stimuli_distractor_trianglediamonds.svg	stimuli_distractor_diamondtriangles.svg	35	no	44	0	922
6.6.1	win	2022-12-14	15:01:54	15:06:30	274906	612fcbbd5386d9edb42da147	754108718	1	main_z	7	advance_on_keypress_ZEE	38	stimuli_distractor_trianglediamonds.svg	stimuli_distractor_diamondtriangles.svg	35	no	57	0	389
6.6.1	win	2022-12-14	15:01:54	15:06:32	276841	612fcbbd5386d9edb42da147	754108718	1	main_z	7	main_z	39	stimuli_distractor_trianglediamonds.svg	stimuli_target_squarediamonds.svg	12	yes	44	1	905
6.6.1	win	2022-12-14	15:01:54	15:06:32	276841	612fcbbd5386d9edb42da147	754108718	1	main_z	7	advance_on_keypress_ZEE	40	stimuli_distractor_trianglediamonds.svg	stimuli_target_squarediamonds.svg	12	yes	57	0	319
6.6.1	win	2022-12-14	15:01:54	15:06:34	279029	612fcbbd5386d9edb42da147	754108718	1	main_z	7	main_z	41	stimuli_distractor_trianglediamonds.svg	stimuli_target_diamondsquares.svg	28	yes	44	1	1224
6.6.1	win	2022-12-14	15:01:54	15:06:34	279029	612fcbbd5386d9edb42da147	754108718	1	main_z	7	advance_on_keypress_ZEE	42	stimuli_distractor_trianglediamonds.svg	stimuli_target_diamondsquares.svg	28	yes	57	0	340
6.6.1	win	2022-12-14	15:01:54	15:06:37	282007	612fcbbd5386d9edb42da147	754108718	1	main_z	7	main_z	43	stimuli_distractor_diamondtriangles.svg	stimuli_target_circlediamonds.svg	14	yes	0	0	2000
6.6.1	win	2022-12-14	15:01:54	15:06:37	282007	612fcbbd5386d9edb42da147	754108718	1	main_z	7	advance_on_keypress_ZEE	44	stimuli_distractor_diamondtriangles.svg	stimuli_target_circlediamonds.svg	14	yes	57	0	818
6.6.1	win	2022-12-14	15:01:54	15:06:40	284231	612fcbbd5386d9edb42da147	754108718	1	main_z	7	main_z	45	stimuli_target_trianglecircles.svg	stimuli_distractor_diamondtriangles.svg	21	yes	44	1	770
6.6.1	win	2022-12-14	15:01:54	15:06:40	284231	612fcbbd5386d9edb42da147	754108718	1	main_z	7	advance_on_keypress_ZEE	46	stimuli_target_trianglecircles.svg	stimuli_distractor_diamondtriangles.svg	21	yes	57	0	441
6.6.1	win	2022-12-14	15:01:54	15:06:43	287312	612fcbbd5386d9edb42da147	754108718	1	main_z	7	main_z	47	stimuli_distractor_trianglediamonds.svg	stimuli_distractor_trianglediamonds.svg	33	no	0	1	2000
6.6.1	win	2022-12-14	15:01:54	15:06:43	287312	612fcbbd5386d9edb42da147	754108718	1	main_z	7	advance_on_keypress_ZEE	48	stimuli_distractor_trianglediamonds.svg	stimuli_distractor_trianglediamonds.svg	33	no	57	0	422
6.6.1	win	2022-12-14	15:01:54	15:06:45	289114	612fcbbd5386d9edb42da147	754108718	1	main_z	7	main_z	49	stimuli_distractor_diamondtriangles.svg	stimuli_target_diamondcircles.svg	31	yes	44	1	748
6.6.1	win	2022-12-14	15:01:54	15:06:45	289114	612fcbbd5386d9edb42da147	754108718	1	main_z	7	advance_on_keypress_ZEE	50	stimuli_distractor_diamondtriangles.svg	stimuli_target_diamondcircles.svg	31	yes	57	0	483
6.6.1	win	2022-12-14	15:01:54	15:06:47	291146	612fcbbd5386d9edb42da147	754108718	1	main_z	7	main_z	51	stimuli_target_squaretriangles.svg	stimuli_distractor_trianglediamonds.svg	3	yes	44	1	913
6.6.1	win	2022-12-14	15:01:54	15:06:47	291146	612fcbbd5386d9edb42da147	754108718	1	main_z	7	advance_on_keypress_ZEE	52	stimuli_target_squaretriangles.svg	stimuli_distractor_trianglediamonds.svg	3	yes	57	0	350
6.6.1	win	2022-12-14	15:01:54	15:06:48	293046	612fcbbd5386d9edb42da147	754108718	1	main_z	7	main_z	53	stimuli_distractor_trianglediamonds.svg	stimuli_target_squaretriangles.svg	11	yes	44	1	910
6.6.1	win	2022-12-14	15:01:54	15:06:48	293046	612fcbbd5386d9edb42da147	754108718	1	main_z	7	advance_on_keypress_ZEE	54	stimuli_distractor_trianglediamonds.svg	stimuli_target_squaretriangles.svg	11	yes	57	0	290
6.6.1	win	2022-12-14	15:01:54	15:06:50	294904	612fcbbd5386d9edb42da147	754108718	1	main_z	7	main_z	55	stimuli_distractor_diamondtriangles.svg	stimuli_target_squaretriangles.svg	15	yes	44	1	934
6.6.1	win	2022-12-14	15:01:54	15:06:50	294904	612fcbbd5386d9edb42da147	754108718	1	main_z	7	advance_on_keypress_ZEE	56	stimuli_distractor_diamondtriangles.svg	stimuli_target_squaretriangles.svg	15	yes	57	0	297
6.6.1	win	2022-12-14	15:01:54	15:06:52	296691	612fcbbd5386d9edb42da147	754108718	1	main_z	7	main_z	57	stimuli_target_circlediamonds.svg	stimuli_distractor_diamondtriangles.svg	6	yes	44	1	852
6.6.1	win	2022-12-14	15:01:54	15:06:52	296691	612fcbbd5386d9edb42da147	754108718	1	main_z	7	advance_on_keypress_ZEE	58	stimuli_target_circlediamonds.svg	stimuli_distractor_diamondtriangles.svg	6	yes	57	0	407
6.6.1	win	2022-12-14	15:01:54	15:06:54	298615	612fcbbd5386d9edb42da147	754108718	1	main_z	7	main_z	59	stimuli_distractor_diamondtriangles.svg	stimuli_target_diamondsquares.svg	32	yes	44	1	873
6.6.1	win	2022-12-14	15:01:54	15:06:54	298615	612fcbbd5386d9edb42da147	754108718	1	main_z	7	advance_on_keypress_ZEE	60	stimuli_distractor_diamondtriangles.svg	stimuli_target_diamondsquares.svg	32	yes	57	0	294
6.6.1	win	2022-12-14	15:01:54	15:06:56	300409	612fcbbd5386d9edb42da147	754108718	1	main_z	7	main_z	61	stimuli_target_trianglesquares.svg	stimuli_distractor_trianglediamonds.svg	18	yes	44	1	865
6.6.1	win	2022-12-14	15:01:54	15:06:56	300409	612fcbbd5386d9edb42da147	754108718	1	main_z	7	advance_on_keypress_ZEE	62	stimuli_target_trianglesquares.svg	stimuli_distractor_trianglediamonds.svg	18	yes	57	0	350
6.6.1	win	2022-12-14	15:01:54	15:06:59	303395	612fcbbd5386d9edb42da147	754108718	1	main_z	7	main_z	63	stimuli_distractor_trianglediamonds.svg	stimuli_distractor_trianglediamonds.svg	34	no	0	1	2000
6.6.1	win	2022-12-14	15:01:54	15:06:59	303395	612fcbbd5386d9edb42da147	754108718	1	main_z	7	advance_on_keypress_ZEE	64	stimuli_distractor_trianglediamonds.svg	stimuli_distractor_trianglediamonds.svg	34	no	57	0	754
6.6.1	win	2022-12-14	15:01:54	15:07:01	305517	612fcbbd5386d9edb42da147	754108718	1	main_z	7	main_z	65	stimuli_target_squarediamonds.svg	stimuli_distractor_trianglediamonds.svg	4	yes	44	1	735
6.6.1	win	2022-12-14	15:01:54	15:07:01	305517	612fcbbd5386d9edb42da147	754108718	1	main_z	7	advance_on_keypress_ZEE	66	stimuli_target_squarediamonds.svg	stimuli_distractor_trianglediamonds.svg	4	yes	57	0	347
6.6.1	win	2022-12-14	15:01:54	15:07:03	307230	612fcbbd5386d9edb42da147	754108718	1	main_z	7	main_z	67	stimuli_distractor_diamondtriangles.svg	stimuli_target_trianglecircles.svg	29	yes	44	1	729
6.6.1	win	2022-12-14	15:01:54	15:07:03	307230	612fcbbd5386d9edb42da147	754108718	1	main_z	7	advance_on_keypress_ZEE	68	stimuli_distractor_diamondtriangles.svg	stimuli_target_trianglecircles.svg	29	yes	57	0	373
6.6.1	win	2022-12-14	15:01:54	15:07:04	309063	612fcbbd5386d9edb42da147	754108718	1	main_z	7	main_z	69	stimuli_distractor_trianglediamonds.svg	stimuli_target_trianglesquares.svg	26	yes	44	1	827
6.6.1	win	2022-12-14	15:01:54	15:07:04	309063	612fcbbd5386d9edb42da147	754108718	1	main_z	7	advance_on_keypress_ZEE	70	stimuli_distractor_trianglediamonds.svg	stimuli_target_trianglesquares.svg	26	yes	57	0	322
6.6.1	win	2022-12-14	15:01:54	15:07:07	312021	612fcbbd5386d9edb42da147	754108718	1	main_z	7	main_z	71	stimuli_distractor_diamondtriangles.svg	stimuli_distractor_trianglediamonds.svg	38	no	0	1	2000
6.6.1	win	2022-12-14	15:01:54	15:07:07	312021	612fcbbd5386d9edb42da147	754108718	1	main_z	7	advance_on_keypress_ZEE	72	stimuli_distractor_diamondtriangles.svg	stimuli_distractor_trianglediamonds.svg	38	no	57	0	1197
6.6.1	win	2022-12-14	15:01:54	15:07:10	314581	612fcbbd5386d9edb42da147	754108718	1	main_z	7	main_z	73	stimuli_target_diamondcircles.svg	stimuli_distractor_diamondtriangles.svg	23	yes	44	1	740
6.6.1	win	2022-12-14	15:01:54	15:07:10	314581	612fcbbd5386d9edb42da147	754108718	1	main_z	7	advance_on_keypress_ZEE	74	stimuli_target_diamondcircles.svg	stimuli_distractor_diamondtriangles.svg	23	yes	57	0	372
6.6.1	win	2022-12-14	15:01:54	15:07:12	316385	612fcbbd5386d9edb42da147	754108718	1	main_z	7	main_z	75	stimuli_distractor_trianglediamonds.svg	stimuli_target_circletriangles.svg	9	yes	44	1	792
6.6.1	win	2022-12-14	15:01:54	15:07:12	316385	612fcbbd5386d9edb42da147	754108718	1	main_z	7	advance_on_keypress_ZEE	76	stimuli_distractor_trianglediamonds.svg	stimuli_target_circletriangles.svg	9	yes	57	0	321
6.6.1	win	2022-12-14	15:01:54	15:07:14	318116	612fcbbd5386d9edb42da147	754108718	1	main_z	7	main_z	77	stimuli_distractor_trianglediamonds.svg	stimuli_target_diamondcircles.svg	27	yes	44	1	771
6.6.1	win	2022-12-14	15:01:54	15:07:14	318116	612fcbbd5386d9edb42da147	754108718	1	main_z	7	advance_on_keypress_ZEE	78	stimuli_distractor_trianglediamonds.svg	stimuli_target_diamondcircles.svg	27	yes	57	0	350
6.6.1	win	2022-12-14	15:01:54	15:07:17	321113	612fcbbd5386d9edb42da147	754108718	1	main_z	7	main_z	79	stimuli_distractor_diamondtriangles.svg	stimuli_distractor_diamondtriangles.svg	40	no	0	1	2000
6.6.1	win	2022-12-14	15:01:54	15:07:17	321113	612fcbbd5386d9edb42da147	754108718	1	main_z	7	advance_on_keypress_ZEE	80	stimuli_distractor_diamondtriangles.svg	stimuli_distractor_diamondtriangles.svg	40	no	57	0	620
6.6.1	win	2022-12-14	15:01:54	15:07:19	323133	612fcbbd5386d9edb42da147	754108718	1	main_z	7	main_z	81	stimuli_distractor_trianglediamonds.svg	stimuli_target_trianglesquares.svg	26	yes	44	1	766
6.6.1	win	2022-12-14	15:01:54	15:07:19	323133	612fcbbd5386d9edb42da147	754108718	1	main_z	7	advance_on_keypress_ZEE	82	stimuli_distractor_trianglediamonds.svg	stimuli_target_trianglesquares.svg	26	yes	57	0	676
6.6.1	win	2022-12-14	15:01:54	15:07:21	325163	612fcbbd5386d9edb42da147	754108718	1	main_z	7	main_z	83	stimuli_distractor_trianglediamonds.svg	stimuli_target_diamondcircles.svg	27	yes	44	1	727
6.6.1	win	2022-12-14	15:01:54	15:07:21	325163	612fcbbd5386d9edb42da147	754108718	1	main_z	7	advance_on_keypress_ZEE	84	stimuli_distractor_trianglediamonds.svg	stimuli_target_diamondcircles.svg	27	yes	57	0	334
6.6.1	win	2022-12-14	15:01:54	15:07:24	328137	612fcbbd5386d9edb42da147	754108718	1	main_z	7	main_z	85	stimuli_distractor_trianglediamonds.svg	stimuli_distractor_trianglediamonds.svg	33	no	0	1	2000
6.6.1	win	2022-12-14	15:01:54	15:07:24	328137	612fcbbd5386d9edb42da147	754108718	1	main_z	7	advance_on_keypress_ZEE	86	stimuli_distractor_trianglediamonds.svg	stimuli_distractor_trianglediamonds.svg	33	no	57	0	349
6.6.1	win	2022-12-14	15:01:54	15:07:25	329876	612fcbbd5386d9edb42da147	754108718	1	main_z	7	main_z	87	stimuli_target_squarediamonds.svg	stimuli_distractor_diamondtriangles.svg	8	yes	44	1	752
6.6.1	win	2022-12-14	15:01:54	15:07:25	329876	612fcbbd5386d9edb42da147	754108718	1	main_z	7	advance_on_keypress_ZEE	88	stimuli_target_squarediamonds.svg	stimuli_distractor_diamondtriangles.svg	8	yes	57	0	387
6.6.1	win	2022-12-14	15:01:54	15:07:27	331636	612fcbbd5386d9edb42da147	754108718	1	main_z	7	main_z	89	stimuli_distractor_diamondtriangles.svg	stimuli_target_trianglesquares.svg	30	yes	44	1	727
6.6.1	win	2022-12-14	15:01:54	15:07:27	331636	612fcbbd5386d9edb42da147	754108718	1	main_z	7	advance_on_keypress_ZEE	90	stimuli_distractor_diamondtriangles.svg	stimuli_target_trianglesquares.svg	30	yes	57	0	345
6.6.1	win	2022-12-14	15:01:54	15:07:30	334611	612fcbbd5386d9edb42da147	754108718	1	main_z	7	main_z	91	stimuli_distractor_trianglediamonds.svg	stimuli_distractor_diamondtriangles.svg	35	no	0	1	2000
6.6.1	win	2022-12-14	15:01:54	15:07:30	334611	612fcbbd5386d9edb42da147	754108718	1	main_z	7	advance_on_keypress_ZEE	92	stimuli_distractor_trianglediamonds.svg	stimuli_distractor_diamondtriangles.svg	35	no	57	0	533
6.6.1	win	2022-12-14	15:01:54	15:07:32	336461	612fcbbd5386d9edb42da147	754108718	1	main_z	7	main_z	93	stimuli_target_trianglesquares.svg	stimuli_distractor_diamondtriangles.svg	22	yes	44	1	681
6.6.1	win	2022-12-14	15:01:54	15:07:32	336461	612fcbbd5386d9edb42da147	754108718	1	main_z	7	advance_on_keypress_ZEE	94	stimuli_target_trianglesquares.svg	stimuli_distractor_diamondtriangles.svg	22	yes	57	0	426
6.6.1	win	2022-12-14	15:01:54	15:07:34	338326	612fcbbd5386d9edb42da147	754108718	1	main_z	7	main_z	95	stimuli_target_squarediamonds.svg	stimuli_distractor_trianglediamonds.svg	4	yes	44	1	810
6.6.1	win	2022-12-14	15:01:54	15:07:34	338326	612fcbbd5386d9edb42da147	754108718	1	main_z	7	advance_on_keypress_ZEE	96	stimuli_target_squarediamonds.svg	stimuli_distractor_trianglediamonds.svg	4	yes	57	0	347
6.6.1	win	2022-12-14	15:01:54	15:07:35	340071	612fcbbd5386d9edb42da147	754108718	1	main_z	7	main_z	97	stimuli_distractor_diamondtriangles.svg	stimuli_target_circlediamonds.svg	14	yes	44	1	771
6.6.1	win	2022-12-14	15:01:54	15:07:35	340071	612fcbbd5386d9edb42da147	754108718	1	main_z	7	advance_on_keypress_ZEE	98	stimuli_distractor_diamondtriangles.svg	stimuli_target_circlediamonds.svg	14	yes	57	0	349
6.6.1	win	2022-12-14	15:01:54	15:07:37	341815	612fcbbd5386d9edb42da147	754108718	1	main_z	7	main_z	99	stimuli_target_circletriangles.svg	stimuli_distractor_trianglediamonds.svg	1	yes	44	1	746
6.6.1	win	2022-12-14	15:01:54	15:07:37	341815	612fcbbd5386d9edb42da147	754108718	1	main_z	7	advance_on_keypress_ZEE	100	stimuli_target_circletriangles.svg	stimuli_distractor_trianglediamonds.svg	1	yes	57	0	329
6.6.1	win	2022-12-14	15:01:54	15:07:39	343488	612fcbbd5386d9edb42da147	754108718	1	main_z	7	main_z	101	stimuli_target_circletriangles.svg	stimuli_distractor_diamondtriangles.svg	5	yes	44	1	717
6.6.1	win	2022-12-14	15:01:54	15:07:39	343488	612fcbbd5386d9edb42da147	754108718	1	main_z	7	advance_on_keypress_ZEE	102	stimuli_target_circletriangles.svg	stimuli_distractor_diamondtriangles.svg	5	yes	57	0	301
6.6.1	win	2022-12-14	15:01:54	15:07:41	345208	612fcbbd5386d9edb42da147	754108718	1	main_z	7	main_z	103	stimuli_distractor_diamondtriangles.svg	stimuli_target_trianglecircles.svg	29	yes	44	1	769
6.6.1	win	2022-12-14	15:01:54	15:07:41	345208	612fcbbd5386d9edb42da147	754108718	1	main_z	7	advance_on_keypress_ZEE	104	stimuli_distractor_diamondtriangles.svg	stimuli_target_trianglecircles.svg	29	yes	57	0	369
6.6.1	win	2022-12-14	15:01:54	15:07:44	348224	612fcbbd5386d9edb42da147	754108718	1	main_z	7	main_z	105	stimuli_distractor_trianglediamonds.svg	stimuli_distractor_trianglediamonds.svg	34	no	0	1	2000
6.6.1	win	2022-12-14	15:01:54	15:07:44	348224	612fcbbd5386d9edb42da147	754108718	1	main_z	7	advance_on_keypress_ZEE	106	stimuli_distractor_trianglediamonds.svg	stimuli_distractor_trianglediamonds.svg	34	no	57	0	705
6.6.1	win	2022-12-14	15:01:54	15:07:47	351561	612fcbbd5386d9edb42da147	754108718	1	main_z	7	main_z	107	stimuli_distractor_diamondtriangles.svg	stimuli_distractor_trianglediamonds.svg	37	no	0	1	2000
6.6.1	win	2022-12-14	15:01:54	15:07:47	351561	612fcbbd5386d9edb42da147	754108718	1	main_z	7	advance_on_keypress_ZEE	108	stimuli_distractor_diamondtriangles.svg	stimuli_distractor_trianglediamonds.svg	37	no	57	0	365
6.6.1	win	2022-12-14	15:01:54	15:07:49	353277	612fcbbd5386d9edb42da147	754108718	1	main_z	7	main_z	109	stimuli_distractor_diamondtriangles.svg	stimuli_target_squaretriangles.svg	15	yes	44	1	730
6.6.1	win	2022-12-14	15:01:54	15:07:49	353277	612fcbbd5386d9edb42da147	754108718	1	main_z	7	advance_on_keypress_ZEE	110	stimuli_distractor_diamondtriangles.svg	stimuli_target_squaretriangles.svg	15	yes	57	0	401
6.6.1	win	2022-12-14	15:01:54	15:07:52	356316	612fcbbd5386d9edb42da147	754108718	1	main_z	7	main_z	111	stimuli_distractor_trianglediamonds.svg	stimuli_distractor_diamondtriangles.svg	36	no	0	1	2000
6.6.1	win	2022-12-14	15:01:54	15:07:52	356316	612fcbbd5386d9edb42da147	754108718	1	main_z	7	advance_on_keypress_ZEE	112	stimuli_distractor_trianglediamonds.svg	stimuli_distractor_diamondtriangles.svg	36	no	57	0	361
6.6.1	win	2022-12-14	15:01:54	15:07:53	358061	612fcbbd5386d9edb42da147	754108718	1	main_z	7	main_z	113	stimuli_distractor_diamondtriangles.svg	stimuli_target_diamondcircles.svg	31	yes	44	1	759
6.6.1	win	2022-12-14	15:01:54	15:07:53	358061	612fcbbd5386d9edb42da147	754108718	1	main_z	7	advance_on_keypress_ZEE	114	stimuli_distractor_diamondtriangles.svg	stimuli_target_diamondcircles.svg	31	yes	57	0	351
6.6.1	win	2022-12-14	15:01:54	15:07:55	359808	612fcbbd5386d9edb42da147	754108718	1	main_z	7	main_z	115	stimuli_target_diamondcircles.svg	stimuli_distractor_trianglediamonds.svg	19	yes	44	1	754
6.6.1	win	2022-12-14	15:01:54	15:07:55	359808	612fcbbd5386d9edb42da147	754108718	1	main_z	7	advance_on_keypress_ZEE	116	stimuli_target_diamondcircles.svg	stimuli_distractor_trianglediamonds.svg	19	yes	57	0	371
6.6.1	win	2022-12-14	15:01:54	15:07:58	362173	612fcbbd5386d9edb42da147	754108718	1	main_z	7	main_z	117	stimuli_distractor_diamondtriangles.svg	stimuli_target_diamondsquares.svg	32	yes	44	1	1350
6.6.1	win	2022-12-14	15:01:54	15:07:58	362173	612fcbbd5386d9edb42da147	754108718	1	main_z	7	advance_on_keypress_ZEE	118	stimuli_distractor_diamondtriangles.svg	stimuli_target_diamondsquares.svg	32	yes	57	0	298
6.6.1	win	2022-12-14	15:01:54	15:08:00	365108	612fcbbd5386d9edb42da147	754108718	1	main_z	7	main_z	119	stimuli_distractor_diamondtriangles.svg	stimuli_distractor_diamondtriangles.svg	39	no	0	1	2000
6.6.1	win	2022-12-14	15:01:54	15:08:00	365108	612fcbbd5386d9edb42da147	754108718	1	main_z	7	advance_on_keypress_ZEE	120	stimuli_distractor_diamondtriangles.svg	stimuli_distractor_diamondtriangles.svg	39	no	57	0	515
6.6.1	win	2022-12-14	15:01:54	15:08:02	366949	612fcbbd5386d9edb42da147	754108718	1	main_z	7	main_z	121	stimuli_target_circlediamonds.svg	stimuli_distractor_trianglediamonds.svg	2	yes	44	1	704
6.6.1	win	2022-12-14	15:01:54	15:08:02	366949	612fcbbd5386d9edb42da147	754108718	1	main_z	7	advance_on_keypress_ZEE	122	stimuli_target_circlediamonds.svg	stimuli_distractor_trianglediamonds.svg	2	yes	57	0	371
6.6.1	win	2022-12-14	15:01:54	15:08:05	369963	612fcbbd5386d9edb42da147	754108718	1	main_z	7	main_z	123	stimuli_distractor_diamondtriangles.svg	stimuli_distractor_trianglediamonds.svg	38	no	0	1	2000
6.6.1	win	2022-12-14	15:01:54	15:08:05	369963	612fcbbd5386d9edb42da147	754108718	1	main_z	7	advance_on_keypress_ZEE	124	stimuli_distractor_diamondtriangles.svg	stimuli_distractor_trianglediamonds.svg	38	no	57	0	446
6.6.1	win	2022-12-14	15:01:54	15:08:07	371780	612fcbbd5386d9edb42da147	754108718	1	main_z	7	main_z	125	stimuli_distractor_diamondtriangles.svg	stimuli_target_circletriangles.svg	13	yes	44	1	748
6.6.1	win	2022-12-14	15:01:54	15:08:07	371780	612fcbbd5386d9edb42da147	754108718	1	main_z	7	advance_on_keypress_ZEE	126	stimuli_distractor_diamondtriangles.svg	stimuli_target_circletriangles.svg	13	yes	57	0	325
6.6.1	win	2022-12-14	15:01:54	15:08:09	373438	612fcbbd5386d9edb42da147	754108718	1	main_z	7	main_z	127	stimuli_distractor_trianglediamonds.svg	stimuli_target_trianglecircles.svg	25	yes	44	1	704
6.6.1	win	2022-12-14	15:01:54	15:08:09	373438	612fcbbd5386d9edb42da147	754108718	1	main_z	7	advance_on_keypress_ZEE	128	stimuli_distractor_trianglediamonds.svg	stimuli_target_trianglecircles.svg	25	yes	57	0	328
6.6.1	win	2022-12-14	15:01:54	15:08:11	375120	612fcbbd5386d9edb42da147	754108718	1	main_z	7	main_z	129	stimuli_distractor_diamondtriangles.svg	stimuli_target_squarediamonds.svg	16	yes	44	1	718
6.6.1	win	2022-12-14	15:01:54	15:08:11	375120	612fcbbd5386d9edb42da147	754108718	1	main_z	7	advance_on_keypress_ZEE	130	stimuli_distractor_diamondtriangles.svg	stimuli_target_squarediamonds.svg	16	yes	57	0	270
6.6.1	win	2022-12-14	15:01:54	15:08:12	376750	612fcbbd5386d9edb42da147	754108718	1	main_z	7	main_z	131	stimuli_target_circlediamonds.svg	stimuli_distractor_diamondtriangles.svg	6	yes	44	1	712
6.6.1	win	2022-12-14	15:01:54	15:08:12	376750	612fcbbd5386d9edb42da147	754108718	1	main_z	7	advance_on_keypress_ZEE	132	stimuli_target_circlediamonds.svg	stimuli_distractor_diamondtriangles.svg	6	yes	57	0	334
6.6.1	win	2022-12-14	15:01:54	15:08:14	378412	612fcbbd5386d9edb42da147	754108718	1	main_z	7	main_z	133	stimuli_distractor_trianglediamonds.svg	stimuli_target_diamondsquares.svg	28	yes	44	1	689
6.6.1	win	2022-12-14	15:01:54	15:08:14	378412	612fcbbd5386d9edb42da147	754108718	1	main_z	7	advance_on_keypress_ZEE	134	stimuli_distractor_trianglediamonds.svg	stimuli_target_diamondsquares.svg	28	yes	57	0	311
6.6.1	win	2022-12-14	15:01:54	15:08:15	380043	612fcbbd5386d9edb42da147	754108718	1	main_z	7	main_z	135	stimuli_distractor_trianglediamonds.svg	stimuli_target_squaretriangles.svg	11	yes	44	1	685
6.6.1	win	2022-12-14	15:01:54	15:08:15	380043	612fcbbd5386d9edb42da147	754108718	1	main_z	7	advance_on_keypress_ZEE	136	stimuli_distractor_trianglediamonds.svg	stimuli_target_squaretriangles.svg	11	yes	57	0	282
6.6.1	win	2022-12-14	15:01:54	15:08:17	381710	612fcbbd5386d9edb42da147	754108718	1	main_z	7	main_z	137	stimuli_target_trianglecircles.svg	stimuli_distractor_diamondtriangles.svg	21	yes	44	1	733
6.6.1	win	2022-12-14	15:01:54	15:08:17	381710	612fcbbd5386d9edb42da147	754108718	1	main_z	7	advance_on_keypress_ZEE	138	stimuli_target_trianglecircles.svg	stimuli_distractor_diamondtriangles.svg	21	yes	57	0	281
6.6.1	win	2022-12-14	15:01:54	15:08:19	383319	612fcbbd5386d9edb42da147	754108718	1	main_z	7	main_z	139	stimuli_distractor_trianglediamonds.svg	stimuli_target_circletriangles.svg	9	yes	44	1	691
6.6.1	win	2022-12-14	15:01:54	15:08:19	383319	612fcbbd5386d9edb42da147	754108718	1	main_z	7	advance_on_keypress_ZEE	140	stimuli_distractor_trianglediamonds.svg	stimuli_target_circletriangles.svg	9	yes	57	0	314
6.6.1	win	2022-12-14	15:01:54	15:08:20	385066	612fcbbd5386d9edb42da147	754108718	1	main_z	7	main_z	141	stimuli_target_trianglesquares.svg	stimuli_distractor_trianglediamonds.svg	18	yes	44	1	803
6.6.1	win	2022-12-14	15:01:54	15:08:20	385066	612fcbbd5386d9edb42da147	754108718	1	main_z	7	advance_on_keypress_ZEE	142	stimuli_target_trianglesquares.svg	stimuli_distractor_trianglediamonds.svg	18	yes	57	0	381
6.6.1	win	2022-12-14	15:01:54	15:08:22	386836	612fcbbd5386d9edb42da147	754108718	1	main_z	7	main_z	143	stimuli_target_squaretriangles.svg	stimuli_distractor_trianglediamonds.svg	3	yes	44	1	754
6.6.1	win	2022-12-14	15:01:54	15:08:22	386836	612fcbbd5386d9edb42da147	754108718	1	main_z	7	advance_on_keypress_ZEE	144	stimuli_target_squaretriangles.svg	stimuli_distractor_trianglediamonds.svg	3	yes	57	0	309
6.6.1	win	2022-12-14	15:01:54	15:08:24	388532	612fcbbd5386d9edb42da147	754108718	1	main_z	7	main_z	145	stimuli_target_squaretriangles.svg	stimuli_distractor_diamondtriangles.svg	7	yes	44	1	748
6.6.1	win	2022-12-14	15:01:54	15:08:24	388532	612fcbbd5386d9edb42da147	754108718	1	main_z	7	advance_on_keypress_ZEE	146	stimuli_target_squaretriangles.svg	stimuli_distractor_diamondtriangles.svg	7	yes	57	0	309
6.6.1	win	2022-12-14	15:01:54	15:08:27	391469	612fcbbd5386d9edb42da147	754108718	1	main_z	7	main_z	147	stimuli_distractor_diamondtriangles.svg	stimuli_distractor_diamondtriangles.svg	40	no	0	1	2000
6.6.1	win	2022-12-14	15:01:54	15:08:27	391469	612fcbbd5386d9edb42da147	754108718	1	main_z	7	advance_on_keypress_ZEE	148	stimuli_distractor_diamondtriangles.svg	stimuli_distractor_diamondtriangles.svg	40	no	57	0	3257
6.6.1	win	2022-12-14	15:01:54	15:08:31	395995	612fcbbd5386d9edb42da147	754108718	1	main_z	7	main_z	149	stimuli_target_diamondsquares.svg	stimuli_distractor_trianglediamonds.svg	20	yes	44	1	648
6.6.1	win	2022-12-14	15:01:54	15:08:31	395995	612fcbbd5386d9edb42da147	754108718	1	main_z	7	advance_on_keypress_ZEE	150	stimuli_target_diamondsquares.svg	stimuli_distractor_trianglediamonds.svg	20	yes	57	0	381
6.6.1	win	2022-12-14	15:01:54	15:08:33	397667	612fcbbd5386d9edb42da147	754108718	1	main_z	7	main_z	151	stimuli_distractor_trianglediamonds.svg	stimuli_target_squarediamonds.svg	12	yes	44	1	658
6.6.1	win	2022-12-14	15:01:54	15:08:33	397667	612fcbbd5386d9edb42da147	754108718	1	main_z	7	advance_on_keypress_ZEE	152	stimuli_distractor_trianglediamonds.svg	stimuli_target_squarediamonds.svg	12	yes	57	0	345
6.6.1	win	2022-12-14	15:01:54	15:08:35	399344	612fcbbd5386d9edb42da147	754108718	1	main_z	7	main_z	153	stimuli_target_trianglecircles.svg	stimuli_distractor_trianglediamonds.svg	17	yes	44	1	700
6.6.1	win	2022-12-14	15:01:54	15:08:35	399344	612fcbbd5386d9edb42da147	754108718	1	main_z	7	advance_on_keypress_ZEE	154	stimuli_target_trianglecircles.svg	stimuli_distractor_trianglediamonds.svg	17	yes	57	0	342
6.6.1	win	2022-12-14	15:01:54	15:08:36	400966	612fcbbd5386d9edb42da147	754108718	1	main_z	7	main_z	155	stimuli_target_diamondsquares.svg	stimuli_distractor_diamondtriangles.svg	24	yes	44	1	637
6.6.1	win	2022-12-14	15:01:54	15:08:36	400966	612fcbbd5386d9edb42da147	754108718	1	main_z	7	advance_on_keypress_ZEE	156	stimuli_target_diamondsquares.svg	stimuli_distractor_diamondtriangles.svg	24	yes	57	0	343
6.6.1	win	2022-12-14	15:01:54	15:08:38	402683	612fcbbd5386d9edb42da147	754108718	1	main_z	7	main_z	157	stimuli_target_diamondcircles.svg	stimuli_distractor_diamondtriangles.svg	23	yes	44	1	736
6.6.1	win	2022-12-14	15:01:54	15:08:38	402683	612fcbbd5386d9edb42da147	754108718	1	main_z	7	advance_on_keypress_ZEE	158	stimuli_target_diamondcircles.svg	stimuli_distractor_diamondtriangles.svg	23	yes	57	0	312
6.6.1	win	2022-12-14	15:01:54	15:08:40	404405	612fcbbd5386d9edb42da147	754108718	1	main_z	7	main_z	159	stimuli_distractor_trianglediamonds.svg	stimuli_target_circlediamonds.svg	10	yes	44	1	772
6.6.1	win	2022-12-14	15:01:54	15:08:40	404405	612fcbbd5386d9edb42da147	754108718	1	main_z	7	advance_on_keypress_ZEE	160	stimuli_distractor_trianglediamonds.svg	stimuli_target_circlediamonds.svg	10	yes	57	0	375
6.6.1	win	2022-12-14	15:01:54	15:09:14	439048	612fcbbd5386d9edb42da147	754108718	1	practice_slash	9	practice_slash	1	stimuli_target_squarediamonds.svg	stimuli_distractor_trianglediamonds.svg	5	yes	53	1	482
6.6.1	win	2022-12-14	15:01:54	15:09:14	439048	612fcbbd5386d9edb42da147	754108718	1	practice_slash	9	advance_on_keypress_SLASH	2	stimuli_target_squarediamonds.svg	stimuli_distractor_trianglediamonds.svg	5	yes	57	0	437
6.6.1	win	2022-12-14	15:01:54	15:09:19	443185	612fcbbd5386d9edb42da147	754108718	1	practice_slash	9	practice_slash	3	stimuli_distractor_trianglediamonds.svg	stimuli_distractor_trianglediamonds.svg	15	no	0	1	2000
6.6.1	win	2022-12-14	15:01:54	15:09:19	443185	612fcbbd5386d9edb42da147	754108718	1	practice_slash	9	advance_on_keypress_SLASH	4	stimuli_distractor_trianglediamonds.svg	stimuli_distractor_trianglediamonds.svg	15	no	57	0	355
6.6.1	win	2022-12-14	15:01:54	15:09:21	445905	612fcbbd5386d9edb42da147	754108718	1	practice_slash	9	practice_slash	5	stimuli_distractor_diamondtriangles.svg	stimuli_target_circletriangles.svg	7	yes	53	1	732
6.6.1	win	2022-12-14	15:01:54	15:09:21	445905	612fcbbd5386d9edb42da147	754108718	1	practice_slash	9	advance_on_keypress_SLASH	6	stimuli_distractor_diamondtriangles.svg	stimuli_target_circletriangles.svg	7	yes	57	0	404
6.6.1	win	2022-12-14	15:01:54	15:09:25	449943	612fcbbd5386d9edb42da147	754108718	1	practice_slash	9	practice_slash	7	stimuli_distractor_diamondtriangles.svg	stimuli_distractor_diamondtriangles.svg	13	no	0	1	2000
6.6.1	win	2022-12-14	15:01:54	15:09:25	449943	612fcbbd5386d9edb42da147	754108718	1	practice_slash	9	advance_on_keypress_SLASH	8	stimuli_distractor_diamondtriangles.svg	stimuli_distractor_diamondtriangles.svg	13	no	57	0	342
6.6.1	win	2022-12-14	15:01:54	15:09:28	452668	612fcbbd5386d9edb42da147	754108718	1	practice_slash	9	practice_slash	9	stimuli_target_squarediamonds.svg	stimuli_distractor_diamondtriangles.svg	2	yes	53	1	755
6.6.1	win	2022-12-14	15:01:54	15:09:28	452668	612fcbbd5386d9edb42da147	754108718	1	practice_slash	9	advance_on_keypress_SLASH	10	stimuli_target_squarediamonds.svg	stimuli_distractor_diamondtriangles.svg	2	yes	57	0	499
6.6.1	win	2022-12-14	15:01:54	15:09:31	455568	612fcbbd5386d9edb42da147	754108718	1	practice_slash	9	practice_slash	11	stimuli_distractor_trianglediamonds.svg	stimuli_target_diamondcircles.svg	12	yes	53	1	751
6.6.1	win	2022-12-14	15:01:54	15:09:31	455568	612fcbbd5386d9edb42da147	754108718	1	practice_slash	9	advance_on_keypress_SLASH	12	stimuli_distractor_trianglediamonds.svg	stimuli_target_diamondcircles.svg	12	yes	57	0	332
6.6.1	win	2022-12-14	15:01:54	15:09:34	458352	612fcbbd5386d9edb42da147	754108718	1	practice_slash	9	practice_slash	13	stimuli_distractor_trianglediamonds.svg	stimuli_target_squarediamonds.svg	11	yes	53	1	800
6.6.1	win	2022-12-14	15:01:54	15:09:34	458352	612fcbbd5386d9edb42da147	754108718	1	practice_slash	9	advance_on_keypress_SLASH	14	stimuli_distractor_trianglediamonds.svg	stimuli_target_squarediamonds.svg	11	yes	57	0	252
6.6.1	win	2022-12-14	15:01:54	15:09:36	460879	612fcbbd5386d9edb42da147	754108718	1	practice_slash	9	practice_slash	15	stimuli_distractor_diamondtriangles.svg	stimuli_target_trianglecircles.svg	9	yes	53	1	641
6.6.1	win	2022-12-14	15:01:54	15:09:36	460879	612fcbbd5386d9edb42da147	754108718	1	practice_slash	9	advance_on_keypress_SLASH	16	stimuli_distractor_diamondtriangles.svg	stimuli_target_trianglecircles.svg	9	yes	57	0	559
6.6.1	win	2022-12-14	15:01:54	15:09:39	463808	612fcbbd5386d9edb42da147	754108718	1	practice_slash	9	practice_slash	17	stimuli_distractor_trianglediamonds.svg	stimuli_target_circlediamonds.svg	10	yes	53	1	734
6.6.1	win	2022-12-14	15:01:54	15:09:39	463808	612fcbbd5386d9edb42da147	754108718	1	practice_slash	9	advance_on_keypress_SLASH	18	stimuli_distractor_trianglediamonds.svg	stimuli_target_circlediamonds.svg	10	yes	57	0	750
6.6.1	win	2022-12-14	15:01:54	15:09:42	467078	612fcbbd5386d9edb42da147	754108718	1	practice_slash	9	practice_slash	19	stimuli_target_diamondsquares.svg	stimuli_distractor_diamondtriangles.svg	3	yes	53	1	867
6.6.1	win	2022-12-14	15:01:54	15:09:42	467078	612fcbbd5386d9edb42da147	754108718	1	practice_slash	9	advance_on_keypress_SLASH	20	stimuli_target_diamondsquares.svg	stimuli_distractor_diamondtriangles.svg	3	yes	57	0	287
6.6.1	win	2022-12-14	15:01:54	15:09:45	469864	612fcbbd5386d9edb42da147	754108718	1	practice_slash	9	practice_slash	21	stimuli_target_circlediamonds.svg	stimuli_distractor_trianglediamonds.svg	4	yes	53	1	850
6.6.1	win	2022-12-14	15:01:54	15:09:45	469864	612fcbbd5386d9edb42da147	754108718	1	practice_slash	9	advance_on_keypress_SLASH	22	stimuli_target_circlediamonds.svg	stimuli_distractor_trianglediamonds.svg	4	yes	57	0	280
6.6.1	win	2022-12-14	15:01:54	15:09:49	473767	612fcbbd5386d9edb42da147	754108718	1	practice_slash	9	practice_slash	23	stimuli_distractor_diamondtriangles.svg	stimuli_distractor_trianglediamonds.svg	14	no	0	1	2000
6.6.1	win	2022-12-14	15:01:54	15:09:49	473767	612fcbbd5386d9edb42da147	754108718	1	practice_slash	9	advance_on_keypress_SLASH	24	stimuli_distractor_diamondtriangles.svg	stimuli_distractor_trianglediamonds.svg	14	no	57	0	504
6.6.1	win	2022-12-14	15:01:54	15:09:53	477904	612fcbbd5386d9edb42da147	754108718	1	practice_slash	9	practice_slash	25	stimuli_distractor_trianglediamonds.svg	stimuli_distractor_diamondtriangles.svg	16	no	0	1	2000
6.6.1	win	2022-12-14	15:01:54	15:09:53	477904	612fcbbd5386d9edb42da147	754108718	1	practice_slash	9	advance_on_keypress_SLASH	26	stimuli_distractor_trianglediamonds.svg	stimuli_distractor_diamondtriangles.svg	16	no	57	0	438
6.6.1	win	2022-12-14	15:01:54	15:09:56	480879	612fcbbd5386d9edb42da147	754108718	1	practice_slash	9	practice_slash	27	stimuli_target_diamondsquares.svg	stimuli_distractor_trianglediamonds.svg	6	yes	53	1	904
6.6.1	win	2022-12-14	15:01:54	15:09:56	480879	612fcbbd5386d9edb42da147	754108718	1	practice_slash	9	advance_on_keypress_SLASH	28	stimuli_target_diamondsquares.svg	stimuli_distractor_trianglediamonds.svg	6	yes	57	0	537
6.6.1	win	2022-12-14	15:01:54	15:09:59	483736	612fcbbd5386d9edb42da147	754108718	1	practice_slash	9	practice_slash	29	stimuli_distractor_diamondtriangles.svg	stimuli_target_diamondcircles.svg	8	yes	53	1	673
6.6.1	win	2022-12-14	15:01:54	15:09:59	483736	612fcbbd5386d9edb42da147	754108718	1	practice_slash	9	advance_on_keypress_SLASH	30	stimuli_distractor_diamondtriangles.svg	stimuli_target_diamondcircles.svg	8	yes	57	0	281
6.6.1	win	2022-12-14	15:01:54	15:10:02	486421	612fcbbd5386d9edb42da147	754108718	1	practice_slash	9	practice_slash	31	stimuli_target_circlediamonds.svg	stimuli_distractor_diamondtriangles.svg	1	yes	53	1	774
6.6.1	win	2022-12-14	15:01:54	15:10:02	486421	612fcbbd5386d9edb42da147	754108718	1	practice_slash	9	advance_on_keypress_SLASH	32	stimuli_target_circlediamonds.svg	stimuli_distractor_diamondtriangles.svg	1	yes	57	0	195
6.6.1	win	2022-12-14	15:01:54	15:10:15	499506	612fcbbd5386d9edb42da147	754108718	1	main_slash	11	main_slash	1	stimuli_distractor_diamondtriangles.svg	stimuli_target_trianglesquares.svg	30	yes	53	1	644
6.6.1	win	2022-12-14	15:01:54	15:10:15	499506	612fcbbd5386d9edb42da147	754108718	1	main_slash	11	advance_on_keypress_SLASH	2	stimuli_distractor_diamondtriangles.svg	stimuli_target_trianglesquares.svg	30	yes	57	0	1204
6.6.1	win	2022-12-14	15:01:54	15:10:17	501894	612fcbbd5386d9edb42da147	754108718	1	main_slash	11	main_slash	3	stimuli_distractor_trianglediamonds.svg	stimuli_target_diamondcircles.svg	27	yes	53	1	540
6.6.1	win	2022-12-14	15:01:54	15:10:17	501894	612fcbbd5386d9edb42da147	754108718	1	main_slash	11	advance_on_keypress_SLASH	4	stimuli_distractor_trianglediamonds.svg	stimuli_target_diamondcircles.svg	27	yes	57	0	521
6.6.1	win	2022-12-14	15:01:54	15:10:19	503757	612fcbbd5386d9edb42da147	754108718	1	main_slash	11	main_slash	5	stimuli_distractor_diamondtriangles.svg	stimuli_target_circletriangles.svg	13	yes	53	1	700
6.6.1	win	2022-12-14	15:01:54	15:10:19	503757	612fcbbd5386d9edb42da147	754108718	1	main_slash	11	advance_on_keypress_SLASH	6	stimuli_distractor_diamondtriangles.svg	stimuli_target_circletriangles.svg	13	yes	57	0	348
6.6.1	win	2022-12-14	15:01:54	15:10:21	505359	612fcbbd5386d9edb42da147	754108718	1	main_slash	11	main_slash	7	stimuli_target_squaretriangles.svg	stimuli_distractor_trianglediamonds.svg	3	yes	53	1	618
6.6.1	win	2022-12-14	15:01:54	15:10:21	505359	612fcbbd5386d9edb42da147	754108718	1	main_slash	11	advance_on_keypress_SLASH	8	stimuli_target_squaretriangles.svg	stimuli_distractor_trianglediamonds.svg	3	yes	57	0	408
6.6.1	win	2022-12-14	15:01:54	15:10:22	507033	612fcbbd5386d9edb42da147	754108718	1	main_slash	11	main_slash	9	stimuli_distractor_diamondtriangles.svg	stimuli_target_trianglecircles.svg	29	yes	53	1	644
6.6.1	win	2022-12-14	15:01:54	15:10:22	507033	612fcbbd5386d9edb42da147	754108718	1	main_slash	11	advance_on_keypress_SLASH	10	stimuli_distractor_diamondtriangles.svg	stimuli_target_trianglecircles.svg	29	yes	57	0	334
6.6.1	win	2022-12-14	15:01:54	15:10:24	508562	612fcbbd5386d9edb42da147	754108718	1	main_slash	11	main_slash	11	stimuli_distractor_trianglediamonds.svg	stimuli_target_squarediamonds.svg	12	yes	53	1	572
6.6.1	win	2022-12-14	15:01:54	15:10:24	508562	612fcbbd5386d9edb42da147	754108718	1	main_slash	11	advance_on_keypress_SLASH	12	stimuli_distractor_trianglediamonds.svg	stimuli_target_squarediamonds.svg	12	yes	57	0	356
6.6.1	win	2022-12-14	15:01:54	15:10:26	510133	612fcbbd5386d9edb42da147	754108718	1	main_slash	11	main_slash	13	stimuli_distractor_diamondtriangles.svg	stimuli_target_diamondcircles.svg	31	yes	53	1	577
6.6.1	win	2022-12-14	15:01:54	15:10:26	510133	612fcbbd5386d9edb42da147	754108718	1	main_slash	11	advance_on_keypress_SLASH	14	stimuli_distractor_diamondtriangles.svg	stimuli_target_diamondcircles.svg	31	yes	57	0	351
6.6.1	win	2022-12-14	15:01:54	15:10:27	511710	612fcbbd5386d9edb42da147	754108718	1	main_slash	11	main_slash	15	stimuli_target_squarediamonds.svg	stimuli_distractor_diamondtriangles.svg	8	yes	53	1	604
6.6.1	win	2022-12-14	15:01:54	15:10:27	511710	612fcbbd5386d9edb42da147	754108718	1	main_slash	11	advance_on_keypress_SLASH	16	stimuli_target_squarediamonds.svg	stimuli_distractor_diamondtriangles.svg	8	yes	57	0	322
6.6.1	win	2022-12-14	15:01:54	15:10:29	513458	612fcbbd5386d9edb42da147	754108718	1	main_slash	11	main_slash	17	stimuli_distractor_trianglediamonds.svg	stimuli_distractor_diamondtriangles.svg	36	no	53	0	791
6.6.1	win	2022-12-14	15:01:54	15:10:29	513458	612fcbbd5386d9edb42da147	754108718	1	main_slash	11	advance_on_keypress_SLASH	18	stimuli_distractor_trianglediamonds.svg	stimuli_distractor_diamondtriangles.svg	36	no	57	0	621
6.6.1	win	2022-12-14	15:01:54	15:10:31	515403	612fcbbd5386d9edb42da147	754108718	1	main_slash	11	main_slash	19	stimuli_distractor_diamondtriangles.svg	stimuli_target_circlediamonds.svg	14	yes	53	1	684
6.6.1	win	2022-12-14	15:01:54	15:10:31	515403	612fcbbd5386d9edb42da147	754108718	1	main_slash	11	advance_on_keypress_SLASH	20	stimuli_distractor_diamondtriangles.svg	stimuli_target_circlediamonds.svg	14	yes	57	0	316
6.6.1	win	2022-12-14	15:01:54	15:10:32	517094	612fcbbd5386d9edb42da147	754108718	1	main_slash	11	main_slash	21	stimuli_distractor_diamondtriangles.svg	stimuli_target_diamondsquares.svg	32	yes	53	1	723
6.6.1	win	2022-12-14	15:01:54	15:10:32	517094	612fcbbd5386d9edb42da147	754108718	1	main_slash	11	advance_on_keypress_SLASH	22	stimuli_distractor_diamondtriangles.svg	stimuli_target_diamondsquares.svg	32	yes	57	0	327
6.6.1	win	2022-12-14	15:01:54	15:10:34	518753	612fcbbd5386d9edb42da147	754108718	1	main_slash	11	main_slash	23	stimuli_target_trianglesquares.svg	stimuli_distractor_trianglediamonds.svg	18	yes	53	1	697
6.6.1	win	2022-12-14	15:01:54	15:10:34	518753	612fcbbd5386d9edb42da147	754108718	1	main_slash	11	advance_on_keypress_SLASH	24	stimuli_target_trianglesquares.svg	stimuli_distractor_trianglediamonds.svg	18	yes	57	0	316
6.6.1	win	2022-12-14	15:01:54	15:10:36	520434	612fcbbd5386d9edb42da147	754108718	1	main_slash	11	main_slash	25	stimuli_distractor_trianglediamonds.svg	stimuli_target_squaretriangles.svg	11	yes	53	1	727
6.6.1	win	2022-12-14	15:01:54	15:10:36	520434	612fcbbd5386d9edb42da147	754108718	1	main_slash	11	advance_on_keypress_SLASH	26	stimuli_distractor_trianglediamonds.svg	stimuli_target_squaretriangles.svg	11	yes	57	0	354
6.6.1	win	2022-12-14	15:01:54	15:10:39	523426	612fcbbd5386d9edb42da147	754108718	1	main_slash	11	main_slash	27	stimuli_distractor_trianglediamonds.svg	stimuli_distractor_diamondtriangles.svg	35	no	0	1	2000
6.6.1	win	2022-12-14	15:01:54	15:10:39	523426	612fcbbd5386d9edb42da147	754108718	1	main_slash	11	advance_on_keypress_SLASH	28	stimuli_distractor_trianglediamonds.svg	stimuli_distractor_diamondtriangles.svg	35	no	57	0	828
6.6.1	win	2022-12-14	15:01:54	15:10:41	525437	612fcbbd5386d9edb42da147	754108718	1	main_slash	11	main_slash	29	stimuli_target_diamondcircles.svg	stimuli_distractor_diamondtriangles.svg	23	yes	53	1	559
6.6.1	win	2022-12-14	15:01:54	15:10:41	525437	612fcbbd5386d9edb42da147	754108718	1	main_slash	11	advance_on_keypress_SLASH	30	stimuli_target_diamondcircles.svg	stimuli_distractor_diamondtriangles.svg	23	yes	57	0	437
6.6.1	win	2022-12-14	15:01:54	15:10:43	527190	612fcbbd5386d9edb42da147	754108718	1	main_slash	11	main_slash	31	stimuli_distractor_trianglediamonds.svg	stimuli_target_diamondsquares.svg	28	yes	53	1	677
6.6.1	win	2022-12-14	15:01:54	15:10:43	527190	612fcbbd5386d9edb42da147	754108718	1	main_slash	11	advance_on_keypress_SLASH	32	stimuli_distractor_trianglediamonds.svg	stimuli_target_diamondsquares.svg	28	yes	57	0	337
6.6.1	win	2022-12-14	15:01:54	15:10:44	528863	612fcbbd5386d9edb42da147	754108718	1	main_slash	11	main_slash	33	stimuli_target_circlediamonds.svg	stimuli_distractor_trianglediamonds.svg	2	yes	53	1	698
6.6.1	win	2022-12-14	15:01:54	15:10:44	528863	612fcbbd5386d9edb42da147	754108718	1	main_slash	11	advance_on_keypress_SLASH	34	stimuli_target_circlediamonds.svg	stimuli_distractor_trianglediamonds.svg	2	yes	57	0	347
6.6.1	win	2022-12-14	15:01:54	15:10:46	530594	612fcbbd5386d9edb42da147	754108718	1	main_slash	11	main_slash	35	stimuli_target_circletriangles.svg	stimuli_distractor_diamondtriangles.svg	5	yes	53	1	760
6.6.1	win	2022-12-14	15:01:54	15:10:46	530594	612fcbbd5386d9edb42da147	754108718	1	main_slash	11	advance_on_keypress_SLASH	36	stimuli_target_circletriangles.svg	stimuli_distractor_diamondtriangles.svg	5	yes	57	0	354
6.6.1	win	2022-12-14	15:01:54	15:10:48	532287	612fcbbd5386d9edb42da147	754108718	1	main_slash	11	main_slash	37	stimuli_distractor_trianglediamonds.svg	stimuli_target_circletriangles.svg	9	yes	53	1	701
6.6.1	win	2022-12-14	15:01:54	15:10:48	532287	612fcbbd5386d9edb42da147	754108718	1	main_slash	11	advance_on_keypress_SLASH	38	stimuli_distractor_trianglediamonds.svg	stimuli_target_circletriangles.svg	9	yes	57	0	346
6.6.1	win	2022-12-14	15:01:54	15:10:51	535271	612fcbbd5386d9edb42da147	754108718	1	main_slash	11	main_slash	39	stimuli_distractor_diamondtriangles.svg	stimuli_target_squarediamonds.svg	16	yes	0	0	2000
6.6.1	win	2022-12-14	15:01:54	15:10:51	535271	612fcbbd5386d9edb42da147	754108718	1	main_slash	11	advance_on_keypress_SLASH	40	stimuli_distractor_diamondtriangles.svg	stimuli_target_squarediamonds.svg	16	yes	57	0	515
6.6.1	win	2022-12-14	15:01:54	15:10:52	536980	612fcbbd5386d9edb42da147	754108718	1	main_slash	11	main_slash	41	stimuli_distractor_trianglediamonds.svg	stimuli_target_trianglesquares.svg	26	yes	53	1	556
6.6.1	win	2022-12-14	15:01:54	15:10:52	536980	612fcbbd5386d9edb42da147	754108718	1	main_slash	11	advance_on_keypress_SLASH	42	stimuli_distractor_trianglediamonds.svg	stimuli_target_trianglesquares.svg	26	yes	57	0	654
6.6.1	win	2022-12-14	15:01:54	15:10:54	538929	612fcbbd5386d9edb42da147	754108718	1	main_slash	11	main_slash	43	stimuli_distractor_trianglediamonds.svg	stimuli_target_trianglecircles.svg	25	yes	53	1	654
6.6.1	win	2022-12-14	15:01:54	15:10:54	538929	612fcbbd5386d9edb42da147	754108718	1	main_slash	11	advance_on_keypress_SLASH	44	stimuli_distractor_trianglediamonds.svg	stimuli_target_trianglecircles.svg	25	yes	57	0	361
6.6.1	win	2022-12-14	15:01:54	15:10:56	540647	612fcbbd5386d9edb42da147	754108718	1	main_slash	11	main_slash	45	stimuli_target_squarediamonds.svg	stimuli_distractor_trianglediamonds.svg	4	yes	53	1	719
6.6.1	win	2022-12-14	15:01:54	15:10:56	540647	612fcbbd5386d9edb42da147	754108718	1	main_slash	11	advance_on_keypress_SLASH	46	stimuli_target_squarediamonds.svg	stimuli_distractor_trianglediamonds.svg	4	yes	57	0	387
6.6.1	win	2022-12-14	15:01:54	15:10:58	543108	612fcbbd5386d9edb42da147	754108718	1	main_slash	11	main_slash	47	stimuli_target_diamondcircles.svg	stimuli_distractor_trianglediamonds.svg	19	yes	53	1	1428
6.6.1	win	2022-12-14	15:01:54	15:10:58	543108	612fcbbd5386d9edb42da147	754108718	1	main_slash	11	advance_on_keypress_SLASH	48	stimuli_target_diamondcircles.svg	stimuli_distractor_trianglediamonds.svg	19	yes	57	0	728
6.6.1	win	2022-12-14	15:01:54	15:11:01	545193	612fcbbd5386d9edb42da147	754108718	1	main_slash	11	main_slash	49	stimuli_target_diamondsquares.svg	stimuli_distractor_diamondtriangles.svg	24	yes	53	1	727
6.6.1	win	2022-12-14	15:01:54	15:11:01	545193	612fcbbd5386d9edb42da147	754108718	1	main_slash	11	advance_on_keypress_SLASH	50	stimuli_target_diamondsquares.svg	stimuli_distractor_diamondtriangles.svg	24	yes	57	0	295
6.6.1	win	2022-12-14	15:01:54	15:11:03	547525	612fcbbd5386d9edb42da147	754108718	1	main_slash	11	main_slash	51	stimuli_distractor_trianglediamonds.svg	stimuli_target_circlediamonds.svg	10	yes	53	1	1407
6.6.1	win	2022-12-14	15:01:54	15:11:03	547525	612fcbbd5386d9edb42da147	754108718	1	main_slash	11	advance_on_keypress_SLASH	52	stimuli_distractor_trianglediamonds.svg	stimuli_target_circlediamonds.svg	10	yes	57	0	310
6.6.1	win	2022-12-14	15:01:54	15:11:05	549865	612fcbbd5386d9edb42da147	754108718	1	main_slash	11	main_slash	53	stimuli_distractor_diamondtriangles.svg	stimuli_distractor_trianglediamonds.svg	38	no	53	0	1396
6.6.1	win	2022-12-14	15:01:54	15:11:05	549865	612fcbbd5386d9edb42da147	754108718	1	main_slash	11	advance_on_keypress_SLASH	54	stimuli_distractor_diamondtriangles.svg	stimuli_distractor_trianglediamonds.svg	38	no	57	0	231
6.6.1	win	2022-12-14	15:01:54	15:11:07	551518	612fcbbd5386d9edb42da147	754108718	1	main_slash	11	main_slash	55	stimuli_target_trianglecircles.svg	stimuli_distractor_trianglediamonds.svg	17	yes	53	1	797
6.6.1	win	2022-12-14	15:01:54	15:11:07	551518	612fcbbd5386d9edb42da147	754108718	1	main_slash	11	advance_on_keypress_SLASH	56	stimuli_target_trianglecircles.svg	stimuli_distractor_trianglediamonds.svg	17	yes	57	0	281
6.6.1	win	2022-12-14	15:01:54	15:11:09	553167	612fcbbd5386d9edb42da147	754108718	1	main_slash	11	main_slash	57	stimuli_distractor_diamondtriangles.svg	stimuli_target_squaretriangles.svg	15	yes	53	1	744
6.6.1	win	2022-12-14	15:01:54	15:11:09	553167	612fcbbd5386d9edb42da147	754108718	1	main_slash	11	advance_on_keypress_SLASH	58	stimuli_distractor_diamondtriangles.svg	stimuli_target_squaretriangles.svg	15	yes	57	0	292
6.6.1	win	2022-12-14	15:01:54	15:11:10	554889	612fcbbd5386d9edb42da147	754108718	1	main_slash	11	main_slash	59	stimuli_target_circlediamonds.svg	stimuli_distractor_diamondtriangles.svg	6	yes	53	1	797
6.6.1	win	2022-12-14	15:01:54	15:11:10	554889	612fcbbd5386d9edb42da147	754108718	1	main_slash	11	advance_on_keypress_SLASH	60	stimuli_target_circlediamonds.svg	stimuli_distractor_diamondtriangles.svg	6	yes	57	0	318
6.6.1	win	2022-12-14	15:01:54	15:11:13	557844	612fcbbd5386d9edb42da147	754108718	1	main_slash	11	main_slash	61	stimuli_distractor_diamondtriangles.svg	stimuli_distractor_diamondtriangles.svg	39	no	0	1	2000
6.6.1	win	2022-12-14	15:01:54	15:11:13	557844	612fcbbd5386d9edb42da147	754108718	1	main_slash	11	advance_on_keypress_SLASH	62	stimuli_distractor_diamondtriangles.svg	stimuli_distractor_diamondtriangles.svg	39	no	57	0	386
6.6.1	win	2022-12-14	15:01:54	15:11:16	560864	612fcbbd5386d9edb42da147	754108718	1	main_slash	11	main_slash	63	stimuli_distractor_trianglediamonds.svg	stimuli_distractor_trianglediamonds.svg	33	no	0	1	2000
6.6.1	win	2022-12-14	15:01:54	15:11:16	560864	612fcbbd5386d9edb42da147	754108718	1	main_slash	11	advance_on_keypress_SLASH	64	stimuli_distractor_trianglediamonds.svg	stimuli_distractor_trianglediamonds.svg	33	no	57	0	626
6.6.1	win	2022-12-14	15:01:54	15:11:20	564117	612fcbbd5386d9edb42da147	754108718	1	main_slash	11	main_slash	65	stimuli_distractor_diamondtriangles.svg	stimuli_distractor_trianglediamonds.svg	37	no	0	1	2000
6.6.1	win	2022-12-14	15:01:54	15:11:20	564117	612fcbbd5386d9edb42da147	754108718	1	main_slash	11	advance_on_keypress_SLASH	66	stimuli_distractor_diamondtriangles.svg	stimuli_distractor_trianglediamonds.svg	37	no	57	0	457
6.6.1	win	2022-12-14	15:01:54	15:11:21	565881	612fcbbd5386d9edb42da147	754108718	1	main_slash	11	main_slash	67	stimuli_target_trianglecircles.svg	stimuli_distractor_diamondtriangles.svg	21	yes	53	1	677
6.6.1	win	2022-12-14	15:01:54	15:11:21	565881	612fcbbd5386d9edb42da147	754108718	1	main_slash	11	advance_on_keypress_SLASH	68	stimuli_target_trianglecircles.svg	stimuli_distractor_diamondtriangles.svg	21	yes	57	0	502
6.6.1	win	2022-12-14	15:01:54	15:11:23	567658	612fcbbd5386d9edb42da147	754108718	1	main_slash	11	main_slash	69	stimuli_target_trianglesquares.svg	stimuli_distractor_diamondtriangles.svg	22	yes	53	1	636
6.6.1	win	2022-12-14	15:01:54	15:11:23	567658	612fcbbd5386d9edb42da147	754108718	1	main_slash	11	advance_on_keypress_SLASH	70	stimuli_target_trianglesquares.svg	stimuli_distractor_diamondtriangles.svg	22	yes	57	0	357
6.6.1	win	2022-12-14	15:01:54	15:11:25	569243	612fcbbd5386d9edb42da147	754108718	1	main_slash	11	main_slash	71	stimuli_target_squaretriangles.svg	stimuli_distractor_diamondtriangles.svg	7	yes	53	1	587
6.6.1	win	2022-12-14	15:01:54	15:11:25	569243	612fcbbd5386d9edb42da147	754108718	1	main_slash	11	advance_on_keypress_SLASH	72	stimuli_target_squaretriangles.svg	stimuli_distractor_diamondtriangles.svg	7	yes	57	0	355
6.6.1	win	2022-12-14	15:01:54	15:11:28	572242	612fcbbd5386d9edb42da147	754108718	1	main_slash	11	main_slash	73	stimuli_distractor_diamondtriangles.svg	stimuli_distractor_diamondtriangles.svg	40	no	0	1	2000
6.6.1	win	2022-12-14	15:01:54	15:11:28	572242	612fcbbd5386d9edb42da147	754108718	1	main_slash	11	advance_on_keypress_SLASH	74	stimuli_distractor_diamondtriangles.svg	stimuli_distractor_diamondtriangles.svg	40	no	57	0	526
6.6.1	win	2022-12-14	15:01:54	15:11:30	574138	612fcbbd5386d9edb42da147	754108718	1	main_slash	11	main_slash	75	stimuli_target_diamondsquares.svg	stimuli_distractor_trianglediamonds.svg	20	yes	53	1	742
6.6.1	win	2022-12-14	15:01:54	15:11:30	574138	612fcbbd5386d9edb42da147	754108718	1	main_slash	11	advance_on_keypress_SLASH	76	stimuli_target_diamondsquares.svg	stimuli_distractor_trianglediamonds.svg	20	yes	57	0	353
6.6.1	win	2022-12-14	15:01:54	15:11:31	575792	612fcbbd5386d9edb42da147	754108718	1	main_slash	11	main_slash	77	stimuli_target_circletriangles.svg	stimuli_distractor_trianglediamonds.svg	1	yes	53	1	662
6.6.1	win	2022-12-14	15:01:54	15:11:31	575792	612fcbbd5386d9edb42da147	754108718	1	main_slash	11	advance_on_keypress_SLASH	78	stimuli_target_circletriangles.svg	stimuli_distractor_trianglediamonds.svg	1	yes	57	0	326
6.6.1	win	2022-12-14	15:01:54	15:11:34	578749	612fcbbd5386d9edb42da147	754108718	1	main_slash	11	main_slash	79	stimuli_distractor_trianglediamonds.svg	stimuli_distractor_trianglediamonds.svg	34	no	0	1	2000
6.6.1	win	2022-12-14	15:01:54	15:11:34	578749	612fcbbd5386d9edb42da147	754108718	1	main_slash	11	advance_on_keypress_SLASH	80	stimuli_distractor_trianglediamonds.svg	stimuli_distractor_trianglediamonds.svg	34	no	57	0	390
6.6.1	win	2022-12-14	15:01:54	15:11:36	580235	612fcbbd5386d9edb42da147	754108718	1	main_slash	11	main_slash	81	stimuli_target_diamondsquares.svg	stimuli_distractor_diamondtriangles.svg	24	yes	53	1	467
6.6.1	win	2022-12-14	15:01:54	15:11:36	580235	612fcbbd5386d9edb42da147	754108718	1	main_slash	11	advance_on_keypress_SLASH	82	stimuli_target_diamondsquares.svg	stimuli_distractor_diamondtriangles.svg	24	yes	57	0	490
6.6.1	win	2022-12-14	15:01:54	15:11:37	581930	612fcbbd5386d9edb42da147	754108718	1	main_slash	11	main_slash	83	stimuli_distractor_trianglediamonds.svg	stimuli_target_diamondsquares.svg	28	yes	53	1	561
6.6.1	win	2022-12-14	15:01:54	15:11:37	581930	612fcbbd5386d9edb42da147	754108718	1	main_slash	11	advance_on_keypress_SLASH	84	stimuli_distractor_trianglediamonds.svg	stimuli_target_diamondsquares.svg	28	yes	57	0	309
6.6.1	win	2022-12-14	15:01:54	15:11:39	583189	612fcbbd5386d9edb42da147	754108718	1	main_slash	11	main_slash	85	stimuli_distractor_diamondtriangles.svg	stimuli_target_diamondcircles.svg	31	yes	53	1	318
6.6.1	win	2022-12-14	15:01:54	15:11:39	583189	612fcbbd5386d9edb42da147	754108718	1	main_slash	11	advance_on_keypress_SLASH	86	stimuli_distractor_diamondtriangles.svg	stimuli_target_diamondcircles.svg	31	yes	57	0	440
6.6.1	win	2022-12-14	15:01:54	15:11:40	584697	612fcbbd5386d9edb42da147	754108718	1	main_slash	11	main_slash	87	stimuli_target_circlediamonds.svg	stimuli_distractor_trianglediamonds.svg	2	yes	53	1	425
6.6.1	win	2022-12-14	15:01:54	15:11:40	584697	612fcbbd5386d9edb42da147	754108718	1	main_slash	11	advance_on_keypress_SLASH	88	stimuli_target_circlediamonds.svg	stimuli_distractor_trianglediamonds.svg	2	yes	57	0	432
6.6.1	win	2022-12-14	15:01:54	15:11:42	586210	612fcbbd5386d9edb42da147	754108718	1	main_slash	11	main_slash	89	stimuli_target_trianglesquares.svg	stimuli_distractor_diamondtriangles.svg	22	yes	53	1	436
6.6.1	win	2022-12-14	15:01:54	15:11:42	586210	612fcbbd5386d9edb42da147	754108718	1	main_slash	11	advance_on_keypress_SLASH	90	stimuli_target_trianglesquares.svg	stimuli_distractor_diamondtriangles.svg	22	yes	57	0	401
6.6.1	win	2022-12-14	15:01:54	15:11:43	587703	612fcbbd5386d9edb42da147	754108718	1	main_slash	11	main_slash	91	stimuli_target_squaretriangles.svg	stimuli_distractor_diamondtriangles.svg	7	yes	53	1	444
6.6.1	win	2022-12-14	15:01:54	15:11:43	587703	612fcbbd5386d9edb42da147	754108718	1	main_slash	11	advance_on_keypress_SLASH	92	stimuli_target_squaretriangles.svg	stimuli_distractor_diamondtriangles.svg	7	yes	57	0	395
6.6.1	win	2022-12-14	15:01:54	15:11:45	589256	612fcbbd5386d9edb42da147	754108718	1	main_slash	11	main_slash	93	stimuli_target_diamondsquares.svg	stimuli_distractor_trianglediamonds.svg	20	yes	53	1	529
6.6.1	win	2022-12-14	15:01:54	15:11:45	589256	612fcbbd5386d9edb42da147	754108718	1	main_slash	11	advance_on_keypress_SLASH	94	stimuli_target_diamondsquares.svg	stimuli_distractor_trianglediamonds.svg	20	yes	57	0	424
6.6.1	win	2022-12-14	15:01:54	15:11:46	590896	612fcbbd5386d9edb42da147	754108718	1	main_slash	11	main_slash	95	stimuli_distractor_trianglediamonds.svg	stimuli_target_squaretriangles.svg	11	yes	53	1	584
6.6.1	win	2022-12-14	15:01:54	15:11:46	590896	612fcbbd5386d9edb42da147	754108718	1	main_slash	11	advance_on_keypress_SLASH	96	stimuli_distractor_trianglediamonds.svg	stimuli_target_squaretriangles.svg	11	yes	57	0	387
6.6.1	win	2022-12-14	15:01:54	15:11:49	593931	612fcbbd5386d9edb42da147	754108718	1	main_slash	11	main_slash	97	stimuli_distractor_trianglediamonds.svg	stimuli_distractor_trianglediamonds.svg	34	no	0	1	2000
6.6.1	win	2022-12-14	15:01:54	15:11:49	593931	612fcbbd5386d9edb42da147	754108718	1	main_slash	11	advance_on_keypress_SLASH	98	stimuli_distractor_trianglediamonds.svg	stimuli_distractor_trianglediamonds.svg	34	no	57	0	463
6.6.1	win	2022-12-14	15:01:54	15:11:51	595572	612fcbbd5386d9edb42da147	754108718	1	main_slash	11	main_slash	99	stimuli_target_trianglecircles.svg	stimuli_distractor_diamondtriangles.svg	21	yes	53	1	555
6.6.1	win	2022-12-14	15:01:54	15:11:51	595572	612fcbbd5386d9edb42da147	754108718	1	main_slash	11	advance_on_keypress_SLASH	100	stimuli_target_trianglecircles.svg	stimuli_distractor_diamondtriangles.svg	21	yes	57	0	412
6.6.1	win	2022-12-14	15:01:54	15:11:53	597135	612fcbbd5386d9edb42da147	754108718	1	main_slash	11	main_slash	101	stimuli_distractor_trianglediamonds.svg	stimuli_target_squarediamonds.svg	12	yes	53	1	517
6.6.1	win	2022-12-14	15:01:54	15:11:53	597135	612fcbbd5386d9edb42da147	754108718	1	main_slash	11	advance_on_keypress_SLASH	102	stimuli_distractor_trianglediamonds.svg	stimuli_target_squarediamonds.svg	12	yes	57	0	363
6.6.1	win	2022-12-14	15:01:54	15:11:54	598700	612fcbbd5386d9edb42da147	754108718	1	main_slash	11	main_slash	103	stimuli_target_trianglesquares.svg	stimuli_distractor_trianglediamonds.svg	18	yes	53	1	563
6.6.1	win	2022-12-14	15:01:54	15:11:54	598700	612fcbbd5386d9edb42da147	754108718	1	main_slash	11	advance_on_keypress_SLASH	104	stimuli_target_trianglesquares.svg	stimuli_distractor_trianglediamonds.svg	18	yes	57	0	368
6.6.1	win	2022-12-14	15:01:54	15:11:56	600198	612fcbbd5386d9edb42da147	754108718	1	main_slash	11	main_slash	105	stimuli_target_diamondcircles.svg	stimuli_distractor_diamondtriangles.svg	23	yes	53	1	493
6.6.1	win	2022-12-14	15:01:54	15:11:56	600198	612fcbbd5386d9edb42da147	754108718	1	main_slash	11	advance_on_keypress_SLASH	106	stimuli_target_diamondcircles.svg	stimuli_distractor_diamondtriangles.svg	23	yes	57	0	361
6.6.1	win	2022-12-14	15:01:54	15:11:57	601721	612fcbbd5386d9edb42da147	754108718	1	main_slash	11	main_slash	107	stimuli_distractor_trianglediamonds.svg	stimuli_target_trianglesquares.svg	26	yes	53	1	531
6.6.1	win	2022-12-14	15:01:54	15:11:57	601721	612fcbbd5386d9edb42da147	754108718	1	main_slash	11	advance_on_keypress_SLASH	108	stimuli_distractor_trianglediamonds.svg	stimuli_target_trianglesquares.svg	26	yes	57	0	378
6.6.1	win	2022-12-14	15:01:54	15:11:59	603259	612fcbbd5386d9edb42da147	754108718	1	main_slash	11	main_slash	109	stimuli_distractor_trianglediamonds.svg	stimuli_target_circletriangles.svg	9	yes	53	1	534
6.6.1	win	2022-12-14	15:01:54	15:11:59	603259	612fcbbd5386d9edb42da147	754108718	1	main_slash	11	advance_on_keypress_SLASH	110	stimuli_distractor_trianglediamonds.svg	stimuli_target_circletriangles.svg	9	yes	57	0	370
6.6.1	win	2022-12-14	15:01:54	15:12:02	606277	612fcbbd5386d9edb42da147	754108718	1	main_slash	11	main_slash	111	stimuli_distractor_diamondtriangles.svg	stimuli_distractor_diamondtriangles.svg	40	no	0	1	2000
6.6.1	win	2022-12-14	15:01:54	15:12:02	606277	612fcbbd5386d9edb42da147	754108718	1	main_slash	11	advance_on_keypress_SLASH	112	stimuli_distractor_diamondtriangles.svg	stimuli_distractor_diamondtriangles.svg	40	no	57	0	515
6.6.1	win	2022-12-14	15:01:54	15:12:05	609430	612fcbbd5386d9edb42da147	754108718	1	main_slash	11	main_slash	113	stimuli_distractor_trianglediamonds.svg	stimuli_distractor_trianglediamonds.svg	33	no	0	1	2000
6.6.1	win	2022-12-14	15:01:54	15:12:05	609430	612fcbbd5386d9edb42da147	754108718	1	main_slash	11	advance_on_keypress_SLASH	114	stimuli_distractor_trianglediamonds.svg	stimuli_distractor_trianglediamonds.svg	33	no	57	0	342
6.6.1	win	2022-12-14	15:01:54	15:12:06	610745	612fcbbd5386d9edb42da147	754108718	1	main_slash	11	main_slash	115	stimuli_distractor_trianglediamonds.svg	stimuli_target_diamondcircles.svg	27	yes	53	1	346
6.6.1	win	2022-12-14	15:01:54	15:12:06	610745	612fcbbd5386d9edb42da147	754108718	1	main_slash	11	advance_on_keypress_SLASH	116	stimuli_distractor_trianglediamonds.svg	stimuli_target_diamondcircles.svg	27	yes	57	0	410
6.6.1	win	2022-12-14	15:01:54	15:12:08	612377	612fcbbd5386d9edb42da147	754108718	1	main_slash	11	main_slash	117	stimuli_distractor_trianglediamonds.svg	stimuli_target_trianglecircles.svg	25	yes	53	1	593
6.6.1	win	2022-12-14	15:01:54	15:12:08	612377	612fcbbd5386d9edb42da147	754108718	1	main_slash	11	advance_on_keypress_SLASH	118	stimuli_distractor_trianglediamonds.svg	stimuli_target_trianglecircles.svg	25	yes	57	0	470
6.6.1	win	2022-12-14	15:01:54	15:12:09	613726	612fcbbd5386d9edb42da147	754108718	1	main_slash	11	main_slash	119	stimuli_distractor_diamondtriangles.svg	stimuli_distractor_trianglediamonds.svg	38	no	53	0	240
6.6.1	win	2022-12-14	15:01:54	15:12:09	613726	612fcbbd5386d9edb42da147	754108718	1	main_slash	11	advance_on_keypress_SLASH	120	stimuli_distractor_diamondtriangles.svg	stimuli_distractor_trianglediamonds.svg	38	no	57	0	478
6.6.1	win	2022-12-14	15:01:54	15:12:11	615331	612fcbbd5386d9edb42da147	754108718	1	main_slash	11	main_slash	121	stimuli_distractor_diamondtriangles.svg	stimuli_target_diamondsquares.svg	32	yes	53	1	494
6.6.1	win	2022-12-14	15:01:54	15:12:11	615331	612fcbbd5386d9edb42da147	754108718	1	main_slash	11	advance_on_keypress_SLASH	122	stimuli_distractor_diamondtriangles.svg	stimuli_target_diamondsquares.svg	32	yes	57	0	426
6.6.1	win	2022-12-14	15:01:54	15:12:12	617095	612fcbbd5386d9edb42da147	754108718	1	main_slash	11	main_slash	123	stimuli_target_circlediamonds.svg	stimuli_distractor_diamondtriangles.svg	6	yes	53	1	706
6.6.1	win	2022-12-14	15:01:54	15:12:12	617095	612fcbbd5386d9edb42da147	754108718	1	main_slash	11	advance_on_keypress_SLASH	124	stimuli_target_circlediamonds.svg	stimuli_distractor_diamondtriangles.svg	6	yes	57	0	357
6.6.1	win	2022-12-14	15:01:54	15:12:14	618688	612fcbbd5386d9edb42da147	754108718	1	main_slash	11	main_slash	125	stimuli_distractor_trianglediamonds.svg	stimuli_distractor_diamondtriangles.svg	36	no	53	0	598
6.6.1	win	2022-12-14	15:01:54	15:12:14	618688	612fcbbd5386d9edb42da147	754108718	1	main_slash	11	advance_on_keypress_SLASH	126	stimuli_distractor_trianglediamonds.svg	stimuli_distractor_diamondtriangles.svg	36	no	57	0	373
6.6.1	win	2022-12-14	15:01:54	15:12:16	620289	612fcbbd5386d9edb42da147	754108718	1	main_slash	11	main_slash	127	stimuli_distractor_diamondtriangles.svg	stimuli_target_trianglecircles.svg	29	yes	53	1	597
6.6.1	win	2022-12-14	15:01:54	15:12:16	620289	612fcbbd5386d9edb42da147	754108718	1	main_slash	11	advance_on_keypress_SLASH	128	stimuli_distractor_diamondtriangles.svg	stimuli_target_trianglecircles.svg	29	yes	57	0	425
6.6.1	win	2022-12-14	15:01:54	15:12:17	621964	612fcbbd5386d9edb42da147	754108718	1	main_slash	11	main_slash	129	stimuli_distractor_diamondtriangles.svg	stimuli_distractor_trianglediamonds.svg	37	no	53	0	620
6.6.1	win	2022-12-14	15:01:54	15:12:17	621964	612fcbbd5386d9edb42da147	754108718	1	main_slash	11	advance_on_keypress_SLASH	130	stimuli_distractor_diamondtriangles.svg	stimuli_distractor_trianglediamonds.svg	37	no	57	0	410
6.6.1	win	2022-12-14	15:01:54	15:12:19	623809	612fcbbd5386d9edb42da147	754108718	1	main_slash	11	main_slash	131	stimuli_target_squarediamonds.svg	stimuli_distractor_trianglediamonds.svg	4	yes	53	1	796
6.6.1	win	2022-12-14	15:01:54	15:12:19	623809	612fcbbd5386d9edb42da147	754108718	1	main_slash	11	advance_on_keypress_SLASH	132	stimuli_target_squarediamonds.svg	stimuli_distractor_trianglediamonds.svg	4	yes	57	0	368
6.6.1	win	2022-12-14	15:01:54	15:12:21	625511	612fcbbd5386d9edb42da147	754108718	1	main_slash	11	main_slash	133	stimuli_distractor_diamondtriangles.svg	stimuli_target_trianglesquares.svg	30	yes	53	1	696
6.6.1	win	2022-12-14	15:01:54	15:12:21	625511	612fcbbd5386d9edb42da147	754108718	1	main_slash	11	advance_on_keypress_SLASH	134	stimuli_distractor_diamondtriangles.svg	stimuli_target_trianglesquares.svg	30	yes	57	0	334
6.6.1	win	2022-12-14	15:01:54	15:12:23	627535	612fcbbd5386d9edb42da147	754108718	1	main_slash	11	main_slash	135	stimuli_distractor_trianglediamonds.svg	stimuli_distractor_diamondtriangles.svg	35	no	53	0	1052
6.6.1	win	2022-12-14	15:01:54	15:12:23	627535	612fcbbd5386d9edb42da147	754108718	1	main_slash	11	advance_on_keypress_SLASH	136	stimuli_distractor_trianglediamonds.svg	stimuli_distractor_diamondtriangles.svg	35	no	57	0	337
6.6.1	win	2022-12-14	15:01:54	15:12:25	629703	612fcbbd5386d9edb42da147	754108718	1	main_slash	11	main_slash	137	stimuli_distractor_diamondtriangles.svg	stimuli_target_squarediamonds.svg	16	yes	53	1	1184
6.6.1	win	2022-12-14	15:01:54	15:12:25	629703	612fcbbd5386d9edb42da147	754108718	1	main_slash	11	advance_on_keypress_SLASH	138	stimuli_distractor_diamondtriangles.svg	stimuli_target_squarediamonds.svg	16	yes	57	0	312
6.6.1	win	2022-12-14	15:01:54	15:12:27	631441	612fcbbd5386d9edb42da147	754108718	1	main_slash	11	main_slash	139	stimuli_distractor_diamondtriangles.svg	stimuli_target_circlediamonds.svg	14	yes	53	1	787
6.6.1	win	2022-12-14	15:01:54	15:12:27	631441	612fcbbd5386d9edb42da147	754108718	1	main_slash	11	advance_on_keypress_SLASH	140	stimuli_distractor_diamondtriangles.svg	stimuli_target_circlediamonds.svg	14	yes	57	0	352
6.6.1	win	2022-12-14	15:01:54	15:12:29	633216	612fcbbd5386d9edb42da147	754108718	1	main_slash	11	main_slash	141	stimuli_target_squaretriangles.svg	stimuli_distractor_trianglediamonds.svg	3	yes	53	1	777
6.6.1	win	2022-12-14	15:01:54	15:12:29	633216	612fcbbd5386d9edb42da147	754108718	1	main_slash	11	advance_on_keypress_SLASH	142	stimuli_target_squaretriangles.svg	stimuli_distractor_trianglediamonds.svg	3	yes	57	0	315
6.6.1	win	2022-12-14	15:01:54	15:12:30	634936	612fcbbd5386d9edb42da147	754108718	1	main_slash	11	main_slash	143	stimuli_target_circletriangles.svg	stimuli_distractor_trianglediamonds.svg	1	yes	53	1	778
6.6.1	win	2022-12-14	15:01:54	15:12:30	634936	612fcbbd5386d9edb42da147	754108718	1	main_slash	11	advance_on_keypress_SLASH	144	stimuli_target_circletriangles.svg	stimuli_distractor_trianglediamonds.svg	1	yes	57	0	297
6.6.1	win	2022-12-14	15:01:54	15:12:33	637228	612fcbbd5386d9edb42da147	754108718	1	main_slash	11	main_slash	145	stimuli_distractor_diamondtriangles.svg	stimuli_target_circletriangles.svg	13	yes	53	1	1369
6.6.1	win	2022-12-14	15:01:54	15:12:33	637228	612fcbbd5386d9edb42da147	754108718	1	main_slash	11	advance_on_keypress_SLASH	146	stimuli_distractor_diamondtriangles.svg	stimuli_target_circletriangles.svg	13	yes	57	0	496
6.6.1	win	2022-12-14	15:01:54	15:12:35	639112	612fcbbd5386d9edb42da147	754108718	1	main_slash	11	main_slash	147	stimuli_target_circletriangles.svg	stimuli_distractor_diamondtriangles.svg	5	yes	53	1	750
6.6.1	win	2022-12-14	15:01:54	15:12:35	639112	612fcbbd5386d9edb42da147	754108718	1	main_slash	11	advance_on_keypress_SLASH	148	stimuli_target_circletriangles.svg	stimuli_distractor_diamondtriangles.svg	5	yes	57	0	330
6.6.1	win	2022-12-14	15:01:54	15:12:36	640868	612fcbbd5386d9edb42da147	754108718	1	main_slash	11	main_slash	149	stimuli_distractor_trianglediamonds.svg	stimuli_target_circlediamonds.svg	10	yes	53	1	788
6.6.1	win	2022-12-14	15:01:54	15:12:36	640868	612fcbbd5386d9edb42da147	754108718	1	main_slash	11	advance_on_keypress_SLASH	150	stimuli_distractor_trianglediamonds.svg	stimuli_target_circlediamonds.svg	10	yes	57	0	325
6.6.1	win	2022-12-14	15:01:54	15:12:38	642597	612fcbbd5386d9edb42da147	754108718	1	main_slash	11	main_slash	151	stimuli_distractor_diamondtriangles.svg	stimuli_target_squaretriangles.svg	15	yes	53	1	765
6.6.1	win	2022-12-14	15:01:54	15:12:38	642597	612fcbbd5386d9edb42da147	754108718	1	main_slash	11	advance_on_keypress_SLASH	152	stimuli_distractor_diamondtriangles.svg	stimuli_target_squaretriangles.svg	15	yes	57	0	331
6.6.1	win	2022-12-14	15:01:54	15:12:40	644319	612fcbbd5386d9edb42da147	754108718	1	main_slash	11	main_slash	153	stimuli_target_trianglecircles.svg	stimuli_distractor_trianglediamonds.svg	17	yes	53	1	768
6.6.1	win	2022-12-14	15:01:54	15:12:40	644319	612fcbbd5386d9edb42da147	754108718	1	main_slash	11	advance_on_keypress_SLASH	154	stimuli_target_trianglecircles.svg	stimuli_distractor_trianglediamonds.svg	17	yes	57	0	318
6.6.1	win	2022-12-14	15:01:54	15:12:43	647285	612fcbbd5386d9edb42da147	754108718	1	main_slash	11	main_slash	155	stimuli_distractor_diamondtriangles.svg	stimuli_distractor_diamondtriangles.svg	39	no	0	1	2000
6.6.1	win	2022-12-14	15:01:54	15:12:43	647285	612fcbbd5386d9edb42da147	754108718	1	main_slash	11	advance_on_keypress_SLASH	156	stimuli_distractor_diamondtriangles.svg	stimuli_distractor_diamondtriangles.svg	39	no	57	0	738
6.6.1	win	2022-12-14	15:01:54	15:12:44	648980	612fcbbd5386d9edb42da147	754108718	1	main_slash	11	main_slash	157	stimuli_target_squarediamonds.svg	stimuli_distractor_diamondtriangles.svg	8	yes	53	1	325
6.6.1	win	2022-12-14	15:01:54	15:12:44	648980	612fcbbd5386d9edb42da147	754108718	1	main_slash	11	advance_on_keypress_SLASH	158	stimuli_target_squarediamonds.svg	stimuli_distractor_diamondtriangles.svg	8	yes	57	0	594
6.6.1	win	2022-12-14	15:01:54	15:12:46	650914	612fcbbd5386d9edb42da147	754108718	1	main_slash	11	main_slash	159	stimuli_target_diamondcircles.svg	stimuli_distractor_trianglediamonds.svg	19	yes	53	1	707
6.6.1	win	2022-12-14	15:01:54	15:12:46	650914	612fcbbd5386d9edb42da147	754108718	1	main_slash	11	advance_on_keypress_SLASH	160	stimuli_target_diamondcircles.svg	stimuli_distractor_trianglediamonds.svg	19	yes	57	0	453