build	computer.platform	date	time	timestamp	time_elapsed_ms	subject	group	session	blockcode	blocknum	trialcode	trialnum	stimulus_left	stimulus_right	stim_index	target_present	response	correct	latency
6.6.1	win	2022-12-22	15:49:58	15:52:12	132854	5dcca2db88381e92c96b9ac5	37318188	1	practice_z	5	practice_z	1	stimuli_target_diamondsquares.svg	stimuli_distractor_trianglediamonds.svg	6	yes	44	1	1594
6.6.1	win	2022-12-22	15:49:58	15:52:12	132854	5dcca2db88381e92c96b9ac5	37318188	1	practice_z	5	advance_on_keypress_ZEE	2	stimuli_target_diamondsquares.svg	stimuli_distractor_trianglediamonds.svg	6	yes	57	0	1464
6.6.1	win	2022-12-22	15:49:58	15:52:18	137993	5dcca2db88381e92c96b9ac5	37318188	1	practice_z	5	practice_z	3	stimuli_distractor_trianglediamonds.svg	stimuli_target_squarediamonds.svg	11	yes	0	0	2000
6.6.1	win	2022-12-22	15:49:58	15:52:18	137993	5dcca2db88381e92c96b9ac5	37318188	1	practice_z	5	advance_on_keypress_ZEE	4	stimuli_distractor_trianglediamonds.svg	stimuli_target_squarediamonds.svg	11	yes	57	0	1161
6.6.1	win	2022-12-22	15:49:58	15:52:21	141840	5dcca2db88381e92c96b9ac5	37318188	1	practice_z	5	practice_z	5	stimuli_distractor_trianglediamonds.svg	stimuli_distractor_trianglediamonds.svg	15	no	44	0	1043
6.6.1	win	2022-12-22	15:49:58	15:52:21	141840	5dcca2db88381e92c96b9ac5	37318188	1	practice_z	5	advance_on_keypress_ZEE	6	stimuli_distractor_trianglediamonds.svg	stimuli_distractor_trianglediamonds.svg	15	no	57	0	590
6.6.1	win	2022-12-22	15:49:58	15:52:24	144889	5dcca2db88381e92c96b9ac5	37318188	1	practice_z	5	practice_z	7	stimuli_distractor_trianglediamonds.svg	stimuli_target_diamondcircles.svg	12	yes	44	1	795
6.6.1	win	2022-12-22	15:49:58	15:52:24	144889	5dcca2db88381e92c96b9ac5	37318188	1	practice_z	5	advance_on_keypress_ZEE	8	stimuli_distractor_trianglediamonds.svg	stimuli_target_diamondcircles.svg	12	yes	57	0	668
6.6.1	win	2022-12-22	15:49:58	15:52:27	147875	5dcca2db88381e92c96b9ac5	37318188	1	practice_z	5	practice_z	9	stimuli_distractor_diamondtriangles.svg	stimuli_target_circletriangles.svg	7	yes	44	1	665
6.6.1	win	2022-12-22	15:49:58	15:52:27	147875	5dcca2db88381e92c96b9ac5	37318188	1	practice_z	5	advance_on_keypress_ZEE	10	stimuli_distractor_diamondtriangles.svg	stimuli_target_circletriangles.svg	7	yes	57	0	578
6.6.1	win	2022-12-22	15:49:58	15:52:32	152114	5dcca2db88381e92c96b9ac5	37318188	1	practice_z	5	practice_z	11	stimuli_distractor_diamondtriangles.svg	stimuli_distractor_trianglediamonds.svg	14	no	0	1	2000
6.6.1	win	2022-12-22	15:49:58	15:52:32	152114	5dcca2db88381e92c96b9ac5	37318188	1	practice_z	5	advance_on_keypress_ZEE	12	stimuli_distractor_diamondtriangles.svg	stimuli_distractor_trianglediamonds.svg	14	no	57	0	640
6.6.1	win	2022-12-22	15:49:58	15:52:36	156414	5dcca2db88381e92c96b9ac5	37318188	1	practice_z	5	practice_z	13	stimuli_distractor_trianglediamonds.svg	stimuli_distractor_diamondtriangles.svg	16	no	0	1	2000
6.6.1	win	2022-12-22	15:49:58	15:52:36	156414	5dcca2db88381e92c96b9ac5	37318188	1	practice_z	5	advance_on_keypress_ZEE	14	stimuli_distractor_trianglediamonds.svg	stimuli_distractor_diamondtriangles.svg	16	no	57	0	630
6.6.1	win	2022-12-22	15:49:58	15:52:40	160685	5dcca2db88381e92c96b9ac5	37318188	1	practice_z	5	practice_z	15	stimuli_distractor_trianglediamonds.svg	stimuli_target_circlediamonds.svg	10	yes	0	0	2000
6.6.1	win	2022-12-22	15:49:58	15:52:40	160685	5dcca2db88381e92c96b9ac5	37318188	1	practice_z	5	advance_on_keypress_ZEE	16	stimuli_distractor_trianglediamonds.svg	stimuli_target_circlediamonds.svg	10	yes	57	0	653
6.6.1	win	2022-12-22	15:49:58	15:52:45	164997	5dcca2db88381e92c96b9ac5	37318188	1	practice_z	5	practice_z	17	stimuli_distractor_diamondtriangles.svg	stimuli_distractor_diamondtriangles.svg	13	no	0	1	2000
6.6.1	win	2022-12-22	15:49:58	15:52:45	164997	5dcca2db88381e92c96b9ac5	37318188	1	practice_z	5	advance_on_keypress_ZEE	18	stimuli_distractor_diamondtriangles.svg	stimuli_distractor_diamondtriangles.svg	13	no	57	0	645
6.6.1	win	2022-12-22	15:49:58	15:52:48	168284	5dcca2db88381e92c96b9ac5	37318188	1	practice_z	5	practice_z	19	stimuli_target_diamondsquares.svg	stimuli_distractor_diamondtriangles.svg	3	yes	44	1	987
6.6.1	win	2022-12-22	15:49:58	15:52:48	168284	5dcca2db88381e92c96b9ac5	37318188	1	practice_z	5	advance_on_keypress_ZEE	20	stimuli_target_diamondsquares.svg	stimuli_distractor_diamondtriangles.svg	3	yes	57	0	506
6.6.1	win	2022-12-22	15:49:58	15:52:51	170975	5dcca2db88381e92c96b9ac5	37318188	1	practice_z	5	practice_z	21	stimuli_target_squarediamonds.svg	stimuli_distractor_trianglediamonds.svg	5	yes	44	1	532
6.6.1	win	2022-12-22	15:49:58	15:52:51	170975	5dcca2db88381e92c96b9ac5	37318188	1	practice_z	5	advance_on_keypress_ZEE	22	stimuli_target_squarediamonds.svg	stimuli_distractor_trianglediamonds.svg	5	yes	57	0	477
6.6.1	win	2022-12-22	15:49:58	15:52:53	173668	5dcca2db88381e92c96b9ac5	37318188	1	practice_z	5	practice_z	23	stimuli_target_squarediamonds.svg	stimuli_distractor_diamondtriangles.svg	2	yes	44	1	570
6.6.1	win	2022-12-22	15:49:58	15:52:53	173668	5dcca2db88381e92c96b9ac5	37318188	1	practice_z	5	advance_on_keypress_ZEE	24	stimuli_target_squarediamonds.svg	stimuli_distractor_diamondtriangles.svg	2	yes	57	0	462
6.6.1	win	2022-12-22	15:49:58	15:52:57	177077	5dcca2db88381e92c96b9ac5	37318188	1	practice_z	5	practice_z	25	stimuli_distractor_diamondtriangles.svg	stimuli_target_diamondcircles.svg	8	yes	44	1	1297
6.6.1	win	2022-12-22	15:49:58	15:52:57	177077	5dcca2db88381e92c96b9ac5	37318188	1	practice_z	5	advance_on_keypress_ZEE	26	stimuli_distractor_diamondtriangles.svg	stimuli_target_diamondcircles.svg	8	yes	57	0	521
6.6.1	win	2022-12-22	15:49:58	15:52:59	179882	5dcca2db88381e92c96b9ac5	37318188	1	practice_z	5	practice_z	27	stimuli_target_circlediamonds.svg	stimuli_distractor_diamondtriangles.svg	1	yes	44	1	640
6.6.1	win	2022-12-22	15:49:58	15:52:59	179882	5dcca2db88381e92c96b9ac5	37318188	1	practice_z	5	advance_on_keypress_ZEE	28	stimuli_target_circlediamonds.svg	stimuli_distractor_diamondtriangles.svg	1	yes	57	0	540
6.6.1	win	2022-12-22	15:49:58	15:53:02	182644	5dcca2db88381e92c96b9ac5	37318188	1	practice_z	5	practice_z	29	stimuli_target_circlediamonds.svg	stimuli_distractor_trianglediamonds.svg	4	yes	44	1	555
6.6.1	win	2022-12-22	15:49:58	15:53:02	182644	5dcca2db88381e92c96b9ac5	37318188	1	practice_z	5	advance_on_keypress_ZEE	30	stimuli_target_circlediamonds.svg	stimuli_distractor_trianglediamonds.svg	4	yes	57	0	429
6.6.1	win	2022-12-22	15:49:58	15:53:05	185253	5dcca2db88381e92c96b9ac5	37318188	1	practice_z	5	practice_z	31	stimuli_distractor_diamondtriangles.svg	stimuli_target_trianglecircles.svg	9	yes	44	1	535
6.6.1	win	2022-12-22	15:49:58	15:53:05	185253	5dcca2db88381e92c96b9ac5	37318188	1	practice_z	5	advance_on_keypress_ZEE	32	stimuli_distractor_diamondtriangles.svg	stimuli_target_trianglecircles.svg	9	yes	57	0	331
6.6.1	win	2022-12-22	15:49:58	15:53:12	192577	5dcca2db88381e92c96b9ac5	37318188	1	main_z	7	main_z	1	stimuli_distractor_trianglediamonds.svg	stimuli_distractor_trianglediamonds.svg	33	no	0	1	2000
6.6.1	win	2022-12-22	15:49:58	15:53:12	192577	5dcca2db88381e92c96b9ac5	37318188	1	main_z	7	advance_on_keypress_ZEE	2	stimuli_distractor_trianglediamonds.svg	stimuli_distractor_trianglediamonds.svg	33	no	57	0	889
6.6.1	win	2022-12-22	15:49:58	15:53:15	195248	5dcca2db88381e92c96b9ac5	37318188	1	main_z	7	main_z	3	stimuli_distractor_trianglediamonds.svg	stimuli_distractor_trianglediamonds.svg	34	no	44	0	1130
6.6.1	win	2022-12-22	15:49:58	15:53:15	195248	5dcca2db88381e92c96b9ac5	37318188	1	main_z	7	advance_on_keypress_ZEE	4	stimuli_distractor_trianglediamonds.svg	stimuli_distractor_trianglediamonds.svg	34	no	57	0	588
6.6.1	win	2022-12-22	15:49:58	15:53:18	198485	5dcca2db88381e92c96b9ac5	37318188	1	main_z	7	main_z	5	stimuli_distractor_diamondtriangles.svg	stimuli_target_squaretriangles.svg	15	yes	0	0	2000
6.6.1	win	2022-12-22	15:49:58	15:53:18	198485	5dcca2db88381e92c96b9ac5	37318188	1	main_z	7	advance_on_keypress_ZEE	6	stimuli_distractor_diamondtriangles.svg	stimuli_target_squaretriangles.svg	15	yes	57	0	371
6.6.1	win	2022-12-22	15:49:58	15:53:20	200170	5dcca2db88381e92c96b9ac5	37318188	1	main_z	7	main_z	7	stimuli_target_squarediamonds.svg	stimuli_distractor_diamondtriangles.svg	8	yes	44	1	660
6.6.1	win	2022-12-22	15:49:58	15:53:20	200170	5dcca2db88381e92c96b9ac5	37318188	1	main_z	7	advance_on_keypress_ZEE	8	stimuli_target_squarediamonds.svg	stimuli_distractor_diamondtriangles.svg	8	yes	57	0	732
6.6.1	win	2022-12-22	15:49:58	15:53:22	202435	5dcca2db88381e92c96b9ac5	37318188	1	main_z	7	main_z	9	stimuli_distractor_diamondtriangles.svg	stimuli_target_trianglecircles.svg	29	yes	44	1	883
6.6.1	win	2022-12-22	15:49:58	15:53:22	202435	5dcca2db88381e92c96b9ac5	37318188	1	main_z	7	advance_on_keypress_ZEE	10	stimuli_distractor_diamondtriangles.svg	stimuli_target_trianglecircles.svg	29	yes	57	0	764
6.6.1	win	2022-12-22	15:49:58	15:53:25	205839	5dcca2db88381e92c96b9ac5	37318188	1	main_z	7	main_z	11	stimuli_distractor_diamondtriangles.svg	stimuli_distractor_diamondtriangles.svg	40	no	0	1	2000
6.6.1	win	2022-12-22	15:49:58	15:53:25	205839	5dcca2db88381e92c96b9ac5	37318188	1	main_z	7	advance_on_keypress_ZEE	12	stimuli_distractor_diamondtriangles.svg	stimuli_distractor_diamondtriangles.svg	40	no	57	0	391
6.6.1	win	2022-12-22	15:49:58	15:53:28	208020	5dcca2db88381e92c96b9ac5	37318188	1	main_z	7	main_z	13	stimuli_distractor_diamondtriangles.svg	stimuli_distractor_trianglediamonds.svg	37	no	44	0	1152
6.6.1	win	2022-12-22	15:49:58	15:53:28	208020	5dcca2db88381e92c96b9ac5	37318188	1	main_z	7	advance_on_keypress_ZEE	14	stimuli_distractor_diamondtriangles.svg	stimuli_distractor_trianglediamonds.svg	37	no	57	0	684
6.6.1	win	2022-12-22	15:49:58	15:53:30	210633	5dcca2db88381e92c96b9ac5	37318188	1	main_z	7	main_z	15	stimuli_distractor_diamondtriangles.svg	stimuli_target_circlediamonds.svg	14	yes	44	1	1298
6.6.1	win	2022-12-22	15:49:58	15:53:30	210633	5dcca2db88381e92c96b9ac5	37318188	1	main_z	7	advance_on_keypress_ZEE	16	stimuli_distractor_diamondtriangles.svg	stimuli_target_circlediamonds.svg	14	yes	57	0	593
6.6.1	win	2022-12-22	15:49:58	15:53:33	213877	5dcca2db88381e92c96b9ac5	37318188	1	main_z	7	main_z	17	stimuli_distractor_trianglediamonds.svg	stimuli_target_circletriangles.svg	9	yes	0	0	2000
6.6.1	win	2022-12-22	15:49:58	15:53:33	213877	5dcca2db88381e92c96b9ac5	37318188	1	main_z	7	advance_on_keypress_ZEE	18	stimuli_distractor_trianglediamonds.svg	stimuli_target_circletriangles.svg	9	yes	57	0	385
6.6.1	win	2022-12-22	15:49:58	15:53:36	216906	5dcca2db88381e92c96b9ac5	37318188	1	main_z	7	main_z	19	stimuli_distractor_diamondtriangles.svg	stimuli_distractor_diamondtriangles.svg	39	no	0	1	2000
6.6.1	win	2022-12-22	15:49:58	15:53:36	216906	5dcca2db88381e92c96b9ac5	37318188	1	main_z	7	advance_on_keypress_ZEE	20	stimuli_distractor_diamondtriangles.svg	stimuli_distractor_diamondtriangles.svg	39	no	57	0	304
6.6.1	win	2022-12-22	15:49:58	15:53:38	218911	5dcca2db88381e92c96b9ac5	37318188	1	main_z	7	main_z	21	stimuli_distractor_diamondtriangles.svg	stimuli_target_squarediamonds.svg	16	yes	44	1	1047
6.6.1	win	2022-12-22	15:49:58	15:53:38	218911	5dcca2db88381e92c96b9ac5	37318188	1	main_z	7	advance_on_keypress_ZEE	22	stimuli_distractor_diamondtriangles.svg	stimuli_target_squarediamonds.svg	16	yes	57	0	779
6.6.1	win	2022-12-22	15:49:58	15:53:41	221307	5dcca2db88381e92c96b9ac5	37318188	1	main_z	7	main_z	23	stimuli_target_trianglesquares.svg	stimuli_distractor_trianglediamonds.svg	18	yes	44	1	967
6.6.1	win	2022-12-22	15:49:58	15:53:41	221307	5dcca2db88381e92c96b9ac5	37318188	1	main_z	7	advance_on_keypress_ZEE	24	stimuli_target_trianglesquares.svg	stimuli_distractor_trianglediamonds.svg	18	yes	57	0	550
6.6.1	win	2022-12-22	15:49:58	15:53:43	223952	5dcca2db88381e92c96b9ac5	37318188	1	main_z	7	main_z	25	stimuli_distractor_trianglediamonds.svg	stimuli_distractor_diamondtriangles.svg	35	no	44	0	1446
6.6.1	win	2022-12-22	15:49:58	15:53:43	223952	5dcca2db88381e92c96b9ac5	37318188	1	main_z	7	advance_on_keypress_ZEE	26	stimuli_distractor_trianglediamonds.svg	stimuli_distractor_diamondtriangles.svg	35	no	57	0	986
6.6.1	win	2022-12-22	15:49:58	15:53:46	226374	5dcca2db88381e92c96b9ac5	37318188	1	main_z	7	main_z	27	stimuli_target_diamondcircles.svg	stimuli_distractor_diamondtriangles.svg	23	yes	44	1	781
6.6.1	win	2022-12-22	15:49:58	15:53:46	226374	5dcca2db88381e92c96b9ac5	37318188	1	main_z	7	advance_on_keypress_ZEE	28	stimuli_target_diamondcircles.svg	stimuli_distractor_diamondtriangles.svg	23	yes	57	0	787
6.6.1	win	2022-12-22	15:49:58	15:53:48	228794	5dcca2db88381e92c96b9ac5	37318188	1	main_z	7	main_z	29	stimuli_target_squaretriangles.svg	stimuli_distractor_trianglediamonds.svg	3	yes	44	1	984
6.6.1	win	2022-12-22	15:49:58	15:53:48	228794	5dcca2db88381e92c96b9ac5	37318188	1	main_z	7	advance_on_keypress_ZEE	30	stimuli_target_squaretriangles.svg	stimuli_distractor_trianglediamonds.svg	3	yes	57	0	518
6.6.1	win	2022-12-22	15:49:58	15:53:50	230536	5dcca2db88381e92c96b9ac5	37318188	1	main_z	7	main_z	31	stimuli_target_circletriangles.svg	stimuli_distractor_diamondtriangles.svg	5	yes	44	1	589
6.6.1	win	2022-12-22	15:49:58	15:53:50	230536	5dcca2db88381e92c96b9ac5	37318188	1	main_z	7	advance_on_keypress_ZEE	32	stimuli_target_circletriangles.svg	stimuli_distractor_diamondtriangles.svg	5	yes	57	0	818
6.6.1	win	2022-12-22	15:49:58	15:53:54	234014	5dcca2db88381e92c96b9ac5	37318188	1	main_z	7	main_z	33	stimuli_distractor_trianglediamonds.svg	stimuli_target_circlediamonds.svg	10	yes	0	0	2000
6.6.1	win	2022-12-22	15:49:58	15:53:54	234014	5dcca2db88381e92c96b9ac5	37318188	1	main_z	7	advance_on_keypress_ZEE	34	stimuli_distractor_trianglediamonds.svg	stimuli_target_circlediamonds.svg	10	yes	57	0	331
6.6.1	win	2022-12-22	15:49:58	15:53:55	235683	5dcca2db88381e92c96b9ac5	37318188	1	main_z	7	main_z	35	stimuli_target_circletriangles.svg	stimuli_distractor_trianglediamonds.svg	1	yes	44	1	685
6.6.1	win	2022-12-22	15:49:58	15:53:55	235683	5dcca2db88381e92c96b9ac5	37318188	1	main_z	7	advance_on_keypress_ZEE	36	stimuli_target_circletriangles.svg	stimuli_distractor_trianglediamonds.svg	1	yes	57	0	474
6.6.1	win	2022-12-22	15:49:58	15:53:58	238181	5dcca2db88381e92c96b9ac5	37318188	1	main_z	7	main_z	37	stimuli_distractor_diamondtriangles.svg	stimuli_target_diamondsquares.svg	32	yes	44	1	1372
6.6.1	win	2022-12-22	15:49:58	15:53:58	238181	5dcca2db88381e92c96b9ac5	37318188	1	main_z	7	advance_on_keypress_ZEE	38	stimuli_distractor_diamondtriangles.svg	stimuli_target_diamondsquares.svg	32	yes	57	0	589
6.6.1	win	2022-12-22	15:49:58	15:54:00	240443	5dcca2db88381e92c96b9ac5	37318188	1	main_z	7	main_z	39	stimuli_target_squarediamonds.svg	stimuli_distractor_trianglediamonds.svg	4	yes	44	1	1012
6.6.1	win	2022-12-22	15:49:58	15:54:00	240443	5dcca2db88381e92c96b9ac5	37318188	1	main_z	7	advance_on_keypress_ZEE	40	stimuli_target_squarediamonds.svg	stimuli_distractor_trianglediamonds.svg	4	yes	57	0	406
6.6.1	win	2022-12-22	15:49:58	15:54:02	242246	5dcca2db88381e92c96b9ac5	37318188	1	main_z	7	main_z	41	stimuli_distractor_diamondtriangles.svg	stimuli_target_trianglesquares.svg	30	yes	44	1	736
6.6.1	win	2022-12-22	15:49:58	15:54:02	242246	5dcca2db88381e92c96b9ac5	37318188	1	main_z	7	advance_on_keypress_ZEE	42	stimuli_distractor_diamondtriangles.svg	stimuli_target_trianglesquares.svg	30	yes	57	0	731
6.6.1	win	2022-12-22	15:49:58	15:54:04	244390	5dcca2db88381e92c96b9ac5	37318188	1	main_z	7	main_z	43	stimuli_distractor_trianglediamonds.svg	stimuli_target_diamondsquares.svg	28	yes	44	1	759
6.6.1	win	2022-12-22	15:49:58	15:54:04	244390	5dcca2db88381e92c96b9ac5	37318188	1	main_z	7	advance_on_keypress_ZEE	44	stimuli_distractor_trianglediamonds.svg	stimuli_target_diamondsquares.svg	28	yes	57	0	768
6.6.1	win	2022-12-22	15:49:58	15:54:06	246787	5dcca2db88381e92c96b9ac5	37318188	1	main_z	7	main_z	45	stimuli_target_squaretriangles.svg	stimuli_distractor_diamondtriangles.svg	7	yes	44	1	982
6.6.1	win	2022-12-22	15:49:58	15:54:06	246787	5dcca2db88381e92c96b9ac5	37318188	1	main_z	7	advance_on_keypress_ZEE	46	stimuli_target_squaretriangles.svg	stimuli_distractor_diamondtriangles.svg	7	yes	57	0	494
6.6.1	win	2022-12-22	15:49:58	15:54:08	248563	5dcca2db88381e92c96b9ac5	37318188	1	main_z	7	main_z	47	stimuli_target_circlediamonds.svg	stimuli_distractor_diamondtriangles.svg	6	yes	44	1	636
6.6.1	win	2022-12-22	15:49:58	15:54:08	248563	5dcca2db88381e92c96b9ac5	37318188	1	main_z	7	advance_on_keypress_ZEE	48	stimuli_target_circlediamonds.svg	stimuli_distractor_diamondtriangles.svg	6	yes	57	0	620
6.6.1	win	2022-12-22	15:49:58	15:54:11	251818	5dcca2db88381e92c96b9ac5	37318188	1	main_z	7	main_z	49	stimuli_distractor_diamondtriangles.svg	stimuli_distractor_trianglediamonds.svg	38	no	0	1	2000
6.6.1	win	2022-12-22	15:49:58	15:54:11	251818	5dcca2db88381e92c96b9ac5	37318188	1	main_z	7	advance_on_keypress_ZEE	50	stimuli_distractor_diamondtriangles.svg	stimuli_distractor_trianglediamonds.svg	38	no	57	0	334
6.6.1	win	2022-12-22	15:49:58	15:54:13	253188	5dcca2db88381e92c96b9ac5	37318188	1	main_z	7	main_z	51	stimuli_target_trianglecircles.svg	stimuli_distractor_diamondtriangles.svg	21	yes	44	1	403
6.6.1	win	2022-12-22	15:49:58	15:54:13	253188	5dcca2db88381e92c96b9ac5	37318188	1	main_z	7	advance_on_keypress_ZEE	52	stimuli_target_trianglecircles.svg	stimuli_distractor_diamondtriangles.svg	21	yes	57	0	547
6.6.1	win	2022-12-22	15:49:58	15:54:14	254945	5dcca2db88381e92c96b9ac5	37318188	1	main_z	7	main_z	53	stimuli_target_trianglesquares.svg	stimuli_distractor_diamondtriangles.svg	22	yes	44	1	564
6.6.1	win	2022-12-22	15:49:58	15:54:14	254945	5dcca2db88381e92c96b9ac5	37318188	1	main_z	7	advance_on_keypress_ZEE	54	stimuli_target_trianglesquares.svg	stimuli_distractor_diamondtriangles.svg	22	yes	57	0	382
6.6.1	win	2022-12-22	15:49:58	15:54:16	256515	5dcca2db88381e92c96b9ac5	37318188	1	main_z	7	main_z	55	stimuli_distractor_trianglediamonds.svg	stimuli_target_trianglesquares.svg	26	yes	44	1	527
6.6.1	win	2022-12-22	15:49:58	15:54:16	256515	5dcca2db88381e92c96b9ac5	37318188	1	main_z	7	advance_on_keypress_ZEE	56	stimuli_distractor_trianglediamonds.svg	stimuli_target_trianglesquares.svg	26	yes	57	0	416
6.6.1	win	2022-12-22	15:49:58	15:54:19	259576	5dcca2db88381e92c96b9ac5	37318188	1	main_z	7	main_z	57	stimuli_distractor_diamondtriangles.svg	stimuli_target_circletriangles.svg	13	yes	0	0	2000
6.6.1	win	2022-12-22	15:49:58	15:54:19	259576	5dcca2db88381e92c96b9ac5	37318188	1	main_z	7	advance_on_keypress_ZEE	58	stimuli_distractor_diamondtriangles.svg	stimuli_target_circletriangles.svg	13	yes	57	0	291
6.6.1	win	2022-12-22	15:49:58	15:54:20	260914	5dcca2db88381e92c96b9ac5	37318188	1	main_z	7	main_z	59	stimuli_distractor_trianglediamonds.svg	stimuli_target_squarediamonds.svg	12	yes	44	1	397
6.6.1	win	2022-12-22	15:49:58	15:54:20	260914	5dcca2db88381e92c96b9ac5	37318188	1	main_z	7	advance_on_keypress_ZEE	60	stimuli_distractor_trianglediamonds.svg	stimuli_target_squarediamonds.svg	12	yes	57	0	506
6.6.1	win	2022-12-22	15:49:58	15:54:22	262548	5dcca2db88381e92c96b9ac5	37318188	1	main_z	7	main_z	61	stimuli_target_trianglecircles.svg	stimuli_distractor_trianglediamonds.svg	17	yes	44	1	481
6.6.1	win	2022-12-22	15:49:58	15:54:22	262548	5dcca2db88381e92c96b9ac5	37318188	1	main_z	7	advance_on_keypress_ZEE	62	stimuli_target_trianglecircles.svg	stimuli_distractor_trianglediamonds.svg	17	yes	57	0	344
6.6.1	win	2022-12-22	15:49:58	15:54:24	264073	5dcca2db88381e92c96b9ac5	37318188	1	main_z	7	main_z	63	stimuli_target_diamondcircles.svg	stimuli_distractor_trianglediamonds.svg	19	yes	44	1	507
6.6.1	win	2022-12-22	15:49:58	15:54:24	264073	5dcca2db88381e92c96b9ac5	37318188	1	main_z	7	advance_on_keypress_ZEE	64	stimuli_target_diamondcircles.svg	stimuli_distractor_trianglediamonds.svg	19	yes	57	0	313
6.6.1	win	2022-12-22	15:49:58	15:54:25	265530	5dcca2db88381e92c96b9ac5	37318188	1	main_z	7	main_z	65	stimuli_target_diamondsquares.svg	stimuli_distractor_diamondtriangles.svg	24	yes	44	1	495
6.6.1	win	2022-12-22	15:49:58	15:54:25	265530	5dcca2db88381e92c96b9ac5	37318188	1	main_z	7	advance_on_keypress_ZEE	66	stimuli_target_diamondsquares.svg	stimuli_distractor_diamondtriangles.svg	24	yes	57	0	325
6.6.1	win	2022-12-22	15:49:58	15:54:27	267071	5dcca2db88381e92c96b9ac5	37318188	1	main_z	7	main_z	67	stimuli_target_circlediamonds.svg	stimuli_distractor_trianglediamonds.svg	2	yes	44	1	566
6.6.1	win	2022-12-22	15:49:58	15:54:27	267071	5dcca2db88381e92c96b9ac5	37318188	1	main_z	7	advance_on_keypress_ZEE	68	stimuli_target_circlediamonds.svg	stimuli_distractor_trianglediamonds.svg	2	yes	57	0	364
6.6.1	win	2022-12-22	15:49:58	15:54:28	268619	5dcca2db88381e92c96b9ac5	37318188	1	main_z	7	main_z	69	stimuli_distractor_trianglediamonds.svg	stimuli_target_diamondcircles.svg	27	yes	44	1	522
6.6.1	win	2022-12-22	15:49:58	15:54:28	268619	5dcca2db88381e92c96b9ac5	37318188	1	main_z	7	advance_on_keypress_ZEE	70	stimuli_distractor_trianglediamonds.svg	stimuli_target_diamondcircles.svg	27	yes	57	0	416
6.6.1	win	2022-12-22	15:49:58	15:54:30	270109	5dcca2db88381e92c96b9ac5	37318188	1	main_z	7	main_z	71	stimuli_distractor_trianglediamonds.svg	stimuli_target_squaretriangles.svg	11	yes	44	1	434
6.6.1	win	2022-12-22	15:49:58	15:54:30	270109	5dcca2db88381e92c96b9ac5	37318188	1	main_z	7	advance_on_keypress_ZEE	72	stimuli_distractor_trianglediamonds.svg	stimuli_target_squaretriangles.svg	11	yes	57	0	482
6.6.1	win	2022-12-22	15:49:58	15:54:31	271809	5dcca2db88381e92c96b9ac5	37318188	1	main_z	7	main_z	73	stimuli_distractor_diamondtriangles.svg	stimuli_target_diamondcircles.svg	31	yes	44	1	571
6.6.1	win	2022-12-22	15:49:58	15:54:31	271809	5dcca2db88381e92c96b9ac5	37318188	1	main_z	7	advance_on_keypress_ZEE	74	stimuli_distractor_diamondtriangles.svg	stimuli_target_diamondcircles.svg	31	yes	57	0	303
6.6.1	win	2022-12-22	15:49:58	15:54:34	274767	5dcca2db88381e92c96b9ac5	37318188	1	main_z	7	main_z	75	stimuli_distractor_trianglediamonds.svg	stimuli_distractor_diamondtriangles.svg	36	no	0	1	2000
6.6.1	win	2022-12-22	15:49:58	15:54:34	274767	5dcca2db88381e92c96b9ac5	37318188	1	main_z	7	advance_on_keypress_ZEE	76	stimuli_distractor_trianglediamonds.svg	stimuli_distractor_diamondtriangles.svg	36	no	57	0	312
6.6.1	win	2022-12-22	15:49:58	15:54:36	276154	5dcca2db88381e92c96b9ac5	37318188	1	main_z	7	main_z	77	stimuli_target_diamondsquares.svg	stimuli_distractor_trianglediamonds.svg	20	yes	44	1	441
6.6.1	win	2022-12-22	15:49:58	15:54:36	276154	5dcca2db88381e92c96b9ac5	37318188	1	main_z	7	advance_on_keypress_ZEE	78	stimuli_target_diamondsquares.svg	stimuli_distractor_trianglediamonds.svg	20	yes	57	0	356
6.6.1	win	2022-12-22	15:49:58	15:54:37	277827	5dcca2db88381e92c96b9ac5	37318188	1	main_z	7	main_z	79	stimuli_distractor_trianglediamonds.svg	stimuli_target_trianglecircles.svg	25	yes	44	1	669
6.6.1	win	2022-12-22	15:49:58	15:54:37	277827	5dcca2db88381e92c96b9ac5	37318188	1	main_z	7	advance_on_keypress_ZEE	80	stimuli_distractor_trianglediamonds.svg	stimuli_target_trianglecircles.svg	25	yes	57	0	447
6.6.1	win	2022-12-22	15:49:58	15:54:40	280934	5dcca2db88381e92c96b9ac5	37318188	1	main_z	7	main_z	81	stimuli_distractor_trianglediamonds.svg	stimuli_target_squaretriangles.svg	11	yes	0	0	2000
6.6.1	win	2022-12-22	15:49:58	15:54:40	280934	5dcca2db88381e92c96b9ac5	37318188	1	main_z	7	advance_on_keypress_ZEE	82	stimuli_distractor_trianglediamonds.svg	stimuli_target_squaretriangles.svg	11	yes	57	0	295
6.6.1	win	2022-12-22	15:49:58	15:54:42	282216	5dcca2db88381e92c96b9ac5	37318188	1	main_z	7	main_z	83	stimuli_target_trianglecircles.svg	stimuli_distractor_diamondtriangles.svg	21	yes	44	1	333
6.6.1	win	2022-12-22	15:49:58	15:54:42	282216	5dcca2db88381e92c96b9ac5	37318188	1	main_z	7	advance_on_keypress_ZEE	84	stimuli_target_trianglecircles.svg	stimuli_distractor_diamondtriangles.svg	21	yes	57	0	403
6.6.1	win	2022-12-22	15:49:58	15:54:43	283690	5dcca2db88381e92c96b9ac5	37318188	1	main_z	7	main_z	85	stimuli_target_trianglesquares.svg	stimuli_distractor_trianglediamonds.svg	18	yes	44	1	415
6.6.1	win	2022-12-22	15:49:58	15:54:43	283690	5dcca2db88381e92c96b9ac5	37318188	1	main_z	7	advance_on_keypress_ZEE	86	stimuli_target_trianglesquares.svg	stimuli_distractor_trianglediamonds.svg	18	yes	57	0	387
6.6.1	win	2022-12-22	15:49:58	15:54:45	285177	5dcca2db88381e92c96b9ac5	37318188	1	main_z	7	main_z	87	stimuli_distractor_diamondtriangles.svg	stimuli_target_trianglesquares.svg	30	yes	44	1	443
6.6.1	win	2022-12-22	15:49:58	15:54:45	285177	5dcca2db88381e92c96b9ac5	37318188	1	main_z	7	advance_on_keypress_ZEE	88	stimuli_distractor_diamondtriangles.svg	stimuli_target_trianglesquares.svg	30	yes	57	0	383
6.6.1	win	2022-12-22	15:49:58	15:54:46	286665	5dcca2db88381e92c96b9ac5	37318188	1	main_z	7	main_z	89	stimuli_target_circletriangles.svg	stimuli_distractor_diamondtriangles.svg	5	yes	44	1	457
6.6.1	win	2022-12-22	15:49:58	15:54:46	286665	5dcca2db88381e92c96b9ac5	37318188	1	main_z	7	advance_on_keypress_ZEE	90	stimuli_target_circletriangles.svg	stimuli_distractor_diamondtriangles.svg	5	yes	57	0	387
6.6.1	win	2022-12-22	15:49:58	15:54:48	288055	5dcca2db88381e92c96b9ac5	37318188	1	main_z	7	main_z	91	stimuli_distractor_diamondtriangles.svg	stimuli_target_circlediamonds.svg	14	yes	44	1	351
6.6.1	win	2022-12-22	15:49:58	15:54:48	288055	5dcca2db88381e92c96b9ac5	37318188	1	main_z	7	advance_on_keypress_ZEE	92	stimuli_distractor_diamondtriangles.svg	stimuli_target_circlediamonds.svg	14	yes	57	0	521
6.6.1	win	2022-12-22	15:49:58	15:54:51	291221	5dcca2db88381e92c96b9ac5	37318188	1	main_z	7	main_z	93	stimuli_distractor_diamondtriangles.svg	stimuli_target_squarediamonds.svg	16	yes	0	0	2000
6.6.1	win	2022-12-22	15:49:58	15:54:51	291221	5dcca2db88381e92c96b9ac5	37318188	1	main_z	7	advance_on_keypress_ZEE	94	stimuli_distractor_diamondtriangles.svg	stimuli_target_squarediamonds.svg	16	yes	57	0	299
6.6.1	win	2022-12-22	15:49:58	15:54:52	292540	5dcca2db88381e92c96b9ac5	37318188	1	main_z	7	main_z	95	stimuli_distractor_diamondtriangles.svg	stimuli_target_diamondcircles.svg	31	yes	44	1	364
6.6.1	win	2022-12-22	15:49:58	15:54:52	292540	5dcca2db88381e92c96b9ac5	37318188	1	main_z	7	advance_on_keypress_ZEE	96	stimuli_distractor_diamondtriangles.svg	stimuli_target_diamondcircles.svg	31	yes	57	0	365
6.6.1	win	2022-12-22	15:49:58	15:54:53	293966	5dcca2db88381e92c96b9ac5	37318188	1	main_z	7	main_z	97	stimuli_target_squarediamonds.svg	stimuli_distractor_trianglediamonds.svg	4	yes	44	1	412
6.6.1	win	2022-12-22	15:49:58	15:54:53	293966	5dcca2db88381e92c96b9ac5	37318188	1	main_z	7	advance_on_keypress_ZEE	98	stimuli_target_squarediamonds.svg	stimuli_distractor_trianglediamonds.svg	4	yes	57	0	339
6.6.1	win	2022-12-22	15:49:58	15:54:55	295361	5dcca2db88381e92c96b9ac5	37318188	1	main_z	7	main_z	99	stimuli_distractor_diamondtriangles.svg	stimuli_target_trianglecircles.svg	29	yes	44	1	402
6.6.1	win	2022-12-22	15:49:58	15:54:55	295361	5dcca2db88381e92c96b9ac5	37318188	1	main_z	7	advance_on_keypress_ZEE	100	stimuli_distractor_diamondtriangles.svg	stimuli_target_trianglecircles.svg	29	yes	57	0	387
6.6.1	win	2022-12-22	15:49:58	15:54:56	296748	5dcca2db88381e92c96b9ac5	37318188	1	main_z	7	main_z	101	stimuli_target_diamondcircles.svg	stimuli_distractor_trianglediamonds.svg	19	yes	44	1	353
6.6.1	win	2022-12-22	15:49:58	15:54:56	296748	5dcca2db88381e92c96b9ac5	37318188	1	main_z	7	advance_on_keypress_ZEE	102	stimuli_target_diamondcircles.svg	stimuli_distractor_trianglediamonds.svg	19	yes	57	0	319
6.6.1	win	2022-12-22	15:49:58	15:54:58	298053	5dcca2db88381e92c96b9ac5	37318188	1	main_z	7	main_z	103	stimuli_target_circlediamonds.svg	stimuli_distractor_diamondtriangles.svg	6	yes	44	1	337
6.6.1	win	2022-12-22	15:49:58	15:54:58	298053	5dcca2db88381e92c96b9ac5	37318188	1	main_z	7	advance_on_keypress_ZEE	104	stimuli_target_circlediamonds.svg	stimuli_distractor_diamondtriangles.svg	6	yes	57	0	411
6.6.1	win	2022-12-22	15:49:58	15:55:01	301109	5dcca2db88381e92c96b9ac5	37318188	1	main_z	7	main_z	105	stimuli_distractor_diamondtriangles.svg	stimuli_distractor_trianglediamonds.svg	38	no	0	1	2000
6.6.1	win	2022-12-22	15:49:58	15:55:01	301109	5dcca2db88381e92c96b9ac5	37318188	1	main_z	7	advance_on_keypress_ZEE	106	stimuli_distractor_diamondtriangles.svg	stimuli_distractor_trianglediamonds.svg	38	no	57	0	424
6.6.1	win	2022-12-22	15:49:58	15:55:02	302588	5dcca2db88381e92c96b9ac5	37318188	1	main_z	7	main_z	107	stimuli_distractor_trianglediamonds.svg	stimuli_target_trianglecircles.svg	25	yes	44	1	397
6.6.1	win	2022-12-22	15:49:58	15:55:02	302588	5dcca2db88381e92c96b9ac5	37318188	1	main_z	7	advance_on_keypress_ZEE	108	stimuli_distractor_trianglediamonds.svg	stimuli_target_trianglecircles.svg	25	yes	57	0	402
6.6.1	win	2022-12-22	15:49:58	15:55:04	304203	5dcca2db88381e92c96b9ac5	37318188	1	main_z	7	main_z	109	stimuli_distractor_trianglediamonds.svg	stimuli_target_circletriangles.svg	9	yes	44	1	562
6.6.1	win	2022-12-22	15:49:58	15:55:04	304203	5dcca2db88381e92c96b9ac5	37318188	1	main_z	7	advance_on_keypress_ZEE	110	stimuli_distractor_trianglediamonds.svg	stimuli_target_circletriangles.svg	9	yes	57	0	569
6.6.1	win	2022-12-22	15:49:58	15:55:07	307421	5dcca2db88381e92c96b9ac5	37318188	1	main_z	7	main_z	111	stimuli_distractor_trianglediamonds.svg	stimuli_distractor_diamondtriangles.svg	35	no	0	1	2000
6.6.1	win	2022-12-22	15:49:58	15:55:07	307421	5dcca2db88381e92c96b9ac5	37318188	1	main_z	7	advance_on_keypress_ZEE	112	stimuli_distractor_trianglediamonds.svg	stimuli_distractor_diamondtriangles.svg	35	no	57	0	291
6.6.1	win	2022-12-22	15:49:58	15:55:08	308712	5dcca2db88381e92c96b9ac5	37318188	1	main_z	7	main_z	113	stimuli_target_squarediamonds.svg	stimuli_distractor_diamondtriangles.svg	8	yes	44	1	358
6.6.1	win	2022-12-22	15:49:58	15:55:08	308712	5dcca2db88381e92c96b9ac5	37318188	1	main_z	7	advance_on_keypress_ZEE	114	stimuli_target_squarediamonds.svg	stimuli_distractor_diamondtriangles.svg	8	yes	57	0	382
6.6.1	win	2022-12-22	15:49:58	15:55:10	310154	5dcca2db88381e92c96b9ac5	37318188	1	main_z	7	main_z	115	stimuli_target_diamondsquares.svg	stimuli_distractor_diamondtriangles.svg	24	yes	44	1	408
6.6.1	win	2022-12-22	15:49:58	15:55:10	310154	5dcca2db88381e92c96b9ac5	37318188	1	main_z	7	advance_on_keypress_ZEE	116	stimuli_target_diamondsquares.svg	stimuli_distractor_diamondtriangles.svg	24	yes	57	0	615
6.6.1	win	2022-12-22	15:49:58	15:55:12	312537	5dcca2db88381e92c96b9ac5	37318188	1	main_z	7	main_z	117	stimuli_distractor_trianglediamonds.svg	stimuli_target_trianglesquares.svg	26	yes	44	1	1120
6.6.1	win	2022-12-22	15:49:58	15:55:12	312537	5dcca2db88381e92c96b9ac5	37318188	1	main_z	7	advance_on_keypress_ZEE	118	stimuli_distractor_trianglediamonds.svg	stimuli_target_trianglesquares.svg	26	yes	57	0	838
6.6.1	win	2022-12-22	15:49:58	15:55:14	314418	5dcca2db88381e92c96b9ac5	37318188	1	main_z	7	main_z	119	stimuli_target_trianglesquares.svg	stimuli_distractor_diamondtriangles.svg	22	yes	44	1	376
6.6.1	win	2022-12-22	15:49:58	15:55:14	314418	5dcca2db88381e92c96b9ac5	37318188	1	main_z	7	advance_on_keypress_ZEE	120	stimuli_target_trianglesquares.svg	stimuli_distractor_diamondtriangles.svg	22	yes	57	0	364
6.6.1	win	2022-12-22	15:49:58	15:55:15	315855	5dcca2db88381e92c96b9ac5	37318188	1	main_z	7	main_z	121	stimuli_distractor_trianglediamonds.svg	stimuli_target_diamondcircles.svg	27	yes	44	1	414
6.6.1	win	2022-12-22	15:49:58	15:55:15	315855	5dcca2db88381e92c96b9ac5	37318188	1	main_z	7	advance_on_keypress_ZEE	122	stimuli_distractor_trianglediamonds.svg	stimuli_target_diamondcircles.svg	27	yes	57	0	300
6.6.1	win	2022-12-22	15:49:58	15:55:17	317184	5dcca2db88381e92c96b9ac5	37318188	1	main_z	7	main_z	123	stimuli_target_diamondcircles.svg	stimuli_distractor_diamondtriangles.svg	23	yes	44	1	376
6.6.1	win	2022-12-22	15:49:58	15:55:17	317184	5dcca2db88381e92c96b9ac5	37318188	1	main_z	7	advance_on_keypress_ZEE	124	stimuli_target_diamondcircles.svg	stimuli_distractor_diamondtriangles.svg	23	yes	57	0	343
6.6.1	win	2022-12-22	15:49:58	15:55:20	320183	5dcca2db88381e92c96b9ac5	37318188	1	main_z	7	main_z	125	stimuli_distractor_diamondtriangles.svg	stimuli_target_circletriangles.svg	13	yes	0	0	2000
6.6.1	win	2022-12-22	15:49:58	15:55:20	320183	5dcca2db88381e92c96b9ac5	37318188	1	main_z	7	advance_on_keypress_ZEE	126	stimuli_distractor_diamondtriangles.svg	stimuli_target_circletriangles.svg	13	yes	57	0	295
6.6.1	win	2022-12-22	15:49:58	15:55:21	321599	5dcca2db88381e92c96b9ac5	37318188	1	main_z	7	main_z	127	stimuli_target_squaretriangles.svg	stimuli_distractor_trianglediamonds.svg	3	yes	44	1	471
6.6.1	win	2022-12-22	15:49:58	15:55:21	321599	5dcca2db88381e92c96b9ac5	37318188	1	main_z	7	advance_on_keypress_ZEE	128	stimuli_target_squaretriangles.svg	stimuli_distractor_trianglediamonds.svg	3	yes	57	0	385
6.6.1	win	2022-12-22	15:49:58	15:55:23	323022	5dcca2db88381e92c96b9ac5	37318188	1	main_z	7	main_z	129	stimuli_target_trianglecircles.svg	stimuli_distractor_trianglediamonds.svg	17	yes	44	1	375
6.6.1	win	2022-12-22	15:49:58	15:55:23	323022	5dcca2db88381e92c96b9ac5	37318188	1	main_z	7	advance_on_keypress_ZEE	130	stimuli_target_trianglecircles.svg	stimuli_distractor_trianglediamonds.svg	17	yes	57	0	441
6.6.1	win	2022-12-22	15:49:58	15:55:24	324606	5dcca2db88381e92c96b9ac5	37318188	1	main_z	7	main_z	131	stimuli_target_circlediamonds.svg	stimuli_distractor_trianglediamonds.svg	2	yes	44	1	499
6.6.1	win	2022-12-22	15:49:58	15:55:24	324606	5dcca2db88381e92c96b9ac5	37318188	1	main_z	7	advance_on_keypress_ZEE	132	stimuli_target_circlediamonds.svg	stimuli_distractor_trianglediamonds.svg	2	yes	57	0	437
6.6.1	win	2022-12-22	15:49:58	15:55:26	326150	5dcca2db88381e92c96b9ac5	37318188	1	main_z	7	main_z	133	stimuli_distractor_diamondtriangles.svg	stimuli_distractor_diamondtriangles.svg	39	no	44	0	455
6.6.1	win	2022-12-22	15:49:58	15:55:26	326150	5dcca2db88381e92c96b9ac5	37318188	1	main_z	7	advance_on_keypress_ZEE	134	stimuli_distractor_diamondtriangles.svg	stimuli_distractor_diamondtriangles.svg	39	no	57	0	458
6.6.1	win	2022-12-22	15:49:58	15:55:27	327797	5dcca2db88381e92c96b9ac5	37318188	1	main_z	7	main_z	135	stimuli_target_diamondsquares.svg	stimuli_distractor_trianglediamonds.svg	20	yes	44	1	551
6.6.1	win	2022-12-22	15:49:58	15:55:27	327797	5dcca2db88381e92c96b9ac5	37318188	1	main_z	7	advance_on_keypress_ZEE	136	stimuli_target_diamondsquares.svg	stimuli_distractor_trianglediamonds.svg	20	yes	57	0	485
6.6.1	win	2022-12-22	15:49:58	15:55:29	329505	5dcca2db88381e92c96b9ac5	37318188	1	main_z	7	main_z	137	stimuli_target_circletriangles.svg	stimuli_distractor_trianglediamonds.svg	1	yes	44	1	563
6.6.1	win	2022-12-22	15:49:58	15:55:29	329505	5dcca2db88381e92c96b9ac5	37318188	1	main_z	7	advance_on_keypress_ZEE	138	stimuli_target_circletriangles.svg	stimuli_distractor_trianglediamonds.svg	1	yes	57	0	457
6.6.1	win	2022-12-22	15:49:58	15:55:32	332599	5dcca2db88381e92c96b9ac5	37318188	1	main_z	7	main_z	139	stimuli_distractor_diamondtriangles.svg	stimuli_target_squaretriangles.svg	15	yes	0	0	2000
6.6.1	win	2022-12-22	15:49:58	15:55:32	332599	5dcca2db88381e92c96b9ac5	37318188	1	main_z	7	advance_on_keypress_ZEE	140	stimuli_distractor_diamondtriangles.svg	stimuli_target_squaretriangles.svg	15	yes	57	0	307
6.6.1	win	2022-12-22	15:49:58	15:55:35	335541	5dcca2db88381e92c96b9ac5	37318188	1	main_z	7	main_z	141	stimuli_distractor_trianglediamonds.svg	stimuli_distractor_trianglediamonds.svg	34	no	0	1	2000
6.6.1	win	2022-12-22	15:49:58	15:55:35	335541	5dcca2db88381e92c96b9ac5	37318188	1	main_z	7	advance_on_keypress_ZEE	142	stimuli_distractor_trianglediamonds.svg	stimuli_distractor_trianglediamonds.svg	34	no	57	0	318
6.6.1	win	2022-12-22	15:49:58	15:55:36	336881	5dcca2db88381e92c96b9ac5	37318188	1	main_z	7	main_z	143	stimuli_distractor_trianglediamonds.svg	stimuli_target_circlediamonds.svg	10	yes	44	1	386
6.6.1	win	2022-12-22	15:49:58	15:55:36	336881	5dcca2db88381e92c96b9ac5	37318188	1	main_z	7	advance_on_keypress_ZEE	144	stimuli_distractor_trianglediamonds.svg	stimuli_target_circlediamonds.svg	10	yes	57	0	565
6.6.1	win	2022-12-22	15:49:58	15:55:40	340099	5dcca2db88381e92c96b9ac5	37318188	1	main_z	7	main_z	145	stimuli_distractor_trianglediamonds.svg	stimuli_target_squarediamonds.svg	12	yes	0	0	2000
6.6.1	win	2022-12-22	15:49:58	15:55:40	340099	5dcca2db88381e92c96b9ac5	37318188	1	main_z	7	advance_on_keypress_ZEE	146	stimuli_distractor_trianglediamonds.svg	stimuli_target_squarediamonds.svg	12	yes	57	0	267
6.6.1	win	2022-12-22	15:49:58	15:55:43	343020	5dcca2db88381e92c96b9ac5	37318188	1	main_z	7	main_z	147	stimuli_distractor_trianglediamonds.svg	stimuli_distractor_diamondtriangles.svg	36	no	0	1	2000
6.6.1	win	2022-12-22	15:49:58	15:55:43	343020	5dcca2db88381e92c96b9ac5	37318188	1	main_z	7	advance_on_keypress_ZEE	148	stimuli_distractor_trianglediamonds.svg	stimuli_distractor_diamondtriangles.svg	36	no	57	0	309
6.6.1	win	2022-12-22	15:49:58	15:55:44	344458	5dcca2db88381e92c96b9ac5	37318188	1	main_z	7	main_z	149	stimuli_target_squaretriangles.svg	stimuli_distractor_diamondtriangles.svg	7	yes	44	1	475
6.6.1	win	2022-12-22	15:49:58	15:55:44	344458	5dcca2db88381e92c96b9ac5	37318188	1	main_z	7	advance_on_keypress_ZEE	150	stimuli_target_squaretriangles.svg	stimuli_distractor_diamondtriangles.svg	7	yes	57	0	438
6.6.1	win	2022-12-22	15:49:58	15:55:47	347545	5dcca2db88381e92c96b9ac5	37318188	1	main_z	7	main_z	151	stimuli_distractor_trianglediamonds.svg	stimuli_distractor_trianglediamonds.svg	33	no	0	1	2000
6.6.1	win	2022-12-22	15:49:58	15:55:47	347545	5dcca2db88381e92c96b9ac5	37318188	1	main_z	7	advance_on_keypress_ZEE	152	stimuli_distractor_trianglediamonds.svg	stimuli_distractor_trianglediamonds.svg	33	no	57	0	484
6.6.1	win	2022-12-22	15:49:58	15:55:50	350674	5dcca2db88381e92c96b9ac5	37318188	1	main_z	7	main_z	153	stimuli_distractor_diamondtriangles.svg	stimuli_distractor_trianglediamonds.svg	37	no	0	1	2000
6.6.1	win	2022-12-22	15:49:58	15:55:50	350674	5dcca2db88381e92c96b9ac5	37318188	1	main_z	7	advance_on_keypress_ZEE	154	stimuli_distractor_diamondtriangles.svg	stimuli_distractor_trianglediamonds.svg	37	no	57	0	287
6.6.1	win	2022-12-22	15:49:58	15:55:53	353620	5dcca2db88381e92c96b9ac5	37318188	1	main_z	7	main_z	155	stimuli_distractor_trianglediamonds.svg	stimuli_target_diamondsquares.svg	28	yes	0	0	2000
6.6.1	win	2022-12-22	15:49:58	15:55:53	353620	5dcca2db88381e92c96b9ac5	37318188	1	main_z	7	advance_on_keypress_ZEE	156	stimuli_distractor_trianglediamonds.svg	stimuli_target_diamondsquares.svg	28	yes	57	0	452
6.6.1	win	2022-12-22	15:49:58	15:55:56	356732	5dcca2db88381e92c96b9ac5	37318188	1	main_z	7	main_z	157	stimuli_distractor_diamondtriangles.svg	stimuli_distractor_diamondtriangles.svg	40	no	0	1	2000
6.6.1	win	2022-12-22	15:49:58	15:55:56	356732	5dcca2db88381e92c96b9ac5	37318188	1	main_z	7	advance_on_keypress_ZEE	158	stimuli_distractor_diamondtriangles.svg	stimuli_distractor_diamondtriangles.svg	40	no	57	0	376
6.6.1	win	2022-12-22	15:49:58	15:55:58	358563	5dcca2db88381e92c96b9ac5	37318188	1	main_z	7	main_z	159	stimuli_distractor_diamondtriangles.svg	stimuli_target_diamondsquares.svg	32	yes	44	1	810
6.6.1	win	2022-12-22	15:49:58	15:55:58	358563	5dcca2db88381e92c96b9ac5	37318188	1	main_z	7	advance_on_keypress_ZEE	160	stimuli_distractor_diamondtriangles.svg	stimuli_target_diamondsquares.svg	32	yes	57	0	416
6.6.1	win	2022-12-22	15:49:58	15:56:13	373246	5dcca2db88381e92c96b9ac5	37318188	1	practice_slash	9	practice_slash	1	stimuli_distractor_trianglediamonds.svg	stimuli_distractor_trianglediamonds.svg	15	no	53	0	1369
6.6.1	win	2022-12-22	15:49:58	15:56:13	373246	5dcca2db88381e92c96b9ac5	37318188	1	practice_slash	9	advance_on_keypress_SLASH	2	stimuli_distractor_trianglediamonds.svg	stimuli_distractor_trianglediamonds.svg	15	no	57	0	760
6.6.1	win	2022-12-22	15:49:58	15:56:17	377660	5dcca2db88381e92c96b9ac5	37318188	1	practice_slash	9	practice_slash	3	stimuli_distractor_diamondtriangles.svg	stimuli_target_circletriangles.svg	7	yes	0	0	2000
6.6.1	win	2022-12-22	15:49:58	15:56:17	377660	5dcca2db88381e92c96b9ac5	37318188	1	practice_slash	9	advance_on_keypress_SLASH	4	stimuli_distractor_diamondtriangles.svg	stimuli_target_circletriangles.svg	7	yes	57	0	432
6.6.1	win	2022-12-22	15:49:58	15:56:21	381752	5dcca2db88381e92c96b9ac5	37318188	1	practice_slash	9	practice_slash	5	stimuli_distractor_diamondtriangles.svg	stimuli_distractor_trianglediamonds.svg	14	no	0	1	2000
6.6.1	win	2022-12-22	15:49:58	15:56:21	381752	5dcca2db88381e92c96b9ac5	37318188	1	practice_slash	9	advance_on_keypress_SLASH	6	stimuli_distractor_diamondtriangles.svg	stimuli_distractor_trianglediamonds.svg	14	no	57	0	481
6.6.1	win	2022-12-22	15:49:58	15:56:25	385885	5dcca2db88381e92c96b9ac5	37318188	1	practice_slash	9	practice_slash	7	stimuli_target_squarediamonds.svg	stimuli_distractor_diamondtriangles.svg	2	yes	0	0	2000
6.6.1	win	2022-12-22	15:49:58	15:56:25	385885	5dcca2db88381e92c96b9ac5	37318188	1	practice_slash	9	advance_on_keypress_SLASH	8	stimuli_target_squarediamonds.svg	stimuli_distractor_diamondtriangles.svg	2	yes	57	0	498
6.6.1	win	2022-12-22	15:49:58	15:56:28	388415	5dcca2db88381e92c96b9ac5	37318188	1	practice_slash	9	practice_slash	9	stimuli_distractor_diamondtriangles.svg	stimuli_target_diamondcircles.svg	8	yes	53	1	374
6.6.1	win	2022-12-22	15:49:58	15:56:28	388415	5dcca2db88381e92c96b9ac5	37318188	1	practice_slash	9	advance_on_keypress_SLASH	10	stimuli_distractor_diamondtriangles.svg	stimuli_target_diamondcircles.svg	8	yes	57	0	737
6.6.1	win	2022-12-22	15:49:58	15:56:32	392814	5dcca2db88381e92c96b9ac5	37318188	1	practice_slash	9	practice_slash	11	stimuli_target_squarediamonds.svg	stimuli_distractor_trianglediamonds.svg	5	yes	0	0	2000
6.6.1	win	2022-12-22	15:49:58	15:56:32	392814	5dcca2db88381e92c96b9ac5	37318188	1	practice_slash	9	advance_on_keypress_SLASH	12	stimuli_target_squarediamonds.svg	stimuli_distractor_trianglediamonds.svg	5	yes	57	0	521
6.6.1	win	2022-12-22	15:49:58	15:56:35	395456	5dcca2db88381e92c96b9ac5	37318188	1	practice_slash	9	practice_slash	13	stimuli_target_circlediamonds.svg	stimuli_distractor_trianglediamonds.svg	4	yes	53	1	476
6.6.1	win	2022-12-22	15:49:58	15:56:35	395456	5dcca2db88381e92c96b9ac5	37318188	1	practice_slash	9	advance_on_keypress_SLASH	14	stimuli_target_circlediamonds.svg	stimuli_distractor_trianglediamonds.svg	4	yes	57	0	567
6.6.1	win	2022-12-22	15:49:58	15:56:38	398060	5dcca2db88381e92c96b9ac5	37318188	1	practice_slash	9	practice_slash	15	stimuli_distractor_trianglediamonds.svg	stimuli_target_circlediamonds.svg	10	yes	53	1	372
6.6.1	win	2022-12-22	15:49:58	15:56:38	398060	5dcca2db88381e92c96b9ac5	37318188	1	practice_slash	9	advance_on_keypress_SLASH	16	stimuli_distractor_trianglediamonds.svg	stimuli_target_circlediamonds.svg	10	yes	57	0	464
6.6.1	win	2022-12-22	15:49:58	15:56:40	400594	5dcca2db88381e92c96b9ac5	37318188	1	practice_slash	9	practice_slash	17	stimuli_distractor_trianglediamonds.svg	stimuli_target_squarediamonds.svg	11	yes	53	1	405
6.6.1	win	2022-12-22	15:49:58	15:56:40	400594	5dcca2db88381e92c96b9ac5	37318188	1	practice_slash	9	advance_on_keypress_SLASH	18	stimuli_distractor_trianglediamonds.svg	stimuli_target_squarediamonds.svg	11	yes	57	0	510
6.6.1	win	2022-12-22	15:49:58	15:56:43	403166	5dcca2db88381e92c96b9ac5	37318188	1	practice_slash	9	practice_slash	19	stimuli_distractor_diamondtriangles.svg	stimuli_target_trianglecircles.svg	9	yes	53	1	408
6.6.1	win	2022-12-22	15:49:58	15:56:43	403166	5dcca2db88381e92c96b9ac5	37318188	1	practice_slash	9	advance_on_keypress_SLASH	20	stimuli_distractor_diamondtriangles.svg	stimuli_target_trianglecircles.svg	9	yes	57	0	269
6.6.1	win	2022-12-22	15:49:58	15:56:46	406145	5dcca2db88381e92c96b9ac5	37318188	1	practice_slash	9	practice_slash	21	stimuli_distractor_trianglediamonds.svg	stimuli_distractor_diamondtriangles.svg	16	no	53	0	1052
6.6.1	win	2022-12-22	15:49:58	15:56:46	406145	5dcca2db88381e92c96b9ac5	37318188	1	practice_slash	9	advance_on_keypress_SLASH	22	stimuli_distractor_trianglediamonds.svg	stimuli_distractor_diamondtriangles.svg	16	no	57	0	489
6.6.1	win	2022-12-22	15:49:58	15:56:48	408764	5dcca2db88381e92c96b9ac5	37318188	1	practice_slash	9	practice_slash	23	stimuli_target_circlediamonds.svg	stimuli_distractor_diamondtriangles.svg	1	yes	53	1	468
6.6.1	win	2022-12-22	15:49:58	15:56:48	408764	5dcca2db88381e92c96b9ac5	37318188	1	practice_slash	9	advance_on_keypress_SLASH	24	stimuli_target_circlediamonds.svg	stimuli_distractor_diamondtriangles.svg	1	yes	57	0	247
6.6.1	win	2022-12-22	15:49:58	15:56:51	411052	5dcca2db88381e92c96b9ac5	37318188	1	practice_slash	9	practice_slash	25	stimuli_distractor_diamondtriangles.svg	stimuli_distractor_diamondtriangles.svg	13	no	53	0	377
6.6.1	win	2022-12-22	15:49:58	15:56:51	411052	5dcca2db88381e92c96b9ac5	37318188	1	practice_slash	9	advance_on_keypress_SLASH	26	stimuli_distractor_diamondtriangles.svg	stimuli_distractor_diamondtriangles.svg	13	no	57	0	298
6.6.1	win	2022-12-22	15:49:58	15:56:53	413391	5dcca2db88381e92c96b9ac5	37318188	1	practice_slash	9	practice_slash	27	stimuli_target_diamondsquares.svg	stimuli_distractor_trianglediamonds.svg	6	yes	53	1	402
6.6.1	win	2022-12-22	15:49:58	15:56:53	413391	5dcca2db88381e92c96b9ac5	37318188	1	practice_slash	9	advance_on_keypress_SLASH	28	stimuli_target_diamondsquares.svg	stimuli_distractor_trianglediamonds.svg	6	yes	57	0	257
6.6.1	win	2022-12-22	15:49:58	15:56:56	416325	5dcca2db88381e92c96b9ac5	37318188	1	practice_slash	9	practice_slash	29	stimuli_target_diamondsquares.svg	stimuli_distractor_diamondtriangles.svg	3	yes	53	1	1012
6.6.1	win	2022-12-22	15:49:58	15:56:56	416325	5dcca2db88381e92c96b9ac5	37318188	1	practice_slash	9	advance_on_keypress_SLASH	30	stimuli_target_diamondsquares.svg	stimuli_distractor_diamondtriangles.svg	3	yes	57	0	399
6.6.1	win	2022-12-22	15:49:58	15:56:58	418739	5dcca2db88381e92c96b9ac5	37318188	1	practice_slash	9	practice_slash	31	stimuli_distractor_trianglediamonds.svg	stimuli_target_diamondcircles.svg	12	yes	53	1	355
6.6.1	win	2022-12-22	15:49:58	15:56:58	418739	5dcca2db88381e92c96b9ac5	37318188	1	practice_slash	9	advance_on_keypress_SLASH	32	stimuli_distractor_trianglediamonds.svg	stimuli_target_diamondcircles.svg	12	yes	57	0	183
6.6.1	win	2022-12-22	15:49:58	15:57:02	422238	5dcca2db88381e92c96b9ac5	37318188	1	main_slash	11	main_slash	1	stimuli_distractor_trianglediamonds.svg	stimuli_target_trianglesquares.svg	26	yes	53	1	478
6.6.1	win	2022-12-22	15:49:58	15:57:02	422238	5dcca2db88381e92c96b9ac5	37318188	1	main_slash	11	advance_on_keypress_SLASH	2	stimuli_distractor_trianglediamonds.svg	stimuli_target_trianglesquares.svg	26	yes	57	0	636
6.6.1	win	2022-12-22	15:49:58	15:57:04	424065	5dcca2db88381e92c96b9ac5	37318188	1	main_slash	11	main_slash	3	stimuli_target_circlediamonds.svg	stimuli_distractor_diamondtriangles.svg	6	yes	53	1	555
6.6.1	win	2022-12-22	15:49:58	15:57:04	424065	5dcca2db88381e92c96b9ac5	37318188	1	main_slash	11	advance_on_keypress_SLASH	4	stimuli_target_circlediamonds.svg	stimuli_distractor_diamondtriangles.svg	6	yes	57	0	540
6.6.1	win	2022-12-22	15:49:58	15:57:05	425668	5dcca2db88381e92c96b9ac5	37318188	1	main_slash	11	main_slash	5	stimuli_distractor_trianglediamonds.svg	stimuli_target_circletriangles.svg	9	yes	53	1	421
6.6.1	win	2022-12-22	15:49:58	15:57:05	425668	5dcca2db88381e92c96b9ac5	37318188	1	main_slash	11	advance_on_keypress_SLASH	6	stimuli_distractor_trianglediamonds.svg	stimuli_target_circletriangles.svg	9	yes	57	0	611
6.6.1	win	2022-12-22	15:49:58	15:57:08	428935	5dcca2db88381e92c96b9ac5	37318188	1	main_slash	11	main_slash	7	stimuli_distractor_trianglediamonds.svg	stimuli_distractor_diamondtriangles.svg	35	no	0	1	2000
6.6.1	win	2022-12-22	15:49:58	15:57:08	428935	5dcca2db88381e92c96b9ac5	37318188	1	main_slash	11	advance_on_keypress_SLASH	8	stimuli_distractor_trianglediamonds.svg	stimuli_distractor_diamondtriangles.svg	35	no	57	0	301
6.6.1	win	2022-12-22	15:49:58	15:57:10	430198	5dcca2db88381e92c96b9ac5	37318188	1	main_slash	11	main_slash	9	stimuli_distractor_diamondtriangles.svg	stimuli_target_trianglecircles.svg	29	yes	53	1	317
6.6.1	win	2022-12-22	15:49:58	15:57:10	430198	5dcca2db88381e92c96b9ac5	37318188	1	main_slash	11	advance_on_keypress_SLASH	10	stimuli_distractor_diamondtriangles.svg	stimuli_target_trianglecircles.svg	29	yes	57	0	497
6.6.1	win	2022-12-22	15:49:58	15:57:13	433331	5dcca2db88381e92c96b9ac5	37318188	1	main_slash	11	main_slash	11	stimuli_distractor_trianglediamonds.svg	stimuli_target_squaretriangles.svg	11	yes	0	0	2000
6.6.1	win	2022-12-22	15:49:58	15:57:13	433331	5dcca2db88381e92c96b9ac5	37318188	1	main_slash	11	advance_on_keypress_SLASH	12	stimuli_distractor_trianglediamonds.svg	stimuli_target_squaretriangles.svg	11	yes	57	0	539
6.6.1	win	2022-12-22	15:49:58	15:57:15	435444	5dcca2db88381e92c96b9ac5	37318188	1	main_slash	11	main_slash	13	stimuli_distractor_trianglediamonds.svg	stimuli_distractor_trianglediamonds.svg	33	no	53	0	921
6.6.1	win	2022-12-22	15:49:58	15:57:15	435444	5dcca2db88381e92c96b9ac5	37318188	1	main_slash	11	advance_on_keypress_SLASH	14	stimuli_distractor_trianglediamonds.svg	stimuli_distractor_trianglediamonds.svg	33	no	57	0	841
6.6.1	win	2022-12-22	15:49:58	15:57:17	437378	5dcca2db88381e92c96b9ac5	37318188	1	main_slash	11	main_slash	15	stimuli_distractor_diamondtriangles.svg	stimuli_target_diamondcircles.svg	31	yes	53	1	444
6.6.1	win	2022-12-22	15:49:58	15:57:17	437378	5dcca2db88381e92c96b9ac5	37318188	1	main_slash	11	advance_on_keypress_SLASH	16	stimuli_distractor_diamondtriangles.svg	stimuli_target_diamondcircles.svg	31	yes	57	0	443
6.6.1	win	2022-12-22	15:49:58	15:57:18	438881	5dcca2db88381e92c96b9ac5	37318188	1	main_slash	11	main_slash	17	stimuli_target_trianglesquares.svg	stimuli_distractor_diamondtriangles.svg	22	yes	53	1	422
6.6.1	win	2022-12-22	15:49:58	15:57:18	438881	5dcca2db88381e92c96b9ac5	37318188	1	main_slash	11	advance_on_keypress_SLASH	18	stimuli_target_trianglesquares.svg	stimuli_distractor_diamondtriangles.svg	22	yes	57	0	481
6.6.1	win	2022-12-22	15:49:58	15:57:20	440386	5dcca2db88381e92c96b9ac5	37318188	1	main_slash	11	main_slash	19	stimuli_distractor_diamondtriangles.svg	stimuli_target_trianglesquares.svg	30	yes	53	1	389
6.6.1	win	2022-12-22	15:49:58	15:57:20	440386	5dcca2db88381e92c96b9ac5	37318188	1	main_slash	11	advance_on_keypress_SLASH	20	stimuli_distractor_diamondtriangles.svg	stimuli_target_trianglesquares.svg	30	yes	57	0	384
6.6.1	win	2022-12-22	15:49:58	15:57:21	441752	5dcca2db88381e92c96b9ac5	37318188	1	main_slash	11	main_slash	21	stimuli_target_diamondcircles.svg	stimuli_distractor_diamondtriangles.svg	23	yes	53	1	334
6.6.1	win	2022-12-22	15:49:58	15:57:21	441752	5dcca2db88381e92c96b9ac5	37318188	1	main_slash	11	advance_on_keypress_SLASH	22	stimuli_target_diamondcircles.svg	stimuli_distractor_diamondtriangles.svg	23	yes	57	0	387
6.6.1	win	2022-12-22	15:49:58	15:57:24	444793	5dcca2db88381e92c96b9ac5	37318188	1	main_slash	11	main_slash	23	stimuli_distractor_trianglediamonds.svg	stimuli_distractor_trianglediamonds.svg	34	no	0	1	2000
6.6.1	win	2022-12-22	15:49:58	15:57:24	444793	5dcca2db88381e92c96b9ac5	37318188	1	main_slash	11	advance_on_keypress_SLASH	24	stimuli_distractor_trianglediamonds.svg	stimuli_distractor_trianglediamonds.svg	34	no	57	0	403
6.6.1	win	2022-12-22	15:49:58	15:57:26	446565	5dcca2db88381e92c96b9ac5	37318188	1	main_slash	11	main_slash	25	stimuli_distractor_trianglediamonds.svg	stimuli_target_diamondsquares.svg	28	yes	53	1	717
6.6.1	win	2022-12-22	15:49:58	15:57:26	446565	5dcca2db88381e92c96b9ac5	37318188	1	main_slash	11	advance_on_keypress_SLASH	26	stimuli_distractor_trianglediamonds.svg	stimuli_target_diamondsquares.svg	28	yes	57	0	498
6.6.1	win	2022-12-22	15:49:58	15:57:28	448151	5dcca2db88381e92c96b9ac5	37318188	1	main_slash	11	main_slash	27	stimuli_target_squaretriangles.svg	stimuli_distractor_trianglediamonds.svg	3	yes	53	1	442
6.6.1	win	2022-12-22	15:49:58	15:57:28	448151	5dcca2db88381e92c96b9ac5	37318188	1	main_slash	11	advance_on_keypress_SLASH	28	stimuli_target_squaretriangles.svg	stimuli_distractor_trianglediamonds.svg	3	yes	57	0	422
6.6.1	win	2022-12-22	15:49:58	15:57:29	449565	5dcca2db88381e92c96b9ac5	37318188	1	main_slash	11	main_slash	29	stimuli_distractor_diamondtriangles.svg	stimuli_target_circletriangles.svg	13	yes	53	1	360
6.6.1	win	2022-12-22	15:49:58	15:57:29	449565	5dcca2db88381e92c96b9ac5	37318188	1	main_slash	11	advance_on_keypress_SLASH	30	stimuli_distractor_diamondtriangles.svg	stimuli_target_circletriangles.svg	13	yes	57	0	618
6.6.1	win	2022-12-22	15:49:58	15:57:32	452826	5dcca2db88381e92c96b9ac5	37318188	1	main_slash	11	main_slash	31	stimuli_distractor_trianglediamonds.svg	stimuli_target_squarediamonds.svg	12	yes	0	0	2000
6.6.1	win	2022-12-22	15:49:58	15:57:32	452826	5dcca2db88381e92c96b9ac5	37318188	1	main_slash	11	advance_on_keypress_SLASH	32	stimuli_distractor_trianglediamonds.svg	stimuli_target_squarediamonds.svg	12	yes	57	0	325
6.6.1	win	2022-12-22	15:49:58	15:57:34	454166	5dcca2db88381e92c96b9ac5	37318188	1	main_slash	11	main_slash	33	stimuli_distractor_diamondtriangles.svg	stimuli_distractor_trianglediamonds.svg	38	no	53	0	358
6.6.1	win	2022-12-22	15:49:58	15:57:34	454166	5dcca2db88381e92c96b9ac5	37318188	1	main_slash	11	advance_on_keypress_SLASH	34	stimuli_distractor_diamondtriangles.svg	stimuli_distractor_trianglediamonds.svg	38	no	57	0	632
6.6.1	win	2022-12-22	15:49:58	15:57:35	455778	5dcca2db88381e92c96b9ac5	37318188	1	main_slash	11	main_slash	35	stimuli_target_trianglecircles.svg	stimuli_distractor_diamondtriangles.svg	21	yes	53	1	336
6.6.1	win	2022-12-22	15:49:58	15:57:35	455778	5dcca2db88381e92c96b9ac5	37318188	1	main_slash	11	advance_on_keypress_SLASH	36	stimuli_target_trianglecircles.svg	stimuli_distractor_diamondtriangles.svg	21	yes	57	0	394
6.6.1	win	2022-12-22	15:49:58	15:57:37	457432	5dcca2db88381e92c96b9ac5	37318188	1	main_slash	11	main_slash	37	stimuli_distractor_trianglediamonds.svg	stimuli_target_circlediamonds.svg	10	yes	53	1	615
6.6.1	win	2022-12-22	15:49:58	15:57:37	457432	5dcca2db88381e92c96b9ac5	37318188	1	main_slash	11	advance_on_keypress_SLASH	38	stimuli_distractor_trianglediamonds.svg	stimuli_target_circlediamonds.svg	10	yes	57	0	528
6.6.1	win	2022-12-22	15:49:58	15:57:39	459015	5dcca2db88381e92c96b9ac5	37318188	1	main_slash	11	main_slash	39	stimuli_target_squarediamonds.svg	stimuli_distractor_diamondtriangles.svg	8	yes	53	1	418
6.6.1	win	2022-12-22	15:49:58	15:57:39	459015	5dcca2db88381e92c96b9ac5	37318188	1	main_slash	11	advance_on_keypress_SLASH	40	stimuli_target_squarediamonds.svg	stimuli_distractor_diamondtriangles.svg	8	yes	57	0	423
6.6.1	win	2022-12-22	15:49:58	15:57:40	460448	5dcca2db88381e92c96b9ac5	37318188	1	main_slash	11	main_slash	41	stimuli_target_diamondsquares.svg	stimuli_distractor_trianglediamonds.svg	20	yes	53	1	360
6.6.1	win	2022-12-22	15:49:58	15:57:40	460448	5dcca2db88381e92c96b9ac5	37318188	1	main_slash	11	advance_on_keypress_SLASH	42	stimuli_target_diamondsquares.svg	stimuli_distractor_trianglediamonds.svg	20	yes	57	0	422
6.6.1	win	2022-12-22	15:49:58	15:57:41	461808	5dcca2db88381e92c96b9ac5	37318188	1	main_slash	11	main_slash	43	stimuli_target_trianglecircles.svg	stimuli_distractor_trianglediamonds.svg	17	yes	53	1	291
6.6.1	win	2022-12-22	15:49:58	15:57:41	461808	5dcca2db88381e92c96b9ac5	37318188	1	main_slash	11	advance_on_keypress_SLASH	44	stimuli_target_trianglecircles.svg	stimuli_distractor_trianglediamonds.svg	17	yes	57	0	416
6.6.1	win	2022-12-22	15:49:58	15:57:43	463449	5dcca2db88381e92c96b9ac5	37318188	1	main_slash	11	main_slash	45	stimuli_target_circlediamonds.svg	stimuli_distractor_trianglediamonds.svg	2	yes	53	1	586
6.6.1	win	2022-12-22	15:49:58	15:57:43	463449	5dcca2db88381e92c96b9ac5	37318188	1	main_slash	11	advance_on_keypress_SLASH	46	stimuli_target_circlediamonds.svg	stimuli_distractor_trianglediamonds.svg	2	yes	57	0	470
6.6.1	win	2022-12-22	15:49:58	15:57:46	466567	5dcca2db88381e92c96b9ac5	37318188	1	main_slash	11	main_slash	47	stimuli_distractor_diamondtriangles.svg	stimuli_distractor_diamondtriangles.svg	39	no	0	1	2000
6.6.1	win	2022-12-22	15:49:58	15:57:46	466567	5dcca2db88381e92c96b9ac5	37318188	1	main_slash	11	advance_on_keypress_SLASH	48	stimuli_distractor_diamondtriangles.svg	stimuli_distractor_diamondtriangles.svg	39	no	57	0	283
6.6.1	win	2022-12-22	15:49:58	15:57:47	467949	5dcca2db88381e92c96b9ac5	37318188	1	main_slash	11	main_slash	49	stimuli_target_trianglesquares.svg	stimuli_distractor_trianglediamonds.svg	18	yes	53	1	457
6.6.1	win	2022-12-22	15:49:58	15:57:47	467949	5dcca2db88381e92c96b9ac5	37318188	1	main_slash	11	advance_on_keypress_SLASH	50	stimuli_target_trianglesquares.svg	stimuli_distractor_trianglediamonds.svg	18	yes	57	0	780
6.6.1	win	2022-12-22	15:49:58	15:57:50	470683	5dcca2db88381e92c96b9ac5	37318188	1	main_slash	11	main_slash	51	stimuli_target_circletriangles.svg	stimuli_distractor_diamondtriangles.svg	5	yes	53	1	1312
6.6.1	win	2022-12-22	15:49:58	15:57:50	470683	5dcca2db88381e92c96b9ac5	37318188	1	main_slash	11	advance_on_keypress_SLASH	52	stimuli_target_circletriangles.svg	stimuli_distractor_diamondtriangles.svg	5	yes	57	0	443
6.6.1	win	2022-12-22	15:49:58	15:57:53	473767	5dcca2db88381e92c96b9ac5	37318188	1	main_slash	11	main_slash	53	stimuli_distractor_diamondtriangles.svg	stimuli_target_squarediamonds.svg	16	yes	0	0	2000
6.6.1	win	2022-12-22	15:49:58	15:57:53	473767	5dcca2db88381e92c96b9ac5	37318188	1	main_slash	11	advance_on_keypress_SLASH	54	stimuli_distractor_diamondtriangles.svg	stimuli_target_squarediamonds.svg	16	yes	57	0	316
6.6.1	win	2022-12-22	15:49:58	15:57:55	475172	5dcca2db88381e92c96b9ac5	37318188	1	main_slash	11	main_slash	55	stimuli_distractor_trianglediamonds.svg	stimuli_target_diamondcircles.svg	27	yes	53	1	442
6.6.1	win	2022-12-22	15:49:58	15:57:55	475172	5dcca2db88381e92c96b9ac5	37318188	1	main_slash	11	advance_on_keypress_SLASH	56	stimuli_distractor_trianglediamonds.svg	stimuli_target_diamondcircles.svg	27	yes	57	0	436
6.6.1	win	2022-12-22	15:49:58	15:57:56	476608	5dcca2db88381e92c96b9ac5	37318188	1	main_slash	11	main_slash	57	stimuli_target_diamondcircles.svg	stimuli_distractor_trianglediamonds.svg	19	yes	53	1	358
6.6.1	win	2022-12-22	15:49:58	15:57:56	476608	5dcca2db88381e92c96b9ac5	37318188	1	main_slash	11	advance_on_keypress_SLASH	58	stimuli_target_diamondcircles.svg	stimuli_distractor_trianglediamonds.svg	19	yes	57	0	358
6.6.1	win	2022-12-22	15:49:58	15:57:58	478764	5dcca2db88381e92c96b9ac5	37318188	1	main_slash	11	main_slash	59	stimuli_distractor_diamondtriangles.svg	stimuli_target_squaretriangles.svg	15	yes	53	1	1160
6.6.1	win	2022-12-22	15:49:58	15:57:58	478764	5dcca2db88381e92c96b9ac5	37318188	1	main_slash	11	advance_on_keypress_SLASH	60	stimuli_distractor_diamondtriangles.svg	stimuli_target_squaretriangles.svg	15	yes	57	0	364
6.6.1	win	2022-12-22	15:49:58	15:58:00	480377	5dcca2db88381e92c96b9ac5	37318188	1	main_slash	11	main_slash	61	stimuli_distractor_diamondtriangles.svg	stimuli_target_diamondsquares.svg	32	yes	53	1	602
6.6.1	win	2022-12-22	15:49:58	15:58:00	480377	5dcca2db88381e92c96b9ac5	37318188	1	main_slash	11	advance_on_keypress_SLASH	62	stimuli_distractor_diamondtriangles.svg	stimuli_target_diamondsquares.svg	32	yes	57	0	433
6.6.1	win	2022-12-22	15:49:58	15:58:01	481813	5dcca2db88381e92c96b9ac5	37318188	1	main_slash	11	main_slash	63	stimuli_distractor_trianglediamonds.svg	stimuli_target_trianglecircles.svg	25	yes	53	1	358
6.6.1	win	2022-12-22	15:49:58	15:58:01	481813	5dcca2db88381e92c96b9ac5	37318188	1	main_slash	11	advance_on_keypress_SLASH	64	stimuli_distractor_trianglediamonds.svg	stimuli_target_trianglecircles.svg	25	yes	57	0	430
6.6.1	win	2022-12-22	15:49:58	15:58:03	483307	5dcca2db88381e92c96b9ac5	37318188	1	main_slash	11	main_slash	65	stimuli_target_diamondsquares.svg	stimuli_distractor_diamondtriangles.svg	24	yes	53	1	406
6.6.1	win	2022-12-22	15:49:58	15:58:03	483307	5dcca2db88381e92c96b9ac5	37318188	1	main_slash	11	advance_on_keypress_SLASH	66	stimuli_target_diamondsquares.svg	stimuli_distractor_diamondtriangles.svg	24	yes	57	0	467
6.6.1	win	2022-12-22	15:49:58	15:58:04	484948	5dcca2db88381e92c96b9ac5	37318188	1	main_slash	11	main_slash	67	stimuli_target_squaretriangles.svg	stimuli_distractor_diamondtriangles.svg	7	yes	53	1	505
6.6.1	win	2022-12-22	15:49:58	15:58:04	484948	5dcca2db88381e92c96b9ac5	37318188	1	main_slash	11	advance_on_keypress_SLASH	68	stimuli_target_squaretriangles.svg	stimuli_distractor_diamondtriangles.svg	7	yes	57	0	394
6.6.1	win	2022-12-22	15:49:58	15:58:08	487988	5dcca2db88381e92c96b9ac5	37318188	1	main_slash	11	main_slash	69	stimuli_distractor_diamondtriangles.svg	stimuli_distractor_trianglediamonds.svg	37	no	0	1	2000
6.6.1	win	2022-12-22	15:49:58	15:58:08	487988	5dcca2db88381e92c96b9ac5	37318188	1	main_slash	11	advance_on_keypress_SLASH	70	stimuli_distractor_diamondtriangles.svg	stimuli_distractor_trianglediamonds.svg	37	no	57	0	48
6.6.1	win	2022-12-22	15:49:58	15:58:10	490683	5dcca2db88381e92c96b9ac5	37318188	1	main_slash	11	main_slash	71	stimuli_distractor_trianglediamonds.svg	stimuli_distractor_diamondtriangles.svg	36	no	0	1	2000
6.6.1	win	2022-12-22	15:49:58	15:58:10	490683	5dcca2db88381e92c96b9ac5	37318188	1	main_slash	11	advance_on_keypress_SLASH	72	stimuli_distractor_trianglediamonds.svg	stimuli_distractor_diamondtriangles.svg	36	no	57	0	301
6.6.1	win	2022-12-22	15:49:58	15:58:12	491996	5dcca2db88381e92c96b9ac5	37318188	1	main_slash	11	main_slash	73	stimuli_distractor_diamondtriangles.svg	stimuli_target_circlediamonds.svg	14	yes	53	1	350
6.6.1	win	2022-12-22	15:49:58	15:58:12	491996	5dcca2db88381e92c96b9ac5	37318188	1	main_slash	11	advance_on_keypress_SLASH	74	stimuli_distractor_diamondtriangles.svg	stimuli_target_circlediamonds.svg	14	yes	57	0	695
6.6.1	win	2022-12-22	15:49:58	15:58:13	493731	5dcca2db88381e92c96b9ac5	37318188	1	main_slash	11	main_slash	75	stimuli_target_circletriangles.svg	stimuli_distractor_trianglediamonds.svg	1	yes	53	1	397
6.6.1	win	2022-12-22	15:49:58	15:58:13	493731	5dcca2db88381e92c96b9ac5	37318188	1	main_slash	11	advance_on_keypress_SLASH	76	stimuli_target_circletriangles.svg	stimuli_distractor_trianglediamonds.svg	1	yes	57	0	452
6.6.1	win	2022-12-22	15:49:58	15:58:15	495210	5dcca2db88381e92c96b9ac5	37318188	1	main_slash	11	main_slash	77	stimuli_target_squarediamonds.svg	stimuli_distractor_trianglediamonds.svg	4	yes	53	1	379
6.6.1	win	2022-12-22	15:49:58	15:58:15	495210	5dcca2db88381e92c96b9ac5	37318188	1	main_slash	11	advance_on_keypress_SLASH	78	stimuli_target_squarediamonds.svg	stimuli_distractor_trianglediamonds.svg	4	yes	57	0	416
6.6.1	win	2022-12-22	15:49:58	15:58:16	496583	5dcca2db88381e92c96b9ac5	37318188	1	main_slash	11	main_slash	79	stimuli_distractor_diamondtriangles.svg	stimuli_distractor_diamondtriangles.svg	40	no	53	0	304
6.6.1	win	2022-12-22	15:49:58	15:58:16	496583	5dcca2db88381e92c96b9ac5	37318188	1	main_slash	11	advance_on_keypress_SLASH	80	stimuli_distractor_diamondtriangles.svg	stimuli_distractor_diamondtriangles.svg	40	no	57	0	614
6.6.1	win	2022-12-22	15:49:58	15:58:18	498318	5dcca2db88381e92c96b9ac5	37318188	1	main_slash	11	main_slash	81	stimuli_target_trianglecircles.svg	stimuli_distractor_diamondtriangles.svg	21	yes	53	1	468
6.6.1	win	2022-12-22	15:49:58	15:58:18	498318	5dcca2db88381e92c96b9ac5	37318188	1	main_slash	11	advance_on_keypress_SLASH	82	stimuli_target_trianglecircles.svg	stimuli_distractor_diamondtriangles.svg	21	yes	57	0	369
6.6.1	win	2022-12-22	15:49:58	15:58:19	499865	5dcca2db88381e92c96b9ac5	37318188	1	main_slash	11	main_slash	83	stimuli_target_diamondsquares.svg	stimuli_distractor_diamondtriangles.svg	24	yes	53	1	523
6.6.1	win	2022-12-22	15:49:58	15:58:19	499865	5dcca2db88381e92c96b9ac5	37318188	1	main_slash	11	advance_on_keypress_SLASH	84	stimuli_target_diamondsquares.svg	stimuli_distractor_diamondtriangles.svg	24	yes	57	0	405
6.6.1	win	2022-12-22	15:49:58	15:58:21	501265	5dcca2db88381e92c96b9ac5	37318188	1	main_slash	11	main_slash	85	stimuli_distractor_diamondtriangles.svg	stimuli_target_circlediamonds.svg	14	yes	53	1	344
6.6.1	win	2022-12-22	15:49:58	15:58:21	501265	5dcca2db88381e92c96b9ac5	37318188	1	main_slash	11	advance_on_keypress_SLASH	86	stimuli_distractor_diamondtriangles.svg	stimuli_target_circlediamonds.svg	14	yes	57	0	650
6.6.1	win	2022-12-22	15:49:58	15:58:22	502949	5dcca2db88381e92c96b9ac5	37318188	1	main_slash	11	main_slash	87	stimuli_target_circletriangles.svg	stimuli_distractor_diamondtriangles.svg	5	yes	53	1	387
6.6.1	win	2022-12-22	15:49:58	15:58:22	502949	5dcca2db88381e92c96b9ac5	37318188	1	main_slash	11	advance_on_keypress_SLASH	88	stimuli_target_circletriangles.svg	stimuli_distractor_diamondtriangles.svg	5	yes	57	0	420
6.6.1	win	2022-12-22	15:49:58	15:58:24	504597	5dcca2db88381e92c96b9ac5	37318188	1	main_slash	11	main_slash	89	stimuli_distractor_trianglediamonds.svg	stimuli_target_squarediamonds.svg	12	yes	53	1	588
6.6.1	win	2022-12-22	15:49:58	15:58:24	504597	5dcca2db88381e92c96b9ac5	37318188	1	main_slash	11	advance_on_keypress_SLASH	90	stimuli_distractor_trianglediamonds.svg	stimuli_target_squarediamonds.svg	12	yes	57	0	419
6.6.1	win	2022-12-22	15:49:58	15:58:26	505996	5dcca2db88381e92c96b9ac5	37318188	1	main_slash	11	main_slash	91	stimuli_target_trianglesquares.svg	stimuli_distractor_diamondtriangles.svg	22	yes	53	1	342
6.6.1	win	2022-12-22	15:49:58	15:58:26	505996	5dcca2db88381e92c96b9ac5	37318188	1	main_slash	11	advance_on_keypress_SLASH	92	stimuli_target_trianglesquares.svg	stimuli_distractor_diamondtriangles.svg	22	yes	57	0	457
6.6.1	win	2022-12-22	15:49:58	15:58:27	507452	5dcca2db88381e92c96b9ac5	37318188	1	main_slash	11	main_slash	93	stimuli_target_squarediamonds.svg	stimuli_distractor_diamondtriangles.svg	8	yes	53	1	344
6.6.1	win	2022-12-22	15:49:58	15:58:27	507452	5dcca2db88381e92c96b9ac5	37318188	1	main_slash	11	advance_on_keypress_SLASH	94	stimuli_target_squarediamonds.svg	stimuli_distractor_diamondtriangles.svg	8	yes	57	0	416
6.6.1	win	2022-12-22	15:49:58	15:58:28	508779	5dcca2db88381e92c96b9ac5	37318188	1	main_slash	11	main_slash	95	stimuli_distractor_trianglediamonds.svg	stimuli_target_diamondcircles.svg	27	yes	53	1	267
6.6.1	win	2022-12-22	15:49:58	15:58:28	508779	5dcca2db88381e92c96b9ac5	37318188	1	main_slash	11	advance_on_keypress_SLASH	96	stimuli_distractor_trianglediamonds.svg	stimuli_target_diamondcircles.svg	27	yes	57	0	559
6.6.1	win	2022-12-22	15:49:58	15:58:30	510278	5dcca2db88381e92c96b9ac5	37318188	1	main_slash	11	main_slash	97	stimuli_distractor_trianglediamonds.svg	stimuli_target_circlediamonds.svg	10	yes	53	1	290
6.6.1	win	2022-12-22	15:49:58	15:58:30	510278	5dcca2db88381e92c96b9ac5	37318188	1	main_slash	11	advance_on_keypress_SLASH	98	stimuli_distractor_trianglediamonds.svg	stimuli_target_circlediamonds.svg	10	yes	57	0	497
6.6.1	win	2022-12-22	15:49:58	15:58:33	513420	5dcca2db88381e92c96b9ac5	37318188	1	main_slash	11	main_slash	99	stimuli_distractor_trianglediamonds.svg	stimuli_distractor_diamondtriangles.svg	35	no	0	1	2000
6.6.1	win	2022-12-22	15:49:58	15:58:33	513420	5dcca2db88381e92c96b9ac5	37318188	1	main_slash	11	advance_on_keypress_SLASH	100	stimuli_distractor_trianglediamonds.svg	stimuli_distractor_diamondtriangles.svg	35	no	57	0	302
6.6.1	win	2022-12-22	15:49:58	15:58:34	514793	5dcca2db88381e92c96b9ac5	37318188	1	main_slash	11	main_slash	101	stimuli_distractor_trianglediamonds.svg	stimuli_target_diamondsquares.svg	28	yes	53	1	417
6.6.1	win	2022-12-22	15:49:58	15:58:34	514793	5dcca2db88381e92c96b9ac5	37318188	1	main_slash	11	advance_on_keypress_SLASH	102	stimuli_distractor_trianglediamonds.svg	stimuli_target_diamondsquares.svg	28	yes	57	0	518
6.6.1	win	2022-12-22	15:49:58	15:58:36	516262	5dcca2db88381e92c96b9ac5	37318188	1	main_slash	11	main_slash	103	stimuli_target_trianglecircles.svg	stimuli_distractor_trianglediamonds.svg	17	yes	53	1	304
6.6.1	win	2022-12-22	15:49:58	15:58:36	516262	5dcca2db88381e92c96b9ac5	37318188	1	main_slash	11	advance_on_keypress_SLASH	104	stimuli_target_trianglecircles.svg	stimuli_distractor_trianglediamonds.svg	17	yes	57	0	453
6.6.1	win	2022-12-22	15:49:58	15:58:37	517660	5dcca2db88381e92c96b9ac5	37318188	1	main_slash	11	main_slash	105	stimuli_distractor_diamondtriangles.svg	stimuli_target_squaretriangles.svg	15	yes	53	1	288
6.6.1	win	2022-12-22	15:49:58	15:58:37	517660	5dcca2db88381e92c96b9ac5	37318188	1	main_slash	11	advance_on_keypress_SLASH	106	stimuli_distractor_diamondtriangles.svg	stimuli_target_squaretriangles.svg	15	yes	57	0	928
6.6.1	win	2022-12-22	15:49:58	15:58:39	519718	5dcca2db88381e92c96b9ac5	37318188	1	main_slash	11	main_slash	107	stimuli_distractor_diamondtriangles.svg	stimuli_target_diamondsquares.svg	32	yes	53	1	480
6.6.1	win	2022-12-22	15:49:58	15:58:39	519718	5dcca2db88381e92c96b9ac5	37318188	1	main_slash	11	advance_on_keypress_SLASH	108	stimuli_distractor_diamondtriangles.svg	stimuli_target_diamondsquares.svg	32	yes	57	0	550
6.6.1	win	2022-12-22	15:49:58	15:58:42	522912	5dcca2db88381e92c96b9ac5	37318188	1	main_slash	11	main_slash	109	stimuli_distractor_diamondtriangles.svg	stimuli_distractor_diamondtriangles.svg	40	no	0	1	2000
6.6.1	win	2022-12-22	15:49:58	15:58:42	522912	5dcca2db88381e92c96b9ac5	37318188	1	main_slash	11	advance_on_keypress_SLASH	110	stimuli_distractor_diamondtriangles.svg	stimuli_distractor_diamondtriangles.svg	40	no	57	0	470
6.6.1	win	2022-12-22	15:49:58	15:58:44	524481	5dcca2db88381e92c96b9ac5	37318188	1	main_slash	11	main_slash	111	stimuli_target_circletriangles.svg	stimuli_distractor_trianglediamonds.svg	1	yes	53	1	457
6.6.1	win	2022-12-22	15:49:58	15:58:44	524481	5dcca2db88381e92c96b9ac5	37318188	1	main_slash	11	advance_on_keypress_SLASH	112	stimuli_target_circletriangles.svg	stimuli_distractor_trianglediamonds.svg	1	yes	57	0	460
6.6.1	win	2022-12-22	15:49:58	15:58:46	526152	5dcca2db88381e92c96b9ac5	37318188	1	main_slash	11	main_slash	113	stimuli_target_squarediamonds.svg	stimuli_distractor_trianglediamonds.svg	4	yes	53	1	561
6.6.1	win	2022-12-22	15:49:58	15:58:46	526152	5dcca2db88381e92c96b9ac5	37318188	1	main_slash	11	advance_on_keypress_SLASH	114	stimuli_target_squarediamonds.svg	stimuli_distractor_trianglediamonds.svg	4	yes	57	0	475
6.6.1	win	2022-12-22	15:49:58	15:58:47	527660	5dcca2db88381e92c96b9ac5	37318188	1	main_slash	11	main_slash	115	stimuli_target_squaretriangles.svg	stimuli_distractor_diamondtriangles.svg	7	yes	53	1	367
6.6.1	win	2022-12-22	15:49:58	15:58:47	527660	5dcca2db88381e92c96b9ac5	37318188	1	main_slash	11	advance_on_keypress_SLASH	116	stimuli_target_squaretriangles.svg	stimuli_distractor_diamondtriangles.svg	7	yes	57	0	443
6.6.1	win	2022-12-22	15:49:58	15:58:49	529131	5dcca2db88381e92c96b9ac5	37318188	1	main_slash	11	main_slash	117	stimuli_distractor_trianglediamonds.svg	stimuli_target_trianglesquares.svg	26	yes	53	1	383
6.6.1	win	2022-12-22	15:49:58	15:58:49	529131	5dcca2db88381e92c96b9ac5	37318188	1	main_slash	11	advance_on_keypress_SLASH	118	stimuli_distractor_trianglediamonds.svg	stimuli_target_trianglesquares.svg	26	yes	57	0	454
6.6.1	win	2022-12-22	15:49:58	15:58:52	532237	5dcca2db88381e92c96b9ac5	37318188	1	main_slash	11	main_slash	119	stimuli_distractor_diamondtriangles.svg	stimuli_distractor_diamondtriangles.svg	39	no	0	1	2000
6.6.1	win	2022-12-22	15:49:58	15:58:52	532237	5dcca2db88381e92c96b9ac5	37318188	1	main_slash	11	advance_on_keypress_SLASH	120	stimuli_distractor_diamondtriangles.svg	stimuli_distractor_diamondtriangles.svg	39	no	57	0	387
6.6.1	win	2022-12-22	15:49:58	15:58:53	533682	5dcca2db88381e92c96b9ac5	37318188	1	main_slash	11	main_slash	121	stimuli_distractor_diamondtriangles.svg	stimuli_target_diamondcircles.svg	31	yes	53	1	408
6.6.1	win	2022-12-22	15:49:58	15:58:53	533682	5dcca2db88381e92c96b9ac5	37318188	1	main_slash	11	advance_on_keypress_SLASH	122	stimuli_distractor_diamondtriangles.svg	stimuli_target_diamondcircles.svg	31	yes	57	0	426
6.6.1	win	2022-12-22	15:49:58	15:58:55	535134	5dcca2db88381e92c96b9ac5	37318188	1	main_slash	11	main_slash	123	stimuli_distractor_trianglediamonds.svg	stimuli_target_trianglecircles.svg	25	yes	53	1	378
6.6.1	win	2022-12-22	15:49:58	15:58:55	535134	5dcca2db88381e92c96b9ac5	37318188	1	main_slash	11	advance_on_keypress_SLASH	124	stimuli_distractor_trianglediamonds.svg	stimuli_target_trianglecircles.svg	25	yes	57	0	427
6.6.1	win	2022-12-22	15:49:58	15:58:57	537585	5dcca2db88381e92c96b9ac5	37318188	1	main_slash	11	main_slash	125	stimuli_distractor_trianglediamonds.svg	stimuli_target_circletriangles.svg	9	yes	53	1	1369
6.6.1	win	2022-12-22	15:49:58	15:58:57	537585	5dcca2db88381e92c96b9ac5	37318188	1	main_slash	11	advance_on_keypress_SLASH	126	stimuli_distractor_trianglediamonds.svg	stimuli_target_circletriangles.svg	9	yes	57	0	592
6.6.1	win	2022-12-22	15:49:58	15:58:59	539244	5dcca2db88381e92c96b9ac5	37318188	1	main_slash	11	main_slash	127	stimuli_target_diamondcircles.svg	stimuli_distractor_trianglediamonds.svg	19	yes	53	1	424
6.6.1	win	2022-12-22	15:49:58	15:58:59	539244	5dcca2db88381e92c96b9ac5	37318188	1	main_slash	11	advance_on_keypress_SLASH	128	stimuli_target_diamondcircles.svg	stimuli_distractor_trianglediamonds.svg	19	yes	57	0	454
6.6.1	win	2022-12-22	15:49:58	15:59:00	540782	5dcca2db88381e92c96b9ac5	37318188	1	main_slash	11	main_slash	129	stimuli_target_circlediamonds.svg	stimuli_distractor_diamondtriangles.svg	6	yes	53	1	450
6.6.1	win	2022-12-22	15:49:58	15:59:00	540782	5dcca2db88381e92c96b9ac5	37318188	1	main_slash	11	advance_on_keypress_SLASH	130	stimuli_target_circlediamonds.svg	stimuli_distractor_diamondtriangles.svg	6	yes	57	0	429
6.6.1	win	2022-12-22	15:49:58	15:59:03	543862	5dcca2db88381e92c96b9ac5	37318188	1	main_slash	11	main_slash	131	stimuli_distractor_diamondtriangles.svg	stimuli_distractor_trianglediamonds.svg	38	no	0	1	2000
6.6.1	win	2022-12-22	15:49:58	15:59:03	543862	5dcca2db88381e92c96b9ac5	37318188	1	main_slash	11	advance_on_keypress_SLASH	132	stimuli_distractor_diamondtriangles.svg	stimuli_distractor_trianglediamonds.svg	38	no	57	0	371
6.6.1	win	2022-12-22	15:49:58	15:59:05	545241	5dcca2db88381e92c96b9ac5	37318188	1	main_slash	11	main_slash	133	stimuli_target_diamondsquares.svg	stimuli_distractor_trianglediamonds.svg	20	yes	53	1	363
6.6.1	win	2022-12-22	15:49:58	15:59:05	545241	5dcca2db88381e92c96b9ac5	37318188	1	main_slash	11	advance_on_keypress_SLASH	134	stimuli_target_diamondsquares.svg	stimuli_distractor_trianglediamonds.svg	20	yes	57	0	408
6.6.1	win	2022-12-22	15:49:58	15:59:08	548299	5dcca2db88381e92c96b9ac5	37318188	1	main_slash	11	main_slash	135	stimuli_distractor_trianglediamonds.svg	stimuli_distractor_trianglediamonds.svg	33	no	0	1	2000
6.6.1	win	2022-12-22	15:49:58	15:59:08	548299	5dcca2db88381e92c96b9ac5	37318188	1	main_slash	11	advance_on_keypress_SLASH	136	stimuli_distractor_trianglediamonds.svg	stimuli_distractor_trianglediamonds.svg	33	no	57	0	325
6.6.1	win	2022-12-22	15:49:58	15:59:11	551274	5dcca2db88381e92c96b9ac5	37318188	1	main_slash	11	main_slash	137	stimuli_distractor_diamondtriangles.svg	stimuli_distractor_trianglediamonds.svg	37	no	0	1	2000
6.6.1	win	2022-12-22	15:49:58	15:59:11	551274	5dcca2db88381e92c96b9ac5	37318188	1	main_slash	11	advance_on_keypress_SLASH	138	stimuli_distractor_diamondtriangles.svg	stimuli_distractor_trianglediamonds.svg	37	no	57	0	494
6.6.1	win	2022-12-22	15:49:58	15:59:14	554420	5dcca2db88381e92c96b9ac5	37318188	1	main_slash	11	main_slash	139	stimuli_distractor_trianglediamonds.svg	stimuli_distractor_trianglediamonds.svg	34	no	0	1	2000
6.6.1	win	2022-12-22	15:49:58	15:59:14	554420	5dcca2db88381e92c96b9ac5	37318188	1	main_slash	11	advance_on_keypress_SLASH	140	stimuli_distractor_trianglediamonds.svg	stimuli_distractor_trianglediamonds.svg	34	no	57	0	333
6.6.1	win	2022-12-22	15:49:58	15:59:15	555967	5dcca2db88381e92c96b9ac5	37318188	1	main_slash	11	main_slash	141	stimuli_distractor_trianglediamonds.svg	stimuli_target_squaretriangles.svg	11	yes	53	1	581
6.6.1	win	2022-12-22	15:49:58	15:59:15	555967	5dcca2db88381e92c96b9ac5	37318188	1	main_slash	11	advance_on_keypress_SLASH	142	stimuli_distractor_trianglediamonds.svg	stimuli_target_squaretriangles.svg	11	yes	57	0	515
6.6.1	win	2022-12-22	15:49:58	15:59:19	559116	5dcca2db88381e92c96b9ac5	37318188	1	main_slash	11	main_slash	143	stimuli_distractor_diamondtriangles.svg	stimuli_target_squarediamonds.svg	16	yes	0	0	2000
6.6.1	win	2022-12-22	15:49:58	15:59:19	559116	5dcca2db88381e92c96b9ac5	37318188	1	main_slash	11	advance_on_keypress_SLASH	144	stimuli_distractor_diamondtriangles.svg	stimuli_target_squarediamonds.svg	16	yes	57	0	267
6.6.1	win	2022-12-22	15:49:58	15:59:20	560476	5dcca2db88381e92c96b9ac5	37318188	1	main_slash	11	main_slash	145	stimuli_target_squaretriangles.svg	stimuli_distractor_trianglediamonds.svg	3	yes	53	1	436
6.6.1	win	2022-12-22	15:49:58	15:59:20	560476	5dcca2db88381e92c96b9ac5	37318188	1	main_slash	11	advance_on_keypress_SLASH	146	stimuli_target_squaretriangles.svg	stimuli_distractor_trianglediamonds.svg	3	yes	57	0	550
6.6.1	win	2022-12-22	15:49:58	15:59:23	563678	5dcca2db88381e92c96b9ac5	37318188	1	main_slash	11	main_slash	147	stimuli_distractor_trianglediamonds.svg	stimuli_distractor_diamondtriangles.svg	36	no	0	1	2000
6.6.1	win	2022-12-22	15:49:58	15:59:23	563678	5dcca2db88381e92c96b9ac5	37318188	1	main_slash	11	advance_on_keypress_SLASH	148	stimuli_distractor_trianglediamonds.svg	stimuli_distractor_diamondtriangles.svg	36	no	57	0	300
6.6.1	win	2022-12-22	15:49:58	15:59:24	564955	5dcca2db88381e92c96b9ac5	37318188	1	main_slash	11	main_slash	149	stimuli_distractor_diamondtriangles.svg	stimuli_target_trianglesquares.svg	30	yes	53	1	340
6.6.1	win	2022-12-22	15:49:58	15:59:24	564955	5dcca2db88381e92c96b9ac5	37318188	1	main_slash	11	advance_on_keypress_SLASH	150	stimuli_distractor_diamondtriangles.svg	stimuli_target_trianglesquares.svg	30	yes	57	0	455
6.6.1	win	2022-12-22	15:49:58	15:59:26	566530	5dcca2db88381e92c96b9ac5	37318188	1	main_slash	11	main_slash	151	stimuli_target_trianglesquares.svg	stimuli_distractor_trianglediamonds.svg	18	yes	53	1	473
6.6.1	win	2022-12-22	15:49:58	15:59:26	566530	5dcca2db88381e92c96b9ac5	37318188	1	main_slash	11	advance_on_keypress_SLASH	152	stimuli_target_trianglesquares.svg	stimuli_distractor_trianglediamonds.svg	18	yes	57	0	374
6.6.1	win	2022-12-22	15:49:58	15:59:27	567934	5dcca2db88381e92c96b9ac5	37318188	1	main_slash	11	main_slash	153	stimuli_target_circlediamonds.svg	stimuli_distractor_trianglediamonds.svg	2	yes	53	1	382
6.6.1	win	2022-12-22	15:49:58	15:59:27	567934	5dcca2db88381e92c96b9ac5	37318188	1	main_slash	11	advance_on_keypress_SLASH	154	stimuli_target_circlediamonds.svg	stimuli_distractor_trianglediamonds.svg	2	yes	57	0	387
6.6.1	win	2022-12-22	15:49:58	15:59:29	569313	5dcca2db88381e92c96b9ac5	37318188	1	main_slash	11	main_slash	155	stimuli_distractor_diamondtriangles.svg	stimuli_target_circletriangles.svg	13	yes	53	1	352
6.6.1	win	2022-12-22	15:49:58	15:59:29	569313	5dcca2db88381e92c96b9ac5	37318188	1	main_slash	11	advance_on_keypress_SLASH	156	stimuli_distractor_diamondtriangles.svg	stimuli_target_circletriangles.svg	13	yes	57	0	407
6.6.1	win	2022-12-22	15:49:58	15:59:30	570811	5dcca2db88381e92c96b9ac5	37318188	1	main_slash	11	main_slash	157	stimuli_target_diamondcircles.svg	stimuli_distractor_diamondtriangles.svg	23	yes	53	1	429
6.6.1	win	2022-12-22	15:49:58	15:59:30	570811	5dcca2db88381e92c96b9ac5	37318188	1	main_slash	11	advance_on_keypress_SLASH	158	stimuli_target_diamondcircles.svg	stimuli_distractor_diamondtriangles.svg	23	yes	57	0	405
6.6.1	win	2022-12-22	15:49:58	15:59:32	572211	5dcca2db88381e92c96b9ac5	37318188	1	main_slash	11	main_slash	159	stimuli_distractor_diamondtriangles.svg	stimuli_target_trianglecircles.svg	29	yes	53	1	341
6.6.1	win	2022-12-22	15:49:58	15:59:32	572211	5dcca2db88381e92c96b9ac5	37318188	1	main_slash	11	advance_on_keypress_SLASH	160	stimuli_distractor_diamondtriangles.svg	stimuli_target_trianglecircles.svg	29	yes	57	0	416