build	computer.platform	date	time	timestamp	time_elapsed_ms	subject	group	session	blockcode	blocknum	trialcode	trialnum	stimulus_left	stimulus_right	stim_index	target_present	response	correct	latency
6.6.1	win	2022-12-23	09:40:06	09:47:11	414401	628de7e8ff1744a9717d7883	241071847	1	practice_slash	5	practice_slash	1	stimuli_distractor_diamondtriangles.svg	stimuli_distractor_trianglediamonds.svg	14	no	0	1	2000
6.6.1	win	2022-12-23	09:40:06	09:47:11	414401	628de7e8ff1744a9717d7883	241071847	1	practice_slash	5	advance_on_keypress_SLASH	2	stimuli_distractor_diamondtriangles.svg	stimuli_distractor_trianglediamonds.svg	14	no	57	0	6032
6.6.1	win	2022-12-23	09:40:06	09:47:20	423390	628de7e8ff1744a9717d7883	241071847	1	practice_slash	5	practice_slash	3	stimuli_distractor_trianglediamonds.svg	stimuli_target_squarediamonds.svg	11	yes	53	1	1274
6.6.1	win	2022-12-23	09:40:06	09:47:20	423390	628de7e8ff1744a9717d7883	241071847	1	practice_slash	5	advance_on_keypress_SLASH	4	stimuli_distractor_trianglediamonds.svg	stimuli_target_squarediamonds.svg	11	yes	57	0	1853
6.6.1	win	2022-12-23	09:40:06	09:47:24	427797	628de7e8ff1744a9717d7883	241071847	1	practice_slash	5	practice_slash	5	stimuli_distractor_trianglediamonds.svg	stimuli_target_circlediamonds.svg	10	yes	53	1	915
6.6.1	win	2022-12-23	09:40:06	09:47:24	427797	628de7e8ff1744a9717d7883	241071847	1	practice_slash	5	advance_on_keypress_SLASH	6	stimuli_distractor_trianglediamonds.svg	stimuli_target_circlediamonds.svg	10	yes	57	0	637
6.6.1	win	2022-12-23	09:40:06	09:47:29	432559	628de7e8ff1744a9717d7883	241071847	1	practice_slash	5	practice_slash	7	stimuli_target_diamondsquares.svg	stimuli_distractor_diamondtriangles.svg	3	yes	0	0	2000
6.6.1	win	2022-12-23	09:40:06	09:47:29	432559	628de7e8ff1744a9717d7883	241071847	1	practice_slash	5	advance_on_keypress_SLASH	8	stimuli_target_diamondsquares.svg	stimuli_distractor_diamondtriangles.svg	3	yes	57	0	1973
6.6.1	win	2022-12-23	09:40:06	09:47:34	437870	628de7e8ff1744a9717d7883	241071847	1	practice_slash	5	practice_slash	9	stimuli_distractor_diamondtriangles.svg	stimuli_target_trianglecircles.svg	9	yes	53	1	1673
6.6.1	win	2022-12-23	09:40:06	09:47:34	437870	628de7e8ff1744a9717d7883	241071847	1	practice_slash	5	advance_on_keypress_SLASH	10	stimuli_distractor_diamondtriangles.svg	stimuli_target_trianglecircles.svg	9	yes	57	0	779
6.6.1	win	2022-12-23	09:40:06	09:47:39	442559	628de7e8ff1744a9717d7883	241071847	1	practice_slash	5	practice_slash	11	stimuli_distractor_diamondtriangles.svg	stimuli_distractor_diamondtriangles.svg	13	no	0	1	2000
6.6.1	win	2022-12-23	09:40:06	09:47:39	442559	628de7e8ff1744a9717d7883	241071847	1	practice_slash	5	advance_on_keypress_SLASH	12	stimuli_distractor_diamondtriangles.svg	stimuli_distractor_diamondtriangles.svg	13	no	57	0	1960
6.6.1	win	2022-12-23	09:40:06	09:47:44	447518	628de7e8ff1744a9717d7883	241071847	1	practice_slash	5	practice_slash	13	stimuli_target_diamondsquares.svg	stimuli_distractor_trianglediamonds.svg	6	yes	53	1	1357
6.6.1	win	2022-12-23	09:40:06	09:47:44	447518	628de7e8ff1744a9717d7883	241071847	1	practice_slash	5	advance_on_keypress_SLASH	14	stimuli_target_diamondsquares.svg	stimuli_distractor_trianglediamonds.svg	6	yes	57	0	1246
6.6.1	win	2022-12-23	09:40:06	09:47:48	451882	628de7e8ff1744a9717d7883	241071847	1	practice_slash	5	practice_slash	15	stimuli_target_circlediamonds.svg	stimuli_distractor_trianglediamonds.svg	4	yes	53	1	1458
6.6.1	win	2022-12-23	09:40:06	09:47:48	451882	628de7e8ff1744a9717d7883	241071847	1	practice_slash	5	advance_on_keypress_SLASH	16	stimuli_target_circlediamonds.svg	stimuli_distractor_trianglediamonds.svg	4	yes	57	0	1033
6.6.1	win	2022-12-23	09:40:06	09:47:52	455925	628de7e8ff1744a9717d7883	241071847	1	practice_slash	5	practice_slash	17	stimuli_distractor_trianglediamonds.svg	stimuli_distractor_diamondtriangles.svg	16	no	53	0	1368
6.6.1	win	2022-12-23	09:40:06	09:47:52	455925	628de7e8ff1744a9717d7883	241071847	1	practice_slash	5	advance_on_keypress_SLASH	18	stimuli_distractor_trianglediamonds.svg	stimuli_distractor_diamondtriangles.svg	16	no	57	0	1080
6.6.1	win	2022-12-23	09:40:06	09:47:57	460165	628de7e8ff1744a9717d7883	241071847	1	practice_slash	5	practice_slash	19	stimuli_distractor_diamondtriangles.svg	stimuli_target_diamondcircles.svg	8	yes	53	1	1508
6.6.1	win	2022-12-23	09:40:06	09:47:57	460165	628de7e8ff1744a9717d7883	241071847	1	practice_slash	5	advance_on_keypress_SLASH	20	stimuli_distractor_diamondtriangles.svg	stimuli_target_diamondcircles.svg	8	yes	57	0	1221
6.6.1	win	2022-12-23	09:40:06	09:48:01	464381	628de7e8ff1744a9717d7883	241071847	1	practice_slash	5	practice_slash	21	stimuli_distractor_trianglediamonds.svg	stimuli_target_diamondcircles.svg	12	yes	53	1	1341
6.6.1	win	2022-12-23	09:40:06	09:48:01	464381	628de7e8ff1744a9717d7883	241071847	1	practice_slash	5	advance_on_keypress_SLASH	22	stimuli_distractor_trianglediamonds.svg	stimuli_target_diamondcircles.svg	12	yes	57	0	692
6.6.1	win	2022-12-23	09:40:06	09:48:05	468226	628de7e8ff1744a9717d7883	241071847	1	practice_slash	5	practice_slash	23	stimuli_target_circlediamonds.svg	stimuli_distractor_diamondtriangles.svg	1	yes	53	1	1505
6.6.1	win	2022-12-23	09:40:06	09:48:05	468226	628de7e8ff1744a9717d7883	241071847	1	practice_slash	5	advance_on_keypress_SLASH	24	stimuli_target_circlediamonds.svg	stimuli_distractor_diamondtriangles.svg	1	yes	57	0	1779
6.6.1	win	2022-12-23	09:40:06	09:48:09	472579	628de7e8ff1744a9717d7883	241071847	1	practice_slash	5	practice_slash	25	stimuli_target_squarediamonds.svg	stimuli_distractor_diamondtriangles.svg	2	yes	53	1	928
6.6.1	win	2022-12-23	09:40:06	09:48:09	472579	628de7e8ff1744a9717d7883	241071847	1	practice_slash	5	advance_on_keypress_SLASH	26	stimuli_target_squarediamonds.svg	stimuli_distractor_diamondtriangles.svg	2	yes	57	0	3134
6.6.1	win	2022-12-23	09:40:06	09:48:15	478736	628de7e8ff1744a9717d7883	241071847	1	practice_slash	5	practice_slash	27	stimuli_distractor_trianglediamonds.svg	stimuli_distractor_trianglediamonds.svg	15	no	53	0	1369
6.6.1	win	2022-12-23	09:40:06	09:48:15	478736	628de7e8ff1744a9717d7883	241071847	1	practice_slash	5	advance_on_keypress_SLASH	28	stimuli_distractor_trianglediamonds.svg	stimuli_distractor_trianglediamonds.svg	15	no	57	0	2788
6.6.1	win	2022-12-23	09:40:06	09:48:21	484247	628de7e8ff1744a9717d7883	241071847	1	practice_slash	5	practice_slash	29	stimuli_distractor_diamondtriangles.svg	stimuli_target_circletriangles.svg	7	yes	53	1	1081
6.6.1	win	2022-12-23	09:40:06	09:48:21	484247	628de7e8ff1744a9717d7883	241071847	1	practice_slash	5	advance_on_keypress_SLASH	30	stimuli_distractor_diamondtriangles.svg	stimuli_target_circletriangles.svg	7	yes	57	0	1103
6.6.1	win	2022-12-23	09:40:06	09:48:25	488999	628de7e8ff1744a9717d7883	241071847	1	practice_slash	5	practice_slash	31	stimuli_target_squarediamonds.svg	stimuli_distractor_trianglediamonds.svg	5	yes	0	0	2000
6.6.1	win	2022-12-23	09:40:06	09:48:25	488999	628de7e8ff1744a9717d7883	241071847	1	practice_slash	5	advance_on_keypress_SLASH	32	stimuli_target_squarediamonds.svg	stimuli_distractor_trianglediamonds.svg	5	yes	57	0	671
6.6.1	win	2022-12-23	09:40:06	09:48:43	506134	628de7e8ff1744a9717d7883	241071847	1	main_slash	7	main_slash	1	stimuli_distractor_diamondtriangles.svg	stimuli_target_circlediamonds.svg	14	yes	53	1	1209
6.6.1	win	2022-12-23	09:40:06	09:48:43	506134	628de7e8ff1744a9717d7883	241071847	1	main_slash	7	advance_on_keypress_SLASH	2	stimuli_distractor_diamondtriangles.svg	stimuli_target_circlediamonds.svg	14	yes	57	0	1293
6.6.1	win	2022-12-23	09:40:06	09:48:46	509358	628de7e8ff1744a9717d7883	241071847	1	main_slash	7	main_slash	3	stimuli_distractor_trianglediamonds.svg	stimuli_target_squaretriangles.svg	11	yes	53	1	1285
6.6.1	win	2022-12-23	09:40:06	09:48:46	509358	628de7e8ff1744a9717d7883	241071847	1	main_slash	7	advance_on_keypress_SLASH	4	stimuli_distractor_trianglediamonds.svg	stimuli_target_squaretriangles.svg	11	yes	57	0	546
6.6.1	win	2022-12-23	09:40:06	09:48:48	511979	628de7e8ff1744a9717d7883	241071847	1	main_slash	7	main_slash	5	stimuli_distractor_diamondtriangles.svg	stimuli_target_trianglecircles.svg	29	yes	53	1	1423
6.6.1	win	2022-12-23	09:40:06	09:48:48	511979	628de7e8ff1744a9717d7883	241071847	1	main_slash	7	advance_on_keypress_SLASH	6	stimuli_distractor_diamondtriangles.svg	stimuli_target_trianglecircles.svg	29	yes	57	0	885
6.6.1	win	2022-12-23	09:40:06	09:48:51	514977	628de7e8ff1744a9717d7883	241071847	1	main_slash	7	main_slash	7	stimuli_distractor_diamondtriangles.svg	stimuli_target_squarediamonds.svg	16	yes	53	1	1465
6.6.1	win	2022-12-23	09:40:06	09:48:51	514977	628de7e8ff1744a9717d7883	241071847	1	main_slash	7	advance_on_keypress_SLASH	8	stimuli_distractor_diamondtriangles.svg	stimuli_target_squarediamonds.svg	16	yes	57	0	1027
6.6.1	win	2022-12-23	09:40:06	09:48:55	518100	628de7e8ff1744a9717d7883	241071847	1	main_slash	7	main_slash	9	stimuli_distractor_trianglediamonds.svg	stimuli_target_circlediamonds.svg	10	yes	53	1	1463
6.6.1	win	2022-12-23	09:40:06	09:48:55	518100	628de7e8ff1744a9717d7883	241071847	1	main_slash	7	advance_on_keypress_SLASH	10	stimuli_distractor_trianglediamonds.svg	stimuli_target_circlediamonds.svg	10	yes	57	0	961
6.6.1	win	2022-12-23	09:40:06	09:48:57	520757	628de7e8ff1744a9717d7883	241071847	1	main_slash	7	main_slash	11	stimuli_distractor_diamondtriangles.svg	stimuli_target_circletriangles.svg	13	yes	53	1	1036
6.6.1	win	2022-12-23	09:40:06	09:48:57	520757	628de7e8ff1744a9717d7883	241071847	1	main_slash	7	advance_on_keypress_SLASH	12	stimuli_distractor_diamondtriangles.svg	stimuli_target_circletriangles.svg	13	yes	57	0	1576
6.6.1	win	2022-12-23	09:40:06	09:49:01	524892	628de7e8ff1744a9717d7883	241071847	1	main_slash	7	main_slash	13	stimuli_distractor_diamondtriangles.svg	stimuli_target_diamondsquares.svg	32	yes	53	1	1906
6.6.1	win	2022-12-23	09:40:06	09:49:01	524892	628de7e8ff1744a9717d7883	241071847	1	main_slash	7	advance_on_keypress_SLASH	14	stimuli_distractor_diamondtriangles.svg	stimuli_target_diamondsquares.svg	32	yes	57	0	610
6.6.1	win	2022-12-23	09:40:06	09:49:04	527733	628de7e8ff1744a9717d7883	241071847	1	main_slash	7	main_slash	15	stimuli_target_squaretriangles.svg	stimuli_distractor_diamondtriangles.svg	7	yes	53	1	1598
6.6.1	win	2022-12-23	09:40:06	09:49:04	527733	628de7e8ff1744a9717d7883	241071847	1	main_slash	7	advance_on_keypress_SLASH	16	stimuli_target_squaretriangles.svg	stimuli_distractor_diamondtriangles.svg	7	yes	57	0	747
6.6.1	win	2022-12-23	09:40:06	09:49:07	530663	628de7e8ff1744a9717d7883	241071847	1	main_slash	7	main_slash	17	stimuli_target_circlediamonds.svg	stimuli_distractor_trianglediamonds.svg	2	yes	53	1	1529
6.6.1	win	2022-12-23	09:40:06	09:49:07	530663	628de7e8ff1744a9717d7883	241071847	1	main_slash	7	advance_on_keypress_SLASH	18	stimuli_target_circlediamonds.svg	stimuli_distractor_trianglediamonds.svg	2	yes	57	0	745
6.6.1	win	2022-12-23	09:40:06	09:49:11	534052	628de7e8ff1744a9717d7883	241071847	1	main_slash	7	main_slash	19	stimuli_distractor_trianglediamonds.svg	stimuli_distractor_diamondtriangles.svg	35	no	0	1	2000
6.6.1	win	2022-12-23	09:40:06	09:49:11	534052	628de7e8ff1744a9717d7883	241071847	1	main_slash	7	advance_on_keypress_SLASH	20	stimuli_distractor_trianglediamonds.svg	stimuli_distractor_diamondtriangles.svg	35	no	57	0	1131
6.6.1	win	2022-12-23	09:40:06	09:49:14	537488	628de7e8ff1744a9717d7883	241071847	1	main_slash	7	main_slash	21	stimuli_distractor_trianglediamonds.svg	stimuli_target_diamondsquares.svg	28	yes	53	1	1650
6.6.1	win	2022-12-23	09:40:06	09:49:14	537488	628de7e8ff1744a9717d7883	241071847	1	main_slash	7	advance_on_keypress_SLASH	22	stimuli_distractor_trianglediamonds.svg	stimuli_target_diamondsquares.svg	28	yes	57	0	949
6.6.1	win	2022-12-23	09:40:06	09:49:17	540658	628de7e8ff1744a9717d7883	241071847	1	main_slash	7	main_slash	23	stimuli_target_diamondcircles.svg	stimuli_distractor_diamondtriangles.svg	23	yes	53	1	1576
6.6.1	win	2022-12-23	09:40:06	09:49:17	540658	628de7e8ff1744a9717d7883	241071847	1	main_slash	7	advance_on_keypress_SLASH	24	stimuli_target_diamondcircles.svg	stimuli_distractor_diamondtriangles.svg	23	yes	57	0	850
6.6.1	win	2022-12-23	09:40:06	09:49:21	544149	628de7e8ff1744a9717d7883	241071847	1	main_slash	7	main_slash	25	stimuli_distractor_diamondtriangles.svg	stimuli_distractor_trianglediamonds.svg	38	no	0	1	2000
6.6.1	win	2022-12-23	09:40:06	09:49:21	544149	628de7e8ff1744a9717d7883	241071847	1	main_slash	7	advance_on_keypress_SLASH	26	stimuli_distractor_diamondtriangles.svg	stimuli_distractor_trianglediamonds.svg	38	no	57	0	1062
6.6.1	win	2022-12-23	09:40:06	09:49:24	547096	628de7e8ff1744a9717d7883	241071847	1	main_slash	7	main_slash	27	stimuli_distractor_trianglediamonds.svg	stimuli_distractor_trianglediamonds.svg	34	no	53	0	1248
6.6.1	win	2022-12-23	09:40:06	09:49:24	547096	628de7e8ff1744a9717d7883	241071847	1	main_slash	7	advance_on_keypress_SLASH	28	stimuli_distractor_trianglediamonds.svg	stimuli_distractor_trianglediamonds.svg	34	no	57	0	1334
6.6.1	win	2022-12-23	09:40:06	09:49:27	550518	628de7e8ff1744a9717d7883	241071847	1	main_slash	7	main_slash	29	stimuli_distractor_diamondtriangles.svg	stimuli_target_diamondcircles.svg	31	yes	53	1	1439
6.6.1	win	2022-12-23	09:40:06	09:49:27	550518	628de7e8ff1744a9717d7883	241071847	1	main_slash	7	advance_on_keypress_SLASH	30	stimuli_distractor_diamondtriangles.svg	stimuli_target_diamondcircles.svg	31	yes	57	0	876
6.6.1	win	2022-12-23	09:40:06	09:49:29	552974	628de7e8ff1744a9717d7883	241071847	1	main_slash	7	main_slash	31	stimuli_distractor_diamondtriangles.svg	stimuli_distractor_diamondtriangles.svg	40	no	53	0	927
6.6.1	win	2022-12-23	09:40:06	09:49:29	552974	628de7e8ff1744a9717d7883	241071847	1	main_slash	7	advance_on_keypress_SLASH	32	stimuli_distractor_diamondtriangles.svg	stimuli_distractor_diamondtriangles.svg	40	no	57	0	1120
6.6.1	win	2022-12-23	09:40:06	09:49:33	556254	628de7e8ff1744a9717d7883	241071847	1	main_slash	7	main_slash	33	stimuli_target_circletriangles.svg	stimuli_distractor_trianglediamonds.svg	1	yes	53	1	1510
6.6.1	win	2022-12-23	09:40:06	09:49:33	556254	628de7e8ff1744a9717d7883	241071847	1	main_slash	7	advance_on_keypress_SLASH	34	stimuli_target_circletriangles.svg	stimuli_distractor_trianglediamonds.svg	1	yes	57	0	887
6.6.1	win	2022-12-23	09:40:06	09:49:36	559508	628de7e8ff1744a9717d7883	241071847	1	main_slash	7	main_slash	35	stimuli_distractor_trianglediamonds.svg	stimuli_distractor_diamondtriangles.svg	36	no	53	0	1714
6.6.1	win	2022-12-23	09:40:06	09:49:36	559508	628de7e8ff1744a9717d7883	241071847	1	main_slash	7	advance_on_keypress_SLASH	36	stimuli_distractor_trianglediamonds.svg	stimuli_distractor_diamondtriangles.svg	36	no	57	0	861
6.6.1	win	2022-12-23	09:40:06	09:49:39	562580	628de7e8ff1744a9717d7883	241071847	1	main_slash	7	main_slash	37	stimuli_distractor_diamondtriangles.svg	stimuli_distractor_diamondtriangles.svg	39	no	53	0	1553
6.6.1	win	2022-12-23	09:40:06	09:49:39	562580	628de7e8ff1744a9717d7883	241071847	1	main_slash	7	advance_on_keypress_SLASH	38	stimuli_distractor_diamondtriangles.svg	stimuli_distractor_diamondtriangles.svg	39	no	57	0	847
6.6.1	win	2022-12-23	09:40:06	09:49:41	564980	628de7e8ff1744a9717d7883	241071847	1	main_slash	7	main_slash	39	stimuli_target_circletriangles.svg	stimuli_distractor_diamondtriangles.svg	5	yes	53	1	906
6.6.1	win	2022-12-23	09:40:06	09:49:41	564980	628de7e8ff1744a9717d7883	241071847	1	main_slash	7	advance_on_keypress_SLASH	40	stimuli_target_circletriangles.svg	stimuli_distractor_diamondtriangles.svg	5	yes	57	0	1469
6.6.1	win	2022-12-23	09:40:06	09:49:45	568686	628de7e8ff1744a9717d7883	241071847	1	main_slash	7	main_slash	41	stimuli_distractor_trianglediamonds.svg	stimuli_target_diamondcircles.svg	27	yes	53	1	1595
6.6.1	win	2022-12-23	09:40:06	09:49:45	568686	628de7e8ff1744a9717d7883	241071847	1	main_slash	7	advance_on_keypress_SLASH	42	stimuli_distractor_trianglediamonds.svg	stimuli_target_diamondcircles.svg	27	yes	57	0	919
6.6.1	win	2022-12-23	09:40:06	09:49:48	571786	628de7e8ff1744a9717d7883	241071847	1	main_slash	7	main_slash	43	stimuli_target_trianglecircles.svg	stimuli_distractor_trianglediamonds.svg	17	yes	53	1	1530
6.6.1	win	2022-12-23	09:40:06	09:49:48	571786	628de7e8ff1744a9717d7883	241071847	1	main_slash	7	advance_on_keypress_SLASH	44	stimuli_target_trianglecircles.svg	stimuli_distractor_trianglediamonds.svg	17	yes	57	0	846
6.6.1	win	2022-12-23	09:40:06	09:49:51	574862	628de7e8ff1744a9717d7883	241071847	1	main_slash	7	main_slash	45	stimuli_target_trianglecircles.svg	stimuli_distractor_diamondtriangles.svg	21	yes	53	1	1573
6.6.1	win	2022-12-23	09:40:06	09:49:51	574862	628de7e8ff1744a9717d7883	241071847	1	main_slash	7	advance_on_keypress_SLASH	46	stimuli_target_trianglecircles.svg	stimuli_distractor_diamondtriangles.svg	21	yes	57	0	910
6.6.1	win	2022-12-23	09:40:06	09:49:54	577402	628de7e8ff1744a9717d7883	241071847	1	main_slash	7	main_slash	47	stimuli_target_squaretriangles.svg	stimuli_distractor_trianglediamonds.svg	3	yes	53	1	979
6.6.1	win	2022-12-23	09:40:06	09:49:54	577402	628de7e8ff1744a9717d7883	241071847	1	main_slash	7	advance_on_keypress_SLASH	48	stimuli_target_squaretriangles.svg	stimuli_distractor_trianglediamonds.svg	3	yes	57	0	787
6.6.1	win	2022-12-23	09:40:06	09:49:57	580204	628de7e8ff1744a9717d7883	241071847	1	main_slash	7	main_slash	49	stimuli_distractor_trianglediamonds.svg	stimuli_target_trianglesquares.svg	26	yes	53	1	1365
6.6.1	win	2022-12-23	09:40:06	09:49:57	580204	628de7e8ff1744a9717d7883	241071847	1	main_slash	7	advance_on_keypress_SLASH	50	stimuli_distractor_trianglediamonds.svg	stimuli_target_trianglesquares.svg	26	yes	57	0	630
6.6.1	win	2022-12-23	09:40:06	09:49:59	582430	628de7e8ff1744a9717d7883	241071847	1	main_slash	7	main_slash	51	stimuli_target_circlediamonds.svg	stimuli_distractor_diamondtriangles.svg	6	yes	53	1	938
6.6.1	win	2022-12-23	09:40:06	09:49:59	582430	628de7e8ff1744a9717d7883	241071847	1	main_slash	7	advance_on_keypress_SLASH	52	stimuli_target_circlediamonds.svg	stimuli_distractor_diamondtriangles.svg	6	yes	57	0	699
6.6.1	win	2022-12-23	09:40:06	09:50:01	584730	628de7e8ff1744a9717d7883	241071847	1	main_slash	7	main_slash	53	stimuli_distractor_diamondtriangles.svg	stimuli_target_squaretriangles.svg	15	yes	53	1	961
6.6.1	win	2022-12-23	09:40:06	09:50:01	584730	628de7e8ff1744a9717d7883	241071847	1	main_slash	7	advance_on_keypress_SLASH	54	stimuli_distractor_diamondtriangles.svg	stimuli_target_squaretriangles.svg	15	yes	57	0	608
6.6.1	win	2022-12-23	09:40:06	09:50:03	586883	628de7e8ff1744a9717d7883	241071847	1	main_slash	7	main_slash	55	stimuli_target_squarediamonds.svg	stimuli_distractor_diamondtriangles.svg	8	yes	53	1	914
6.6.1	win	2022-12-23	09:40:06	09:50:03	586883	628de7e8ff1744a9717d7883	241071847	1	main_slash	7	advance_on_keypress_SLASH	56	stimuli_target_squarediamonds.svg	stimuli_distractor_diamondtriangles.svg	8	yes	57	0	1191
6.6.1	win	2022-12-23	09:40:06	09:50:07	590238	628de7e8ff1744a9717d7883	241071847	1	main_slash	7	main_slash	57	stimuli_target_trianglesquares.svg	stimuli_distractor_diamondtriangles.svg	22	yes	53	1	1516
6.6.1	win	2022-12-23	09:40:06	09:50:07	590238	628de7e8ff1744a9717d7883	241071847	1	main_slash	7	advance_on_keypress_SLASH	58	stimuli_target_trianglesquares.svg	stimuli_distractor_diamondtriangles.svg	22	yes	57	0	783
6.6.1	win	2022-12-23	09:40:06	09:50:09	592754	628de7e8ff1744a9717d7883	241071847	1	main_slash	7	main_slash	59	stimuli_distractor_trianglediamonds.svg	stimuli_distractor_trianglediamonds.svg	33	no	53	0	1086
6.6.1	win	2022-12-23	09:40:06	09:50:09	592754	628de7e8ff1744a9717d7883	241071847	1	main_slash	7	advance_on_keypress_SLASH	60	stimuli_distractor_trianglediamonds.svg	stimuli_distractor_trianglediamonds.svg	33	no	57	0	544
6.6.1	win	2022-12-23	09:40:06	09:50:11	594626	628de7e8ff1744a9717d7883	241071847	1	main_slash	7	main_slash	61	stimuli_target_squarediamonds.svg	stimuli_distractor_trianglediamonds.svg	4	yes	53	1	691
6.6.1	win	2022-12-23	09:40:06	09:50:11	594626	628de7e8ff1744a9717d7883	241071847	1	main_slash	7	advance_on_keypress_SLASH	62	stimuli_target_squarediamonds.svg	stimuli_distractor_trianglediamonds.svg	4	yes	57	0	1093
6.6.1	win	2022-12-23	09:40:06	09:50:15	598117	628de7e8ff1744a9717d7883	241071847	1	main_slash	7	main_slash	63	stimuli_target_diamondcircles.svg	stimuli_distractor_trianglediamonds.svg	19	yes	53	1	1767
6.6.1	win	2022-12-23	09:40:06	09:50:15	598117	628de7e8ff1744a9717d7883	241071847	1	main_slash	7	advance_on_keypress_SLASH	64	stimuli_target_diamondcircles.svg	stimuli_distractor_trianglediamonds.svg	19	yes	57	0	1985
6.6.1	win	2022-12-23	09:40:06	09:50:19	602750	628de7e8ff1744a9717d7883	241071847	1	main_slash	7	main_slash	65	stimuli_target_diamondsquares.svg	stimuli_distractor_trianglediamonds.svg	20	yes	0	0	2000
6.6.1	win	2022-12-23	09:40:06	09:50:19	602750	628de7e8ff1744a9717d7883	241071847	1	main_slash	7	advance_on_keypress_SLASH	66	stimuli_target_diamondsquares.svg	stimuli_distractor_trianglediamonds.svg	20	yes	57	0	695
6.6.1	win	2022-12-23	09:40:06	09:50:23	606286	628de7e8ff1744a9717d7883	241071847	1	main_slash	7	main_slash	67	stimuli_target_trianglesquares.svg	stimuli_distractor_trianglediamonds.svg	18	yes	0	0	2000
6.6.1	win	2022-12-23	09:40:06	09:50:23	606286	628de7e8ff1744a9717d7883	241071847	1	main_slash	7	advance_on_keypress_SLASH	68	stimuli_target_trianglesquares.svg	stimuli_distractor_trianglediamonds.svg	18	yes	57	0	1567
6.6.1	win	2022-12-23	09:40:06	09:50:26	609296	628de7e8ff1744a9717d7883	241071847	1	main_slash	7	main_slash	69	stimuli_distractor_trianglediamonds.svg	stimuli_target_trianglecircles.svg	25	yes	53	1	800
6.6.1	win	2022-12-23	09:40:06	09:50:26	609296	628de7e8ff1744a9717d7883	241071847	1	main_slash	7	advance_on_keypress_SLASH	70	stimuli_distractor_trianglediamonds.svg	stimuli_target_trianglecircles.svg	25	yes	57	0	1740
6.6.1	win	2022-12-23	09:40:06	09:50:29	612984	628de7e8ff1744a9717d7883	241071847	1	main_slash	7	main_slash	71	stimuli_distractor_trianglediamonds.svg	stimuli_target_squarediamonds.svg	12	yes	53	1	1304
6.6.1	win	2022-12-23	09:40:06	09:50:29	612984	628de7e8ff1744a9717d7883	241071847	1	main_slash	7	advance_on_keypress_SLASH	72	stimuli_distractor_trianglediamonds.svg	stimuli_target_squarediamonds.svg	12	yes	57	0	838
6.6.1	win	2022-12-23	09:40:06	09:50:32	615785	628de7e8ff1744a9717d7883	241071847	1	main_slash	7	main_slash	73	stimuli_distractor_diamondtriangles.svg	stimuli_distractor_trianglediamonds.svg	37	no	53	0	1323
6.6.1	win	2022-12-23	09:40:06	09:50:32	615785	628de7e8ff1744a9717d7883	241071847	1	main_slash	7	advance_on_keypress_SLASH	74	stimuli_distractor_diamondtriangles.svg	stimuli_distractor_trianglediamonds.svg	37	no	57	0	1125
6.6.1	win	2022-12-23	09:40:06	09:50:36	619167	628de7e8ff1744a9717d7883	241071847	1	main_slash	7	main_slash	75	stimuli_distractor_diamondtriangles.svg	stimuli_target_trianglesquares.svg	30	yes	53	1	1606
6.6.1	win	2022-12-23	09:40:06	09:50:36	619167	628de7e8ff1744a9717d7883	241071847	1	main_slash	7	advance_on_keypress_SLASH	76	stimuli_distractor_diamondtriangles.svg	stimuli_target_trianglesquares.svg	30	yes	57	0	3265
6.6.1	win	2022-12-23	09:40:06	09:50:41	624732	628de7e8ff1744a9717d7883	241071847	1	main_slash	7	main_slash	77	stimuli_distractor_trianglediamonds.svg	stimuli_target_circletriangles.svg	9	yes	53	1	1656
6.6.1	win	2022-12-23	09:40:06	09:50:41	624732	628de7e8ff1744a9717d7883	241071847	1	main_slash	7	advance_on_keypress_SLASH	78	stimuli_distractor_trianglediamonds.svg	stimuli_target_circletriangles.svg	9	yes	57	0	921
6.6.1	win	2022-12-23	09:40:06	09:50:44	627853	628de7e8ff1744a9717d7883	241071847	1	main_slash	7	main_slash	79	stimuli_target_diamondsquares.svg	stimuli_distractor_diamondtriangles.svg	24	yes	53	1	1561
6.6.1	win	2022-12-23	09:40:06	09:50:44	627853	628de7e8ff1744a9717d7883	241071847	1	main_slash	7	advance_on_keypress_SLASH	80	stimuli_target_diamondsquares.svg	stimuli_distractor_diamondtriangles.svg	24	yes	57	0	895
6.6.1	win	2022-12-23	09:40:06	09:50:47	630586	628de7e8ff1744a9717d7883	241071847	1	main_slash	7	main_slash	81	stimuli_distractor_trianglediamonds.svg	stimuli_distractor_diamondtriangles.svg	35	no	53	0	1193
6.6.1	win	2022-12-23	09:40:06	09:50:47	630586	628de7e8ff1744a9717d7883	241071847	1	main_slash	7	advance_on_keypress_SLASH	82	stimuli_distractor_trianglediamonds.svg	stimuli_distractor_diamondtriangles.svg	35	no	57	0	615
6.6.1	win	2022-12-23	09:40:06	09:50:50	633375	628de7e8ff1744a9717d7883	241071847	1	main_slash	7	main_slash	83	stimuli_distractor_diamondtriangles.svg	stimuli_target_trianglesquares.svg	30	yes	53	1	1517
6.6.1	win	2022-12-23	09:40:06	09:50:50	633375	628de7e8ff1744a9717d7883	241071847	1	main_slash	7	advance_on_keypress_SLASH	84	stimuli_distractor_diamondtriangles.svg	stimuli_target_trianglesquares.svg	30	yes	57	0	944
6.6.1	win	2022-12-23	09:40:06	09:50:53	636653	628de7e8ff1744a9717d7883	241071847	1	main_slash	7	main_slash	85	stimuli_distractor_trianglediamonds.svg	stimuli_target_squarediamonds.svg	12	yes	53	1	1694
6.6.1	win	2022-12-23	09:40:06	09:50:53	636653	628de7e8ff1744a9717d7883	241071847	1	main_slash	7	advance_on_keypress_SLASH	86	stimuli_distractor_trianglediamonds.svg	stimuli_target_squarediamonds.svg	12	yes	57	0	874
6.6.1	win	2022-12-23	09:40:06	09:50:56	639891	628de7e8ff1744a9717d7883	241071847	1	main_slash	7	main_slash	87	stimuli_target_squarediamonds.svg	stimuli_distractor_diamondtriangles.svg	8	yes	53	1	1719
6.6.1	win	2022-12-23	09:40:06	09:50:56	639891	628de7e8ff1744a9717d7883	241071847	1	main_slash	7	advance_on_keypress_SLASH	88	stimuli_target_squarediamonds.svg	stimuli_distractor_diamondtriangles.svg	8	yes	57	0	1192
6.6.1	win	2022-12-23	09:40:06	09:51:00	643856	628de7e8ff1744a9717d7883	241071847	1	main_slash	7	main_slash	89	stimuli_distractor_diamondtriangles.svg	stimuli_distractor_trianglediamonds.svg	37	no	0	1	2000
6.6.1	win	2022-12-23	09:40:06	09:51:00	643856	628de7e8ff1744a9717d7883	241071847	1	main_slash	7	advance_on_keypress_SLASH	90	stimuli_distractor_diamondtriangles.svg	stimuli_distractor_trianglediamonds.svg	37	no	57	0	562
6.6.1	win	2022-12-23	09:40:06	09:51:04	647208	628de7e8ff1744a9717d7883	241071847	1	main_slash	7	main_slash	91	stimuli_distractor_trianglediamonds.svg	stimuli_target_trianglesquares.svg	26	yes	0	0	2000
6.6.1	win	2022-12-23	09:40:06	09:51:04	647208	628de7e8ff1744a9717d7883	241071847	1	main_slash	7	advance_on_keypress_SLASH	92	stimuli_distractor_trianglediamonds.svg	stimuli_target_trianglesquares.svg	26	yes	57	0	659
6.6.1	win	2022-12-23	09:40:06	09:51:07	650264	628de7e8ff1744a9717d7883	241071847	1	main_slash	7	main_slash	93	stimuli_target_squaretriangles.svg	stimuli_distractor_trianglediamonds.svg	3	yes	53	1	1762
6.6.1	win	2022-12-23	09:40:06	09:51:07	650264	628de7e8ff1744a9717d7883	241071847	1	main_slash	7	advance_on_keypress_SLASH	94	stimuli_target_squaretriangles.svg	stimuli_distractor_trianglediamonds.svg	3	yes	57	0	906
6.6.1	win	2022-12-23	09:40:06	09:51:10	653045	628de7e8ff1744a9717d7883	241071847	1	main_slash	7	main_slash	95	stimuli_target_squarediamonds.svg	stimuli_distractor_trianglediamonds.svg	4	yes	53	1	1242
6.6.1	win	2022-12-23	09:40:06	09:51:10	653045	628de7e8ff1744a9717d7883	241071847	1	main_slash	7	advance_on_keypress_SLASH	96	stimuli_target_squarediamonds.svg	stimuli_distractor_trianglediamonds.svg	4	yes	57	0	1218
6.6.1	win	2022-12-23	09:40:06	09:51:14	657172	628de7e8ff1744a9717d7883	241071847	1	main_slash	7	main_slash	97	stimuli_target_circlediamonds.svg	stimuli_distractor_trianglediamonds.svg	2	yes	0	0	2000
6.6.1	win	2022-12-23	09:40:06	09:51:14	657172	628de7e8ff1744a9717d7883	241071847	1	main_slash	7	advance_on_keypress_SLASH	98	stimuli_target_circlediamonds.svg	stimuli_distractor_trianglediamonds.svg	2	yes	57	0	643
6.6.1	win	2022-12-23	09:40:06	09:51:17	660202	628de7e8ff1744a9717d7883	241071847	1	main_slash	7	main_slash	99	stimuli_target_trianglesquares.svg	stimuli_distractor_diamondtriangles.svg	22	yes	53	1	1752
6.6.1	win	2022-12-23	09:40:06	09:51:17	660202	628de7e8ff1744a9717d7883	241071847	1	main_slash	7	advance_on_keypress_SLASH	100	stimuli_target_trianglesquares.svg	stimuli_distractor_diamondtriangles.svg	22	yes	57	0	891
6.6.1	win	2022-12-23	09:40:06	09:51:20	663108	628de7e8ff1744a9717d7883	241071847	1	main_slash	7	main_slash	101	stimuli_distractor_diamondtriangles.svg	stimuli_target_circletriangles.svg	13	yes	53	1	1376
6.6.1	win	2022-12-23	09:40:06	09:51:20	663108	628de7e8ff1744a9717d7883	241071847	1	main_slash	7	advance_on_keypress_SLASH	102	stimuli_distractor_diamondtriangles.svg	stimuli_target_circletriangles.svg	13	yes	57	0	918
6.6.1	win	2022-12-23	09:40:06	09:51:23	666288	628de7e8ff1744a9717d7883	241071847	1	main_slash	7	main_slash	103	stimuli_target_squaretriangles.svg	stimuli_distractor_diamondtriangles.svg	7	yes	53	1	1623
6.6.1	win	2022-12-23	09:40:06	09:51:23	666288	628de7e8ff1744a9717d7883	241071847	1	main_slash	7	advance_on_keypress_SLASH	104	stimuli_target_squaretriangles.svg	stimuli_distractor_diamondtriangles.svg	7	yes	57	0	0
6.6.1	win	2022-12-23	09:40:06	09:51:26	669550	628de7e8ff1744a9717d7883	241071847	1	main_slash	7	main_slash	105	stimuli_target_trianglecircles.svg	stimuli_distractor_diamondtriangles.svg	21	yes	0	0	2000
6.6.1	win	2022-12-23	09:40:06	09:51:26	669550	628de7e8ff1744a9717d7883	241071847	1	main_slash	7	advance_on_keypress_SLASH	106	stimuli_target_trianglecircles.svg	stimuli_distractor_diamondtriangles.svg	21	yes	57	0	13073
6.6.1	win	2022-12-23	09:40:06	09:51:41	684642	628de7e8ff1744a9717d7883	241071847	1	main_slash	7	main_slash	107	stimuli_target_diamondsquares.svg	stimuli_distractor_diamondtriangles.svg	24	yes	53	1	1366
6.6.1	win	2022-12-23	09:40:06	09:51:41	684642	628de7e8ff1744a9717d7883	241071847	1	main_slash	7	advance_on_keypress_SLASH	108	stimuli_target_diamondsquares.svg	stimuli_distractor_diamondtriangles.svg	24	yes	57	0	1028
6.6.1	win	2022-12-23	09:40:06	09:51:44	687583	628de7e8ff1744a9717d7883	241071847	1	main_slash	7	main_slash	109	stimuli_distractor_trianglediamonds.svg	stimuli_target_diamondcircles.svg	27	yes	53	1	1257
6.6.1	win	2022-12-23	09:40:06	09:51:44	687583	628de7e8ff1744a9717d7883	241071847	1	main_slash	7	advance_on_keypress_SLASH	110	stimuli_distractor_trianglediamonds.svg	stimuli_target_diamondcircles.svg	27	yes	57	0	796
6.6.1	win	2022-12-23	09:40:06	09:51:48	691216	628de7e8ff1744a9717d7883	241071847	1	main_slash	7	main_slash	111	stimuli_distractor_trianglediamonds.svg	stimuli_distractor_trianglediamonds.svg	33	no	0	1	2000
6.6.1	win	2022-12-23	09:40:06	09:51:48	691216	628de7e8ff1744a9717d7883	241071847	1	main_slash	7	advance_on_keypress_SLASH	112	stimuli_distractor_trianglediamonds.svg	stimuli_distractor_trianglediamonds.svg	33	no	57	0	1310
6.6.1	win	2022-12-23	09:40:06	09:51:52	695114	628de7e8ff1744a9717d7883	241071847	1	main_slash	7	main_slash	113	stimuli_distractor_diamondtriangles.svg	stimuli_target_trianglecircles.svg	29	yes	53	1	1940
6.6.1	win	2022-12-23	09:40:06	09:51:52	695114	628de7e8ff1744a9717d7883	241071847	1	main_slash	7	advance_on_keypress_SLASH	114	stimuli_distractor_diamondtriangles.svg	stimuli_target_trianglecircles.svg	29	yes	57	0	676
6.6.1	win	2022-12-23	09:40:06	09:51:55	698149	628de7e8ff1744a9717d7883	241071847	1	main_slash	7	main_slash	115	stimuli_distractor_trianglediamonds.svg	stimuli_target_circletriangles.svg	9	yes	53	1	1119
6.6.1	win	2022-12-23	09:40:06	09:51:55	698149	628de7e8ff1744a9717d7883	241071847	1	main_slash	7	advance_on_keypress_SLASH	116	stimuli_distractor_trianglediamonds.svg	stimuli_target_circletriangles.svg	9	yes	57	0	1796
6.6.1	win	2022-12-23	09:40:06	09:51:59	702173	628de7e8ff1744a9717d7883	241071847	1	main_slash	7	main_slash	117	stimuli_distractor_diamondtriangles.svg	stimuli_target_diamondsquares.svg	32	yes	53	1	1584
6.6.1	win	2022-12-23	09:40:06	09:51:59	702173	628de7e8ff1744a9717d7883	241071847	1	main_slash	7	advance_on_keypress_SLASH	118	stimuli_distractor_diamondtriangles.svg	stimuli_target_diamondsquares.svg	32	yes	57	0	105
6.6.1	win	2022-12-23	09:40:06	09:52:01	704926	628de7e8ff1744a9717d7883	241071847	1	main_slash	7	main_slash	119	stimuli_target_diamondcircles.svg	stimuli_distractor_diamondtriangles.svg	23	yes	0	0	2000
6.6.1	win	2022-12-23	09:40:06	09:52:01	704926	628de7e8ff1744a9717d7883	241071847	1	main_slash	7	advance_on_keypress_SLASH	120	stimuli_target_diamondcircles.svg	stimuli_distractor_diamondtriangles.svg	23	yes	57	0	2012
6.6.1	win	2022-12-23	09:40:06	09:52:06	709586	628de7e8ff1744a9717d7883	241071847	1	main_slash	7	main_slash	121	stimuli_distractor_diamondtriangles.svg	stimuli_target_squaretriangles.svg	15	yes	0	0	2000
6.6.1	win	2022-12-23	09:40:06	09:52:06	709586	628de7e8ff1744a9717d7883	241071847	1	main_slash	7	advance_on_keypress_SLASH	122	stimuli_distractor_diamondtriangles.svg	stimuli_target_squaretriangles.svg	15	yes	57	0	1017
6.6.1	win	2022-12-23	09:40:06	09:52:09	712826	628de7e8ff1744a9717d7883	241071847	1	main_slash	7	main_slash	123	stimuli_distractor_diamondtriangles.svg	stimuli_distractor_diamondtriangles.svg	39	no	53	0	1574
6.6.1	win	2022-12-23	09:40:06	09:52:09	712826	628de7e8ff1744a9717d7883	241071847	1	main_slash	7	advance_on_keypress_SLASH	124	stimuli_distractor_diamondtriangles.svg	stimuli_distractor_diamondtriangles.svg	39	no	57	0	1192
6.6.1	win	2022-12-23	09:40:06	09:52:13	716273	628de7e8ff1744a9717d7883	241071847	1	main_slash	7	main_slash	125	stimuli_distractor_trianglediamonds.svg	stimuli_distractor_trianglediamonds.svg	34	no	53	0	1622
6.6.1	win	2022-12-23	09:40:06	09:52:13	716273	628de7e8ff1744a9717d7883	241071847	1	main_slash	7	advance_on_keypress_SLASH	126	stimuli_distractor_trianglediamonds.svg	stimuli_distractor_trianglediamonds.svg	34	no	57	0	568
6.6.1	win	2022-12-23	09:40:06	09:52:17	720549	628de7e8ff1744a9717d7883	241071847	1	main_slash	7	main_slash	127	stimuli_target_circletriangles.svg	stimuli_distractor_trianglediamonds.svg	1	yes	0	0	2000
6.6.1	win	2022-12-23	09:40:06	09:52:17	720549	628de7e8ff1744a9717d7883	241071847	1	main_slash	7	advance_on_keypress_SLASH	128	stimuli_target_circletriangles.svg	stimuli_distractor_trianglediamonds.svg	1	yes	57	0	1397
6.6.1	win	2022-12-23	09:40:06	09:52:21	724599	628de7e8ff1744a9717d7883	241071847	1	main_slash	7	main_slash	129	stimuli_distractor_diamondtriangles.svg	stimuli_distractor_diamondtriangles.svg	40	no	0	1	2000
6.6.1	win	2022-12-23	09:40:06	09:52:21	724599	628de7e8ff1744a9717d7883	241071847	1	main_slash	7	advance_on_keypress_SLASH	130	stimuli_distractor_diamondtriangles.svg	stimuli_distractor_diamondtriangles.svg	40	no	57	0	5804
6.6.1	win	2022-12-23	09:40:06	09:52:28	731969	628de7e8ff1744a9717d7883	241071847	1	main_slash	7	main_slash	131	stimuli_target_circletriangles.svg	stimuli_distractor_diamondtriangles.svg	5	yes	53	1	921
6.6.1	win	2022-12-23	09:40:06	09:52:28	731969	628de7e8ff1744a9717d7883	241071847	1	main_slash	7	advance_on_keypress_SLASH	132	stimuli_target_circletriangles.svg	stimuli_distractor_diamondtriangles.svg	5	yes	57	0	974
6.6.1	win	2022-12-23	09:40:06	09:52:32	735916	628de7e8ff1744a9717d7883	241071847	1	main_slash	7	main_slash	133	stimuli_distractor_diamondtriangles.svg	stimuli_target_circlediamonds.svg	14	yes	0	0	2000
6.6.1	win	2022-12-23	09:40:06	09:52:32	735916	628de7e8ff1744a9717d7883	241071847	1	main_slash	7	advance_on_keypress_SLASH	134	stimuli_distractor_diamondtriangles.svg	stimuli_target_circlediamonds.svg	14	yes	57	0	1702
6.6.1	win	2022-12-23	09:40:06	09:52:37	740149	628de7e8ff1744a9717d7883	241071847	1	main_slash	7	main_slash	135	stimuli_target_circlediamonds.svg	stimuli_distractor_diamondtriangles.svg	6	yes	53	1	1884
6.6.1	win	2022-12-23	09:40:06	09:52:37	740149	628de7e8ff1744a9717d7883	241071847	1	main_slash	7	advance_on_keypress_SLASH	136	stimuli_target_circlediamonds.svg	stimuli_distractor_diamondtriangles.svg	6	yes	57	0	1100
6.6.1	win	2022-12-23	09:40:06	09:52:39	742824	628de7e8ff1744a9717d7883	241071847	1	main_slash	7	main_slash	137	stimuli_distractor_trianglediamonds.svg	stimuli_target_trianglecircles.svg	25	yes	53	1	930
6.6.1	win	2022-12-23	09:40:06	09:52:39	742824	628de7e8ff1744a9717d7883	241071847	1	main_slash	7	advance_on_keypress_SLASH	138	stimuli_distractor_trianglediamonds.svg	stimuli_target_trianglecircles.svg	25	yes	57	0	646
6.6.1	win	2022-12-23	09:40:06	09:52:42	745958	628de7e8ff1744a9717d7883	241071847	1	main_slash	7	main_slash	139	stimuli_distractor_trianglediamonds.svg	stimuli_target_diamondsquares.svg	28	yes	53	1	1831
6.6.1	win	2022-12-23	09:40:06	09:52:42	745958	628de7e8ff1744a9717d7883	241071847	1	main_slash	7	advance_on_keypress_SLASH	140	stimuli_distractor_trianglediamonds.svg	stimuli_target_diamondsquares.svg	28	yes	57	0	909
6.6.1	win	2022-12-23	09:40:06	09:52:46	749284	628de7e8ff1744a9717d7883	241071847	1	main_slash	7	main_slash	141	stimuli_target_trianglesquares.svg	stimuli_distractor_trianglediamonds.svg	18	yes	53	1	1775
6.6.1	win	2022-12-23	09:40:06	09:52:46	749284	628de7e8ff1744a9717d7883	241071847	1	main_slash	7	advance_on_keypress_SLASH	142	stimuli_target_trianglesquares.svg	stimuli_distractor_trianglediamonds.svg	18	yes	57	0	1102
6.6.1	win	2022-12-23	09:40:06	09:52:50	753156	628de7e8ff1744a9717d7883	241071847	1	main_slash	7	main_slash	143	stimuli_distractor_trianglediamonds.svg	stimuli_target_squaretriangles.svg	11	yes	0	0	2000
6.6.1	win	2022-12-23	09:40:06	09:52:50	753156	628de7e8ff1744a9717d7883	241071847	1	main_slash	7	advance_on_keypress_SLASH	144	stimuli_distractor_trianglediamonds.svg	stimuli_target_squaretriangles.svg	11	yes	57	0	690
6.6.1	win	2022-12-23	09:40:06	09:52:53	756753	628de7e8ff1744a9717d7883	241071847	1	main_slash	7	main_slash	145	stimuli_distractor_trianglediamonds.svg	stimuli_distractor_diamondtriangles.svg	36	no	0	1	2000
6.6.1	win	2022-12-23	09:40:06	09:52:53	756753	628de7e8ff1744a9717d7883	241071847	1	main_slash	7	advance_on_keypress_SLASH	146	stimuli_distractor_trianglediamonds.svg	stimuli_distractor_diamondtriangles.svg	36	no	57	0	1270
6.6.1	win	2022-12-23	09:40:06	09:52:57	760791	628de7e8ff1744a9717d7883	241071847	1	main_slash	7	main_slash	147	stimuli_distractor_diamondtriangles.svg	stimuli_target_diamondcircles.svg	31	yes	0	0	2000
6.6.1	win	2022-12-23	09:40:06	09:52:57	760791	628de7e8ff1744a9717d7883	241071847	1	main_slash	7	advance_on_keypress_SLASH	148	stimuli_distractor_diamondtriangles.svg	stimuli_target_diamondcircles.svg	31	yes	57	0	964
6.6.1	win	2022-12-23	09:40:06	09:53:02	765062	628de7e8ff1744a9717d7883	241071847	1	main_slash	7	main_slash	149	stimuli_target_diamondsquares.svg	stimuli_distractor_trianglediamonds.svg	20	yes	0	0	2000
6.6.1	win	2022-12-23	09:40:06	09:53:02	765062	628de7e8ff1744a9717d7883	241071847	1	main_slash	7	advance_on_keypress_SLASH	150	stimuli_target_diamondsquares.svg	stimuli_distractor_trianglediamonds.svg	20	yes	57	0	1109
6.6.1	win	2022-12-23	09:40:06	09:53:05	768846	628de7e8ff1744a9717d7883	241071847	1	main_slash	7	main_slash	151	stimuli_target_trianglecircles.svg	stimuli_distractor_trianglediamonds.svg	17	yes	0	0	2000
6.6.1	win	2022-12-23	09:40:06	09:53:05	768846	628de7e8ff1744a9717d7883	241071847	1	main_slash	7	advance_on_keypress_SLASH	152	stimuli_target_trianglecircles.svg	stimuli_distractor_trianglediamonds.svg	17	yes	57	0	978
6.6.1	win	2022-12-23	09:40:06	09:53:08	771537	628de7e8ff1744a9717d7883	241071847	1	main_slash	7	main_slash	153	stimuli_distractor_trianglediamonds.svg	stimuli_target_circlediamonds.svg	10	yes	53	1	1068
6.6.1	win	2022-12-23	09:40:06	09:53:08	771537	628de7e8ff1744a9717d7883	241071847	1	main_slash	7	advance_on_keypress_SLASH	154	stimuli_distractor_trianglediamonds.svg	stimuli_target_circlediamonds.svg	10	yes	57	0	970
6.6.1	win	2022-12-23	09:40:06	09:53:11	774262	628de7e8ff1744a9717d7883	241071847	1	main_slash	7	main_slash	155	stimuli_target_diamondcircles.svg	stimuli_distractor_trianglediamonds.svg	19	yes	53	1	1110
6.6.1	win	2022-12-23	09:40:06	09:53:11	774262	628de7e8ff1744a9717d7883	241071847	1	main_slash	7	advance_on_keypress_SLASH	156	stimuli_target_diamondcircles.svg	stimuli_distractor_trianglediamonds.svg	19	yes	57	0	821
6.6.1	win	2022-12-23	09:40:06	09:53:13	776844	628de7e8ff1744a9717d7883	241071847	1	main_slash	7	main_slash	157	stimuli_distractor_diamondtriangles.svg	stimuli_target_squarediamonds.svg	16	yes	53	1	1125
6.6.1	win	2022-12-23	09:40:06	09:53:13	776844	628de7e8ff1744a9717d7883	241071847	1	main_slash	7	advance_on_keypress_SLASH	158	stimuli_distractor_diamondtriangles.svg	stimuli_target_squarediamonds.svg	16	yes	57	0	945
6.6.1	win	2022-12-23	09:40:06	09:53:16	779909	628de7e8ff1744a9717d7883	241071847	1	main_slash	7	main_slash	159	stimuli_distractor_diamondtriangles.svg	stimuli_distractor_trianglediamonds.svg	38	no	53	0	1472
6.6.1	win	2022-12-23	09:40:06	09:53:16	779909	628de7e8ff1744a9717d7883	241071847	1	main_slash	7	advance_on_keypress_SLASH	160	stimuli_distractor_diamondtriangles.svg	stimuli_distractor_trianglediamonds.svg	38	no	57	0	328
6.6.1	win	2022-12-23	09:40:06	09:53:52	815292	628de7e8ff1744a9717d7883	241071847	1	practice_z	9	practice_z	1	stimuli_distractor_trianglediamonds.svg	stimuli_distractor_diamondtriangles.svg	16	no	44	0	978
6.6.1	win	2022-12-23	09:40:06	09:53:52	815292	628de7e8ff1744a9717d7883	241071847	1	practice_z	9	advance_on_keypress_ZEE	2	stimuli_distractor_trianglediamonds.svg	stimuli_distractor_diamondtriangles.svg	16	no	57	0	1537
6.6.1	win	2022-12-23	09:40:06	09:53:56	819816	628de7e8ff1744a9717d7883	241071847	1	practice_z	9	practice_z	3	stimuli_distractor_diamondtriangles.svg	stimuli_target_trianglecircles.svg	9	yes	44	1	1340
6.6.1	win	2022-12-23	09:40:06	09:53:56	819816	628de7e8ff1744a9717d7883	241071847	1	practice_z	9	advance_on_keypress_ZEE	4	stimuli_distractor_diamondtriangles.svg	stimuli_target_trianglecircles.svg	9	yes	57	0	1703
6.6.1	win	2022-12-23	09:40:06	09:54:01	824563	628de7e8ff1744a9717d7883	241071847	1	practice_z	9	practice_z	5	stimuli_target_squarediamonds.svg	stimuli_distractor_trianglediamonds.svg	5	yes	44	1	1406
6.6.1	win	2022-12-23	09:40:06	09:54:01	824563	628de7e8ff1744a9717d7883	241071847	1	practice_z	9	advance_on_keypress_ZEE	6	stimuli_target_squarediamonds.svg	stimuli_distractor_trianglediamonds.svg	5	yes	57	0	1290
6.6.1	win	2022-12-23	09:40:06	09:54:05	828870	628de7e8ff1744a9717d7883	241071847	1	practice_z	9	practice_z	7	stimuli_distractor_diamondtriangles.svg	stimuli_target_diamondcircles.svg	8	yes	44	1	1379
6.6.1	win	2022-12-23	09:40:06	09:54:05	828870	628de7e8ff1744a9717d7883	241071847	1	practice_z	9	advance_on_keypress_ZEE	8	stimuli_distractor_diamondtriangles.svg	stimuli_target_diamondcircles.svg	8	yes	57	0	2027
6.6.1	win	2022-12-23	09:40:06	09:54:11	834298	628de7e8ff1744a9717d7883	241071847	1	practice_z	9	practice_z	9	stimuli_target_diamondsquares.svg	stimuli_distractor_diamondtriangles.svg	3	yes	44	1	1741
6.6.1	win	2022-12-23	09:40:06	09:54:11	834298	628de7e8ff1744a9717d7883	241071847	1	practice_z	9	advance_on_keypress_ZEE	10	stimuli_target_diamondsquares.svg	stimuli_distractor_diamondtriangles.svg	3	yes	57	0	1012
6.6.1	win	2022-12-23	09:40:06	09:54:15	838674	628de7e8ff1744a9717d7883	241071847	1	practice_z	9	practice_z	11	stimuli_distractor_trianglediamonds.svg	stimuli_target_squarediamonds.svg	11	yes	44	1	1702
6.6.1	win	2022-12-23	09:40:06	09:54:15	838674	628de7e8ff1744a9717d7883	241071847	1	practice_z	9	advance_on_keypress_ZEE	12	stimuli_distractor_trianglediamonds.svg	stimuli_target_squarediamonds.svg	11	yes	57	0	673
6.6.1	win	2022-12-23	09:40:06	09:54:19	842334	628de7e8ff1744a9717d7883	241071847	1	practice_z	9	practice_z	13	stimuli_distractor_trianglediamonds.svg	stimuli_target_diamondcircles.svg	12	yes	44	1	1347
6.6.1	win	2022-12-23	09:40:06	09:54:19	842334	628de7e8ff1744a9717d7883	241071847	1	practice_z	9	advance_on_keypress_ZEE	14	stimuli_distractor_trianglediamonds.svg	stimuli_target_diamondcircles.svg	12	yes	57	0	982
6.6.1	win	2022-12-23	09:40:06	09:54:24	847236	628de7e8ff1744a9717d7883	241071847	1	practice_z	9	practice_z	15	stimuli_distractor_diamondtriangles.svg	stimuli_distractor_trianglediamonds.svg	14	no	0	1	2000
6.6.1	win	2022-12-23	09:40:06	09:54:24	847236	628de7e8ff1744a9717d7883	241071847	1	practice_z	9	advance_on_keypress_ZEE	16	stimuli_distractor_diamondtriangles.svg	stimuli_distractor_trianglediamonds.svg	14	no	57	0	979
6.6.1	win	2022-12-23	09:40:06	09:54:27	850700	628de7e8ff1744a9717d7883	241071847	1	practice_z	9	practice_z	17	stimuli_distractor_trianglediamonds.svg	stimuli_target_circlediamonds.svg	10	yes	44	1	833
6.6.1	win	2022-12-23	09:40:06	09:54:27	850700	628de7e8ff1744a9717d7883	241071847	1	practice_z	9	advance_on_keypress_ZEE	18	stimuli_distractor_trianglediamonds.svg	stimuli_target_circlediamonds.svg	10	yes	57	0	1049
6.6.1	win	2022-12-23	09:40:06	09:54:31	854617	628de7e8ff1744a9717d7883	241071847	1	practice_z	9	practice_z	19	stimuli_target_circlediamonds.svg	stimuli_distractor_diamondtriangles.svg	1	yes	44	1	1216
6.6.1	win	2022-12-23	09:40:06	09:54:31	854617	628de7e8ff1744a9717d7883	241071847	1	practice_z	9	advance_on_keypress_ZEE	20	stimuli_target_circlediamonds.svg	stimuli_distractor_diamondtriangles.svg	1	yes	57	0	1074
6.6.1	win	2022-12-23	09:40:06	09:54:36	859331	628de7e8ff1744a9717d7883	241071847	1	practice_z	9	practice_z	21	stimuli_distractor_diamondtriangles.svg	stimuli_distractor_diamondtriangles.svg	13	no	0	1	2000
6.6.1	win	2022-12-23	09:40:06	09:54:36	859331	628de7e8ff1744a9717d7883	241071847	1	practice_z	9	advance_on_keypress_ZEE	22	stimuli_distractor_diamondtriangles.svg	stimuli_distractor_diamondtriangles.svg	13	no	57	0	1125
6.6.1	win	2022-12-23	09:40:06	09:54:41	864100	628de7e8ff1744a9717d7883	241071847	1	practice_z	9	practice_z	23	stimuli_distractor_trianglediamonds.svg	stimuli_distractor_trianglediamonds.svg	15	no	0	1	2000
6.6.1	win	2022-12-23	09:40:06	09:54:41	864100	628de7e8ff1744a9717d7883	241071847	1	practice_z	9	advance_on_keypress_ZEE	24	stimuli_distractor_trianglediamonds.svg	stimuli_distractor_trianglediamonds.svg	15	no	57	0	428
6.6.1	win	2022-12-23	09:40:06	09:54:43	866905	628de7e8ff1744a9717d7883	241071847	1	practice_z	9	practice_z	25	stimuli_target_circlediamonds.svg	stimuli_distractor_trianglediamonds.svg	4	yes	44	1	725
6.6.1	win	2022-12-23	09:40:06	09:54:43	866905	628de7e8ff1744a9717d7883	241071847	1	practice_z	9	advance_on_keypress_ZEE	26	stimuli_target_circlediamonds.svg	stimuli_distractor_trianglediamonds.svg	4	yes	57	0	607
6.6.1	win	2022-12-23	09:40:06	09:54:47	870483	628de7e8ff1744a9717d7883	241071847	1	practice_z	9	practice_z	27	stimuli_target_diamondsquares.svg	stimuli_distractor_trianglediamonds.svg	6	yes	44	1	1338
6.6.1	win	2022-12-23	09:40:06	09:54:47	870483	628de7e8ff1744a9717d7883	241071847	1	practice_z	9	advance_on_keypress_ZEE	28	stimuli_target_diamondsquares.svg	stimuli_distractor_trianglediamonds.svg	6	yes	57	0	1244
6.6.1	win	2022-12-23	09:40:06	09:54:51	874725	628de7e8ff1744a9717d7883	241071847	1	practice_z	9	practice_z	29	stimuli_target_squarediamonds.svg	stimuli_distractor_diamondtriangles.svg	2	yes	44	1	1344
6.6.1	win	2022-12-23	09:40:06	09:54:51	874725	628de7e8ff1744a9717d7883	241071847	1	practice_z	9	advance_on_keypress_ZEE	30	stimuli_target_squarediamonds.svg	stimuli_distractor_diamondtriangles.svg	2	yes	57	0	1051
6.6.1	win	2022-12-23	09:40:06	09:54:55	878784	628de7e8ff1744a9717d7883	241071847	1	practice_z	9	practice_z	31	stimuli_distractor_diamondtriangles.svg	stimuli_target_circletriangles.svg	7	yes	44	1	1355
6.6.1	win	2022-12-23	09:40:06	09:54:55	878784	628de7e8ff1744a9717d7883	241071847	1	practice_z	9	advance_on_keypress_ZEE	32	stimuli_distractor_diamondtriangles.svg	stimuli_target_circletriangles.svg	7	yes	57	0	3510
6.6.1	win	2022-12-23	09:40:06	09:55:08	891868	628de7e8ff1744a9717d7883	241071847	1	main_z	11	main_z	1	stimuli_distractor_diamondtriangles.svg	stimuli_distractor_diamondtriangles.svg	40	no	0	1	2000
6.6.1	win	2022-12-23	09:40:06	09:55:08	891868	628de7e8ff1744a9717d7883	241071847	1	main_z	11	advance_on_keypress_ZEE	2	stimuli_distractor_diamondtriangles.svg	stimuli_distractor_diamondtriangles.svg	40	no	57	0	831
6.6.1	win	2022-12-23	09:40:06	09:55:11	894958	628de7e8ff1744a9717d7883	241071847	1	main_z	11	main_z	3	stimuli_target_trianglesquares.svg	stimuli_distractor_diamondtriangles.svg	22	yes	44	1	1597
6.6.1	win	2022-12-23	09:40:06	09:55:11	894958	628de7e8ff1744a9717d7883	241071847	1	main_z	11	advance_on_keypress_ZEE	4	stimuli_target_trianglesquares.svg	stimuli_distractor_diamondtriangles.svg	22	yes	57	0	916
6.6.1	win	2022-12-23	09:40:06	09:55:14	897748	628de7e8ff1744a9717d7883	241071847	1	main_z	11	main_z	5	stimuli_distractor_diamondtriangles.svg	stimuli_target_circletriangles.svg	13	yes	44	1	1226
6.6.1	win	2022-12-23	09:40:06	09:55:14	897748	628de7e8ff1744a9717d7883	241071847	1	main_z	11	advance_on_keypress_ZEE	6	stimuli_distractor_diamondtriangles.svg	stimuli_target_circletriangles.svg	13	yes	57	0	334
6.6.1	win	2022-12-23	09:40:06	09:55:17	900206	628de7e8ff1744a9717d7883	241071847	1	main_z	11	main_z	7	stimuli_target_squaretriangles.svg	stimuli_distractor_diamondtriangles.svg	7	yes	44	1	1470
6.6.1	win	2022-12-23	09:40:06	09:55:17	900206	628de7e8ff1744a9717d7883	241071847	1	main_z	11	advance_on_keypress_ZEE	8	stimuli_target_squaretriangles.svg	stimuli_distractor_diamondtriangles.svg	7	yes	57	0	384
6.6.1	win	2022-12-23	09:40:06	09:55:19	902673	628de7e8ff1744a9717d7883	241071847	1	main_z	11	main_z	9	stimuli_target_trianglecircles.svg	stimuli_distractor_diamondtriangles.svg	21	yes	44	1	1436
6.6.1	win	2022-12-23	09:40:06	09:55:19	902673	628de7e8ff1744a9717d7883	241071847	1	main_z	11	advance_on_keypress_ZEE	10	stimuli_target_trianglecircles.svg	stimuli_distractor_diamondtriangles.svg	21	yes	57	0	445
6.6.1	win	2022-12-23	09:40:06	09:55:22	905216	628de7e8ff1744a9717d7883	241071847	1	main_z	11	main_z	11	stimuli_distractor_trianglediamonds.svg	stimuli_target_diamondcircles.svg	27	yes	44	1	1466
6.6.1	win	2022-12-23	09:40:06	09:55:22	905216	628de7e8ff1744a9717d7883	241071847	1	main_z	11	advance_on_keypress_ZEE	12	stimuli_distractor_trianglediamonds.svg	stimuli_target_diamondcircles.svg	27	yes	57	0	749
6.6.1	win	2022-12-23	09:40:06	09:55:24	907802	628de7e8ff1744a9717d7883	241071847	1	main_z	11	main_z	13	stimuli_distractor_trianglediamonds.svg	stimuli_target_squaretriangles.svg	11	yes	44	1	1185
6.6.1	win	2022-12-23	09:40:06	09:55:24	907802	628de7e8ff1744a9717d7883	241071847	1	main_z	11	advance_on_keypress_ZEE	14	stimuli_distractor_trianglediamonds.svg	stimuli_target_squaretriangles.svg	11	yes	57	0	685
6.6.1	win	2022-12-23	09:40:06	09:55:27	910228	628de7e8ff1744a9717d7883	241071847	1	main_z	11	main_z	15	stimuli_target_squarediamonds.svg	stimuli_distractor_trianglediamonds.svg	4	yes	44	1	1092
6.6.1	win	2022-12-23	09:40:06	09:55:27	910228	628de7e8ff1744a9717d7883	241071847	1	main_z	11	advance_on_keypress_ZEE	16	stimuli_target_squarediamonds.svg	stimuli_distractor_trianglediamonds.svg	4	yes	57	0	895
6.6.1	win	2022-12-23	09:40:06	09:55:29	912615	628de7e8ff1744a9717d7883	241071847	1	main_z	11	main_z	17	stimuli_distractor_trianglediamonds.svg	stimuli_target_circletriangles.svg	9	yes	44	1	834
6.6.1	win	2022-12-23	09:40:06	09:55:29	912615	628de7e8ff1744a9717d7883	241071847	1	main_z	11	advance_on_keypress_ZEE	18	stimuli_distractor_trianglediamonds.svg	stimuli_target_circletriangles.svg	9	yes	57	0	961
6.6.1	win	2022-12-23	09:40:06	09:55:32	915634	628de7e8ff1744a9717d7883	241071847	1	main_z	11	main_z	19	stimuli_target_circlediamonds.svg	stimuli_distractor_diamondtriangles.svg	6	yes	44	1	1419
6.6.1	win	2022-12-23	09:40:06	09:55:32	915634	628de7e8ff1744a9717d7883	241071847	1	main_z	11	advance_on_keypress_ZEE	20	stimuli_target_circlediamonds.svg	stimuli_distractor_diamondtriangles.svg	6	yes	57	0	534
6.6.1	win	2022-12-23	09:40:06	09:55:34	917905	628de7e8ff1744a9717d7883	241071847	1	main_z	11	main_z	21	stimuli_distractor_trianglediamonds.svg	stimuli_target_circlediamonds.svg	10	yes	44	1	1092
6.6.1	win	2022-12-23	09:40:06	09:55:34	917905	628de7e8ff1744a9717d7883	241071847	1	main_z	11	advance_on_keypress_ZEE	22	stimuli_distractor_trianglediamonds.svg	stimuli_target_circlediamonds.svg	10	yes	57	0	1185
6.6.1	win	2022-12-23	09:40:06	09:55:38	921282	628de7e8ff1744a9717d7883	241071847	1	main_z	11	main_z	23	stimuli_distractor_diamondtriangles.svg	stimuli_target_circlediamonds.svg	14	yes	44	1	1550
6.6.1	win	2022-12-23	09:40:06	09:55:38	921282	628de7e8ff1744a9717d7883	241071847	1	main_z	11	advance_on_keypress_ZEE	24	stimuli_distractor_diamondtriangles.svg	stimuli_target_circlediamonds.svg	14	yes	57	0	779
6.6.1	win	2022-12-23	09:40:06	09:55:41	924712	628de7e8ff1744a9717d7883	241071847	1	main_z	11	main_z	25	stimuli_distractor_diamondtriangles.svg	stimuli_distractor_trianglediamonds.svg	38	no	0	1	2000
6.6.1	win	2022-12-23	09:40:06	09:55:41	924712	628de7e8ff1744a9717d7883	241071847	1	main_z	11	advance_on_keypress_ZEE	26	stimuli_distractor_diamondtriangles.svg	stimuli_distractor_trianglediamonds.svg	38	no	57	0	906
6.6.1	win	2022-12-23	09:40:06	09:55:44	927318	628de7e8ff1744a9717d7883	241071847	1	main_z	11	main_z	27	stimuli_target_trianglesquares.svg	stimuli_distractor_trianglediamonds.svg	18	yes	44	1	1057
6.6.1	win	2022-12-23	09:40:06	09:55:44	927318	628de7e8ff1744a9717d7883	241071847	1	main_z	11	advance_on_keypress_ZEE	28	stimuli_target_trianglesquares.svg	stimuli_distractor_trianglediamonds.svg	18	yes	57	0	981
6.6.1	win	2022-12-23	09:40:06	09:55:47	930265	628de7e8ff1744a9717d7883	241071847	1	main_z	11	main_z	29	stimuli_distractor_diamondtriangles.svg	stimuli_target_diamondsquares.svg	32	yes	44	1	1320
6.6.1	win	2022-12-23	09:40:06	09:55:47	930265	628de7e8ff1744a9717d7883	241071847	1	main_z	11	advance_on_keypress_ZEE	30	stimuli_distractor_diamondtriangles.svg	stimuli_target_diamondsquares.svg	32	yes	57	0	374
6.6.1	win	2022-12-23	09:40:06	09:55:49	932367	628de7e8ff1744a9717d7883	241071847	1	main_z	11	main_z	31	stimuli_distractor_trianglediamonds.svg	stimuli_target_squarediamonds.svg	12	yes	44	1	1073
6.6.1	win	2022-12-23	09:40:06	09:55:49	932367	628de7e8ff1744a9717d7883	241071847	1	main_z	11	advance_on_keypress_ZEE	32	stimuli_distractor_trianglediamonds.svg	stimuli_target_squarediamonds.svg	12	yes	57	0	821
6.6.1	win	2022-12-23	09:40:06	09:55:51	935004	628de7e8ff1744a9717d7883	241071847	1	main_z	11	main_z	33	stimuli_distractor_trianglediamonds.svg	stimuli_target_trianglesquares.svg	26	yes	44	1	1178
6.6.1	win	2022-12-23	09:40:06	09:55:51	935004	628de7e8ff1744a9717d7883	241071847	1	main_z	11	advance_on_keypress_ZEE	34	stimuli_distractor_trianglediamonds.svg	stimuli_target_trianglesquares.svg	26	yes	57	0	810
6.6.1	win	2022-12-23	09:40:06	09:55:54	937698	628de7e8ff1744a9717d7883	241071847	1	main_z	11	main_z	35	stimuli_distractor_trianglediamonds.svg	stimuli_distractor_trianglediamonds.svg	33	no	44	0	1240
6.6.1	win	2022-12-23	09:40:06	09:55:54	937698	628de7e8ff1744a9717d7883	241071847	1	main_z	11	advance_on_keypress_ZEE	36	stimuli_distractor_trianglediamonds.svg	stimuli_distractor_trianglediamonds.svg	33	no	57	0	792
6.6.1	win	2022-12-23	09:40:06	09:55:57	940847	628de7e8ff1744a9717d7883	241071847	1	main_z	11	main_z	37	stimuli_distractor_trianglediamonds.svg	stimuli_target_trianglecircles.svg	25	yes	44	1	1721
6.6.1	win	2022-12-23	09:40:06	09:55:57	940847	628de7e8ff1744a9717d7883	241071847	1	main_z	11	advance_on_keypress_ZEE	38	stimuli_distractor_trianglediamonds.svg	stimuli_target_trianglecircles.svg	25	yes	57	0	919
6.6.1	win	2022-12-23	09:40:06	09:56:00	943718	628de7e8ff1744a9717d7883	241071847	1	main_z	11	main_z	39	stimuli_target_squarediamonds.svg	stimuli_distractor_diamondtriangles.svg	8	yes	44	1	1311
6.6.1	win	2022-12-23	09:40:06	09:56:00	943718	628de7e8ff1744a9717d7883	241071847	1	main_z	11	advance_on_keypress_ZEE	40	stimuli_target_squarediamonds.svg	stimuli_distractor_diamondtriangles.svg	8	yes	57	0	791
6.6.1	win	2022-12-23	09:40:06	09:56:03	946772	628de7e8ff1744a9717d7883	241071847	1	main_z	11	main_z	41	stimuli_distractor_diamondtriangles.svg	stimuli_distractor_trianglediamonds.svg	37	no	44	0	1632
6.6.1	win	2022-12-23	09:40:06	09:56:03	946772	628de7e8ff1744a9717d7883	241071847	1	main_z	11	advance_on_keypress_ZEE	42	stimuli_distractor_diamondtriangles.svg	stimuli_distractor_trianglediamonds.svg	37	no	57	0	858
6.6.1	win	2022-12-23	09:40:06	09:56:06	949857	628de7e8ff1744a9717d7883	241071847	1	main_z	11	main_z	43	stimuli_distractor_trianglediamonds.svg	stimuli_distractor_diamondtriangles.svg	36	no	44	0	1586
6.6.1	win	2022-12-23	09:40:06	09:56:06	949857	628de7e8ff1744a9717d7883	241071847	1	main_z	11	advance_on_keypress_ZEE	44	stimuli_distractor_trianglediamonds.svg	stimuli_distractor_diamondtriangles.svg	36	no	57	0	861
6.6.1	win	2022-12-23	09:40:06	09:56:09	952137	628de7e8ff1744a9717d7883	241071847	1	main_z	11	main_z	45	stimuli_distractor_trianglediamonds.svg	stimuli_target_diamondsquares.svg	28	yes	44	1	782
6.6.1	win	2022-12-23	09:40:06	09:56:09	952137	628de7e8ff1744a9717d7883	241071847	1	main_z	11	advance_on_keypress_ZEE	46	stimuli_distractor_trianglediamonds.svg	stimuli_target_diamondsquares.svg	28	yes	57	0	813
6.6.1	win	2022-12-23	09:40:06	09:56:12	955240	628de7e8ff1744a9717d7883	241071847	1	main_z	11	main_z	47	stimuli_distractor_diamondtriangles.svg	stimuli_target_diamondcircles.svg	31	yes	44	1	1636
6.6.1	win	2022-12-23	09:40:06	09:56:12	955240	628de7e8ff1744a9717d7883	241071847	1	main_z	11	advance_on_keypress_ZEE	48	stimuli_distractor_diamondtriangles.svg	stimuli_target_diamondcircles.svg	31	yes	57	0	876
6.6.1	win	2022-12-23	09:40:06	09:56:15	958361	628de7e8ff1744a9717d7883	241071847	1	main_z	11	main_z	49	stimuli_distractor_trianglediamonds.svg	stimuli_distractor_trianglediamonds.svg	34	no	44	0	1608
6.6.1	win	2022-12-23	09:40:06	09:56:15	958361	628de7e8ff1744a9717d7883	241071847	1	main_z	11	advance_on_keypress_ZEE	50	stimuli_distractor_trianglediamonds.svg	stimuli_distractor_trianglediamonds.svg	34	no	57	0	912
6.6.1	win	2022-12-23	09:40:06	09:56:18	961268	628de7e8ff1744a9717d7883	241071847	1	main_z	11	main_z	51	stimuli_distractor_trianglediamonds.svg	stimuli_distractor_diamondtriangles.svg	35	no	44	0	1348
6.6.1	win	2022-12-23	09:40:06	09:56:18	961268	628de7e8ff1744a9717d7883	241071847	1	main_z	11	advance_on_keypress_ZEE	52	stimuli_distractor_trianglediamonds.svg	stimuli_distractor_diamondtriangles.svg	35	no	57	0	700
6.6.1	win	2022-12-23	09:40:06	09:56:21	964163	628de7e8ff1744a9717d7883	241071847	1	main_z	11	main_z	53	stimuli_distractor_diamondtriangles.svg	stimuli_target_trianglecircles.svg	29	yes	44	1	1544
6.6.1	win	2022-12-23	09:40:06	09:56:21	964163	628de7e8ff1744a9717d7883	241071847	1	main_z	11	advance_on_keypress_ZEE	54	stimuli_distractor_diamondtriangles.svg	stimuli_target_trianglecircles.svg	29	yes	57	0	530
6.6.1	win	2022-12-23	09:40:06	09:56:24	967132	628de7e8ff1744a9717d7883	241071847	1	main_z	11	main_z	55	stimuli_distractor_diamondtriangles.svg	stimuli_target_squaretriangles.svg	15	yes	44	1	1781
6.6.1	win	2022-12-23	09:40:06	09:56:24	967132	628de7e8ff1744a9717d7883	241071847	1	main_z	11	advance_on_keypress_ZEE	56	stimuli_distractor_diamondtriangles.svg	stimuli_target_squaretriangles.svg	15	yes	57	0	835
6.6.1	win	2022-12-23	09:40:06	09:56:27	970870	628de7e8ff1744a9717d7883	241071847	1	main_z	11	main_z	57	stimuli_target_trianglecircles.svg	stimuli_distractor_trianglediamonds.svg	17	yes	0	0	2000
6.6.1	win	2022-12-23	09:40:06	09:56:27	970870	628de7e8ff1744a9717d7883	241071847	1	main_z	11	advance_on_keypress_ZEE	58	stimuli_target_trianglecircles.svg	stimuli_distractor_trianglediamonds.svg	17	yes	57	0	992
6.6.1	win	2022-12-23	09:40:06	09:56:31	974360	628de7e8ff1744a9717d7883	241071847	1	main_z	11	main_z	59	stimuli_distractor_diamondtriangles.svg	stimuli_target_trianglesquares.svg	30	yes	44	1	1560
6.6.1	win	2022-12-23	09:40:06	09:56:31	974360	628de7e8ff1744a9717d7883	241071847	1	main_z	11	advance_on_keypress_ZEE	60	stimuli_distractor_diamondtriangles.svg	stimuli_target_trianglesquares.svg	30	yes	57	0	393
6.6.1	win	2022-12-23	09:40:06	09:56:33	976731	628de7e8ff1744a9717d7883	241071847	1	main_z	11	main_z	61	stimuli_target_diamondsquares.svg	stimuli_distractor_diamondtriangles.svg	24	yes	44	1	1349
6.6.1	win	2022-12-23	09:40:06	09:56:33	976731	628de7e8ff1744a9717d7883	241071847	1	main_z	11	advance_on_keypress_ZEE	62	stimuli_target_diamondsquares.svg	stimuli_distractor_diamondtriangles.svg	24	yes	57	0	878
6.6.1	win	2022-12-23	09:40:06	09:56:36	979546	628de7e8ff1744a9717d7883	241071847	1	main_z	11	main_z	63	stimuli_target_diamondsquares.svg	stimuli_distractor_trianglediamonds.svg	20	yes	44	1	1281
6.6.1	win	2022-12-23	09:40:06	09:56:36	979546	628de7e8ff1744a9717d7883	241071847	1	main_z	11	advance_on_keypress_ZEE	64	stimuli_target_diamondsquares.svg	stimuli_distractor_trianglediamonds.svg	20	yes	57	0	794
6.6.1	win	2022-12-23	09:40:06	09:56:39	982291	628de7e8ff1744a9717d7883	241071847	1	main_z	11	main_z	65	stimuli_target_circletriangles.svg	stimuli_distractor_trianglediamonds.svg	1	yes	44	1	1293
6.6.1	win	2022-12-23	09:40:06	09:56:39	982291	628de7e8ff1744a9717d7883	241071847	1	main_z	11	advance_on_keypress_ZEE	66	stimuli_target_circletriangles.svg	stimuli_distractor_trianglediamonds.svg	1	yes	57	0	367
6.6.1	win	2022-12-23	09:40:06	09:56:41	984407	628de7e8ff1744a9717d7883	241071847	1	main_z	11	main_z	67	stimuli_target_circletriangles.svg	stimuli_distractor_diamondtriangles.svg	5	yes	44	1	1110
6.6.1	win	2022-12-23	09:40:06	09:56:41	984407	628de7e8ff1744a9717d7883	241071847	1	main_z	11	advance_on_keypress_ZEE	68	stimuli_target_circletriangles.svg	stimuli_distractor_diamondtriangles.svg	5	yes	57	0	634
6.6.1	win	2022-12-23	09:40:06	09:56:44	987681	628de7e8ff1744a9717d7883	241071847	1	main_z	11	main_z	69	stimuli_target_diamondcircles.svg	stimuli_distractor_trianglediamonds.svg	19	yes	0	0	2000
6.6.1	win	2022-12-23	09:40:06	09:56:44	987681	628de7e8ff1744a9717d7883	241071847	1	main_z	11	advance_on_keypress_ZEE	70	stimuli_target_diamondcircles.svg	stimuli_distractor_trianglediamonds.svg	19	yes	57	0	1044
6.6.1	win	2022-12-23	09:40:06	09:56:47	990763	628de7e8ff1744a9717d7883	241071847	1	main_z	11	main_z	71	stimuli_target_diamondcircles.svg	stimuli_distractor_diamondtriangles.svg	23	yes	44	1	1401
6.6.1	win	2022-12-23	09:40:06	09:56:47	990763	628de7e8ff1744a9717d7883	241071847	1	main_z	11	advance_on_keypress_ZEE	72	stimuli_target_diamondcircles.svg	stimuli_distractor_diamondtriangles.svg	23	yes	57	0	840
6.6.1	win	2022-12-23	09:40:06	09:56:50	993722	628de7e8ff1744a9717d7883	241071847	1	main_z	11	main_z	73	stimuli_target_circlediamonds.svg	stimuli_distractor_trianglediamonds.svg	2	yes	44	1	1478
6.6.1	win	2022-12-23	09:40:06	09:56:50	993722	628de7e8ff1744a9717d7883	241071847	1	main_z	11	advance_on_keypress_ZEE	74	stimuli_target_circlediamonds.svg	stimuli_distractor_trianglediamonds.svg	2	yes	57	0	871
6.6.1	win	2022-12-23	09:40:06	09:56:53	996042	628de7e8ff1744a9717d7883	241071847	1	main_z	11	main_z	75	stimuli_distractor_diamondtriangles.svg	stimuli_target_squarediamonds.svg	16	yes	44	1	816
6.6.1	win	2022-12-23	09:40:06	09:56:53	996042	628de7e8ff1744a9717d7883	241071847	1	main_z	11	advance_on_keypress_ZEE	76	stimuli_distractor_diamondtriangles.svg	stimuli_target_squarediamonds.svg	16	yes	57	0	532
6.6.1	win	2022-12-23	09:40:06	09:56:56	999225	628de7e8ff1744a9717d7883	241071847	1	main_z	11	main_z	77	stimuli_distractor_diamondtriangles.svg	stimuli_distractor_diamondtriangles.svg	39	no	0	1	2000
6.6.1	win	2022-12-23	09:40:06	09:56:56	999225	628de7e8ff1744a9717d7883	241071847	1	main_z	11	advance_on_keypress_ZEE	78	stimuli_distractor_diamondtriangles.svg	stimuli_distractor_diamondtriangles.svg	39	no	57	0	802
6.6.1	win	2022-12-23	09:40:06	09:56:58	1001817	628de7e8ff1744a9717d7883	241071847	1	main_z	11	main_z	79	stimuli_target_squaretriangles.svg	stimuli_distractor_trianglediamonds.svg	3	yes	44	1	1142
6.6.1	win	2022-12-23	09:40:06	09:56:58	1001817	628de7e8ff1744a9717d7883	241071847	1	main_z	11	advance_on_keypress_ZEE	80	stimuli_target_squaretriangles.svg	stimuli_distractor_trianglediamonds.svg	3	yes	57	0	782
6.6.1	win	2022-12-23	09:40:06	09:57:01	1004783	628de7e8ff1744a9717d7883	241071847	1	main_z	11	main_z	81	stimuli_distractor_diamondtriangles.svg	stimuli_target_circlediamonds.svg	14	yes	44	1	1543
6.6.1	win	2022-12-23	09:40:06	09:57:01	1004783	628de7e8ff1744a9717d7883	241071847	1	main_z	11	advance_on_keypress_ZEE	82	stimuli_distractor_diamondtriangles.svg	stimuli_target_circlediamonds.svg	14	yes	57	0	843
6.6.1	win	2022-12-23	09:40:06	09:57:04	1007915	628de7e8ff1744a9717d7883	241071847	1	main_z	11	main_z	83	stimuli_target_trianglesquares.svg	stimuli_distractor_diamondtriangles.svg	22	yes	44	1	1657
6.6.1	win	2022-12-23	09:40:06	09:57:04	1007915	628de7e8ff1744a9717d7883	241071847	1	main_z	11	advance_on_keypress_ZEE	84	stimuli_target_trianglesquares.svg	stimuli_distractor_diamondtriangles.svg	22	yes	57	0	187
6.6.1	win	2022-12-23	09:40:06	09:57:07	1010230	628de7e8ff1744a9717d7883	241071847	1	main_z	11	main_z	85	stimuli_distractor_trianglediamonds.svg	stimuli_target_circletriangles.svg	9	yes	44	1	1491
6.6.1	win	2022-12-23	09:40:06	09:57:07	1010230	628de7e8ff1744a9717d7883	241071847	1	main_z	11	advance_on_keypress_ZEE	86	stimuli_distractor_trianglediamonds.svg	stimuli_target_circletriangles.svg	9	yes	57	0	419
6.6.1	win	2022-12-23	09:40:06	09:57:10	1013289	628de7e8ff1744a9717d7883	241071847	1	main_z	11	main_z	87	stimuli_distractor_diamondtriangles.svg	stimuli_distractor_trianglediamonds.svg	38	no	0	1	2000
6.6.1	win	2022-12-23	09:40:06	09:57:10	1013289	628de7e8ff1744a9717d7883	241071847	1	main_z	11	advance_on_keypress_ZEE	88	stimuli_distractor_diamondtriangles.svg	stimuli_distractor_trianglediamonds.svg	38	no	57	0	882
6.6.1	win	2022-12-23	09:40:06	09:57:13	1016643	628de7e8ff1744a9717d7883	241071847	1	main_z	11	main_z	89	stimuli_target_squaretriangles.svg	stimuli_distractor_diamondtriangles.svg	7	yes	44	1	1822
6.6.1	win	2022-12-23	09:40:06	09:57:13	1016643	628de7e8ff1744a9717d7883	241071847	1	main_z	11	advance_on_keypress_ZEE	90	stimuli_target_squaretriangles.svg	stimuli_distractor_diamondtriangles.svg	7	yes	57	0	879
6.6.1	win	2022-12-23	09:40:06	09:57:17	1020172	628de7e8ff1744a9717d7883	241071847	1	main_z	11	main_z	91	stimuli_distractor_diamondtriangles.svg	stimuli_distractor_diamondtriangles.svg	40	no	0	1	2000
6.6.1	win	2022-12-23	09:40:06	09:57:17	1020172	628de7e8ff1744a9717d7883	241071847	1	main_z	11	advance_on_keypress_ZEE	92	stimuli_distractor_diamondtriangles.svg	stimuli_distractor_diamondtriangles.svg	40	no	57	0	718
6.6.1	win	2022-12-23	09:40:06	09:57:19	1022935	628de7e8ff1744a9717d7883	241071847	1	main_z	11	main_z	93	stimuli_distractor_trianglediamonds.svg	stimuli_target_trianglecircles.svg	25	yes	44	1	1399
6.6.1	win	2022-12-23	09:40:06	09:57:19	1022935	628de7e8ff1744a9717d7883	241071847	1	main_z	11	advance_on_keypress_ZEE	94	stimuli_distractor_trianglediamonds.svg	stimuli_target_trianglecircles.svg	25	yes	57	0	403
6.6.1	win	2022-12-23	09:40:06	09:57:22	1025211	628de7e8ff1744a9717d7883	241071847	1	main_z	11	main_z	95	stimuli_target_circlediamonds.svg	stimuli_distractor_trianglediamonds.svg	2	yes	44	1	1226
6.6.1	win	2022-12-23	09:40:06	09:57:22	1025211	628de7e8ff1744a9717d7883	241071847	1	main_z	11	advance_on_keypress_ZEE	96	stimuli_target_circlediamonds.svg	stimuli_distractor_trianglediamonds.svg	2	yes	57	0	368
6.6.1	win	2022-12-23	09:40:06	09:57:24	1027662	628de7e8ff1744a9717d7883	241071847	1	main_z	11	main_z	97	stimuli_target_trianglecircles.svg	stimuli_distractor_diamondtriangles.svg	21	yes	44	1	1441
6.6.1	win	2022-12-23	09:40:06	09:57:24	1027662	628de7e8ff1744a9717d7883	241071847	1	main_z	11	advance_on_keypress_ZEE	98	stimuli_target_trianglecircles.svg	stimuli_distractor_diamondtriangles.svg	21	yes	57	0	820
6.6.1	win	2022-12-23	09:40:06	09:57:27	1030397	628de7e8ff1744a9717d7883	241071847	1	main_z	11	main_z	99	stimuli_distractor_trianglediamonds.svg	stimuli_distractor_trianglediamonds.svg	34	no	44	0	1280
6.6.1	win	2022-12-23	09:40:06	09:57:27	1030397	628de7e8ff1744a9717d7883	241071847	1	main_z	11	advance_on_keypress_ZEE	100	stimuli_distractor_trianglediamonds.svg	stimuli_distractor_trianglediamonds.svg	34	no	57	0	879
6.6.1	win	2022-12-23	09:40:06	09:57:30	1033082	628de7e8ff1744a9717d7883	241071847	1	main_z	11	main_z	101	stimuli_distractor_diamondtriangles.svg	stimuli_target_diamondsquares.svg	32	yes	44	1	1149
6.6.1	win	2022-12-23	09:40:06	09:57:30	1033082	628de7e8ff1744a9717d7883	241071847	1	main_z	11	advance_on_keypress_ZEE	102	stimuli_distractor_diamondtriangles.svg	stimuli_target_diamondsquares.svg	32	yes	57	0	688
6.6.1	win	2022-12-23	09:40:06	09:57:32	1035983	628de7e8ff1744a9717d7883	241071847	1	main_z	11	main_z	103	stimuli_target_trianglecircles.svg	stimuli_distractor_trianglediamonds.svg	17	yes	44	1	1567
6.6.1	win	2022-12-23	09:40:06	09:57:32	1035983	628de7e8ff1744a9717d7883	241071847	1	main_z	11	advance_on_keypress_ZEE	104	stimuli_target_trianglecircles.svg	stimuli_distractor_trianglediamonds.svg	17	yes	57	0	1306
6.6.1	win	2022-12-23	09:40:06	09:57:35	1038950	628de7e8ff1744a9717d7883	241071847	1	main_z	11	main_z	105	stimuli_target_squaretriangles.svg	stimuli_distractor_trianglediamonds.svg	3	yes	44	1	1015
6.6.1	win	2022-12-23	09:40:06	09:57:35	1038950	628de7e8ff1744a9717d7883	241071847	1	main_z	11	advance_on_keypress_ZEE	106	stimuli_target_squaretriangles.svg	stimuli_distractor_trianglediamonds.svg	3	yes	57	0	776
6.6.1	win	2022-12-23	09:40:06	09:57:38	1041719	628de7e8ff1744a9717d7883	241071847	1	main_z	11	main_z	107	stimuli_distractor_diamondtriangles.svg	stimuli_distractor_trianglediamonds.svg	37	no	44	0	1355
6.6.1	win	2022-12-23	09:40:06	09:57:38	1041719	628de7e8ff1744a9717d7883	241071847	1	main_z	11	advance_on_keypress_ZEE	108	stimuli_distractor_diamondtriangles.svg	stimuli_distractor_trianglediamonds.svg	37	no	57	0	1131
6.6.1	win	2022-12-23	09:40:06	09:57:42	1045110	628de7e8ff1744a9717d7883	241071847	1	main_z	11	main_z	109	stimuli_distractor_diamondtriangles.svg	stimuli_target_trianglesquares.svg	30	yes	44	1	1013
6.6.1	win	2022-12-23	09:40:06	09:57:42	1045110	628de7e8ff1744a9717d7883	241071847	1	main_z	11	advance_on_keypress_ZEE	110	stimuli_distractor_diamondtriangles.svg	stimuli_target_trianglesquares.svg	30	yes	57	0	864
6.6.1	win	2022-12-23	09:40:06	09:57:44	1047771	628de7e8ff1744a9717d7883	241071847	1	main_z	11	main_z	111	stimuli_distractor_trianglediamonds.svg	stimuli_target_diamondsquares.svg	28	yes	44	1	1142
6.6.1	win	2022-12-23	09:40:06	09:57:44	1047771	628de7e8ff1744a9717d7883	241071847	1	main_z	11	advance_on_keypress_ZEE	112	stimuli_distractor_trianglediamonds.svg	stimuli_target_diamondsquares.svg	28	yes	57	0	818
6.6.1	win	2022-12-23	09:40:06	09:57:46	1049841	628de7e8ff1744a9717d7883	241071847	1	main_z	11	main_z	113	stimuli_distractor_trianglediamonds.svg	stimuli_target_squaretriangles.svg	11	yes	44	1	612
6.6.1	win	2022-12-23	09:40:06	09:57:46	1049841	628de7e8ff1744a9717d7883	241071847	1	main_z	11	advance_on_keypress_ZEE	114	stimuli_distractor_trianglediamonds.svg	stimuli_target_squaretriangles.svg	11	yes	57	0	717
6.6.1	win	2022-12-23	09:40:06	09:57:50	1053312	628de7e8ff1744a9717d7883	241071847	1	main_z	11	main_z	115	stimuli_target_circletriangles.svg	stimuli_distractor_trianglediamonds.svg	1	yes	0	0	2000
6.6.1	win	2022-12-23	09:40:06	09:57:50	1053312	628de7e8ff1744a9717d7883	241071847	1	main_z	11	advance_on_keypress_ZEE	116	stimuli_target_circletriangles.svg	stimuli_distractor_trianglediamonds.svg	1	yes	57	0	1248
6.6.1	win	2022-12-23	09:40:06	09:57:53	1056359	628de7e8ff1744a9717d7883	241071847	1	main_z	11	main_z	117	stimuli_distractor_trianglediamonds.svg	stimuli_target_circlediamonds.svg	10	yes	44	1	1149
6.6.1	win	2022-12-23	09:40:06	09:57:53	1056359	628de7e8ff1744a9717d7883	241071847	1	main_z	11	advance_on_keypress_ZEE	118	stimuli_distractor_trianglediamonds.svg	stimuli_target_circlediamonds.svg	10	yes	57	0	726
6.6.1	win	2022-12-23	09:40:06	09:57:55	1058849	628de7e8ff1744a9717d7883	241071847	1	main_z	11	main_z	119	stimuli_distractor_diamondtriangles.svg	stimuli_target_trianglecircles.svg	29	yes	44	1	1124
6.6.1	win	2022-12-23	09:40:06	09:57:55	1058849	628de7e8ff1744a9717d7883	241071847	1	main_z	11	advance_on_keypress_ZEE	120	stimuli_distractor_diamondtriangles.svg	stimuli_target_trianglecircles.svg	29	yes	57	0	804
6.6.1	win	2022-12-23	09:40:06	09:57:58	1061370	628de7e8ff1744a9717d7883	241071847	1	main_z	11	main_z	121	stimuli_distractor_diamondtriangles.svg	stimuli_distractor_diamondtriangles.svg	39	no	44	0	1078
6.6.1	win	2022-12-23	09:40:06	09:57:58	1061370	628de7e8ff1744a9717d7883	241071847	1	main_z	11	advance_on_keypress_ZEE	122	stimuli_distractor_diamondtriangles.svg	stimuli_distractor_diamondtriangles.svg	39	no	57	0	44
6.6.1	win	2022-12-23	09:40:06	09:58:00	1063616	628de7e8ff1744a9717d7883	241071847	1	main_z	11	main_z	123	stimuli_target_squarediamonds.svg	stimuli_distractor_trianglediamonds.svg	4	yes	44	1	1574
6.6.1	win	2022-12-23	09:40:06	09:58:00	1063616	628de7e8ff1744a9717d7883	241071847	1	main_z	11	advance_on_keypress_ZEE	124	stimuli_target_squarediamonds.svg	stimuli_distractor_trianglediamonds.svg	4	yes	57	0	832
6.6.1	win	2022-12-23	09:40:06	09:58:03	1066493	628de7e8ff1744a9717d7883	241071847	1	main_z	11	main_z	125	stimuli_target_diamondsquares.svg	stimuli_distractor_diamondtriangles.svg	24	yes	44	1	1401
6.6.1	win	2022-12-23	09:40:06	09:58:03	1066493	628de7e8ff1744a9717d7883	241071847	1	main_z	11	advance_on_keypress_ZEE	126	stimuli_target_diamondsquares.svg	stimuli_distractor_diamondtriangles.svg	24	yes	57	0	350
6.6.1	win	2022-12-23	09:40:06	09:58:05	1069016	628de7e8ff1744a9717d7883	241071847	1	main_z	11	main_z	127	stimuli_target_squarediamonds.svg	stimuli_distractor_diamondtriangles.svg	8	yes	44	1	1525
6.6.1	win	2022-12-23	09:40:06	09:58:05	1069016	628de7e8ff1744a9717d7883	241071847	1	main_z	11	advance_on_keypress_ZEE	128	stimuli_target_squarediamonds.svg	stimuli_distractor_diamondtriangles.svg	8	yes	57	0	2476
6.6.1	win	2022-12-23	09:40:06	09:58:10	1073270	628de7e8ff1744a9717d7883	241071847	1	main_z	11	main_z	129	stimuli_distractor_trianglediamonds.svg	stimuli_target_trianglesquares.svg	26	yes	44	1	1147
6.6.1	win	2022-12-23	09:40:06	09:58:10	1073270	628de7e8ff1744a9717d7883	241071847	1	main_z	11	advance_on_keypress_ZEE	130	stimuli_distractor_trianglediamonds.svg	stimuli_target_trianglesquares.svg	26	yes	57	0	739
6.6.1	win	2022-12-23	09:40:06	09:58:12	1075782	628de7e8ff1744a9717d7883	241071847	1	main_z	11	main_z	131	stimuli_distractor_diamondtriangles.svg	stimuli_target_squarediamonds.svg	16	yes	44	1	1128
6.6.1	win	2022-12-23	09:40:06	09:58:12	1075782	628de7e8ff1744a9717d7883	241071847	1	main_z	11	advance_on_keypress_ZEE	132	stimuli_distractor_diamondtriangles.svg	stimuli_target_squarediamonds.svg	16	yes	57	0	791
6.6.1	win	2022-12-23	09:40:06	09:58:15	1078725	628de7e8ff1744a9717d7883	241071847	1	main_z	11	main_z	133	stimuli_distractor_trianglediamonds.svg	stimuli_distractor_trianglediamonds.svg	33	no	44	0	1522
6.6.1	win	2022-12-23	09:40:06	09:58:15	1078725	628de7e8ff1744a9717d7883	241071847	1	main_z	11	advance_on_keypress_ZEE	134	stimuli_distractor_trianglediamonds.svg	stimuli_distractor_trianglediamonds.svg	33	no	57	0	162
6.6.1	win	2022-12-23	09:40:06	09:58:17	1080982	628de7e8ff1744a9717d7883	241071847	1	main_z	11	main_z	135	stimuli_distractor_trianglediamonds.svg	stimuli_distractor_diamondtriangles.svg	35	no	44	0	1461
6.6.1	win	2022-12-23	09:40:06	09:58:17	1080982	628de7e8ff1744a9717d7883	241071847	1	main_z	11	advance_on_keypress_ZEE	136	stimuli_distractor_trianglediamonds.svg	stimuli_distractor_diamondtriangles.svg	35	no	57	0	80
6.6.1	win	2022-12-23	09:40:06	09:58:19	1082896	628de7e8ff1744a9717d7883	241071847	1	main_z	11	main_z	137	stimuli_target_diamondcircles.svg	stimuli_distractor_trianglediamonds.svg	19	yes	44	1	1193
6.6.1	win	2022-12-23	09:40:06	09:58:19	1082896	628de7e8ff1744a9717d7883	241071847	1	main_z	11	advance_on_keypress_ZEE	138	stimuli_target_diamondcircles.svg	stimuli_distractor_trianglediamonds.svg	19	yes	57	0	77
6.6.1	win	2022-12-23	09:40:06	09:58:22	1085072	628de7e8ff1744a9717d7883	241071847	1	main_z	11	main_z	139	stimuli_target_diamondsquares.svg	stimuli_distractor_trianglediamonds.svg	20	yes	44	1	1469
6.6.1	win	2022-12-23	09:40:06	09:58:22	1085072	628de7e8ff1744a9717d7883	241071847	1	main_z	11	advance_on_keypress_ZEE	140	stimuli_target_diamondsquares.svg	stimuli_distractor_trianglediamonds.svg	20	yes	57	0	806
6.6.1	win	2022-12-23	09:40:06	09:58:24	1087864	628de7e8ff1744a9717d7883	241071847	1	main_z	11	main_z	141	stimuli_target_diamondcircles.svg	stimuli_distractor_diamondtriangles.svg	23	yes	44	1	1346
6.6.1	win	2022-12-23	09:40:06	09:58:24	1087864	628de7e8ff1744a9717d7883	241071847	1	main_z	11	advance_on_keypress_ZEE	142	stimuli_target_diamondcircles.svg	stimuli_distractor_diamondtriangles.svg	23	yes	57	0	0
6.6.1	win	2022-12-23	09:40:06	09:58:26	1089550	628de7e8ff1744a9717d7883	241071847	1	main_z	11	main_z	143	stimuli_distractor_diamondtriangles.svg	stimuli_target_diamondcircles.svg	31	yes	44	1	799
6.6.1	win	2022-12-23	09:40:06	09:58:26	1089550	628de7e8ff1744a9717d7883	241071847	1	main_z	11	advance_on_keypress_ZEE	144	stimuli_distractor_diamondtriangles.svg	stimuli_target_diamondcircles.svg	31	yes	57	0	15
6.6.1	win	2022-12-23	09:40:06	09:58:28	1091377	628de7e8ff1744a9717d7883	241071847	1	main_z	11	main_z	145	stimuli_distractor_trianglediamonds.svg	stimuli_target_diamondcircles.svg	27	yes	44	1	1158
6.6.1	win	2022-12-23	09:40:06	09:58:28	1091377	628de7e8ff1744a9717d7883	241071847	1	main_z	11	advance_on_keypress_ZEE	146	stimuli_distractor_trianglediamonds.svg	stimuli_target_diamondcircles.svg	27	yes	57	0	1657
6.6.1	win	2022-12-23	09:40:06	09:58:32	1095199	628de7e8ff1744a9717d7883	241071847	1	main_z	11	main_z	147	stimuli_distractor_trianglediamonds.svg	stimuli_distractor_diamondtriangles.svg	36	no	44	0	1488
6.6.1	win	2022-12-23	09:40:06	09:58:32	1095199	628de7e8ff1744a9717d7883	241071847	1	main_z	11	advance_on_keypress_ZEE	148	stimuli_distractor_trianglediamonds.svg	stimuli_distractor_diamondtriangles.svg	36	no	57	0	796
6.6.1	win	2022-12-23	09:40:06	09:58:34	1097077	628de7e8ff1744a9717d7883	241071847	1	main_z	11	main_z	149	stimuli_distractor_diamondtriangles.svg	stimuli_target_circletriangles.svg	13	yes	44	1	427
6.6.1	win	2022-12-23	09:40:06	09:58:34	1097077	628de7e8ff1744a9717d7883	241071847	1	main_z	11	advance_on_keypress_ZEE	150	stimuli_distractor_diamondtriangles.svg	stimuli_target_circletriangles.svg	13	yes	57	0	19
6.6.1	win	2022-12-23	09:40:06	09:58:35	1098625	628de7e8ff1744a9717d7883	241071847	1	main_z	11	main_z	151	stimuli_distractor_diamondtriangles.svg	stimuli_target_squaretriangles.svg	15	yes	44	1	875
6.6.1	win	2022-12-23	09:40:06	09:58:35	1098625	628de7e8ff1744a9717d7883	241071847	1	main_z	11	advance_on_keypress_ZEE	152	stimuli_distractor_diamondtriangles.svg	stimuli_target_squaretriangles.svg	15	yes	57	0	872
6.6.1	win	2022-12-23	09:40:06	09:58:37	1100564	628de7e8ff1744a9717d7883	241071847	1	main_z	11	main_z	153	stimuli_target_circletriangles.svg	stimuli_distractor_diamondtriangles.svg	5	yes	44	1	415
6.6.1	win	2022-12-23	09:40:06	09:58:37	1100564	628de7e8ff1744a9717d7883	241071847	1	main_z	11	advance_on_keypress_ZEE	154	stimuli_target_circletriangles.svg	stimuli_distractor_diamondtriangles.svg	5	yes	57	0	670
6.6.1	win	2022-12-23	09:40:06	09:58:39	1102236	628de7e8ff1744a9717d7883	241071847	1	main_z	11	main_z	155	stimuli_target_circlediamonds.svg	stimuli_distractor_diamondtriangles.svg	6	yes	44	1	356
6.6.1	win	2022-12-23	09:40:06	09:58:39	1102236	628de7e8ff1744a9717d7883	241071847	1	main_z	11	advance_on_keypress_ZEE	156	stimuli_target_circlediamonds.svg	stimuli_distractor_diamondtriangles.svg	6	yes	57	0	821
6.6.1	win	2022-12-23	09:40:06	09:58:41	1104955	628de7e8ff1744a9717d7883	241071847	1	main_z	11	main_z	157	stimuli_target_trianglesquares.svg	stimuli_distractor_trianglediamonds.svg	18	yes	44	1	1255
6.6.1	win	2022-12-23	09:40:06	09:58:41	1104955	628de7e8ff1744a9717d7883	241071847	1	main_z	11	advance_on_keypress_ZEE	158	stimuli_target_trianglesquares.svg	stimuli_distractor_trianglediamonds.svg	18	yes	57	0	1698
6.6.1	win	2022-12-23	09:40:06	09:58:44	1107653	628de7e8ff1744a9717d7883	241071847	1	main_z	11	main_z	159	stimuli_distractor_trianglediamonds.svg	stimuli_target_squarediamonds.svg	12	yes	44	1	358
6.6.1	win	2022-12-23	09:40:06	09:58:44	1107653	628de7e8ff1744a9717d7883	241071847	1	main_z	11	advance_on_keypress_ZEE	160	stimuli_distractor_trianglediamonds.svg	stimuli_target_squarediamonds.svg	12	yes	57	0	136