build	computer.platform	date	time	timestamp	time_elapsed_ms	subject	group	session	blockcode	blocknum	trialcode	trialnum	stimulus_left	stimulus_right	stim_index	target_present	response	correct	latency
6.6.1	win	2022-12-14	22:00:22	22:02:45	141049	6306f070d4f94e56cb544400	103002848	1	practice_z	5	practice_z	1	stimuli_distractor_trianglediamonds.svg	stimuli_distractor_diamondtriangles.svg	16	no	0	1	2003
6.6.1	win	2022-12-14	22:00:22	22:02:45	141049	6306f070d4f94e56cb544400	103002848	1	practice_z	5	advance_on_keypress_ZEE	2	stimuli_distractor_trianglediamonds.svg	stimuli_distractor_diamondtriangles.svg	16	no	57	0	1855
6.6.1	win	2022-12-14	22:00:22	22:02:50	145759	6306f070d4f94e56cb544400	103002848	1	practice_z	5	practice_z	3	stimuli_distractor_diamondtriangles.svg	stimuli_target_circletriangles.svg	7	yes	44	1	1214
6.6.1	win	2022-12-14	22:00:22	22:02:50	145759	6306f070d4f94e56cb544400	103002848	1	practice_z	5	advance_on_keypress_ZEE	4	stimuli_distractor_diamondtriangles.svg	stimuli_target_circletriangles.svg	7	yes	57	0	1849
6.6.1	win	2022-12-14	22:00:22	22:02:54	150528	6306f070d4f94e56cb544400	103002848	1	practice_z	5	practice_z	5	stimuli_target_circlediamonds.svg	stimuli_distractor_trianglediamonds.svg	4	yes	44	1	1299
6.6.1	win	2022-12-14	22:00:22	22:02:54	150528	6306f070d4f94e56cb544400	103002848	1	practice_z	5	advance_on_keypress_ZEE	6	stimuli_target_circlediamonds.svg	stimuli_distractor_trianglediamonds.svg	4	yes	57	0	952
6.6.1	win	2022-12-14	22:00:22	22:02:59	155101	6306f070d4f94e56cb544400	103002848	1	practice_z	5	practice_z	7	stimuli_distractor_diamondtriangles.svg	stimuli_distractor_trianglediamonds.svg	14	no	0	1	2003
6.6.1	win	2022-12-14	22:00:22	22:02:59	155101	6306f070d4f94e56cb544400	103002848	1	practice_z	5	advance_on_keypress_ZEE	8	stimuli_distractor_diamondtriangles.svg	stimuli_distractor_trianglediamonds.svg	14	no	57	0	721
6.6.1	win	2022-12-14	22:00:22	22:03:03	159460	6306f070d4f94e56cb544400	103002848	1	practice_z	5	practice_z	9	stimuli_distractor_trianglediamonds.svg	stimuli_distractor_trianglediamonds.svg	15	no	0	1	2003
6.6.1	win	2022-12-14	22:00:22	22:03:03	159460	6306f070d4f94e56cb544400	103002848	1	practice_z	5	advance_on_keypress_ZEE	10	stimuli_distractor_trianglediamonds.svg	stimuli_distractor_trianglediamonds.svg	15	no	57	0	585
6.6.1	win	2022-12-14	22:00:22	22:03:07	162911	6306f070d4f94e56cb544400	103002848	1	practice_z	5	practice_z	11	stimuli_target_squarediamonds.svg	stimuli_distractor_diamondtriangles.svg	2	yes	44	1	1230
6.6.1	win	2022-12-14	22:00:22	22:03:07	162911	6306f070d4f94e56cb544400	103002848	1	practice_z	5	advance_on_keypress_ZEE	12	stimuli_target_squarediamonds.svg	stimuli_distractor_diamondtriangles.svg	2	yes	57	0	516
6.6.1	win	2022-12-14	22:00:22	22:03:10	166350	6306f070d4f94e56cb544400	103002848	1	practice_z	5	practice_z	13	stimuli_distractor_diamondtriangles.svg	stimuli_target_diamondcircles.svg	8	yes	44	1	1287
6.6.1	win	2022-12-14	22:00:22	22:03:10	166350	6306f070d4f94e56cb544400	103002848	1	practice_z	5	advance_on_keypress_ZEE	14	stimuli_distractor_diamondtriangles.svg	stimuli_target_diamondcircles.svg	8	yes	57	0	707
6.6.1	win	2022-12-14	22:00:22	22:03:15	170701	6306f070d4f94e56cb544400	103002848	1	practice_z	5	practice_z	15	stimuli_distractor_diamondtriangles.svg	stimuli_distractor_diamondtriangles.svg	13	no	0	1	2003
6.6.1	win	2022-12-14	22:00:22	22:03:15	170701	6306f070d4f94e56cb544400	103002848	1	practice_z	5	advance_on_keypress_ZEE	16	stimuli_distractor_diamondtriangles.svg	stimuli_distractor_diamondtriangles.svg	13	no	57	0	277
6.6.1	win	2022-12-14	22:00:22	22:03:17	173311	6306f070d4f94e56cb544400	103002848	1	practice_z	5	practice_z	17	stimuli_distractor_trianglediamonds.svg	stimuli_target_diamondcircles.svg	12	yes	44	1	695
6.6.1	win	2022-12-14	22:00:22	22:03:17	173311	6306f070d4f94e56cb544400	103002848	1	practice_z	5	advance_on_keypress_ZEE	18	stimuli_distractor_trianglediamonds.svg	stimuli_target_diamondcircles.svg	12	yes	57	0	517
6.6.1	win	2022-12-14	22:00:22	22:03:20	176521	6306f070d4f94e56cb544400	103002848	1	practice_z	5	practice_z	19	stimuli_distractor_trianglediamonds.svg	stimuli_target_squarediamonds.svg	11	yes	44	1	1079
6.6.1	win	2022-12-14	22:00:22	22:03:20	176521	6306f070d4f94e56cb544400	103002848	1	practice_z	5	advance_on_keypress_ZEE	20	stimuli_distractor_trianglediamonds.svg	stimuli_target_squarediamonds.svg	11	yes	57	0	419
6.6.1	win	2022-12-14	22:00:22	22:03:23	179481	6306f070d4f94e56cb544400	103002848	1	practice_z	5	practice_z	21	stimuli_target_circlediamonds.svg	stimuli_distractor_diamondtriangles.svg	1	yes	44	1	904
6.6.1	win	2022-12-14	22:00:22	22:03:23	179481	6306f070d4f94e56cb544400	103002848	1	practice_z	5	advance_on_keypress_ZEE	22	stimuli_target_circlediamonds.svg	stimuli_distractor_diamondtriangles.svg	1	yes	57	0	347
6.6.1	win	2022-12-14	22:00:22	22:03:27	182927	6306f070d4f94e56cb544400	103002848	1	practice_z	5	practice_z	23	stimuli_distractor_diamondtriangles.svg	stimuli_target_trianglecircles.svg	9	yes	44	1	1483
6.6.1	win	2022-12-14	22:00:22	22:03:27	182927	6306f070d4f94e56cb544400	103002848	1	practice_z	5	advance_on_keypress_ZEE	24	stimuli_distractor_diamondtriangles.svg	stimuli_target_trianglecircles.svg	9	yes	57	0	464
6.6.1	win	2022-12-14	22:00:22	22:03:30	185802	6306f070d4f94e56cb544400	103002848	1	practice_z	5	practice_z	25	stimuli_target_squarediamonds.svg	stimuli_distractor_trianglediamonds.svg	5	yes	44	1	789
6.6.1	win	2022-12-14	22:00:22	22:03:30	185802	6306f070d4f94e56cb544400	103002848	1	practice_z	5	advance_on_keypress_ZEE	26	stimuli_target_squarediamonds.svg	stimuli_distractor_trianglediamonds.svg	5	yes	57	0	216
6.6.1	win	2022-12-14	22:00:22	22:03:34	189659	6306f070d4f94e56cb544400	103002848	1	practice_z	5	practice_z	27	stimuli_target_diamondsquares.svg	stimuli_distractor_diamondtriangles.svg	3	yes	0	0	2003
6.6.1	win	2022-12-14	22:00:22	22:03:34	189659	6306f070d4f94e56cb544400	103002848	1	practice_z	5	advance_on_keypress_ZEE	28	stimuli_target_diamondsquares.svg	stimuli_distractor_diamondtriangles.svg	3	yes	57	0	354
6.6.1	win	2022-12-14	22:00:22	22:03:36	192511	6306f070d4f94e56cb544400	103002848	1	practice_z	5	practice_z	29	stimuli_target_diamondsquares.svg	stimuli_distractor_trianglediamonds.svg	6	yes	44	1	861
6.6.1	win	2022-12-14	22:00:22	22:03:36	192511	6306f070d4f94e56cb544400	103002848	1	practice_z	5	advance_on_keypress_ZEE	30	stimuli_target_diamondsquares.svg	stimuli_distractor_trianglediamonds.svg	6	yes	57	0	403
6.6.1	win	2022-12-14	22:00:22	22:03:39	195561	6306f070d4f94e56cb544400	103002848	1	practice_z	5	practice_z	31	stimuli_distractor_trianglediamonds.svg	stimuli_target_circlediamonds.svg	10	yes	44	1	1009
6.6.1	win	2022-12-14	22:00:22	22:03:39	195561	6306f070d4f94e56cb544400	103002848	1	practice_z	5	advance_on_keypress_ZEE	32	stimuli_distractor_trianglediamonds.svg	stimuli_target_circlediamonds.svg	10	yes	57	0	540
6.6.1	win	2022-12-14	22:00:22	22:03:53	209360	6306f070d4f94e56cb544400	103002848	1	main_z	7	main_z	1	stimuli_distractor_diamondtriangles.svg	stimuli_target_diamondsquares.svg	32	yes	44	1	1192
6.6.1	win	2022-12-14	22:00:22	22:03:53	209360	6306f070d4f94e56cb544400	103002848	1	main_z	7	advance_on_keypress_ZEE	2	stimuli_distractor_diamondtriangles.svg	stimuli_target_diamondsquares.svg	32	yes	57	0	2109
6.6.1	win	2022-12-14	22:00:22	22:03:57	212736	6306f070d4f94e56cb544400	103002848	1	main_z	7	main_z	3	stimuli_distractor_diamondtriangles.svg	stimuli_target_trianglecircles.svg	29	yes	44	1	645
6.6.1	win	2022-12-14	22:00:22	22:03:57	212736	6306f070d4f94e56cb544400	103002848	1	main_z	7	advance_on_keypress_ZEE	4	stimuli_distractor_diamondtriangles.svg	stimuli_target_trianglecircles.svg	29	yes	57	0	1346
6.6.1	win	2022-12-14	22:00:22	22:04:01	216721	6306f070d4f94e56cb544400	103002848	1	main_z	7	main_z	5	stimuli_target_diamondsquares.svg	stimuli_distractor_trianglediamonds.svg	20	yes	0	0	2003
6.6.1	win	2022-12-14	22:00:22	22:04:01	216721	6306f070d4f94e56cb544400	103002848	1	main_z	7	advance_on_keypress_ZEE	6	stimuli_target_diamondsquares.svg	stimuli_distractor_trianglediamonds.svg	20	yes	57	0	493
6.6.1	win	2022-12-14	22:00:22	22:04:03	218742	6306f070d4f94e56cb544400	103002848	1	main_z	7	main_z	7	stimuli_distractor_diamondtriangles.svg	stimuli_target_trianglesquares.svg	30	yes	44	1	913
6.6.1	win	2022-12-14	22:00:22	22:04:03	218742	6306f070d4f94e56cb544400	103002848	1	main_z	7	advance_on_keypress_ZEE	8	stimuli_distractor_diamondtriangles.svg	stimuli_target_trianglesquares.svg	30	yes	57	0	866
6.6.1	win	2022-12-14	22:00:22	22:04:05	221078	6306f070d4f94e56cb544400	103002848	1	main_z	7	main_z	9	stimuli_distractor_trianglediamonds.svg	stimuli_target_circletriangles.svg	9	yes	44	1	829
6.6.1	win	2022-12-14	22:00:22	22:04:05	221078	6306f070d4f94e56cb544400	103002848	1	main_z	7	advance_on_keypress_ZEE	10	stimuli_distractor_trianglediamonds.svg	stimuli_target_circletriangles.svg	9	yes	57	0	733
6.6.1	win	2022-12-14	22:00:22	22:04:08	224448	6306f070d4f94e56cb544400	103002848	1	main_z	7	main_z	11	stimuli_distractor_diamondtriangles.svg	stimuli_distractor_diamondtriangles.svg	40	no	0	1	2003
6.6.1	win	2022-12-14	22:00:22	22:04:08	224448	6306f070d4f94e56cb544400	103002848	1	main_z	7	advance_on_keypress_ZEE	12	stimuli_distractor_diamondtriangles.svg	stimuli_distractor_diamondtriangles.svg	40	no	57	0	444
6.6.1	win	2022-12-14	22:00:22	22:04:10	226256	6306f070d4f94e56cb544400	103002848	1	main_z	7	main_z	13	stimuli_distractor_trianglediamonds.svg	stimuli_target_squaretriangles.svg	11	yes	44	1	721
6.6.1	win	2022-12-14	22:00:22	22:04:10	226256	6306f070d4f94e56cb544400	103002848	1	main_z	7	advance_on_keypress_ZEE	14	stimuli_distractor_trianglediamonds.svg	stimuli_target_squaretriangles.svg	11	yes	57	0	483
6.6.1	win	2022-12-14	22:00:22	22:04:13	229376	6306f070d4f94e56cb544400	103002848	1	main_z	7	main_z	15	stimuli_distractor_trianglediamonds.svg	stimuli_distractor_trianglediamonds.svg	33	no	0	1	2003
6.6.1	win	2022-12-14	22:00:22	22:04:13	229376	6306f070d4f94e56cb544400	103002848	1	main_z	7	advance_on_keypress_ZEE	16	stimuli_distractor_trianglediamonds.svg	stimuli_distractor_trianglediamonds.svg	33	no	57	0	382
6.6.1	win	2022-12-14	22:00:22	22:04:15	231062	6306f070d4f94e56cb544400	103002848	1	main_z	7	main_z	17	stimuli_target_trianglecircles.svg	stimuli_distractor_diamondtriangles.svg	21	yes	44	1	665
6.6.1	win	2022-12-14	22:00:22	22:04:15	231062	6306f070d4f94e56cb544400	103002848	1	main_z	7	advance_on_keypress_ZEE	18	stimuli_target_trianglecircles.svg	stimuli_distractor_diamondtriangles.svg	21	yes	57	0	567
6.6.1	win	2022-12-14	22:00:22	22:04:17	232934	6306f070d4f94e56cb544400	103002848	1	main_z	7	main_z	19	stimuli_target_squarediamonds.svg	stimuli_distractor_diamondtriangles.svg	8	yes	44	1	692
6.6.1	win	2022-12-14	22:00:22	22:04:17	232934	6306f070d4f94e56cb544400	103002848	1	main_z	7	advance_on_keypress_ZEE	20	stimuli_target_squarediamonds.svg	stimuli_distractor_diamondtriangles.svg	8	yes	57	0	510
6.6.1	win	2022-12-14	22:00:22	22:04:19	234742	6306f070d4f94e56cb544400	103002848	1	main_z	7	main_z	21	stimuli_distractor_trianglediamonds.svg	stimuli_target_trianglecircles.svg	25	yes	44	1	688
6.6.1	win	2022-12-14	22:00:22	22:04:19	234742	6306f070d4f94e56cb544400	103002848	1	main_z	7	advance_on_keypress_ZEE	22	stimuli_distractor_trianglediamonds.svg	stimuli_target_trianglecircles.svg	25	yes	57	0	407
6.6.1	win	2022-12-14	22:00:22	22:04:21	237030	6306f070d4f94e56cb544400	103002848	1	main_z	7	main_z	23	stimuli_target_squaretriangles.svg	stimuli_distractor_trianglediamonds.svg	3	yes	44	1	1246
6.6.1	win	2022-12-14	22:00:22	22:04:21	237030	6306f070d4f94e56cb544400	103002848	1	main_z	7	advance_on_keypress_ZEE	24	stimuli_target_squaretriangles.svg	stimuli_distractor_trianglediamonds.svg	3	yes	57	0	257
6.6.1	win	2022-12-14	22:00:22	22:04:22	238561	6306f070d4f94e56cb544400	103002848	1	main_z	7	main_z	25	stimuli_distractor_trianglediamonds.svg	stimuli_target_circlediamonds.svg	10	yes	44	1	632
6.6.1	win	2022-12-14	22:00:22	22:04:22	238561	6306f070d4f94e56cb544400	103002848	1	main_z	7	advance_on_keypress_ZEE	26	stimuli_distractor_trianglediamonds.svg	stimuli_target_circlediamonds.svg	10	yes	57	0	413
6.6.1	win	2022-12-14	22:00:22	22:04:24	240230	6306f070d4f94e56cb544400	103002848	1	main_z	7	main_z	27	stimuli_distractor_diamondtriangles.svg	stimuli_target_circlediamonds.svg	14	yes	44	1	647
6.6.1	win	2022-12-14	22:00:22	22:04:24	240230	6306f070d4f94e56cb544400	103002848	1	main_z	7	advance_on_keypress_ZEE	28	stimuli_distractor_diamondtriangles.svg	stimuli_target_circlediamonds.svg	14	yes	57	0	221
6.6.1	win	2022-12-14	22:00:22	22:04:26	241734	6306f070d4f94e56cb544400	103002848	1	main_z	7	main_z	29	stimuli_distractor_diamondtriangles.svg	stimuli_target_diamondcircles.svg	31	yes	44	1	648
6.6.1	win	2022-12-14	22:00:22	22:04:26	241734	6306f070d4f94e56cb544400	103002848	1	main_z	7	advance_on_keypress_ZEE	30	stimuli_distractor_diamondtriangles.svg	stimuli_target_diamondcircles.svg	31	yes	57	0	223
6.6.1	win	2022-12-14	22:00:22	22:04:29	244592	6306f070d4f94e56cb544400	103002848	1	main_z	7	main_z	31	stimuli_distractor_trianglediamonds.svg	stimuli_distractor_diamondtriangles.svg	35	no	0	1	2003
6.6.1	win	2022-12-14	22:00:22	22:04:29	244592	6306f070d4f94e56cb544400	103002848	1	main_z	7	advance_on_keypress_ZEE	32	stimuli_distractor_trianglediamonds.svg	stimuli_distractor_diamondtriangles.svg	35	no	57	0	413
6.6.1	win	2022-12-14	22:00:22	22:04:32	247617	6306f070d4f94e56cb544400	103002848	1	main_z	7	main_z	33	stimuli_distractor_trianglediamonds.svg	stimuli_distractor_diamondtriangles.svg	36	no	0	1	2003
6.6.1	win	2022-12-14	22:00:22	22:04:32	247617	6306f070d4f94e56cb544400	103002848	1	main_z	7	advance_on_keypress_ZEE	34	stimuli_distractor_trianglediamonds.svg	stimuli_distractor_diamondtriangles.svg	36	no	57	0	268
6.6.1	win	2022-12-14	22:00:22	22:04:33	249185	6306f070d4f94e56cb544400	103002848	1	main_z	7	main_z	35	stimuli_distractor_diamondtriangles.svg	stimuli_target_circletriangles.svg	13	yes	44	1	658
6.6.1	win	2022-12-14	22:00:22	22:04:33	249185	6306f070d4f94e56cb544400	103002848	1	main_z	7	advance_on_keypress_ZEE	36	stimuli_distractor_diamondtriangles.svg	stimuli_target_circletriangles.svg	13	yes	57	0	412
6.6.1	win	2022-12-14	22:00:22	22:04:36	252112	6306f070d4f94e56cb544400	103002848	1	main_z	7	main_z	37	stimuli_distractor_diamondtriangles.svg	stimuli_distractor_trianglediamonds.svg	38	no	44	0	1899
6.6.1	win	2022-12-14	22:00:22	22:04:36	252112	6306f070d4f94e56cb544400	103002848	1	main_z	7	advance_on_keypress_ZEE	38	stimuli_distractor_diamondtriangles.svg	stimuli_distractor_trianglediamonds.svg	38	no	57	0	1229
6.6.1	win	2022-12-14	22:00:22	22:04:39	255015	6306f070d4f94e56cb544400	103002848	1	main_z	7	main_z	39	stimuli_target_diamondsquares.svg	stimuli_distractor_diamondtriangles.svg	24	yes	44	1	1053
6.6.1	win	2022-12-14	22:00:22	22:04:39	255015	6306f070d4f94e56cb544400	103002848	1	main_z	7	advance_on_keypress_ZEE	40	stimuli_target_diamondsquares.svg	stimuli_distractor_diamondtriangles.svg	24	yes	57	0	503
6.6.1	win	2022-12-14	22:00:22	22:04:41	256934	6306f070d4f94e56cb544400	103002848	1	main_z	7	main_z	41	stimuli_target_diamondcircles.svg	stimuli_distractor_diamondtriangles.svg	23	yes	44	1	807
6.6.1	win	2022-12-14	22:00:22	22:04:41	256934	6306f070d4f94e56cb544400	103002848	1	main_z	7	advance_on_keypress_ZEE	42	stimuli_target_diamondcircles.svg	stimuli_distractor_diamondtriangles.svg	23	yes	57	0	248
6.6.1	win	2022-12-14	22:00:22	22:04:44	259825	6306f070d4f94e56cb544400	103002848	1	main_z	7	main_z	43	stimuli_distractor_diamondtriangles.svg	stimuli_distractor_diamondtriangles.svg	39	no	0	1	2003
6.6.1	win	2022-12-14	22:00:22	22:04:44	259825	6306f070d4f94e56cb544400	103002848	1	main_z	7	advance_on_keypress_ZEE	44	stimuli_distractor_diamondtriangles.svg	stimuli_distractor_diamondtriangles.svg	39	no	57	0	342
6.6.1	win	2022-12-14	22:00:22	22:04:46	261637	6306f070d4f94e56cb544400	103002848	1	main_z	7	main_z	45	stimuli_target_trianglesquares.svg	stimuli_distractor_trianglediamonds.svg	18	yes	44	1	854
6.6.1	win	2022-12-14	22:00:22	22:04:46	261637	6306f070d4f94e56cb544400	103002848	1	main_z	7	advance_on_keypress_ZEE	46	stimuli_target_trianglesquares.svg	stimuli_distractor_trianglediamonds.svg	18	yes	57	0	318
6.6.1	win	2022-12-14	22:00:22	22:04:47	263488	6306f070d4f94e56cb544400	103002848	1	main_z	7	main_z	47	stimuli_target_diamondcircles.svg	stimuli_distractor_trianglediamonds.svg	19	yes	44	1	899
6.6.1	win	2022-12-14	22:00:22	22:04:47	263488	6306f070d4f94e56cb544400	103002848	1	main_z	7	advance_on_keypress_ZEE	48	stimuli_target_diamondcircles.svg	stimuli_distractor_trianglediamonds.svg	19	yes	57	0	210
6.6.1	win	2022-12-14	22:00:22	22:04:50	265825	6306f070d4f94e56cb544400	103002848	1	main_z	7	main_z	49	stimuli_target_circletriangles.svg	stimuli_distractor_diamondtriangles.svg	5	yes	44	1	1485
6.6.1	win	2022-12-14	22:00:22	22:04:50	265825	6306f070d4f94e56cb544400	103002848	1	main_z	7	advance_on_keypress_ZEE	50	stimuli_target_circletriangles.svg	stimuli_distractor_diamondtriangles.svg	5	yes	57	0	402
6.6.1	win	2022-12-14	22:00:22	22:04:51	267567	6306f070d4f94e56cb544400	103002848	1	main_z	7	main_z	51	stimuli_target_trianglecircles.svg	stimuli_distractor_trianglediamonds.svg	17	yes	44	1	705
6.6.1	win	2022-12-14	22:00:22	22:04:51	267567	6306f070d4f94e56cb544400	103002848	1	main_z	7	advance_on_keypress_ZEE	52	stimuli_target_trianglecircles.svg	stimuli_distractor_trianglediamonds.svg	17	yes	57	0	253
6.6.1	win	2022-12-14	22:00:22	22:04:53	269126	6306f070d4f94e56cb544400	103002848	1	main_z	7	main_z	53	stimuli_target_circlediamonds.svg	stimuli_distractor_diamondtriangles.svg	6	yes	44	1	668
6.6.1	win	2022-12-14	22:00:22	22:04:53	269126	6306f070d4f94e56cb544400	103002848	1	main_z	7	advance_on_keypress_ZEE	54	stimuli_target_circlediamonds.svg	stimuli_distractor_diamondtriangles.svg	6	yes	57	0	192
6.6.1	win	2022-12-14	22:00:22	22:04:55	271094	6306f070d4f94e56cb544400	103002848	1	main_z	7	main_z	55	stimuli_distractor_diamondtriangles.svg	stimuli_target_squarediamonds.svg	16	yes	44	1	1117
6.6.1	win	2022-12-14	22:00:22	22:04:55	271094	6306f070d4f94e56cb544400	103002848	1	main_z	7	advance_on_keypress_ZEE	56	stimuli_distractor_diamondtriangles.svg	stimuli_target_squarediamonds.svg	16	yes	57	0	205
6.6.1	win	2022-12-14	22:00:22	22:04:57	272646	6306f070d4f94e56cb544400	103002848	1	main_z	7	main_z	57	stimuli_distractor_trianglediamonds.svg	stimuli_target_trianglesquares.svg	26	yes	44	1	710
6.6.1	win	2022-12-14	22:00:22	22:04:57	272646	6306f070d4f94e56cb544400	103002848	1	main_z	7	advance_on_keypress_ZEE	58	stimuli_distractor_trianglediamonds.svg	stimuli_target_trianglesquares.svg	26	yes	57	0	263
6.6.1	win	2022-12-14	22:00:22	22:04:58	274145	6306f070d4f94e56cb544400	103002848	1	main_z	7	main_z	59	stimuli_distractor_trianglediamonds.svg	stimuli_target_squarediamonds.svg	12	yes	44	1	625
6.6.1	win	2022-12-14	22:00:22	22:04:58	274145	6306f070d4f94e56cb544400	103002848	1	main_z	7	advance_on_keypress_ZEE	60	stimuli_distractor_trianglediamonds.svg	stimuli_target_squarediamonds.svg	12	yes	57	0	307
6.6.1	win	2022-12-14	22:00:22	22:05:01	277090	6306f070d4f94e56cb544400	103002848	1	main_z	7	main_z	61	stimuli_distractor_trianglediamonds.svg	stimuli_distractor_trianglediamonds.svg	34	no	0	1	2003
6.6.1	win	2022-12-14	22:00:22	22:05:01	277090	6306f070d4f94e56cb544400	103002848	1	main_z	7	advance_on_keypress_ZEE	62	stimuli_distractor_trianglediamonds.svg	stimuli_distractor_trianglediamonds.svg	34	no	57	0	282
6.6.1	win	2022-12-14	22:00:22	22:05:03	278607	6306f070d4f94e56cb544400	103002848	1	main_z	7	main_z	63	stimuli_distractor_trianglediamonds.svg	stimuli_target_diamondcircles.svg	27	yes	44	1	620
6.6.1	win	2022-12-14	22:00:22	22:05:03	278607	6306f070d4f94e56cb544400	103002848	1	main_z	7	advance_on_keypress_ZEE	64	stimuli_distractor_trianglediamonds.svg	stimuli_target_diamondcircles.svg	27	yes	57	0	148
6.6.1	win	2022-12-14	22:00:22	22:05:04	280255	6306f070d4f94e56cb544400	103002848	1	main_z	7	main_z	65	stimuli_distractor_diamondtriangles.svg	stimuli_target_squaretriangles.svg	15	yes	44	1	840
6.6.1	win	2022-12-14	22:00:22	22:05:04	280255	6306f070d4f94e56cb544400	103002848	1	main_z	7	advance_on_keypress_ZEE	66	stimuli_distractor_diamondtriangles.svg	stimuli_target_squaretriangles.svg	15	yes	57	0	190
6.6.1	win	2022-12-14	22:00:22	22:05:06	281637	6306f070d4f94e56cb544400	103002848	1	main_z	7	main_z	67	stimuli_target_squarediamonds.svg	stimuli_distractor_trianglediamonds.svg	4	yes	44	1	558
6.6.1	win	2022-12-14	22:00:22	22:05:06	281637	6306f070d4f94e56cb544400	103002848	1	main_z	7	advance_on_keypress_ZEE	68	stimuli_target_squarediamonds.svg	stimuli_distractor_trianglediamonds.svg	4	yes	57	0	206
6.6.1	win	2022-12-14	22:00:22	22:05:08	283744	6306f070d4f94e56cb544400	103002848	1	main_z	7	main_z	69	stimuli_distractor_trianglediamonds.svg	stimuli_target_diamondsquares.svg	28	yes	44	1	1291
6.6.1	win	2022-12-14	22:00:22	22:05:08	283744	6306f070d4f94e56cb544400	103002848	1	main_z	7	advance_on_keypress_ZEE	70	stimuli_distractor_trianglediamonds.svg	stimuli_target_diamondsquares.svg	28	yes	57	0	141
6.6.1	win	2022-12-14	22:00:22	22:05:10	286498	6306f070d4f94e56cb544400	103002848	1	main_z	7	main_z	71	stimuli_distractor_diamondtriangles.svg	stimuli_distractor_trianglediamonds.svg	37	no	0	1	2003
6.6.1	win	2022-12-14	22:00:22	22:05:10	286498	6306f070d4f94e56cb544400	103002848	1	main_z	7	advance_on_keypress_ZEE	72	stimuli_distractor_diamondtriangles.svg	stimuli_distractor_trianglediamonds.svg	37	no	57	0	389
6.6.1	win	2022-12-14	22:00:22	22:05:12	288111	6306f070d4f94e56cb544400	103002848	1	main_z	7	main_z	73	stimuli_target_circlediamonds.svg	stimuli_distractor_trianglediamonds.svg	2	yes	44	1	585
6.6.1	win	2022-12-14	22:00:22	22:05:12	288111	6306f070d4f94e56cb544400	103002848	1	main_z	7	advance_on_keypress_ZEE	74	stimuli_target_circlediamonds.svg	stimuli_distractor_trianglediamonds.svg	2	yes	57	0	136
6.6.1	win	2022-12-14	22:00:22	22:05:14	289573	6306f070d4f94e56cb544400	103002848	1	main_z	7	main_z	75	stimuli_target_circletriangles.svg	stimuli_distractor_trianglediamonds.svg	1	yes	44	1	708
6.6.1	win	2022-12-14	22:00:22	22:05:14	289573	6306f070d4f94e56cb544400	103002848	1	main_z	7	advance_on_keypress_ZEE	76	stimuli_target_circletriangles.svg	stimuli_distractor_trianglediamonds.svg	1	yes	57	0	142
6.6.1	win	2022-12-14	22:00:22	22:05:15	291029	6306f070d4f94e56cb544400	103002848	1	main_z	7	main_z	77	stimuli_target_trianglesquares.svg	stimuli_distractor_diamondtriangles.svg	22	yes	44	1	653
6.6.1	win	2022-12-14	22:00:22	22:05:15	291029	6306f070d4f94e56cb544400	103002848	1	main_z	7	advance_on_keypress_ZEE	78	stimuli_target_trianglesquares.svg	stimuli_distractor_diamondtriangles.svg	22	yes	57	0	149
6.6.1	win	2022-12-14	22:00:22	22:05:17	292597	6306f070d4f94e56cb544400	103002848	1	main_z	7	main_z	79	stimuli_target_squaretriangles.svg	stimuli_distractor_diamondtriangles.svg	7	yes	44	1	761
6.6.1	win	2022-12-14	22:00:22	22:05:17	292597	6306f070d4f94e56cb544400	103002848	1	main_z	7	advance_on_keypress_ZEE	80	stimuli_target_squaretriangles.svg	stimuli_distractor_diamondtriangles.svg	7	yes	57	0	190
6.6.1	win	2022-12-14	22:00:22	22:05:18	294063	6306f070d4f94e56cb544400	103002848	1	main_z	7	main_z	81	stimuli_distractor_diamondtriangles.svg	stimuli_target_squaretriangles.svg	15	yes	44	1	643
6.6.1	win	2022-12-14	22:00:22	22:05:18	294063	6306f070d4f94e56cb544400	103002848	1	main_z	7	advance_on_keypress_ZEE	82	stimuli_distractor_diamondtriangles.svg	stimuli_target_squaretriangles.svg	15	yes	57	0	146
6.6.1	win	2022-12-14	22:00:22	22:05:20	295583	6306f070d4f94e56cb544400	103002848	1	main_z	7	main_z	83	stimuli_distractor_trianglediamonds.svg	stimuli_target_trianglesquares.svg	26	yes	44	1	739
6.6.1	win	2022-12-14	22:00:22	22:05:20	295583	6306f070d4f94e56cb544400	103002848	1	main_z	7	advance_on_keypress_ZEE	84	stimuli_distractor_trianglediamonds.svg	stimuli_target_trianglesquares.svg	26	yes	57	0	148
6.6.1	win	2022-12-14	22:00:22	22:05:21	297014	6306f070d4f94e56cb544400	103002848	1	main_z	7	main_z	85	stimuli_target_squarediamonds.svg	stimuli_distractor_diamondtriangles.svg	8	yes	44	1	648
6.6.1	win	2022-12-14	22:00:22	22:05:21	297014	6306f070d4f94e56cb544400	103002848	1	main_z	7	advance_on_keypress_ZEE	86	stimuli_target_squarediamonds.svg	stimuli_distractor_diamondtriangles.svg	8	yes	57	0	190
6.6.1	win	2022-12-14	22:00:22	22:05:22	298501	6306f070d4f94e56cb544400	103002848	1	main_z	7	main_z	87	stimuli_target_diamondsquares.svg	stimuli_distractor_diamondtriangles.svg	24	yes	44	1	665
6.6.1	win	2022-12-14	22:00:22	22:05:22	298501	6306f070d4f94e56cb544400	103002848	1	main_z	7	advance_on_keypress_ZEE	88	stimuli_target_diamondsquares.svg	stimuli_distractor_diamondtriangles.svg	24	yes	57	0	199
6.6.1	win	2022-12-14	22:00:22	22:05:24	300565	6306f070d4f94e56cb544400	103002848	1	main_z	7	main_z	89	stimuli_distractor_trianglediamonds.svg	stimuli_target_circlediamonds.svg	10	yes	44	1	1256
6.6.1	win	2022-12-14	22:00:22	22:05:24	300565	6306f070d4f94e56cb544400	103002848	1	main_z	7	advance_on_keypress_ZEE	90	stimuli_distractor_trianglediamonds.svg	stimuli_target_circlediamonds.svg	10	yes	57	0	183
6.6.1	win	2022-12-14	22:00:22	22:05:27	303391	6306f070d4f94e56cb544400	103002848	1	main_z	7	main_z	91	stimuli_distractor_diamondtriangles.svg	stimuli_distractor_trianglediamonds.svg	37	no	0	1	2003
6.6.1	win	2022-12-14	22:00:22	22:05:27	303391	6306f070d4f94e56cb544400	103002848	1	main_z	7	advance_on_keypress_ZEE	92	stimuli_distractor_diamondtriangles.svg	stimuli_distractor_trianglediamonds.svg	37	no	57	0	254
6.6.1	win	2022-12-14	22:00:22	22:05:30	306263	6306f070d4f94e56cb544400	103002848	1	main_z	7	main_z	93	stimuli_distractor_trianglediamonds.svg	stimuli_distractor_trianglediamonds.svg	34	no	0	1	2003
6.6.1	win	2022-12-14	22:00:22	22:05:30	306263	6306f070d4f94e56cb544400	103002848	1	main_z	7	advance_on_keypress_ZEE	94	stimuli_distractor_trianglediamonds.svg	stimuli_distractor_trianglediamonds.svg	34	no	57	0	550
6.6.1	win	2022-12-14	22:00:22	22:05:32	308016	6306f070d4f94e56cb544400	103002848	1	main_z	7	main_z	95	stimuli_distractor_trianglediamonds.svg	stimuli_target_diamondcircles.svg	27	yes	44	1	594
6.6.1	win	2022-12-14	22:00:22	22:05:32	308016	6306f070d4f94e56cb544400	103002848	1	main_z	7	advance_on_keypress_ZEE	96	stimuli_distractor_trianglediamonds.svg	stimuli_target_diamondcircles.svg	27	yes	57	0	330
6.6.1	win	2022-12-14	22:00:22	22:05:33	309557	6306f070d4f94e56cb544400	103002848	1	main_z	7	main_z	97	stimuli_distractor_diamondtriangles.svg	stimuli_target_circlediamonds.svg	14	yes	44	1	550
6.6.1	win	2022-12-14	22:00:22	22:05:33	309557	6306f070d4f94e56cb544400	103002848	1	main_z	7	advance_on_keypress_ZEE	98	stimuli_distractor_diamondtriangles.svg	stimuli_target_circlediamonds.svg	14	yes	57	0	206
6.6.1	win	2022-12-14	22:00:22	22:05:36	312402	6306f070d4f94e56cb544400	103002848	1	main_z	7	main_z	99	stimuli_distractor_trianglediamonds.svg	stimuli_distractor_diamondtriangles.svg	35	no	0	1	2003
6.6.1	win	2022-12-14	22:00:22	22:05:36	312402	6306f070d4f94e56cb544400	103002848	1	main_z	7	advance_on_keypress_ZEE	100	stimuli_distractor_trianglediamonds.svg	stimuli_distractor_diamondtriangles.svg	35	no	57	0	342
6.6.1	win	2022-12-14	22:00:22	22:05:39	315363	6306f070d4f94e56cb544400	103002848	1	main_z	7	main_z	101	stimuli_distractor_diamondtriangles.svg	stimuli_distractor_trianglediamonds.svg	38	no	0	1	2003
6.6.1	win	2022-12-14	22:00:22	22:05:39	315363	6306f070d4f94e56cb544400	103002848	1	main_z	7	advance_on_keypress_ZEE	102	stimuli_distractor_diamondtriangles.svg	stimuli_distractor_trianglediamonds.svg	38	no	57	0	217
6.6.1	win	2022-12-14	22:00:22	22:05:41	316790	6306f070d4f94e56cb544400	103002848	1	main_z	7	main_z	103	stimuli_target_circletriangles.svg	stimuli_distractor_trianglediamonds.svg	1	yes	44	1	594
6.6.1	win	2022-12-14	22:00:22	22:05:41	316790	6306f070d4f94e56cb544400	103002848	1	main_z	7	advance_on_keypress_ZEE	104	stimuli_target_circletriangles.svg	stimuli_distractor_trianglediamonds.svg	1	yes	57	0	292
6.6.1	win	2022-12-14	22:00:22	22:05:42	318351	6306f070d4f94e56cb544400	103002848	1	main_z	7	main_z	105	stimuli_distractor_trianglediamonds.svg	stimuli_target_trianglecircles.svg	25	yes	44	1	635
6.6.1	win	2022-12-14	22:00:22	22:05:42	318351	6306f070d4f94e56cb544400	103002848	1	main_z	7	advance_on_keypress_ZEE	106	stimuli_distractor_trianglediamonds.svg	stimuli_target_trianglecircles.svg	25	yes	57	0	148
6.6.1	win	2022-12-14	22:00:22	22:05:45	321055	6306f070d4f94e56cb544400	103002848	1	main_z	7	main_z	107	stimuli_distractor_trianglediamonds.svg	stimuli_target_squaretriangles.svg	11	yes	44	1	1923
6.6.1	win	2022-12-14	22:00:22	22:05:45	321055	6306f070d4f94e56cb544400	103002848	1	main_z	7	advance_on_keypress_ZEE	108	stimuli_distractor_trianglediamonds.svg	stimuli_target_squaretriangles.svg	11	yes	57	0	279
6.6.1	win	2022-12-14	22:00:22	22:05:47	322645	6306f070d4f94e56cb544400	103002848	1	main_z	7	main_z	109	stimuli_target_circletriangles.svg	stimuli_distractor_diamondtriangles.svg	5	yes	44	1	668
6.6.1	win	2022-12-14	22:00:22	22:05:47	322645	6306f070d4f94e56cb544400	103002848	1	main_z	7	advance_on_keypress_ZEE	110	stimuli_target_circletriangles.svg	stimuli_distractor_diamondtriangles.svg	5	yes	57	0	186
6.6.1	win	2022-12-14	22:00:22	22:05:49	325451	6306f070d4f94e56cb544400	103002848	1	main_z	7	main_z	111	stimuli_distractor_diamondtriangles.svg	stimuli_distractor_diamondtriangles.svg	40	no	0	1	2003
6.6.1	win	2022-12-14	22:00:22	22:05:49	325451	6306f070d4f94e56cb544400	103002848	1	main_z	7	advance_on_keypress_ZEE	112	stimuli_distractor_diamondtriangles.svg	stimuli_distractor_diamondtriangles.svg	40	no	57	0	275
6.6.1	win	2022-12-14	22:00:22	22:05:51	326901	6306f070d4f94e56cb544400	103002848	1	main_z	7	main_z	113	stimuli_target_circlediamonds.svg	stimuli_distractor_diamondtriangles.svg	6	yes	44	1	562
6.6.1	win	2022-12-14	22:00:22	22:05:51	326901	6306f070d4f94e56cb544400	103002848	1	main_z	7	advance_on_keypress_ZEE	114	stimuli_target_circlediamonds.svg	stimuli_distractor_diamondtriangles.svg	6	yes	57	0	317
6.6.1	win	2022-12-14	22:00:22	22:05:52	328437	6306f070d4f94e56cb544400	103002848	1	main_z	7	main_z	115	stimuli_distractor_diamondtriangles.svg	stimuli_target_trianglecircles.svg	29	yes	44	1	585
6.6.1	win	2022-12-14	22:00:22	22:05:52	328437	6306f070d4f94e56cb544400	103002848	1	main_z	7	advance_on_keypress_ZEE	116	stimuli_distractor_diamondtriangles.svg	stimuli_target_trianglecircles.svg	29	yes	57	0	413
6.6.1	win	2022-12-14	22:00:22	22:05:54	330021	6306f070d4f94e56cb544400	103002848	1	main_z	7	main_z	117	stimuli_distractor_diamondtriangles.svg	stimuli_target_squarediamonds.svg	16	yes	44	1	536
6.6.1	win	2022-12-14	22:00:22	22:05:54	330021	6306f070d4f94e56cb544400	103002848	1	main_z	7	advance_on_keypress_ZEE	118	stimuli_distractor_diamondtriangles.svg	stimuli_target_squarediamonds.svg	16	yes	57	0	191
6.6.1	win	2022-12-14	22:00:22	22:05:56	331925	6306f070d4f94e56cb544400	103002848	1	main_z	7	main_z	119	stimuli_target_diamondcircles.svg	stimuli_distractor_trianglediamonds.svg	19	yes	44	1	1080
6.6.1	win	2022-12-14	22:00:22	22:05:56	331925	6306f070d4f94e56cb544400	103002848	1	main_z	7	advance_on_keypress_ZEE	120	stimuli_target_diamondcircles.svg	stimuli_distractor_trianglediamonds.svg	19	yes	57	0	197
6.6.1	win	2022-12-14	22:00:22	22:05:57	333461	6306f070d4f94e56cb544400	103002848	1	main_z	7	main_z	121	stimuli_target_circlediamonds.svg	stimuli_distractor_trianglediamonds.svg	2	yes	44	1	706
6.6.1	win	2022-12-14	22:00:22	22:05:57	333461	6306f070d4f94e56cb544400	103002848	1	main_z	7	advance_on_keypress_ZEE	122	stimuli_target_circlediamonds.svg	stimuli_distractor_trianglediamonds.svg	2	yes	57	0	190
6.6.1	win	2022-12-14	22:00:22	22:05:59	335343	6306f070d4f94e56cb544400	103002848	1	main_z	7	main_z	123	stimuli_distractor_trianglediamonds.svg	stimuli_target_diamondsquares.svg	28	yes	44	1	1082
6.6.1	win	2022-12-14	22:00:22	22:05:59	335343	6306f070d4f94e56cb544400	103002848	1	main_z	7	advance_on_keypress_ZEE	124	stimuli_distractor_trianglediamonds.svg	stimuli_target_diamondsquares.svg	28	yes	57	0	196
6.6.1	win	2022-12-14	22:00:22	22:06:02	338151	6306f070d4f94e56cb544400	103002848	1	main_z	7	main_z	125	stimuli_distractor_trianglediamonds.svg	stimuli_distractor_diamondtriangles.svg	36	no	0	1	2003
6.6.1	win	2022-12-14	22:00:22	22:06:02	338151	6306f070d4f94e56cb544400	103002848	1	main_z	7	advance_on_keypress_ZEE	126	stimuli_distractor_trianglediamonds.svg	stimuli_distractor_diamondtriangles.svg	36	no	57	0	259
6.6.1	win	2022-12-14	22:00:22	22:06:04	339695	6306f070d4f94e56cb544400	103002848	1	main_z	7	main_z	127	stimuli_target_squarediamonds.svg	stimuli_distractor_trianglediamonds.svg	4	yes	44	1	649
6.6.1	win	2022-12-14	22:00:22	22:06:04	339695	6306f070d4f94e56cb544400	103002848	1	main_z	7	advance_on_keypress_ZEE	128	stimuli_target_squarediamonds.svg	stimuli_distractor_trianglediamonds.svg	4	yes	57	0	324
6.6.1	win	2022-12-14	22:00:22	22:06:05	341269	6306f070d4f94e56cb544400	103002848	1	main_z	7	main_z	129	stimuli_distractor_trianglediamonds.svg	stimuli_target_circletriangles.svg	9	yes	44	1	617
6.6.1	win	2022-12-14	22:00:22	22:06:05	341269	6306f070d4f94e56cb544400	103002848	1	main_z	7	advance_on_keypress_ZEE	130	stimuli_distractor_trianglediamonds.svg	stimuli_target_circletriangles.svg	9	yes	57	0	166
6.6.1	win	2022-12-14	22:00:22	22:06:07	342773	6306f070d4f94e56cb544400	103002848	1	main_z	7	main_z	131	stimuli_target_squaretriangles.svg	stimuli_distractor_diamondtriangles.svg	7	yes	44	1	703
6.6.1	win	2022-12-14	22:00:22	22:06:07	342773	6306f070d4f94e56cb544400	103002848	1	main_z	7	advance_on_keypress_ZEE	132	stimuli_target_squaretriangles.svg	stimuli_distractor_diamondtriangles.svg	7	yes	57	0	168
6.6.1	win	2022-12-14	22:00:22	22:06:08	344303	6306f070d4f94e56cb544400	103002848	1	main_z	7	main_z	133	stimuli_distractor_diamondtriangles.svg	stimuli_target_trianglesquares.svg	30	yes	44	1	729
6.6.1	win	2022-12-14	22:00:22	22:06:08	344303	6306f070d4f94e56cb544400	103002848	1	main_z	7	advance_on_keypress_ZEE	134	stimuli_distractor_diamondtriangles.svg	stimuli_target_trianglesquares.svg	30	yes	57	0	206
6.6.1	win	2022-12-14	22:00:22	22:06:10	345637	6306f070d4f94e56cb544400	103002848	1	main_z	7	main_z	135	stimuli_distractor_diamondtriangles.svg	stimuli_target_circletriangles.svg	13	yes	44	1	520
6.6.1	win	2022-12-14	22:00:22	22:06:10	345637	6306f070d4f94e56cb544400	103002848	1	main_z	7	advance_on_keypress_ZEE	136	stimuli_distractor_diamondtriangles.svg	stimuli_target_circletriangles.svg	13	yes	57	0	128
6.6.1	win	2022-12-14	22:00:22	22:06:11	347205	6306f070d4f94e56cb544400	103002848	1	main_z	7	main_z	137	stimuli_distractor_diamondtriangles.svg	stimuli_target_diamondcircles.svg	31	yes	44	1	802
6.6.1	win	2022-12-14	22:00:22	22:06:11	347205	6306f070d4f94e56cb544400	103002848	1	main_z	7	advance_on_keypress_ZEE	138	stimuli_distractor_diamondtriangles.svg	stimuli_target_diamondcircles.svg	31	yes	57	0	221
6.6.1	win	2022-12-14	22:00:22	22:06:14	350064	6306f070d4f94e56cb544400	103002848	1	main_z	7	main_z	139	stimuli_distractor_trianglediamonds.svg	stimuli_distractor_trianglediamonds.svg	33	no	0	1	2003
6.6.1	win	2022-12-14	22:00:22	22:06:14	350064	6306f070d4f94e56cb544400	103002848	1	main_z	7	advance_on_keypress_ZEE	140	stimuli_distractor_trianglediamonds.svg	stimuli_distractor_trianglediamonds.svg	33	no	57	0	251
6.6.1	win	2022-12-14	22:00:22	22:06:16	351590	6306f070d4f94e56cb544400	103002848	1	main_z	7	main_z	141	stimuli_target_trianglecircles.svg	stimuli_distractor_diamondtriangles.svg	21	yes	44	1	631
6.6.1	win	2022-12-14	22:00:22	22:06:16	351590	6306f070d4f94e56cb544400	103002848	1	main_z	7	advance_on_keypress_ZEE	142	stimuli_target_trianglecircles.svg	stimuli_distractor_diamondtriangles.svg	21	yes	57	0	158
6.6.1	win	2022-12-14	22:00:22	22:06:17	353023	6306f070d4f94e56cb544400	103002848	1	main_z	7	main_z	143	stimuli_target_diamondcircles.svg	stimuli_distractor_diamondtriangles.svg	23	yes	44	1	663
6.6.1	win	2022-12-14	22:00:22	22:06:17	353023	6306f070d4f94e56cb544400	103002848	1	main_z	7	advance_on_keypress_ZEE	144	stimuli_target_diamondcircles.svg	stimuli_distractor_diamondtriangles.svg	23	yes	57	0	170
6.6.1	win	2022-12-14	22:00:22	22:06:18	354533	6306f070d4f94e56cb544400	103002848	1	main_z	7	main_z	145	stimuli_distractor_diamondtriangles.svg	stimuli_target_diamondsquares.svg	32	yes	44	1	681
6.6.1	win	2022-12-14	22:00:22	22:06:18	354533	6306f070d4f94e56cb544400	103002848	1	main_z	7	advance_on_keypress_ZEE	146	stimuli_distractor_diamondtriangles.svg	stimuli_target_diamondsquares.svg	32	yes	57	0	173
6.6.1	win	2022-12-14	22:00:22	22:06:20	355941	6306f070d4f94e56cb544400	103002848	1	main_z	7	main_z	147	stimuli_distractor_trianglediamonds.svg	stimuli_target_squarediamonds.svg	12	yes	44	1	624
6.6.1	win	2022-12-14	22:00:22	22:06:20	355941	6306f070d4f94e56cb544400	103002848	1	main_z	7	advance_on_keypress_ZEE	148	stimuli_distractor_trianglediamonds.svg	stimuli_target_squarediamonds.svg	12	yes	57	0	154
6.6.1	win	2022-12-14	22:00:22	22:06:21	357455	6306f070d4f94e56cb544400	103002848	1	main_z	7	main_z	149	stimuli_target_trianglesquares.svg	stimuli_distractor_trianglediamonds.svg	18	yes	44	1	718
6.6.1	win	2022-12-14	22:00:22	22:06:21	357455	6306f070d4f94e56cb544400	103002848	1	main_z	7	advance_on_keypress_ZEE	150	stimuli_target_trianglesquares.svg	stimuli_distractor_trianglediamonds.svg	18	yes	57	0	180
6.6.1	win	2022-12-14	22:00:22	22:06:24	360274	6306f070d4f94e56cb544400	103002848	1	main_z	7	main_z	151	stimuli_distractor_diamondtriangles.svg	stimuli_distractor_diamondtriangles.svg	39	no	0	1	2003
6.6.1	win	2022-12-14	22:00:22	22:06:24	360274	6306f070d4f94e56cb544400	103002848	1	main_z	7	advance_on_keypress_ZEE	152	stimuli_distractor_diamondtriangles.svg	stimuli_distractor_diamondtriangles.svg	39	no	57	0	247
6.6.1	win	2022-12-14	22:00:22	22:06:26	361813	6306f070d4f94e56cb544400	103002848	1	main_z	7	main_z	153	stimuli_target_diamondsquares.svg	stimuli_distractor_trianglediamonds.svg	20	yes	44	1	632
6.6.1	win	2022-12-14	22:00:22	22:06:26	361813	6306f070d4f94e56cb544400	103002848	1	main_z	7	advance_on_keypress_ZEE	154	stimuli_target_diamondsquares.svg	stimuli_distractor_trianglediamonds.svg	20	yes	57	0	302
6.6.1	win	2022-12-14	22:00:22	22:06:27	363471	6306f070d4f94e56cb544400	103002848	1	main_z	7	main_z	155	stimuli_target_trianglecircles.svg	stimuli_distractor_trianglediamonds.svg	17	yes	44	1	747
6.6.1	win	2022-12-14	22:00:22	22:06:27	363471	6306f070d4f94e56cb544400	103002848	1	main_z	7	advance_on_keypress_ZEE	156	stimuli_target_trianglecircles.svg	stimuli_distractor_trianglediamonds.svg	17	yes	57	0	196
6.6.1	win	2022-12-14	22:00:22	22:06:29	364981	6306f070d4f94e56cb544400	103002848	1	main_z	7	main_z	157	stimuli_target_squaretriangles.svg	stimuli_distractor_trianglediamonds.svg	3	yes	44	1	705
6.6.1	win	2022-12-14	22:00:22	22:06:29	364981	6306f070d4f94e56cb544400	103002848	1	main_z	7	advance_on_keypress_ZEE	158	stimuli_target_squaretriangles.svg	stimuli_distractor_trianglediamonds.svg	3	yes	57	0	141
6.6.1	win	2022-12-14	22:00:22	22:06:30	366405	6306f070d4f94e56cb544400	103002848	1	main_z	7	main_z	159	stimuli_target_trianglesquares.svg	stimuli_distractor_diamondtriangles.svg	22	yes	44	1	648
6.6.1	win	2022-12-14	22:00:22	22:06:30	366405	6306f070d4f94e56cb544400	103002848	1	main_z	7	advance_on_keypress_ZEE	160	stimuli_target_trianglesquares.svg	stimuli_distractor_diamondtriangles.svg	22	yes	57	0	200
6.6.1	win	2022-12-14	22:00:22	22:07:14	409809	6306f070d4f94e56cb544400	103002848	1	practice_slash	9	practice_slash	1	stimuli_distractor_trianglediamonds.svg	stimuli_distractor_trianglediamonds.svg	15	no	0	1	2003
6.6.1	win	2022-12-14	22:00:22	22:07:14	409809	6306f070d4f94e56cb544400	103002848	1	practice_slash	9	advance_on_keypress_SLASH	2	stimuli_distractor_trianglediamonds.svg	stimuli_distractor_trianglediamonds.svg	15	no	57	0	576
6.6.1	win	2022-12-14	22:00:22	22:07:18	414050	6306f070d4f94e56cb544400	103002848	1	practice_slash	9	practice_slash	3	stimuli_distractor_trianglediamonds.svg	stimuli_distractor_diamondtriangles.svg	16	no	0	1	2003
6.6.1	win	2022-12-14	22:00:22	22:07:18	414050	6306f070d4f94e56cb544400	103002848	1	practice_slash	9	advance_on_keypress_SLASH	4	stimuli_distractor_trianglediamonds.svg	stimuli_distractor_diamondtriangles.svg	16	no	57	0	394
6.6.1	win	2022-12-14	22:00:22	22:07:22	418065	6306f070d4f94e56cb544400	103002848	1	practice_slash	9	practice_slash	5	stimuli_distractor_diamondtriangles.svg	stimuli_distractor_diamondtriangles.svg	13	no	0	1	2003
6.6.1	win	2022-12-14	22:00:22	22:07:22	418065	6306f070d4f94e56cb544400	103002848	1	practice_slash	9	advance_on_keypress_SLASH	6	stimuli_distractor_diamondtriangles.svg	stimuli_distractor_diamondtriangles.svg	13	no	57	0	305
6.6.1	win	2022-12-14	22:00:22	22:07:25	420879	6306f070d4f94e56cb544400	103002848	1	practice_slash	9	practice_slash	7	stimuli_target_diamondsquares.svg	stimuli_distractor_trianglediamonds.svg	6	yes	53	1	872
6.6.1	win	2022-12-14	22:00:22	22:07:25	420879	6306f070d4f94e56cb544400	103002848	1	practice_slash	9	advance_on_keypress_SLASH	8	stimuli_target_diamondsquares.svg	stimuli_distractor_trianglediamonds.svg	6	yes	57	0	440
6.6.1	win	2022-12-14	22:00:22	22:07:28	423774	6306f070d4f94e56cb544400	103002848	1	practice_slash	9	practice_slash	9	stimuli_target_squarediamonds.svg	stimuli_distractor_trianglediamonds.svg	5	yes	53	1	814
6.6.1	win	2022-12-14	22:00:22	22:07:28	423774	6306f070d4f94e56cb544400	103002848	1	practice_slash	9	advance_on_keypress_SLASH	10	stimuli_target_squarediamonds.svg	stimuli_distractor_trianglediamonds.svg	5	yes	57	0	415
6.6.1	win	2022-12-14	22:00:22	22:07:30	426478	6306f070d4f94e56cb544400	103002848	1	practice_slash	9	practice_slash	11	stimuli_target_squarediamonds.svg	stimuli_distractor_diamondtriangles.svg	2	yes	53	1	668
6.6.1	win	2022-12-14	22:00:22	22:07:30	426478	6306f070d4f94e56cb544400	103002848	1	practice_slash	9	advance_on_keypress_SLASH	12	stimuli_target_squarediamonds.svg	stimuli_distractor_diamondtriangles.svg	2	yes	57	0	229
6.6.1	win	2022-12-14	22:00:22	22:07:33	429241	6306f070d4f94e56cb544400	103002848	1	practice_slash	9	practice_slash	13	stimuli_target_diamondsquares.svg	stimuli_distractor_diamondtriangles.svg	3	yes	53	1	896
6.6.1	win	2022-12-14	22:00:22	22:07:33	429241	6306f070d4f94e56cb544400	103002848	1	practice_slash	9	advance_on_keypress_SLASH	14	stimuli_target_diamondsquares.svg	stimuli_distractor_diamondtriangles.svg	3	yes	57	0	435
6.6.1	win	2022-12-14	22:00:22	22:07:36	432056	6306f070d4f94e56cb544400	103002848	1	practice_slash	9	practice_slash	15	stimuli_distractor_diamondtriangles.svg	stimuli_target_trianglecircles.svg	9	yes	53	1	758
6.6.1	win	2022-12-14	22:00:22	22:07:36	432056	6306f070d4f94e56cb544400	103002848	1	practice_slash	9	advance_on_keypress_SLASH	16	stimuli_distractor_diamondtriangles.svg	stimuli_target_trianglecircles.svg	9	yes	57	0	498
6.6.1	win	2022-12-14	22:00:22	22:07:39	434824	6306f070d4f94e56cb544400	103002848	1	practice_slash	9	practice_slash	17	stimuli_distractor_trianglediamonds.svg	stimuli_target_squarediamonds.svg	11	yes	53	1	630
6.6.1	win	2022-12-14	22:00:22	22:07:39	434824	6306f070d4f94e56cb544400	103002848	1	practice_slash	9	advance_on_keypress_SLASH	18	stimuli_distractor_trianglediamonds.svg	stimuli_target_squarediamonds.svg	11	yes	57	0	788
6.6.1	win	2022-12-14	22:00:22	22:07:42	438174	6306f070d4f94e56cb544400	103002848	1	practice_slash	9	practice_slash	19	stimuli_target_circlediamonds.svg	stimuli_distractor_trianglediamonds.svg	4	yes	53	1	927
6.6.1	win	2022-12-14	22:00:22	22:07:42	438174	6306f070d4f94e56cb544400	103002848	1	practice_slash	9	advance_on_keypress_SLASH	20	stimuli_target_circlediamonds.svg	stimuli_distractor_trianglediamonds.svg	4	yes	57	0	580
6.6.1	win	2022-12-14	22:00:22	22:07:46	442393	6306f070d4f94e56cb544400	103002848	1	practice_slash	9	practice_slash	21	stimuli_distractor_diamondtriangles.svg	stimuli_distractor_trianglediamonds.svg	14	no	0	1	2003
6.6.1	win	2022-12-14	22:00:22	22:07:46	442393	6306f070d4f94e56cb544400	103002848	1	practice_slash	9	advance_on_keypress_SLASH	22	stimuli_distractor_diamondtriangles.svg	stimuli_distractor_trianglediamonds.svg	14	no	57	0	265
6.6.1	win	2022-12-14	22:00:22	22:07:49	444958	6306f070d4f94e56cb544400	103002848	1	practice_slash	9	practice_slash	23	stimuli_distractor_diamondtriangles.svg	stimuli_target_circletriangles.svg	7	yes	53	1	664
6.6.1	win	2022-12-14	22:00:22	22:07:49	444958	6306f070d4f94e56cb544400	103002848	1	practice_slash	9	advance_on_keypress_SLASH	24	stimuli_distractor_diamondtriangles.svg	stimuli_target_circletriangles.svg	7	yes	57	0	447
6.6.1	win	2022-12-14	22:00:22	22:07:52	447774	6306f070d4f94e56cb544400	103002848	1	practice_slash	9	practice_slash	25	stimuli_distractor_trianglediamonds.svg	stimuli_target_diamondcircles.svg	12	yes	53	1	728
6.6.1	win	2022-12-14	22:00:22	22:07:52	447774	6306f070d4f94e56cb544400	103002848	1	practice_slash	9	advance_on_keypress_SLASH	26	stimuli_distractor_trianglediamonds.svg	stimuli_target_diamondcircles.svg	12	yes	57	0	436
6.6.1	win	2022-12-14	22:00:22	22:07:54	450521	6306f070d4f94e56cb544400	103002848	1	practice_slash	9	practice_slash	27	stimuli_distractor_diamondtriangles.svg	stimuli_target_diamondcircles.svg	8	yes	53	1	676
6.6.1	win	2022-12-14	22:00:22	22:07:54	450521	6306f070d4f94e56cb544400	103002848	1	practice_slash	9	advance_on_keypress_SLASH	28	stimuli_distractor_diamondtriangles.svg	stimuli_target_diamondcircles.svg	8	yes	57	0	484
6.6.1	win	2022-12-14	22:00:22	22:07:57	453512	6306f070d4f94e56cb544400	103002848	1	practice_slash	9	practice_slash	29	stimuli_distractor_trianglediamonds.svg	stimuli_target_circlediamonds.svg	10	yes	53	1	873
6.6.1	win	2022-12-14	22:00:22	22:07:57	453512	6306f070d4f94e56cb544400	103002848	1	practice_slash	9	advance_on_keypress_SLASH	30	stimuli_distractor_trianglediamonds.svg	stimuli_target_circlediamonds.svg	10	yes	57	0	529
6.6.1	win	2022-12-14	22:00:22	22:08:00	456297	6306f070d4f94e56cb544400	103002848	1	practice_slash	9	practice_slash	31	stimuli_target_circlediamonds.svg	stimuli_distractor_diamondtriangles.svg	1	yes	53	1	636
6.6.1	win	2022-12-14	22:00:22	22:08:00	456297	6306f070d4f94e56cb544400	103002848	1	practice_slash	9	advance_on_keypress_SLASH	32	stimuli_target_circlediamonds.svg	stimuli_distractor_diamondtriangles.svg	1	yes	57	0	360
6.6.1	win	2022-12-14	22:00:22	22:08:08	464165	6306f070d4f94e56cb544400	103002848	1	main_slash	11	main_slash	1	stimuli_target_squarediamonds.svg	stimuli_distractor_trianglediamonds.svg	4	yes	53	1	526
6.6.1	win	2022-12-14	22:00:22	22:08:08	464165	6306f070d4f94e56cb544400	103002848	1	main_slash	11	advance_on_keypress_SLASH	2	stimuli_target_squarediamonds.svg	stimuli_distractor_trianglediamonds.svg	4	yes	57	0	466
6.6.1	win	2022-12-14	22:00:22	22:08:10	466006	6306f070d4f94e56cb544400	103002848	1	main_slash	11	main_slash	3	stimuli_distractor_diamondtriangles.svg	stimuli_target_diamondcircles.svg	31	yes	53	1	733
6.6.1	win	2022-12-14	22:00:22	22:08:10	466006	6306f070d4f94e56cb544400	103002848	1	main_slash	11	advance_on_keypress_SLASH	4	stimuli_distractor_diamondtriangles.svg	stimuli_target_diamondcircles.svg	31	yes	57	0	1878
6.6.1	win	2022-12-14	22:00:22	22:08:13	469140	6306f070d4f94e56cb544400	103002848	1	main_slash	11	main_slash	5	stimuli_distractor_diamondtriangles.svg	stimuli_target_trianglesquares.svg	30	yes	53	1	648
6.6.1	win	2022-12-14	22:00:22	22:08:13	469140	6306f070d4f94e56cb544400	103002848	1	main_slash	11	advance_on_keypress_SLASH	6	stimuli_distractor_diamondtriangles.svg	stimuli_target_trianglesquares.svg	30	yes	57	0	1454
6.6.1	win	2022-12-14	22:00:22	22:08:16	471679	6306f070d4f94e56cb544400	103002848	1	main_slash	11	main_slash	7	stimuli_target_trianglecircles.svg	stimuli_distractor_diamondtriangles.svg	21	yes	53	1	470
6.6.1	win	2022-12-14	22:00:22	22:08:16	471679	6306f070d4f94e56cb544400	103002848	1	main_slash	11	advance_on_keypress_SLASH	8	stimuli_target_trianglecircles.svg	stimuli_distractor_diamondtriangles.svg	21	yes	57	0	1133
6.6.1	win	2022-12-14	22:00:22	22:08:19	475426	6306f070d4f94e56cb544400	103002848	1	main_slash	11	main_slash	9	stimuli_distractor_trianglediamonds.svg	stimuli_distractor_diamondtriangles.svg	35	no	0	1	2003
6.6.1	win	2022-12-14	22:00:22	22:08:19	475426	6306f070d4f94e56cb544400	103002848	1	main_slash	11	advance_on_keypress_SLASH	10	stimuli_distractor_trianglediamonds.svg	stimuli_distractor_diamondtriangles.svg	35	no	57	0	428
6.6.1	win	2022-12-14	22:00:22	22:08:21	477280	6306f070d4f94e56cb544400	103002848	1	main_slash	11	main_slash	11	stimuli_target_diamondsquares.svg	stimuli_distractor_trianglediamonds.svg	20	yes	53	1	786
6.6.1	win	2022-12-14	22:00:22	22:08:21	477280	6306f070d4f94e56cb544400	103002848	1	main_slash	11	advance_on_keypress_SLASH	12	stimuli_target_diamondsquares.svg	stimuli_distractor_trianglediamonds.svg	20	yes	57	0	558
6.6.1	win	2022-12-14	22:00:22	22:08:23	479173	6306f070d4f94e56cb544400	103002848	1	main_slash	11	main_slash	13	stimuli_target_trianglecircles.svg	stimuli_distractor_trianglediamonds.svg	17	yes	53	1	717
6.6.1	win	2022-12-14	22:00:22	22:08:23	479173	6306f070d4f94e56cb544400	103002848	1	main_slash	11	advance_on_keypress_SLASH	14	stimuli_target_trianglecircles.svg	stimuli_distractor_trianglediamonds.svg	17	yes	57	0	380
6.6.1	win	2022-12-14	22:00:22	22:08:25	480902	6306f070d4f94e56cb544400	103002848	1	main_slash	11	main_slash	15	stimuli_target_circletriangles.svg	stimuli_distractor_diamondtriangles.svg	5	yes	53	1	739
6.6.1	win	2022-12-14	22:00:22	22:08:25	480902	6306f070d4f94e56cb544400	103002848	1	main_slash	11	advance_on_keypress_SLASH	16	stimuli_target_circletriangles.svg	stimuli_distractor_diamondtriangles.svg	5	yes	57	0	253
6.6.1	win	2022-12-14	22:00:22	22:08:26	482422	6306f070d4f94e56cb544400	103002848	1	main_slash	11	main_slash	17	stimuli_distractor_trianglediamonds.svg	stimuli_target_circletriangles.svg	9	yes	53	1	652
6.6.1	win	2022-12-14	22:00:22	22:08:26	482422	6306f070d4f94e56cb544400	103002848	1	main_slash	11	advance_on_keypress_SLASH	18	stimuli_distractor_trianglediamonds.svg	stimuli_target_circletriangles.svg	9	yes	57	0	173
6.6.1	win	2022-12-14	22:00:22	22:08:28	483925	6306f070d4f94e56cb544400	103002848	1	main_slash	11	main_slash	19	stimuli_target_diamondsquares.svg	stimuli_distractor_diamondtriangles.svg	24	yes	53	1	696
6.6.1	win	2022-12-14	22:00:22	22:08:28	483925	6306f070d4f94e56cb544400	103002848	1	main_slash	11	advance_on_keypress_SLASH	20	stimuli_target_diamondsquares.svg	stimuli_distractor_diamondtriangles.svg	24	yes	57	0	169
6.6.1	win	2022-12-14	22:00:22	22:08:29	485429	6306f070d4f94e56cb544400	103002848	1	main_slash	11	main_slash	21	stimuli_target_squarediamonds.svg	stimuli_distractor_diamondtriangles.svg	8	yes	53	1	699
6.6.1	win	2022-12-14	22:00:22	22:08:29	485429	6306f070d4f94e56cb544400	103002848	1	main_slash	11	advance_on_keypress_SLASH	22	stimuli_target_squarediamonds.svg	stimuli_distractor_diamondtriangles.svg	8	yes	57	0	165
6.6.1	win	2022-12-14	22:00:22	22:08:32	488210	6306f070d4f94e56cb544400	103002848	1	main_slash	11	main_slash	23	stimuli_distractor_diamondtriangles.svg	stimuli_distractor_diamondtriangles.svg	40	no	0	1	2003
6.6.1	win	2022-12-14	22:00:22	22:08:32	488210	6306f070d4f94e56cb544400	103002848	1	main_slash	11	advance_on_keypress_SLASH	24	stimuli_distractor_diamondtriangles.svg	stimuli_distractor_diamondtriangles.svg	40	no	57	0	332
6.6.1	win	2022-12-14	22:00:22	22:08:34	489797	6306f070d4f94e56cb544400	103002848	1	main_slash	11	main_slash	25	stimuli_distractor_diamondtriangles.svg	stimuli_target_squarediamonds.svg	16	yes	53	1	641
6.6.1	win	2022-12-14	22:00:22	22:08:34	489797	6306f070d4f94e56cb544400	103002848	1	main_slash	11	advance_on_keypress_SLASH	26	stimuli_distractor_diamondtriangles.svg	stimuli_target_squarediamonds.svg	16	yes	57	0	186
6.6.1	win	2022-12-14	22:00:22	22:08:35	491285	6306f070d4f94e56cb544400	103002848	1	main_slash	11	main_slash	27	stimuli_distractor_diamondtriangles.svg	stimuli_target_circletriangles.svg	13	yes	53	1	686
6.6.1	win	2022-12-14	22:00:22	22:08:35	491285	6306f070d4f94e56cb544400	103002848	1	main_slash	11	advance_on_keypress_SLASH	28	stimuli_distractor_diamondtriangles.svg	stimuli_target_circletriangles.svg	13	yes	57	0	156
6.6.1	win	2022-12-14	22:00:22	22:08:37	492805	6306f070d4f94e56cb544400	103002848	1	main_slash	11	main_slash	29	stimuli_target_diamondcircles.svg	stimuli_distractor_trianglediamonds.svg	19	yes	53	1	726
6.6.1	win	2022-12-14	22:00:22	22:08:37	492805	6306f070d4f94e56cb544400	103002848	1	main_slash	11	advance_on_keypress_SLASH	30	stimuli_target_diamondcircles.svg	stimuli_distractor_trianglediamonds.svg	19	yes	57	0	173
6.6.1	win	2022-12-14	22:00:22	22:08:38	494213	6306f070d4f94e56cb544400	103002848	1	main_slash	11	main_slash	31	stimuli_target_squaretriangles.svg	stimuli_distractor_trianglediamonds.svg	3	yes	53	1	594
6.6.1	win	2022-12-14	22:00:22	22:08:38	494213	6306f070d4f94e56cb544400	103002848	1	main_slash	11	advance_on_keypress_SLASH	32	stimuli_target_squaretriangles.svg	stimuli_distractor_trianglediamonds.svg	3	yes	57	0	100
6.6.1	win	2022-12-14	22:00:22	22:08:41	496979	6306f070d4f94e56cb544400	103002848	1	main_slash	11	main_slash	33	stimuli_distractor_diamondtriangles.svg	stimuli_distractor_diamondtriangles.svg	39	no	0	1	2003
6.6.1	win	2022-12-14	22:00:22	22:08:41	496979	6306f070d4f94e56cb544400	103002848	1	main_slash	11	advance_on_keypress_SLASH	34	stimuli_distractor_diamondtriangles.svg	stimuli_distractor_diamondtriangles.svg	39	no	57	0	373
6.6.1	win	2022-12-14	22:00:22	22:08:42	498565	6306f070d4f94e56cb544400	103002848	1	main_slash	11	main_slash	35	stimuli_target_squaretriangles.svg	stimuli_distractor_diamondtriangles.svg	7	yes	53	1	600
6.6.1	win	2022-12-14	22:00:22	22:08:42	498565	6306f070d4f94e56cb544400	103002848	1	main_slash	11	advance_on_keypress_SLASH	36	stimuli_target_squaretriangles.svg	stimuli_distractor_diamondtriangles.svg	7	yes	57	0	199
6.6.1	win	2022-12-14	22:00:22	22:08:45	501375	6306f070d4f94e56cb544400	103002848	1	main_slash	11	main_slash	37	stimuli_distractor_trianglediamonds.svg	stimuli_distractor_diamondtriangles.svg	36	no	0	1	2003
6.6.1	win	2022-12-14	22:00:22	22:08:45	501375	6306f070d4f94e56cb544400	103002848	1	main_slash	11	advance_on_keypress_SLASH	38	stimuli_distractor_trianglediamonds.svg	stimuli_distractor_diamondtriangles.svg	36	no	57	0	315
6.6.1	win	2022-12-14	22:00:22	22:08:47	502901	6306f070d4f94e56cb544400	103002848	1	main_slash	11	main_slash	39	stimuli_distractor_diamondtriangles.svg	stimuli_target_circlediamonds.svg	14	yes	53	1	595
6.6.1	win	2022-12-14	22:00:22	22:08:47	502901	6306f070d4f94e56cb544400	103002848	1	main_slash	11	advance_on_keypress_SLASH	40	stimuli_distractor_diamondtriangles.svg	stimuli_target_circlediamonds.svg	14	yes	57	0	252
6.6.1	win	2022-12-14	22:00:22	22:08:49	504623	6306f070d4f94e56cb544400	103002848	1	main_slash	11	main_slash	41	stimuli_distractor_trianglediamonds.svg	stimuli_target_trianglesquares.svg	26	yes	53	1	833
6.6.1	win	2022-12-14	22:00:22	22:08:49	504623	6306f070d4f94e56cb544400	103002848	1	main_slash	11	advance_on_keypress_SLASH	42	stimuli_distractor_trianglediamonds.svg	stimuli_target_trianglesquares.svg	26	yes	57	0	241
6.6.1	win	2022-12-14	22:00:22	22:08:50	506319	6306f070d4f94e56cb544400	103002848	1	main_slash	11	main_slash	43	stimuli_distractor_diamondtriangles.svg	stimuli_target_squaretriangles.svg	15	yes	53	1	843
6.6.1	win	2022-12-14	22:00:22	22:08:50	506319	6306f070d4f94e56cb544400	103002848	1	main_slash	11	advance_on_keypress_SLASH	44	stimuli_distractor_diamondtriangles.svg	stimuli_target_squaretriangles.svg	15	yes	57	0	138
6.6.1	win	2022-12-14	22:00:22	22:08:52	507749	6306f070d4f94e56cb544400	103002848	1	main_slash	11	main_slash	45	stimuli_distractor_trianglediamonds.svg	stimuli_target_squaretriangles.svg	11	yes	53	1	657
6.6.1	win	2022-12-14	22:00:22	22:08:52	507749	6306f070d4f94e56cb544400	103002848	1	main_slash	11	advance_on_keypress_SLASH	46	stimuli_distractor_trianglediamonds.svg	stimuli_target_squaretriangles.svg	11	yes	57	0	168
6.6.1	win	2022-12-14	22:00:22	22:08:54	509887	6306f070d4f94e56cb544400	103002848	1	main_slash	11	main_slash	47	stimuli_target_diamondcircles.svg	stimuli_distractor_diamondtriangles.svg	23	yes	53	1	1331
6.6.1	win	2022-12-14	22:00:22	22:08:54	509887	6306f070d4f94e56cb544400	103002848	1	main_slash	11	advance_on_keypress_SLASH	48	stimuli_target_diamondcircles.svg	stimuli_distractor_diamondtriangles.svg	23	yes	57	0	259
6.6.1	win	2022-12-14	22:00:22	22:08:55	511445	6306f070d4f94e56cb544400	103002848	1	main_slash	11	main_slash	49	stimuli_distractor_trianglediamonds.svg	stimuli_target_trianglecircles.svg	25	yes	53	1	665
6.6.1	win	2022-12-14	22:00:22	22:08:55	511445	6306f070d4f94e56cb544400	103002848	1	main_slash	11	advance_on_keypress_SLASH	50	stimuli_distractor_trianglediamonds.svg	stimuli_target_trianglecircles.svg	25	yes	57	0	131
6.6.1	win	2022-12-14	22:00:22	22:08:57	512815	6306f070d4f94e56cb544400	103002848	1	main_slash	11	main_slash	51	stimuli_target_trianglesquares.svg	stimuli_distractor_diamondtriangles.svg	22	yes	53	1	575
6.6.1	win	2022-12-14	22:00:22	22:08:57	512815	6306f070d4f94e56cb544400	103002848	1	main_slash	11	advance_on_keypress_SLASH	52	stimuli_target_trianglesquares.svg	stimuli_distractor_diamondtriangles.svg	22	yes	57	0	188
6.6.1	win	2022-12-14	22:00:22	22:09:00	515617	6306f070d4f94e56cb544400	103002848	1	main_slash	11	main_slash	53	stimuli_distractor_trianglediamonds.svg	stimuli_distractor_trianglediamonds.svg	34	no	0	1	2003
6.6.1	win	2022-12-14	22:00:22	22:09:00	515617	6306f070d4f94e56cb544400	103002848	1	main_slash	11	advance_on_keypress_SLASH	54	stimuli_distractor_trianglediamonds.svg	stimuli_distractor_trianglediamonds.svg	34	no	57	0	276
6.6.1	win	2022-12-14	22:00:22	22:09:02	518518	6306f070d4f94e56cb544400	103002848	1	main_slash	11	main_slash	55	stimuli_distractor_trianglediamonds.svg	stimuli_distractor_trianglediamonds.svg	33	no	0	1	2003
6.6.1	win	2022-12-14	22:00:22	22:09:02	518518	6306f070d4f94e56cb544400	103002848	1	main_slash	11	advance_on_keypress_SLASH	56	stimuli_distractor_trianglediamonds.svg	stimuli_distractor_trianglediamonds.svg	33	no	57	0	279
6.6.1	win	2022-12-14	22:00:22	22:09:04	519989	6306f070d4f94e56cb544400	103002848	1	main_slash	11	main_slash	57	stimuli_target_circlediamonds.svg	stimuli_distractor_trianglediamonds.svg	2	yes	53	1	578
6.6.1	win	2022-12-14	22:00:22	22:09:04	519989	6306f070d4f94e56cb544400	103002848	1	main_slash	11	advance_on_keypress_SLASH	58	stimuli_target_circlediamonds.svg	stimuli_distractor_trianglediamonds.svg	2	yes	57	0	342
6.6.1	win	2022-12-14	22:00:22	22:09:07	522948	6306f070d4f94e56cb544400	103002848	1	main_slash	11	main_slash	59	stimuli_distractor_diamondtriangles.svg	stimuli_distractor_trianglediamonds.svg	38	no	0	1	2003
6.6.1	win	2022-12-14	22:00:22	22:09:07	522948	6306f070d4f94e56cb544400	103002848	1	main_slash	11	advance_on_keypress_SLASH	60	stimuli_distractor_diamondtriangles.svg	stimuli_distractor_trianglediamonds.svg	38	no	57	0	247
6.6.1	win	2022-12-14	22:00:22	22:09:08	524549	6306f070d4f94e56cb544400	103002848	1	main_slash	11	main_slash	61	stimuli_distractor_diamondtriangles.svg	stimuli_target_diamondsquares.svg	32	yes	53	1	738
6.6.1	win	2022-12-14	22:00:22	22:09:08	524549	6306f070d4f94e56cb544400	103002848	1	main_slash	11	advance_on_keypress_SLASH	62	stimuli_distractor_diamondtriangles.svg	stimuli_target_diamondsquares.svg	32	yes	57	0	220
6.6.1	win	2022-12-14	22:00:22	22:09:10	526133	6306f070d4f94e56cb544400	103002848	1	main_slash	11	main_slash	63	stimuli_distractor_diamondtriangles.svg	stimuli_target_trianglecircles.svg	29	yes	53	1	731
6.6.1	win	2022-12-14	22:00:22	22:09:10	526133	6306f070d4f94e56cb544400	103002848	1	main_slash	11	advance_on_keypress_SLASH	64	stimuli_distractor_diamondtriangles.svg	stimuli_target_trianglecircles.svg	29	yes	57	0	284
6.6.1	win	2022-12-14	22:00:22	22:09:13	529029	6306f070d4f94e56cb544400	103002848	1	main_slash	11	main_slash	65	stimuli_distractor_diamondtriangles.svg	stimuli_distractor_trianglediamonds.svg	37	no	0	1	2003
6.6.1	win	2022-12-14	22:00:22	22:09:13	529029	6306f070d4f94e56cb544400	103002848	1	main_slash	11	advance_on_keypress_SLASH	66	stimuli_distractor_diamondtriangles.svg	stimuli_distractor_trianglediamonds.svg	37	no	57	0	352
6.6.1	win	2022-12-14	22:00:22	22:09:15	531141	6306f070d4f94e56cb544400	103002848	1	main_slash	11	main_slash	67	stimuli_distractor_trianglediamonds.svg	stimuli_target_diamondcircles.svg	27	yes	53	1	1118
6.6.1	win	2022-12-14	22:00:22	22:09:15	531141	6306f070d4f94e56cb544400	103002848	1	main_slash	11	advance_on_keypress_SLASH	68	stimuli_distractor_trianglediamonds.svg	stimuli_target_diamondcircles.svg	27	yes	57	0	809
6.6.1	win	2022-12-14	22:00:22	22:09:17	533413	6306f070d4f94e56cb544400	103002848	1	main_slash	11	main_slash	69	stimuli_target_circlediamonds.svg	stimuli_distractor_diamondtriangles.svg	6	yes	53	1	844
6.6.1	win	2022-12-14	22:00:22	22:09:17	533413	6306f070d4f94e56cb544400	103002848	1	main_slash	11	advance_on_keypress_SLASH	70	stimuli_target_circlediamonds.svg	stimuli_distractor_diamondtriangles.svg	6	yes	57	0	202
6.6.1	win	2022-12-14	22:00:22	22:09:19	534917	6306f070d4f94e56cb544400	103002848	1	main_slash	11	main_slash	71	stimuli_target_trianglesquares.svg	stimuli_distractor_trianglediamonds.svg	18	yes	53	1	684
6.6.1	win	2022-12-14	22:00:22	22:09:19	534917	6306f070d4f94e56cb544400	103002848	1	main_slash	11	advance_on_keypress_SLASH	72	stimuli_target_trianglesquares.svg	stimuli_distractor_trianglediamonds.svg	18	yes	57	0	120
6.6.1	win	2022-12-14	22:00:22	22:09:20	536261	6306f070d4f94e56cb544400	103002848	1	main_slash	11	main_slash	73	stimuli_distractor_trianglediamonds.svg	stimuli_target_squarediamonds.svg	12	yes	53	1	586
6.6.1	win	2022-12-14	22:00:22	22:09:20	536261	6306f070d4f94e56cb544400	103002848	1	main_slash	11	advance_on_keypress_SLASH	74	stimuli_distractor_trianglediamonds.svg	stimuli_target_squarediamonds.svg	12	yes	57	0	136
6.6.1	win	2022-12-14	22:00:22	22:09:22	537637	6306f070d4f94e56cb544400	103002848	1	main_slash	11	main_slash	75	stimuli_distractor_trianglediamonds.svg	stimuli_target_diamondsquares.svg	28	yes	53	1	628
6.6.1	win	2022-12-14	22:00:22	22:09:22	537637	6306f070d4f94e56cb544400	103002848	1	main_slash	11	advance_on_keypress_SLASH	76	stimuli_distractor_trianglediamonds.svg	stimuli_target_diamondsquares.svg	28	yes	57	0	268
6.6.1	win	2022-12-14	22:00:22	22:09:23	539141	6306f070d4f94e56cb544400	103002848	1	main_slash	11	main_slash	77	stimuli_distractor_trianglediamonds.svg	stimuli_target_circlediamonds.svg	10	yes	53	1	601
6.6.1	win	2022-12-14	22:00:22	22:09:23	539141	6306f070d4f94e56cb544400	103002848	1	main_slash	11	advance_on_keypress_SLASH	78	stimuli_distractor_trianglediamonds.svg	stimuli_target_circlediamonds.svg	10	yes	57	0	182
6.6.1	win	2022-12-14	22:00:22	22:09:24	540559	6306f070d4f94e56cb544400	103002848	1	main_slash	11	main_slash	79	stimuli_target_circletriangles.svg	stimuli_distractor_trianglediamonds.svg	1	yes	53	1	602
6.6.1	win	2022-12-14	22:00:22	22:09:24	540559	6306f070d4f94e56cb544400	103002848	1	main_slash	11	advance_on_keypress_SLASH	80	stimuli_target_circletriangles.svg	stimuli_distractor_trianglediamonds.svg	1	yes	57	0	130
6.6.1	win	2022-12-14	22:00:22	22:09:26	541941	6306f070d4f94e56cb544400	103002848	1	main_slash	11	main_slash	81	stimuli_distractor_trianglediamonds.svg	stimuli_target_squaretriangles.svg	11	yes	53	1	614
6.6.1	win	2022-12-14	22:00:22	22:09:26	541941	6306f070d4f94e56cb544400	103002848	1	main_slash	11	advance_on_keypress_SLASH	82	stimuli_distractor_trianglediamonds.svg	stimuli_target_squaretriangles.svg	11	yes	57	0	187
6.6.1	win	2022-12-14	22:00:22	22:09:27	543300	6306f070d4f94e56cb544400	103002848	1	main_slash	11	main_slash	83	stimuli_distractor_trianglediamonds.svg	stimuli_target_diamondcircles.svg	27	yes	53	1	559
6.6.1	win	2022-12-14	22:00:22	22:09:27	543300	6306f070d4f94e56cb544400	103002848	1	main_slash	11	advance_on_keypress_SLASH	84	stimuli_distractor_trianglediamonds.svg	stimuli_target_diamondcircles.svg	27	yes	57	0	167
6.6.1	win	2022-12-14	22:00:22	22:09:30	546104	6306f070d4f94e56cb544400	103002848	1	main_slash	11	main_slash	85	stimuli_distractor_diamondtriangles.svg	stimuli_distractor_diamondtriangles.svg	40	no	0	1	2003
6.6.1	win	2022-12-14	22:00:22	22:09:30	546104	6306f070d4f94e56cb544400	103002848	1	main_slash	11	advance_on_keypress_SLASH	86	stimuli_distractor_diamondtriangles.svg	stimuli_distractor_diamondtriangles.svg	40	no	57	0	473
6.6.1	win	2022-12-14	22:00:22	22:09:32	547797	6306f070d4f94e56cb544400	103002848	1	main_slash	11	main_slash	87	stimuli_distractor_diamondtriangles.svg	stimuli_target_diamondsquares.svg	32	yes	53	1	609
6.6.1	win	2022-12-14	22:00:22	22:09:32	547797	6306f070d4f94e56cb544400	103002848	1	main_slash	11	advance_on_keypress_SLASH	88	stimuli_distractor_diamondtriangles.svg	stimuli_target_diamondsquares.svg	32	yes	57	0	276
6.6.1	win	2022-12-14	22:00:22	22:09:33	549439	6306f070d4f94e56cb544400	103002848	1	main_slash	11	main_slash	89	stimuli_distractor_trianglediamonds.svg	stimuli_target_trianglecircles.svg	25	yes	53	1	725
6.6.1	win	2022-12-14	22:00:22	22:09:33	549439	6306f070d4f94e56cb544400	103002848	1	main_slash	11	advance_on_keypress_SLASH	90	stimuli_distractor_trianglediamonds.svg	stimuli_target_trianglecircles.svg	25	yes	57	0	125
6.6.1	win	2022-12-14	22:00:22	22:09:36	552206	6306f070d4f94e56cb544400	103002848	1	main_slash	11	main_slash	91	stimuli_distractor_diamondtriangles.svg	stimuli_distractor_diamondtriangles.svg	39	no	0	1	2003
6.6.1	win	2022-12-14	22:00:22	22:09:36	552206	6306f070d4f94e56cb544400	103002848	1	main_slash	11	advance_on_keypress_SLASH	92	stimuli_distractor_diamondtriangles.svg	stimuli_distractor_diamondtriangles.svg	39	no	57	0	319
6.6.1	win	2022-12-14	22:00:22	22:09:38	553790	6306f070d4f94e56cb544400	103002848	1	main_slash	11	main_slash	93	stimuli_distractor_diamondtriangles.svg	stimuli_target_squarediamonds.svg	16	yes	53	1	651
6.6.1	win	2022-12-14	22:00:22	22:09:38	553790	6306f070d4f94e56cb544400	103002848	1	main_slash	11	advance_on_keypress_SLASH	94	stimuli_distractor_diamondtriangles.svg	stimuli_target_squarediamonds.svg	16	yes	57	0	277
6.6.1	win	2022-12-14	22:00:22	22:09:41	556714	6306f070d4f94e56cb544400	103002848	1	main_slash	11	main_slash	95	stimuli_distractor_diamondtriangles.svg	stimuli_distractor_trianglediamonds.svg	37	no	0	1	2003
6.6.1	win	2022-12-14	22:00:22	22:09:41	556714	6306f070d4f94e56cb544400	103002848	1	main_slash	11	advance_on_keypress_SLASH	96	stimuli_distractor_diamondtriangles.svg	stimuli_distractor_trianglediamonds.svg	37	no	57	0	308
6.6.1	win	2022-12-14	22:00:22	22:09:43	558740	6306f070d4f94e56cb544400	103002848	1	main_slash	11	main_slash	97	stimuli_target_diamondcircles.svg	stimuli_distractor_diamondtriangles.svg	23	yes	53	1	1081
6.6.1	win	2022-12-14	22:00:22	22:09:43	558740	6306f070d4f94e56cb544400	103002848	1	main_slash	11	advance_on_keypress_SLASH	98	stimuli_target_diamondcircles.svg	stimuli_distractor_diamondtriangles.svg	23	yes	57	0	324
6.6.1	win	2022-12-14	22:00:22	22:09:44	560372	6306f070d4f94e56cb544400	103002848	1	main_slash	11	main_slash	99	stimuli_target_squarediamonds.svg	stimuli_distractor_diamondtriangles.svg	8	yes	53	1	674
6.6.1	win	2022-12-14	22:00:22	22:09:44	560372	6306f070d4f94e56cb544400	103002848	1	main_slash	11	advance_on_keypress_SLASH	100	stimuli_target_squarediamonds.svg	stimuli_distractor_diamondtriangles.svg	8	yes	57	0	157
6.6.1	win	2022-12-14	22:00:22	22:09:46	562030	6306f070d4f94e56cb544400	103002848	1	main_slash	11	main_slash	101	stimuli_distractor_diamondtriangles.svg	stimuli_target_circlediamonds.svg	14	yes	53	1	864
6.6.1	win	2022-12-14	22:00:22	22:09:46	562030	6306f070d4f94e56cb544400	103002848	1	main_slash	11	advance_on_keypress_SLASH	102	stimuli_distractor_diamondtriangles.svg	stimuli_target_circlediamonds.svg	14	yes	57	0	173
6.6.1	win	2022-12-14	22:00:22	22:09:47	563455	6306f070d4f94e56cb544400	103002848	1	main_slash	11	main_slash	103	stimuli_distractor_trianglediamonds.svg	stimuli_target_circletriangles.svg	9	yes	53	1	617
6.6.1	win	2022-12-14	22:00:22	22:09:47	563455	6306f070d4f94e56cb544400	103002848	1	main_slash	11	advance_on_keypress_SLASH	104	stimuli_distractor_trianglediamonds.svg	stimuli_target_circletriangles.svg	9	yes	57	0	109
6.6.1	win	2022-12-14	22:00:22	22:09:50	566178	6306f070d4f94e56cb544400	103002848	1	main_slash	11	main_slash	105	stimuli_distractor_trianglediamonds.svg	stimuli_distractor_trianglediamonds.svg	34	no	0	1	2003
6.6.1	win	2022-12-14	22:00:22	22:09:50	566178	6306f070d4f94e56cb544400	103002848	1	main_slash	11	advance_on_keypress_SLASH	106	stimuli_distractor_trianglediamonds.svg	stimuli_distractor_trianglediamonds.svg	34	no	57	0	284
6.6.1	win	2022-12-14	22:00:22	22:09:51	567519	6306f070d4f94e56cb544400	103002848	1	main_slash	11	main_slash	107	stimuli_target_diamondsquares.svg	stimuli_distractor_trianglediamonds.svg	20	yes	53	1	419
6.6.1	win	2022-12-14	22:00:22	22:09:51	567519	6306f070d4f94e56cb544400	103002848	1	main_slash	11	advance_on_keypress_SLASH	108	stimuli_target_diamondsquares.svg	stimuli_distractor_trianglediamonds.svg	20	yes	57	0	194
6.6.1	win	2022-12-14	22:00:22	22:09:53	568869	6306f070d4f94e56cb544400	103002848	1	main_slash	11	main_slash	109	stimuli_target_trianglecircles.svg	stimuli_distractor_trianglediamonds.svg	17	yes	53	1	547
6.6.1	win	2022-12-14	22:00:22	22:09:53	568869	6306f070d4f94e56cb544400	103002848	1	main_slash	11	advance_on_keypress_SLASH	110	stimuli_target_trianglecircles.svg	stimuli_distractor_trianglediamonds.svg	17	yes	57	0	188
6.6.1	win	2022-12-14	22:00:22	22:09:56	571670	6306f070d4f94e56cb544400	103002848	1	main_slash	11	main_slash	111	stimuli_distractor_trianglediamonds.svg	stimuli_distractor_trianglediamonds.svg	33	no	0	1	2003
6.6.1	win	2022-12-14	22:00:22	22:09:56	571670	6306f070d4f94e56cb544400	103002848	1	main_slash	11	advance_on_keypress_SLASH	112	stimuli_distractor_trianglediamonds.svg	stimuli_distractor_trianglediamonds.svg	33	no	57	0	256
6.6.1	win	2022-12-14	22:00:22	22:09:57	573310	6306f070d4f94e56cb544400	103002848	1	main_slash	11	main_slash	113	stimuli_distractor_diamondtriangles.svg	stimuli_target_squaretriangles.svg	15	yes	53	1	744
6.6.1	win	2022-12-14	22:00:22	22:09:57	573310	6306f070d4f94e56cb544400	103002848	1	main_slash	11	advance_on_keypress_SLASH	114	stimuli_distractor_diamondtriangles.svg	stimuli_target_squaretriangles.svg	15	yes	57	0	211
6.6.1	win	2022-12-14	22:00:22	22:09:59	574799	6306f070d4f94e56cb544400	103002848	1	main_slash	11	main_slash	115	stimuli_distractor_trianglediamonds.svg	stimuli_target_circlediamonds.svg	10	yes	53	1	664
6.6.1	win	2022-12-14	22:00:22	22:09:59	574799	6306f070d4f94e56cb544400	103002848	1	main_slash	11	advance_on_keypress_SLASH	116	stimuli_distractor_trianglediamonds.svg	stimuli_target_circlediamonds.svg	10	yes	57	0	178
6.6.1	win	2022-12-14	22:00:22	22:10:00	576142	6306f070d4f94e56cb544400	103002848	1	main_slash	11	main_slash	117	stimuli_target_squaretriangles.svg	stimuli_distractor_trianglediamonds.svg	3	yes	53	1	529
6.6.1	win	2022-12-14	22:00:22	22:10:00	576142	6306f070d4f94e56cb544400	103002848	1	main_slash	11	advance_on_keypress_SLASH	118	stimuli_target_squaretriangles.svg	stimuli_distractor_trianglediamonds.svg	3	yes	57	0	131
6.6.1	win	2022-12-14	22:00:22	22:10:01	577551	6306f070d4f94e56cb544400	103002848	1	main_slash	11	main_slash	119	stimuli_target_circlediamonds.svg	stimuli_distractor_diamondtriangles.svg	6	yes	53	1	662
6.6.1	win	2022-12-14	22:00:22	22:10:01	577551	6306f070d4f94e56cb544400	103002848	1	main_slash	11	advance_on_keypress_SLASH	120	stimuli_target_circlediamonds.svg	stimuli_distractor_diamondtriangles.svg	6	yes	57	0	172
6.6.1	win	2022-12-14	22:00:22	22:10:03	579301	6306f070d4f94e56cb544400	103002848	1	main_slash	11	main_slash	121	stimuli_distractor_diamondtriangles.svg	stimuli_target_circletriangles.svg	13	yes	53	1	943
6.6.1	win	2022-12-14	22:00:22	22:10:03	579301	6306f070d4f94e56cb544400	103002848	1	main_slash	11	advance_on_keypress_SLASH	122	stimuli_distractor_diamondtriangles.svg	stimuli_target_circletriangles.svg	13	yes	57	0	236
6.6.1	win	2022-12-14	22:00:22	22:10:05	580735	6306f070d4f94e56cb544400	103002848	1	main_slash	11	main_slash	123	stimuli_target_circlediamonds.svg	stimuli_distractor_trianglediamonds.svg	2	yes	53	1	583
6.6.1	win	2022-12-14	22:00:22	22:10:05	580735	6306f070d4f94e56cb544400	103002848	1	main_slash	11	advance_on_keypress_SLASH	124	stimuli_target_circlediamonds.svg	stimuli_distractor_trianglediamonds.svg	2	yes	57	0	129
6.6.1	win	2022-12-14	22:00:22	22:10:07	583477	6306f070d4f94e56cb544400	103002848	1	main_slash	11	main_slash	125	stimuli_distractor_diamondtriangles.svg	stimuli_distractor_trianglediamonds.svg	38	no	0	1	2003
6.6.1	win	2022-12-14	22:00:22	22:10:07	583477	6306f070d4f94e56cb544400	103002848	1	main_slash	11	advance_on_keypress_SLASH	126	stimuli_distractor_diamondtriangles.svg	stimuli_distractor_trianglediamonds.svg	38	no	57	0	295
6.6.1	win	2022-12-14	22:00:22	22:10:09	585061	6306f070d4f94e56cb544400	103002848	1	main_slash	11	main_slash	127	stimuli_distractor_diamondtriangles.svg	stimuli_target_trianglecircles.svg	29	yes	53	1	675
6.6.1	win	2022-12-14	22:00:22	22:10:09	585061	6306f070d4f94e56cb544400	103002848	1	main_slash	11	advance_on_keypress_SLASH	128	stimuli_distractor_diamondtriangles.svg	stimuli_target_trianglecircles.svg	29	yes	57	0	151
6.6.1	win	2022-12-14	22:00:22	22:10:10	586388	6306f070d4f94e56cb544400	103002848	1	main_slash	11	main_slash	129	stimuli_target_trianglecircles.svg	stimuli_distractor_diamondtriangles.svg	21	yes	53	1	541
6.6.1	win	2022-12-14	22:00:22	22:10:10	586388	6306f070d4f94e56cb544400	103002848	1	main_slash	11	advance_on_keypress_SLASH	130	stimuli_target_trianglecircles.svg	stimuli_distractor_diamondtriangles.svg	21	yes	57	0	157
6.6.1	win	2022-12-14	22:00:22	22:10:12	587620	6306f070d4f94e56cb544400	103002848	1	main_slash	11	main_slash	131	stimuli_distractor_trianglediamonds.svg	stimuli_target_squarediamonds.svg	12	yes	53	1	438
6.6.1	win	2022-12-14	22:00:22	22:10:12	587620	6306f070d4f94e56cb544400	103002848	1	main_slash	11	advance_on_keypress_SLASH	132	stimuli_distractor_trianglediamonds.svg	stimuli_target_squarediamonds.svg	12	yes	57	0	125
6.6.1	win	2022-12-14	22:00:22	22:10:14	590382	6306f070d4f94e56cb544400	103002848	1	main_slash	11	main_slash	133	stimuli_distractor_trianglediamonds.svg	stimuli_distractor_diamondtriangles.svg	35	no	0	1	2003
6.6.1	win	2022-12-14	22:00:22	22:10:14	590382	6306f070d4f94e56cb544400	103002848	1	main_slash	11	advance_on_keypress_SLASH	134	stimuli_distractor_trianglediamonds.svg	stimuli_distractor_diamondtriangles.svg	35	no	57	0	262
6.6.1	win	2022-12-14	22:00:22	22:10:16	591812	6306f070d4f94e56cb544400	103002848	1	main_slash	11	main_slash	135	stimuli_distractor_diamondtriangles.svg	stimuli_target_trianglesquares.svg	30	yes	53	1	527
6.6.1	win	2022-12-14	22:00:22	22:10:16	591812	6306f070d4f94e56cb544400	103002848	1	main_slash	11	advance_on_keypress_SLASH	136	stimuli_distractor_diamondtriangles.svg	stimuli_target_trianglesquares.svg	30	yes	57	0	156
6.6.1	win	2022-12-14	22:00:22	22:10:17	593108	6306f070d4f94e56cb544400	103002848	1	main_slash	11	main_slash	137	stimuli_target_squaretriangles.svg	stimuli_distractor_diamondtriangles.svg	7	yes	53	1	502
6.6.1	win	2022-12-14	22:00:22	22:10:17	593108	6306f070d4f94e56cb544400	103002848	1	main_slash	11	advance_on_keypress_SLASH	138	stimuli_target_squaretriangles.svg	stimuli_distractor_diamondtriangles.svg	7	yes	57	0	109
6.6.1	win	2022-12-14	22:00:22	22:10:20	595833	6306f070d4f94e56cb544400	103002848	1	main_slash	11	main_slash	139	stimuli_distractor_trianglediamonds.svg	stimuli_distractor_diamondtriangles.svg	36	no	0	1	2003
6.6.1	win	2022-12-14	22:00:22	22:10:20	595833	6306f070d4f94e56cb544400	103002848	1	main_slash	11	advance_on_keypress_SLASH	140	stimuli_distractor_trianglediamonds.svg	stimuli_distractor_diamondtriangles.svg	36	no	57	0	291
6.6.1	win	2022-12-14	22:00:22	22:10:21	597252	6306f070d4f94e56cb544400	103002848	1	main_slash	11	main_slash	141	stimuli_target_circletriangles.svg	stimuli_distractor_diamondtriangles.svg	5	yes	53	1	513
6.6.1	win	2022-12-14	22:00:22	22:10:21	597252	6306f070d4f94e56cb544400	103002848	1	main_slash	11	advance_on_keypress_SLASH	142	stimuli_target_circletriangles.svg	stimuli_distractor_diamondtriangles.svg	5	yes	57	0	167
6.6.1	win	2022-12-14	22:00:22	22:10:22	598462	6306f070d4f94e56cb544400	103002848	1	main_slash	11	main_slash	143	stimuli_target_circletriangles.svg	stimuli_distractor_trianglediamonds.svg	1	yes	53	1	435
6.6.1	win	2022-12-14	22:00:22	22:10:22	598462	6306f070d4f94e56cb544400	103002848	1	main_slash	11	advance_on_keypress_SLASH	144	stimuli_target_circletriangles.svg	stimuli_distractor_trianglediamonds.svg	1	yes	57	0	106
6.6.1	win	2022-12-14	22:00:22	22:10:24	599663	6306f070d4f94e56cb544400	103002848	1	main_slash	11	main_slash	145	stimuli_distractor_trianglediamonds.svg	stimuli_target_trianglesquares.svg	26	yes	53	1	461
6.6.1	win	2022-12-14	22:00:22	22:10:24	599663	6306f070d4f94e56cb544400	103002848	1	main_slash	11	advance_on_keypress_SLASH	146	stimuli_distractor_trianglediamonds.svg	stimuli_target_trianglesquares.svg	26	yes	57	0	180
6.6.1	win	2022-12-14	22:00:22	22:10:25	600852	6306f070d4f94e56cb544400	103002848	1	main_slash	11	main_slash	147	stimuli_target_trianglesquares.svg	stimuli_distractor_diamondtriangles.svg	22	yes	53	1	373
6.6.1	win	2022-12-14	22:00:22	22:10:25	600852	6306f070d4f94e56cb544400	103002848	1	main_slash	11	advance_on_keypress_SLASH	148	stimuli_target_trianglesquares.svg	stimuli_distractor_diamondtriangles.svg	22	yes	57	0	151
6.6.1	win	2022-12-14	22:00:22	22:10:26	601972	6306f070d4f94e56cb544400	103002848	1	main_slash	11	main_slash	149	stimuli_distractor_trianglediamonds.svg	stimuli_target_diamondsquares.svg	28	yes	53	1	333
6.6.1	win	2022-12-14	22:00:22	22:10:26	601972	6306f070d4f94e56cb544400	103002848	1	main_slash	11	advance_on_keypress_SLASH	150	stimuli_distractor_trianglediamonds.svg	stimuli_target_diamondsquares.svg	28	yes	57	0	141
6.6.1	win	2022-12-14	22:00:22	22:10:27	603044	6306f070d4f94e56cb544400	103002848	1	main_slash	11	main_slash	151	stimuli_target_diamondcircles.svg	stimuli_distractor_trianglediamonds.svg	19	yes	53	1	323
6.6.1	win	2022-12-14	22:00:22	22:10:27	603044	6306f070d4f94e56cb544400	103002848	1	main_slash	11	advance_on_keypress_SLASH	152	stimuli_target_diamondcircles.svg	stimuli_distractor_trianglediamonds.svg	19	yes	57	0	100
6.6.1	win	2022-12-14	22:00:22	22:10:28	604326	6306f070d4f94e56cb544400	103002848	1	main_slash	11	main_slash	153	stimuli_target_squarediamonds.svg	stimuli_distractor_trianglediamonds.svg	4	yes	53	1	521
6.6.1	win	2022-12-14	22:00:22	22:10:28	604326	6306f070d4f94e56cb544400	103002848	1	main_slash	11	advance_on_keypress_SLASH	154	stimuli_target_squarediamonds.svg	stimuli_distractor_trianglediamonds.svg	4	yes	57	0	288
6.6.1	win	2022-12-14	22:00:22	22:10:30	605774	6306f070d4f94e56cb544400	103002848	1	main_slash	11	main_slash	155	stimuli_target_trianglesquares.svg	stimuli_distractor_trianglediamonds.svg	18	yes	53	1	541
6.6.1	win	2022-12-14	22:00:22	22:10:30	605774	6306f070d4f94e56cb544400	103002848	1	main_slash	11	advance_on_keypress_SLASH	156	stimuli_target_trianglesquares.svg	stimuli_distractor_trianglediamonds.svg	18	yes	57	0	179
6.6.1	win	2022-12-14	22:00:22	22:10:31	607013	6306f070d4f94e56cb544400	103002848	1	main_slash	11	main_slash	157	stimuli_target_diamondsquares.svg	stimuli_distractor_diamondtriangles.svg	24	yes	53	1	445
6.6.1	win	2022-12-14	22:00:22	22:10:31	607013	6306f070d4f94e56cb544400	103002848	1	main_slash	11	advance_on_keypress_SLASH	158	stimuli_target_diamondsquares.svg	stimuli_distractor_diamondtriangles.svg	24	yes	57	0	156
6.6.1	win	2022-12-14	22:00:22	22:10:32	608372	6306f070d4f94e56cb544400	103002848	1	main_slash	11	main_slash	159	stimuli_distractor_diamondtriangles.svg	stimuli_target_diamondcircles.svg	31	yes	53	1	593
6.6.1	win	2022-12-14	22:00:22	22:10:32	608372	6306f070d4f94e56cb544400	103002848	1	main_slash	11	advance_on_keypress_SLASH	160	stimuli_distractor_diamondtriangles.svg	stimuli_target_diamondcircles.svg	31	yes	57	0	205