build	computer.platform	date	time	timestamp	time_elapsed_ms	subject	group	session	blockcode	blocknum	trialcode	trialnum	stimulus_left	stimulus_right	stim_index	target_present	response	correct	latency
6.6.1	mac	2022-12-28	16:16:30	16:18:49	138191	60fed192ae37691d25db0d6d	578466862	1	practice_z	5	practice_z	1	stimuli_target_circlediamonds.svg	stimuli_distractor_diamondtriangles.svg	1	yes	0	0	2000
6.6.1	mac	2022-12-28	16:16:30	16:18:49	138191	60fed192ae37691d25db0d6d	578466862	1	practice_z	5	advance_on_keypress_ZEE	2	stimuli_target_circlediamonds.svg	stimuli_distractor_diamondtriangles.svg	1	yes	57	0	715
6.6.1	mac	2022-12-28	16:16:30	16:18:54	142596	60fed192ae37691d25db0d6d	578466862	1	practice_z	5	practice_z	3	stimuli_distractor_trianglediamonds.svg	stimuli_distractor_diamondtriangles.svg	16	no	0	1	2000
6.6.1	mac	2022-12-28	16:16:30	16:18:54	142596	60fed192ae37691d25db0d6d	578466862	1	practice_z	5	advance_on_keypress_ZEE	4	stimuli_distractor_trianglediamonds.svg	stimuli_distractor_diamondtriangles.svg	16	no	57	0	748
6.6.1	mac	2022-12-28	16:16:30	16:18:58	146983	60fed192ae37691d25db0d6d	578466862	1	practice_z	5	practice_z	5	stimuli_distractor_diamondtriangles.svg	stimuli_target_circletriangles.svg	7	yes	0	0	2000
6.6.1	mac	2022-12-28	16:16:30	16:18:58	146983	60fed192ae37691d25db0d6d	578466862	1	practice_z	5	advance_on_keypress_ZEE	6	stimuli_distractor_diamondtriangles.svg	stimuli_target_circletriangles.svg	7	yes	57	0	613
6.6.1	mac	2022-12-28	16:16:30	16:19:03	151237	60fed192ae37691d25db0d6d	578466862	1	practice_z	5	practice_z	7	stimuli_distractor_trianglediamonds.svg	stimuli_target_diamondcircles.svg	12	yes	0	0	2000
6.6.1	mac	2022-12-28	16:16:30	16:19:03	151237	60fed192ae37691d25db0d6d	578466862	1	practice_z	5	advance_on_keypress_ZEE	8	stimuli_distractor_trianglediamonds.svg	stimuli_target_diamondcircles.svg	12	yes	57	0	769
6.6.1	mac	2022-12-28	16:16:30	16:19:05	154175	60fed192ae37691d25db0d6d	578466862	1	practice_z	5	practice_z	9	stimuli_target_circlediamonds.svg	stimuli_distractor_trianglediamonds.svg	4	yes	44	1	534
6.6.1	mac	2022-12-28	16:16:30	16:19:05	154175	60fed192ae37691d25db0d6d	578466862	1	practice_z	5	advance_on_keypress_ZEE	10	stimuli_target_circlediamonds.svg	stimuli_distractor_trianglediamonds.svg	4	yes	57	0	778
6.6.1	mac	2022-12-28	16:16:30	16:19:08	156941	60fed192ae37691d25db0d6d	578466862	1	practice_z	5	practice_z	11	stimuli_target_diamondsquares.svg	stimuli_distractor_trianglediamonds.svg	6	yes	44	1	346
6.6.1	mac	2022-12-28	16:16:30	16:19:08	156941	60fed192ae37691d25db0d6d	578466862	1	practice_z	5	advance_on_keypress_ZEE	12	stimuli_target_diamondsquares.svg	stimuli_distractor_trianglediamonds.svg	6	yes	57	0	694
6.6.1	mac	2022-12-28	16:16:30	16:19:11	159573	60fed192ae37691d25db0d6d	578466862	1	practice_z	5	practice_z	13	stimuli_distractor_diamondtriangles.svg	stimuli_target_trianglecircles.svg	9	yes	44	1	308
6.6.1	mac	2022-12-28	16:16:30	16:19:11	159573	60fed192ae37691d25db0d6d	578466862	1	practice_z	5	advance_on_keypress_ZEE	14	stimuli_distractor_diamondtriangles.svg	stimuli_target_trianglecircles.svg	9	yes	57	0	542
6.6.1	mac	2022-12-28	16:16:30	16:19:13	162206	60fed192ae37691d25db0d6d	578466862	1	practice_z	5	practice_z	15	stimuli_distractor_trianglediamonds.svg	stimuli_target_squarediamonds.svg	11	yes	44	1	455
6.6.1	mac	2022-12-28	16:16:30	16:19:13	162206	60fed192ae37691d25db0d6d	578466862	1	practice_z	5	advance_on_keypress_ZEE	16	stimuli_distractor_trianglediamonds.svg	stimuli_target_squarediamonds.svg	11	yes	57	0	472
6.6.1	mac	2022-12-28	16:16:30	16:19:16	164702	60fed192ae37691d25db0d6d	578466862	1	practice_z	5	practice_z	17	stimuli_distractor_trianglediamonds.svg	stimuli_distractor_trianglediamonds.svg	15	no	44	0	400
6.6.1	mac	2022-12-28	16:16:30	16:19:16	164702	60fed192ae37691d25db0d6d	578466862	1	practice_z	5	advance_on_keypress_ZEE	18	stimuli_distractor_trianglediamonds.svg	stimuli_distractor_trianglediamonds.svg	15	no	57	0	445
6.6.1	mac	2022-12-28	16:16:30	16:19:19	167222	60fed192ae37691d25db0d6d	578466862	1	practice_z	5	practice_z	19	stimuli_target_squarediamonds.svg	stimuli_distractor_diamondtriangles.svg	2	yes	44	1	451
6.6.1	mac	2022-12-28	16:16:30	16:19:19	167222	60fed192ae37691d25db0d6d	578466862	1	practice_z	5	advance_on_keypress_ZEE	20	stimuli_target_squarediamonds.svg	stimuli_distractor_diamondtriangles.svg	2	yes	57	0	511
6.6.1	mac	2022-12-28	16:16:30	16:19:23	171357	60fed192ae37691d25db0d6d	578466862	1	practice_z	5	practice_z	21	stimuli_target_diamondsquares.svg	stimuli_distractor_diamondtriangles.svg	3	yes	0	0	2000
6.6.1	mac	2022-12-28	16:16:30	16:19:23	171357	60fed192ae37691d25db0d6d	578466862	1	practice_z	5	advance_on_keypress_ZEE	22	stimuli_target_diamondsquares.svg	stimuli_distractor_diamondtriangles.svg	3	yes	57	0	695
6.6.1	mac	2022-12-28	16:16:30	16:19:26	174490	60fed192ae37691d25db0d6d	578466862	1	practice_z	5	practice_z	23	stimuli_distractor_diamondtriangles.svg	stimuli_distractor_diamondtriangles.svg	13	no	44	0	793
6.6.1	mac	2022-12-28	16:16:30	16:19:26	174490	60fed192ae37691d25db0d6d	578466862	1	practice_z	5	advance_on_keypress_ZEE	24	stimuli_distractor_diamondtriangles.svg	stimuli_distractor_diamondtriangles.svg	13	no	57	0	586
6.6.1	mac	2022-12-28	16:16:30	16:19:30	178698	60fed192ae37691d25db0d6d	578466862	1	practice_z	5	practice_z	25	stimuli_distractor_diamondtriangles.svg	stimuli_distractor_trianglediamonds.svg	14	no	0	1	2000
6.6.1	mac	2022-12-28	16:16:30	16:19:30	178698	60fed192ae37691d25db0d6d	578466862	1	practice_z	5	advance_on_keypress_ZEE	26	stimuli_distractor_diamondtriangles.svg	stimuli_distractor_trianglediamonds.svg	14	no	57	0	643
6.6.1	mac	2022-12-28	16:16:30	16:19:33	181556	60fed192ae37691d25db0d6d	578466862	1	practice_z	5	practice_z	27	stimuli_target_squarediamonds.svg	stimuli_distractor_trianglediamonds.svg	5	yes	44	1	584
6.6.1	mac	2022-12-28	16:16:30	16:19:33	181556	60fed192ae37691d25db0d6d	578466862	1	practice_z	5	advance_on_keypress_ZEE	28	stimuli_target_squarediamonds.svg	stimuli_distractor_trianglediamonds.svg	5	yes	57	0	491
6.6.1	mac	2022-12-28	16:16:30	16:19:35	184164	60fed192ae37691d25db0d6d	578466862	1	practice_z	5	practice_z	29	stimuli_distractor_trianglediamonds.svg	stimuli_target_circlediamonds.svg	10	yes	44	1	475
6.6.1	mac	2022-12-28	16:16:30	16:19:35	184164	60fed192ae37691d25db0d6d	578466862	1	practice_z	5	advance_on_keypress_ZEE	30	stimuli_distractor_trianglediamonds.svg	stimuli_target_circlediamonds.svg	10	yes	57	0	555
6.6.1	mac	2022-12-28	16:16:30	16:19:38	186976	60fed192ae37691d25db0d6d	578466862	1	practice_z	5	practice_z	31	stimuli_distractor_diamondtriangles.svg	stimuli_target_diamondcircles.svg	8	yes	44	1	617
6.6.1	mac	2022-12-28	16:16:30	16:19:38	186976	60fed192ae37691d25db0d6d	578466862	1	practice_z	5	advance_on_keypress_ZEE	32	stimuli_distractor_diamondtriangles.svg	stimuli_target_diamondcircles.svg	8	yes	57	0	693
6.6.1	mac	2022-12-28	16:16:30	16:19:45	193243	60fed192ae37691d25db0d6d	578466862	1	main_z	7	main_z	1	stimuli_target_diamondsquares.svg	stimuli_distractor_trianglediamonds.svg	20	yes	44	1	578
6.6.1	mac	2022-12-28	16:16:30	16:19:45	193243	60fed192ae37691d25db0d6d	578466862	1	main_z	7	advance_on_keypress_ZEE	2	stimuli_target_diamondsquares.svg	stimuli_distractor_trianglediamonds.svg	20	yes	57	0	1387
6.6.1	mac	2022-12-28	16:16:30	16:19:47	195944	60fed192ae37691d25db0d6d	578466862	1	main_z	7	main_z	3	stimuli_target_trianglecircles.svg	stimuli_distractor_diamondtriangles.svg	21	yes	44	1	692
6.6.1	mac	2022-12-28	16:16:30	16:19:47	195944	60fed192ae37691d25db0d6d	578466862	1	main_z	7	advance_on_keypress_ZEE	4	stimuli_target_trianglecircles.svg	stimuli_distractor_diamondtriangles.svg	21	yes	57	0	2498
6.6.1	mac	2022-12-28	16:16:30	16:19:51	199498	60fed192ae37691d25db0d6d	578466862	1	main_z	7	main_z	5	stimuli_target_circlediamonds.svg	stimuli_distractor_diamondtriangles.svg	6	yes	44	1	426
6.6.1	mac	2022-12-28	16:16:30	16:19:51	199498	60fed192ae37691d25db0d6d	578466862	1	main_z	7	advance_on_keypress_ZEE	6	stimuli_target_circlediamonds.svg	stimuli_distractor_diamondtriangles.svg	6	yes	57	0	1016
6.6.1	mac	2022-12-28	16:16:30	16:19:53	201679	60fed192ae37691d25db0d6d	578466862	1	main_z	7	main_z	7	stimuli_distractor_trianglediamonds.svg	stimuli_target_trianglecircles.svg	25	yes	44	1	539
6.6.1	mac	2022-12-28	16:16:30	16:19:53	201679	60fed192ae37691d25db0d6d	578466862	1	main_z	7	advance_on_keypress_ZEE	8	stimuli_distractor_trianglediamonds.svg	stimuli_target_trianglecircles.svg	25	yes	57	0	678
6.6.1	mac	2022-12-28	16:16:30	16:19:56	204992	60fed192ae37691d25db0d6d	578466862	1	main_z	7	main_z	9	stimuli_distractor_trianglediamonds.svg	stimuli_distractor_trianglediamonds.svg	34	no	0	1	2000
6.6.1	mac	2022-12-28	16:16:30	16:19:56	204992	60fed192ae37691d25db0d6d	578466862	1	main_z	7	advance_on_keypress_ZEE	10	stimuli_distractor_trianglediamonds.svg	stimuli_distractor_trianglediamonds.svg	34	no	57	0	696
6.6.1	mac	2022-12-28	16:16:30	16:20:00	208312	60fed192ae37691d25db0d6d	578466862	1	main_z	7	main_z	11	stimuli_distractor_diamondtriangles.svg	stimuli_distractor_diamondtriangles.svg	39	no	0	1	2000
6.6.1	mac	2022-12-28	16:16:30	16:20:00	208312	60fed192ae37691d25db0d6d	578466862	1	main_z	7	advance_on_keypress_ZEE	12	stimuli_distractor_diamondtriangles.svg	stimuli_distractor_diamondtriangles.svg	39	no	57	0	885
6.6.1	mac	2022-12-28	16:16:30	16:20:02	210522	60fed192ae37691d25db0d6d	578466862	1	main_z	7	main_z	13	stimuli_target_squaretriangles.svg	stimuli_distractor_trianglediamonds.svg	3	yes	44	1	689
6.6.1	mac	2022-12-28	16:16:30	16:20:02	210522	60fed192ae37691d25db0d6d	578466862	1	main_z	7	advance_on_keypress_ZEE	14	stimuli_target_squaretriangles.svg	stimuli_distractor_trianglediamonds.svg	3	yes	57	0	910
6.6.1	mac	2022-12-28	16:16:30	16:20:05	214050	60fed192ae37691d25db0d6d	578466862	1	main_z	7	main_z	15	stimuli_distractor_diamondtriangles.svg	stimuli_distractor_diamondtriangles.svg	40	no	0	1	2000
6.6.1	mac	2022-12-28	16:16:30	16:20:05	214050	60fed192ae37691d25db0d6d	578466862	1	main_z	7	advance_on_keypress_ZEE	16	stimuli_distractor_diamondtriangles.svg	stimuli_distractor_diamondtriangles.svg	40	no	57	0	702
6.6.1	mac	2022-12-28	16:16:30	16:20:07	216101	60fed192ae37691d25db0d6d	578466862	1	main_z	7	main_z	17	stimuli_target_diamondsquares.svg	stimuli_distractor_diamondtriangles.svg	24	yes	44	1	712
6.6.1	mac	2022-12-28	16:16:30	16:20:07	216101	60fed192ae37691d25db0d6d	578466862	1	main_z	7	advance_on_keypress_ZEE	18	stimuli_target_diamondsquares.svg	stimuli_distractor_diamondtriangles.svg	24	yes	57	0	1338
6.6.1	mac	2022-12-28	16:16:30	16:20:10	218826	60fed192ae37691d25db0d6d	578466862	1	main_z	7	main_z	19	stimuli_target_trianglesquares.svg	stimuli_distractor_trianglediamonds.svg	18	yes	44	1	752
6.6.1	mac	2022-12-28	16:16:30	16:20:10	218826	60fed192ae37691d25db0d6d	578466862	1	main_z	7	advance_on_keypress_ZEE	20	stimuli_target_trianglesquares.svg	stimuli_distractor_trianglediamonds.svg	18	yes	57	0	674
6.6.1	mac	2022-12-28	16:16:30	16:20:13	222126	60fed192ae37691d25db0d6d	578466862	1	main_z	7	main_z	21	stimuli_distractor_diamondtriangles.svg	stimuli_target_circletriangles.svg	13	yes	0	0	2000
6.6.1	mac	2022-12-28	16:16:30	16:20:13	222126	60fed192ae37691d25db0d6d	578466862	1	main_z	7	advance_on_keypress_ZEE	22	stimuli_distractor_diamondtriangles.svg	stimuli_target_circletriangles.svg	13	yes	57	0	1626
6.6.1	mac	2022-12-28	16:16:30	16:20:16	224785	60fed192ae37691d25db0d6d	578466862	1	main_z	7	main_z	23	stimuli_distractor_trianglediamonds.svg	stimuli_distractor_trianglediamonds.svg	33	no	44	0	404
6.6.1	mac	2022-12-28	16:16:30	16:20:16	224785	60fed192ae37691d25db0d6d	578466862	1	main_z	7	advance_on_keypress_ZEE	24	stimuli_distractor_trianglediamonds.svg	stimuli_distractor_trianglediamonds.svg	33	no	57	0	3317
6.6.1	mac	2022-12-28	16:16:30	16:20:22	230364	60fed192ae37691d25db0d6d	578466862	1	main_z	7	main_z	25	stimuli_distractor_diamondtriangles.svg	stimuli_target_squaretriangles.svg	15	yes	44	1	1629
6.6.1	mac	2022-12-28	16:16:30	16:20:22	230364	60fed192ae37691d25db0d6d	578466862	1	main_z	7	advance_on_keypress_ZEE	26	stimuli_distractor_diamondtriangles.svg	stimuli_target_squaretriangles.svg	15	yes	57	0	758
6.6.1	mac	2022-12-28	16:16:30	16:20:24	232907	60fed192ae37691d25db0d6d	578466862	1	main_z	7	main_z	27	stimuli_distractor_diamondtriangles.svg	stimuli_target_circlediamonds.svg	14	yes	44	1	1169
6.6.1	mac	2022-12-28	16:16:30	16:20:24	232907	60fed192ae37691d25db0d6d	578466862	1	main_z	7	advance_on_keypress_ZEE	28	stimuli_distractor_diamondtriangles.svg	stimuli_target_circlediamonds.svg	14	yes	57	0	586
6.6.1	mac	2022-12-28	16:16:30	16:20:26	235066	60fed192ae37691d25db0d6d	578466862	1	main_z	7	main_z	29	stimuli_target_squarediamonds.svg	stimuli_distractor_diamondtriangles.svg	8	yes	44	1	943
6.6.1	mac	2022-12-28	16:16:30	16:20:26	235066	60fed192ae37691d25db0d6d	578466862	1	main_z	7	advance_on_keypress_ZEE	30	stimuli_target_squarediamonds.svg	stimuli_distractor_diamondtriangles.svg	8	yes	57	0	619
6.6.1	mac	2022-12-28	16:16:30	16:20:28	237137	60fed192ae37691d25db0d6d	578466862	1	main_z	7	main_z	31	stimuli_target_squaretriangles.svg	stimuli_distractor_diamondtriangles.svg	7	yes	44	1	829
6.6.1	mac	2022-12-28	16:16:30	16:20:28	237137	60fed192ae37691d25db0d6d	578466862	1	main_z	7	advance_on_keypress_ZEE	32	stimuli_target_squaretriangles.svg	stimuli_distractor_diamondtriangles.svg	7	yes	57	0	464
6.6.1	mac	2022-12-28	16:16:30	16:20:31	239364	60fed192ae37691d25db0d6d	578466862	1	main_z	7	main_z	33	stimuli_target_diamondcircles.svg	stimuli_distractor_diamondtriangles.svg	23	yes	44	1	1137
6.6.1	mac	2022-12-28	16:16:30	16:20:31	239364	60fed192ae37691d25db0d6d	578466862	1	main_z	7	advance_on_keypress_ZEE	34	stimuli_target_diamondcircles.svg	stimuli_distractor_diamondtriangles.svg	23	yes	57	0	458
6.6.1	mac	2022-12-28	16:16:30	16:20:33	241388	60fed192ae37691d25db0d6d	578466862	1	main_z	7	main_z	35	stimuli_target_trianglecircles.svg	stimuli_distractor_trianglediamonds.svg	17	yes	44	1	942
6.6.1	mac	2022-12-28	16:16:30	16:20:33	241388	60fed192ae37691d25db0d6d	578466862	1	main_z	7	advance_on_keypress_ZEE	36	stimuli_target_trianglecircles.svg	stimuli_distractor_trianglediamonds.svg	17	yes	57	0	936
6.6.1	mac	2022-12-28	16:16:30	16:20:35	244088	60fed192ae37691d25db0d6d	578466862	1	main_z	7	main_z	37	stimuli_distractor_diamondtriangles.svg	stimuli_target_diamondcircles.svg	31	yes	44	1	1140
6.6.1	mac	2022-12-28	16:16:30	16:20:35	244088	60fed192ae37691d25db0d6d	578466862	1	main_z	7	advance_on_keypress_ZEE	38	stimuli_distractor_diamondtriangles.svg	stimuli_target_diamondcircles.svg	31	yes	57	0	460
6.6.1	mac	2022-12-28	16:16:30	16:20:38	246428	60fed192ae37691d25db0d6d	578466862	1	main_z	7	main_z	39	stimuli_distractor_trianglediamonds.svg	stimuli_distractor_diamondtriangles.svg	36	no	44	0	1260
6.6.1	mac	2022-12-28	16:16:30	16:20:38	246428	60fed192ae37691d25db0d6d	578466862	1	main_z	7	advance_on_keypress_ZEE	40	stimuli_distractor_trianglediamonds.svg	stimuli_distractor_diamondtriangles.svg	36	no	57	0	434
6.6.1	mac	2022-12-28	16:16:30	16:20:40	249060	60fed192ae37691d25db0d6d	578466862	1	main_z	7	main_z	41	stimuli_target_circletriangles.svg	stimuli_distractor_diamondtriangles.svg	5	yes	44	1	1574
6.6.1	mac	2022-12-28	16:16:30	16:20:40	249060	60fed192ae37691d25db0d6d	578466862	1	main_z	7	advance_on_keypress_ZEE	42	stimuli_target_circletriangles.svg	stimuli_distractor_diamondtriangles.svg	5	yes	57	0	611
6.6.1	mac	2022-12-28	16:16:30	16:20:43	251874	60fed192ae37691d25db0d6d	578466862	1	main_z	7	main_z	43	stimuli_distractor_diamondtriangles.svg	stimuli_target_diamondsquares.svg	32	yes	44	1	1567
6.6.1	mac	2022-12-28	16:16:30	16:20:43	251874	60fed192ae37691d25db0d6d	578466862	1	main_z	7	advance_on_keypress_ZEE	44	stimuli_distractor_diamondtriangles.svg	stimuli_target_diamondsquares.svg	32	yes	57	0	631
6.6.1	mac	2022-12-28	16:16:30	16:20:46	254437	60fed192ae37691d25db0d6d	578466862	1	main_z	7	main_z	45	stimuli_target_diamondcircles.svg	stimuli_distractor_trianglediamonds.svg	19	yes	44	1	1294
6.6.1	mac	2022-12-28	16:16:30	16:20:46	254437	60fed192ae37691d25db0d6d	578466862	1	main_z	7	advance_on_keypress_ZEE	46	stimuli_target_diamondcircles.svg	stimuli_distractor_trianglediamonds.svg	19	yes	57	0	534
6.6.1	mac	2022-12-28	16:16:30	16:20:49	257595	60fed192ae37691d25db0d6d	578466862	1	main_z	7	main_z	47	stimuli_distractor_diamondtriangles.svg	stimuli_distractor_trianglediamonds.svg	37	no	0	1	2000
6.6.1	mac	2022-12-28	16:16:30	16:20:49	257595	60fed192ae37691d25db0d6d	578466862	1	main_z	7	advance_on_keypress_ZEE	48	stimuli_distractor_diamondtriangles.svg	stimuli_distractor_trianglediamonds.svg	37	no	57	0	783
6.6.1	mac	2022-12-28	16:16:30	16:20:51	259679	60fed192ae37691d25db0d6d	578466862	1	main_z	7	main_z	49	stimuli_target_circletriangles.svg	stimuli_distractor_trianglediamonds.svg	1	yes	44	1	665
6.6.1	mac	2022-12-28	16:16:30	16:20:51	259679	60fed192ae37691d25db0d6d	578466862	1	main_z	7	advance_on_keypress_ZEE	50	stimuli_target_circletriangles.svg	stimuli_distractor_trianglediamonds.svg	1	yes	57	0	745
6.6.1	mac	2022-12-28	16:16:30	16:20:54	263049	60fed192ae37691d25db0d6d	578466862	1	main_z	7	main_z	51	stimuli_distractor_diamondtriangles.svg	stimuli_distractor_trianglediamonds.svg	38	no	0	1	2000
6.6.1	mac	2022-12-28	16:16:30	16:20:54	263049	60fed192ae37691d25db0d6d	578466862	1	main_z	7	advance_on_keypress_ZEE	52	stimuli_distractor_diamondtriangles.svg	stimuli_distractor_trianglediamonds.svg	38	no	57	0	547
6.6.1	mac	2022-12-28	16:16:30	16:20:58	266236	60fed192ae37691d25db0d6d	578466862	1	main_z	7	main_z	53	stimuli_distractor_trianglediamonds.svg	stimuli_distractor_diamondtriangles.svg	35	no	0	1	2000
6.6.1	mac	2022-12-28	16:16:30	16:20:58	266236	60fed192ae37691d25db0d6d	578466862	1	main_z	7	advance_on_keypress_ZEE	54	stimuli_distractor_trianglediamonds.svg	stimuli_distractor_diamondtriangles.svg	35	no	57	0	1635
6.6.1	mac	2022-12-28	16:16:30	16:21:01	269646	60fed192ae37691d25db0d6d	578466862	1	main_z	7	main_z	55	stimuli_distractor_diamondtriangles.svg	stimuli_target_squarediamonds.svg	16	yes	44	1	1139
6.6.1	mac	2022-12-28	16:16:30	16:21:01	269646	60fed192ae37691d25db0d6d	578466862	1	main_z	7	advance_on_keypress_ZEE	56	stimuli_distractor_diamondtriangles.svg	stimuli_target_squarediamonds.svg	16	yes	57	0	819
6.6.1	mac	2022-12-28	16:16:30	16:21:03	271604	60fed192ae37691d25db0d6d	578466862	1	main_z	7	main_z	57	stimuli_distractor_trianglediamonds.svg	stimuli_target_circletriangles.svg	9	yes	44	1	511
6.6.1	mac	2022-12-28	16:16:30	16:21:03	271604	60fed192ae37691d25db0d6d	578466862	1	main_z	7	advance_on_keypress_ZEE	58	stimuli_distractor_trianglediamonds.svg	stimuli_target_circletriangles.svg	9	yes	57	0	1330
6.6.1	mac	2022-12-28	16:16:30	16:21:05	274101	60fed192ae37691d25db0d6d	578466862	1	main_z	7	main_z	59	stimuli_target_trianglesquares.svg	stimuli_distractor_diamondtriangles.svg	22	yes	44	1	538
6.6.1	mac	2022-12-28	16:16:30	16:21:05	274101	60fed192ae37691d25db0d6d	578466862	1	main_z	7	advance_on_keypress_ZEE	60	stimuli_target_trianglesquares.svg	stimuli_distractor_diamondtriangles.svg	22	yes	57	0	662
6.6.1	mac	2022-12-28	16:16:30	16:21:08	276981	60fed192ae37691d25db0d6d	578466862	1	main_z	7	main_z	61	stimuli_distractor_trianglediamonds.svg	stimuli_target_diamondsquares.svg	28	yes	44	1	1599
6.6.1	mac	2022-12-28	16:16:30	16:21:08	276981	60fed192ae37691d25db0d6d	578466862	1	main_z	7	advance_on_keypress_ZEE	62	stimuli_distractor_trianglediamonds.svg	stimuli_target_diamondsquares.svg	28	yes	57	0	655
6.6.1	mac	2022-12-28	16:16:30	16:21:10	278915	60fed192ae37691d25db0d6d	578466862	1	main_z	7	main_z	63	stimuli_distractor_trianglediamonds.svg	stimuli_target_squarediamonds.svg	12	yes	44	1	631
6.6.1	mac	2022-12-28	16:16:30	16:21:10	278915	60fed192ae37691d25db0d6d	578466862	1	main_z	7	advance_on_keypress_ZEE	64	stimuli_distractor_trianglediamonds.svg	stimuli_target_squarediamonds.svg	12	yes	57	0	633
6.6.1	mac	2022-12-28	16:16:30	16:21:13	281458	60fed192ae37691d25db0d6d	578466862	1	main_z	7	main_z	65	stimuli_distractor_trianglediamonds.svg	stimuli_target_squaretriangles.svg	11	yes	44	1	1271
6.6.1	mac	2022-12-28	16:16:30	16:21:13	281458	60fed192ae37691d25db0d6d	578466862	1	main_z	7	advance_on_keypress_ZEE	66	stimuli_distractor_trianglediamonds.svg	stimuli_target_squaretriangles.svg	11	yes	57	0	479
6.6.1	mac	2022-12-28	16:16:30	16:21:15	283439	60fed192ae37691d25db0d6d	578466862	1	main_z	7	main_z	67	stimuli_distractor_diamondtriangles.svg	stimuli_target_trianglecircles.svg	29	yes	44	1	868
6.6.1	mac	2022-12-28	16:16:30	16:21:15	283439	60fed192ae37691d25db0d6d	578466862	1	main_z	7	advance_on_keypress_ZEE	68	stimuli_distractor_diamondtriangles.svg	stimuli_target_trianglecircles.svg	29	yes	57	0	409
6.6.1	mac	2022-12-28	16:16:30	16:21:16	285192	60fed192ae37691d25db0d6d	578466862	1	main_z	7	main_z	69	stimuli_distractor_trianglediamonds.svg	stimuli_target_trianglesquares.svg	26	yes	44	1	719
6.6.1	mac	2022-12-28	16:16:30	16:21:16	285192	60fed192ae37691d25db0d6d	578466862	1	main_z	7	advance_on_keypress_ZEE	70	stimuli_distractor_trianglediamonds.svg	stimuli_target_trianglesquares.svg	26	yes	57	0	479
6.6.1	mac	2022-12-28	16:16:30	16:21:19	287262	60fed192ae37691d25db0d6d	578466862	1	main_z	7	main_z	71	stimuli_distractor_trianglediamonds.svg	stimuli_target_circlediamonds.svg	10	yes	44	1	954
6.6.1	mac	2022-12-28	16:16:30	16:21:19	287262	60fed192ae37691d25db0d6d	578466862	1	main_z	7	advance_on_keypress_ZEE	72	stimuli_distractor_trianglediamonds.svg	stimuli_target_circlediamonds.svg	10	yes	57	0	458
6.6.1	mac	2022-12-28	16:16:30	16:21:20	289108	60fed192ae37691d25db0d6d	578466862	1	main_z	7	main_z	73	stimuli_target_circlediamonds.svg	stimuli_distractor_trianglediamonds.svg	2	yes	44	1	763
6.6.1	mac	2022-12-28	16:16:30	16:21:20	289108	60fed192ae37691d25db0d6d	578466862	1	main_z	7	advance_on_keypress_ZEE	74	stimuli_target_circlediamonds.svg	stimuli_distractor_trianglediamonds.svg	2	yes	57	0	541
6.6.1	mac	2022-12-28	16:16:30	16:21:22	290974	60fed192ae37691d25db0d6d	578466862	1	main_z	7	main_z	75	stimuli_target_squarediamonds.svg	stimuli_distractor_trianglediamonds.svg	4	yes	44	1	695
6.6.1	mac	2022-12-28	16:16:30	16:21:22	290974	60fed192ae37691d25db0d6d	578466862	1	main_z	7	advance_on_keypress_ZEE	76	stimuli_target_squarediamonds.svg	stimuli_distractor_trianglediamonds.svg	4	yes	57	0	479
6.6.1	mac	2022-12-28	16:16:30	16:21:24	292843	60fed192ae37691d25db0d6d	578466862	1	main_z	7	main_z	77	stimuli_distractor_diamondtriangles.svg	stimuli_target_trianglesquares.svg	30	yes	44	1	761
6.6.1	mac	2022-12-28	16:16:30	16:21:24	292843	60fed192ae37691d25db0d6d	578466862	1	main_z	7	advance_on_keypress_ZEE	78	stimuli_distractor_diamondtriangles.svg	stimuli_target_trianglesquares.svg	30	yes	57	0	391
6.6.1	mac	2022-12-28	16:16:30	16:21:27	295866	60fed192ae37691d25db0d6d	578466862	1	main_z	7	main_z	79	stimuli_distractor_trianglediamonds.svg	stimuli_target_diamondcircles.svg	27	yes	0	0	2000
6.6.1	mac	2022-12-28	16:16:30	16:21:27	295866	60fed192ae37691d25db0d6d	578466862	1	main_z	7	advance_on_keypress_ZEE	80	stimuli_distractor_trianglediamonds.svg	stimuli_target_diamondcircles.svg	27	yes	57	0	601
6.6.1	mac	2022-12-28	16:16:30	16:21:29	297770	60fed192ae37691d25db0d6d	578466862	1	main_z	7	main_z	81	stimuli_target_circletriangles.svg	stimuli_distractor_trianglediamonds.svg	1	yes	44	1	667
6.6.1	mac	2022-12-28	16:16:30	16:21:29	297770	60fed192ae37691d25db0d6d	578466862	1	main_z	7	advance_on_keypress_ZEE	82	stimuli_target_circletriangles.svg	stimuli_distractor_trianglediamonds.svg	1	yes	57	0	639
6.6.1	mac	2022-12-28	16:16:30	16:21:31	299997	60fed192ae37691d25db0d6d	578466862	1	main_z	7	main_z	83	stimuli_distractor_trianglediamonds.svg	stimuli_target_diamondcircles.svg	27	yes	44	1	943
6.6.1	mac	2022-12-28	16:16:30	16:21:31	299997	60fed192ae37691d25db0d6d	578466862	1	main_z	7	advance_on_keypress_ZEE	84	stimuli_distractor_trianglediamonds.svg	stimuli_target_diamondcircles.svg	27	yes	57	0	642
6.6.1	mac	2022-12-28	16:16:30	16:21:35	303256	60fed192ae37691d25db0d6d	578466862	1	main_z	7	main_z	85	stimuli_target_trianglesquares.svg	stimuli_distractor_diamondtriangles.svg	22	yes	0	0	2000
6.6.1	mac	2022-12-28	16:16:30	16:21:35	303256	60fed192ae37691d25db0d6d	578466862	1	main_z	7	advance_on_keypress_ZEE	86	stimuli_target_trianglesquares.svg	stimuli_distractor_diamondtriangles.svg	22	yes	57	0	883
6.6.1	mac	2022-12-28	16:16:30	16:21:37	305710	60fed192ae37691d25db0d6d	578466862	1	main_z	7	main_z	87	stimuli_distractor_diamondtriangles.svg	stimuli_target_circlediamonds.svg	14	yes	44	1	933
6.6.1	mac	2022-12-28	16:16:30	16:21:37	305710	60fed192ae37691d25db0d6d	578466862	1	main_z	7	advance_on_keypress_ZEE	88	stimuli_distractor_diamondtriangles.svg	stimuli_target_circlediamonds.svg	14	yes	57	0	657
6.6.1	mac	2022-12-28	16:16:30	16:21:39	307578	60fed192ae37691d25db0d6d	578466862	1	main_z	7	main_z	89	stimuli_target_circlediamonds.svg	stimuli_distractor_diamondtriangles.svg	6	yes	44	1	582
6.6.1	mac	2022-12-28	16:16:30	16:21:39	307578	60fed192ae37691d25db0d6d	578466862	1	main_z	7	advance_on_keypress_ZEE	90	stimuli_target_circlediamonds.svg	stimuli_distractor_diamondtriangles.svg	6	yes	57	0	566
6.6.1	mac	2022-12-28	16:16:30	16:21:41	309760	60fed192ae37691d25db0d6d	578466862	1	main_z	7	main_z	91	stimuli_distractor_trianglediamonds.svg	stimuli_target_circletriangles.svg	9	yes	44	1	979
6.6.1	mac	2022-12-28	16:16:30	16:21:41	309760	60fed192ae37691d25db0d6d	578466862	1	main_z	7	advance_on_keypress_ZEE	92	stimuli_distractor_trianglediamonds.svg	stimuli_target_circletriangles.svg	9	yes	57	0	484
6.6.1	mac	2022-12-28	16:16:30	16:21:44	312551	60fed192ae37691d25db0d6d	578466862	1	main_z	7	main_z	93	stimuli_distractor_diamondtriangles.svg	stimuli_target_diamondcircles.svg	31	yes	44	1	1685
6.6.1	mac	2022-12-28	16:16:30	16:21:44	312551	60fed192ae37691d25db0d6d	578466862	1	main_z	7	advance_on_keypress_ZEE	94	stimuli_distractor_diamondtriangles.svg	stimuli_target_diamondcircles.svg	31	yes	57	0	431
6.6.1	mac	2022-12-28	16:16:30	16:21:46	314576	60fed192ae37691d25db0d6d	578466862	1	main_z	7	main_z	95	stimuli_target_squarediamonds.svg	stimuli_distractor_diamondtriangles.svg	8	yes	44	1	956
6.6.1	mac	2022-12-28	16:16:30	16:21:46	314576	60fed192ae37691d25db0d6d	578466862	1	main_z	7	advance_on_keypress_ZEE	96	stimuli_target_squarediamonds.svg	stimuli_distractor_diamondtriangles.svg	8	yes	57	0	460
6.6.1	mac	2022-12-28	16:16:30	16:21:48	316644	60fed192ae37691d25db0d6d	578466862	1	main_z	7	main_z	97	stimuli_distractor_diamondtriangles.svg	stimuli_target_squarediamonds.svg	16	yes	44	1	990
6.6.1	mac	2022-12-28	16:16:30	16:21:48	316644	60fed192ae37691d25db0d6d	578466862	1	main_z	7	advance_on_keypress_ZEE	98	stimuli_distractor_diamondtriangles.svg	stimuli_target_squarediamonds.svg	16	yes	57	0	417
6.6.1	mac	2022-12-28	16:16:30	16:21:50	318984	60fed192ae37691d25db0d6d	578466862	1	main_z	7	main_z	99	stimuli_target_trianglecircles.svg	stimuli_distractor_diamondtriangles.svg	21	yes	44	1	1295
6.6.1	mac	2022-12-28	16:16:30	16:21:50	318984	60fed192ae37691d25db0d6d	578466862	1	main_z	7	advance_on_keypress_ZEE	100	stimuli_target_trianglecircles.svg	stimuli_distractor_diamondtriangles.svg	21	yes	57	0	564
6.6.1	mac	2022-12-28	16:16:30	16:21:53	322177	60fed192ae37691d25db0d6d	578466862	1	main_z	7	main_z	101	stimuli_distractor_diamondtriangles.svg	stimuli_target_diamondsquares.svg	32	yes	0	0	2000
6.6.1	mac	2022-12-28	16:16:30	16:21:53	322177	60fed192ae37691d25db0d6d	578466862	1	main_z	7	advance_on_keypress_ZEE	102	stimuli_distractor_diamondtriangles.svg	stimuli_target_diamondsquares.svg	32	yes	57	0	254
6.6.1	mac	2022-12-28	16:16:30	16:21:56	325061	60fed192ae37691d25db0d6d	578466862	1	main_z	7	main_z	103	stimuli_distractor_diamondtriangles.svg	stimuli_distractor_diamondtriangles.svg	39	no	0	1	2000
6.6.1	mac	2022-12-28	16:16:30	16:21:56	325061	60fed192ae37691d25db0d6d	578466862	1	main_z	7	advance_on_keypress_ZEE	104	stimuli_distractor_diamondtriangles.svg	stimuli_distractor_diamondtriangles.svg	39	no	57	0	585
6.6.1	mac	2022-12-28	16:16:30	16:21:58	326948	60fed192ae37691d25db0d6d	578466862	1	main_z	7	main_z	105	stimuli_distractor_diamondtriangles.svg	stimuli_target_squaretriangles.svg	15	yes	44	1	666
6.6.1	mac	2022-12-28	16:16:30	16:21:58	326948	60fed192ae37691d25db0d6d	578466862	1	main_z	7	advance_on_keypress_ZEE	106	stimuli_distractor_diamondtriangles.svg	stimuli_target_squaretriangles.svg	15	yes	57	0	635
6.6.1	mac	2022-12-28	16:16:30	16:22:01	329333	60fed192ae37691d25db0d6d	578466862	1	main_z	7	main_z	107	stimuli_distractor_trianglediamonds.svg	stimuli_distractor_diamondtriangles.svg	36	no	44	0	1116
6.6.1	mac	2022-12-28	16:16:30	16:22:01	329333	60fed192ae37691d25db0d6d	578466862	1	main_z	7	advance_on_keypress_ZEE	108	stimuli_distractor_trianglediamonds.svg	stimuli_distractor_diamondtriangles.svg	36	no	57	0	342
6.6.1	mac	2022-12-28	16:16:30	16:22:02	331134	60fed192ae37691d25db0d6d	578466862	1	main_z	7	main_z	109	stimuli_distractor_diamondtriangles.svg	stimuli_target_circletriangles.svg	13	yes	44	1	832
6.6.1	mac	2022-12-28	16:16:30	16:22:02	331134	60fed192ae37691d25db0d6d	578466862	1	main_z	7	advance_on_keypress_ZEE	110	stimuli_distractor_diamondtriangles.svg	stimuli_target_circletriangles.svg	13	yes	57	0	408
6.6.1	mac	2022-12-28	16:16:30	16:22:05	334170	60fed192ae37691d25db0d6d	578466862	1	main_z	7	main_z	111	stimuli_distractor_diamondtriangles.svg	stimuli_distractor_diamondtriangles.svg	40	no	0	1	2000
6.6.1	mac	2022-12-28	16:16:30	16:22:05	334170	60fed192ae37691d25db0d6d	578466862	1	main_z	7	advance_on_keypress_ZEE	112	stimuli_distractor_diamondtriangles.svg	stimuli_distractor_diamondtriangles.svg	40	no	57	0	273
6.6.1	mac	2022-12-28	16:16:30	16:22:07	335970	60fed192ae37691d25db0d6d	578466862	1	main_z	7	main_z	113	stimuli_distractor_diamondtriangles.svg	stimuli_distractor_trianglediamonds.svg	37	no	44	0	896
6.6.1	mac	2022-12-28	16:16:30	16:22:07	335970	60fed192ae37691d25db0d6d	578466862	1	main_z	7	advance_on_keypress_ZEE	114	stimuli_distractor_diamondtriangles.svg	stimuli_distractor_trianglediamonds.svg	37	no	57	0	659
6.6.1	mac	2022-12-28	16:16:30	16:22:10	338290	60fed192ae37691d25db0d6d	578466862	1	main_z	7	main_z	115	stimuli_target_trianglesquares.svg	stimuli_distractor_trianglediamonds.svg	18	yes	44	1	1030
6.6.1	mac	2022-12-28	16:16:30	16:22:10	338290	60fed192ae37691d25db0d6d	578466862	1	main_z	7	advance_on_keypress_ZEE	116	stimuli_target_trianglesquares.svg	stimuli_distractor_trianglediamonds.svg	18	yes	57	0	1327
6.6.1	mac	2022-12-28	16:16:30	16:22:14	342247	60fed192ae37691d25db0d6d	578466862	1	main_z	7	main_z	117	stimuli_distractor_trianglediamonds.svg	stimuli_target_diamondsquares.svg	28	yes	0	0	2000
6.6.1	mac	2022-12-28	16:16:30	16:22:14	342247	60fed192ae37691d25db0d6d	578466862	1	main_z	7	advance_on_keypress_ZEE	118	stimuli_distractor_trianglediamonds.svg	stimuli_target_diamondsquares.svg	28	yes	57	0	366
6.6.1	mac	2022-12-28	16:16:30	16:22:15	344047	60fed192ae37691d25db0d6d	578466862	1	main_z	7	main_z	119	stimuli_target_trianglecircles.svg	stimuli_distractor_trianglediamonds.svg	17	yes	44	1	798
6.6.1	mac	2022-12-28	16:16:30	16:22:15	344047	60fed192ae37691d25db0d6d	578466862	1	main_z	7	advance_on_keypress_ZEE	120	stimuli_target_trianglecircles.svg	stimuli_distractor_trianglediamonds.svg	17	yes	57	0	879
6.6.1	mac	2022-12-28	16:16:30	16:22:19	347567	60fed192ae37691d25db0d6d	578466862	1	main_z	7	main_z	121	stimuli_distractor_diamondtriangles.svg	stimuli_distractor_trianglediamonds.svg	38	no	0	1	2000
6.6.1	mac	2022-12-28	16:16:30	16:22:19	347567	60fed192ae37691d25db0d6d	578466862	1	main_z	7	advance_on_keypress_ZEE	122	stimuli_distractor_diamondtriangles.svg	stimuli_distractor_trianglediamonds.svg	38	no	57	0	150
6.6.1	mac	2022-12-28	16:16:30	16:22:20	348930	60fed192ae37691d25db0d6d	578466862	1	main_z	7	main_z	123	stimuli_target_diamondcircles.svg	stimuli_distractor_trianglediamonds.svg	19	yes	44	1	575
6.6.1	mac	2022-12-28	16:16:30	16:22:20	348930	60fed192ae37691d25db0d6d	578466862	1	main_z	7	advance_on_keypress_ZEE	124	stimuli_target_diamondcircles.svg	stimuli_distractor_trianglediamonds.svg	19	yes	57	0	734
6.6.1	mac	2022-12-28	16:16:30	16:22:23	351270	60fed192ae37691d25db0d6d	578466862	1	main_z	7	main_z	125	stimuli_target_diamondsquares.svg	stimuli_distractor_diamondtriangles.svg	24	yes	44	1	980
6.6.1	mac	2022-12-28	16:16:30	16:22:23	351270	60fed192ae37691d25db0d6d	578466862	1	main_z	7	advance_on_keypress_ZEE	126	stimuli_target_diamondsquares.svg	stimuli_distractor_diamondtriangles.svg	24	yes	57	0	879
6.6.1	mac	2022-12-28	16:16:30	16:22:25	353340	60fed192ae37691d25db0d6d	578466862	1	main_z	7	main_z	127	stimuli_distractor_diamondtriangles.svg	stimuli_target_trianglesquares.svg	30	yes	44	1	565
6.6.1	mac	2022-12-28	16:16:30	16:22:25	353340	60fed192ae37691d25db0d6d	578466862	1	main_z	7	advance_on_keypress_ZEE	128	stimuli_distractor_diamondtriangles.svg	stimuli_target_trianglesquares.svg	30	yes	57	0	745
6.6.1	mac	2022-12-28	16:16:30	16:22:27	355386	60fed192ae37691d25db0d6d	578466862	1	main_z	7	main_z	129	stimuli_distractor_trianglediamonds.svg	stimuli_target_squarediamonds.svg	12	yes	44	1	676
6.6.1	mac	2022-12-28	16:16:30	16:22:27	355386	60fed192ae37691d25db0d6d	578466862	1	main_z	7	advance_on_keypress_ZEE	130	stimuli_distractor_trianglediamonds.svg	stimuli_target_squarediamonds.svg	12	yes	57	0	525
6.6.1	mac	2022-12-28	16:16:30	16:22:28	357029	60fed192ae37691d25db0d6d	578466862	1	main_z	7	main_z	131	stimuli_target_diamondsquares.svg	stimuli_distractor_trianglediamonds.svg	20	yes	44	1	484
6.6.1	mac	2022-12-28	16:16:30	16:22:28	357029	60fed192ae37691d25db0d6d	578466862	1	main_z	7	advance_on_keypress_ZEE	132	stimuli_target_diamondsquares.svg	stimuli_distractor_trianglediamonds.svg	20	yes	57	0	837
6.6.1	mac	2022-12-28	16:16:30	16:22:30	359167	60fed192ae37691d25db0d6d	578466862	1	main_z	7	main_z	133	stimuli_target_squarediamonds.svg	stimuli_distractor_trianglediamonds.svg	4	yes	44	1	670
6.6.1	mac	2022-12-28	16:16:30	16:22:30	359167	60fed192ae37691d25db0d6d	578466862	1	main_z	7	advance_on_keypress_ZEE	134	stimuli_target_squarediamonds.svg	stimuli_distractor_trianglediamonds.svg	4	yes	57	0	1221
6.6.1	mac	2022-12-28	16:16:30	16:22:33	361507	60fed192ae37691d25db0d6d	578466862	1	main_z	7	main_z	135	stimuli_target_circletriangles.svg	stimuli_distractor_diamondtriangles.svg	5	yes	44	1	490
6.6.1	mac	2022-12-28	16:16:30	16:22:33	361507	60fed192ae37691d25db0d6d	578466862	1	main_z	7	advance_on_keypress_ZEE	136	stimuli_target_circletriangles.svg	stimuli_distractor_diamondtriangles.svg	5	yes	57	0	596
6.6.1	mac	2022-12-28	16:16:30	16:22:35	363463	60fed192ae37691d25db0d6d	578466862	1	main_z	7	main_z	137	stimuli_distractor_trianglediamonds.svg	stimuli_target_trianglesquares.svg	26	yes	44	1	745
6.6.1	mac	2022-12-28	16:16:30	16:22:35	363463	60fed192ae37691d25db0d6d	578466862	1	main_z	7	advance_on_keypress_ZEE	138	stimuli_distractor_trianglediamonds.svg	stimuli_target_trianglesquares.svg	26	yes	57	0	699
6.6.1	mac	2022-12-28	16:16:30	16:22:37	365488	60fed192ae37691d25db0d6d	578466862	1	main_z	7	main_z	139	stimuli_target_squaretriangles.svg	stimuli_distractor_trianglediamonds.svg	3	yes	44	1	685
6.6.1	mac	2022-12-28	16:16:30	16:22:37	365488	60fed192ae37691d25db0d6d	578466862	1	main_z	7	advance_on_keypress_ZEE	140	stimuli_target_squaretriangles.svg	stimuli_distractor_trianglediamonds.svg	3	yes	57	0	794
6.6.1	mac	2022-12-28	16:16:30	16:22:39	367401	60fed192ae37691d25db0d6d	578466862	1	main_z	7	main_z	141	stimuli_target_squaretriangles.svg	stimuli_distractor_diamondtriangles.svg	7	yes	44	1	495
6.6.1	mac	2022-12-28	16:16:30	16:22:39	367401	60fed192ae37691d25db0d6d	578466862	1	main_z	7	advance_on_keypress_ZEE	142	stimuli_target_squaretriangles.svg	stimuli_distractor_diamondtriangles.svg	7	yes	57	0	659
6.6.1	mac	2022-12-28	16:16:30	16:22:42	370690	60fed192ae37691d25db0d6d	578466862	1	main_z	7	main_z	143	stimuli_distractor_trianglediamonds.svg	stimuli_distractor_trianglediamonds.svg	33	no	0	1	2000
6.6.1	mac	2022-12-28	16:16:30	16:22:42	370690	60fed192ae37691d25db0d6d	578466862	1	main_z	7	advance_on_keypress_ZEE	144	stimuli_distractor_trianglediamonds.svg	stimuli_distractor_trianglediamonds.svg	33	no	57	0	380
6.6.1	mac	2022-12-28	16:16:30	16:22:43	372216	60fed192ae37691d25db0d6d	578466862	1	main_z	7	main_z	145	stimuli_target_diamondcircles.svg	stimuli_distractor_diamondtriangles.svg	23	yes	44	1	505
6.6.1	mac	2022-12-28	16:16:30	16:22:43	372216	60fed192ae37691d25db0d6d	578466862	1	main_z	7	advance_on_keypress_ZEE	146	stimuli_target_diamondcircles.svg	stimuli_distractor_diamondtriangles.svg	23	yes	57	0	665
6.6.1	mac	2022-12-28	16:16:30	16:22:46	374525	60fed192ae37691d25db0d6d	578466862	1	main_z	7	main_z	147	stimuli_distractor_trianglediamonds.svg	stimuli_distractor_diamondtriangles.svg	35	no	44	0	733
6.6.1	mac	2022-12-28	16:16:30	16:22:46	374525	60fed192ae37691d25db0d6d	578466862	1	main_z	7	advance_on_keypress_ZEE	148	stimuli_distractor_trianglediamonds.svg	stimuli_distractor_diamondtriangles.svg	35	no	57	0	588
6.6.1	mac	2022-12-28	16:16:30	16:22:49	377731	60fed192ae37691d25db0d6d	578466862	1	main_z	7	main_z	149	stimuli_distractor_trianglediamonds.svg	stimuli_distractor_trianglediamonds.svg	34	no	0	1	2000
6.6.1	mac	2022-12-28	16:16:30	16:22:49	377731	60fed192ae37691d25db0d6d	578466862	1	main_z	7	advance_on_keypress_ZEE	150	stimuli_distractor_trianglediamonds.svg	stimuli_distractor_trianglediamonds.svg	34	no	57	0	338
6.6.1	mac	2022-12-28	16:16:30	16:22:51	379527	60fed192ae37691d25db0d6d	578466862	1	main_z	7	main_z	151	stimuli_distractor_diamondtriangles.svg	stimuli_target_trianglecircles.svg	29	yes	44	1	826
6.6.1	mac	2022-12-28	16:16:30	16:22:51	379527	60fed192ae37691d25db0d6d	578466862	1	main_z	7	advance_on_keypress_ZEE	152	stimuli_distractor_diamondtriangles.svg	stimuli_target_trianglecircles.svg	29	yes	57	0	712
6.6.1	mac	2022-12-28	16:16:30	16:22:53	381439	60fed192ae37691d25db0d6d	578466862	1	main_z	7	main_z	153	stimuli_distractor_trianglediamonds.svg	stimuli_target_trianglecircles.svg	25	yes	44	1	586
6.6.1	mac	2022-12-28	16:16:30	16:22:53	381439	60fed192ae37691d25db0d6d	578466862	1	main_z	7	advance_on_keypress_ZEE	154	stimuli_distractor_trianglediamonds.svg	stimuli_target_trianglecircles.svg	25	yes	57	0	976
6.6.1	mac	2022-12-28	16:16:30	16:22:55	384117	60fed192ae37691d25db0d6d	578466862	1	main_z	7	main_z	155	stimuli_distractor_trianglediamonds.svg	stimuli_target_squaretriangles.svg	11	yes	44	1	1079
6.6.1	mac	2022-12-28	16:16:30	16:22:55	384117	60fed192ae37691d25db0d6d	578466862	1	main_z	7	advance_on_keypress_ZEE	156	stimuli_distractor_trianglediamonds.svg	stimuli_target_squaretriangles.svg	11	yes	57	0	526
6.6.1	mac	2022-12-28	16:16:30	16:22:57	385827	60fed192ae37691d25db0d6d	578466862	1	main_z	7	main_z	157	stimuli_distractor_trianglediamonds.svg	stimuli_target_circlediamonds.svg	10	yes	44	1	553
6.6.1	mac	2022-12-28	16:16:30	16:22:57	385827	60fed192ae37691d25db0d6d	578466862	1	main_z	7	advance_on_keypress_ZEE	158	stimuli_distractor_trianglediamonds.svg	stimuli_target_circlediamonds.svg	10	yes	57	0	728
6.6.1	mac	2022-12-28	16:16:30	16:22:59	387716	60fed192ae37691d25db0d6d	578466862	1	main_z	7	main_z	159	stimuli_target_circlediamonds.svg	stimuli_distractor_trianglediamonds.svg	2	yes	44	1	540
6.6.1	mac	2022-12-28	16:16:30	16:22:59	387716	60fed192ae37691d25db0d6d	578466862	1	main_z	7	advance_on_keypress_ZEE	160	stimuli_target_circlediamonds.svg	stimuli_distractor_trianglediamonds.svg	2	yes	57	0	480
6.6.1	mac	2022-12-28	16:16:30	16:23:12	401116	60fed192ae37691d25db0d6d	578466862	1	practice_slash	9	practice_slash	1	stimuli_target_circlediamonds.svg	stimuli_distractor_trianglediamonds.svg	4	yes	53	1	742
6.6.1	mac	2022-12-28	16:16:30	16:23:12	401116	60fed192ae37691d25db0d6d	578466862	1	practice_slash	9	advance_on_keypress_SLASH	2	stimuli_target_circlediamonds.svg	stimuli_distractor_trianglediamonds.svg	4	yes	57	0	962
6.6.1	mac	2022-12-28	16:16:30	16:23:17	405710	60fed192ae37691d25db0d6d	578466862	1	practice_slash	9	practice_slash	3	stimuli_distractor_diamondtriangles.svg	stimuli_distractor_trianglediamonds.svg	14	no	0	1	2000
6.6.1	mac	2022-12-28	16:16:30	16:23:17	405710	60fed192ae37691d25db0d6d	578466862	1	practice_slash	9	advance_on_keypress_SLASH	4	stimuli_distractor_diamondtriangles.svg	stimuli_distractor_trianglediamonds.svg	14	no	57	0	615
6.6.1	mac	2022-12-28	16:16:30	16:23:20	408424	60fed192ae37691d25db0d6d	578466862	1	practice_slash	9	practice_slash	5	stimuli_distractor_diamondtriangles.svg	stimuli_target_circletriangles.svg	7	yes	53	1	462
6.6.1	mac	2022-12-28	16:16:30	16:23:20	408424	60fed192ae37691d25db0d6d	578466862	1	practice_slash	9	advance_on_keypress_SLASH	6	stimuli_distractor_diamondtriangles.svg	stimuli_target_circletriangles.svg	7	yes	57	0	570
6.6.1	mac	2022-12-28	16:16:30	16:23:22	411082	60fed192ae37691d25db0d6d	578466862	1	practice_slash	9	practice_slash	7	stimuli_target_circlediamonds.svg	stimuli_distractor_diamondtriangles.svg	1	yes	53	1	466
6.6.1	mac	2022-12-28	16:16:30	16:23:22	411082	60fed192ae37691d25db0d6d	578466862	1	practice_slash	9	advance_on_keypress_SLASH	8	stimuli_target_circlediamonds.svg	stimuli_distractor_diamondtriangles.svg	1	yes	57	0	737
6.6.1	mac	2022-12-28	16:16:30	16:23:25	414027	60fed192ae37691d25db0d6d	578466862	1	practice_slash	9	practice_slash	9	stimuli_distractor_trianglediamonds.svg	stimuli_target_diamondcircles.svg	12	yes	53	1	575
6.6.1	mac	2022-12-28	16:16:30	16:23:25	414027	60fed192ae37691d25db0d6d	578466862	1	practice_slash	9	advance_on_keypress_SLASH	10	stimuli_distractor_trianglediamonds.svg	stimuli_target_diamondcircles.svg	12	yes	57	0	475
6.6.1	mac	2022-12-28	16:16:30	16:23:28	416728	60fed192ae37691d25db0d6d	578466862	1	practice_slash	9	practice_slash	11	stimuli_distractor_trianglediamonds.svg	stimuli_target_squarediamonds.svg	11	yes	53	1	607
6.6.1	mac	2022-12-28	16:16:30	16:23:28	416728	60fed192ae37691d25db0d6d	578466862	1	practice_slash	9	advance_on_keypress_SLASH	12	stimuli_distractor_trianglediamonds.svg	stimuli_target_squarediamonds.svg	11	yes	57	0	535
6.6.1	mac	2022-12-28	16:16:30	16:23:31	419272	60fed192ae37691d25db0d6d	578466862	1	practice_slash	9	practice_slash	13	stimuli_distractor_diamondtriangles.svg	stimuli_target_trianglecircles.svg	9	yes	53	1	380
6.6.1	mac	2022-12-28	16:16:30	16:23:31	419272	60fed192ae37691d25db0d6d	578466862	1	practice_slash	9	advance_on_keypress_SLASH	14	stimuli_distractor_diamondtriangles.svg	stimuli_target_trianglecircles.svg	9	yes	57	0	664
6.6.1	mac	2022-12-28	16:16:30	16:23:34	422351	60fed192ae37691d25db0d6d	578466862	1	practice_slash	9	practice_slash	15	stimuli_distractor_diamondtriangles.svg	stimuli_target_diamondcircles.svg	8	yes	53	1	775
6.6.1	mac	2022-12-28	16:16:30	16:23:34	422351	60fed192ae37691d25db0d6d	578466862	1	practice_slash	9	advance_on_keypress_SLASH	16	stimuli_distractor_diamondtriangles.svg	stimuli_target_diamondcircles.svg	8	yes	57	0	385
6.6.1	mac	2022-12-28	16:16:30	16:23:36	424850	60fed192ae37691d25db0d6d	578466862	1	practice_slash	9	practice_slash	17	stimuli_target_squarediamonds.svg	stimuli_distractor_trianglediamonds.svg	5	yes	53	1	487
6.6.1	mac	2022-12-28	16:16:30	16:23:36	424850	60fed192ae37691d25db0d6d	578466862	1	practice_slash	9	advance_on_keypress_SLASH	18	stimuli_target_squarediamonds.svg	stimuli_distractor_trianglediamonds.svg	5	yes	57	0	582
6.6.1	mac	2022-12-28	16:16:30	16:23:40	429065	60fed192ae37691d25db0d6d	578466862	1	practice_slash	9	practice_slash	19	stimuli_distractor_trianglediamonds.svg	stimuli_distractor_trianglediamonds.svg	15	no	0	1	2000
6.6.1	mac	2022-12-28	16:16:30	16:23:40	429065	60fed192ae37691d25db0d6d	578466862	1	practice_slash	9	advance_on_keypress_SLASH	20	stimuli_distractor_trianglediamonds.svg	stimuli_distractor_trianglediamonds.svg	15	no	57	0	501
6.6.1	mac	2022-12-28	16:16:30	16:23:43	431892	60fed192ae37691d25db0d6d	578466862	1	practice_slash	9	practice_slash	21	stimuli_target_diamondsquares.svg	stimuli_distractor_trianglediamonds.svg	6	yes	53	1	690
6.6.1	mac	2022-12-28	16:16:30	16:23:43	431892	60fed192ae37691d25db0d6d	578466862	1	practice_slash	9	advance_on_keypress_SLASH	22	stimuli_target_diamondsquares.svg	stimuli_distractor_trianglediamonds.svg	6	yes	57	0	555
6.6.1	mac	2022-12-28	16:16:30	16:23:46	434525	60fed192ae37691d25db0d6d	578466862	1	practice_slash	9	practice_slash	23	stimuli_target_squarediamonds.svg	stimuli_distractor_diamondtriangles.svg	2	yes	53	1	452
6.6.1	mac	2022-12-28	16:16:30	16:23:46	434525	60fed192ae37691d25db0d6d	578466862	1	practice_slash	9	advance_on_keypress_SLASH	24	stimuli_target_squarediamonds.svg	stimuli_distractor_diamondtriangles.svg	2	yes	57	0	892
6.6.1	mac	2022-12-28	16:16:30	16:23:50	439042	60fed192ae37691d25db0d6d	578466862	1	practice_slash	9	practice_slash	25	stimuli_distractor_diamondtriangles.svg	stimuli_distractor_diamondtriangles.svg	13	no	0	1	2000
6.6.1	mac	2022-12-28	16:16:30	16:23:50	439042	60fed192ae37691d25db0d6d	578466862	1	practice_slash	9	advance_on_keypress_SLASH	26	stimuli_distractor_diamondtriangles.svg	stimuli_distractor_diamondtriangles.svg	13	no	57	0	1661
6.6.1	mac	2022-12-28	16:16:30	16:23:54	442847	60fed192ae37691d25db0d6d	578466862	1	practice_slash	9	practice_slash	27	stimuli_distractor_trianglediamonds.svg	stimuli_target_circlediamonds.svg	10	yes	53	1	517
6.6.1	mac	2022-12-28	16:16:30	16:23:54	442847	60fed192ae37691d25db0d6d	578466862	1	practice_slash	9	advance_on_keypress_SLASH	28	stimuli_distractor_trianglediamonds.svg	stimuli_target_circlediamonds.svg	10	yes	57	0	603
6.6.1	mac	2022-12-28	16:16:30	16:23:58	447083	60fed192ae37691d25db0d6d	578466862	1	practice_slash	9	practice_slash	29	stimuli_distractor_trianglediamonds.svg	stimuli_distractor_diamondtriangles.svg	16	no	0	1	2000
6.6.1	mac	2022-12-28	16:16:30	16:23:58	447083	60fed192ae37691d25db0d6d	578466862	1	practice_slash	9	advance_on_keypress_SLASH	30	stimuli_distractor_trianglediamonds.svg	stimuli_distractor_diamondtriangles.svg	16	no	57	0	481
6.6.1	mac	2022-12-28	16:16:30	16:24:01	449892	60fed192ae37691d25db0d6d	578466862	1	practice_slash	9	practice_slash	31	stimuli_target_diamondsquares.svg	stimuli_distractor_diamondtriangles.svg	3	yes	53	1	688
6.6.1	mac	2022-12-28	16:16:30	16:24:01	449892	60fed192ae37691d25db0d6d	578466862	1	practice_slash	9	advance_on_keypress_SLASH	32	stimuli_target_diamondsquares.svg	stimuli_distractor_diamondtriangles.svg	3	yes	57	0	511
6.6.1	mac	2022-12-28	16:16:30	16:24:07	455358	60fed192ae37691d25db0d6d	578466862	1	main_slash	11	main_slash	1	stimuli_distractor_trianglediamonds.svg	stimuli_distractor_diamondtriangles.svg	35	no	0	1	2000
6.6.1	mac	2022-12-28	16:16:30	16:24:07	455358	60fed192ae37691d25db0d6d	578466862	1	main_slash	11	advance_on_keypress_SLASH	2	stimuli_distractor_trianglediamonds.svg	stimuli_distractor_diamondtriangles.svg	35	no	57	0	395
6.6.1	mac	2022-12-28	16:16:30	16:24:10	458378	60fed192ae37691d25db0d6d	578466862	1	main_slash	11	main_slash	3	stimuli_distractor_diamondtriangles.svg	stimuli_distractor_trianglediamonds.svg	37	no	0	1	2000
6.6.1	mac	2022-12-28	16:16:30	16:24:10	458378	60fed192ae37691d25db0d6d	578466862	1	main_slash	11	advance_on_keypress_SLASH	4	stimuli_distractor_diamondtriangles.svg	stimuli_distractor_trianglediamonds.svg	37	no	57	0	278
6.6.1	mac	2022-12-28	16:16:30	16:24:11	460026	60fed192ae37691d25db0d6d	578466862	1	main_slash	11	main_slash	5	stimuli_distractor_trianglediamonds.svg	stimuli_target_circletriangles.svg	9	yes	53	1	745
6.6.1	mac	2022-12-28	16:16:30	16:24:11	460026	60fed192ae37691d25db0d6d	578466862	1	main_slash	11	advance_on_keypress_SLASH	6	stimuli_distractor_trianglediamonds.svg	stimuli_target_circletriangles.svg	9	yes	57	0	930
6.6.1	mac	2022-12-28	16:16:30	16:24:13	462052	60fed192ae37691d25db0d6d	578466862	1	main_slash	11	main_slash	7	stimuli_target_circlediamonds.svg	stimuli_distractor_trianglediamonds.svg	2	yes	53	1	469
6.6.1	mac	2022-12-28	16:16:30	16:24:13	462052	60fed192ae37691d25db0d6d	578466862	1	main_slash	11	advance_on_keypress_SLASH	8	stimuli_target_circlediamonds.svg	stimuli_distractor_trianglediamonds.svg	2	yes	57	0	859
6.6.1	mac	2022-12-28	16:16:30	16:24:15	463986	60fed192ae37691d25db0d6d	578466862	1	main_slash	11	main_slash	9	stimuli_target_circlediamonds.svg	stimuli_distractor_diamondtriangles.svg	6	yes	53	1	451
6.6.1	mac	2022-12-28	16:16:30	16:24:15	463986	60fed192ae37691d25db0d6d	578466862	1	main_slash	11	advance_on_keypress_SLASH	10	stimuli_target_circlediamonds.svg	stimuli_distractor_diamondtriangles.svg	6	yes	57	0	747
6.6.1	mac	2022-12-28	16:16:30	16:24:17	465763	60fed192ae37691d25db0d6d	578466862	1	main_slash	11	main_slash	11	stimuli_target_squarediamonds.svg	stimuli_distractor_trianglediamonds.svg	4	yes	53	1	393
6.6.1	mac	2022-12-28	16:16:30	16:24:17	465763	60fed192ae37691d25db0d6d	578466862	1	main_slash	11	advance_on_keypress_SLASH	12	stimuli_target_squarediamonds.svg	stimuli_distractor_trianglediamonds.svg	4	yes	57	0	1474
6.6.1	mac	2022-12-28	16:16:30	16:24:20	468238	60fed192ae37691d25db0d6d	578466862	1	main_slash	11	main_slash	13	stimuli_target_trianglesquares.svg	stimuli_distractor_diamondtriangles.svg	22	yes	53	1	382
6.6.1	mac	2022-12-28	16:16:30	16:24:20	468238	60fed192ae37691d25db0d6d	578466862	1	main_slash	11	advance_on_keypress_SLASH	14	stimuli_target_trianglesquares.svg	stimuli_distractor_diamondtriangles.svg	22	yes	57	0	954
6.6.1	mac	2022-12-28	16:16:30	16:24:22	470487	60fed192ae37691d25db0d6d	578466862	1	main_slash	11	main_slash	15	stimuli_distractor_diamondtriangles.svg	stimuli_target_diamondcircles.svg	31	yes	53	1	645
6.6.1	mac	2022-12-28	16:16:30	16:24:22	470487	60fed192ae37691d25db0d6d	578466862	1	main_slash	11	advance_on_keypress_SLASH	16	stimuli_distractor_diamondtriangles.svg	stimuli_target_diamondcircles.svg	31	yes	57	0	743
6.6.1	mac	2022-12-28	16:16:30	16:24:24	472782	60fed192ae37691d25db0d6d	578466862	1	main_slash	11	main_slash	17	stimuli_distractor_diamondtriangles.svg	stimuli_target_squaretriangles.svg	15	yes	53	1	922
6.6.1	mac	2022-12-28	16:16:30	16:24:24	472782	60fed192ae37691d25db0d6d	578466862	1	main_slash	11	advance_on_keypress_SLASH	18	stimuli_distractor_diamondtriangles.svg	stimuli_target_squaretriangles.svg	15	yes	57	0	550
6.6.1	mac	2022-12-28	16:16:30	16:24:26	474446	60fed192ae37691d25db0d6d	578466862	1	main_slash	11	main_slash	19	stimuli_distractor_trianglediamonds.svg	stimuli_target_diamondcircles.svg	27	yes	53	1	484
6.6.1	mac	2022-12-28	16:16:30	16:24:26	474446	60fed192ae37691d25db0d6d	578466862	1	main_slash	11	advance_on_keypress_SLASH	20	stimuli_distractor_trianglediamonds.svg	stimuli_target_diamondcircles.svg	27	yes	57	0	930
6.6.1	mac	2022-12-28	16:16:30	16:24:29	477998	60fed192ae37691d25db0d6d	578466862	1	main_slash	11	main_slash	21	stimuli_distractor_trianglediamonds.svg	stimuli_distractor_trianglediamonds.svg	34	no	0	1	2000
6.6.1	mac	2022-12-28	16:16:30	16:24:29	477998	60fed192ae37691d25db0d6d	578466862	1	main_slash	11	advance_on_keypress_SLASH	22	stimuli_distractor_trianglediamonds.svg	stimuli_distractor_trianglediamonds.svg	34	no	57	0	413
6.6.1	mac	2022-12-28	16:16:30	16:24:31	479577	60fed192ae37691d25db0d6d	578466862	1	main_slash	11	main_slash	23	stimuli_target_circletriangles.svg	stimuli_distractor_trianglediamonds.svg	1	yes	53	1	543
6.6.1	mac	2022-12-28	16:16:30	16:24:31	479577	60fed192ae37691d25db0d6d	578466862	1	main_slash	11	advance_on_keypress_SLASH	24	stimuli_target_circletriangles.svg	stimuli_distractor_trianglediamonds.svg	1	yes	57	0	640
6.6.1	mac	2022-12-28	16:16:30	16:24:33	481557	60fed192ae37691d25db0d6d	578466862	1	main_slash	11	main_slash	25	stimuli_distractor_diamondtriangles.svg	stimuli_target_trianglesquares.svg	30	yes	53	1	720
6.6.1	mac	2022-12-28	16:16:30	16:24:33	481557	60fed192ae37691d25db0d6d	578466862	1	main_slash	11	advance_on_keypress_SLASH	26	stimuli_distractor_diamondtriangles.svg	stimuli_target_trianglesquares.svg	30	yes	57	0	589
6.6.1	mac	2022-12-28	16:16:30	16:24:35	483245	60fed192ae37691d25db0d6d	578466862	1	main_slash	11	main_slash	27	stimuli_target_diamondsquares.svg	stimuli_distractor_trianglediamonds.svg	20	yes	53	1	474
6.6.1	mac	2022-12-28	16:16:30	16:24:35	483245	60fed192ae37691d25db0d6d	578466862	1	main_slash	11	advance_on_keypress_SLASH	28	stimuli_target_diamondsquares.svg	stimuli_distractor_trianglediamonds.svg	20	yes	57	0	618
6.6.1	mac	2022-12-28	16:16:30	16:24:36	485090	60fed192ae37691d25db0d6d	578466862	1	main_slash	11	main_slash	29	stimuli_target_squarediamonds.svg	stimuli_distractor_diamondtriangles.svg	8	yes	53	1	600
6.6.1	mac	2022-12-28	16:16:30	16:24:36	485090	60fed192ae37691d25db0d6d	578466862	1	main_slash	11	advance_on_keypress_SLASH	30	stimuli_target_squarediamonds.svg	stimuli_distractor_diamondtriangles.svg	8	yes	57	0	455
6.6.1	mac	2022-12-28	16:16:30	16:24:39	488176	60fed192ae37691d25db0d6d	578466862	1	main_slash	11	main_slash	31	stimuli_distractor_trianglediamonds.svg	stimuli_distractor_trianglediamonds.svg	33	no	0	1	2000
6.6.1	mac	2022-12-28	16:16:30	16:24:39	488176	60fed192ae37691d25db0d6d	578466862	1	main_slash	11	advance_on_keypress_SLASH	32	stimuli_distractor_trianglediamonds.svg	stimuli_distractor_trianglediamonds.svg	33	no	57	0	382
6.6.1	mac	2022-12-28	16:16:30	16:24:42	491195	60fed192ae37691d25db0d6d	578466862	1	main_slash	11	main_slash	33	stimuli_distractor_diamondtriangles.svg	stimuli_distractor_diamondtriangles.svg	39	no	0	1	2000
6.6.1	mac	2022-12-28	16:16:30	16:24:42	491195	60fed192ae37691d25db0d6d	578466862	1	main_slash	11	advance_on_keypress_SLASH	34	stimuli_distractor_diamondtriangles.svg	stimuli_distractor_diamondtriangles.svg	39	no	57	0	536
6.6.1	mac	2022-12-28	16:16:30	16:24:44	492851	60fed192ae37691d25db0d6d	578466862	1	main_slash	11	main_slash	35	stimuli_distractor_trianglediamonds.svg	stimuli_target_diamondsquares.svg	28	yes	53	1	487
6.6.1	mac	2022-12-28	16:16:30	16:24:44	492851	60fed192ae37691d25db0d6d	578466862	1	main_slash	11	advance_on_keypress_SLASH	36	stimuli_distractor_trianglediamonds.svg	stimuli_target_diamondsquares.svg	28	yes	57	0	930
6.6.1	mac	2022-12-28	16:16:30	16:24:46	495078	60fed192ae37691d25db0d6d	578466862	1	main_slash	11	main_slash	37	stimuli_distractor_trianglediamonds.svg	stimuli_target_trianglesquares.svg	26	yes	53	1	662
6.6.1	mac	2022-12-28	16:16:30	16:24:46	495078	60fed192ae37691d25db0d6d	578466862	1	main_slash	11	advance_on_keypress_SLASH	38	stimuli_distractor_trianglediamonds.svg	stimuli_target_trianglesquares.svg	26	yes	57	0	667
6.6.1	mac	2022-12-28	16:16:30	16:24:48	496834	60fed192ae37691d25db0d6d	578466862	1	main_slash	11	main_slash	39	stimuli_target_diamondcircles.svg	stimuli_distractor_trianglediamonds.svg	19	yes	53	1	466
6.6.1	mac	2022-12-28	16:16:30	16:24:48	496834	60fed192ae37691d25db0d6d	578466862	1	main_slash	11	advance_on_keypress_SLASH	40	stimuli_target_diamondcircles.svg	stimuli_distractor_trianglediamonds.svg	19	yes	57	0	544
6.6.1	mac	2022-12-28	16:16:30	16:24:50	498679	60fed192ae37691d25db0d6d	578466862	1	main_slash	11	main_slash	41	stimuli_target_trianglesquares.svg	stimuli_distractor_trianglediamonds.svg	18	yes	53	1	676
6.6.1	mac	2022-12-28	16:16:30	16:24:50	498679	60fed192ae37691d25db0d6d	578466862	1	main_slash	11	advance_on_keypress_SLASH	42	stimuli_target_trianglesquares.svg	stimuli_distractor_trianglediamonds.svg	18	yes	57	0	329
6.6.1	mac	2022-12-28	16:16:30	16:24:51	500207	60fed192ae37691d25db0d6d	578466862	1	main_slash	11	main_slash	43	stimuli_target_diamondsquares.svg	stimuli_distractor_diamondtriangles.svg	24	yes	53	1	586
6.6.1	mac	2022-12-28	16:16:30	16:24:51	500207	60fed192ae37691d25db0d6d	578466862	1	main_slash	11	advance_on_keypress_SLASH	44	stimuli_target_diamondsquares.svg	stimuli_distractor_diamondtriangles.svg	24	yes	57	0	525
6.6.1	mac	2022-12-28	16:16:30	16:24:53	502009	60fed192ae37691d25db0d6d	578466862	1	main_slash	11	main_slash	45	stimuli_target_squaretriangles.svg	stimuli_distractor_trianglediamonds.svg	3	yes	53	1	653
6.6.1	mac	2022-12-28	16:16:30	16:24:53	502009	60fed192ae37691d25db0d6d	578466862	1	main_slash	11	advance_on_keypress_SLASH	46	stimuli_target_squaretriangles.svg	stimuli_distractor_trianglediamonds.svg	3	yes	57	0	457
6.6.1	mac	2022-12-28	16:16:30	16:24:55	503537	60fed192ae37691d25db0d6d	578466862	1	main_slash	11	main_slash	47	stimuli_distractor_trianglediamonds.svg	stimuli_distractor_diamondtriangles.svg	36	no	53	0	446
6.6.1	mac	2022-12-28	16:16:30	16:24:55	503537	60fed192ae37691d25db0d6d	578466862	1	main_slash	11	advance_on_keypress_SLASH	48	stimuli_distractor_trianglediamonds.svg	stimuli_distractor_diamondtriangles.svg	36	no	57	0	794
6.6.1	mac	2022-12-28	16:16:30	16:24:57	505674	60fed192ae37691d25db0d6d	578466862	1	main_slash	11	main_slash	49	stimuli_distractor_diamondtriangles.svg	stimuli_target_circletriangles.svg	13	yes	53	1	714
6.6.1	mac	2022-12-28	16:16:30	16:24:57	505674	60fed192ae37691d25db0d6d	578466862	1	main_slash	11	advance_on_keypress_SLASH	50	stimuli_distractor_diamondtriangles.svg	stimuli_target_circletriangles.svg	13	yes	57	0	454
6.6.1	mac	2022-12-28	16:16:30	16:24:59	507362	60fed192ae37691d25db0d6d	578466862	1	main_slash	11	main_slash	51	stimuli_distractor_trianglediamonds.svg	stimuli_target_squarediamonds.svg	12	yes	53	1	600
6.6.1	mac	2022-12-28	16:16:30	16:24:59	507362	60fed192ae37691d25db0d6d	578466862	1	main_slash	11	advance_on_keypress_SLASH	52	stimuli_distractor_trianglediamonds.svg	stimuli_target_squarediamonds.svg	12	yes	57	0	433
6.6.1	mac	2022-12-28	16:16:30	16:25:00	508848	60fed192ae37691d25db0d6d	578466862	1	main_slash	11	main_slash	53	stimuli_distractor_diamondtriangles.svg	stimuli_target_circlediamonds.svg	14	yes	53	1	418
6.6.1	mac	2022-12-28	16:16:30	16:25:00	508848	60fed192ae37691d25db0d6d	578466862	1	main_slash	11	advance_on_keypress_SLASH	54	stimuli_distractor_diamondtriangles.svg	stimuli_target_circlediamonds.svg	14	yes	57	0	523
6.6.1	mac	2022-12-28	16:16:30	16:25:03	511998	60fed192ae37691d25db0d6d	578466862	1	main_slash	11	main_slash	55	stimuli_distractor_diamondtriangles.svg	stimuli_distractor_trianglediamonds.svg	38	no	0	1	2000
6.6.1	mac	2022-12-28	16:16:30	16:25:03	511998	60fed192ae37691d25db0d6d	578466862	1	main_slash	11	advance_on_keypress_SLASH	56	stimuli_distractor_diamondtriangles.svg	stimuli_distractor_trianglediamonds.svg	38	no	57	0	812
6.6.1	mac	2022-12-28	16:16:30	16:25:07	515435	60fed192ae37691d25db0d6d	578466862	1	main_slash	11	main_slash	57	stimuli_distractor_diamondtriangles.svg	stimuli_distractor_diamondtriangles.svg	40	no	0	1	2000
6.6.1	mac	2022-12-28	16:16:30	16:25:07	515435	60fed192ae37691d25db0d6d	578466862	1	main_slash	11	advance_on_keypress_SLASH	58	stimuli_distractor_diamondtriangles.svg	stimuli_distractor_diamondtriangles.svg	40	no	57	0	479
6.6.1	mac	2022-12-28	16:16:30	16:25:08	516968	60fed192ae37691d25db0d6d	578466862	1	main_slash	11	main_slash	59	stimuli_target_trianglecircles.svg	stimuli_distractor_trianglediamonds.svg	17	yes	53	1	430
6.6.1	mac	2022-12-28	16:16:30	16:25:08	516968	60fed192ae37691d25db0d6d	578466862	1	main_slash	11	advance_on_keypress_SLASH	60	stimuli_target_trianglecircles.svg	stimuli_distractor_trianglediamonds.svg	17	yes	57	0	657
6.6.1	mac	2022-12-28	16:16:30	16:25:10	518794	60fed192ae37691d25db0d6d	578466862	1	main_slash	11	main_slash	61	stimuli_target_circletriangles.svg	stimuli_distractor_diamondtriangles.svg	5	yes	53	1	537
6.6.1	mac	2022-12-28	16:16:30	16:25:10	518794	60fed192ae37691d25db0d6d	578466862	1	main_slash	11	advance_on_keypress_SLASH	62	stimuli_target_circletriangles.svg	stimuli_distractor_diamondtriangles.svg	5	yes	57	0	545
6.6.1	mac	2022-12-28	16:16:30	16:25:12	520298	60fed192ae37691d25db0d6d	578466862	1	main_slash	11	main_slash	63	stimuli_target_squaretriangles.svg	stimuli_distractor_diamondtriangles.svg	7	yes	53	1	340
6.6.1	mac	2022-12-28	16:16:30	16:25:12	520298	60fed192ae37691d25db0d6d	578466862	1	main_slash	11	advance_on_keypress_SLASH	64	stimuli_target_squaretriangles.svg	stimuli_distractor_diamondtriangles.svg	7	yes	57	0	1721
6.6.1	mac	2022-12-28	16:16:30	16:25:14	523223	60fed192ae37691d25db0d6d	578466862	1	main_slash	11	main_slash	65	stimuli_target_diamondcircles.svg	stimuli_distractor_diamondtriangles.svg	23	yes	53	1	579
6.6.1	mac	2022-12-28	16:16:30	16:25:14	523223	60fed192ae37691d25db0d6d	578466862	1	main_slash	11	advance_on_keypress_SLASH	66	stimuli_target_diamondcircles.svg	stimuli_distractor_diamondtriangles.svg	23	yes	57	0	460
6.6.1	mac	2022-12-28	16:16:30	16:25:16	524708	60fed192ae37691d25db0d6d	578466862	1	main_slash	11	main_slash	67	stimuli_distractor_trianglediamonds.svg	stimuli_target_trianglecircles.svg	25	yes	53	1	396
6.6.1	mac	2022-12-28	16:16:30	16:25:16	524708	60fed192ae37691d25db0d6d	578466862	1	main_slash	11	advance_on_keypress_SLASH	68	stimuli_distractor_trianglediamonds.svg	stimuli_target_trianglecircles.svg	25	yes	57	0	710
6.6.1	mac	2022-12-28	16:16:30	16:25:18	526440	60fed192ae37691d25db0d6d	578466862	1	main_slash	11	main_slash	69	stimuli_distractor_diamondtriangles.svg	stimuli_target_squarediamonds.svg	16	yes	53	1	393
6.6.1	mac	2022-12-28	16:16:30	16:25:18	526440	60fed192ae37691d25db0d6d	578466862	1	main_slash	11	advance_on_keypress_SLASH	70	stimuli_distractor_diamondtriangles.svg	stimuli_target_squarediamonds.svg	16	yes	57	0	596
6.6.1	mac	2022-12-28	16:16:30	16:25:19	528129	60fed192ae37691d25db0d6d	578466862	1	main_slash	11	main_slash	71	stimuli_distractor_diamondtriangles.svg	stimuli_target_trianglecircles.svg	29	yes	53	1	462
6.6.1	mac	2022-12-28	16:16:30	16:25:19	528129	60fed192ae37691d25db0d6d	578466862	1	main_slash	11	advance_on_keypress_SLASH	72	stimuli_distractor_diamondtriangles.svg	stimuli_target_trianglecircles.svg	29	yes	57	0	510
6.6.1	mac	2022-12-28	16:16:30	16:25:21	529614	60fed192ae37691d25db0d6d	578466862	1	main_slash	11	main_slash	73	stimuli_target_trianglecircles.svg	stimuli_distractor_diamondtriangles.svg	21	yes	53	1	363
6.6.1	mac	2022-12-28	16:16:30	16:25:21	529614	60fed192ae37691d25db0d6d	578466862	1	main_slash	11	advance_on_keypress_SLASH	74	stimuli_target_trianglecircles.svg	stimuli_distractor_diamondtriangles.svg	21	yes	57	0	716
6.6.1	mac	2022-12-28	16:16:30	16:25:24	532585	60fed192ae37691d25db0d6d	578466862	1	main_slash	11	main_slash	75	stimuli_distractor_trianglediamonds.svg	stimuli_target_squaretriangles.svg	11	yes	53	1	1630
6.6.1	mac	2022-12-28	16:16:30	16:25:24	532585	60fed192ae37691d25db0d6d	578466862	1	main_slash	11	advance_on_keypress_SLASH	76	stimuli_distractor_trianglediamonds.svg	stimuli_target_squaretriangles.svg	11	yes	57	0	585
6.6.1	mac	2022-12-28	16:16:30	16:25:25	534158	60fed192ae37691d25db0d6d	578466862	1	main_slash	11	main_slash	77	stimuli_distractor_trianglediamonds.svg	stimuli_target_circlediamonds.svg	10	yes	53	1	351
6.6.1	mac	2022-12-28	16:16:30	16:25:25	534158	60fed192ae37691d25db0d6d	578466862	1	main_slash	11	advance_on_keypress_SLASH	78	stimuli_distractor_trianglediamonds.svg	stimuli_target_circlediamonds.svg	10	yes	57	0	839
6.6.1	mac	2022-12-28	16:16:30	16:25:27	535957	60fed192ae37691d25db0d6d	578466862	1	main_slash	11	main_slash	79	stimuli_distractor_diamondtriangles.svg	stimuli_target_diamondsquares.svg	32	yes	53	1	333
6.6.1	mac	2022-12-28	16:16:30	16:25:27	535957	60fed192ae37691d25db0d6d	578466862	1	main_slash	11	advance_on_keypress_SLASH	80	stimuli_distractor_diamondtriangles.svg	stimuli_target_diamondsquares.svg	32	yes	57	0	1084
6.6.1	mac	2022-12-28	16:16:30	16:25:29	538028	60fed192ae37691d25db0d6d	578466862	1	main_slash	11	main_slash	81	stimuli_distractor_trianglediamonds.svg	stimuli_target_diamondsquares.svg	28	yes	53	1	351
6.6.1	mac	2022-12-28	16:16:30	16:25:29	538028	60fed192ae37691d25db0d6d	578466862	1	main_slash	11	advance_on_keypress_SLASH	82	stimuli_distractor_trianglediamonds.svg	stimuli_target_diamondsquares.svg	28	yes	57	0	591
6.6.1	mac	2022-12-28	16:16:30	16:25:31	539603	60fed192ae37691d25db0d6d	578466862	1	main_slash	11	main_slash	83	stimuli_target_trianglesquares.svg	stimuli_distractor_trianglediamonds.svg	18	yes	53	1	358
6.6.1	mac	2022-12-28	16:16:30	16:25:31	539603	60fed192ae37691d25db0d6d	578466862	1	main_slash	11	advance_on_keypress_SLASH	84	stimuli_target_trianglesquares.svg	stimuli_distractor_trianglediamonds.svg	18	yes	57	0	614
6.6.1	mac	2022-12-28	16:16:30	16:25:32	541223	60fed192ae37691d25db0d6d	578466862	1	main_slash	11	main_slash	85	stimuli_distractor_trianglediamonds.svg	stimuli_distractor_diamondtriangles.svg	35	no	53	0	377
6.6.1	mac	2022-12-28	16:16:30	16:25:32	541223	60fed192ae37691d25db0d6d	578466862	1	main_slash	11	advance_on_keypress_SLASH	86	stimuli_distractor_trianglediamonds.svg	stimuli_distractor_diamondtriangles.svg	35	no	57	0	2041
6.6.1	mac	2022-12-28	16:16:30	16:25:36	544618	60fed192ae37691d25db0d6d	578466862	1	main_slash	11	main_slash	87	stimuli_target_diamondcircles.svg	stimuli_distractor_diamondtriangles.svg	23	yes	53	1	720
6.6.1	mac	2022-12-28	16:16:30	16:25:36	544618	60fed192ae37691d25db0d6d	578466862	1	main_slash	11	advance_on_keypress_SLASH	88	stimuli_target_diamondcircles.svg	stimuli_distractor_diamondtriangles.svg	23	yes	57	0	547
6.6.1	mac	2022-12-28	16:16:30	16:25:38	547049	60fed192ae37691d25db0d6d	578466862	1	main_slash	11	main_slash	89	stimuli_distractor_diamondtriangles.svg	stimuli_target_circlediamonds.svg	14	yes	53	1	1248
6.6.1	mac	2022-12-28	16:16:30	16:25:38	547049	60fed192ae37691d25db0d6d	578466862	1	main_slash	11	advance_on_keypress_SLASH	90	stimuli_distractor_diamondtriangles.svg	stimuli_target_circlediamonds.svg	14	yes	57	0	497
6.6.1	mac	2022-12-28	16:16:30	16:25:40	548602	60fed192ae37691d25db0d6d	578466862	1	main_slash	11	main_slash	91	stimuli_target_squarediamonds.svg	stimuli_distractor_diamondtriangles.svg	8	yes	53	1	415
6.6.1	mac	2022-12-28	16:16:30	16:25:40	548602	60fed192ae37691d25db0d6d	578466862	1	main_slash	11	advance_on_keypress_SLASH	92	stimuli_target_squarediamonds.svg	stimuli_distractor_diamondtriangles.svg	8	yes	57	0	700
6.6.1	mac	2022-12-28	16:16:30	16:25:42	550334	60fed192ae37691d25db0d6d	578466862	1	main_slash	11	main_slash	93	stimuli_target_trianglecircles.svg	stimuli_distractor_trianglediamonds.svg	17	yes	53	1	397
6.6.1	mac	2022-12-28	16:16:30	16:25:42	550334	60fed192ae37691d25db0d6d	578466862	1	main_slash	11	advance_on_keypress_SLASH	94	stimuli_target_trianglecircles.svg	stimuli_distractor_trianglediamonds.svg	17	yes	57	0	1267
6.6.1	mac	2022-12-28	16:16:30	16:25:44	552785	60fed192ae37691d25db0d6d	578466862	1	main_slash	11	main_slash	95	stimuli_target_circletriangles.svg	stimuli_distractor_diamondtriangles.svg	5	yes	53	1	561
6.6.1	mac	2022-12-28	16:16:30	16:25:44	552785	60fed192ae37691d25db0d6d	578466862	1	main_slash	11	advance_on_keypress_SLASH	96	stimuli_target_circletriangles.svg	stimuli_distractor_diamondtriangles.svg	5	yes	57	0	503
6.6.1	mac	2022-12-28	16:16:30	16:25:46	554609	60fed192ae37691d25db0d6d	578466862	1	main_slash	11	main_slash	97	stimuli_distractor_trianglediamonds.svg	stimuli_target_trianglecircles.svg	25	yes	53	1	700
6.6.1	mac	2022-12-28	16:16:30	16:25:46	554609	60fed192ae37691d25db0d6d	578466862	1	main_slash	11	advance_on_keypress_SLASH	98	stimuli_distractor_trianglediamonds.svg	stimuli_target_trianglecircles.svg	25	yes	57	0	612
6.6.1	mac	2022-12-28	16:16:30	16:25:48	556273	60fed192ae37691d25db0d6d	578466862	1	main_slash	11	main_slash	99	stimuli_distractor_trianglediamonds.svg	stimuli_target_diamondcircles.svg	27	yes	53	1	428
6.6.1	mac	2022-12-28	16:16:30	16:25:48	556273	60fed192ae37691d25db0d6d	578466862	1	main_slash	11	advance_on_keypress_SLASH	100	stimuli_distractor_trianglediamonds.svg	stimuli_target_diamondcircles.svg	27	yes	57	0	440
6.6.1	mac	2022-12-28	16:16:30	16:25:49	557804	60fed192ae37691d25db0d6d	578466862	1	main_slash	11	main_slash	101	stimuli_target_trianglesquares.svg	stimuli_distractor_diamondtriangles.svg	22	yes	53	1	475
6.6.1	mac	2022-12-28	16:16:30	16:25:49	557804	60fed192ae37691d25db0d6d	578466862	1	main_slash	11	advance_on_keypress_SLASH	102	stimuli_target_trianglesquares.svg	stimuli_distractor_diamondtriangles.svg	22	yes	57	0	481
6.6.1	mac	2022-12-28	16:16:30	16:25:52	560914	60fed192ae37691d25db0d6d	578466862	1	main_slash	11	main_slash	103	stimuli_distractor_diamondtriangles.svg	stimuli_distractor_trianglediamonds.svg	38	no	0	1	2000
6.6.1	mac	2022-12-28	16:16:30	16:25:52	560914	60fed192ae37691d25db0d6d	578466862	1	main_slash	11	advance_on_keypress_SLASH	104	stimuli_distractor_diamondtriangles.svg	stimuli_distractor_trianglediamonds.svg	38	no	57	0	515
6.6.1	mac	2022-12-28	16:16:30	16:25:54	562482	60fed192ae37691d25db0d6d	578466862	1	main_slash	11	main_slash	105	stimuli_distractor_trianglediamonds.svg	stimuli_target_circlediamonds.svg	10	yes	53	1	415
6.6.1	mac	2022-12-28	16:16:30	16:25:54	562482	60fed192ae37691d25db0d6d	578466862	1	main_slash	11	advance_on_keypress_SLASH	106	stimuli_distractor_trianglediamonds.svg	stimuli_target_circlediamonds.svg	10	yes	57	0	1040
6.6.1	mac	2022-12-28	16:16:30	16:25:56	564597	60fed192ae37691d25db0d6d	578466862	1	main_slash	11	main_slash	107	stimuli_target_diamondsquares.svg	stimuli_distractor_trianglediamonds.svg	20	yes	53	1	444
6.6.1	mac	2022-12-28	16:16:30	16:25:56	564597	60fed192ae37691d25db0d6d	578466862	1	main_slash	11	advance_on_keypress_SLASH	108	stimuli_target_diamondsquares.svg	stimuli_distractor_trianglediamonds.svg	20	yes	57	0	1894
6.6.1	mac	2022-12-28	16:16:30	16:25:59	567657	60fed192ae37691d25db0d6d	578466862	1	main_slash	11	main_slash	109	stimuli_target_diamondsquares.svg	stimuli_distractor_diamondtriangles.svg	24	yes	53	1	535
6.6.1	mac	2022-12-28	16:16:30	16:25:59	567657	60fed192ae37691d25db0d6d	578466862	1	main_slash	11	advance_on_keypress_SLASH	110	stimuli_target_diamondsquares.svg	stimuli_distractor_diamondtriangles.svg	24	yes	57	0	390
6.6.1	mac	2022-12-28	16:16:30	16:26:02	570674	60fed192ae37691d25db0d6d	578466862	1	main_slash	11	main_slash	111	stimuli_distractor_diamondtriangles.svg	stimuli_target_squaretriangles.svg	15	yes	0	0	2000
6.6.1	mac	2022-12-28	16:16:30	16:26:02	570674	60fed192ae37691d25db0d6d	578466862	1	main_slash	11	advance_on_keypress_SLASH	112	stimuli_distractor_diamondtriangles.svg	stimuli_target_squaretriangles.svg	15	yes	57	0	722
6.6.1	mac	2022-12-28	16:16:30	16:26:05	574028	60fed192ae37691d25db0d6d	578466862	1	main_slash	11	main_slash	113	stimuli_distractor_diamondtriangles.svg	stimuli_distractor_trianglediamonds.svg	37	no	0	1	2000
6.6.1	mac	2022-12-28	16:16:30	16:26:05	574028	60fed192ae37691d25db0d6d	578466862	1	main_slash	11	advance_on_keypress_SLASH	114	stimuli_distractor_diamondtriangles.svg	stimuli_distractor_trianglediamonds.svg	37	no	57	0	405
6.6.1	mac	2022-12-28	16:16:30	16:26:07	575509	60fed192ae37691d25db0d6d	578466862	1	main_slash	11	main_slash	115	stimuli_target_diamondcircles.svg	stimuli_distractor_trianglediamonds.svg	19	yes	53	1	446
6.6.1	mac	2022-12-28	16:16:30	16:26:07	575509	60fed192ae37691d25db0d6d	578466862	1	main_slash	11	advance_on_keypress_SLASH	116	stimuli_target_diamondcircles.svg	stimuli_distractor_trianglediamonds.svg	19	yes	57	0	691
6.6.1	mac	2022-12-28	16:16:30	16:26:09	578009	60fed192ae37691d25db0d6d	578466862	1	main_slash	11	main_slash	117	stimuli_distractor_diamondtriangles.svg	stimuli_target_circletriangles.svg	13	yes	53	1	1193
6.6.1	mac	2022-12-28	16:16:30	16:26:09	578009	60fed192ae37691d25db0d6d	578466862	1	main_slash	11	advance_on_keypress_SLASH	118	stimuli_distractor_diamondtriangles.svg	stimuli_target_circletriangles.svg	13	yes	57	0	914
6.6.1	mac	2022-12-28	16:16:30	16:26:11	579852	60fed192ae37691d25db0d6d	578466862	1	main_slash	11	main_slash	119	stimuli_target_circletriangles.svg	stimuli_distractor_trianglediamonds.svg	1	yes	53	1	317
6.6.1	mac	2022-12-28	16:16:30	16:26:11	579852	60fed192ae37691d25db0d6d	578466862	1	main_slash	11	advance_on_keypress_SLASH	120	stimuli_target_circletriangles.svg	stimuli_distractor_trianglediamonds.svg	1	yes	57	0	1468
6.6.1	mac	2022-12-28	16:16:30	16:26:14	583091	60fed192ae37691d25db0d6d	578466862	1	main_slash	11	main_slash	121	stimuli_target_trianglecircles.svg	stimuli_distractor_diamondtriangles.svg	21	yes	53	1	1137
6.6.1	mac	2022-12-28	16:16:30	16:26:14	583091	60fed192ae37691d25db0d6d	578466862	1	main_slash	11	advance_on_keypress_SLASH	122	stimuli_target_trianglecircles.svg	stimuli_distractor_diamondtriangles.svg	21	yes	57	0	525
6.6.1	mac	2022-12-28	16:16:30	16:26:16	584869	60fed192ae37691d25db0d6d	578466862	1	main_slash	11	main_slash	123	stimuli_distractor_diamondtriangles.svg	stimuli_target_squarediamonds.svg	16	yes	53	1	629
6.6.1	mac	2022-12-28	16:16:30	16:26:16	584869	60fed192ae37691d25db0d6d	578466862	1	main_slash	11	advance_on_keypress_SLASH	124	stimuli_distractor_diamondtriangles.svg	stimuli_target_squarediamonds.svg	16	yes	57	0	911
6.6.1	mac	2022-12-28	16:16:30	16:26:18	586758	60fed192ae37691d25db0d6d	578466862	1	main_slash	11	main_slash	125	stimuli_distractor_diamondtriangles.svg	stimuli_distractor_diamondtriangles.svg	39	no	53	0	350
6.6.1	mac	2022-12-28	16:16:30	16:26:18	586758	60fed192ae37691d25db0d6d	578466862	1	main_slash	11	advance_on_keypress_SLASH	126	stimuli_distractor_diamondtriangles.svg	stimuli_distractor_diamondtriangles.svg	39	no	57	0	1197
6.6.1	mac	2022-12-28	16:16:30	16:26:20	589077	60fed192ae37691d25db0d6d	578466862	1	main_slash	11	main_slash	127	stimuli_target_circlediamonds.svg	stimuli_distractor_diamondtriangles.svg	6	yes	53	1	484
6.6.1	mac	2022-12-28	16:16:30	16:26:20	589077	60fed192ae37691d25db0d6d	578466862	1	main_slash	11	advance_on_keypress_SLASH	128	stimuli_target_circlediamonds.svg	stimuli_distractor_diamondtriangles.svg	6	yes	57	0	566
6.6.1	mac	2022-12-28	16:16:30	16:26:22	590921	60fed192ae37691d25db0d6d	578466862	1	main_slash	11	main_slash	129	stimuli_distractor_diamondtriangles.svg	stimuli_target_trianglesquares.svg	30	yes	53	1	642
6.6.1	mac	2022-12-28	16:16:30	16:26:22	590921	60fed192ae37691d25db0d6d	578466862	1	main_slash	11	advance_on_keypress_SLASH	130	stimuli_distractor_diamondtriangles.svg	stimuli_target_trianglesquares.svg	30	yes	57	0	485
6.6.1	mac	2022-12-28	16:16:30	16:26:24	592496	60fed192ae37691d25db0d6d	578466862	1	main_slash	11	main_slash	131	stimuli_distractor_diamondtriangles.svg	stimuli_target_trianglecircles.svg	29	yes	53	1	465
6.6.1	mac	2022-12-28	16:16:30	16:26:24	592496	60fed192ae37691d25db0d6d	578466862	1	main_slash	11	advance_on_keypress_SLASH	132	stimuli_distractor_diamondtriangles.svg	stimuli_target_trianglecircles.svg	29	yes	57	0	655
6.6.1	mac	2022-12-28	16:16:30	16:26:25	594138	60fed192ae37691d25db0d6d	578466862	1	main_slash	11	main_slash	133	stimuli_target_squarediamonds.svg	stimuli_distractor_trianglediamonds.svg	4	yes	53	1	356
6.6.1	mac	2022-12-28	16:16:30	16:26:25	594138	60fed192ae37691d25db0d6d	578466862	1	main_slash	11	advance_on_keypress_SLASH	134	stimuli_target_squarediamonds.svg	stimuli_distractor_trianglediamonds.svg	4	yes	57	0	505
6.6.1	mac	2022-12-28	16:16:30	16:26:27	595667	60fed192ae37691d25db0d6d	578466862	1	main_slash	11	main_slash	135	stimuli_distractor_diamondtriangles.svg	stimuli_target_diamondcircles.svg	31	yes	53	1	400
6.6.1	mac	2022-12-28	16:16:30	16:26:27	595667	60fed192ae37691d25db0d6d	578466862	1	main_slash	11	advance_on_keypress_SLASH	136	stimuli_distractor_diamondtriangles.svg	stimuli_target_diamondcircles.svg	31	yes	57	0	882
6.6.1	mac	2022-12-28	16:16:30	16:26:29	597737	60fed192ae37691d25db0d6d	578466862	1	main_slash	11	main_slash	137	stimuli_distractor_trianglediamonds.svg	stimuli_target_squarediamonds.svg	12	yes	53	1	551
6.6.1	mac	2022-12-28	16:16:30	16:26:29	597737	60fed192ae37691d25db0d6d	578466862	1	main_slash	11	advance_on_keypress_SLASH	138	stimuli_distractor_trianglediamonds.svg	stimuli_target_squarediamonds.svg	12	yes	57	0	457
6.6.1	mac	2022-12-28	16:16:30	16:26:31	600144	60fed192ae37691d25db0d6d	578466862	1	main_slash	11	main_slash	139	stimuli_distractor_trianglediamonds.svg	stimuli_target_trianglesquares.svg	26	yes	53	1	1323
6.6.1	mac	2022-12-28	16:16:30	16:26:31	600144	60fed192ae37691d25db0d6d	578466862	1	main_slash	11	advance_on_keypress_SLASH	140	stimuli_distractor_trianglediamonds.svg	stimuli_target_trianglesquares.svg	26	yes	57	0	1016
6.6.1	mac	2022-12-28	16:16:30	16:26:35	603790	60fed192ae37691d25db0d6d	578466862	1	main_slash	11	main_slash	141	stimuli_distractor_diamondtriangles.svg	stimuli_distractor_diamondtriangles.svg	40	no	0	1	2000
6.6.1	mac	2022-12-28	16:16:30	16:26:35	603790	60fed192ae37691d25db0d6d	578466862	1	main_slash	11	advance_on_keypress_SLASH	142	stimuli_distractor_diamondtriangles.svg	stimuli_distractor_diamondtriangles.svg	40	no	57	0	430
6.6.1	mac	2022-12-28	16:16:30	16:26:38	606467	60fed192ae37691d25db0d6d	578466862	1	main_slash	11	main_slash	143	stimuli_distractor_trianglediamonds.svg	stimuli_distractor_diamondtriangles.svg	36	no	53	0	1606
6.6.1	mac	2022-12-28	16:16:30	16:26:38	606467	60fed192ae37691d25db0d6d	578466862	1	main_slash	11	advance_on_keypress_SLASH	144	stimuli_distractor_trianglediamonds.svg	stimuli_distractor_diamondtriangles.svg	36	no	57	0	482
6.6.1	mac	2022-12-28	16:16:30	16:26:39	608134	60fed192ae37691d25db0d6d	578466862	1	main_slash	11	main_slash	145	stimuli_distractor_trianglediamonds.svg	stimuli_target_circletriangles.svg	9	yes	53	1	555
6.6.1	mac	2022-12-28	16:16:30	16:26:39	608134	60fed192ae37691d25db0d6d	578466862	1	main_slash	11	advance_on_keypress_SLASH	146	stimuli_distractor_trianglediamonds.svg	stimuli_target_circletriangles.svg	9	yes	57	0	502
6.6.1	mac	2022-12-28	16:16:30	16:26:43	611264	60fed192ae37691d25db0d6d	578466862	1	main_slash	11	main_slash	147	stimuli_distractor_trianglediamonds.svg	stimuli_distractor_trianglediamonds.svg	34	no	0	1	2000
6.6.1	mac	2022-12-28	16:16:30	16:26:43	611264	60fed192ae37691d25db0d6d	578466862	1	main_slash	11	advance_on_keypress_SLASH	148	stimuli_distractor_trianglediamonds.svg	stimuli_distractor_trianglediamonds.svg	34	no	57	0	357
6.6.1	mac	2022-12-28	16:16:30	16:26:44	612834	60fed192ae37691d25db0d6d	578466862	1	main_slash	11	main_slash	149	stimuli_distractor_diamondtriangles.svg	stimuli_target_diamondsquares.svg	32	yes	53	1	582
6.6.1	mac	2022-12-28	16:16:30	16:26:44	612834	60fed192ae37691d25db0d6d	578466862	1	main_slash	11	advance_on_keypress_SLASH	150	stimuli_distractor_diamondtriangles.svg	stimuli_target_diamondsquares.svg	32	yes	57	0	500
6.6.1	mac	2022-12-28	16:16:30	16:26:46	614611	60fed192ae37691d25db0d6d	578466862	1	main_slash	11	main_slash	151	stimuli_target_squaretriangles.svg	stimuli_distractor_trianglediamonds.svg	3	yes	53	1	642
6.6.1	mac	2022-12-28	16:16:30	16:26:46	614611	60fed192ae37691d25db0d6d	578466862	1	main_slash	11	advance_on_keypress_SLASH	152	stimuli_target_squaretriangles.svg	stimuli_distractor_trianglediamonds.svg	3	yes	57	0	434
6.6.1	mac	2022-12-28	16:16:30	16:26:47	616028	60fed192ae37691d25db0d6d	578466862	1	main_slash	11	main_slash	153	stimuli_target_circlediamonds.svg	stimuli_distractor_trianglediamonds.svg	2	yes	53	1	357
6.6.1	mac	2022-12-28	16:16:30	16:26:47	616028	60fed192ae37691d25db0d6d	578466862	1	main_slash	11	advance_on_keypress_SLASH	154	stimuli_target_circlediamonds.svg	stimuli_distractor_trianglediamonds.svg	2	yes	57	0	442
6.6.1	mac	2022-12-28	16:16:30	16:26:49	617446	60fed192ae37691d25db0d6d	578466862	1	main_slash	11	main_slash	155	stimuli_distractor_trianglediamonds.svg	stimuli_target_squaretriangles.svg	11	yes	53	1	357
6.6.1	mac	2022-12-28	16:16:30	16:26:49	617446	60fed192ae37691d25db0d6d	578466862	1	main_slash	11	advance_on_keypress_SLASH	156	stimuli_distractor_trianglediamonds.svg	stimuli_target_squaretriangles.svg	11	yes	57	0	503
6.6.1	mac	2022-12-28	16:16:30	16:26:52	620574	60fed192ae37691d25db0d6d	578466862	1	main_slash	11	main_slash	157	stimuli_distractor_trianglediamonds.svg	stimuli_distractor_trianglediamonds.svg	33	no	0	1	2000
6.6.1	mac	2022-12-28	16:16:30	16:26:52	620574	60fed192ae37691d25db0d6d	578466862	1	main_slash	11	advance_on_keypress_SLASH	158	stimuli_distractor_trianglediamonds.svg	stimuli_distractor_trianglediamonds.svg	33	no	57	0	340
6.6.1	mac	2022-12-28	16:16:30	16:26:53	622240	60fed192ae37691d25db0d6d	578466862	1	main_slash	11	main_slash	159	stimuli_target_squaretriangles.svg	stimuli_distractor_diamondtriangles.svg	7	yes	53	1	695
6.6.1	mac	2022-12-28	16:16:30	16:26:53	622240	60fed192ae37691d25db0d6d	578466862	1	main_slash	11	advance_on_keypress_SLASH	160	stimuli_target_squaretriangles.svg	stimuli_distractor_diamondtriangles.svg	7	yes	57	0	493