build	computer.platform	date	time	timestamp	time_elapsed_ms	subject	group	session	blockcode	blocknum	trialcode	trialnum	stimulus_left	stimulus_right	stim_index	target_present	response	correct	latency
6.6.1	mac	2022-12-15	14:52:25	14:54:40	133241	5dcc5fee28e3148e8009491e	707605203	1	practice_slash	5	practice_slash	1	stimuli_target_circlediamonds.svg	stimuli_distractor_trianglediamonds.svg	4	yes	0	0	2000
6.6.1	mac	2022-12-15	14:52:25	14:54:40	133241	5dcc5fee28e3148e8009491e	707605203	1	practice_slash	5	advance_on_keypress_SLASH	2	stimuli_target_circlediamonds.svg	stimuli_distractor_trianglediamonds.svg	4	yes	57	0	844
6.6.1	mac	2022-12-15	14:52:25	14:54:43	136218	5dcc5fee28e3148e8009491e	707605203	1	practice_slash	5	practice_slash	3	stimuli_distractor_diamondtriangles.svg	stimuli_target_trianglecircles.svg	9	yes	53	1	500
6.6.1	mac	2022-12-15	14:52:25	14:54:43	136218	5dcc5fee28e3148e8009491e	707605203	1	practice_slash	5	advance_on_keypress_SLASH	4	stimuli_distractor_diamondtriangles.svg	stimuli_target_trianglecircles.svg	9	yes	57	0	1007
6.6.1	mac	2022-12-15	14:52:25	14:54:47	140855	5dcc5fee28e3148e8009491e	707605203	1	practice_slash	5	practice_slash	5	stimuli_distractor_trianglediamonds.svg	stimuli_target_diamondcircles.svg	12	yes	0	0	2000
6.6.1	mac	2022-12-15	14:52:25	14:54:47	140855	5dcc5fee28e3148e8009491e	707605203	1	practice_slash	5	advance_on_keypress_SLASH	6	stimuli_distractor_trianglediamonds.svg	stimuli_target_diamondcircles.svg	12	yes	57	0	452
6.6.1	mac	2022-12-15	14:52:25	14:54:51	144940	5dcc5fee28e3148e8009491e	707605203	1	practice_slash	5	practice_slash	7	stimuli_distractor_trianglediamonds.svg	stimuli_distractor_trianglediamonds.svg	15	no	0	1	2000
6.6.1	mac	2022-12-15	14:52:25	14:54:51	144940	5dcc5fee28e3148e8009491e	707605203	1	practice_slash	5	advance_on_keypress_SLASH	8	stimuli_distractor_trianglediamonds.svg	stimuli_distractor_trianglediamonds.svg	15	no	57	0	490
6.6.1	mac	2022-12-15	14:52:25	14:54:54	147875	5dcc5fee28e3148e8009491e	707605203	1	practice_slash	5	practice_slash	9	stimuli_distractor_trianglediamonds.svg	stimuli_target_circlediamonds.svg	10	yes	53	1	816
6.6.1	mac	2022-12-15	14:52:25	14:54:54	147875	5dcc5fee28e3148e8009491e	707605203	1	practice_slash	5	advance_on_keypress_SLASH	10	stimuli_distractor_trianglediamonds.svg	stimuli_target_circlediamonds.svg	10	yes	57	0	468
6.6.1	mac	2022-12-15	14:52:25	14:54:57	151030	5dcc5fee28e3148e8009491e	707605203	1	practice_slash	5	practice_slash	11	stimuli_target_squarediamonds.svg	stimuli_distractor_trianglediamonds.svg	5	yes	53	1	1056
6.6.1	mac	2022-12-15	14:52:25	14:54:57	151030	5dcc5fee28e3148e8009491e	707605203	1	practice_slash	5	advance_on_keypress_SLASH	12	stimuli_target_squarediamonds.svg	stimuli_distractor_trianglediamonds.svg	5	yes	57	0	477
6.6.1	mac	2022-12-15	14:52:25	14:55:01	154362	5dcc5fee28e3148e8009491e	707605203	1	practice_slash	5	practice_slash	13	stimuli_distractor_diamondtriangles.svg	stimuli_target_diamondcircles.svg	8	yes	53	1	1215
6.6.1	mac	2022-12-15	14:52:25	14:55:01	154362	5dcc5fee28e3148e8009491e	707605203	1	practice_slash	5	advance_on_keypress_SLASH	14	stimuli_distractor_diamondtriangles.svg	stimuli_target_diamondcircles.svg	8	yes	57	0	406
6.6.1	mac	2022-12-15	14:52:25	14:55:04	157480	5dcc5fee28e3148e8009491e	707605203	1	practice_slash	5	practice_slash	15	stimuli_distractor_trianglediamonds.svg	stimuli_target_squarediamonds.svg	11	yes	53	1	1074
6.6.1	mac	2022-12-15	14:52:25	14:55:04	157480	5dcc5fee28e3148e8009491e	707605203	1	practice_slash	5	advance_on_keypress_SLASH	16	stimuli_distractor_trianglediamonds.svg	stimuli_target_squarediamonds.svg	11	yes	57	0	447
6.6.1	mac	2022-12-15	14:52:25	14:55:07	160411	5dcc5fee28e3148e8009491e	707605203	1	practice_slash	5	practice_slash	17	stimuli_target_circlediamonds.svg	stimuli_distractor_diamondtriangles.svg	1	yes	53	1	837
6.6.1	mac	2022-12-15	14:52:25	14:55:07	160411	5dcc5fee28e3148e8009491e	707605203	1	practice_slash	5	advance_on_keypress_SLASH	18	stimuli_target_circlediamonds.svg	stimuli_distractor_diamondtriangles.svg	1	yes	57	0	498
6.6.1	mac	2022-12-15	14:52:25	14:55:11	164530	5dcc5fee28e3148e8009491e	707605203	1	practice_slash	5	practice_slash	19	stimuli_target_diamondsquares.svg	stimuli_distractor_diamondtriangles.svg	3	yes	0	0	2000
6.6.1	mac	2022-12-15	14:52:25	14:55:11	164530	5dcc5fee28e3148e8009491e	707605203	1	practice_slash	5	advance_on_keypress_SLASH	20	stimuli_target_diamondsquares.svg	stimuli_distractor_diamondtriangles.svg	3	yes	57	0	377
6.6.1	mac	2022-12-15	14:52:25	14:55:15	168540	5dcc5fee28e3148e8009491e	707605203	1	practice_slash	5	practice_slash	21	stimuli_distractor_diamondtriangles.svg	stimuli_distractor_trianglediamonds.svg	14	no	0	1	2000
6.6.1	mac	2022-12-15	14:52:25	14:55:15	168540	5dcc5fee28e3148e8009491e	707605203	1	practice_slash	5	advance_on_keypress_SLASH	22	stimuli_distractor_diamondtriangles.svg	stimuli_distractor_trianglediamonds.svg	14	no	57	0	277
6.6.1	mac	2022-12-15	14:52:25	14:55:19	172449	5dcc5fee28e3148e8009491e	707605203	1	practice_slash	5	practice_slash	23	stimuli_distractor_trianglediamonds.svg	stimuli_distractor_diamondtriangles.svg	16	no	0	1	2000
6.6.1	mac	2022-12-15	14:52:25	14:55:19	172449	5dcc5fee28e3148e8009491e	707605203	1	practice_slash	5	advance_on_keypress_SLASH	24	stimuli_distractor_trianglediamonds.svg	stimuli_distractor_diamondtriangles.svg	16	no	57	0	251
6.6.1	mac	2022-12-15	14:52:25	14:55:22	175392	5dcc5fee28e3148e8009491e	707605203	1	practice_slash	5	practice_slash	25	stimuli_target_diamondsquares.svg	stimuli_distractor_trianglediamonds.svg	6	yes	53	1	1066
6.6.1	mac	2022-12-15	14:52:25	14:55:22	175392	5dcc5fee28e3148e8009491e	707605203	1	practice_slash	5	advance_on_keypress_SLASH	26	stimuli_target_diamondsquares.svg	stimuli_distractor_trianglediamonds.svg	6	yes	57	0	323
6.6.1	mac	2022-12-15	14:52:25	14:55:25	178172	5dcc5fee28e3148e8009491e	707605203	1	practice_slash	5	practice_slash	27	stimuli_target_squarediamonds.svg	stimuli_distractor_diamondtriangles.svg	2	yes	53	1	817
6.6.1	mac	2022-12-15	14:52:25	14:55:25	178172	5dcc5fee28e3148e8009491e	707605203	1	practice_slash	5	advance_on_keypress_SLASH	28	stimuli_target_squarediamonds.svg	stimuli_distractor_diamondtriangles.svg	2	yes	57	0	371
6.6.1	mac	2022-12-15	14:52:25	14:55:27	180996	5dcc5fee28e3148e8009491e	707605203	1	practice_slash	5	practice_slash	29	stimuli_distractor_diamondtriangles.svg	stimuli_target_circletriangles.svg	7	yes	53	1	814
6.6.1	mac	2022-12-15	14:52:25	14:55:27	180996	5dcc5fee28e3148e8009491e	707605203	1	practice_slash	5	advance_on_keypress_SLASH	30	stimuli_distractor_diamondtriangles.svg	stimuli_target_circletriangles.svg	7	yes	57	0	439
6.6.1	mac	2022-12-15	14:52:25	14:55:32	185056	5dcc5fee28e3148e8009491e	707605203	1	practice_slash	5	practice_slash	31	stimuli_distractor_diamondtriangles.svg	stimuli_distractor_diamondtriangles.svg	13	no	0	1	2000
6.6.1	mac	2022-12-15	14:52:25	14:55:32	185056	5dcc5fee28e3148e8009491e	707605203	1	practice_slash	5	advance_on_keypress_SLASH	32	stimuli_distractor_diamondtriangles.svg	stimuli_distractor_diamondtriangles.svg	13	no	57	0	272
6.6.1	mac	2022-12-15	14:52:25	14:55:40	193242	5dcc5fee28e3148e8009491e	707605203	1	main_slash	7	main_slash	1	stimuli_target_circletriangles.svg	stimuli_distractor_diamondtriangles.svg	5	yes	53	1	689
6.6.1	mac	2022-12-15	14:52:25	14:55:40	193242	5dcc5fee28e3148e8009491e	707605203	1	main_slash	7	advance_on_keypress_SLASH	2	stimuli_target_circletriangles.svg	stimuli_distractor_diamondtriangles.svg	5	yes	57	0	538
6.6.1	mac	2022-12-15	14:52:25	14:55:42	195366	5dcc5fee28e3148e8009491e	707605203	1	main_slash	7	main_slash	3	stimuli_distractor_diamondtriangles.svg	stimuli_target_diamondcircles.svg	31	yes	53	1	962
6.6.1	mac	2022-12-15	14:52:25	14:55:42	195366	5dcc5fee28e3148e8009491e	707605203	1	main_slash	7	advance_on_keypress_SLASH	4	stimuli_distractor_diamondtriangles.svg	stimuli_target_diamondcircles.svg	31	yes	57	0	974
6.6.1	mac	2022-12-15	14:52:25	14:55:44	197762	5dcc5fee28e3148e8009491e	707605203	1	main_slash	7	main_slash	5	stimuli_target_circletriangles.svg	stimuli_distractor_trianglediamonds.svg	1	yes	53	1	800
6.6.1	mac	2022-12-15	14:52:25	14:55:44	197762	5dcc5fee28e3148e8009491e	707605203	1	main_slash	7	advance_on_keypress_SLASH	6	stimuli_target_circletriangles.svg	stimuli_distractor_trianglediamonds.svg	1	yes	57	0	516
6.6.1	mac	2022-12-15	14:52:25	14:55:46	199687	5dcc5fee28e3148e8009491e	707605203	1	main_slash	7	main_slash	7	stimuli_target_squaretriangles.svg	stimuli_distractor_diamondtriangles.svg	7	yes	53	1	765
6.6.1	mac	2022-12-15	14:52:25	14:55:46	199687	5dcc5fee28e3148e8009491e	707605203	1	main_slash	7	advance_on_keypress_SLASH	8	stimuli_target_squaretriangles.svg	stimuli_distractor_diamondtriangles.svg	7	yes	57	0	413
6.6.1	mac	2022-12-15	14:52:25	14:55:49	202743	5dcc5fee28e3148e8009491e	707605203	1	main_slash	7	main_slash	9	stimuli_distractor_diamondtriangles.svg	stimuli_distractor_diamondtriangles.svg	39	no	0	1	2000
6.6.1	mac	2022-12-15	14:52:25	14:55:49	202743	5dcc5fee28e3148e8009491e	707605203	1	main_slash	7	advance_on_keypress_SLASH	10	stimuli_distractor_diamondtriangles.svg	stimuli_distractor_diamondtriangles.svg	39	no	57	0	278
6.6.1	mac	2022-12-15	14:52:25	14:55:51	204755	5dcc5fee28e3148e8009491e	707605203	1	main_slash	7	main_slash	11	stimuli_distractor_trianglediamonds.svg	stimuli_target_trianglecircles.svg	25	yes	53	1	1100
6.6.1	mac	2022-12-15	14:52:25	14:55:51	204755	5dcc5fee28e3148e8009491e	707605203	1	main_slash	7	advance_on_keypress_SLASH	12	stimuli_distractor_trianglediamonds.svg	stimuli_target_trianglecircles.svg	25	yes	57	0	505
6.6.1	mac	2022-12-15	14:52:25	14:55:54	207880	5dcc5fee28e3148e8009491e	707605203	1	main_slash	7	main_slash	13	stimuli_target_diamondsquares.svg	stimuli_distractor_trianglediamonds.svg	20	yes	0	0	2000
6.6.1	mac	2022-12-15	14:52:25	14:55:54	207880	5dcc5fee28e3148e8009491e	707605203	1	main_slash	7	advance_on_keypress_SLASH	14	stimuli_target_diamondsquares.svg	stimuli_distractor_trianglediamonds.svg	20	yes	57	0	316
6.6.1	mac	2022-12-15	14:52:25	14:55:56	209782	5dcc5fee28e3148e8009491e	707605203	1	main_slash	7	main_slash	15	stimuli_distractor_trianglediamonds.svg	stimuli_target_diamondcircles.svg	27	yes	53	1	957
6.6.1	mac	2022-12-15	14:52:25	14:55:56	209782	5dcc5fee28e3148e8009491e	707605203	1	main_slash	7	advance_on_keypress_SLASH	16	stimuli_distractor_trianglediamonds.svg	stimuli_target_diamondcircles.svg	27	yes	57	0	492
6.6.1	mac	2022-12-15	14:52:25	14:55:59	212912	5dcc5fee28e3148e8009491e	707605203	1	main_slash	7	main_slash	17	stimuli_distractor_trianglediamonds.svg	stimuli_distractor_diamondtriangles.svg	35	no	0	1	2000
6.6.1	mac	2022-12-15	14:52:25	14:55:59	212912	5dcc5fee28e3148e8009491e	707605203	1	main_slash	7	advance_on_keypress_SLASH	18	stimuli_distractor_trianglediamonds.svg	stimuli_distractor_diamondtriangles.svg	35	no	57	0	237
6.6.1	mac	2022-12-15	14:52:25	14:56:02	215774	5dcc5fee28e3148e8009491e	707605203	1	main_slash	7	main_slash	19	stimuli_target_diamondsquares.svg	stimuli_distractor_diamondtriangles.svg	24	yes	0	0	2000
6.6.1	mac	2022-12-15	14:52:25	14:56:02	215774	5dcc5fee28e3148e8009491e	707605203	1	main_slash	7	advance_on_keypress_SLASH	20	stimuli_target_diamondsquares.svg	stimuli_distractor_diamondtriangles.svg	24	yes	57	0	324
6.6.1	mac	2022-12-15	14:52:25	14:56:04	217688	5dcc5fee28e3148e8009491e	707605203	1	main_slash	7	main_slash	21	stimuli_target_trianglecircles.svg	stimuli_distractor_trianglediamonds.svg	17	yes	53	1	951
6.6.1	mac	2022-12-15	14:52:25	14:56:04	217688	5dcc5fee28e3148e8009491e	707605203	1	main_slash	7	advance_on_keypress_SLASH	22	stimuli_target_trianglecircles.svg	stimuli_distractor_trianglediamonds.svg	17	yes	57	0	527
6.6.1	mac	2022-12-15	14:52:25	14:56:06	219672	5dcc5fee28e3148e8009491e	707605203	1	main_slash	7	main_slash	23	stimuli_target_squarediamonds.svg	stimuli_distractor_diamondtriangles.svg	8	yes	53	1	839
6.6.1	mac	2022-12-15	14:52:25	14:56:06	219672	5dcc5fee28e3148e8009491e	707605203	1	main_slash	7	advance_on_keypress_SLASH	24	stimuli_target_squarediamonds.svg	stimuli_distractor_diamondtriangles.svg	8	yes	57	0	399
6.6.1	mac	2022-12-15	14:52:25	14:56:09	222702	5dcc5fee28e3148e8009491e	707605203	1	main_slash	7	main_slash	25	stimuli_distractor_diamondtriangles.svg	stimuli_distractor_trianglediamonds.svg	37	no	0	1	2000
6.6.1	mac	2022-12-15	14:52:25	14:56:09	222702	5dcc5fee28e3148e8009491e	707605203	1	main_slash	7	advance_on_keypress_SLASH	26	stimuli_distractor_diamondtriangles.svg	stimuli_distractor_trianglediamonds.svg	37	no	57	0	255
6.6.1	mac	2022-12-15	14:52:25	14:56:11	224508	5dcc5fee28e3148e8009491e	707605203	1	main_slash	7	main_slash	27	stimuli_distractor_diamondtriangles.svg	stimuli_target_trianglesquares.svg	30	yes	53	1	925
6.6.1	mac	2022-12-15	14:52:25	14:56:11	224508	5dcc5fee28e3148e8009491e	707605203	1	main_slash	7	advance_on_keypress_SLASH	28	stimuli_distractor_diamondtriangles.svg	stimuli_target_trianglesquares.svg	30	yes	57	0	413
6.6.1	mac	2022-12-15	14:52:25	14:56:14	227547	5dcc5fee28e3148e8009491e	707605203	1	main_slash	7	main_slash	29	stimuli_target_trianglesquares.svg	stimuli_distractor_diamondtriangles.svg	22	yes	0	0	2000
6.6.1	mac	2022-12-15	14:52:25	14:56:14	227547	5dcc5fee28e3148e8009491e	707605203	1	main_slash	7	advance_on_keypress_SLASH	30	stimuli_target_trianglesquares.svg	stimuli_distractor_diamondtriangles.svg	22	yes	57	0	285
6.6.1	mac	2022-12-15	14:52:25	14:56:16	229704	5dcc5fee28e3148e8009491e	707605203	1	main_slash	7	main_slash	31	stimuli_target_diamondcircles.svg	stimuli_distractor_trianglediamonds.svg	19	yes	53	1	1235
6.6.1	mac	2022-12-15	14:52:25	14:56:16	229704	5dcc5fee28e3148e8009491e	707605203	1	main_slash	7	advance_on_keypress_SLASH	32	stimuli_target_diamondcircles.svg	stimuli_distractor_trianglediamonds.svg	19	yes	57	0	665
6.6.1	mac	2022-12-15	14:52:25	14:56:19	232998	5dcc5fee28e3148e8009491e	707605203	1	main_slash	7	main_slash	33	stimuli_distractor_trianglediamonds.svg	stimuli_target_trianglesquares.svg	26	yes	0	0	2000
6.6.1	mac	2022-12-15	14:52:25	14:56:19	232998	5dcc5fee28e3148e8009491e	707605203	1	main_slash	7	advance_on_keypress_SLASH	34	stimuli_distractor_trianglediamonds.svg	stimuli_target_trianglesquares.svg	26	yes	57	0	231
6.6.1	mac	2022-12-15	14:52:25	14:56:21	234519	5dcc5fee28e3148e8009491e	707605203	1	main_slash	7	main_slash	35	stimuli_distractor_trianglediamonds.svg	stimuli_target_circletriangles.svg	9	yes	53	1	662
6.6.1	mac	2022-12-15	14:52:25	14:56:21	234519	5dcc5fee28e3148e8009491e	707605203	1	main_slash	7	advance_on_keypress_SLASH	36	stimuli_distractor_trianglediamonds.svg	stimuli_target_circletriangles.svg	9	yes	57	0	587
6.6.1	mac	2022-12-15	14:52:25	14:56:23	236550	5dcc5fee28e3148e8009491e	707605203	1	main_slash	7	main_slash	37	stimuli_distractor_diamondtriangles.svg	stimuli_target_trianglecircles.svg	29	yes	53	1	820
6.6.1	mac	2022-12-15	14:52:25	14:56:23	236550	5dcc5fee28e3148e8009491e	707605203	1	main_slash	7	advance_on_keypress_SLASH	38	stimuli_distractor_diamondtriangles.svg	stimuli_target_trianglecircles.svg	29	yes	57	0	466
6.6.1	mac	2022-12-15	14:52:25	14:56:25	238419	5dcc5fee28e3148e8009491e	707605203	1	main_slash	7	main_slash	39	stimuli_distractor_diamondtriangles.svg	stimuli_target_squaretriangles.svg	15	yes	53	1	758
6.6.1	mac	2022-12-15	14:52:25	14:56:25	238419	5dcc5fee28e3148e8009491e	707605203	1	main_slash	7	advance_on_keypress_SLASH	40	stimuli_distractor_diamondtriangles.svg	stimuli_target_squaretriangles.svg	15	yes	57	0	404
6.6.1	mac	2022-12-15	14:52:25	14:56:28	241459	5dcc5fee28e3148e8009491e	707605203	1	main_slash	7	main_slash	41	stimuli_distractor_diamondtriangles.svg	stimuli_distractor_trianglediamonds.svg	38	no	0	1	2000
6.6.1	mac	2022-12-15	14:52:25	14:56:28	241459	5dcc5fee28e3148e8009491e	707605203	1	main_slash	7	advance_on_keypress_SLASH	42	stimuli_distractor_diamondtriangles.svg	stimuli_distractor_trianglediamonds.svg	38	no	57	0	285
6.6.1	mac	2022-12-15	14:52:25	14:56:29	243032	5dcc5fee28e3148e8009491e	707605203	1	main_slash	7	main_slash	43	stimuli_distractor_diamondtriangles.svg	stimuli_target_squarediamonds.svg	16	yes	53	1	660
6.6.1	mac	2022-12-15	14:52:25	14:56:29	243032	5dcc5fee28e3148e8009491e	707605203	1	main_slash	7	advance_on_keypress_SLASH	44	stimuli_distractor_diamondtriangles.svg	stimuli_target_squarediamonds.svg	16	yes	57	0	561
6.6.1	mac	2022-12-15	14:52:25	14:56:32	245059	5dcc5fee28e3148e8009491e	707605203	1	main_slash	7	main_slash	45	stimuli_distractor_trianglediamonds.svg	stimuli_target_squarediamonds.svg	12	yes	53	1	831
6.6.1	mac	2022-12-15	14:52:25	14:56:32	245059	5dcc5fee28e3148e8009491e	707605203	1	main_slash	7	advance_on_keypress_SLASH	46	stimuli_distractor_trianglediamonds.svg	stimuli_target_squarediamonds.svg	12	yes	57	0	390
6.6.1	mac	2022-12-15	14:52:25	14:56:33	247016	5dcc5fee28e3148e8009491e	707605203	1	main_slash	7	main_slash	47	stimuli_target_trianglesquares.svg	stimuli_distractor_trianglediamonds.svg	18	yes	53	1	942
6.6.1	mac	2022-12-15	14:52:25	14:56:33	247016	5dcc5fee28e3148e8009491e	707605203	1	main_slash	7	advance_on_keypress_SLASH	48	stimuli_target_trianglesquares.svg	stimuli_distractor_trianglediamonds.svg	18	yes	57	0	515
6.6.1	mac	2022-12-15	14:52:25	14:56:35	248922	5dcc5fee28e3148e8009491e	707605203	1	main_slash	7	main_slash	49	stimuli_target_squarediamonds.svg	stimuli_distractor_trianglediamonds.svg	4	yes	53	1	765
6.6.1	mac	2022-12-15	14:52:25	14:56:35	248922	5dcc5fee28e3148e8009491e	707605203	1	main_slash	7	advance_on_keypress_SLASH	50	stimuli_target_squarediamonds.svg	stimuli_distractor_trianglediamonds.svg	4	yes	57	0	532
6.6.1	mac	2022-12-15	14:52:25	14:56:39	252097	5dcc5fee28e3148e8009491e	707605203	1	main_slash	7	main_slash	51	stimuli_distractor_trianglediamonds.svg	stimuli_distractor_diamondtriangles.svg	36	no	0	1	2000
6.6.1	mac	2022-12-15	14:52:25	14:56:39	252097	5dcc5fee28e3148e8009491e	707605203	1	main_slash	7	advance_on_keypress_SLASH	52	stimuli_distractor_trianglediamonds.svg	stimuli_distractor_diamondtriangles.svg	36	no	57	0	336
6.6.1	mac	2022-12-15	14:52:25	14:56:40	253740	5dcc5fee28e3148e8009491e	707605203	1	main_slash	7	main_slash	53	stimuli_distractor_diamondtriangles.svg	stimuli_target_circlediamonds.svg	14	yes	53	1	674
6.6.1	mac	2022-12-15	14:52:25	14:56:40	253740	5dcc5fee28e3148e8009491e	707605203	1	main_slash	7	advance_on_keypress_SLASH	54	stimuli_distractor_diamondtriangles.svg	stimuli_target_circlediamonds.svg	14	yes	57	0	500
6.6.1	mac	2022-12-15	14:52:25	14:56:43	256865	5dcc5fee28e3148e8009491e	707605203	1	main_slash	7	main_slash	55	stimuli_distractor_trianglediamonds.svg	stimuli_distractor_trianglediamonds.svg	34	no	0	1	2000
6.6.1	mac	2022-12-15	14:52:25	14:56:43	256865	5dcc5fee28e3148e8009491e	707605203	1	main_slash	7	advance_on_keypress_SLASH	56	stimuli_distractor_trianglediamonds.svg	stimuli_distractor_trianglediamonds.svg	34	no	57	0	314
6.6.1	mac	2022-12-15	14:52:25	14:56:45	258609	5dcc5fee28e3148e8009491e	707605203	1	main_slash	7	main_slash	57	stimuli_target_circlediamonds.svg	stimuli_distractor_trianglediamonds.svg	2	yes	53	1	796
6.6.1	mac	2022-12-15	14:52:25	14:56:45	258609	5dcc5fee28e3148e8009491e	707605203	1	main_slash	7	advance_on_keypress_SLASH	58	stimuli_target_circlediamonds.svg	stimuli_distractor_trianglediamonds.svg	2	yes	57	0	575
6.6.1	mac	2022-12-15	14:52:25	14:56:48	261815	5dcc5fee28e3148e8009491e	707605203	1	main_slash	7	main_slash	59	stimuli_distractor_diamondtriangles.svg	stimuli_target_diamondsquares.svg	32	yes	0	0	2000
6.6.1	mac	2022-12-15	14:52:25	14:56:48	261815	5dcc5fee28e3148e8009491e	707605203	1	main_slash	7	advance_on_keypress_SLASH	60	stimuli_distractor_diamondtriangles.svg	stimuli_target_diamondsquares.svg	32	yes	57	0	301
6.6.1	mac	2022-12-15	14:52:25	14:56:50	263453	5dcc5fee28e3148e8009491e	707605203	1	main_slash	7	main_slash	61	stimuli_target_squaretriangles.svg	stimuli_distractor_trianglediamonds.svg	3	yes	53	1	708
6.6.1	mac	2022-12-15	14:52:25	14:56:50	263453	5dcc5fee28e3148e8009491e	707605203	1	main_slash	7	advance_on_keypress_SLASH	62	stimuli_target_squaretriangles.svg	stimuli_distractor_trianglediamonds.svg	3	yes	57	0	504
6.6.1	mac	2022-12-15	14:52:25	14:56:52	265695	5dcc5fee28e3148e8009491e	707605203	1	main_slash	7	main_slash	63	stimuli_target_diamondcircles.svg	stimuli_distractor_diamondtriangles.svg	23	yes	53	1	1101
6.6.1	mac	2022-12-15	14:52:25	14:56:52	265695	5dcc5fee28e3148e8009491e	707605203	1	main_slash	7	advance_on_keypress_SLASH	64	stimuli_target_diamondcircles.svg	stimuli_distractor_diamondtriangles.svg	23	yes	57	0	496
6.6.1	mac	2022-12-15	14:52:25	14:56:54	267607	5dcc5fee28e3148e8009491e	707605203	1	main_slash	7	main_slash	65	stimuli_distractor_trianglediamonds.svg	stimuli_target_squaretriangles.svg	11	yes	53	1	767
6.6.1	mac	2022-12-15	14:52:25	14:56:54	267607	5dcc5fee28e3148e8009491e	707605203	1	main_slash	7	advance_on_keypress_SLASH	66	stimuli_distractor_trianglediamonds.svg	stimuli_target_squaretriangles.svg	11	yes	57	0	592
6.6.1	mac	2022-12-15	14:52:25	14:56:56	269662	5dcc5fee28e3148e8009491e	707605203	1	main_slash	7	main_slash	67	stimuli_target_circlediamonds.svg	stimuli_distractor_diamondtriangles.svg	6	yes	53	1	829
6.6.1	mac	2022-12-15	14:52:25	14:56:56	269662	5dcc5fee28e3148e8009491e	707605203	1	main_slash	7	advance_on_keypress_SLASH	68	stimuli_target_circlediamonds.svg	stimuli_distractor_diamondtriangles.svg	6	yes	57	0	564
6.6.1	mac	2022-12-15	14:52:25	14:56:59	272868	5dcc5fee28e3148e8009491e	707605203	1	main_slash	7	main_slash	69	stimuli_distractor_diamondtriangles.svg	stimuli_distractor_diamondtriangles.svg	40	no	0	1	2000
6.6.1	mac	2022-12-15	14:52:25	14:56:59	272868	5dcc5fee28e3148e8009491e	707605203	1	main_slash	7	advance_on_keypress_SLASH	70	stimuli_distractor_diamondtriangles.svg	stimuli_distractor_diamondtriangles.svg	40	no	57	0	267
6.6.1	mac	2022-12-15	14:52:25	14:57:02	275763	5dcc5fee28e3148e8009491e	707605203	1	main_slash	7	main_slash	71	stimuli_distractor_trianglediamonds.svg	stimuli_distractor_trianglediamonds.svg	33	no	0	1	2000
6.6.1	mac	2022-12-15	14:52:25	14:57:02	275763	5dcc5fee28e3148e8009491e	707605203	1	main_slash	7	advance_on_keypress_SLASH	72	stimuli_distractor_trianglediamonds.svg	stimuli_distractor_trianglediamonds.svg	33	no	57	0	325
6.6.1	mac	2022-12-15	14:52:25	14:57:05	278722	5dcc5fee28e3148e8009491e	707605203	1	main_slash	7	main_slash	73	stimuli_target_trianglecircles.svg	stimuli_distractor_diamondtriangles.svg	21	yes	0	0	2000
6.6.1	mac	2022-12-15	14:52:25	14:57:05	278722	5dcc5fee28e3148e8009491e	707605203	1	main_slash	7	advance_on_keypress_SLASH	74	stimuli_target_trianglecircles.svg	stimuli_distractor_diamondtriangles.svg	21	yes	57	0	376
6.6.1	mac	2022-12-15	14:52:25	14:57:08	281725	5dcc5fee28e3148e8009491e	707605203	1	main_slash	7	main_slash	75	stimuli_distractor_trianglediamonds.svg	stimuli_target_diamondsquares.svg	28	yes	0	0	2000
6.6.1	mac	2022-12-15	14:52:25	14:57:08	281725	5dcc5fee28e3148e8009491e	707605203	1	main_slash	7	advance_on_keypress_SLASH	76	stimuli_distractor_trianglediamonds.svg	stimuli_target_diamondsquares.svg	28	yes	57	0	257
6.6.1	mac	2022-12-15	14:52:25	14:57:10	283362	5dcc5fee28e3148e8009491e	707605203	1	main_slash	7	main_slash	77	stimuli_distractor_diamondtriangles.svg	stimuli_target_circletriangles.svg	13	yes	53	1	751
6.6.1	mac	2022-12-15	14:52:25	14:57:10	283362	5dcc5fee28e3148e8009491e	707605203	1	main_slash	7	advance_on_keypress_SLASH	78	stimuli_distractor_diamondtriangles.svg	stimuli_target_circletriangles.svg	13	yes	57	0	851
6.6.1	mac	2022-12-15	14:52:25	14:57:12	285534	5dcc5fee28e3148e8009491e	707605203	1	main_slash	7	main_slash	79	stimuli_distractor_trianglediamonds.svg	stimuli_target_circlediamonds.svg	10	yes	53	1	689
6.6.1	mac	2022-12-15	14:52:25	14:57:12	285534	5dcc5fee28e3148e8009491e	707605203	1	main_slash	7	advance_on_keypress_SLASH	80	stimuli_distractor_trianglediamonds.svg	stimuli_target_circlediamonds.svg	10	yes	57	0	994
6.6.1	mac	2022-12-15	14:52:25	14:57:14	287721	5dcc5fee28e3148e8009491e	707605203	1	main_slash	7	main_slash	81	stimuli_target_circletriangles.svg	stimuli_distractor_trianglediamonds.svg	1	yes	53	1	564
6.6.1	mac	2022-12-15	14:52:25	14:57:14	287721	5dcc5fee28e3148e8009491e	707605203	1	main_slash	7	advance_on_keypress_SLASH	82	stimuli_target_circletriangles.svg	stimuli_distractor_trianglediamonds.svg	1	yes	57	0	567
6.6.1	mac	2022-12-15	14:52:25	14:57:17	290927	5dcc5fee28e3148e8009491e	707605203	1	main_slash	7	main_slash	83	stimuli_distractor_diamondtriangles.svg	stimuli_distractor_diamondtriangles.svg	39	no	0	1	2000
6.6.1	mac	2022-12-15	14:52:25	14:57:17	290927	5dcc5fee28e3148e8009491e	707605203	1	main_slash	7	advance_on_keypress_SLASH	84	stimuli_distractor_diamondtriangles.svg	stimuli_distractor_diamondtriangles.svg	39	no	57	0	329
6.6.1	mac	2022-12-15	14:52:25	14:57:19	292615	5dcc5fee28e3148e8009491e	707605203	1	main_slash	7	main_slash	85	stimuli_target_diamondcircles.svg	stimuli_distractor_diamondtriangles.svg	23	yes	53	1	722
6.6.1	mac	2022-12-15	14:52:25	14:57:19	292615	5dcc5fee28e3148e8009491e	707605203	1	main_slash	7	advance_on_keypress_SLASH	86	stimuli_target_diamondcircles.svg	stimuli_distractor_diamondtriangles.svg	23	yes	57	0	407
6.6.1	mac	2022-12-15	14:52:25	14:57:21	294477	5dcc5fee28e3148e8009491e	707605203	1	main_slash	7	main_slash	87	stimuli_distractor_diamondtriangles.svg	stimuli_target_diamondcircles.svg	31	yes	53	1	808
6.6.1	mac	2022-12-15	14:52:25	14:57:21	294477	5dcc5fee28e3148e8009491e	707605203	1	main_slash	7	advance_on_keypress_SLASH	88	stimuli_distractor_diamondtriangles.svg	stimuli_target_diamondcircles.svg	31	yes	57	0	424
6.6.1	mac	2022-12-15	14:52:25	14:57:23	296254	5dcc5fee28e3148e8009491e	707605203	1	main_slash	7	main_slash	89	stimuli_target_trianglecircles.svg	stimuli_distractor_diamondtriangles.svg	21	yes	53	1	716
6.6.1	mac	2022-12-15	14:52:25	14:57:23	296254	5dcc5fee28e3148e8009491e	707605203	1	main_slash	7	advance_on_keypress_SLASH	90	stimuli_target_trianglecircles.svg	stimuli_distractor_diamondtriangles.svg	21	yes	57	0	378
6.6.1	mac	2022-12-15	14:52:25	14:57:24	298003	5dcc5fee28e3148e8009491e	707605203	1	main_slash	7	main_slash	91	stimuli_target_squaretriangles.svg	stimuli_distractor_diamondtriangles.svg	7	yes	53	1	738
6.6.1	mac	2022-12-15	14:52:25	14:57:24	298003	5dcc5fee28e3148e8009491e	707605203	1	main_slash	7	advance_on_keypress_SLASH	92	stimuli_target_squaretriangles.svg	stimuli_distractor_diamondtriangles.svg	7	yes	57	0	410
6.6.1	mac	2022-12-15	14:52:25	14:57:26	299994	5dcc5fee28e3148e8009491e	707605203	1	main_slash	7	main_slash	93	stimuli_distractor_diamondtriangles.svg	stimuli_target_diamondsquares.svg	32	yes	53	1	947
6.6.1	mac	2022-12-15	14:52:25	14:57:26	299994	5dcc5fee28e3148e8009491e	707605203	1	main_slash	7	advance_on_keypress_SLASH	94	stimuli_distractor_diamondtriangles.svg	stimuli_target_diamondsquares.svg	32	yes	57	0	266
6.6.1	mac	2022-12-15	14:52:25	14:57:28	301635	5dcc5fee28e3148e8009491e	707605203	1	main_slash	7	main_slash	95	stimuli_distractor_trianglediamonds.svg	stimuli_target_diamondcircles.svg	27	yes	53	1	733
6.6.1	mac	2022-12-15	14:52:25	14:57:28	301635	5dcc5fee28e3148e8009491e	707605203	1	main_slash	7	advance_on_keypress_SLASH	96	stimuli_distractor_trianglediamonds.svg	stimuli_target_diamondcircles.svg	27	yes	57	0	388
6.6.1	mac	2022-12-15	14:52:25	14:57:30	303364	5dcc5fee28e3148e8009491e	707605203	1	main_slash	7	main_slash	97	stimuli_distractor_trianglediamonds.svg	stimuli_target_circletriangles.svg	9	yes	53	1	711
6.6.1	mac	2022-12-15	14:52:25	14:57:30	303364	5dcc5fee28e3148e8009491e	707605203	1	main_slash	7	advance_on_keypress_SLASH	98	stimuli_distractor_trianglediamonds.svg	stimuli_target_circletriangles.svg	9	yes	57	0	355
6.6.1	mac	2022-12-15	14:52:25	14:57:33	306343	5dcc5fee28e3148e8009491e	707605203	1	main_slash	7	main_slash	99	stimuli_distractor_trianglediamonds.svg	stimuli_distractor_trianglediamonds.svg	34	no	0	1	2000
6.6.1	mac	2022-12-15	14:52:25	14:57:33	306343	5dcc5fee28e3148e8009491e	707605203	1	main_slash	7	advance_on_keypress_SLASH	100	stimuli_distractor_trianglediamonds.svg	stimuli_distractor_trianglediamonds.svg	34	no	57	0	306
6.6.1	mac	2022-12-15	14:52:25	14:57:36	309287	5dcc5fee28e3148e8009491e	707605203	1	main_slash	7	main_slash	101	stimuli_distractor_diamondtriangles.svg	stimuli_distractor_diamondtriangles.svg	40	no	0	1	2000
6.6.1	mac	2022-12-15	14:52:25	14:57:36	309287	5dcc5fee28e3148e8009491e	707605203	1	main_slash	7	advance_on_keypress_SLASH	102	stimuli_distractor_diamondtriangles.svg	stimuli_distractor_diamondtriangles.svg	40	no	57	0	277
6.6.1	mac	2022-12-15	14:52:25	14:57:37	310936	5dcc5fee28e3148e8009491e	707605203	1	main_slash	7	main_slash	103	stimuli_distractor_trianglediamonds.svg	stimuli_target_squarediamonds.svg	12	yes	53	1	722
6.6.1	mac	2022-12-15	14:52:25	14:57:37	310936	5dcc5fee28e3148e8009491e	707605203	1	main_slash	7	advance_on_keypress_SLASH	104	stimuli_distractor_trianglediamonds.svg	stimuli_target_squarediamonds.svg	12	yes	57	0	651
6.6.1	mac	2022-12-15	14:52:25	14:57:40	313057	5dcc5fee28e3148e8009491e	707605203	1	main_slash	7	main_slash	105	stimuli_distractor_trianglediamonds.svg	stimuli_target_trianglecircles.svg	25	yes	53	1	832
6.6.1	mac	2022-12-15	14:52:25	14:57:40	313057	5dcc5fee28e3148e8009491e	707605203	1	main_slash	7	advance_on_keypress_SLASH	106	stimuli_distractor_trianglediamonds.svg	stimuli_target_trianglecircles.svg	25	yes	57	0	391
6.6.1	mac	2022-12-15	14:52:25	14:57:43	316092	5dcc5fee28e3148e8009491e	707605203	1	main_slash	7	main_slash	107	stimuli_target_diamondsquares.svg	stimuli_distractor_diamondtriangles.svg	24	yes	0	0	2000
6.6.1	mac	2022-12-15	14:52:25	14:57:43	316092	5dcc5fee28e3148e8009491e	707605203	1	main_slash	7	advance_on_keypress_SLASH	108	stimuli_target_diamondsquares.svg	stimuli_distractor_diamondtriangles.svg	24	yes	57	0	319
6.6.1	mac	2022-12-15	14:52:25	14:57:45	319030	5dcc5fee28e3148e8009491e	707605203	1	main_slash	7	main_slash	109	stimuli_distractor_trianglediamonds.svg	stimuli_target_diamondsquares.svg	28	yes	0	0	2000
6.6.1	mac	2022-12-15	14:52:25	14:57:45	319030	5dcc5fee28e3148e8009491e	707605203	1	main_slash	7	advance_on_keypress_SLASH	110	stimuli_distractor_trianglediamonds.svg	stimuli_target_diamondsquares.svg	28	yes	57	0	439
6.6.1	mac	2022-12-15	14:52:25	14:57:49	322089	5dcc5fee28e3148e8009491e	707605203	1	main_slash	7	main_slash	111	stimuli_distractor_trianglediamonds.svg	stimuli_distractor_trianglediamonds.svg	33	no	0	1	2000
6.6.1	mac	2022-12-15	14:52:25	14:57:49	322089	5dcc5fee28e3148e8009491e	707605203	1	main_slash	7	advance_on_keypress_SLASH	112	stimuli_distractor_trianglediamonds.svg	stimuli_distractor_trianglediamonds.svg	33	no	57	0	471
6.6.1	mac	2022-12-15	14:52:25	14:57:50	323931	5dcc5fee28e3148e8009491e	707605203	1	main_slash	7	main_slash	113	stimuli_target_squaretriangles.svg	stimuli_distractor_trianglediamonds.svg	3	yes	53	1	748
6.6.1	mac	2022-12-15	14:52:25	14:57:50	323931	5dcc5fee28e3148e8009491e	707605203	1	main_slash	7	advance_on_keypress_SLASH	114	stimuli_target_squaretriangles.svg	stimuli_distractor_trianglediamonds.svg	3	yes	57	0	1131
6.6.1	mac	2022-12-15	14:52:25	14:57:54	327702	5dcc5fee28e3148e8009491e	707605203	1	main_slash	7	main_slash	115	stimuli_target_trianglesquares.svg	stimuli_distractor_trianglediamonds.svg	18	yes	0	0	2000
6.6.1	mac	2022-12-15	14:52:25	14:57:54	327702	5dcc5fee28e3148e8009491e	707605203	1	main_slash	7	advance_on_keypress_SLASH	116	stimuli_target_trianglesquares.svg	stimuli_distractor_trianglediamonds.svg	18	yes	57	0	339
6.6.1	mac	2022-12-15	14:52:25	14:57:57	330665	5dcc5fee28e3148e8009491e	707605203	1	main_slash	7	main_slash	117	stimuli_distractor_diamondtriangles.svg	stimuli_target_trianglesquares.svg	30	yes	0	0	2000
6.6.1	mac	2022-12-15	14:52:25	14:57:57	330665	5dcc5fee28e3148e8009491e	707605203	1	main_slash	7	advance_on_keypress_SLASH	118	stimuli_distractor_diamondtriangles.svg	stimuli_target_trianglesquares.svg	30	yes	57	0	309
6.6.1	mac	2022-12-15	14:52:25	14:57:59	332146	5dcc5fee28e3148e8009491e	707605203	1	main_slash	7	main_slash	119	stimuli_target_circlediamonds.svg	stimuli_distractor_trianglediamonds.svg	2	yes	53	1	532
6.6.1	mac	2022-12-15	14:52:25	14:57:59	332146	5dcc5fee28e3148e8009491e	707605203	1	main_slash	7	advance_on_keypress_SLASH	120	stimuli_target_circlediamonds.svg	stimuli_distractor_trianglediamonds.svg	2	yes	57	0	1136
6.6.1	mac	2022-12-15	14:52:25	14:58:01	334591	5dcc5fee28e3148e8009491e	707605203	1	main_slash	7	main_slash	121	stimuli_distractor_diamondtriangles.svg	stimuli_target_circlediamonds.svg	14	yes	53	1	692
6.6.1	mac	2022-12-15	14:52:25	14:58:01	334591	5dcc5fee28e3148e8009491e	707605203	1	main_slash	7	advance_on_keypress_SLASH	122	stimuli_distractor_diamondtriangles.svg	stimuli_target_circlediamonds.svg	14	yes	57	0	385
6.6.1	mac	2022-12-15	14:52:25	14:58:03	336760	5dcc5fee28e3148e8009491e	707605203	1	main_slash	7	main_slash	123	stimuli_distractor_diamondtriangles.svg	stimuli_target_squarediamonds.svg	16	yes	53	1	1158
6.6.1	mac	2022-12-15	14:52:25	14:58:03	336760	5dcc5fee28e3148e8009491e	707605203	1	main_slash	7	advance_on_keypress_SLASH	124	stimuli_distractor_diamondtriangles.svg	stimuli_target_squarediamonds.svg	16	yes	57	0	1294
6.6.1	mac	2022-12-15	14:52:25	14:58:06	339487	5dcc5fee28e3148e8009491e	707605203	1	main_slash	7	main_slash	125	stimuli_distractor_trianglediamonds.svg	stimuli_target_squaretriangles.svg	11	yes	53	1	793
6.6.1	mac	2022-12-15	14:52:25	14:58:06	339487	5dcc5fee28e3148e8009491e	707605203	1	main_slash	7	advance_on_keypress_SLASH	126	stimuli_distractor_trianglediamonds.svg	stimuli_target_squaretriangles.svg	11	yes	57	0	324
6.6.1	mac	2022-12-15	14:52:25	14:58:08	341279	5dcc5fee28e3148e8009491e	707605203	1	main_slash	7	main_slash	127	stimuli_target_diamondcircles.svg	stimuli_distractor_trianglediamonds.svg	19	yes	53	1	823
6.6.1	mac	2022-12-15	14:52:25	14:58:08	341279	5dcc5fee28e3148e8009491e	707605203	1	main_slash	7	advance_on_keypress_SLASH	128	stimuli_target_diamondcircles.svg	stimuli_distractor_trianglediamonds.svg	19	yes	57	0	465
6.6.1	mac	2022-12-15	14:52:25	14:58:11	344366	5dcc5fee28e3148e8009491e	707605203	1	main_slash	7	main_slash	129	stimuli_target_diamondsquares.svg	stimuli_distractor_trianglediamonds.svg	20	yes	0	0	2000
6.6.1	mac	2022-12-15	14:52:25	14:58:11	344366	5dcc5fee28e3148e8009491e	707605203	1	main_slash	7	advance_on_keypress_SLASH	130	stimuli_target_diamondsquares.svg	stimuli_distractor_trianglediamonds.svg	20	yes	57	0	288
6.6.1	mac	2022-12-15	14:52:25	14:58:14	347289	5dcc5fee28e3148e8009491e	707605203	1	main_slash	7	main_slash	131	stimuli_distractor_trianglediamonds.svg	stimuli_distractor_diamondtriangles.svg	35	no	0	1	2000
6.6.1	mac	2022-12-15	14:52:25	14:58:14	347289	5dcc5fee28e3148e8009491e	707605203	1	main_slash	7	advance_on_keypress_SLASH	132	stimuli_distractor_trianglediamonds.svg	stimuli_distractor_diamondtriangles.svg	35	no	57	0	272
6.6.1	mac	2022-12-15	14:52:25	14:58:15	348867	5dcc5fee28e3148e8009491e	707605203	1	main_slash	7	main_slash	133	stimuli_distractor_diamondtriangles.svg	stimuli_target_circletriangles.svg	13	yes	53	1	668
6.6.1	mac	2022-12-15	14:52:25	14:58:15	348867	5dcc5fee28e3148e8009491e	707605203	1	main_slash	7	advance_on_keypress_SLASH	134	stimuli_distractor_diamondtriangles.svg	stimuli_target_circletriangles.svg	13	yes	57	0	396
6.6.1	mac	2022-12-15	14:52:25	14:58:17	350728	5dcc5fee28e3148e8009491e	707605203	1	main_slash	7	main_slash	135	stimuli_target_trianglecircles.svg	stimuli_distractor_trianglediamonds.svg	17	yes	53	1	818
6.6.1	mac	2022-12-15	14:52:25	14:58:17	350728	5dcc5fee28e3148e8009491e	707605203	1	main_slash	7	advance_on_keypress_SLASH	136	stimuli_target_trianglecircles.svg	stimuli_distractor_trianglediamonds.svg	17	yes	57	0	707
6.6.1	mac	2022-12-15	14:52:25	14:58:21	354067	5dcc5fee28e3148e8009491e	707605203	1	main_slash	7	main_slash	137	stimuli_distractor_trianglediamonds.svg	stimuli_target_trianglesquares.svg	26	yes	0	0	2000
6.6.1	mac	2022-12-15	14:52:25	14:58:21	354067	5dcc5fee28e3148e8009491e	707605203	1	main_slash	7	advance_on_keypress_SLASH	138	stimuli_distractor_trianglediamonds.svg	stimuli_target_trianglesquares.svg	26	yes	57	0	443
6.6.1	mac	2022-12-15	14:52:25	14:58:22	355921	5dcc5fee28e3148e8009491e	707605203	1	main_slash	7	main_slash	139	stimuli_target_circletriangles.svg	stimuli_distractor_diamondtriangles.svg	5	yes	53	1	766
6.6.1	mac	2022-12-15	14:52:25	14:58:22	355921	5dcc5fee28e3148e8009491e	707605203	1	main_slash	7	advance_on_keypress_SLASH	140	stimuli_target_circletriangles.svg	stimuli_distractor_diamondtriangles.svg	5	yes	57	0	375
6.6.1	mac	2022-12-15	14:52:25	14:58:25	358922	5dcc5fee28e3148e8009491e	707605203	1	main_slash	7	main_slash	141	stimuli_distractor_diamondtriangles.svg	stimuli_distractor_trianglediamonds.svg	38	no	0	1	2000
6.6.1	mac	2022-12-15	14:52:25	14:58:25	358922	5dcc5fee28e3148e8009491e	707605203	1	main_slash	7	advance_on_keypress_SLASH	142	stimuli_distractor_diamondtriangles.svg	stimuli_distractor_trianglediamonds.svg	38	no	57	0	246
6.6.1	mac	2022-12-15	14:52:25	14:58:28	361804	5dcc5fee28e3148e8009491e	707605203	1	main_slash	7	main_slash	143	stimuli_target_trianglesquares.svg	stimuli_distractor_diamondtriangles.svg	22	yes	0	0	2000
6.6.1	mac	2022-12-15	14:52:25	14:58:28	361804	5dcc5fee28e3148e8009491e	707605203	1	main_slash	7	advance_on_keypress_SLASH	144	stimuli_target_trianglesquares.svg	stimuli_distractor_diamondtriangles.svg	22	yes	57	0	288
6.6.1	mac	2022-12-15	14:52:25	14:58:30	363546	5dcc5fee28e3148e8009491e	707605203	1	main_slash	7	main_slash	145	stimuli_distractor_diamondtriangles.svg	stimuli_target_trianglecircles.svg	29	yes	53	1	818
6.6.1	mac	2022-12-15	14:52:25	14:58:30	363546	5dcc5fee28e3148e8009491e	707605203	1	main_slash	7	advance_on_keypress_SLASH	146	stimuli_distractor_diamondtriangles.svg	stimuli_target_trianglecircles.svg	29	yes	57	0	466
6.6.1	mac	2022-12-15	14:52:25	14:58:33	366651	5dcc5fee28e3148e8009491e	707605203	1	main_slash	7	main_slash	147	stimuli_distractor_trianglediamonds.svg	stimuli_distractor_diamondtriangles.svg	36	no	0	1	2000
6.6.1	mac	2022-12-15	14:52:25	14:58:33	366651	5dcc5fee28e3148e8009491e	707605203	1	main_slash	7	advance_on_keypress_SLASH	148	stimuli_distractor_trianglediamonds.svg	stimuli_distractor_diamondtriangles.svg	36	no	57	0	275
6.6.1	mac	2022-12-15	14:52:25	14:58:35	368310	5dcc5fee28e3148e8009491e	707605203	1	main_slash	7	main_slash	149	stimuli_distractor_trianglediamonds.svg	stimuli_target_circlediamonds.svg	10	yes	53	1	750
6.6.1	mac	2022-12-15	14:52:25	14:58:35	368310	5dcc5fee28e3148e8009491e	707605203	1	main_slash	7	advance_on_keypress_SLASH	150	stimuli_distractor_trianglediamonds.svg	stimuli_target_circlediamonds.svg	10	yes	57	0	550
6.6.1	mac	2022-12-15	14:52:25	14:58:37	370497	5dcc5fee28e3148e8009491e	707605203	1	main_slash	7	main_slash	151	stimuli_distractor_diamondtriangles.svg	stimuli_target_squaretriangles.svg	15	yes	53	1	992
6.6.1	mac	2022-12-15	14:52:25	14:58:37	370497	5dcc5fee28e3148e8009491e	707605203	1	main_slash	7	advance_on_keypress_SLASH	152	stimuli_distractor_diamondtriangles.svg	stimuli_target_squaretriangles.svg	15	yes	57	0	485
6.6.1	mac	2022-12-15	14:52:25	14:58:39	372389	5dcc5fee28e3148e8009491e	707605203	1	main_slash	7	main_slash	153	stimuli_target_squarediamonds.svg	stimuli_distractor_diamondtriangles.svg	8	yes	53	1	777
6.6.1	mac	2022-12-15	14:52:25	14:58:39	372389	5dcc5fee28e3148e8009491e	707605203	1	main_slash	7	advance_on_keypress_SLASH	154	stimuli_target_squarediamonds.svg	stimuli_distractor_diamondtriangles.svg	8	yes	57	0	361
6.6.1	mac	2022-12-15	14:52:25	14:58:41	374217	5dcc5fee28e3148e8009491e	707605203	1	main_slash	7	main_slash	155	stimuli_target_squarediamonds.svg	stimuli_distractor_trianglediamonds.svg	4	yes	53	1	839
6.6.1	mac	2022-12-15	14:52:25	14:58:41	374217	5dcc5fee28e3148e8009491e	707605203	1	main_slash	7	advance_on_keypress_SLASH	156	stimuli_target_squarediamonds.svg	stimuli_distractor_trianglediamonds.svg	4	yes	57	0	357
6.6.1	mac	2022-12-15	14:52:25	14:58:42	376011	5dcc5fee28e3148e8009491e	707605203	1	main_slash	7	main_slash	157	stimuli_target_circlediamonds.svg	stimuli_distractor_diamondtriangles.svg	6	yes	53	1	807
6.6.1	mac	2022-12-15	14:52:25	14:58:42	376011	5dcc5fee28e3148e8009491e	707605203	1	main_slash	7	advance_on_keypress_SLASH	158	stimuli_target_circlediamonds.svg	stimuli_distractor_diamondtriangles.svg	6	yes	57	0	354
6.6.1	mac	2022-12-15	14:52:25	14:58:45	379004	5dcc5fee28e3148e8009491e	707605203	1	main_slash	7	main_slash	159	stimuli_distractor_diamondtriangles.svg	stimuli_distractor_trianglediamonds.svg	37	no	0	1	2000
6.6.1	mac	2022-12-15	14:52:25	14:58:45	379004	5dcc5fee28e3148e8009491e	707605203	1	main_slash	7	advance_on_keypress_SLASH	160	stimuli_distractor_diamondtriangles.svg	stimuli_distractor_trianglediamonds.svg	37	no	57	0	296
6.6.1	mac	2022-12-15	14:52:25	14:58:59	392422	5dcc5fee28e3148e8009491e	707605203	1	practice_z	9	practice_z	1	stimuli_distractor_trianglediamonds.svg	stimuli_distractor_diamondtriangles.svg	16	no	0	1	2000
6.6.1	mac	2022-12-15	14:52:25	14:58:59	392422	5dcc5fee28e3148e8009491e	707605203	1	practice_z	9	advance_on_keypress_ZEE	2	stimuli_distractor_trianglediamonds.svg	stimuli_distractor_diamondtriangles.svg	16	no	57	0	445
6.6.1	mac	2022-12-15	14:52:25	14:59:02	395062	5dcc5fee28e3148e8009491e	707605203	1	practice_z	9	practice_z	3	stimuli_target_squarediamonds.svg	stimuli_distractor_diamondtriangles.svg	2	yes	44	1	567
6.6.1	mac	2022-12-15	14:52:25	14:59:02	395062	5dcc5fee28e3148e8009491e	707605203	1	practice_z	9	advance_on_keypress_ZEE	4	stimuli_target_squarediamonds.svg	stimuli_distractor_diamondtriangles.svg	2	yes	57	0	439
6.6.1	mac	2022-12-15	14:52:25	14:59:06	399128	5dcc5fee28e3148e8009491e	707605203	1	practice_z	9	practice_z	5	stimuli_distractor_diamondtriangles.svg	stimuli_target_diamondcircles.svg	8	yes	0	0	2000
6.6.1	mac	2022-12-15	14:52:25	14:59:06	399128	5dcc5fee28e3148e8009491e	707605203	1	practice_z	9	advance_on_keypress_ZEE	6	stimuli_distractor_diamondtriangles.svg	stimuli_target_diamondcircles.svg	8	yes	57	0	437
6.6.1	mac	2022-12-15	14:52:25	14:59:10	403199	5dcc5fee28e3148e8009491e	707605203	1	practice_z	9	practice_z	7	stimuli_distractor_diamondtriangles.svg	stimuli_distractor_diamondtriangles.svg	13	no	0	1	2000
6.6.1	mac	2022-12-15	14:52:25	14:59:10	403199	5dcc5fee28e3148e8009491e	707605203	1	practice_z	9	advance_on_keypress_ZEE	8	stimuli_distractor_diamondtriangles.svg	stimuli_distractor_diamondtriangles.svg	13	no	57	0	337
6.6.1	mac	2022-12-15	14:52:25	14:59:14	407155	5dcc5fee28e3148e8009491e	707605203	1	practice_z	9	practice_z	9	stimuli_distractor_diamondtriangles.svg	stimuli_distractor_trianglediamonds.svg	14	no	0	1	2000
6.6.1	mac	2022-12-15	14:52:25	14:59:14	407155	5dcc5fee28e3148e8009491e	707605203	1	practice_z	9	advance_on_keypress_ZEE	10	stimuli_distractor_diamondtriangles.svg	stimuli_distractor_trianglediamonds.svg	14	no	57	0	373
6.6.1	mac	2022-12-15	14:52:25	14:59:16	409871	5dcc5fee28e3148e8009491e	707605203	1	practice_z	9	practice_z	11	stimuli_distractor_diamondtriangles.svg	stimuli_target_trianglecircles.svg	9	yes	44	1	708
6.6.1	mac	2022-12-15	14:52:25	14:59:16	409871	5dcc5fee28e3148e8009491e	707605203	1	practice_z	9	advance_on_keypress_ZEE	12	stimuli_distractor_diamondtriangles.svg	stimuli_target_trianglecircles.svg	9	yes	57	0	851
6.6.1	mac	2022-12-15	14:52:25	14:59:19	413012	5dcc5fee28e3148e8009491e	707605203	1	practice_z	9	practice_z	13	stimuli_distractor_trianglediamonds.svg	stimuli_target_diamondcircles.svg	12	yes	44	1	656
6.6.1	mac	2022-12-15	14:52:25	14:59:19	413012	5dcc5fee28e3148e8009491e	707605203	1	practice_z	9	advance_on_keypress_ZEE	14	stimuli_distractor_trianglediamonds.svg	stimuli_target_diamondcircles.svg	12	yes	57	0	349
6.6.1	mac	2022-12-15	14:52:25	14:59:22	415659	5dcc5fee28e3148e8009491e	707605203	1	practice_z	9	practice_z	15	stimuli_distractor_trianglediamonds.svg	stimuli_target_squarediamonds.svg	11	yes	44	1	658
6.6.1	mac	2022-12-15	14:52:25	14:59:22	415659	5dcc5fee28e3148e8009491e	707605203	1	practice_z	9	advance_on_keypress_ZEE	16	stimuli_distractor_trianglediamonds.svg	stimuli_target_squarediamonds.svg	11	yes	57	0	397
6.6.1	mac	2022-12-15	14:52:25	14:59:26	419684	5dcc5fee28e3148e8009491e	707605203	1	practice_z	9	practice_z	17	stimuli_target_diamondsquares.svg	stimuli_distractor_diamondtriangles.svg	3	yes	0	0	2000
6.6.1	mac	2022-12-15	14:52:25	14:59:26	419684	5dcc5fee28e3148e8009491e	707605203	1	practice_z	9	advance_on_keypress_ZEE	18	stimuli_target_diamondsquares.svg	stimuli_distractor_diamondtriangles.svg	3	yes	57	0	354
6.6.1	mac	2022-12-15	14:52:25	14:59:29	422255	5dcc5fee28e3148e8009491e	707605203	1	practice_z	9	practice_z	19	stimuli_distractor_trianglediamonds.svg	stimuli_target_circlediamonds.svg	10	yes	44	1	582
6.6.1	mac	2022-12-15	14:52:25	14:59:29	422255	5dcc5fee28e3148e8009491e	707605203	1	practice_z	9	advance_on_keypress_ZEE	20	stimuli_distractor_trianglediamonds.svg	stimuli_target_circlediamonds.svg	10	yes	57	0	327
6.6.1	mac	2022-12-15	14:52:25	14:59:31	424726	5dcc5fee28e3148e8009491e	707605203	1	practice_z	9	practice_z	21	stimuli_target_circlediamonds.svg	stimuli_distractor_trianglediamonds.svg	4	yes	44	1	495
6.6.1	mac	2022-12-15	14:52:25	14:59:31	424726	5dcc5fee28e3148e8009491e	707605203	1	practice_z	9	advance_on_keypress_ZEE	22	stimuli_target_circlediamonds.svg	stimuli_distractor_trianglediamonds.svg	4	yes	57	0	391
6.6.1	mac	2022-12-15	14:52:25	14:59:34	427279	5dcc5fee28e3148e8009491e	707605203	1	practice_z	9	practice_z	23	stimuli_target_circlediamonds.svg	stimuli_distractor_diamondtriangles.svg	1	yes	44	1	542
6.6.1	mac	2022-12-15	14:52:25	14:59:34	427279	5dcc5fee28e3148e8009491e	707605203	1	practice_z	9	advance_on_keypress_ZEE	24	stimuli_target_circlediamonds.svg	stimuli_distractor_diamondtriangles.svg	1	yes	57	0	392
6.6.1	mac	2022-12-15	14:52:25	14:59:38	431305	5dcc5fee28e3148e8009491e	707605203	1	practice_z	9	practice_z	25	stimuli_distractor_trianglediamonds.svg	stimuli_distractor_trianglediamonds.svg	15	no	0	1	2000
6.6.1	mac	2022-12-15	14:52:25	14:59:38	431305	5dcc5fee28e3148e8009491e	707605203	1	practice_z	9	advance_on_keypress_ZEE	26	stimuli_distractor_trianglediamonds.svg	stimuli_distractor_trianglediamonds.svg	15	no	57	0	342
6.6.1	mac	2022-12-15	14:52:25	14:59:42	435278	5dcc5fee28e3148e8009491e	707605203	1	practice_z	9	practice_z	27	stimuli_target_diamondsquares.svg	stimuli_distractor_trianglediamonds.svg	6	yes	0	0	2000
6.6.1	mac	2022-12-15	14:52:25	14:59:42	435278	5dcc5fee28e3148e8009491e	707605203	1	practice_z	9	advance_on_keypress_ZEE	28	stimuli_target_diamondsquares.svg	stimuli_distractor_trianglediamonds.svg	6	yes	57	0	373
6.6.1	mac	2022-12-15	14:52:25	14:59:44	437869	5dcc5fee28e3148e8009491e	707605203	1	practice_z	9	practice_z	29	stimuli_target_squarediamonds.svg	stimuli_distractor_trianglediamonds.svg	5	yes	44	1	579
6.6.1	mac	2022-12-15	14:52:25	14:59:44	437869	5dcc5fee28e3148e8009491e	707605203	1	practice_z	9	advance_on_keypress_ZEE	30	stimuli_target_squarediamonds.svg	stimuli_distractor_trianglediamonds.svg	5	yes	57	0	341
6.6.1	mac	2022-12-15	14:52:25	14:59:47	440385	5dcc5fee28e3148e8009491e	707605203	1	practice_z	9	practice_z	31	stimuli_distractor_diamondtriangles.svg	stimuli_target_circletriangles.svg	7	yes	44	1	536
6.6.1	mac	2022-12-15	14:52:25	14:59:47	440385	5dcc5fee28e3148e8009491e	707605203	1	practice_z	9	advance_on_keypress_ZEE	32	stimuli_distractor_diamondtriangles.svg	stimuli_target_circletriangles.svg	7	yes	57	0	365
6.6.1	mac	2022-12-15	14:52:25	14:59:50	443625	5dcc5fee28e3148e8009491e	707605203	1	main_z	11	main_z	1	stimuli_target_trianglecircles.svg	stimuli_distractor_trianglediamonds.svg	17	yes	44	1	562
6.6.1	mac	2022-12-15	14:52:25	14:59:50	443625	5dcc5fee28e3148e8009491e	707605203	1	main_z	11	advance_on_keypress_ZEE	2	stimuli_target_trianglecircles.svg	stimuli_distractor_trianglediamonds.svg	17	yes	57	0	1146
6.6.1	mac	2022-12-15	14:52:25	14:59:52	446040	5dcc5fee28e3148e8009491e	707605203	1	main_z	11	main_z	3	stimuli_distractor_diamondtriangles.svg	stimuli_target_circletriangles.svg	13	yes	44	1	631
6.6.1	mac	2022-12-15	14:52:25	14:59:52	446040	5dcc5fee28e3148e8009491e	707605203	1	main_z	11	advance_on_keypress_ZEE	4	stimuli_distractor_diamondtriangles.svg	stimuli_target_circletriangles.svg	13	yes	57	0	350
6.6.1	mac	2022-12-15	14:52:25	14:59:54	447771	5dcc5fee28e3148e8009491e	707605203	1	main_z	11	main_z	5	stimuli_target_diamondcircles.svg	stimuli_distractor_trianglediamonds.svg	19	yes	44	1	751
6.6.1	mac	2022-12-15	14:52:25	14:59:54	447771	5dcc5fee28e3148e8009491e	707605203	1	main_z	11	advance_on_keypress_ZEE	6	stimuli_target_diamondcircles.svg	stimuli_distractor_trianglediamonds.svg	19	yes	57	0	263
6.6.1	mac	2022-12-15	14:52:25	14:59:57	450661	5dcc5fee28e3148e8009491e	707605203	1	main_z	11	main_z	7	stimuli_target_trianglesquares.svg	stimuli_distractor_trianglediamonds.svg	18	yes	0	0	2000
6.6.1	mac	2022-12-15	14:52:25	14:59:57	450661	5dcc5fee28e3148e8009491e	707605203	1	main_z	11	advance_on_keypress_ZEE	8	stimuli_target_trianglesquares.svg	stimuli_distractor_trianglediamonds.svg	18	yes	57	0	347
6.6.1	mac	2022-12-15	14:52:25	15:00:00	453627	5dcc5fee28e3148e8009491e	707605203	1	main_z	11	main_z	9	stimuli_distractor_diamondtriangles.svg	stimuli_distractor_diamondtriangles.svg	40	no	0	1	2000
6.6.1	mac	2022-12-15	14:52:25	15:00:00	453627	5dcc5fee28e3148e8009491e	707605203	1	main_z	11	advance_on_keypress_ZEE	10	stimuli_distractor_diamondtriangles.svg	stimuli_distractor_diamondtriangles.svg	40	no	57	0	267
6.6.1	mac	2022-12-15	14:52:25	15:00:03	456525	5dcc5fee28e3148e8009491e	707605203	1	main_z	11	main_z	11	stimuli_distractor_trianglediamonds.svg	stimuli_target_diamondsquares.svg	28	yes	0	0	2000
6.6.1	mac	2022-12-15	14:52:25	15:00:03	456525	5dcc5fee28e3148e8009491e	707605203	1	main_z	11	advance_on_keypress_ZEE	12	stimuli_distractor_trianglediamonds.svg	stimuli_target_diamondsquares.svg	28	yes	57	0	262
6.6.1	mac	2022-12-15	14:52:25	15:00:05	458516	5dcc5fee28e3148e8009491e	707605203	1	main_z	11	main_z	13	stimuli_distractor_trianglediamonds.svg	stimuli_distractor_diamondtriangles.svg	36	no	44	0	1090
6.6.1	mac	2022-12-15	14:52:25	15:00:05	458516	5dcc5fee28e3148e8009491e	707605203	1	main_z	11	advance_on_keypress_ZEE	14	stimuli_distractor_trianglediamonds.svg	stimuli_distractor_diamondtriangles.svg	36	no	57	0	326
6.6.1	mac	2022-12-15	14:52:25	15:00:08	461481	5dcc5fee28e3148e8009491e	707605203	1	main_z	11	main_z	15	stimuli_target_diamondsquares.svg	stimuli_distractor_trianglediamonds.svg	20	yes	0	0	2000
6.6.1	mac	2022-12-15	14:52:25	15:00:08	461481	5dcc5fee28e3148e8009491e	707605203	1	main_z	11	advance_on_keypress_ZEE	16	stimuli_target_diamondsquares.svg	stimuli_distractor_trianglediamonds.svg	20	yes	57	0	258
6.6.1	mac	2022-12-15	14:52:25	15:00:09	462834	5dcc5fee28e3148e8009491e	707605203	1	main_z	11	main_z	17	stimuli_target_circletriangles.svg	stimuli_distractor_diamondtriangles.svg	5	yes	44	1	452
6.6.1	mac	2022-12-15	14:52:25	15:00:09	462834	5dcc5fee28e3148e8009491e	707605203	1	main_z	11	advance_on_keypress_ZEE	18	stimuli_target_circletriangles.svg	stimuli_distractor_diamondtriangles.svg	5	yes	57	0	561
6.6.1	mac	2022-12-15	14:52:25	15:00:11	464629	5dcc5fee28e3148e8009491e	707605203	1	main_z	11	main_z	19	stimuli_target_squaretriangles.svg	stimuli_distractor_trianglediamonds.svg	3	yes	44	1	615
6.6.1	mac	2022-12-15	14:52:25	15:00:11	464629	5dcc5fee28e3148e8009491e	707605203	1	main_z	11	advance_on_keypress_ZEE	20	stimuli_target_squaretriangles.svg	stimuli_distractor_trianglediamonds.svg	3	yes	57	0	352
6.6.1	mac	2022-12-15	14:52:25	15:00:13	466393	5dcc5fee28e3148e8009491e	707605203	1	main_z	11	main_z	21	stimuli_target_diamondsquares.svg	stimuli_distractor_diamondtriangles.svg	24	yes	44	1	785
6.6.1	mac	2022-12-15	14:52:25	15:00:13	466393	5dcc5fee28e3148e8009491e	707605203	1	main_z	11	advance_on_keypress_ZEE	22	stimuli_target_diamondsquares.svg	stimuli_distractor_diamondtriangles.svg	24	yes	57	0	335
6.6.1	mac	2022-12-15	14:52:25	15:00:16	469368	5dcc5fee28e3148e8009491e	707605203	1	main_z	11	main_z	23	stimuli_distractor_trianglediamonds.svg	stimuli_target_trianglesquares.svg	26	yes	0	0	2000
6.6.1	mac	2022-12-15	14:52:25	15:00:16	469368	5dcc5fee28e3148e8009491e	707605203	1	main_z	11	advance_on_keypress_ZEE	24	stimuli_distractor_trianglediamonds.svg	stimuli_target_trianglesquares.svg	26	yes	57	0	333
6.6.1	mac	2022-12-15	14:52:25	15:00:17	471017	5dcc5fee28e3148e8009491e	707605203	1	main_z	11	main_z	25	stimuli_distractor_diamondtriangles.svg	stimuli_target_trianglecircles.svg	29	yes	44	1	693
6.6.1	mac	2022-12-15	14:52:25	15:00:17	471017	5dcc5fee28e3148e8009491e	707605203	1	main_z	11	advance_on_keypress_ZEE	26	stimuli_distractor_diamondtriangles.svg	stimuli_target_trianglecircles.svg	29	yes	57	0	335
6.6.1	mac	2022-12-15	14:52:25	15:00:19	472716	5dcc5fee28e3148e8009491e	707605203	1	main_z	11	main_z	27	stimuli_distractor_trianglediamonds.svg	stimuli_target_squarediamonds.svg	12	yes	44	1	735
6.6.1	mac	2022-12-15	14:52:25	15:00:19	472716	5dcc5fee28e3148e8009491e	707605203	1	main_z	11	advance_on_keypress_ZEE	28	stimuli_distractor_trianglediamonds.svg	stimuli_target_squarediamonds.svg	12	yes	57	0	518
6.6.1	mac	2022-12-15	14:52:25	15:00:21	474738	5dcc5fee28e3148e8009491e	707605203	1	main_z	11	main_z	29	stimuli_distractor_diamondtriangles.svg	stimuli_distractor_diamondtriangles.svg	39	no	44	0	873
6.6.1	mac	2022-12-15	14:52:25	15:00:21	474738	5dcc5fee28e3148e8009491e	707605203	1	main_z	11	advance_on_keypress_ZEE	30	stimuli_distractor_diamondtriangles.svg	stimuli_distractor_diamondtriangles.svg	39	no	57	0	212
6.6.1	mac	2022-12-15	14:52:25	15:00:23	476212	5dcc5fee28e3148e8009491e	707605203	1	main_z	11	main_z	31	stimuli_distractor_trianglediamonds.svg	stimuli_target_circletriangles.svg	9	yes	44	1	623
6.6.1	mac	2022-12-15	14:52:25	15:00:23	476212	5dcc5fee28e3148e8009491e	707605203	1	main_z	11	advance_on_keypress_ZEE	32	stimuli_distractor_trianglediamonds.svg	stimuli_target_circletriangles.svg	9	yes	57	0	307
6.6.1	mac	2022-12-15	14:52:25	15:00:25	478581	5dcc5fee28e3148e8009491e	707605203	1	main_z	11	main_z	33	stimuli_distractor_diamondtriangles.svg	stimuli_target_squaretriangles.svg	15	yes	44	1	1430
6.6.1	mac	2022-12-15	14:52:25	15:00:25	478581	5dcc5fee28e3148e8009491e	707605203	1	main_z	11	advance_on_keypress_ZEE	34	stimuli_distractor_diamondtriangles.svg	stimuli_target_squaretriangles.svg	15	yes	57	0	271
6.6.1	mac	2022-12-15	14:52:25	15:00:27	480542	5dcc5fee28e3148e8009491e	707605203	1	main_z	11	main_z	35	stimuli_distractor_diamondtriangles.svg	stimuli_target_diamondcircles.svg	31	yes	44	1	1064
6.6.1	mac	2022-12-15	14:52:25	15:00:27	480542	5dcc5fee28e3148e8009491e	707605203	1	main_z	11	advance_on_keypress_ZEE	36	stimuli_distractor_diamondtriangles.svg	stimuli_target_diamondcircles.svg	31	yes	57	0	234
6.6.1	mac	2022-12-15	14:52:25	15:00:30	483402	5dcc5fee28e3148e8009491e	707605203	1	main_z	11	main_z	37	stimuli_distractor_trianglediamonds.svg	stimuli_distractor_trianglediamonds.svg	34	no	0	1	2000
6.6.1	mac	2022-12-15	14:52:25	15:00:30	483402	5dcc5fee28e3148e8009491e	707605203	1	main_z	11	advance_on_keypress_ZEE	38	stimuli_distractor_trianglediamonds.svg	stimuli_distractor_trianglediamonds.svg	34	no	57	0	868
6.6.1	mac	2022-12-15	14:52:25	15:00:33	486906	5dcc5fee28e3148e8009491e	707605203	1	main_z	11	main_z	39	stimuli_distractor_diamondtriangles.svg	stimuli_target_diamondsquares.svg	32	yes	0	0	2000
6.6.1	mac	2022-12-15	14:52:25	15:00:33	486906	5dcc5fee28e3148e8009491e	707605203	1	main_z	11	advance_on_keypress_ZEE	40	stimuli_distractor_diamondtriangles.svg	stimuli_target_diamondsquares.svg	32	yes	57	0	509
6.6.1	mac	2022-12-15	14:52:25	15:00:35	488838	5dcc5fee28e3148e8009491e	707605203	1	main_z	11	main_z	41	stimuli_distractor_trianglediamonds.svg	stimuli_distractor_diamondtriangles.svg	35	no	44	0	778
6.6.1	mac	2022-12-15	14:52:25	15:00:35	488838	5dcc5fee28e3148e8009491e	707605203	1	main_z	11	advance_on_keypress_ZEE	42	stimuli_distractor_trianglediamonds.svg	stimuli_distractor_diamondtriangles.svg	35	no	57	0	193
6.6.1	mac	2022-12-15	14:52:25	15:00:38	491666	5dcc5fee28e3148e8009491e	707605203	1	main_z	11	main_z	43	stimuli_target_trianglesquares.svg	stimuli_distractor_diamondtriangles.svg	22	yes	0	0	2000
6.6.1	mac	2022-12-15	14:52:25	15:00:38	491666	5dcc5fee28e3148e8009491e	707605203	1	main_z	11	advance_on_keypress_ZEE	44	stimuli_target_trianglesquares.svg	stimuli_distractor_diamondtriangles.svg	22	yes	57	0	50
6.6.1	mac	2022-12-15	14:52:25	15:00:39	492901	5dcc5fee28e3148e8009491e	707605203	1	main_z	11	main_z	45	stimuli_target_circletriangles.svg	stimuli_distractor_trianglediamonds.svg	1	yes	44	1	568
6.6.1	mac	2022-12-15	14:52:25	15:00:39	492901	5dcc5fee28e3148e8009491e	707605203	1	main_z	11	advance_on_keypress_ZEE	46	stimuli_target_circletriangles.svg	stimuli_distractor_trianglediamonds.svg	1	yes	57	0	251
6.6.1	mac	2022-12-15	14:52:25	15:00:41	494704	5dcc5fee28e3148e8009491e	707605203	1	main_z	11	main_z	47	stimuli_distractor_trianglediamonds.svg	stimuli_target_circlediamonds.svg	10	yes	44	1	909
6.6.1	mac	2022-12-15	14:52:25	15:00:41	494704	5dcc5fee28e3148e8009491e	707605203	1	main_z	11	advance_on_keypress_ZEE	48	stimuli_distractor_trianglediamonds.svg	stimuli_target_circlediamonds.svg	10	yes	57	0	237
6.6.1	mac	2022-12-15	14:52:25	15:00:43	496274	5dcc5fee28e3148e8009491e	707605203	1	main_z	11	main_z	49	stimuli_distractor_trianglediamonds.svg	stimuli_target_trianglecircles.svg	25	yes	44	1	705
6.6.1	mac	2022-12-15	14:52:25	15:00:43	496274	5dcc5fee28e3148e8009491e	707605203	1	main_z	11	advance_on_keypress_ZEE	50	stimuli_distractor_trianglediamonds.svg	stimuli_target_trianglecircles.svg	25	yes	57	0	232
6.6.1	mac	2022-12-15	14:52:25	15:00:46	499137	5dcc5fee28e3148e8009491e	707605203	1	main_z	11	main_z	51	stimuli_distractor_diamondtriangles.svg	stimuli_target_trianglesquares.svg	30	yes	0	0	2000
6.6.1	mac	2022-12-15	14:52:25	15:00:46	499137	5dcc5fee28e3148e8009491e	707605203	1	main_z	11	advance_on_keypress_ZEE	52	stimuli_distractor_diamondtriangles.svg	stimuli_target_trianglesquares.svg	30	yes	57	0	317
6.6.1	mac	2022-12-15	14:52:25	15:00:47	500596	5dcc5fee28e3148e8009491e	707605203	1	main_z	11	main_z	53	stimuli_target_squarediamonds.svg	stimuli_distractor_diamondtriangles.svg	8	yes	44	1	522
6.6.1	mac	2022-12-15	14:52:25	15:00:47	500596	5dcc5fee28e3148e8009491e	707605203	1	main_z	11	advance_on_keypress_ZEE	54	stimuli_target_squarediamonds.svg	stimuli_distractor_diamondtriangles.svg	8	yes	57	0	193
6.6.1	mac	2022-12-15	14:52:25	15:00:49	502147	5dcc5fee28e3148e8009491e	707605203	1	main_z	11	main_z	55	stimuli_distractor_trianglediamonds.svg	stimuli_target_diamondcircles.svg	27	yes	44	1	714
6.6.1	mac	2022-12-15	14:52:25	15:00:49	502147	5dcc5fee28e3148e8009491e	707605203	1	main_z	11	advance_on_keypress_ZEE	56	stimuli_distractor_trianglediamonds.svg	stimuli_target_diamondcircles.svg	27	yes	57	0	351
6.6.1	mac	2022-12-15	14:52:25	15:00:50	503634	5dcc5fee28e3148e8009491e	707605203	1	main_z	11	main_z	57	stimuli_target_trianglecircles.svg	stimuli_distractor_diamondtriangles.svg	21	yes	44	1	505
6.6.1	mac	2022-12-15	14:52:25	15:00:50	503634	5dcc5fee28e3148e8009491e	707605203	1	main_z	11	advance_on_keypress_ZEE	58	stimuli_target_trianglecircles.svg	stimuli_distractor_diamondtriangles.svg	21	yes	57	0	198
6.6.1	mac	2022-12-15	14:52:25	15:00:51	504960	5dcc5fee28e3148e8009491e	707605203	1	main_z	11	main_z	59	stimuli_distractor_diamondtriangles.svg	stimuli_target_circlediamonds.svg	14	yes	44	1	495
6.6.1	mac	2022-12-15	14:52:25	15:00:51	504960	5dcc5fee28e3148e8009491e	707605203	1	main_z	11	advance_on_keypress_ZEE	60	stimuli_distractor_diamondtriangles.svg	stimuli_target_circlediamonds.svg	14	yes	57	0	170
6.6.1	mac	2022-12-15	14:52:25	15:00:53	506368	5dcc5fee28e3148e8009491e	707605203	1	main_z	11	main_z	61	stimuli_distractor_diamondtriangles.svg	stimuli_target_squarediamonds.svg	16	yes	44	1	612
6.6.1	mac	2022-12-15	14:52:25	15:00:53	506368	5dcc5fee28e3148e8009491e	707605203	1	main_z	11	advance_on_keypress_ZEE	62	stimuli_distractor_diamondtriangles.svg	stimuli_target_squarediamonds.svg	16	yes	57	0	209
6.6.1	mac	2022-12-15	14:52:25	15:00:54	507815	5dcc5fee28e3148e8009491e	707605203	1	main_z	11	main_z	63	stimuli_target_diamondcircles.svg	stimuli_distractor_diamondtriangles.svg	23	yes	44	1	601
6.6.1	mac	2022-12-15	14:52:25	15:00:54	507815	5dcc5fee28e3148e8009491e	707605203	1	main_z	11	advance_on_keypress_ZEE	64	stimuli_target_diamondcircles.svg	stimuli_distractor_diamondtriangles.svg	23	yes	57	0	180
6.6.1	mac	2022-12-15	14:52:25	15:00:57	510638	5dcc5fee28e3148e8009491e	707605203	1	main_z	11	main_z	65	stimuli_distractor_diamondtriangles.svg	stimuli_distractor_trianglediamonds.svg	38	no	0	1	2000
6.6.1	mac	2022-12-15	14:52:25	15:00:57	510638	5dcc5fee28e3148e8009491e	707605203	1	main_z	11	advance_on_keypress_ZEE	66	stimuli_distractor_diamondtriangles.svg	stimuli_distractor_trianglediamonds.svg	38	no	57	0	270
6.6.1	mac	2022-12-15	14:52:25	15:00:59	512865	5dcc5fee28e3148e8009491e	707605203	1	main_z	11	main_z	67	stimuli_distractor_trianglediamonds.svg	stimuli_distractor_trianglediamonds.svg	33	no	44	0	1320
6.6.1	mac	2022-12-15	14:52:25	15:00:59	512865	5dcc5fee28e3148e8009491e	707605203	1	main_z	11	advance_on_keypress_ZEE	68	stimuli_distractor_trianglediamonds.svg	stimuli_distractor_trianglediamonds.svg	33	no	57	0	222
6.6.1	mac	2022-12-15	14:52:25	15:01:01	514312	5dcc5fee28e3148e8009491e	707605203	1	main_z	11	main_z	69	stimuli_target_squaretriangles.svg	stimuli_distractor_diamondtriangles.svg	7	yes	44	1	599
6.6.1	mac	2022-12-15	14:52:25	15:01:01	514312	5dcc5fee28e3148e8009491e	707605203	1	main_z	11	advance_on_keypress_ZEE	70	stimuli_target_squaretriangles.svg	stimuli_distractor_diamondtriangles.svg	7	yes	57	0	163
6.6.1	mac	2022-12-15	14:52:25	15:01:02	515502	5dcc5fee28e3148e8009491e	707605203	1	main_z	11	main_z	71	stimuli_target_circlediamonds.svg	stimuli_distractor_diamondtriangles.svg	6	yes	44	1	398
6.6.1	mac	2022-12-15	14:52:25	15:01:02	515502	5dcc5fee28e3148e8009491e	707605203	1	main_z	11	advance_on_keypress_ZEE	72	stimuli_target_circlediamonds.svg	stimuli_distractor_diamondtriangles.svg	6	yes	57	0	164
6.6.1	mac	2022-12-15	14:52:25	15:01:03	516651	5dcc5fee28e3148e8009491e	707605203	1	main_z	11	main_z	73	stimuli_target_circlediamonds.svg	stimuli_distractor_trianglediamonds.svg	2	yes	44	1	355
6.6.1	mac	2022-12-15	14:52:25	15:01:03	516651	5dcc5fee28e3148e8009491e	707605203	1	main_z	11	advance_on_keypress_ZEE	74	stimuli_target_circlediamonds.svg	stimuli_distractor_trianglediamonds.svg	2	yes	57	0	120
6.6.1	mac	2022-12-15	14:52:25	15:01:04	517781	5dcc5fee28e3148e8009491e	707605203	1	main_z	11	main_z	75	stimuli_target_squarediamonds.svg	stimuli_distractor_trianglediamonds.svg	4	yes	44	1	378
6.6.1	mac	2022-12-15	14:52:25	15:01:04	517781	5dcc5fee28e3148e8009491e	707605203	1	main_z	11	advance_on_keypress_ZEE	76	stimuli_target_squarediamonds.svg	stimuli_distractor_trianglediamonds.svg	4	yes	57	0	87
6.6.1	mac	2022-12-15	14:52:25	15:01:07	520503	5dcc5fee28e3148e8009491e	707605203	1	main_z	11	main_z	77	stimuli_distractor_diamondtriangles.svg	stimuli_distractor_trianglediamonds.svg	37	no	0	1	2000
6.6.1	mac	2022-12-15	14:52:25	15:01:07	520503	5dcc5fee28e3148e8009491e	707605203	1	main_z	11	advance_on_keypress_ZEE	78	stimuli_distractor_diamondtriangles.svg	stimuli_distractor_trianglediamonds.svg	37	no	57	0	520
6.6.1	mac	2022-12-15	14:52:25	15:01:09	522180	5dcc5fee28e3148e8009491e	707605203	1	main_z	11	main_z	79	stimuli_distractor_trianglediamonds.svg	stimuli_target_squaretriangles.svg	11	yes	44	1	519
6.6.1	mac	2022-12-15	14:52:25	15:01:09	522180	5dcc5fee28e3148e8009491e	707605203	1	main_z	11	advance_on_keypress_ZEE	80	stimuli_distractor_trianglediamonds.svg	stimuli_target_squaretriangles.svg	11	yes	57	0	142
6.6.1	mac	2022-12-15	14:52:25	15:01:10	523390	5dcc5fee28e3148e8009491e	707605203	1	main_z	11	main_z	81	stimuli_target_squarediamonds.svg	stimuli_distractor_trianglediamonds.svg	4	yes	44	1	441
6.6.1	mac	2022-12-15	14:52:25	15:01:10	523390	5dcc5fee28e3148e8009491e	707605203	1	main_z	11	advance_on_keypress_ZEE	82	stimuli_target_squarediamonds.svg	stimuli_distractor_trianglediamonds.svg	4	yes	57	0	113
6.6.1	mac	2022-12-15	14:52:25	15:01:11	524518	5dcc5fee28e3148e8009491e	707605203	1	main_z	11	main_z	83	stimuli_target_trianglesquares.svg	stimuli_distractor_trianglediamonds.svg	18	yes	44	1	377
6.6.1	mac	2022-12-15	14:52:25	15:01:11	524518	5dcc5fee28e3148e8009491e	707605203	1	main_z	11	advance_on_keypress_ZEE	84	stimuli_target_trianglesquares.svg	stimuli_distractor_trianglediamonds.svg	18	yes	57	0	1055
6.6.1	mac	2022-12-15	14:52:25	15:01:13	526810	5dcc5fee28e3148e8009491e	707605203	1	main_z	11	main_z	85	stimuli_distractor_trianglediamonds.svg	stimuli_target_trianglecircles.svg	25	yes	44	1	617
6.6.1	mac	2022-12-15	14:52:25	15:01:13	526810	5dcc5fee28e3148e8009491e	707605203	1	main_z	11	advance_on_keypress_ZEE	86	stimuli_distractor_trianglediamonds.svg	stimuli_target_trianglecircles.svg	25	yes	57	0	186
6.6.1	mac	2022-12-15	14:52:25	15:01:15	528178	5dcc5fee28e3148e8009491e	707605203	1	main_z	11	main_z	87	stimuli_target_trianglecircles.svg	stimuli_distractor_trianglediamonds.svg	17	yes	44	1	554
6.6.1	mac	2022-12-15	14:52:25	15:01:15	528178	5dcc5fee28e3148e8009491e	707605203	1	main_z	11	advance_on_keypress_ZEE	88	stimuli_target_trianglecircles.svg	stimuli_distractor_trianglediamonds.svg	17	yes	57	0	150
6.6.1	mac	2022-12-15	14:52:25	15:01:16	529513	5dcc5fee28e3148e8009491e	707605203	1	main_z	11	main_z	89	stimuli_target_squaretriangles.svg	stimuli_distractor_diamondtriangles.svg	7	yes	44	1	540
6.6.1	mac	2022-12-15	14:52:25	15:01:16	529513	5dcc5fee28e3148e8009491e	707605203	1	main_z	11	advance_on_keypress_ZEE	90	stimuli_target_squaretriangles.svg	stimuli_distractor_diamondtriangles.svg	7	yes	57	0	151
6.6.1	mac	2022-12-15	14:52:25	15:01:17	530925	5dcc5fee28e3148e8009491e	707605203	1	main_z	11	main_z	91	stimuli_distractor_diamondtriangles.svg	stimuli_target_circlediamonds.svg	14	yes	44	1	630
6.6.1	mac	2022-12-15	14:52:25	15:01:17	530925	5dcc5fee28e3148e8009491e	707605203	1	main_z	11	advance_on_keypress_ZEE	92	stimuli_distractor_diamondtriangles.svg	stimuli_target_circlediamonds.svg	14	yes	57	0	103
6.6.1	mac	2022-12-15	14:52:25	15:01:19	532053	5dcc5fee28e3148e8009491e	707605203	1	main_z	11	main_z	93	stimuli_target_circlediamonds.svg	stimuli_distractor_trianglediamonds.svg	2	yes	44	1	388
6.6.1	mac	2022-12-15	14:52:25	15:01:19	532053	5dcc5fee28e3148e8009491e	707605203	1	main_z	11	advance_on_keypress_ZEE	94	stimuli_target_circlediamonds.svg	stimuli_distractor_trianglediamonds.svg	2	yes	57	0	154
6.6.1	mac	2022-12-15	14:52:25	15:01:20	533578	5dcc5fee28e3148e8009491e	707605203	1	main_z	11	main_z	95	stimuli_target_diamondsquares.svg	stimuli_distractor_diamondtriangles.svg	24	yes	44	1	736
6.6.1	mac	2022-12-15	14:52:25	15:01:20	533578	5dcc5fee28e3148e8009491e	707605203	1	main_z	11	advance_on_keypress_ZEE	96	stimuli_target_diamondsquares.svg	stimuli_distractor_diamondtriangles.svg	24	yes	57	0	147
6.6.1	mac	2022-12-15	14:52:25	15:01:21	534981	5dcc5fee28e3148e8009491e	707605203	1	main_z	11	main_z	97	stimuli_distractor_trianglediamonds.svg	stimuli_target_trianglesquares.svg	26	yes	44	1	626
6.6.1	mac	2022-12-15	14:52:25	15:01:21	534981	5dcc5fee28e3148e8009491e	707605203	1	main_z	11	advance_on_keypress_ZEE	98	stimuli_distractor_trianglediamonds.svg	stimuli_target_trianglesquares.svg	26	yes	57	0	690
6.6.1	mac	2022-12-15	14:52:25	15:01:23	536729	5dcc5fee28e3148e8009491e	707605203	1	main_z	11	main_z	99	stimuli_target_circletriangles.svg	stimuli_distractor_diamondtriangles.svg	5	yes	44	1	429
6.6.1	mac	2022-12-15	14:52:25	15:01:23	536729	5dcc5fee28e3148e8009491e	707605203	1	main_z	11	advance_on_keypress_ZEE	100	stimuli_target_circletriangles.svg	stimuli_distractor_diamondtriangles.svg	5	yes	57	0	134
6.6.1	mac	2022-12-15	14:52:25	15:01:25	538243	5dcc5fee28e3148e8009491e	707605203	1	main_z	11	main_z	101	stimuli_target_diamondcircles.svg	stimuli_distractor_trianglediamonds.svg	19	yes	44	1	756
6.6.1	mac	2022-12-15	14:52:25	15:01:25	538243	5dcc5fee28e3148e8009491e	707605203	1	main_z	11	advance_on_keypress_ZEE	102	stimuli_target_diamondcircles.svg	stimuli_distractor_trianglediamonds.svg	19	yes	57	0	133
6.6.1	mac	2022-12-15	14:52:25	15:01:27	540999	5dcc5fee28e3148e8009491e	707605203	1	main_z	11	main_z	103	stimuli_distractor_trianglediamonds.svg	stimuli_target_diamondsquares.svg	28	yes	0	0	2000
6.6.1	mac	2022-12-15	14:52:25	15:01:27	540999	5dcc5fee28e3148e8009491e	707605203	1	main_z	11	advance_on_keypress_ZEE	104	stimuli_distractor_trianglediamonds.svg	stimuli_target_diamondsquares.svg	28	yes	57	0	437
6.6.1	mac	2022-12-15	14:52:25	15:01:31	544065	5dcc5fee28e3148e8009491e	707605203	1	main_z	11	main_z	105	stimuli_distractor_diamondtriangles.svg	stimuli_distractor_trianglediamonds.svg	37	no	0	1	2000
6.6.1	mac	2022-12-15	14:52:25	15:01:31	544065	5dcc5fee28e3148e8009491e	707605203	1	main_z	11	advance_on_keypress_ZEE	106	stimuli_distractor_diamondtriangles.svg	stimuli_distractor_trianglediamonds.svg	37	no	57	0	318
6.6.1	mac	2022-12-15	14:52:25	15:01:33	547003	5dcc5fee28e3148e8009491e	707605203	1	main_z	11	main_z	107	stimuli_distractor_diamondtriangles.svg	stimuli_distractor_diamondtriangles.svg	39	no	0	1	2000
6.6.1	mac	2022-12-15	14:52:25	15:01:33	547003	5dcc5fee28e3148e8009491e	707605203	1	main_z	11	advance_on_keypress_ZEE	108	stimuli_distractor_diamondtriangles.svg	stimuli_distractor_diamondtriangles.svg	39	no	57	0	273
6.6.1	mac	2022-12-15	14:52:25	15:01:35	548385	5dcc5fee28e3148e8009491e	707605203	1	main_z	11	main_z	109	stimuli_distractor_diamondtriangles.svg	stimuli_target_trianglecircles.svg	29	yes	44	1	489
6.6.1	mac	2022-12-15	14:52:25	15:01:35	548385	5dcc5fee28e3148e8009491e	707605203	1	main_z	11	advance_on_keypress_ZEE	110	stimuli_distractor_diamondtriangles.svg	stimuli_target_trianglecircles.svg	29	yes	57	0	102
6.6.1	mac	2022-12-15	14:52:25	15:01:37	550076	5dcc5fee28e3148e8009491e	707605203	1	main_z	11	main_z	111	stimuli_distractor_diamondtriangles.svg	stimuli_target_squaretriangles.svg	15	yes	44	1	963
6.6.1	mac	2022-12-15	14:52:25	15:01:37	550076	5dcc5fee28e3148e8009491e	707605203	1	main_z	11	advance_on_keypress_ZEE	112	stimuli_distractor_diamondtriangles.svg	stimuli_target_squaretriangles.svg	15	yes	57	0	88
6.6.1	mac	2022-12-15	14:52:25	15:01:38	551240	5dcc5fee28e3148e8009491e	707605203	1	main_z	11	main_z	113	stimuli_distractor_trianglediamonds.svg	stimuli_target_squarediamonds.svg	12	yes	44	1	455
6.6.1	mac	2022-12-15	14:52:25	15:01:38	551240	5dcc5fee28e3148e8009491e	707605203	1	main_z	11	advance_on_keypress_ZEE	114	stimuli_distractor_trianglediamonds.svg	stimuli_target_squarediamonds.svg	12	yes	57	0	93
6.6.1	mac	2022-12-15	14:52:25	15:01:39	552337	5dcc5fee28e3148e8009491e	707605203	1	main_z	11	main_z	115	stimuli_distractor_trianglediamonds.svg	stimuli_target_circlediamonds.svg	10	yes	44	1	368
6.6.1	mac	2022-12-15	14:52:25	15:01:39	552337	5dcc5fee28e3148e8009491e	707605203	1	main_z	11	advance_on_keypress_ZEE	116	stimuli_distractor_trianglediamonds.svg	stimuli_target_circlediamonds.svg	10	yes	57	0	82
6.6.1	mac	2022-12-15	14:52:25	15:01:42	555057	5dcc5fee28e3148e8009491e	707605203	1	main_z	11	main_z	117	stimuli_distractor_diamondtriangles.svg	stimuli_target_trianglesquares.svg	30	yes	0	0	2000
6.6.1	mac	2022-12-15	14:52:25	15:01:42	555057	5dcc5fee28e3148e8009491e	707605203	1	main_z	11	advance_on_keypress_ZEE	118	stimuli_distractor_diamondtriangles.svg	stimuli_target_trianglesquares.svg	30	yes	57	0	277
6.6.1	mac	2022-12-15	14:52:25	15:01:43	556431	5dcc5fee28e3148e8009491e	707605203	1	main_z	11	main_z	119	stimuli_target_trianglecircles.svg	stimuli_distractor_diamondtriangles.svg	21	yes	44	1	465
6.6.1	mac	2022-12-15	14:52:25	15:01:43	556431	5dcc5fee28e3148e8009491e	707605203	1	main_z	11	advance_on_keypress_ZEE	120	stimuli_target_trianglecircles.svg	stimuli_distractor_diamondtriangles.svg	21	yes	57	0	79
6.6.1	mac	2022-12-15	14:52:25	15:01:46	559153	5dcc5fee28e3148e8009491e	707605203	1	main_z	11	main_z	121	stimuli_distractor_trianglediamonds.svg	stimuli_distractor_trianglediamonds.svg	34	no	0	1	2000
6.6.1	mac	2022-12-15	14:52:25	15:01:46	559153	5dcc5fee28e3148e8009491e	707605203	1	main_z	11	advance_on_keypress_ZEE	122	stimuli_distractor_trianglediamonds.svg	stimuli_distractor_trianglediamonds.svg	34	no	57	0	223
6.6.1	mac	2022-12-15	14:52:25	15:01:47	560494	5dcc5fee28e3148e8009491e	707605203	1	main_z	11	main_z	123	stimuli_distractor_trianglediamonds.svg	stimuli_target_squaretriangles.svg	11	yes	44	1	496
6.6.1	mac	2022-12-15	14:52:25	15:01:47	560494	5dcc5fee28e3148e8009491e	707605203	1	main_z	11	advance_on_keypress_ZEE	124	stimuli_distractor_trianglediamonds.svg	stimuli_target_squaretriangles.svg	11	yes	57	0	119
6.6.1	mac	2022-12-15	14:52:25	15:01:48	561879	5dcc5fee28e3148e8009491e	707605203	1	main_z	11	main_z	125	stimuli_target_squarediamonds.svg	stimuli_distractor_diamondtriangles.svg	8	yes	44	1	626
6.6.1	mac	2022-12-15	14:52:25	15:01:48	561879	5dcc5fee28e3148e8009491e	707605203	1	main_z	11	advance_on_keypress_ZEE	126	stimuli_target_squarediamonds.svg	stimuli_distractor_diamondtriangles.svg	8	yes	57	0	147
6.6.1	mac	2022-12-15	14:52:25	15:01:51	564654	5dcc5fee28e3148e8009491e	707605203	1	main_z	11	main_z	127	stimuli_distractor_diamondtriangles.svg	stimuli_target_diamondsquares.svg	32	yes	0	0	2000
6.6.1	mac	2022-12-15	14:52:25	15:01:51	564654	5dcc5fee28e3148e8009491e	707605203	1	main_z	11	advance_on_keypress_ZEE	128	stimuli_distractor_diamondtriangles.svg	stimuli_target_diamondsquares.svg	32	yes	57	0	278
6.6.1	mac	2022-12-15	14:52:25	15:01:53	566078	5dcc5fee28e3148e8009491e	707605203	1	main_z	11	main_z	129	stimuli_distractor_diamondtriangles.svg	stimuli_target_circletriangles.svg	13	yes	44	1	512
6.6.1	mac	2022-12-15	14:52:25	15:01:53	566078	5dcc5fee28e3148e8009491e	707605203	1	main_z	11	advance_on_keypress_ZEE	130	stimuli_distractor_diamondtriangles.svg	stimuli_target_circletriangles.svg	13	yes	57	0	131
6.6.1	mac	2022-12-15	14:52:25	15:01:54	567766	5dcc5fee28e3148e8009491e	707605203	1	main_z	11	main_z	131	stimuli_distractor_trianglediamonds.svg	stimuli_distractor_diamondtriangles.svg	36	no	44	0	911
6.6.1	mac	2022-12-15	14:52:25	15:01:54	567766	5dcc5fee28e3148e8009491e	707605203	1	main_z	11	advance_on_keypress_ZEE	132	stimuli_distractor_trianglediamonds.svg	stimuli_distractor_diamondtriangles.svg	36	no	57	0	100
6.6.1	mac	2022-12-15	14:52:25	15:01:57	570490	5dcc5fee28e3148e8009491e	707605203	1	main_z	11	main_z	133	stimuli_target_diamondsquares.svg	stimuli_distractor_trianglediamonds.svg	20	yes	0	0	2000
6.6.1	mac	2022-12-15	14:52:25	15:01:57	570490	5dcc5fee28e3148e8009491e	707605203	1	main_z	11	advance_on_keypress_ZEE	134	stimuli_target_diamondsquares.svg	stimuli_distractor_trianglediamonds.svg	20	yes	57	0	462
6.6.1	mac	2022-12-15	14:52:25	15:01:59	572112	5dcc5fee28e3148e8009491e	707605203	1	main_z	11	main_z	135	stimuli_distractor_diamondtriangles.svg	stimuli_target_diamondcircles.svg	31	yes	44	1	525
6.6.1	mac	2022-12-15	14:52:25	15:01:59	572112	5dcc5fee28e3148e8009491e	707605203	1	main_z	11	advance_on_keypress_ZEE	136	stimuli_distractor_diamondtriangles.svg	stimuli_target_diamondcircles.svg	31	yes	57	0	111
6.6.1	mac	2022-12-15	14:52:25	15:02:01	574857	5dcc5fee28e3148e8009491e	707605203	1	main_z	11	main_z	137	stimuli_distractor_trianglediamonds.svg	stimuli_distractor_trianglediamonds.svg	33	no	0	1	2000
6.6.1	mac	2022-12-15	14:52:25	15:02:01	574857	5dcc5fee28e3148e8009491e	707605203	1	main_z	11	advance_on_keypress_ZEE	138	stimuli_distractor_trianglediamonds.svg	stimuli_distractor_trianglediamonds.svg	33	no	57	0	241
6.6.1	mac	2022-12-15	14:52:25	15:02:03	576257	5dcc5fee28e3148e8009491e	707605203	1	main_z	11	main_z	139	stimuli_target_diamondcircles.svg	stimuli_distractor_diamondtriangles.svg	23	yes	44	1	537
6.6.1	mac	2022-12-15	14:52:25	15:02:03	576257	5dcc5fee28e3148e8009491e	707605203	1	main_z	11	advance_on_keypress_ZEE	140	stimuli_target_diamondcircles.svg	stimuli_distractor_diamondtriangles.svg	23	yes	57	0	70
6.6.1	mac	2022-12-15	14:52:25	15:02:05	578950	5dcc5fee28e3148e8009491e	707605203	1	main_z	11	main_z	141	stimuli_target_trianglesquares.svg	stimuli_distractor_diamondtriangles.svg	22	yes	0	0	2000
6.6.1	mac	2022-12-15	14:52:25	15:02:05	578950	5dcc5fee28e3148e8009491e	707605203	1	main_z	11	advance_on_keypress_ZEE	142	stimuli_target_trianglesquares.svg	stimuli_distractor_diamondtriangles.svg	22	yes	57	0	370
6.6.1	mac	2022-12-15	14:52:25	15:02:07	580463	5dcc5fee28e3148e8009491e	707605203	1	main_z	11	main_z	143	stimuli_distractor_trianglediamonds.svg	stimuli_target_diamondcircles.svg	27	yes	44	1	517
6.6.1	mac	2022-12-15	14:52:25	15:02:07	580463	5dcc5fee28e3148e8009491e	707605203	1	main_z	11	advance_on_keypress_ZEE	144	stimuli_distractor_trianglediamonds.svg	stimuli_target_diamondcircles.svg	27	yes	57	0	49
6.6.1	mac	2022-12-15	14:52:25	15:02:08	581608	5dcc5fee28e3148e8009491e	707605203	1	main_z	11	main_z	145	stimuli_target_circlediamonds.svg	stimuli_distractor_diamondtriangles.svg	6	yes	44	1	457
6.6.1	mac	2022-12-15	14:52:25	15:02:08	581608	5dcc5fee28e3148e8009491e	707605203	1	main_z	11	advance_on_keypress_ZEE	146	stimuli_target_circlediamonds.svg	stimuli_distractor_diamondtriangles.svg	6	yes	57	0	48
6.6.1	mac	2022-12-15	14:52:25	15:02:09	582897	5dcc5fee28e3148e8009491e	707605203	1	main_z	11	main_z	147	stimuli_distractor_trianglediamonds.svg	stimuli_distractor_diamondtriangles.svg	35	no	44	0	612
6.6.1	mac	2022-12-15	14:52:25	15:02:09	582897	5dcc5fee28e3148e8009491e	707605203	1	main_z	11	advance_on_keypress_ZEE	148	stimuli_distractor_trianglediamonds.svg	stimuli_distractor_diamondtriangles.svg	35	no	57	0	98
6.6.1	mac	2022-12-15	14:52:25	15:02:11	584178	5dcc5fee28e3148e8009491e	707605203	1	main_z	11	main_z	149	stimuli_distractor_trianglediamonds.svg	stimuli_target_circletriangles.svg	9	yes	44	1	555
6.6.1	mac	2022-12-15	14:52:25	15:02:11	584178	5dcc5fee28e3148e8009491e	707605203	1	main_z	11	advance_on_keypress_ZEE	150	stimuli_distractor_trianglediamonds.svg	stimuli_target_circletriangles.svg	9	yes	57	0	69
6.6.1	mac	2022-12-15	14:52:25	15:02:12	585296	5dcc5fee28e3148e8009491e	707605203	1	main_z	11	main_z	151	stimuli_target_squaretriangles.svg	stimuli_distractor_trianglediamonds.svg	3	yes	44	1	408
6.6.1	mac	2022-12-15	14:52:25	15:02:12	585296	5dcc5fee28e3148e8009491e	707605203	1	main_z	11	advance_on_keypress_ZEE	152	stimuli_target_squaretriangles.svg	stimuli_distractor_trianglediamonds.svg	3	yes	57	0	77
6.6.1	mac	2022-12-15	14:52:25	15:02:14	587988	5dcc5fee28e3148e8009491e	707605203	1	main_z	11	main_z	153	stimuli_distractor_diamondtriangles.svg	stimuli_distractor_diamondtriangles.svg	40	no	0	1	2000
6.6.1	mac	2022-12-15	14:52:25	15:02:14	587988	5dcc5fee28e3148e8009491e	707605203	1	main_z	11	advance_on_keypress_ZEE	154	stimuli_distractor_diamondtriangles.svg	stimuli_distractor_diamondtriangles.svg	40	no	57	0	394
6.6.1	mac	2022-12-15	14:52:25	15:02:17	591011	5dcc5fee28e3148e8009491e	707605203	1	main_z	11	main_z	155	stimuli_distractor_diamondtriangles.svg	stimuli_distractor_trianglediamonds.svg	38	no	0	1	2000
6.6.1	mac	2022-12-15	14:52:25	15:02:17	591011	5dcc5fee28e3148e8009491e	707605203	1	main_z	11	advance_on_keypress_ZEE	156	stimuli_distractor_diamondtriangles.svg	stimuli_distractor_trianglediamonds.svg	38	no	57	0	242
6.6.1	mac	2022-12-15	14:52:25	15:02:19	592363	5dcc5fee28e3148e8009491e	707605203	1	main_z	11	main_z	157	stimuli_target_circletriangles.svg	stimuli_distractor_trianglediamonds.svg	1	yes	44	1	483
6.6.1	mac	2022-12-15	14:52:25	15:02:19	592363	5dcc5fee28e3148e8009491e	707605203	1	main_z	11	advance_on_keypress_ZEE	158	stimuli_target_circletriangles.svg	stimuli_distractor_trianglediamonds.svg	1	yes	57	0	80
6.6.1	mac	2022-12-15	14:52:25	15:02:20	593674	5dcc5fee28e3148e8009491e	707605203	1	main_z	11	main_z	159	stimuli_distractor_diamondtriangles.svg	stimuli_target_squarediamonds.svg	16	yes	44	1	590
6.6.1	mac	2022-12-15	14:52:25	15:02:20	593674	5dcc5fee28e3148e8009491e	707605203	1	main_z	11	advance_on_keypress_ZEE	160	stimuli_distractor_diamondtriangles.svg	stimuli_target_squarediamonds.svg	16	yes	57	0	85