build	computer.platform	date	time	timestamp	time_elapsed_ms	subject	group	session	blockcode	blocknum	trialcode	trialnum	stimulus_left	stimulus_right	stim_index	target_present	response	correct	latency
6.6.1	win	2022-12-14	13:28:25	13:29:56	89193	570b7b5fb9b52b00102d96f9	502717121	1	practice_slash	5	practice_slash	1	stimuli_target_circlediamonds.svg	stimuli_distractor_diamondtriangles.svg	1	yes	53	1	1050
6.6.1	win	2022-12-14	13:28:25	13:29:56	89193	570b7b5fb9b52b00102d96f9	502717121	1	practice_slash	5	advance_on_keypress_SLASH	2	stimuli_target_circlediamonds.svg	stimuli_distractor_diamondtriangles.svg	1	yes	57	0	973
6.6.1	win	2022-12-14	13:28:25	13:29:59	92581	570b7b5fb9b52b00102d96f9	502717121	1	practice_slash	5	practice_slash	3	stimuli_distractor_diamondtriangles.svg	stimuli_target_trianglecircles.svg	9	yes	53	1	767
6.6.1	win	2022-12-14	13:28:25	13:29:59	92581	570b7b5fb9b52b00102d96f9	502717121	1	practice_slash	5	advance_on_keypress_SLASH	4	stimuli_distractor_diamondtriangles.svg	stimuli_target_trianglecircles.svg	9	yes	57	0	374
6.6.1	win	2022-12-14	13:28:25	13:30:03	96598	570b7b5fb9b52b00102d96f9	502717121	1	practice_slash	5	practice_slash	5	stimuli_distractor_trianglediamonds.svg	stimuli_distractor_trianglediamonds.svg	15	no	0	1	2000
6.6.1	win	2022-12-14	13:28:25	13:30:03	96598	570b7b5fb9b52b00102d96f9	502717121	1	practice_slash	5	advance_on_keypress_SLASH	6	stimuli_distractor_trianglediamonds.svg	stimuli_distractor_trianglediamonds.svg	15	no	57	0	406
6.6.1	win	2022-12-14	13:28:25	13:30:06	99344	570b7b5fb9b52b00102d96f9	502717121	1	practice_slash	5	practice_slash	7	stimuli_distractor_diamondtriangles.svg	stimuli_target_diamondcircles.svg	8	yes	53	1	709
6.6.1	win	2022-12-14	13:28:25	13:30:06	99344	570b7b5fb9b52b00102d96f9	502717121	1	practice_slash	5	advance_on_keypress_SLASH	8	stimuli_distractor_diamondtriangles.svg	stimuli_target_diamondcircles.svg	8	yes	57	0	982
6.6.1	win	2022-12-14	13:28:25	13:30:09	102748	570b7b5fb9b52b00102d96f9	502717121	1	practice_slash	5	practice_slash	9	stimuli_target_squarediamonds.svg	stimuli_distractor_trianglediamonds.svg	5	yes	53	1	777
6.6.1	win	2022-12-14	13:28:25	13:30:09	102748	570b7b5fb9b52b00102d96f9	502717121	1	practice_slash	5	advance_on_keypress_SLASH	10	stimuli_target_squarediamonds.svg	stimuli_distractor_trianglediamonds.svg	5	yes	57	0	843
6.6.1	win	2022-12-14	13:28:25	13:30:12	105905	570b7b5fb9b52b00102d96f9	502717121	1	practice_slash	5	practice_slash	11	stimuli_distractor_trianglediamonds.svg	stimuli_target_circlediamonds.svg	10	yes	53	1	680
6.6.1	win	2022-12-14	13:28:25	13:30:12	105905	570b7b5fb9b52b00102d96f9	502717121	1	practice_slash	5	advance_on_keypress_SLASH	12	stimuli_distractor_trianglediamonds.svg	stimuli_target_circlediamonds.svg	10	yes	57	0	535
6.6.1	win	2022-12-14	13:28:25	13:30:16	109040	570b7b5fb9b52b00102d96f9	502717121	1	practice_slash	5	practice_slash	13	stimuli_target_circlediamonds.svg	stimuli_distractor_trianglediamonds.svg	4	yes	53	1	964
6.6.1	win	2022-12-14	13:28:25	13:30:16	109040	570b7b5fb9b52b00102d96f9	502717121	1	practice_slash	5	advance_on_keypress_SLASH	14	stimuli_target_circlediamonds.svg	stimuli_distractor_trianglediamonds.svg	4	yes	57	0	454
6.6.1	win	2022-12-14	13:28:25	13:30:20	113129	570b7b5fb9b52b00102d96f9	502717121	1	practice_slash	5	practice_slash	15	stimuli_distractor_diamondtriangles.svg	stimuli_distractor_diamondtriangles.svg	13	no	0	1	2000
6.6.1	win	2022-12-14	13:28:25	13:30:20	113129	570b7b5fb9b52b00102d96f9	502717121	1	practice_slash	5	advance_on_keypress_SLASH	16	stimuli_distractor_diamondtriangles.svg	stimuli_distractor_diamondtriangles.svg	13	no	57	0	343
6.6.1	win	2022-12-14	13:28:25	13:30:22	115778	570b7b5fb9b52b00102d96f9	502717121	1	practice_slash	5	practice_slash	17	stimuli_distractor_trianglediamonds.svg	stimuli_target_squarediamonds.svg	11	yes	53	1	643
6.6.1	win	2022-12-14	13:28:25	13:30:22	115778	570b7b5fb9b52b00102d96f9	502717121	1	practice_slash	5	advance_on_keypress_SLASH	18	stimuli_distractor_trianglediamonds.svg	stimuli_target_squarediamonds.svg	11	yes	57	0	663
6.6.1	win	2022-12-14	13:28:25	13:30:27	120086	570b7b5fb9b52b00102d96f9	502717121	1	practice_slash	5	practice_slash	19	stimuli_distractor_trianglediamonds.svg	stimuli_distractor_diamondtriangles.svg	16	no	0	1	2000
6.6.1	win	2022-12-14	13:28:25	13:30:27	120086	570b7b5fb9b52b00102d96f9	502717121	1	practice_slash	5	advance_on_keypress_SLASH	20	stimuli_distractor_trianglediamonds.svg	stimuli_distractor_diamondtriangles.svg	16	no	57	0	419
6.6.1	win	2022-12-14	13:28:25	13:30:29	122840	570b7b5fb9b52b00102d96f9	502717121	1	practice_slash	5	practice_slash	21	stimuli_distractor_diamondtriangles.svg	stimuli_target_circletriangles.svg	7	yes	53	1	684
6.6.1	win	2022-12-14	13:28:25	13:30:29	122840	570b7b5fb9b52b00102d96f9	502717121	1	practice_slash	5	advance_on_keypress_SLASH	22	stimuli_distractor_diamondtriangles.svg	stimuli_target_circletriangles.svg	7	yes	57	0	530
6.6.1	win	2022-12-14	13:28:25	13:30:32	125756	570b7b5fb9b52b00102d96f9	502717121	1	practice_slash	5	practice_slash	23	stimuli_distractor_trianglediamonds.svg	stimuli_target_diamondcircles.svg	12	yes	53	1	731
6.6.1	win	2022-12-14	13:28:25	13:30:32	125756	570b7b5fb9b52b00102d96f9	502717121	1	practice_slash	5	advance_on_keypress_SLASH	24	stimuli_distractor_trianglediamonds.svg	stimuli_target_diamondcircles.svg	12	yes	57	0	387
6.6.1	win	2022-12-14	13:28:25	13:30:36	129776	570b7b5fb9b52b00102d96f9	502717121	1	practice_slash	5	practice_slash	25	stimuli_target_diamondsquares.svg	stimuli_distractor_trianglediamonds.svg	6	yes	0	0	2000
6.6.1	win	2022-12-14	13:28:25	13:30:36	129776	570b7b5fb9b52b00102d96f9	502717121	1	practice_slash	5	advance_on_keypress_SLASH	26	stimuli_target_diamondsquares.svg	stimuli_distractor_trianglediamonds.svg	6	yes	57	0	463
6.6.1	win	2022-12-14	13:28:25	13:30:39	132562	570b7b5fb9b52b00102d96f9	502717121	1	practice_slash	5	practice_slash	27	stimuli_target_squarediamonds.svg	stimuli_distractor_diamondtriangles.svg	2	yes	53	1	682
6.6.1	win	2022-12-14	13:28:25	13:30:39	132562	570b7b5fb9b52b00102d96f9	502717121	1	practice_slash	5	advance_on_keypress_SLASH	28	stimuli_target_squarediamonds.svg	stimuli_distractor_diamondtriangles.svg	2	yes	57	0	429
6.6.1	win	2022-12-14	13:28:25	13:30:42	135659	570b7b5fb9b52b00102d96f9	502717121	1	practice_slash	5	practice_slash	29	stimuli_target_diamondsquares.svg	stimuli_distractor_diamondtriangles.svg	3	yes	53	1	1043
6.6.1	win	2022-12-14	13:28:25	13:30:42	135659	570b7b5fb9b52b00102d96f9	502717121	1	practice_slash	5	advance_on_keypress_SLASH	30	stimuli_target_diamondsquares.svg	stimuli_distractor_diamondtriangles.svg	3	yes	57	0	535
6.6.1	win	2022-12-14	13:28:25	13:30:45	138795	570b7b5fb9b52b00102d96f9	502717121	1	practice_slash	5	practice_slash	31	stimuli_distractor_diamondtriangles.svg	stimuli_distractor_trianglediamonds.svg	14	no	53	0	960
6.6.1	win	2022-12-14	13:28:25	13:30:45	138795	570b7b5fb9b52b00102d96f9	502717121	1	practice_slash	5	advance_on_keypress_SLASH	32	stimuli_distractor_diamondtriangles.svg	stimuli_distractor_trianglediamonds.svg	14	no	57	0	363
6.6.1	win	2022-12-14	13:28:25	13:30:50	143873	570b7b5fb9b52b00102d96f9	502717121	1	main_slash	7	main_slash	1	stimuli_target_circletriangles.svg	stimuli_distractor_diamondtriangles.svg	5	yes	53	1	717
6.6.1	win	2022-12-14	13:28:25	13:30:50	143873	570b7b5fb9b52b00102d96f9	502717121	1	main_slash	7	advance_on_keypress_SLASH	2	stimuli_target_circletriangles.svg	stimuli_distractor_diamondtriangles.svg	5	yes	57	0	1106
6.6.1	win	2022-12-14	13:28:25	13:30:53	146329	570b7b5fb9b52b00102d96f9	502717121	1	main_slash	7	main_slash	3	stimuli_distractor_trianglediamonds.svg	stimuli_target_diamondcircles.svg	27	yes	53	1	704
6.6.1	win	2022-12-14	13:28:25	13:30:53	146329	570b7b5fb9b52b00102d96f9	502717121	1	main_slash	7	advance_on_keypress_SLASH	4	stimuli_distractor_trianglediamonds.svg	stimuli_target_diamondcircles.svg	27	yes	57	0	694
6.6.1	win	2022-12-14	13:28:25	13:30:55	148666	570b7b5fb9b52b00102d96f9	502717121	1	main_slash	7	main_slash	5	stimuli_target_trianglecircles.svg	stimuli_distractor_trianglediamonds.svg	17	yes	53	1	1005
6.6.1	win	2022-12-14	13:28:25	13:30:55	148666	570b7b5fb9b52b00102d96f9	502717121	1	main_slash	7	advance_on_keypress_SLASH	6	stimuli_target_trianglecircles.svg	stimuli_distractor_trianglediamonds.svg	17	yes	57	0	523
6.6.1	win	2022-12-14	13:28:25	13:30:57	150614	570b7b5fb9b52b00102d96f9	502717121	1	main_slash	7	main_slash	7	stimuli_target_squaretriangles.svg	stimuli_distractor_diamondtriangles.svg	7	yes	53	1	784
6.6.1	win	2022-12-14	13:28:25	13:30:57	150614	570b7b5fb9b52b00102d96f9	502717121	1	main_slash	7	advance_on_keypress_SLASH	8	stimuli_target_squaretriangles.svg	stimuli_distractor_diamondtriangles.svg	7	yes	57	0	471
6.6.1	win	2022-12-14	13:28:25	13:30:59	152444	570b7b5fb9b52b00102d96f9	502717121	1	main_slash	7	main_slash	9	stimuli_distractor_diamondtriangles.svg	stimuli_target_diamondsquares.svg	32	yes	53	1	715
6.6.1	win	2022-12-14	13:28:25	13:30:59	152444	570b7b5fb9b52b00102d96f9	502717121	1	main_slash	7	advance_on_keypress_SLASH	10	stimuli_distractor_diamondtriangles.svg	stimuli_target_diamondsquares.svg	32	yes	57	0	457
6.6.1	win	2022-12-14	13:28:25	13:31:01	154315	570b7b5fb9b52b00102d96f9	502717121	1	main_slash	7	main_slash	11	stimuli_target_diamondsquares.svg	stimuli_distractor_trianglediamonds.svg	20	yes	53	1	781
6.6.1	win	2022-12-14	13:28:25	13:31:01	154315	570b7b5fb9b52b00102d96f9	502717121	1	main_slash	7	advance_on_keypress_SLASH	12	stimuli_target_diamondsquares.svg	stimuli_distractor_trianglediamonds.svg	20	yes	57	0	416
6.6.1	win	2022-12-14	13:28:25	13:31:03	156189	570b7b5fb9b52b00102d96f9	502717121	1	main_slash	7	main_slash	13	stimuli_target_circlediamonds.svg	stimuli_distractor_trianglediamonds.svg	2	yes	53	1	806
6.6.1	win	2022-12-14	13:28:25	13:31:03	156189	570b7b5fb9b52b00102d96f9	502717121	1	main_slash	7	advance_on_keypress_SLASH	14	stimuli_target_circlediamonds.svg	stimuli_distractor_trianglediamonds.svg	2	yes	57	0	428
6.6.1	win	2022-12-14	13:28:25	13:31:05	157997	570b7b5fb9b52b00102d96f9	502717121	1	main_slash	7	main_slash	15	stimuli_distractor_trianglediamonds.svg	stimuli_target_diamondsquares.svg	28	yes	53	1	729
6.6.1	win	2022-12-14	13:28:25	13:31:05	157997	570b7b5fb9b52b00102d96f9	502717121	1	main_slash	7	advance_on_keypress_SLASH	16	stimuli_distractor_trianglediamonds.svg	stimuli_target_diamondsquares.svg	28	yes	57	0	430
6.6.1	win	2022-12-14	13:28:25	13:31:06	159835	570b7b5fb9b52b00102d96f9	502717121	1	main_slash	7	main_slash	17	stimuli_distractor_diamondtriangles.svg	stimuli_target_diamondcircles.svg	31	yes	53	1	783
6.6.1	win	2022-12-14	13:28:25	13:31:06	159835	570b7b5fb9b52b00102d96f9	502717121	1	main_slash	7	advance_on_keypress_SLASH	18	stimuli_distractor_diamondtriangles.svg	stimuli_target_diamondcircles.svg	31	yes	57	0	466
6.6.1	win	2022-12-14	13:28:25	13:31:09	162954	570b7b5fb9b52b00102d96f9	502717121	1	main_slash	7	main_slash	19	stimuli_distractor_trianglediamonds.svg	stimuli_distractor_diamondtriangles.svg	36	no	0	1	2000
6.6.1	win	2022-12-14	13:28:25	13:31:09	162954	570b7b5fb9b52b00102d96f9	502717121	1	main_slash	7	advance_on_keypress_SLASH	20	stimuli_distractor_trianglediamonds.svg	stimuli_distractor_diamondtriangles.svg	36	no	57	0	395
6.6.1	win	2022-12-14	13:28:25	13:31:11	164740	570b7b5fb9b52b00102d96f9	502717121	1	main_slash	7	main_slash	21	stimuli_distractor_trianglediamonds.svg	stimuli_target_trianglecircles.svg	25	yes	53	1	733
6.6.1	win	2022-12-14	13:28:25	13:31:11	164740	570b7b5fb9b52b00102d96f9	502717121	1	main_slash	7	advance_on_keypress_SLASH	22	stimuli_distractor_trianglediamonds.svg	stimuli_target_trianglecircles.svg	25	yes	57	0	514
6.6.1	win	2022-12-14	13:28:25	13:31:13	166772	570b7b5fb9b52b00102d96f9	502717121	1	main_slash	7	main_slash	23	stimuli_target_trianglesquares.svg	stimuli_distractor_diamondtriangles.svg	22	yes	53	1	876
6.6.1	win	2022-12-14	13:28:25	13:31:13	166772	570b7b5fb9b52b00102d96f9	502717121	1	main_slash	7	advance_on_keypress_SLASH	24	stimuli_target_trianglesquares.svg	stimuli_distractor_diamondtriangles.svg	22	yes	57	0	439
6.6.1	win	2022-12-14	13:28:25	13:31:15	168612	570b7b5fb9b52b00102d96f9	502717121	1	main_slash	7	main_slash	25	stimuli_target_trianglecircles.svg	stimuli_distractor_diamondtriangles.svg	21	yes	53	1	768
6.6.1	win	2022-12-14	13:28:25	13:31:15	168612	570b7b5fb9b52b00102d96f9	502717121	1	main_slash	7	advance_on_keypress_SLASH	26	stimuli_target_trianglecircles.svg	stimuli_distractor_diamondtriangles.svg	21	yes	57	0	464
6.6.1	win	2022-12-14	13:28:25	13:31:18	171264	570b7b5fb9b52b00102d96f9	502717121	1	main_slash	7	main_slash	27	stimuli_distractor_diamondtriangles.svg	stimuli_target_squaretriangles.svg	15	yes	53	1	1552
6.6.1	win	2022-12-14	13:28:25	13:31:18	171264	570b7b5fb9b52b00102d96f9	502717121	1	main_slash	7	advance_on_keypress_SLASH	28	stimuli_distractor_diamondtriangles.svg	stimuli_target_squaretriangles.svg	15	yes	57	0	668
6.6.1	win	2022-12-14	13:28:25	13:31:20	173328	570b7b5fb9b52b00102d96f9	502717121	1	main_slash	7	main_slash	29	stimuli_distractor_diamondtriangles.svg	stimuli_target_trianglesquares.svg	30	yes	53	1	747
6.6.1	win	2022-12-14	13:28:25	13:31:20	173328	570b7b5fb9b52b00102d96f9	502717121	1	main_slash	7	advance_on_keypress_SLASH	30	stimuli_distractor_diamondtriangles.svg	stimuli_target_trianglesquares.svg	30	yes	57	0	520
6.6.1	win	2022-12-14	13:28:25	13:31:22	175216	570b7b5fb9b52b00102d96f9	502717121	1	main_slash	7	main_slash	31	stimuli_distractor_trianglediamonds.svg	stimuli_target_circlediamonds.svg	10	yes	53	1	734
6.6.1	win	2022-12-14	13:28:25	13:31:22	175216	570b7b5fb9b52b00102d96f9	502717121	1	main_slash	7	advance_on_keypress_SLASH	32	stimuli_distractor_trianglediamonds.svg	stimuli_target_circlediamonds.svg	10	yes	57	0	409
6.6.1	win	2022-12-14	13:28:25	13:31:24	177224	570b7b5fb9b52b00102d96f9	502717121	1	main_slash	7	main_slash	33	stimuli_distractor_trianglediamonds.svg	stimuli_target_trianglesquares.svg	26	yes	53	1	927
6.6.1	win	2022-12-14	13:28:25	13:31:24	177224	570b7b5fb9b52b00102d96f9	502717121	1	main_slash	7	advance_on_keypress_SLASH	34	stimuli_distractor_trianglediamonds.svg	stimuli_target_trianglesquares.svg	26	yes	57	0	380
6.6.1	win	2022-12-14	13:28:25	13:31:26	179131	570b7b5fb9b52b00102d96f9	502717121	1	main_slash	7	main_slash	35	stimuli_distractor_trianglediamonds.svg	stimuli_target_squarediamonds.svg	12	yes	53	1	895
6.6.1	win	2022-12-14	13:28:25	13:31:26	179131	570b7b5fb9b52b00102d96f9	502717121	1	main_slash	7	advance_on_keypress_SLASH	36	stimuli_distractor_trianglediamonds.svg	stimuli_target_squarediamonds.svg	12	yes	57	0	410
6.6.1	win	2022-12-14	13:28:25	13:31:28	181579	570b7b5fb9b52b00102d96f9	502717121	1	main_slash	7	main_slash	37	stimuli_target_diamondcircles.svg	stimuli_distractor_trianglediamonds.svg	19	yes	53	1	1408
6.6.1	win	2022-12-14	13:28:25	13:31:28	181579	570b7b5fb9b52b00102d96f9	502717121	1	main_slash	7	advance_on_keypress_SLASH	38	stimuli_target_diamondcircles.svg	stimuli_distractor_trianglediamonds.svg	19	yes	57	0	470
6.6.1	win	2022-12-14	13:28:25	13:31:30	183507	570b7b5fb9b52b00102d96f9	502717121	1	main_slash	7	main_slash	39	stimuli_target_circlediamonds.svg	stimuli_distractor_diamondtriangles.svg	6	yes	53	1	818
6.6.1	win	2022-12-14	13:28:25	13:31:30	183507	570b7b5fb9b52b00102d96f9	502717121	1	main_slash	7	advance_on_keypress_SLASH	40	stimuli_target_circlediamonds.svg	stimuli_distractor_diamondtriangles.svg	6	yes	57	0	407
6.6.1	win	2022-12-14	13:28:25	13:31:33	186582	570b7b5fb9b52b00102d96f9	502717121	1	main_slash	7	main_slash	41	stimuli_distractor_trianglediamonds.svg	stimuli_distractor_diamondtriangles.svg	35	no	0	1	2000
6.6.1	win	2022-12-14	13:28:25	13:31:33	186582	570b7b5fb9b52b00102d96f9	502717121	1	main_slash	7	advance_on_keypress_SLASH	42	stimuli_distractor_trianglediamonds.svg	stimuli_distractor_diamondtriangles.svg	35	no	57	0	326
6.6.1	win	2022-12-14	13:28:25	13:31:35	188342	570b7b5fb9b52b00102d96f9	502717121	1	main_slash	7	main_slash	43	stimuli_target_squarediamonds.svg	stimuli_distractor_trianglediamonds.svg	4	yes	53	1	779
6.6.1	win	2022-12-14	13:28:25	13:31:35	188342	570b7b5fb9b52b00102d96f9	502717121	1	main_slash	7	advance_on_keypress_SLASH	44	stimuli_target_squarediamonds.svg	stimuli_distractor_trianglediamonds.svg	4	yes	57	0	467
6.6.1	win	2022-12-14	13:28:25	13:31:37	190259	570b7b5fb9b52b00102d96f9	502717121	1	main_slash	7	main_slash	45	stimuli_target_diamondsquares.svg	stimuli_distractor_diamondtriangles.svg	24	yes	53	1	802
6.6.1	win	2022-12-14	13:28:25	13:31:37	190259	570b7b5fb9b52b00102d96f9	502717121	1	main_slash	7	advance_on_keypress_SLASH	46	stimuli_target_diamondsquares.svg	stimuli_distractor_diamondtriangles.svg	24	yes	57	0	400
6.6.1	win	2022-12-14	13:28:25	13:31:40	193296	570b7b5fb9b52b00102d96f9	502717121	1	main_slash	7	main_slash	47	stimuli_distractor_trianglediamonds.svg	stimuli_distractor_trianglediamonds.svg	33	no	0	1	2000
6.6.1	win	2022-12-14	13:28:25	13:31:40	193296	570b7b5fb9b52b00102d96f9	502717121	1	main_slash	7	advance_on_keypress_SLASH	48	stimuli_distractor_trianglediamonds.svg	stimuli_distractor_trianglediamonds.svg	33	no	57	0	335
6.6.1	win	2022-12-14	13:28:25	13:31:43	196266	570b7b5fb9b52b00102d96f9	502717121	1	main_slash	7	main_slash	49	stimuli_distractor_trianglediamonds.svg	stimuli_distractor_trianglediamonds.svg	34	no	0	1	2000
6.6.1	win	2022-12-14	13:28:25	13:31:43	196266	570b7b5fb9b52b00102d96f9	502717121	1	main_slash	7	advance_on_keypress_SLASH	50	stimuli_distractor_trianglediamonds.svg	stimuli_distractor_trianglediamonds.svg	34	no	57	0	478
6.6.1	win	2022-12-14	13:28:25	13:31:46	199385	570b7b5fb9b52b00102d96f9	502717121	1	main_slash	7	main_slash	51	stimuli_distractor_diamondtriangles.svg	stimuli_distractor_trianglediamonds.svg	37	no	0	1	2000
6.6.1	win	2022-12-14	13:28:25	13:31:46	199385	570b7b5fb9b52b00102d96f9	502717121	1	main_slash	7	advance_on_keypress_SLASH	52	stimuli_distractor_diamondtriangles.svg	stimuli_distractor_trianglediamonds.svg	37	no	57	0	447
6.6.1	win	2022-12-14	13:28:25	13:31:48	201398	570b7b5fb9b52b00102d96f9	502717121	1	main_slash	7	main_slash	53	stimuli_distractor_diamondtriangles.svg	stimuli_target_circletriangles.svg	13	yes	53	1	927
6.6.1	win	2022-12-14	13:28:25	13:31:48	201398	570b7b5fb9b52b00102d96f9	502717121	1	main_slash	7	advance_on_keypress_SLASH	54	stimuli_distractor_diamondtriangles.svg	stimuli_target_circletriangles.svg	13	yes	57	0	493
6.6.1	win	2022-12-14	13:28:25	13:31:50	203222	570b7b5fb9b52b00102d96f9	502717121	1	main_slash	7	main_slash	55	stimuli_distractor_diamondtriangles.svg	stimuli_target_circlediamonds.svg	14	yes	53	1	700
6.6.1	win	2022-12-14	13:28:25	13:31:50	203222	570b7b5fb9b52b00102d96f9	502717121	1	main_slash	7	advance_on_keypress_SLASH	56	stimuli_distractor_diamondtriangles.svg	stimuli_target_circlediamonds.svg	14	yes	57	0	414
6.6.1	win	2022-12-14	13:28:25	13:31:52	205250	570b7b5fb9b52b00102d96f9	502717121	1	main_slash	7	main_slash	57	stimuli_target_diamondcircles.svg	stimuli_distractor_diamondtriangles.svg	23	yes	53	1	976
6.6.1	win	2022-12-14	13:28:25	13:31:52	205250	570b7b5fb9b52b00102d96f9	502717121	1	main_slash	7	advance_on_keypress_SLASH	58	stimuli_target_diamondcircles.svg	stimuli_distractor_diamondtriangles.svg	23	yes	57	0	500
6.6.1	win	2022-12-14	13:28:25	13:31:55	208392	570b7b5fb9b52b00102d96f9	502717121	1	main_slash	7	main_slash	59	stimuli_distractor_diamondtriangles.svg	stimuli_distractor_diamondtriangles.svg	39	no	0	1	2000
6.6.1	win	2022-12-14	13:28:25	13:31:55	208392	570b7b5fb9b52b00102d96f9	502717121	1	main_slash	7	advance_on_keypress_SLASH	60	stimuli_distractor_diamondtriangles.svg	stimuli_distractor_diamondtriangles.svg	39	no	57	0	328
6.6.1	win	2022-12-14	13:28:25	13:31:57	210293	570b7b5fb9b52b00102d96f9	502717121	1	main_slash	7	main_slash	61	stimuli_distractor_diamondtriangles.svg	stimuli_target_squarediamonds.svg	16	yes	53	1	932
6.6.1	win	2022-12-14	13:28:25	13:31:57	210293	570b7b5fb9b52b00102d96f9	502717121	1	main_slash	7	advance_on_keypress_SLASH	62	stimuli_distractor_diamondtriangles.svg	stimuli_target_squarediamonds.svg	16	yes	57	0	457
6.6.1	win	2022-12-14	13:28:25	13:31:59	212220	570b7b5fb9b52b00102d96f9	502717121	1	main_slash	7	main_slash	63	stimuli_distractor_trianglediamonds.svg	stimuli_target_squaretriangles.svg	11	yes	53	1	833
6.6.1	win	2022-12-14	13:28:25	13:31:59	212220	570b7b5fb9b52b00102d96f9	502717121	1	main_slash	7	advance_on_keypress_SLASH	64	stimuli_distractor_trianglediamonds.svg	stimuli_target_squaretriangles.svg	11	yes	57	0	406
6.6.1	win	2022-12-14	13:28:25	13:32:00	213969	570b7b5fb9b52b00102d96f9	502717121	1	main_slash	7	main_slash	65	stimuli_target_squarediamonds.svg	stimuli_distractor_diamondtriangles.svg	8	yes	53	1	704
6.6.1	win	2022-12-14	13:28:25	13:32:00	213969	570b7b5fb9b52b00102d96f9	502717121	1	main_slash	7	advance_on_keypress_SLASH	66	stimuli_target_squarediamonds.svg	stimuli_distractor_diamondtriangles.svg	8	yes	57	0	399
6.6.1	win	2022-12-14	13:28:25	13:32:02	215796	570b7b5fb9b52b00102d96f9	502717121	1	main_slash	7	main_slash	67	stimuli_distractor_diamondtriangles.svg	stimuli_target_trianglecircles.svg	29	yes	53	1	781
6.6.1	win	2022-12-14	13:28:25	13:32:02	215796	570b7b5fb9b52b00102d96f9	502717121	1	main_slash	7	advance_on_keypress_SLASH	68	stimuli_distractor_diamondtriangles.svg	stimuli_target_trianglecircles.svg	29	yes	57	0	384
6.6.1	win	2022-12-14	13:28:25	13:32:05	218817	570b7b5fb9b52b00102d96f9	502717121	1	main_slash	7	main_slash	69	stimuli_distractor_diamondtriangles.svg	stimuli_distractor_diamondtriangles.svg	40	no	0	1	2000
6.6.1	win	2022-12-14	13:28:25	13:32:05	218817	570b7b5fb9b52b00102d96f9	502717121	1	main_slash	7	advance_on_keypress_SLASH	70	stimuli_distractor_diamondtriangles.svg	stimuli_distractor_diamondtriangles.svg	40	no	57	0	429
6.6.1	win	2022-12-14	13:28:25	13:32:07	220804	570b7b5fb9b52b00102d96f9	502717121	1	main_slash	7	main_slash	71	stimuli_target_circletriangles.svg	stimuli_distractor_trianglediamonds.svg	1	yes	53	1	935
6.6.1	win	2022-12-14	13:28:25	13:32:07	220804	570b7b5fb9b52b00102d96f9	502717121	1	main_slash	7	advance_on_keypress_SLASH	72	stimuli_target_circletriangles.svg	stimuli_distractor_trianglediamonds.svg	1	yes	57	0	404
6.6.1	win	2022-12-14	13:28:25	13:32:09	222585	570b7b5fb9b52b00102d96f9	502717121	1	main_slash	7	main_slash	73	stimuli_target_squaretriangles.svg	stimuli_distractor_trianglediamonds.svg	3	yes	53	1	730
6.6.1	win	2022-12-14	13:28:25	13:32:09	222585	570b7b5fb9b52b00102d96f9	502717121	1	main_slash	7	advance_on_keypress_SLASH	74	stimuli_target_squaretriangles.svg	stimuli_distractor_trianglediamonds.svg	3	yes	57	0	371
6.6.1	win	2022-12-14	13:28:25	13:32:11	224449	570b7b5fb9b52b00102d96f9	502717121	1	main_slash	7	main_slash	75	stimuli_target_trianglesquares.svg	stimuli_distractor_trianglediamonds.svg	18	yes	53	1	859
6.6.1	win	2022-12-14	13:28:25	13:32:11	224449	570b7b5fb9b52b00102d96f9	502717121	1	main_slash	7	advance_on_keypress_SLASH	76	stimuli_target_trianglesquares.svg	stimuli_distractor_trianglediamonds.svg	18	yes	57	0	411
6.6.1	win	2022-12-14	13:28:25	13:32:14	227516	570b7b5fb9b52b00102d96f9	502717121	1	main_slash	7	main_slash	77	stimuli_distractor_diamondtriangles.svg	stimuli_distractor_trianglediamonds.svg	38	no	0	1	2000
6.6.1	win	2022-12-14	13:28:25	13:32:14	227516	570b7b5fb9b52b00102d96f9	502717121	1	main_slash	7	advance_on_keypress_SLASH	78	stimuli_distractor_diamondtriangles.svg	stimuli_distractor_trianglediamonds.svg	38	no	57	0	509
6.6.1	win	2022-12-14	13:28:25	13:32:16	229660	570b7b5fb9b52b00102d96f9	502717121	1	main_slash	7	main_slash	79	stimuli_distractor_trianglediamonds.svg	stimuli_target_circletriangles.svg	9	yes	53	1	983
6.6.1	win	2022-12-14	13:28:25	13:32:16	229660	570b7b5fb9b52b00102d96f9	502717121	1	main_slash	7	advance_on_keypress_SLASH	80	stimuli_distractor_trianglediamonds.svg	stimuli_target_circletriangles.svg	9	yes	57	0	562
6.6.1	win	2022-12-14	13:28:25	13:32:18	231532	570b7b5fb9b52b00102d96f9	502717121	1	main_slash	7	main_slash	81	stimuli_target_squarediamonds.svg	stimuli_distractor_trianglediamonds.svg	4	yes	53	1	686
6.6.1	win	2022-12-14	13:28:25	13:32:18	231532	570b7b5fb9b52b00102d96f9	502717121	1	main_slash	7	advance_on_keypress_SLASH	82	stimuli_target_squarediamonds.svg	stimuli_distractor_trianglediamonds.svg	4	yes	57	0	401
6.6.1	win	2022-12-14	13:28:25	13:32:20	233205	570b7b5fb9b52b00102d96f9	502717121	1	main_slash	7	main_slash	83	stimuli_target_squarediamonds.svg	stimuli_distractor_diamondtriangles.svg	8	yes	53	1	623
6.6.1	win	2022-12-14	13:28:25	13:32:20	233205	570b7b5fb9b52b00102d96f9	502717121	1	main_slash	7	advance_on_keypress_SLASH	84	stimuli_target_squarediamonds.svg	stimuli_distractor_diamondtriangles.svg	8	yes	57	0	413
6.6.1	win	2022-12-14	13:28:25	13:32:23	236265	570b7b5fb9b52b00102d96f9	502717121	1	main_slash	7	main_slash	85	stimuli_distractor_trianglediamonds.svg	stimuli_distractor_trianglediamonds.svg	33	no	0	1	2000
6.6.1	win	2022-12-14	13:28:25	13:32:23	236265	570b7b5fb9b52b00102d96f9	502717121	1	main_slash	7	advance_on_keypress_SLASH	86	stimuli_distractor_trianglediamonds.svg	stimuli_distractor_trianglediamonds.svg	33	no	57	0	844
6.6.1	win	2022-12-14	13:28:25	13:32:25	238434	570b7b5fb9b52b00102d96f9	502717121	1	main_slash	7	main_slash	87	stimuli_target_circletriangles.svg	stimuli_distractor_trianglediamonds.svg	1	yes	53	1	693
6.6.1	win	2022-12-14	13:28:25	13:32:25	238434	570b7b5fb9b52b00102d96f9	502717121	1	main_slash	7	advance_on_keypress_SLASH	88	stimuli_target_circletriangles.svg	stimuli_distractor_trianglediamonds.svg	1	yes	57	0	371
6.6.1	win	2022-12-14	13:28:25	13:32:27	240195	570b7b5fb9b52b00102d96f9	502717121	1	main_slash	7	main_slash	89	stimuli_distractor_diamondtriangles.svg	stimuli_target_diamondsquares.svg	32	yes	53	1	714
6.6.1	win	2022-12-14	13:28:25	13:32:27	240195	570b7b5fb9b52b00102d96f9	502717121	1	main_slash	7	advance_on_keypress_SLASH	90	stimuli_distractor_diamondtriangles.svg	stimuli_target_diamondsquares.svg	32	yes	57	0	376
6.6.1	win	2022-12-14	13:28:25	13:32:28	241876	570b7b5fb9b52b00102d96f9	502717121	1	main_slash	7	main_slash	91	stimuli_distractor_trianglediamonds.svg	stimuli_target_squarediamonds.svg	12	yes	53	1	671
6.6.1	win	2022-12-14	13:28:25	13:32:28	241876	570b7b5fb9b52b00102d96f9	502717121	1	main_slash	7	advance_on_keypress_SLASH	92	stimuli_distractor_trianglediamonds.svg	stimuli_target_squarediamonds.svg	12	yes	57	0	382
6.6.1	win	2022-12-14	13:28:25	13:32:30	243586	570b7b5fb9b52b00102d96f9	502717121	1	main_slash	7	main_slash	93	stimuli_target_squaretriangles.svg	stimuli_distractor_trianglediamonds.svg	3	yes	53	1	681
6.6.1	win	2022-12-14	13:28:25	13:32:30	243586	570b7b5fb9b52b00102d96f9	502717121	1	main_slash	7	advance_on_keypress_SLASH	94	stimuli_target_squaretriangles.svg	stimuli_distractor_trianglediamonds.svg	3	yes	57	0	385
6.6.1	win	2022-12-14	13:28:25	13:32:33	246607	570b7b5fb9b52b00102d96f9	502717121	1	main_slash	7	main_slash	95	stimuli_distractor_diamondtriangles.svg	stimuli_distractor_diamondtriangles.svg	40	no	0	1	2000
6.6.1	win	2022-12-14	13:28:25	13:32:33	246607	570b7b5fb9b52b00102d96f9	502717121	1	main_slash	7	advance_on_keypress_SLASH	96	stimuli_distractor_diamondtriangles.svg	stimuli_distractor_diamondtriangles.svg	40	no	57	0	397
6.6.1	win	2022-12-14	13:28:25	13:32:35	248295	570b7b5fb9b52b00102d96f9	502717121	1	main_slash	7	main_slash	97	stimuli_distractor_trianglediamonds.svg	stimuli_target_diamondcircles.svg	27	yes	53	1	652
6.6.1	win	2022-12-14	13:28:25	13:32:35	248295	570b7b5fb9b52b00102d96f9	502717121	1	main_slash	7	advance_on_keypress_SLASH	98	stimuli_distractor_trianglediamonds.svg	stimuli_target_diamondcircles.svg	27	yes	57	0	460
6.6.1	win	2022-12-14	13:28:25	13:32:36	249994	570b7b5fb9b52b00102d96f9	502717121	1	main_slash	7	main_slash	99	stimuli_distractor_trianglediamonds.svg	stimuli_target_diamondsquares.svg	28	yes	53	1	600
6.6.1	win	2022-12-14	13:28:25	13:32:36	249994	570b7b5fb9b52b00102d96f9	502717121	1	main_slash	7	advance_on_keypress_SLASH	100	stimuli_distractor_trianglediamonds.svg	stimuli_target_diamondsquares.svg	28	yes	57	0	323
6.6.1	win	2022-12-14	13:28:25	13:32:39	252962	570b7b5fb9b52b00102d96f9	502717121	1	main_slash	7	main_slash	101	stimuli_distractor_trianglediamonds.svg	stimuli_distractor_trianglediamonds.svg	34	no	0	1	2000
6.6.1	win	2022-12-14	13:28:25	13:32:39	252962	570b7b5fb9b52b00102d96f9	502717121	1	main_slash	7	advance_on_keypress_SLASH	102	stimuli_distractor_trianglediamonds.svg	stimuli_distractor_trianglediamonds.svg	34	no	57	0	286
6.6.1	win	2022-12-14	13:28:25	13:32:42	255898	570b7b5fb9b52b00102d96f9	502717121	1	main_slash	7	main_slash	103	stimuli_distractor_trianglediamonds.svg	stimuli_distractor_diamondtriangles.svg	35	no	0	1	2000
6.6.1	win	2022-12-14	13:28:25	13:32:42	255898	570b7b5fb9b52b00102d96f9	502717121	1	main_slash	7	advance_on_keypress_SLASH	104	stimuli_distractor_trianglediamonds.svg	stimuli_distractor_diamondtriangles.svg	35	no	57	0	326
6.6.1	win	2022-12-14	13:28:25	13:32:44	257533	570b7b5fb9b52b00102d96f9	502717121	1	main_slash	7	main_slash	105	stimuli_distractor_diamondtriangles.svg	stimuli_target_squaretriangles.svg	15	yes	53	1	668
6.6.1	win	2022-12-14	13:28:25	13:32:44	257533	570b7b5fb9b52b00102d96f9	502717121	1	main_slash	7	advance_on_keypress_SLASH	106	stimuli_distractor_diamondtriangles.svg	stimuli_target_squaretriangles.svg	15	yes	57	0	351
6.6.1	win	2022-12-14	13:28:25	13:32:47	260535	570b7b5fb9b52b00102d96f9	502717121	1	main_slash	7	main_slash	107	stimuli_distractor_diamondtriangles.svg	stimuli_distractor_trianglediamonds.svg	38	no	0	1	2000
6.6.1	win	2022-12-14	13:28:25	13:32:47	260535	570b7b5fb9b52b00102d96f9	502717121	1	main_slash	7	advance_on_keypress_SLASH	108	stimuli_distractor_diamondtriangles.svg	stimuli_distractor_trianglediamonds.svg	38	no	57	0	572
6.6.1	win	2022-12-14	13:28:25	13:32:49	262406	570b7b5fb9b52b00102d96f9	502717121	1	main_slash	7	main_slash	109	stimuli_distractor_trianglediamonds.svg	stimuli_target_circlediamonds.svg	10	yes	53	1	668
6.6.1	win	2022-12-14	13:28:25	13:32:49	262406	570b7b5fb9b52b00102d96f9	502717121	1	main_slash	7	advance_on_keypress_SLASH	110	stimuli_distractor_trianglediamonds.svg	stimuli_target_circlediamonds.svg	10	yes	57	0	355
6.6.1	win	2022-12-14	13:28:25	13:32:51	264062	570b7b5fb9b52b00102d96f9	502717121	1	main_slash	7	main_slash	111	stimuli_distractor_diamondtriangles.svg	stimuli_target_circletriangles.svg	13	yes	53	1	639
6.6.1	win	2022-12-14	13:28:25	13:32:51	264062	570b7b5fb9b52b00102d96f9	502717121	1	main_slash	7	advance_on_keypress_SLASH	112	stimuli_distractor_diamondtriangles.svg	stimuli_target_circletriangles.svg	13	yes	57	0	348
6.6.1	win	2022-12-14	13:28:25	13:32:52	265778	570b7b5fb9b52b00102d96f9	502717121	1	main_slash	7	main_slash	113	stimuli_target_diamondsquares.svg	stimuli_distractor_diamondtriangles.svg	24	yes	53	1	738
6.6.1	win	2022-12-14	13:28:25	13:32:52	265778	570b7b5fb9b52b00102d96f9	502717121	1	main_slash	7	advance_on_keypress_SLASH	114	stimuli_target_diamondsquares.svg	stimuli_distractor_diamondtriangles.svg	24	yes	57	0	378
6.6.1	win	2022-12-14	13:28:25	13:32:55	268793	570b7b5fb9b52b00102d96f9	502717121	1	main_slash	7	main_slash	115	stimuli_distractor_diamondtriangles.svg	stimuli_distractor_diamondtriangles.svg	39	no	0	1	2000
6.6.1	win	2022-12-14	13:28:25	13:32:55	268793	570b7b5fb9b52b00102d96f9	502717121	1	main_slash	7	advance_on_keypress_SLASH	116	stimuli_distractor_diamondtriangles.svg	stimuli_distractor_diamondtriangles.svg	39	no	57	0	539
6.6.1	win	2022-12-14	13:28:25	13:32:57	270602	570b7b5fb9b52b00102d96f9	502717121	1	main_slash	7	main_slash	117	stimuli_distractor_diamondtriangles.svg	stimuli_target_trianglecircles.svg	29	yes	53	1	607
6.6.1	win	2022-12-14	13:28:25	13:32:57	270602	570b7b5fb9b52b00102d96f9	502717121	1	main_slash	7	advance_on_keypress_SLASH	118	stimuli_distractor_diamondtriangles.svg	stimuli_target_trianglecircles.svg	29	yes	57	0	365
6.6.1	win	2022-12-14	13:28:25	13:33:00	273613	570b7b5fb9b52b00102d96f9	502717121	1	main_slash	7	main_slash	119	stimuli_distractor_trianglediamonds.svg	stimuli_distractor_diamondtriangles.svg	36	no	0	1	2000
6.6.1	win	2022-12-14	13:28:25	13:33:00	273613	570b7b5fb9b52b00102d96f9	502717121	1	main_slash	7	advance_on_keypress_SLASH	120	stimuli_distractor_trianglediamonds.svg	stimuli_distractor_diamondtriangles.svg	36	no	57	0	530
6.6.1	win	2022-12-14	13:28:25	13:33:02	275490	570b7b5fb9b52b00102d96f9	502717121	1	main_slash	7	main_slash	121	stimuli_distractor_trianglediamonds.svg	stimuli_target_circletriangles.svg	9	yes	53	1	691
6.6.1	win	2022-12-14	13:28:25	13:33:02	275490	570b7b5fb9b52b00102d96f9	502717121	1	main_slash	7	advance_on_keypress_SLASH	122	stimuli_distractor_trianglediamonds.svg	stimuli_target_circletriangles.svg	9	yes	57	0	373
6.6.1	win	2022-12-14	13:28:25	13:33:04	277149	570b7b5fb9b52b00102d96f9	502717121	1	main_slash	7	main_slash	123	stimuli_target_diamondsquares.svg	stimuli_distractor_trianglediamonds.svg	20	yes	53	1	648
6.6.1	win	2022-12-14	13:28:25	13:33:04	277149	570b7b5fb9b52b00102d96f9	502717121	1	main_slash	7	advance_on_keypress_SLASH	124	stimuli_target_diamondsquares.svg	stimuli_distractor_trianglediamonds.svg	20	yes	57	0	409
6.6.1	win	2022-12-14	13:28:25	13:33:06	279125	570b7b5fb9b52b00102d96f9	502717121	1	main_slash	7	main_slash	125	stimuli_distractor_diamondtriangles.svg	stimuli_target_squarediamonds.svg	16	yes	53	1	940
6.6.1	win	2022-12-14	13:28:25	13:33:06	279125	570b7b5fb9b52b00102d96f9	502717121	1	main_slash	7	advance_on_keypress_SLASH	126	stimuli_distractor_diamondtriangles.svg	stimuli_target_squarediamonds.svg	16	yes	57	0	429
6.6.1	win	2022-12-14	13:28:25	13:33:07	280925	570b7b5fb9b52b00102d96f9	502717121	1	main_slash	7	main_slash	127	stimuli_target_diamondcircles.svg	stimuli_distractor_diamondtriangles.svg	23	yes	53	1	738
6.6.1	win	2022-12-14	13:28:25	13:33:07	280925	570b7b5fb9b52b00102d96f9	502717121	1	main_slash	7	advance_on_keypress_SLASH	128	stimuli_target_diamondcircles.svg	stimuli_distractor_diamondtriangles.svg	23	yes	57	0	355
6.6.1	win	2022-12-14	13:28:25	13:33:09	282597	570b7b5fb9b52b00102d96f9	502717121	1	main_slash	7	main_slash	129	stimuli_target_squaretriangles.svg	stimuli_distractor_diamondtriangles.svg	7	yes	53	1	675
6.6.1	win	2022-12-14	13:28:25	13:33:09	282597	570b7b5fb9b52b00102d96f9	502717121	1	main_slash	7	advance_on_keypress_SLASH	130	stimuli_target_squaretriangles.svg	stimuli_distractor_diamondtriangles.svg	7	yes	57	0	371
6.6.1	win	2022-12-14	13:28:25	13:33:11	284301	570b7b5fb9b52b00102d96f9	502717121	1	main_slash	7	main_slash	131	stimuli_target_circlediamonds.svg	stimuli_distractor_trianglediamonds.svg	2	yes	53	1	695
6.6.1	win	2022-12-14	13:28:25	13:33:11	284301	570b7b5fb9b52b00102d96f9	502717121	1	main_slash	7	advance_on_keypress_SLASH	132	stimuli_target_circlediamonds.svg	stimuli_distractor_trianglediamonds.svg	2	yes	57	0	386
6.6.1	win	2022-12-14	13:28:25	13:33:13	286001	570b7b5fb9b52b00102d96f9	502717121	1	main_slash	7	main_slash	133	stimuli_distractor_trianglediamonds.svg	stimuli_target_trianglesquares.svg	26	yes	53	1	660
6.6.1	win	2022-12-14	13:28:25	13:33:13	286001	570b7b5fb9b52b00102d96f9	502717121	1	main_slash	7	advance_on_keypress_SLASH	134	stimuli_distractor_trianglediamonds.svg	stimuli_target_trianglesquares.svg	26	yes	57	0	392
6.6.1	win	2022-12-14	13:28:25	13:33:14	287641	570b7b5fb9b52b00102d96f9	502717121	1	main_slash	7	main_slash	135	stimuli_target_trianglecircles.svg	stimuli_distractor_diamondtriangles.svg	21	yes	53	1	615
6.6.1	win	2022-12-14	13:28:25	13:33:14	287641	570b7b5fb9b52b00102d96f9	502717121	1	main_slash	7	advance_on_keypress_SLASH	136	stimuli_target_trianglecircles.svg	stimuli_distractor_diamondtriangles.svg	21	yes	57	0	393
6.6.1	win	2022-12-14	13:28:25	13:33:16	289346	570b7b5fb9b52b00102d96f9	502717121	1	main_slash	7	main_slash	137	stimuli_target_circletriangles.svg	stimuli_distractor_diamondtriangles.svg	5	yes	53	1	684
6.6.1	win	2022-12-14	13:28:25	13:33:16	289346	570b7b5fb9b52b00102d96f9	502717121	1	main_slash	7	advance_on_keypress_SLASH	138	stimuli_target_circletriangles.svg	stimuli_distractor_diamondtriangles.svg	5	yes	57	0	339
6.6.1	win	2022-12-14	13:28:25	13:33:17	290944	570b7b5fb9b52b00102d96f9	502717121	1	main_slash	7	main_slash	139	stimuli_target_circlediamonds.svg	stimuli_distractor_diamondtriangles.svg	6	yes	53	1	616
6.6.1	win	2022-12-14	13:28:25	13:33:17	290944	570b7b5fb9b52b00102d96f9	502717121	1	main_slash	7	advance_on_keypress_SLASH	140	stimuli_target_circlediamonds.svg	stimuli_distractor_diamondtriangles.svg	6	yes	57	0	354
6.6.1	win	2022-12-14	13:28:25	13:33:19	292772	570b7b5fb9b52b00102d96f9	502717121	1	main_slash	7	main_slash	141	stimuli_distractor_trianglediamonds.svg	stimuli_target_squaretriangles.svg	11	yes	53	1	825
6.6.1	win	2022-12-14	13:28:25	13:33:19	292772	570b7b5fb9b52b00102d96f9	502717121	1	main_slash	7	advance_on_keypress_SLASH	142	stimuli_distractor_trianglediamonds.svg	stimuli_target_squaretriangles.svg	11	yes	57	0	379
6.6.1	win	2022-12-14	13:28:25	13:33:21	294448	570b7b5fb9b52b00102d96f9	502717121	1	main_slash	7	main_slash	143	stimuli_distractor_trianglediamonds.svg	stimuli_target_trianglecircles.svg	25	yes	53	1	650
6.6.1	win	2022-12-14	13:28:25	13:33:21	294448	570b7b5fb9b52b00102d96f9	502717121	1	main_slash	7	advance_on_keypress_SLASH	144	stimuli_distractor_trianglediamonds.svg	stimuli_target_trianglecircles.svg	25	yes	57	0	398
6.6.1	win	2022-12-14	13:28:25	13:33:23	296260	570b7b5fb9b52b00102d96f9	502717121	1	main_slash	7	main_slash	145	stimuli_target_trianglesquares.svg	stimuli_distractor_trianglediamonds.svg	18	yes	53	1	777
6.6.1	win	2022-12-14	13:28:25	13:33:23	296260	570b7b5fb9b52b00102d96f9	502717121	1	main_slash	7	advance_on_keypress_SLASH	146	stimuli_target_trianglesquares.svg	stimuli_distractor_trianglediamonds.svg	18	yes	57	0	389
6.6.1	win	2022-12-14	13:28:25	13:33:26	299284	570b7b5fb9b52b00102d96f9	502717121	1	main_slash	7	main_slash	147	stimuli_distractor_diamondtriangles.svg	stimuli_target_circlediamonds.svg	14	yes	0	0	2000
6.6.1	win	2022-12-14	13:28:25	13:33:26	299284	570b7b5fb9b52b00102d96f9	502717121	1	main_slash	7	advance_on_keypress_SLASH	148	stimuli_distractor_diamondtriangles.svg	stimuli_target_circlediamonds.svg	14	yes	57	0	645
6.6.1	win	2022-12-14	13:28:25	13:33:28	301203	570b7b5fb9b52b00102d96f9	502717121	1	main_slash	7	main_slash	149	stimuli_distractor_diamondtriangles.svg	stimuli_target_diamondcircles.svg	31	yes	53	1	650
6.6.1	win	2022-12-14	13:28:25	13:33:28	301203	570b7b5fb9b52b00102d96f9	502717121	1	main_slash	7	advance_on_keypress_SLASH	150	stimuli_distractor_diamondtriangles.svg	stimuli_target_diamondcircles.svg	31	yes	57	0	355
6.6.1	win	2022-12-14	13:28:25	13:33:29	302868	570b7b5fb9b52b00102d96f9	502717121	1	main_slash	7	main_slash	151	stimuli_target_diamondcircles.svg	stimuli_distractor_trianglediamonds.svg	19	yes	53	1	663
6.6.1	win	2022-12-14	13:28:25	13:33:29	302868	570b7b5fb9b52b00102d96f9	502717121	1	main_slash	7	advance_on_keypress_SLASH	152	stimuli_target_diamondcircles.svg	stimuli_distractor_trianglediamonds.svg	19	yes	57	0	343
6.6.1	win	2022-12-14	13:28:25	13:33:32	305856	570b7b5fb9b52b00102d96f9	502717121	1	main_slash	7	main_slash	153	stimuli_distractor_diamondtriangles.svg	stimuli_distractor_trianglediamonds.svg	37	no	0	1	2000
6.6.1	win	2022-12-14	13:28:25	13:33:32	305856	570b7b5fb9b52b00102d96f9	502717121	1	main_slash	7	advance_on_keypress_SLASH	154	stimuli_distractor_diamondtriangles.svg	stimuli_distractor_trianglediamonds.svg	37	no	57	0	889
6.6.1	win	2022-12-14	13:28:25	13:33:35	308136	570b7b5fb9b52b00102d96f9	502717121	1	main_slash	7	main_slash	155	stimuli_target_trianglesquares.svg	stimuli_distractor_diamondtriangles.svg	22	yes	53	1	760
6.6.1	win	2022-12-14	13:28:25	13:33:35	308136	570b7b5fb9b52b00102d96f9	502717121	1	main_slash	7	advance_on_keypress_SLASH	156	stimuli_target_trianglesquares.svg	stimuli_distractor_diamondtriangles.svg	22	yes	57	0	348
6.6.1	win	2022-12-14	13:28:25	13:33:36	309765	570b7b5fb9b52b00102d96f9	502717121	1	main_slash	7	main_slash	157	stimuli_distractor_diamondtriangles.svg	stimuli_target_trianglesquares.svg	30	yes	53	1	623
6.6.1	win	2022-12-14	13:28:25	13:33:36	309765	570b7b5fb9b52b00102d96f9	502717121	1	main_slash	7	advance_on_keypress_SLASH	158	stimuli_distractor_diamondtriangles.svg	stimuli_target_trianglesquares.svg	30	yes	57	0	324
6.6.1	win	2022-12-14	13:28:25	13:33:38	311365	570b7b5fb9b52b00102d96f9	502717121	1	main_slash	7	main_slash	159	stimuli_target_trianglecircles.svg	stimuli_distractor_trianglediamonds.svg	17	yes	53	1	625
6.6.1	win	2022-12-14	13:28:25	13:33:38	311365	570b7b5fb9b52b00102d96f9	502717121	1	main_slash	7	advance_on_keypress_SLASH	160	stimuli_target_trianglecircles.svg	stimuli_distractor_trianglediamonds.svg	17	yes	57	0	355
6.6.1	win	2022-12-14	13:28:25	13:33:56	329234	570b7b5fb9b52b00102d96f9	502717121	1	practice_z	9	practice_z	1	stimuli_distractor_diamondtriangles.svg	stimuli_target_circletriangles.svg	7	yes	44	1	658
6.6.1	win	2022-12-14	13:28:25	13:33:56	329234	570b7b5fb9b52b00102d96f9	502717121	1	practice_z	9	advance_on_keypress_ZEE	2	stimuli_distractor_diamondtriangles.svg	stimuli_target_circletriangles.svg	7	yes	57	0	513
6.6.1	win	2022-12-14	13:28:25	13:33:59	332190	570b7b5fb9b52b00102d96f9	502717121	1	practice_z	9	practice_z	3	stimuli_target_circlediamonds.svg	stimuli_distractor_trianglediamonds.svg	4	yes	44	1	795
6.6.1	win	2022-12-14	13:28:25	13:33:59	332190	570b7b5fb9b52b00102d96f9	502717121	1	practice_z	9	advance_on_keypress_ZEE	4	stimuli_target_circlediamonds.svg	stimuli_distractor_trianglediamonds.svg	4	yes	57	0	609
6.6.1	win	2022-12-14	13:28:25	13:34:02	335018	570b7b5fb9b52b00102d96f9	502717121	1	practice_z	9	practice_z	5	stimuli_target_circlediamonds.svg	stimuli_distractor_diamondtriangles.svg	1	yes	44	1	587
6.6.1	win	2022-12-14	13:28:25	13:34:02	335018	570b7b5fb9b52b00102d96f9	502717121	1	practice_z	9	advance_on_keypress_ZEE	6	stimuli_target_circlediamonds.svg	stimuli_distractor_diamondtriangles.svg	1	yes	57	0	277
6.6.1	win	2022-12-14	13:28:25	13:34:05	338074	570b7b5fb9b52b00102d96f9	502717121	1	practice_z	9	practice_z	7	stimuli_distractor_trianglediamonds.svg	stimuli_target_squarediamonds.svg	11	yes	44	1	1141
6.6.1	win	2022-12-14	13:28:25	13:34:05	338074	570b7b5fb9b52b00102d96f9	502717121	1	practice_z	9	advance_on_keypress_ZEE	8	stimuli_distractor_trianglediamonds.svg	stimuli_target_squarediamonds.svg	11	yes	57	0	357
6.6.1	win	2022-12-14	13:28:25	13:34:07	340650	570b7b5fb9b52b00102d96f9	502717121	1	practice_z	9	practice_z	9	stimuli_target_squarediamonds.svg	stimuli_distractor_trianglediamonds.svg	5	yes	44	1	557
6.6.1	win	2022-12-14	13:28:25	13:34:07	340650	570b7b5fb9b52b00102d96f9	502717121	1	practice_z	9	advance_on_keypress_ZEE	10	stimuli_target_squarediamonds.svg	stimuli_distractor_trianglediamonds.svg	5	yes	57	0	240
6.6.1	win	2022-12-14	13:28:25	13:34:10	343254	570b7b5fb9b52b00102d96f9	502717121	1	practice_z	9	practice_z	11	stimuli_target_diamondsquares.svg	stimuli_distractor_trianglediamonds.svg	6	yes	44	1	733
6.6.1	win	2022-12-14	13:28:25	13:34:10	343254	570b7b5fb9b52b00102d96f9	502717121	1	practice_z	9	advance_on_keypress_ZEE	12	stimuli_target_diamondsquares.svg	stimuli_distractor_trianglediamonds.svg	6	yes	57	0	253
6.6.1	win	2022-12-14	13:28:25	13:34:14	347140	570b7b5fb9b52b00102d96f9	502717121	1	practice_z	9	practice_z	13	stimuli_distractor_diamondtriangles.svg	stimuli_distractor_diamondtriangles.svg	13	no	0	1	2000
6.6.1	win	2022-12-14	13:28:25	13:34:14	347140	570b7b5fb9b52b00102d96f9	502717121	1	practice_z	9	advance_on_keypress_ZEE	14	stimuli_distractor_diamondtriangles.svg	stimuli_distractor_diamondtriangles.svg	13	no	57	0	390
6.6.1	win	2022-12-14	13:28:25	13:34:18	351201	570b7b5fb9b52b00102d96f9	502717121	1	practice_z	9	practice_z	15	stimuli_distractor_trianglediamonds.svg	stimuli_distractor_diamondtriangles.svg	16	no	0	1	2000
6.6.1	win	2022-12-14	13:28:25	13:34:18	351201	570b7b5fb9b52b00102d96f9	502717121	1	practice_z	9	advance_on_keypress_ZEE	16	stimuli_distractor_trianglediamonds.svg	stimuli_distractor_diamondtriangles.svg	16	no	57	0	304
6.6.1	win	2022-12-14	13:28:25	13:34:20	353910	570b7b5fb9b52b00102d96f9	502717121	1	practice_z	9	practice_z	17	stimuli_distractor_trianglediamonds.svg	stimuli_target_diamondcircles.svg	12	yes	44	1	722
6.6.1	win	2022-12-14	13:28:25	13:34:20	353910	570b7b5fb9b52b00102d96f9	502717121	1	practice_z	9	advance_on_keypress_ZEE	18	stimuli_distractor_trianglediamonds.svg	stimuli_target_diamondcircles.svg	12	yes	57	0	286
6.6.1	win	2022-12-14	13:28:25	13:34:24	357833	570b7b5fb9b52b00102d96f9	502717121	1	practice_z	9	practice_z	19	stimuli_distractor_diamondtriangles.svg	stimuli_distractor_trianglediamonds.svg	14	no	0	1	2000
6.6.1	win	2022-12-14	13:28:25	13:34:24	357833	570b7b5fb9b52b00102d96f9	502717121	1	practice_z	9	advance_on_keypress_ZEE	20	stimuli_distractor_diamondtriangles.svg	stimuli_distractor_trianglediamonds.svg	14	no	57	0	266
6.6.1	win	2022-12-14	13:28:25	13:34:27	360396	570b7b5fb9b52b00102d96f9	502717121	1	practice_z	9	practice_z	21	stimuli_distractor_diamondtriangles.svg	stimuli_target_diamondcircles.svg	8	yes	44	1	661
6.6.1	win	2022-12-14	13:28:25	13:34:27	360396	570b7b5fb9b52b00102d96f9	502717121	1	practice_z	9	advance_on_keypress_ZEE	22	stimuli_distractor_diamondtriangles.svg	stimuli_target_diamondcircles.svg	8	yes	57	0	368
6.6.1	win	2022-12-14	13:28:25	13:34:30	363016	570b7b5fb9b52b00102d96f9	502717121	1	practice_z	9	practice_z	23	stimuli_distractor_trianglediamonds.svg	stimuli_target_circlediamonds.svg	10	yes	44	1	612
6.6.1	win	2022-12-14	13:28:25	13:34:30	363016	570b7b5fb9b52b00102d96f9	502717121	1	practice_z	9	advance_on_keypress_ZEE	24	stimuli_distractor_trianglediamonds.svg	stimuli_target_circlediamonds.svg	10	yes	57	0	181
6.6.1	win	2022-12-14	13:28:25	13:34:33	366857	570b7b5fb9b52b00102d96f9	502717121	1	practice_z	9	practice_z	25	stimuli_distractor_trianglediamonds.svg	stimuli_distractor_trianglediamonds.svg	15	no	0	1	2000
6.6.1	win	2022-12-14	13:28:25	13:34:33	366857	570b7b5fb9b52b00102d96f9	502717121	1	practice_z	9	advance_on_keypress_ZEE	26	stimuli_distractor_trianglediamonds.svg	stimuli_distractor_trianglediamonds.svg	15	no	57	0	437
6.6.1	win	2022-12-14	13:28:25	13:34:36	369536	570b7b5fb9b52b00102d96f9	502717121	1	practice_z	9	practice_z	27	stimuli_target_squarediamonds.svg	stimuli_distractor_diamondtriangles.svg	2	yes	44	1	610
6.6.1	win	2022-12-14	13:28:25	13:34:36	369536	570b7b5fb9b52b00102d96f9	502717121	1	practice_z	9	advance_on_keypress_ZEE	28	stimuli_target_squarediamonds.svg	stimuli_distractor_diamondtriangles.svg	2	yes	57	0	407
6.6.1	win	2022-12-14	13:28:25	13:34:39	372231	570b7b5fb9b52b00102d96f9	502717121	1	practice_z	9	practice_z	29	stimuli_distractor_diamondtriangles.svg	stimuli_target_trianglecircles.svg	9	yes	44	1	653
6.6.1	win	2022-12-14	13:28:25	13:34:39	372231	570b7b5fb9b52b00102d96f9	502717121	1	practice_z	9	advance_on_keypress_ZEE	30	stimuli_distractor_diamondtriangles.svg	stimuli_target_trianglecircles.svg	9	yes	57	0	434
6.6.1	win	2022-12-14	13:28:25	13:34:41	374940	570b7b5fb9b52b00102d96f9	502717121	1	practice_z	9	practice_z	31	stimuli_target_diamondsquares.svg	stimuli_distractor_diamondtriangles.svg	3	yes	44	1	626
6.6.1	win	2022-12-14	13:28:25	13:34:41	374940	570b7b5fb9b52b00102d96f9	502717121	1	practice_z	9	advance_on_keypress_ZEE	32	stimuli_target_diamondsquares.svg	stimuli_distractor_diamondtriangles.svg	3	yes	57	0	671
6.6.1	win	2022-12-14	13:28:25	13:34:51	384272	570b7b5fb9b52b00102d96f9	502717121	1	main_z	11	main_z	1	stimuli_distractor_diamondtriangles.svg	stimuli_distractor_trianglediamonds.svg	38	no	0	1	2000
6.6.1	win	2022-12-14	13:28:25	13:34:51	384272	570b7b5fb9b52b00102d96f9	502717121	1	main_z	11	advance_on_keypress_ZEE	2	stimuli_distractor_diamondtriangles.svg	stimuli_distractor_trianglediamonds.svg	38	no	57	0	293
6.6.1	win	2022-12-14	13:28:25	13:34:52	385693	570b7b5fb9b52b00102d96f9	502717121	1	main_z	11	main_z	3	stimuli_distractor_trianglediamonds.svg	stimuli_target_squarediamonds.svg	12	yes	44	1	484
6.6.1	win	2022-12-14	13:28:25	13:34:52	385693	570b7b5fb9b52b00102d96f9	502717121	1	main_z	11	advance_on_keypress_ZEE	4	stimuli_distractor_trianglediamonds.svg	stimuli_target_squarediamonds.svg	12	yes	57	0	755
6.6.1	win	2022-12-14	13:28:25	13:34:54	387719	570b7b5fb9b52b00102d96f9	502717121	1	main_z	11	main_z	5	stimuli_distractor_trianglediamonds.svg	stimuli_target_diamondcircles.svg	27	yes	44	1	627
6.6.1	win	2022-12-14	13:28:25	13:34:54	387719	570b7b5fb9b52b00102d96f9	502717121	1	main_z	11	advance_on_keypress_ZEE	6	stimuli_distractor_trianglediamonds.svg	stimuli_target_diamondcircles.svg	27	yes	57	0	500
6.6.1	win	2022-12-14	13:28:25	13:34:56	389487	570b7b5fb9b52b00102d96f9	502717121	1	main_z	11	main_z	7	stimuli_distractor_diamondtriangles.svg	stimuli_target_trianglecircles.svg	29	yes	44	1	627
6.6.1	win	2022-12-14	13:28:25	13:34:56	389487	570b7b5fb9b52b00102d96f9	502717121	1	main_z	11	advance_on_keypress_ZEE	8	stimuli_distractor_diamondtriangles.svg	stimuli_target_trianglecircles.svg	29	yes	57	0	1196
6.6.1	win	2022-12-14	13:28:25	13:34:58	391870	570b7b5fb9b52b00102d96f9	502717121	1	main_z	11	main_z	9	stimuli_target_circletriangles.svg	stimuli_distractor_diamondtriangles.svg	5	yes	44	1	559
6.6.1	win	2022-12-14	13:28:25	13:34:58	391870	570b7b5fb9b52b00102d96f9	502717121	1	main_z	11	advance_on_keypress_ZEE	10	stimuli_target_circletriangles.svg	stimuli_distractor_diamondtriangles.svg	5	yes	57	0	427
6.6.1	win	2022-12-14	13:28:25	13:35:00	393721	570b7b5fb9b52b00102d96f9	502717121	1	main_z	11	main_z	11	stimuli_distractor_diamondtriangles.svg	stimuli_target_squaretriangles.svg	15	yes	44	1	792
6.6.1	win	2022-12-14	13:28:25	13:35:00	393721	570b7b5fb9b52b00102d96f9	502717121	1	main_z	11	advance_on_keypress_ZEE	12	stimuli_distractor_diamondtriangles.svg	stimuli_target_squaretriangles.svg	15	yes	57	0	466
6.6.1	win	2022-12-14	13:28:25	13:35:03	396833	570b7b5fb9b52b00102d96f9	502717121	1	main_z	11	main_z	13	stimuli_distractor_trianglediamonds.svg	stimuli_distractor_diamondtriangles.svg	35	no	0	1	2000
6.6.1	win	2022-12-14	13:28:25	13:35:03	396833	570b7b5fb9b52b00102d96f9	502717121	1	main_z	11	advance_on_keypress_ZEE	14	stimuli_distractor_trianglediamonds.svg	stimuli_distractor_diamondtriangles.svg	35	no	57	0	287
6.6.1	win	2022-12-14	13:28:25	13:35:05	398325	570b7b5fb9b52b00102d96f9	502717121	1	main_z	11	main_z	15	stimuli_distractor_trianglediamonds.svg	stimuli_target_trianglecircles.svg	25	yes	44	1	558
6.6.1	win	2022-12-14	13:28:25	13:35:05	398325	570b7b5fb9b52b00102d96f9	502717121	1	main_z	11	advance_on_keypress_ZEE	16	stimuli_distractor_trianglediamonds.svg	stimuli_target_trianglecircles.svg	25	yes	57	0	431
6.6.1	win	2022-12-14	13:28:25	13:35:07	400118	570b7b5fb9b52b00102d96f9	502717121	1	main_z	11	main_z	17	stimuli_distractor_diamondtriangles.svg	stimuli_target_squarediamonds.svg	16	yes	44	1	732
6.6.1	win	2022-12-14	13:28:25	13:35:07	400118	570b7b5fb9b52b00102d96f9	502717121	1	main_z	11	advance_on_keypress_ZEE	18	stimuli_distractor_diamondtriangles.svg	stimuli_target_squarediamonds.svg	16	yes	57	0	566
6.6.1	win	2022-12-14	13:28:25	13:35:08	401938	570b7b5fb9b52b00102d96f9	502717121	1	main_z	11	main_z	19	stimuli_distractor_trianglediamonds.svg	stimuli_target_trianglesquares.svg	26	yes	44	1	617
6.6.1	win	2022-12-14	13:28:25	13:35:08	401938	570b7b5fb9b52b00102d96f9	502717121	1	main_z	11	advance_on_keypress_ZEE	20	stimuli_distractor_trianglediamonds.svg	stimuli_target_trianglesquares.svg	26	yes	57	0	407
6.6.1	win	2022-12-14	13:28:25	13:35:11	404988	570b7b5fb9b52b00102d96f9	502717121	1	main_z	11	main_z	21	stimuli_distractor_diamondtriangles.svg	stimuli_distractor_diamondtriangles.svg	39	no	0	1	2000
6.6.1	win	2022-12-14	13:28:25	13:35:11	404988	570b7b5fb9b52b00102d96f9	502717121	1	main_z	11	advance_on_keypress_ZEE	22	stimuli_distractor_diamondtriangles.svg	stimuli_distractor_diamondtriangles.svg	39	no	57	0	547
6.6.1	win	2022-12-14	13:28:25	13:35:13	406826	570b7b5fb9b52b00102d96f9	502717121	1	main_z	11	main_z	23	stimuli_target_trianglecircles.svg	stimuli_distractor_trianglediamonds.svg	17	yes	44	1	651
6.6.1	win	2022-12-14	13:28:25	13:35:13	406826	570b7b5fb9b52b00102d96f9	502717121	1	main_z	11	advance_on_keypress_ZEE	24	stimuli_target_trianglecircles.svg	stimuli_distractor_trianglediamonds.svg	17	yes	57	0	439
6.6.1	win	2022-12-14	13:28:25	13:35:15	408462	570b7b5fb9b52b00102d96f9	502717121	1	main_z	11	main_z	25	stimuli_target_diamondcircles.svg	stimuli_distractor_diamondtriangles.svg	23	yes	44	1	536
6.6.1	win	2022-12-14	13:28:25	13:35:15	408462	570b7b5fb9b52b00102d96f9	502717121	1	main_z	11	advance_on_keypress_ZEE	26	stimuli_target_diamondcircles.svg	stimuli_distractor_diamondtriangles.svg	23	yes	57	0	401
6.6.1	win	2022-12-14	13:28:25	13:35:17	410141	570b7b5fb9b52b00102d96f9	502717121	1	main_z	11	main_z	27	stimuli_distractor_diamondtriangles.svg	stimuli_target_circletriangles.svg	13	yes	44	1	630
6.6.1	win	2022-12-14	13:28:25	13:35:17	410141	570b7b5fb9b52b00102d96f9	502717121	1	main_z	11	advance_on_keypress_ZEE	28	stimuli_distractor_diamondtriangles.svg	stimuli_target_circletriangles.svg	13	yes	57	0	424
6.6.1	win	2022-12-14	13:28:25	13:35:18	411801	570b7b5fb9b52b00102d96f9	502717121	1	main_z	11	main_z	29	stimuli_target_squaretriangles.svg	stimuli_distractor_diamondtriangles.svg	7	yes	44	1	605
6.6.1	win	2022-12-14	13:28:25	13:35:18	411801	570b7b5fb9b52b00102d96f9	502717121	1	main_z	11	advance_on_keypress_ZEE	30	stimuli_target_squaretriangles.svg	stimuli_distractor_diamondtriangles.svg	7	yes	57	0	364
6.6.1	win	2022-12-14	13:28:25	13:35:20	413424	570b7b5fb9b52b00102d96f9	502717121	1	main_z	11	main_z	31	stimuli_target_diamondsquares.svg	stimuli_distractor_diamondtriangles.svg	24	yes	44	1	628
6.6.1	win	2022-12-14	13:28:25	13:35:20	413424	570b7b5fb9b52b00102d96f9	502717121	1	main_z	11	advance_on_keypress_ZEE	32	stimuli_target_diamondsquares.svg	stimuli_distractor_diamondtriangles.svg	24	yes	57	0	346
6.6.1	win	2022-12-14	13:28:25	13:35:22	415037	570b7b5fb9b52b00102d96f9	502717121	1	main_z	11	main_z	33	stimuli_target_circletriangles.svg	stimuli_distractor_trianglediamonds.svg	1	yes	44	1	639
6.6.1	win	2022-12-14	13:28:25	13:35:22	415037	570b7b5fb9b52b00102d96f9	502717121	1	main_z	11	advance_on_keypress_ZEE	34	stimuli_target_circletriangles.svg	stimuli_distractor_trianglediamonds.svg	1	yes	57	0	356
6.6.1	win	2022-12-14	13:28:25	13:35:23	416813	570b7b5fb9b52b00102d96f9	502717121	1	main_z	11	main_z	35	stimuli_distractor_diamondtriangles.svg	stimuli_target_diamondcircles.svg	31	yes	44	1	763
6.6.1	win	2022-12-14	13:28:25	13:35:23	416813	570b7b5fb9b52b00102d96f9	502717121	1	main_z	11	advance_on_keypress_ZEE	36	stimuli_distractor_diamondtriangles.svg	stimuli_target_diamondcircles.svg	31	yes	57	0	404
6.6.1	win	2022-12-14	13:28:25	13:35:25	418551	570b7b5fb9b52b00102d96f9	502717121	1	main_z	11	main_z	37	stimuli_target_diamondcircles.svg	stimuli_distractor_trianglediamonds.svg	19	yes	44	1	698
6.6.1	win	2022-12-14	13:28:25	13:35:25	418551	570b7b5fb9b52b00102d96f9	502717121	1	main_z	11	advance_on_keypress_ZEE	38	stimuli_target_diamondcircles.svg	stimuli_distractor_trianglediamonds.svg	19	yes	57	0	392
6.6.1	win	2022-12-14	13:28:25	13:35:27	420225	570b7b5fb9b52b00102d96f9	502717121	1	main_z	11	main_z	39	stimuli_distractor_trianglediamonds.svg	stimuli_target_circlediamonds.svg	10	yes	44	1	639
6.6.1	win	2022-12-14	13:28:25	13:35:27	420225	570b7b5fb9b52b00102d96f9	502717121	1	main_z	11	advance_on_keypress_ZEE	40	stimuli_distractor_trianglediamonds.svg	stimuli_target_circlediamonds.svg	10	yes	57	0	340
6.6.1	win	2022-12-14	13:28:25	13:35:30	423204	570b7b5fb9b52b00102d96f9	502717121	1	main_z	11	main_z	41	stimuli_distractor_trianglediamonds.svg	stimuli_distractor_trianglediamonds.svg	33	no	0	1	2000
6.6.1	win	2022-12-14	13:28:25	13:35:30	423204	570b7b5fb9b52b00102d96f9	502717121	1	main_z	11	advance_on_keypress_ZEE	42	stimuli_distractor_trianglediamonds.svg	stimuli_distractor_trianglediamonds.svg	33	no	57	0	287
6.6.1	win	2022-12-14	13:28:25	13:35:33	426123	570b7b5fb9b52b00102d96f9	502717121	1	main_z	11	main_z	43	stimuli_distractor_diamondtriangles.svg	stimuli_distractor_trianglediamonds.svg	37	no	0	1	2000
6.6.1	win	2022-12-14	13:28:25	13:35:33	426123	570b7b5fb9b52b00102d96f9	502717121	1	main_z	11	advance_on_keypress_ZEE	44	stimuli_distractor_diamondtriangles.svg	stimuli_distractor_trianglediamonds.svg	37	no	57	0	375
6.6.1	win	2022-12-14	13:28:25	13:35:34	427772	570b7b5fb9b52b00102d96f9	502717121	1	main_z	11	main_z	45	stimuli_target_squaretriangles.svg	stimuli_distractor_trianglediamonds.svg	3	yes	44	1	646
6.6.1	win	2022-12-14	13:28:25	13:35:34	427772	570b7b5fb9b52b00102d96f9	502717121	1	main_z	11	advance_on_keypress_ZEE	46	stimuli_target_squaretriangles.svg	stimuli_distractor_trianglediamonds.svg	3	yes	57	0	467
6.6.1	win	2022-12-14	13:28:25	13:35:37	430877	570b7b5fb9b52b00102d96f9	502717121	1	main_z	11	main_z	47	stimuli_distractor_trianglediamonds.svg	stimuli_distractor_diamondtriangles.svg	36	no	0	1	2000
6.6.1	win	2022-12-14	13:28:25	13:35:37	430877	570b7b5fb9b52b00102d96f9	502717121	1	main_z	11	advance_on_keypress_ZEE	48	stimuli_distractor_trianglediamonds.svg	stimuli_distractor_diamondtriangles.svg	36	no	57	0	281
6.6.1	win	2022-12-14	13:28:25	13:35:39	432432	570b7b5fb9b52b00102d96f9	502717121	1	main_z	11	main_z	49	stimuli_target_squarediamonds.svg	stimuli_distractor_diamondtriangles.svg	8	yes	44	1	653
6.6.1	win	2022-12-14	13:28:25	13:35:39	432432	570b7b5fb9b52b00102d96f9	502717121	1	main_z	11	advance_on_keypress_ZEE	50	stimuli_target_squarediamonds.svg	stimuli_distractor_diamondtriangles.svg	8	yes	57	0	353
6.6.1	win	2022-12-14	13:28:25	13:35:41	434152	570b7b5fb9b52b00102d96f9	502717121	1	main_z	11	main_z	51	stimuli_target_diamondsquares.svg	stimuli_distractor_trianglediamonds.svg	20	yes	44	1	721
6.6.1	win	2022-12-14	13:28:25	13:35:41	434152	570b7b5fb9b52b00102d96f9	502717121	1	main_z	11	advance_on_keypress_ZEE	52	stimuli_target_diamondsquares.svg	stimuli_distractor_trianglediamonds.svg	20	yes	57	0	335
6.6.1	win	2022-12-14	13:28:25	13:35:42	435787	570b7b5fb9b52b00102d96f9	502717121	1	main_z	11	main_z	53	stimuli_distractor_trianglediamonds.svg	stimuli_target_circletriangles.svg	9	yes	44	1	656
6.6.1	win	2022-12-14	13:28:25	13:35:42	435787	570b7b5fb9b52b00102d96f9	502717121	1	main_z	11	advance_on_keypress_ZEE	54	stimuli_distractor_trianglediamonds.svg	stimuli_target_circletriangles.svg	9	yes	57	0	336
6.6.1	win	2022-12-14	13:28:25	13:35:44	437407	570b7b5fb9b52b00102d96f9	502717121	1	main_z	11	main_z	55	stimuli_distractor_trianglediamonds.svg	stimuli_target_diamondsquares.svg	28	yes	44	1	641
6.6.1	win	2022-12-14	13:28:25	13:35:44	437407	570b7b5fb9b52b00102d96f9	502717121	1	main_z	11	advance_on_keypress_ZEE	56	stimuli_distractor_trianglediamonds.svg	stimuli_target_diamondsquares.svg	28	yes	57	0	322
6.6.1	win	2022-12-14	13:28:25	13:35:46	439036	570b7b5fb9b52b00102d96f9	502717121	1	main_z	11	main_z	57	stimuli_distractor_trianglediamonds.svg	stimuli_target_squaretriangles.svg	11	yes	44	1	668
6.6.1	win	2022-12-14	13:28:25	13:35:46	439036	570b7b5fb9b52b00102d96f9	502717121	1	main_z	11	advance_on_keypress_ZEE	58	stimuli_distractor_trianglediamonds.svg	stimuli_target_squaretriangles.svg	11	yes	57	0	287
6.6.1	win	2022-12-14	13:28:25	13:35:47	440660	570b7b5fb9b52b00102d96f9	502717121	1	main_z	11	main_z	59	stimuli_distractor_diamondtriangles.svg	stimuli_target_trianglesquares.svg	30	yes	44	1	674
6.6.1	win	2022-12-14	13:28:25	13:35:47	440660	570b7b5fb9b52b00102d96f9	502717121	1	main_z	11	advance_on_keypress_ZEE	60	stimuli_distractor_diamondtriangles.svg	stimuli_target_trianglesquares.svg	30	yes	57	0	309
6.6.1	win	2022-12-14	13:28:25	13:35:49	442295	570b7b5fb9b52b00102d96f9	502717121	1	main_z	11	main_z	61	stimuli_target_trianglesquares.svg	stimuli_distractor_diamondtriangles.svg	22	yes	44	1	684
6.6.1	win	2022-12-14	13:28:25	13:35:49	442295	570b7b5fb9b52b00102d96f9	502717121	1	main_z	11	advance_on_keypress_ZEE	62	stimuli_target_trianglesquares.svg	stimuli_distractor_diamondtriangles.svg	22	yes	57	0	350
6.6.1	win	2022-12-14	13:28:25	13:35:50	443919	570b7b5fb9b52b00102d96f9	502717121	1	main_z	11	main_z	63	stimuli_target_trianglecircles.svg	stimuli_distractor_diamondtriangles.svg	21	yes	44	1	630
6.6.1	win	2022-12-14	13:28:25	13:35:50	443919	570b7b5fb9b52b00102d96f9	502717121	1	main_z	11	advance_on_keypress_ZEE	64	stimuli_target_trianglecircles.svg	stimuli_distractor_diamondtriangles.svg	21	yes	57	0	332
6.6.1	win	2022-12-14	13:28:25	13:35:52	445534	570b7b5fb9b52b00102d96f9	502717121	1	main_z	11	main_z	65	stimuli_target_circlediamonds.svg	stimuli_distractor_trianglediamonds.svg	2	yes	44	1	661
6.6.1	win	2022-12-14	13:28:25	13:35:52	445534	570b7b5fb9b52b00102d96f9	502717121	1	main_z	11	advance_on_keypress_ZEE	66	stimuli_target_circlediamonds.svg	stimuli_distractor_trianglediamonds.svg	2	yes	57	0	346
6.6.1	win	2022-12-14	13:28:25	13:35:54	447091	570b7b5fb9b52b00102d96f9	502717121	1	main_z	11	main_z	67	stimuli_target_circlediamonds.svg	stimuli_distractor_diamondtriangles.svg	6	yes	44	1	583
6.6.1	win	2022-12-14	13:28:25	13:35:54	447091	570b7b5fb9b52b00102d96f9	502717121	1	main_z	11	advance_on_keypress_ZEE	68	stimuli_target_circlediamonds.svg	stimuli_distractor_diamondtriangles.svg	6	yes	57	0	338
6.6.1	win	2022-12-14	13:28:25	13:35:57	450093	570b7b5fb9b52b00102d96f9	502717121	1	main_z	11	main_z	69	stimuli_distractor_diamondtriangles.svg	stimuli_distractor_diamondtriangles.svg	40	no	0	1	2000
6.6.1	win	2022-12-14	13:28:25	13:35:57	450093	570b7b5fb9b52b00102d96f9	502717121	1	main_z	11	advance_on_keypress_ZEE	70	stimuli_distractor_diamondtriangles.svg	stimuli_distractor_diamondtriangles.svg	40	no	57	0	300
6.6.1	win	2022-12-14	13:28:25	13:35:58	451655	570b7b5fb9b52b00102d96f9	502717121	1	main_z	11	main_z	71	stimuli_distractor_diamondtriangles.svg	stimuli_target_diamondsquares.svg	32	yes	44	1	626
6.6.1	win	2022-12-14	13:28:25	13:35:58	451655	570b7b5fb9b52b00102d96f9	502717121	1	main_z	11	advance_on_keypress_ZEE	72	stimuli_distractor_diamondtriangles.svg	stimuli_target_diamondsquares.svg	32	yes	57	0	404
6.6.1	win	2022-12-14	13:28:25	13:36:00	453314	570b7b5fb9b52b00102d96f9	502717121	1	main_z	11	main_z	73	stimuli_distractor_diamondtriangles.svg	stimuli_target_circlediamonds.svg	14	yes	44	1	618
6.6.1	win	2022-12-14	13:28:25	13:36:00	453314	570b7b5fb9b52b00102d96f9	502717121	1	main_z	11	advance_on_keypress_ZEE	74	stimuli_distractor_diamondtriangles.svg	stimuli_target_circlediamonds.svg	14	yes	57	0	316
6.6.1	win	2022-12-14	13:28:25	13:36:02	455011	570b7b5fb9b52b00102d96f9	502717121	1	main_z	11	main_z	75	stimuli_target_squarediamonds.svg	stimuli_distractor_trianglediamonds.svg	4	yes	44	1	730
6.6.1	win	2022-12-14	13:28:25	13:36:02	455011	570b7b5fb9b52b00102d96f9	502717121	1	main_z	11	advance_on_keypress_ZEE	76	stimuli_target_squarediamonds.svg	stimuli_distractor_trianglediamonds.svg	4	yes	57	0	319
6.6.1	win	2022-12-14	13:28:25	13:36:04	457980	570b7b5fb9b52b00102d96f9	502717121	1	main_z	11	main_z	77	stimuli_distractor_trianglediamonds.svg	stimuli_distractor_trianglediamonds.svg	34	no	0	1	2000
6.6.1	win	2022-12-14	13:28:25	13:36:04	457980	570b7b5fb9b52b00102d96f9	502717121	1	main_z	11	advance_on_keypress_ZEE	78	stimuli_distractor_trianglediamonds.svg	stimuli_distractor_trianglediamonds.svg	34	no	57	0	278
6.6.1	win	2022-12-14	13:28:25	13:36:06	459518	570b7b5fb9b52b00102d96f9	502717121	1	main_z	11	main_z	79	stimuli_target_trianglesquares.svg	stimuli_distractor_trianglediamonds.svg	18	yes	44	1	616
6.6.1	win	2022-12-14	13:28:25	13:36:06	459518	570b7b5fb9b52b00102d96f9	502717121	1	main_z	11	advance_on_keypress_ZEE	80	stimuli_target_trianglesquares.svg	stimuli_distractor_trianglediamonds.svg	18	yes	57	0	390
6.6.1	win	2022-12-14	13:28:25	13:36:09	462553	570b7b5fb9b52b00102d96f9	502717121	1	main_z	11	main_z	81	stimuli_distractor_diamondtriangles.svg	stimuli_distractor_diamondtriangles.svg	40	no	0	1	2000
6.6.1	win	2022-12-14	13:28:25	13:36:09	462553	570b7b5fb9b52b00102d96f9	502717121	1	main_z	11	advance_on_keypress_ZEE	82	stimuli_distractor_diamondtriangles.svg	stimuli_distractor_diamondtriangles.svg	40	no	57	0	295
6.6.1	win	2022-12-14	13:28:25	13:36:11	464123	570b7b5fb9b52b00102d96f9	502717121	1	main_z	11	main_z	83	stimuli_distractor_trianglediamonds.svg	stimuli_target_diamondcircles.svg	27	yes	44	1	642
6.6.1	win	2022-12-14	13:28:25	13:36:11	464123	570b7b5fb9b52b00102d96f9	502717121	1	main_z	11	advance_on_keypress_ZEE	84	stimuli_distractor_trianglediamonds.svg	stimuli_target_diamondcircles.svg	27	yes	57	0	330
6.6.1	win	2022-12-14	13:28:25	13:36:12	465630	570b7b5fb9b52b00102d96f9	502717121	1	main_z	11	main_z	85	stimuli_distractor_trianglediamonds.svg	stimuli_target_trianglesquares.svg	26	yes	44	1	523
6.6.1	win	2022-12-14	13:28:25	13:36:12	465630	570b7b5fb9b52b00102d96f9	502717121	1	main_z	11	advance_on_keypress_ZEE	86	stimuli_distractor_trianglediamonds.svg	stimuli_target_trianglesquares.svg	26	yes	57	0	333
6.6.1	win	2022-12-14	13:28:25	13:36:14	467371	570b7b5fb9b52b00102d96f9	502717121	1	main_z	11	main_z	87	stimuli_target_squaretriangles.svg	stimuli_distractor_trianglediamonds.svg	3	yes	44	1	763
6.6.1	win	2022-12-14	13:28:25	13:36:14	467371	570b7b5fb9b52b00102d96f9	502717121	1	main_z	11	advance_on_keypress_ZEE	88	stimuli_target_squaretriangles.svg	stimuli_distractor_trianglediamonds.svg	3	yes	57	0	302
6.6.1	win	2022-12-14	13:28:25	13:36:15	468930	570b7b5fb9b52b00102d96f9	502717121	1	main_z	11	main_z	89	stimuli_target_trianglecircles.svg	stimuli_distractor_diamondtriangles.svg	21	yes	44	1	620
6.6.1	win	2022-12-14	13:28:25	13:36:15	468930	570b7b5fb9b52b00102d96f9	502717121	1	main_z	11	advance_on_keypress_ZEE	90	stimuli_target_trianglecircles.svg	stimuli_distractor_diamondtriangles.svg	21	yes	57	0	246
6.6.1	win	2022-12-14	13:28:25	13:36:17	470451	570b7b5fb9b52b00102d96f9	502717121	1	main_z	11	main_z	91	stimuli_target_diamondcircles.svg	stimuli_distractor_diamondtriangles.svg	23	yes	44	1	635
6.6.1	win	2022-12-14	13:28:25	13:36:17	470451	570b7b5fb9b52b00102d96f9	502717121	1	main_z	11	advance_on_keypress_ZEE	92	stimuli_target_diamondcircles.svg	stimuli_distractor_diamondtriangles.svg	23	yes	57	0	332
6.6.1	win	2022-12-14	13:28:25	13:36:20	473429	570b7b5fb9b52b00102d96f9	502717121	1	main_z	11	main_z	93	stimuli_distractor_diamondtriangles.svg	stimuli_distractor_trianglediamonds.svg	38	no	0	1	2000
6.6.1	win	2022-12-14	13:28:25	13:36:20	473429	570b7b5fb9b52b00102d96f9	502717121	1	main_z	11	advance_on_keypress_ZEE	94	stimuli_distractor_diamondtriangles.svg	stimuli_distractor_trianglediamonds.svg	38	no	57	0	331
6.6.1	win	2022-12-14	13:28:25	13:36:22	475066	570b7b5fb9b52b00102d96f9	502717121	1	main_z	11	main_z	95	stimuli_target_circlediamonds.svg	stimuli_distractor_trianglediamonds.svg	2	yes	44	1	668
6.6.1	win	2022-12-14	13:28:25	13:36:22	475066	570b7b5fb9b52b00102d96f9	502717121	1	main_z	11	advance_on_keypress_ZEE	96	stimuli_target_circlediamonds.svg	stimuli_distractor_trianglediamonds.svg	2	yes	57	0	331
6.6.1	win	2022-12-14	13:28:25	13:36:24	477057	570b7b5fb9b52b00102d96f9	502717121	1	main_z	11	main_z	97	stimuli_distractor_trianglediamonds.svg	stimuli_target_squarediamonds.svg	12	yes	44	1	1024
6.6.1	win	2022-12-14	13:28:25	13:36:24	477057	570b7b5fb9b52b00102d96f9	502717121	1	main_z	11	advance_on_keypress_ZEE	98	stimuli_distractor_trianglediamonds.svg	stimuli_target_squarediamonds.svg	12	yes	57	0	321
6.6.1	win	2022-12-14	13:28:25	13:36:25	478765	570b7b5fb9b52b00102d96f9	502717121	1	main_z	11	main_z	99	stimuli_target_diamondsquares.svg	stimuli_distractor_diamondtriangles.svg	24	yes	44	1	747
6.6.1	win	2022-12-14	13:28:25	13:36:25	478765	570b7b5fb9b52b00102d96f9	502717121	1	main_z	11	advance_on_keypress_ZEE	100	stimuli_target_diamondsquares.svg	stimuli_distractor_diamondtriangles.svg	24	yes	57	0	328
6.6.1	win	2022-12-14	13:28:25	13:36:27	480345	570b7b5fb9b52b00102d96f9	502717121	1	main_z	11	main_z	101	stimuli_distractor_diamondtriangles.svg	stimuli_target_diamondcircles.svg	31	yes	44	1	626
6.6.1	win	2022-12-14	13:28:25	13:36:27	480345	570b7b5fb9b52b00102d96f9	502717121	1	main_z	11	advance_on_keypress_ZEE	102	stimuli_distractor_diamondtriangles.svg	stimuli_target_diamondcircles.svg	31	yes	57	0	335
6.6.1	win	2022-12-14	13:28:25	13:36:29	482429	570b7b5fb9b52b00102d96f9	502717121	1	main_z	11	main_z	103	stimuli_distractor_diamondtriangles.svg	stimuli_target_squaretriangles.svg	15	yes	44	1	1108
6.6.1	win	2022-12-14	13:28:25	13:36:29	482429	570b7b5fb9b52b00102d96f9	502717121	1	main_z	11	advance_on_keypress_ZEE	104	stimuli_distractor_diamondtriangles.svg	stimuli_target_squaretriangles.svg	15	yes	57	0	326
6.6.1	win	2022-12-14	13:28:25	13:36:31	484109	570b7b5fb9b52b00102d96f9	502717121	1	main_z	11	main_z	105	stimuli_distractor_diamondtriangles.svg	stimuli_target_trianglesquares.svg	30	yes	44	1	703
6.6.1	win	2022-12-14	13:28:25	13:36:31	484109	570b7b5fb9b52b00102d96f9	502717121	1	main_z	11	advance_on_keypress_ZEE	106	stimuli_distractor_diamondtriangles.svg	stimuli_target_trianglesquares.svg	30	yes	57	0	282
6.6.1	win	2022-12-14	13:28:25	13:36:34	487041	570b7b5fb9b52b00102d96f9	502717121	1	main_z	11	main_z	107	stimuli_distractor_trianglediamonds.svg	stimuli_distractor_trianglediamonds.svg	33	no	0	1	2000
6.6.1	win	2022-12-14	13:28:25	13:36:34	487041	570b7b5fb9b52b00102d96f9	502717121	1	main_z	11	advance_on_keypress_ZEE	108	stimuli_distractor_trianglediamonds.svg	stimuli_distractor_trianglediamonds.svg	33	no	57	0	386
6.6.1	win	2022-12-14	13:28:25	13:36:37	490085	570b7b5fb9b52b00102d96f9	502717121	1	main_z	11	main_z	109	stimuli_distractor_trianglediamonds.svg	stimuli_distractor_diamondtriangles.svg	36	no	0	1	2000
6.6.1	win	2022-12-14	13:28:25	13:36:37	490085	570b7b5fb9b52b00102d96f9	502717121	1	main_z	11	advance_on_keypress_ZEE	110	stimuli_distractor_trianglediamonds.svg	stimuli_distractor_diamondtriangles.svg	36	no	57	0	222
6.6.1	win	2022-12-14	13:28:25	13:36:38	491645	570b7b5fb9b52b00102d96f9	502717121	1	main_z	11	main_z	111	stimuli_target_squarediamonds.svg	stimuli_distractor_diamondtriangles.svg	8	yes	44	1	683
6.6.1	win	2022-12-14	13:28:25	13:36:38	491645	570b7b5fb9b52b00102d96f9	502717121	1	main_z	11	advance_on_keypress_ZEE	112	stimuli_target_squarediamonds.svg	stimuli_distractor_diamondtriangles.svg	8	yes	57	0	294
6.6.1	win	2022-12-14	13:28:25	13:36:40	493724	570b7b5fb9b52b00102d96f9	502717121	1	main_z	11	main_z	113	stimuli_distractor_trianglediamonds.svg	stimuli_target_squaretriangles.svg	11	yes	44	1	1144
6.6.1	win	2022-12-14	13:28:25	13:36:40	493724	570b7b5fb9b52b00102d96f9	502717121	1	main_z	11	advance_on_keypress_ZEE	114	stimuli_distractor_trianglediamonds.svg	stimuli_target_squaretriangles.svg	11	yes	57	0	273
6.6.1	win	2022-12-14	13:28:25	13:36:42	495231	570b7b5fb9b52b00102d96f9	502717121	1	main_z	11	main_z	115	stimuli_distractor_diamondtriangles.svg	stimuli_target_squarediamonds.svg	16	yes	44	1	584
6.6.1	win	2022-12-14	13:28:25	13:36:42	495231	570b7b5fb9b52b00102d96f9	502717121	1	main_z	11	advance_on_keypress_ZEE	116	stimuli_distractor_diamondtriangles.svg	stimuli_target_squarediamonds.svg	16	yes	57	0	247
6.6.1	win	2022-12-14	13:28:25	13:36:45	498116	570b7b5fb9b52b00102d96f9	502717121	1	main_z	11	main_z	117	stimuli_distractor_trianglediamonds.svg	stimuli_distractor_trianglediamonds.svg	34	no	0	1	2000
6.6.1	win	2022-12-14	13:28:25	13:36:45	498116	570b7b5fb9b52b00102d96f9	502717121	1	main_z	11	advance_on_keypress_ZEE	118	stimuli_distractor_trianglediamonds.svg	stimuli_distractor_trianglediamonds.svg	34	no	57	0	350
6.6.1	win	2022-12-14	13:28:25	13:36:46	499773	570b7b5fb9b52b00102d96f9	502717121	1	main_z	11	main_z	119	stimuli_target_diamondcircles.svg	stimuli_distractor_trianglediamonds.svg	19	yes	44	1	671
6.6.1	win	2022-12-14	13:28:25	13:36:46	499773	570b7b5fb9b52b00102d96f9	502717121	1	main_z	11	advance_on_keypress_ZEE	120	stimuli_target_diamondcircles.svg	stimuli_distractor_trianglediamonds.svg	19	yes	57	0	282
6.6.1	win	2022-12-14	13:28:25	13:36:48	501360	570b7b5fb9b52b00102d96f9	502717121	1	main_z	11	main_z	121	stimuli_distractor_diamondtriangles.svg	stimuli_target_circletriangles.svg	13	yes	44	1	673
6.6.1	win	2022-12-14	13:28:25	13:36:48	501360	570b7b5fb9b52b00102d96f9	502717121	1	main_z	11	advance_on_keypress_ZEE	122	stimuli_distractor_diamondtriangles.svg	stimuli_target_circletriangles.svg	13	yes	57	0	285
6.6.1	win	2022-12-14	13:28:25	13:36:49	502907	570b7b5fb9b52b00102d96f9	502717121	1	main_z	11	main_z	123	stimuli_distractor_diamondtriangles.svg	stimuli_target_diamondsquares.svg	32	yes	44	1	620
6.6.1	win	2022-12-14	13:28:25	13:36:49	502907	570b7b5fb9b52b00102d96f9	502717121	1	main_z	11	advance_on_keypress_ZEE	124	stimuli_distractor_diamondtriangles.svg	stimuli_target_diamondsquares.svg	32	yes	57	0	258
6.6.1	win	2022-12-14	13:28:25	13:36:51	504392	570b7b5fb9b52b00102d96f9	502717121	1	main_z	11	main_z	125	stimuli_target_squarediamonds.svg	stimuli_distractor_trianglediamonds.svg	4	yes	44	1	586
6.6.1	win	2022-12-14	13:28:25	13:36:51	504392	570b7b5fb9b52b00102d96f9	502717121	1	main_z	11	advance_on_keypress_ZEE	126	stimuli_target_squarediamonds.svg	stimuli_distractor_trianglediamonds.svg	4	yes	57	0	265
6.6.1	win	2022-12-14	13:28:25	13:36:53	506007	570b7b5fb9b52b00102d96f9	502717121	1	main_z	11	main_z	127	stimuli_target_squaretriangles.svg	stimuli_distractor_diamondtriangles.svg	7	yes	44	1	718
6.6.1	win	2022-12-14	13:28:25	13:36:53	506007	570b7b5fb9b52b00102d96f9	502717121	1	main_z	11	advance_on_keypress_ZEE	128	stimuli_target_squaretriangles.svg	stimuli_distractor_diamondtriangles.svg	7	yes	57	0	263
6.6.1	win	2022-12-14	13:28:25	13:36:54	507547	570b7b5fb9b52b00102d96f9	502717121	1	main_z	11	main_z	129	stimuli_distractor_trianglediamonds.svg	stimuli_target_diamondsquares.svg	28	yes	44	1	623
6.6.1	win	2022-12-14	13:28:25	13:36:54	507547	570b7b5fb9b52b00102d96f9	502717121	1	main_z	11	advance_on_keypress_ZEE	130	stimuli_distractor_trianglediamonds.svg	stimuli_target_diamondsquares.svg	28	yes	57	0	244
6.6.1	win	2022-12-14	13:28:25	13:36:55	508987	570b7b5fb9b52b00102d96f9	502717121	1	main_z	11	main_z	131	stimuli_distractor_diamondtriangles.svg	stimuli_target_trianglecircles.svg	29	yes	44	1	545
6.6.1	win	2022-12-14	13:28:25	13:36:55	508987	570b7b5fb9b52b00102d96f9	502717121	1	main_z	11	advance_on_keypress_ZEE	132	stimuli_distractor_diamondtriangles.svg	stimuli_target_trianglecircles.svg	29	yes	57	0	261
6.6.1	win	2022-12-14	13:28:25	13:36:58	511877	570b7b5fb9b52b00102d96f9	502717121	1	main_z	11	main_z	133	stimuli_distractor_diamondtriangles.svg	stimuli_distractor_diamondtriangles.svg	39	no	0	1	2000
6.6.1	win	2022-12-14	13:28:25	13:36:58	511877	570b7b5fb9b52b00102d96f9	502717121	1	main_z	11	advance_on_keypress_ZEE	134	stimuli_distractor_diamondtriangles.svg	stimuli_distractor_diamondtriangles.svg	39	no	57	0	627
6.6.1	win	2022-12-14	13:28:25	13:37:00	513811	570b7b5fb9b52b00102d96f9	502717121	1	main_z	11	main_z	135	stimuli_target_trianglesquares.svg	stimuli_distractor_diamondtriangles.svg	22	yes	44	1	664
6.6.1	win	2022-12-14	13:28:25	13:37:00	513811	570b7b5fb9b52b00102d96f9	502717121	1	main_z	11	advance_on_keypress_ZEE	136	stimuli_target_trianglesquares.svg	stimuli_distractor_diamondtriangles.svg	22	yes	57	0	264
6.6.1	win	2022-12-14	13:28:25	13:37:02	515423	570b7b5fb9b52b00102d96f9	502717121	1	main_z	11	main_z	137	stimuli_target_diamondsquares.svg	stimuli_distractor_trianglediamonds.svg	20	yes	44	1	708
6.6.1	win	2022-12-14	13:28:25	13:37:02	515423	570b7b5fb9b52b00102d96f9	502717121	1	main_z	11	advance_on_keypress_ZEE	138	stimuli_target_diamondsquares.svg	stimuli_distractor_trianglediamonds.svg	20	yes	57	0	274
6.6.1	win	2022-12-14	13:28:25	13:37:03	516964	570b7b5fb9b52b00102d96f9	502717121	1	main_z	11	main_z	139	stimuli_distractor_trianglediamonds.svg	stimuli_target_circlediamonds.svg	10	yes	44	1	630
6.6.1	win	2022-12-14	13:28:25	13:37:03	516964	570b7b5fb9b52b00102d96f9	502717121	1	main_z	11	advance_on_keypress_ZEE	140	stimuli_distractor_trianglediamonds.svg	stimuli_target_circlediamonds.svg	10	yes	57	0	264
6.6.1	win	2022-12-14	13:28:25	13:37:05	518554	570b7b5fb9b52b00102d96f9	502717121	1	main_z	11	main_z	141	stimuli_distractor_trianglediamonds.svg	stimuli_target_trianglecircles.svg	25	yes	44	1	704
6.6.1	win	2022-12-14	13:28:25	13:37:05	518554	570b7b5fb9b52b00102d96f9	502717121	1	main_z	11	advance_on_keypress_ZEE	142	stimuli_distractor_trianglediamonds.svg	stimuli_target_trianglecircles.svg	25	yes	57	0	210
6.6.1	win	2022-12-14	13:28:25	13:37:07	520091	570b7b5fb9b52b00102d96f9	502717121	1	main_z	11	main_z	143	stimuli_target_circletriangles.svg	stimuli_distractor_diamondtriangles.svg	5	yes	44	1	689
6.6.1	win	2022-12-14	13:28:25	13:37:07	520091	570b7b5fb9b52b00102d96f9	502717121	1	main_z	11	advance_on_keypress_ZEE	144	stimuli_target_circletriangles.svg	stimuli_distractor_diamondtriangles.svg	5	yes	57	0	252
6.6.1	win	2022-12-14	13:28:25	13:37:09	522103	570b7b5fb9b52b00102d96f9	502717121	1	main_z	11	main_z	145	stimuli_distractor_diamondtriangles.svg	stimuli_distractor_trianglediamonds.svg	37	no	44	0	1116
6.6.1	win	2022-12-14	13:28:25	13:37:09	522103	570b7b5fb9b52b00102d96f9	502717121	1	main_z	11	advance_on_keypress_ZEE	146	stimuli_distractor_diamondtriangles.svg	stimuli_distractor_trianglediamonds.svg	37	no	57	0	314
6.6.1	win	2022-12-14	13:28:25	13:37:10	523643	570b7b5fb9b52b00102d96f9	502717121	1	main_z	11	main_z	147	stimuli_distractor_trianglediamonds.svg	stimuli_target_circletriangles.svg	9	yes	44	1	604
6.6.1	win	2022-12-14	13:28:25	13:37:10	523643	570b7b5fb9b52b00102d96f9	502717121	1	main_z	11	advance_on_keypress_ZEE	148	stimuli_distractor_trianglediamonds.svg	stimuli_target_circletriangles.svg	9	yes	57	0	243
6.6.1	win	2022-12-14	13:28:25	13:37:12	525255	570b7b5fb9b52b00102d96f9	502717121	1	main_z	11	main_z	149	stimuli_target_circletriangles.svg	stimuli_distractor_trianglediamonds.svg	1	yes	44	1	715
6.6.1	win	2022-12-14	13:28:25	13:37:12	525255	570b7b5fb9b52b00102d96f9	502717121	1	main_z	11	advance_on_keypress_ZEE	150	stimuli_target_circletriangles.svg	stimuli_distractor_trianglediamonds.svg	1	yes	57	0	237
6.6.1	win	2022-12-14	13:28:25	13:37:15	528124	570b7b5fb9b52b00102d96f9	502717121	1	main_z	11	main_z	151	stimuli_distractor_trianglediamonds.svg	stimuli_distractor_diamondtriangles.svg	35	no	0	1	2000
6.6.1	win	2022-12-14	13:28:25	13:37:15	528124	570b7b5fb9b52b00102d96f9	502717121	1	main_z	11	advance_on_keypress_ZEE	152	stimuli_distractor_trianglediamonds.svg	stimuli_distractor_diamondtriangles.svg	35	no	57	0	323
6.6.1	win	2022-12-14	13:28:25	13:37:16	529666	570b7b5fb9b52b00102d96f9	502717121	1	main_z	11	main_z	153	stimuli_target_trianglecircles.svg	stimuli_distractor_trianglediamonds.svg	17	yes	44	1	589
6.6.1	win	2022-12-14	13:28:25	13:37:16	529666	570b7b5fb9b52b00102d96f9	502717121	1	main_z	11	advance_on_keypress_ZEE	154	stimuli_target_trianglecircles.svg	stimuli_distractor_trianglediamonds.svg	17	yes	57	0	216
6.6.1	win	2022-12-14	13:28:25	13:37:18	531218	570b7b5fb9b52b00102d96f9	502717121	1	main_z	11	main_z	155	stimuli_distractor_diamondtriangles.svg	stimuli_target_circlediamonds.svg	14	yes	44	1	690
6.6.1	win	2022-12-14	13:28:25	13:37:18	531218	570b7b5fb9b52b00102d96f9	502717121	1	main_z	11	advance_on_keypress_ZEE	156	stimuli_distractor_diamondtriangles.svg	stimuli_target_circlediamonds.svg	14	yes	57	0	197
6.6.1	win	2022-12-14	13:28:25	13:37:21	534068	570b7b5fb9b52b00102d96f9	502717121	1	main_z	11	main_z	157	stimuli_target_circlediamonds.svg	stimuli_distractor_diamondtriangles.svg	6	yes	0	0	2000
6.6.1	win	2022-12-14	13:28:25	13:37:21	534068	570b7b5fb9b52b00102d96f9	502717121	1	main_z	11	advance_on_keypress_ZEE	158	stimuli_target_circlediamonds.svg	stimuli_distractor_diamondtriangles.svg	6	yes	57	0	936
6.6.1	win	2022-12-14	13:28:25	13:37:23	536346	570b7b5fb9b52b00102d96f9	502717121	1	main_z	11	main_z	159	stimuli_target_trianglesquares.svg	stimuli_distractor_trianglediamonds.svg	18	yes	44	1	697
6.6.1	win	2022-12-14	13:28:25	13:37:23	536346	570b7b5fb9b52b00102d96f9	502717121	1	main_z	11	advance_on_keypress_ZEE	160	stimuli_target_trianglesquares.svg	stimuli_distractor_trianglediamonds.svg	18	yes	57	0	228