build	computer.platform	date	time	timestamp	time_elapsed_ms	subject	group	session	blockcode	blocknum	trialcode	trialnum	stimulus_left	stimulus_right	stim_index	target_present	response	correct	latency
6.6.1	mac	2022-12-19	23:29:30	23:32:53	201539	60fdf5e83b1de9a21e8ef4e5	310905652	1	practice_z	5	practice_z	1	stimuli_distractor_trianglediamonds.svg	stimuli_target_diamondcircles.svg	12	yes	0	0	2000
6.6.1	mac	2022-12-19	23:29:30	23:32:53	201539	60fdf5e83b1de9a21e8ef4e5	310905652	1	practice_z	5	advance_on_keypress_ZEE	2	stimuli_distractor_trianglediamonds.svg	stimuli_target_diamondcircles.svg	12	yes	57	0	1270
6.6.1	mac	2022-12-19	23:29:30	23:32:56	204814	60fdf5e83b1de9a21e8ef4e5	310905652	1	practice_z	5	practice_z	3	stimuli_distractor_trianglediamonds.svg	stimuli_distractor_diamondtriangles.svg	16	no	44	0	362
6.6.1	mac	2022-12-19	23:29:30	23:32:56	204814	60fdf5e83b1de9a21e8ef4e5	310905652	1	practice_z	5	advance_on_keypress_ZEE	4	stimuli_distractor_trianglediamonds.svg	stimuli_distractor_diamondtriangles.svg	16	no	57	0	1252
6.6.1	mac	2022-12-19	23:29:30	23:33:00	208308	60fdf5e83b1de9a21e8ef4e5	310905652	1	practice_z	5	practice_z	5	stimuli_target_diamondsquares.svg	stimuli_distractor_trianglediamonds.svg	6	yes	44	1	602
6.6.1	mac	2022-12-19	23:29:30	23:33:00	208308	60fdf5e83b1de9a21e8ef4e5	310905652	1	practice_z	5	advance_on_keypress_ZEE	6	stimuli_target_diamondsquares.svg	stimuli_distractor_trianglediamonds.svg	6	yes	57	0	950
6.6.1	mac	2022-12-19	23:29:30	23:33:03	211349	60fdf5e83b1de9a21e8ef4e5	310905652	1	practice_z	5	practice_z	7	stimuli_target_squarediamonds.svg	stimuli_distractor_trianglediamonds.svg	5	yes	44	1	456
6.6.1	mac	2022-12-19	23:29:30	23:33:03	211349	60fdf5e83b1de9a21e8ef4e5	310905652	1	practice_z	5	advance_on_keypress_ZEE	8	stimuli_target_squarediamonds.svg	stimuli_distractor_trianglediamonds.svg	5	yes	57	0	587
6.6.1	mac	2022-12-19	23:29:30	23:33:06	213840	60fdf5e83b1de9a21e8ef4e5	310905652	1	practice_z	5	practice_z	9	stimuli_distractor_trianglediamonds.svg	stimuli_target_circlediamonds.svg	10	yes	44	1	277
6.6.1	mac	2022-12-19	23:29:30	23:33:06	213840	60fdf5e83b1de9a21e8ef4e5	310905652	1	practice_z	5	advance_on_keypress_ZEE	10	stimuli_distractor_trianglediamonds.svg	stimuli_target_circlediamonds.svg	10	yes	57	0	664
6.6.1	mac	2022-12-19	23:29:30	23:33:08	216182	60fdf5e83b1de9a21e8ef4e5	310905652	1	practice_z	5	practice_z	11	stimuli_target_circlediamonds.svg	stimuli_distractor_trianglediamonds.svg	4	yes	44	1	47
6.6.1	mac	2022-12-19	23:29:30	23:33:08	216182	60fdf5e83b1de9a21e8ef4e5	310905652	1	practice_z	5	advance_on_keypress_ZEE	12	stimuli_target_circlediamonds.svg	stimuli_distractor_trianglediamonds.svg	4	yes	57	0	516
6.6.1	mac	2022-12-19	23:29:30	23:33:10	218376	60fdf5e83b1de9a21e8ef4e5	310905652	1	practice_z	5	practice_z	13	stimuli_target_diamondsquares.svg	stimuli_distractor_diamondtriangles.svg	3	yes	44	1	53
6.6.1	mac	2022-12-19	23:29:30	23:33:10	218376	60fdf5e83b1de9a21e8ef4e5	310905652	1	practice_z	5	advance_on_keypress_ZEE	14	stimuli_target_diamondsquares.svg	stimuli_distractor_diamondtriangles.svg	3	yes	57	0	595
6.6.1	mac	2022-12-19	23:29:30	23:33:12	220706	60fdf5e83b1de9a21e8ef4e5	310905652	1	practice_z	5	practice_z	15	stimuli_target_circlediamonds.svg	stimuli_distractor_diamondtriangles.svg	1	yes	44	1	94
6.6.1	mac	2022-12-19	23:29:30	23:33:12	220706	60fdf5e83b1de9a21e8ef4e5	310905652	1	practice_z	5	advance_on_keypress_ZEE	16	stimuli_target_circlediamonds.svg	stimuli_distractor_diamondtriangles.svg	1	yes	57	0	647
6.6.1	mac	2022-12-19	23:29:30	23:33:15	223269	60fdf5e83b1de9a21e8ef4e5	310905652	1	practice_z	5	practice_z	17	stimuli_distractor_trianglediamonds.svg	stimuli_target_squarediamonds.svg	11	yes	44	1	292
6.6.1	mac	2022-12-19	23:29:30	23:33:15	223269	60fdf5e83b1de9a21e8ef4e5	310905652	1	practice_z	5	advance_on_keypress_ZEE	18	stimuli_distractor_trianglediamonds.svg	stimuli_target_squarediamonds.svg	11	yes	57	0	374
6.6.1	mac	2022-12-19	23:29:30	23:33:17	225506	60fdf5e83b1de9a21e8ef4e5	310905652	1	practice_z	5	practice_z	19	stimuli_target_squarediamonds.svg	stimuli_distractor_diamondtriangles.svg	2	yes	44	1	236
6.6.1	mac	2022-12-19	23:29:30	23:33:17	225506	60fdf5e83b1de9a21e8ef4e5	310905652	1	practice_z	5	advance_on_keypress_ZEE	20	stimuli_target_squarediamonds.svg	stimuli_distractor_diamondtriangles.svg	2	yes	57	0	401
6.6.1	mac	2022-12-19	23:29:30	23:33:21	229535	60fdf5e83b1de9a21e8ef4e5	310905652	1	practice_z	5	practice_z	21	stimuli_distractor_diamondtriangles.svg	stimuli_distractor_trianglediamonds.svg	14	no	0	1	2000
6.6.1	mac	2022-12-19	23:29:30	23:33:21	229535	60fdf5e83b1de9a21e8ef4e5	310905652	1	practice_z	5	advance_on_keypress_ZEE	22	stimuli_distractor_diamondtriangles.svg	stimuli_distractor_trianglediamonds.svg	14	no	57	0	592
6.6.1	mac	2022-12-19	23:29:30	23:33:24	232652	60fdf5e83b1de9a21e8ef4e5	310905652	1	practice_z	5	practice_z	23	stimuli_distractor_diamondtriangles.svg	stimuli_target_trianglecircles.svg	9	yes	44	1	897
6.6.1	mac	2022-12-19	23:29:30	23:33:24	232652	60fdf5e83b1de9a21e8ef4e5	310905652	1	practice_z	5	advance_on_keypress_ZEE	24	stimuli_distractor_diamondtriangles.svg	stimuli_target_trianglecircles.svg	9	yes	57	0	720
6.6.1	mac	2022-12-19	23:29:30	23:33:29	237003	60fdf5e83b1de9a21e8ef4e5	310905652	1	practice_z	5	practice_z	25	stimuli_distractor_diamondtriangles.svg	stimuli_target_diamondcircles.svg	8	yes	0	0	2000
6.6.1	mac	2022-12-19	23:29:30	23:33:29	237003	60fdf5e83b1de9a21e8ef4e5	310905652	1	practice_z	5	advance_on_keypress_ZEE	26	stimuli_distractor_diamondtriangles.svg	stimuli_target_diamondcircles.svg	8	yes	57	0	458
6.6.1	mac	2022-12-19	23:29:30	23:33:31	239780	60fdf5e83b1de9a21e8ef4e5	310905652	1	practice_z	5	practice_z	27	stimuli_distractor_diamondtriangles.svg	stimuli_target_circletriangles.svg	7	yes	44	1	693
6.6.1	mac	2022-12-19	23:29:30	23:33:31	239780	60fdf5e83b1de9a21e8ef4e5	310905652	1	practice_z	5	advance_on_keypress_ZEE	28	stimuli_distractor_diamondtriangles.svg	stimuli_target_circletriangles.svg	7	yes	57	0	615
6.6.1	mac	2022-12-19	23:29:30	23:33:36	244030	60fdf5e83b1de9a21e8ef4e5	310905652	1	practice_z	5	practice_z	29	stimuli_distractor_diamondtriangles.svg	stimuli_distractor_diamondtriangles.svg	13	no	0	1	2000
6.6.1	mac	2022-12-19	23:29:30	23:33:36	244030	60fdf5e83b1de9a21e8ef4e5	310905652	1	practice_z	5	advance_on_keypress_ZEE	30	stimuli_distractor_diamondtriangles.svg	stimuli_distractor_diamondtriangles.svg	13	no	57	0	688
6.6.1	mac	2022-12-19	23:29:30	23:33:39	247097	60fdf5e83b1de9a21e8ef4e5	310905652	1	practice_z	5	practice_z	31	stimuli_distractor_trianglediamonds.svg	stimuli_distractor_trianglediamonds.svg	15	no	44	0	755
6.6.1	mac	2022-12-19	23:29:30	23:33:39	247097	60fdf5e83b1de9a21e8ef4e5	310905652	1	practice_z	5	advance_on_keypress_ZEE	32	stimuli_distractor_trianglediamonds.svg	stimuli_distractor_trianglediamonds.svg	15	no	57	0	792
6.6.1	mac	2022-12-19	23:29:30	23:33:48	256228	60fdf5e83b1de9a21e8ef4e5	310905652	1	main_z	7	main_z	1	stimuli_target_diamondcircles.svg	stimuli_distractor_diamondtriangles.svg	23	yes	44	1	760
6.6.1	mac	2022-12-19	23:29:30	23:33:48	256228	60fdf5e83b1de9a21e8ef4e5	310905652	1	main_z	7	advance_on_keypress_ZEE	2	stimuli_target_diamondcircles.svg	stimuli_distractor_diamondtriangles.svg	23	yes	57	0	1882
6.6.1	mac	2022-12-19	23:29:30	23:33:51	259614	60fdf5e83b1de9a21e8ef4e5	310905652	1	main_z	7	main_z	3	stimuli_target_trianglecircles.svg	stimuli_distractor_trianglediamonds.svg	17	yes	44	1	865
6.6.1	mac	2022-12-19	23:29:30	23:33:51	259614	60fdf5e83b1de9a21e8ef4e5	310905652	1	main_z	7	advance_on_keypress_ZEE	4	stimuli_target_trianglecircles.svg	stimuli_distractor_trianglediamonds.svg	17	yes	57	0	1175
6.6.1	mac	2022-12-19	23:29:30	23:33:54	262672	60fdf5e83b1de9a21e8ef4e5	310905652	1	main_z	7	main_z	5	stimuli_distractor_diamondtriangles.svg	stimuli_target_diamondcircles.svg	31	yes	44	1	1264
6.6.1	mac	2022-12-19	23:29:30	23:33:54	262672	60fdf5e83b1de9a21e8ef4e5	310905652	1	main_z	7	advance_on_keypress_ZEE	6	stimuli_distractor_diamondtriangles.svg	stimuli_target_diamondcircles.svg	31	yes	57	0	776
6.6.1	mac	2022-12-19	23:29:30	23:33:58	266075	60fdf5e83b1de9a21e8ef4e5	310905652	1	main_z	7	main_z	7	stimuli_distractor_diamondtriangles.svg	stimuli_distractor_diamondtriangles.svg	39	no	0	1	2000
6.6.1	mac	2022-12-19	23:29:30	23:33:58	266075	60fdf5e83b1de9a21e8ef4e5	310905652	1	main_z	7	advance_on_keypress_ZEE	8	stimuli_distractor_diamondtriangles.svg	stimuli_distractor_diamondtriangles.svg	39	no	57	0	643
6.6.1	mac	2022-12-19	23:29:30	23:33:59	267736	60fdf5e83b1de9a21e8ef4e5	310905652	1	main_z	7	main_z	9	stimuli_target_diamondsquares.svg	stimuli_distractor_trianglediamonds.svg	20	yes	44	1	375
6.6.1	mac	2022-12-19	23:29:30	23:33:59	267736	60fdf5e83b1de9a21e8ef4e5	310905652	1	main_z	7	advance_on_keypress_ZEE	10	stimuli_target_diamondsquares.svg	stimuli_distractor_trianglediamonds.svg	20	yes	57	0	1186
6.6.1	mac	2022-12-19	23:29:30	23:34:03	271563	60fdf5e83b1de9a21e8ef4e5	310905652	1	main_z	7	main_z	11	stimuli_distractor_diamondtriangles.svg	stimuli_distractor_diamondtriangles.svg	40	no	0	1	2000
6.6.1	mac	2022-12-19	23:29:30	23:34:03	271563	60fdf5e83b1de9a21e8ef4e5	310905652	1	main_z	7	advance_on_keypress_ZEE	12	stimuli_distractor_diamondtriangles.svg	stimuli_distractor_diamondtriangles.svg	40	no	57	0	542
6.6.1	mac	2022-12-19	23:29:30	23:34:05	273224	60fdf5e83b1de9a21e8ef4e5	310905652	1	main_z	7	main_z	13	stimuli_distractor_trianglediamonds.svg	stimuli_target_diamondsquares.svg	28	yes	44	1	484
6.6.1	mac	2022-12-19	23:29:30	23:34:05	273224	60fdf5e83b1de9a21e8ef4e5	310905652	1	main_z	7	advance_on_keypress_ZEE	14	stimuli_distractor_trianglediamonds.svg	stimuli_target_diamondsquares.svg	28	yes	57	0	1103
6.6.1	mac	2022-12-19	23:29:30	23:34:07	275764	60fdf5e83b1de9a21e8ef4e5	310905652	1	main_z	7	main_z	15	stimuli_distractor_diamondtriangles.svg	stimuli_target_trianglecircles.svg	29	yes	44	1	786
6.6.1	mac	2022-12-19	23:29:30	23:34:07	275764	60fdf5e83b1de9a21e8ef4e5	310905652	1	main_z	7	advance_on_keypress_ZEE	16	stimuli_distractor_diamondtriangles.svg	stimuli_target_trianglecircles.svg	29	yes	57	0	860
6.6.1	mac	2022-12-19	23:29:30	23:34:10	277960	60fdf5e83b1de9a21e8ef4e5	310905652	1	main_z	7	main_z	17	stimuli_target_circlediamonds.svg	stimuli_distractor_trianglediamonds.svg	2	yes	44	1	694
6.6.1	mac	2022-12-19	23:29:30	23:34:10	277960	60fdf5e83b1de9a21e8ef4e5	310905652	1	main_z	7	advance_on_keypress_ZEE	18	stimuli_target_circlediamonds.svg	stimuli_distractor_trianglediamonds.svg	2	yes	57	0	559
6.6.1	mac	2022-12-19	23:29:30	23:34:12	279843	60fdf5e83b1de9a21e8ef4e5	310905652	1	main_z	7	main_z	19	stimuli_distractor_diamondtriangles.svg	stimuli_target_circlediamonds.svg	14	yes	44	1	703
6.6.1	mac	2022-12-19	23:29:30	23:34:12	279843	60fdf5e83b1de9a21e8ef4e5	310905652	1	main_z	7	advance_on_keypress_ZEE	20	stimuli_distractor_diamondtriangles.svg	stimuli_target_circlediamonds.svg	14	yes	57	0	848
6.6.1	mac	2022-12-19	23:29:30	23:34:15	283317	60fdf5e83b1de9a21e8ef4e5	310905652	1	main_z	7	main_z	21	stimuli_distractor_trianglediamonds.svg	stimuli_distractor_trianglediamonds.svg	33	no	0	1	2000
6.6.1	mac	2022-12-19	23:29:30	23:34:15	283317	60fdf5e83b1de9a21e8ef4e5	310905652	1	main_z	7	advance_on_keypress_ZEE	22	stimuli_distractor_trianglediamonds.svg	stimuli_distractor_trianglediamonds.svg	33	no	57	0	681
6.6.1	mac	2022-12-19	23:29:30	23:34:17	285468	60fdf5e83b1de9a21e8ef4e5	310905652	1	main_z	7	main_z	23	stimuli_target_trianglesquares.svg	stimuli_distractor_diamondtriangles.svg	22	yes	44	1	852
6.6.1	mac	2022-12-19	23:29:30	23:34:17	285468	60fdf5e83b1de9a21e8ef4e5	310905652	1	main_z	7	advance_on_keypress_ZEE	24	stimuli_target_trianglesquares.svg	stimuli_distractor_diamondtriangles.svg	22	yes	57	0	991
6.6.1	mac	2022-12-19	23:29:30	23:34:20	287941	60fdf5e83b1de9a21e8ef4e5	310905652	1	main_z	7	main_z	25	stimuli_distractor_diamondtriangles.svg	stimuli_target_trianglesquares.svg	30	yes	44	1	855
6.6.1	mac	2022-12-19	23:29:30	23:34:20	287941	60fdf5e83b1de9a21e8ef4e5	310905652	1	main_z	7	advance_on_keypress_ZEE	26	stimuli_distractor_diamondtriangles.svg	stimuli_target_trianglesquares.svg	30	yes	57	0	781
6.6.1	mac	2022-12-19	23:29:30	23:34:22	290269	60fdf5e83b1de9a21e8ef4e5	310905652	1	main_z	7	main_z	27	stimuli_distractor_diamondtriangles.svg	stimuli_target_squarediamonds.svg	16	yes	44	1	916
6.6.1	mac	2022-12-19	23:29:30	23:34:22	290269	60fdf5e83b1de9a21e8ef4e5	310905652	1	main_z	7	advance_on_keypress_ZEE	28	stimuli_distractor_diamondtriangles.svg	stimuli_target_squarediamonds.svg	16	yes	57	0	743
6.6.1	mac	2022-12-19	23:29:30	23:34:24	292734	60fdf5e83b1de9a21e8ef4e5	310905652	1	main_z	7	main_z	29	stimuli_target_squaretriangles.svg	stimuli_distractor_trianglediamonds.svg	3	yes	44	1	1097
6.6.1	mac	2022-12-19	23:29:30	23:34:24	292734	60fdf5e83b1de9a21e8ef4e5	310905652	1	main_z	7	advance_on_keypress_ZEE	30	stimuli_target_squaretriangles.svg	stimuli_distractor_trianglediamonds.svg	3	yes	57	0	723
6.6.1	mac	2022-12-19	23:29:30	23:34:28	296091	60fdf5e83b1de9a21e8ef4e5	310905652	1	main_z	7	main_z	31	stimuli_distractor_trianglediamonds.svg	stimuli_target_trianglesquares.svg	26	yes	0	0	2000
6.6.1	mac	2022-12-19	23:29:30	23:34:28	296091	60fdf5e83b1de9a21e8ef4e5	310905652	1	main_z	7	advance_on_keypress_ZEE	32	stimuli_distractor_trianglediamonds.svg	stimuli_target_trianglesquares.svg	26	yes	57	0	351
6.6.1	mac	2022-12-19	23:29:30	23:34:29	297689	60fdf5e83b1de9a21e8ef4e5	310905652	1	main_z	7	main_z	33	stimuli_distractor_trianglediamonds.svg	stimuli_target_squaretriangles.svg	11	yes	44	1	614
6.6.1	mac	2022-12-19	23:29:30	23:34:29	297689	60fdf5e83b1de9a21e8ef4e5	310905652	1	main_z	7	advance_on_keypress_ZEE	34	stimuli_distractor_trianglediamonds.svg	stimuli_target_squaretriangles.svg	11	yes	57	0	722
6.6.1	mac	2022-12-19	23:29:30	23:34:31	299501	60fdf5e83b1de9a21e8ef4e5	310905652	1	main_z	7	main_z	35	stimuli_distractor_trianglediamonds.svg	stimuli_target_circlediamonds.svg	10	yes	44	1	454
6.6.1	mac	2022-12-19	23:29:30	23:34:31	299501	60fdf5e83b1de9a21e8ef4e5	310905652	1	main_z	7	advance_on_keypress_ZEE	36	stimuli_distractor_trianglediamonds.svg	stimuli_target_circlediamonds.svg	10	yes	57	0	673
6.6.1	mac	2022-12-19	23:29:30	23:34:33	301298	60fdf5e83b1de9a21e8ef4e5	310905652	1	main_z	7	main_z	37	stimuli_distractor_trianglediamonds.svg	stimuli_target_circletriangles.svg	9	yes	44	1	488
6.6.1	mac	2022-12-19	23:29:30	23:34:33	301298	60fdf5e83b1de9a21e8ef4e5	310905652	1	main_z	7	advance_on_keypress_ZEE	38	stimuli_distractor_trianglediamonds.svg	stimuli_target_circletriangles.svg	9	yes	57	0	870
6.6.1	mac	2022-12-19	23:29:30	23:34:35	303455	60fdf5e83b1de9a21e8ef4e5	310905652	1	main_z	7	main_z	39	stimuli_target_trianglesquares.svg	stimuli_distractor_trianglediamonds.svg	18	yes	44	1	658
6.6.1	mac	2022-12-19	23:29:30	23:34:35	303455	60fdf5e83b1de9a21e8ef4e5	310905652	1	main_z	7	advance_on_keypress_ZEE	40	stimuli_target_trianglesquares.svg	stimuli_distractor_trianglediamonds.svg	18	yes	57	0	799
6.6.1	mac	2022-12-19	23:29:30	23:34:37	305385	60fdf5e83b1de9a21e8ef4e5	310905652	1	main_z	7	main_z	41	stimuli_distractor_diamondtriangles.svg	stimuli_distractor_trianglediamonds.svg	38	no	44	0	491
6.6.1	mac	2022-12-19	23:29:30	23:34:37	305385	60fdf5e83b1de9a21e8ef4e5	310905652	1	main_z	7	advance_on_keypress_ZEE	42	stimuli_distractor_diamondtriangles.svg	stimuli_distractor_trianglediamonds.svg	38	no	57	0	1034
6.6.1	mac	2022-12-19	23:29:30	23:34:39	307787	60fdf5e83b1de9a21e8ef4e5	310905652	1	main_z	7	main_z	43	stimuli_target_circlediamonds.svg	stimuli_distractor_diamondtriangles.svg	6	yes	44	1	729
6.6.1	mac	2022-12-19	23:29:30	23:34:39	307787	60fdf5e83b1de9a21e8ef4e5	310905652	1	main_z	7	advance_on_keypress_ZEE	44	stimuli_target_circlediamonds.svg	stimuli_distractor_diamondtriangles.svg	6	yes	57	0	745
6.6.1	mac	2022-12-19	23:29:30	23:34:43	311150	60fdf5e83b1de9a21e8ef4e5	310905652	1	main_z	7	main_z	45	stimuli_distractor_trianglediamonds.svg	stimuli_distractor_trianglediamonds.svg	34	no	0	1	2000
6.6.1	mac	2022-12-19	23:29:30	23:34:43	311150	60fdf5e83b1de9a21e8ef4e5	310905652	1	main_z	7	advance_on_keypress_ZEE	46	stimuli_distractor_trianglediamonds.svg	stimuli_distractor_trianglediamonds.svg	34	no	57	0	408
6.6.1	mac	2022-12-19	23:29:30	23:34:44	312705	60fdf5e83b1de9a21e8ef4e5	310905652	1	main_z	7	main_z	47	stimuli_target_diamondcircles.svg	stimuli_distractor_trianglediamonds.svg	19	yes	44	1	515
6.6.1	mac	2022-12-19	23:29:30	23:34:44	312705	60fdf5e83b1de9a21e8ef4e5	310905652	1	main_z	7	advance_on_keypress_ZEE	48	stimuli_target_diamondcircles.svg	stimuli_distractor_trianglediamonds.svg	19	yes	57	0	826
6.6.1	mac	2022-12-19	23:29:30	23:34:46	314815	60fdf5e83b1de9a21e8ef4e5	310905652	1	main_z	7	main_z	49	stimuli_target_diamondsquares.svg	stimuli_distractor_diamondtriangles.svg	24	yes	44	1	672
6.6.1	mac	2022-12-19	23:29:30	23:34:46	314815	60fdf5e83b1de9a21e8ef4e5	310905652	1	main_z	7	advance_on_keypress_ZEE	50	stimuli_target_diamondsquares.svg	stimuli_distractor_diamondtriangles.svg	24	yes	57	0	553
6.6.1	mac	2022-12-19	23:29:30	23:34:48	316636	60fdf5e83b1de9a21e8ef4e5	310905652	1	main_z	7	main_z	51	stimuli_distractor_trianglediamonds.svg	stimuli_target_diamondcircles.svg	27	yes	44	1	632
6.6.1	mac	2022-12-19	23:29:30	23:34:48	316636	60fdf5e83b1de9a21e8ef4e5	310905652	1	main_z	7	advance_on_keypress_ZEE	52	stimuli_distractor_trianglediamonds.svg	stimuli_target_diamondcircles.svg	27	yes	57	0	690
6.6.1	mac	2022-12-19	23:29:30	23:34:52	319956	60fdf5e83b1de9a21e8ef4e5	310905652	1	main_z	7	main_z	53	stimuli_distractor_diamondtriangles.svg	stimuli_target_diamondsquares.svg	32	yes	0	0	2000
6.6.1	mac	2022-12-19	23:29:30	23:34:52	319956	60fdf5e83b1de9a21e8ef4e5	310905652	1	main_z	7	advance_on_keypress_ZEE	54	stimuli_distractor_diamondtriangles.svg	stimuli_target_diamondsquares.svg	32	yes	57	0	407
6.6.1	mac	2022-12-19	23:29:30	23:34:53	321393	60fdf5e83b1de9a21e8ef4e5	310905652	1	main_z	7	main_z	55	stimuli_target_squarediamonds.svg	stimuli_distractor_diamondtriangles.svg	8	yes	44	1	390
6.6.1	mac	2022-12-19	23:29:30	23:34:53	321393	60fdf5e83b1de9a21e8ef4e5	310905652	1	main_z	7	advance_on_keypress_ZEE	56	stimuli_target_squarediamonds.svg	stimuli_distractor_diamondtriangles.svg	8	yes	57	0	570
6.6.1	mac	2022-12-19	23:29:30	23:34:55	323682	60fdf5e83b1de9a21e8ef4e5	310905652	1	main_z	7	main_z	57	stimuli_target_squaretriangles.svg	stimuli_distractor_diamondtriangles.svg	7	yes	44	1	1090
6.6.1	mac	2022-12-19	23:29:30	23:34:55	323682	60fdf5e83b1de9a21e8ef4e5	310905652	1	main_z	7	advance_on_keypress_ZEE	58	stimuli_target_squaretriangles.svg	stimuli_distractor_diamondtriangles.svg	7	yes	57	0	576
6.6.1	mac	2022-12-19	23:29:30	23:34:57	325333	60fdf5e83b1de9a21e8ef4e5	310905652	1	main_z	7	main_z	59	stimuli_distractor_diamondtriangles.svg	stimuli_target_squaretriangles.svg	15	yes	44	1	446
6.6.1	mac	2022-12-19	23:29:30	23:34:57	325333	60fdf5e83b1de9a21e8ef4e5	310905652	1	main_z	7	advance_on_keypress_ZEE	60	stimuli_distractor_diamondtriangles.svg	stimuli_target_squaretriangles.svg	15	yes	57	0	584
6.6.1	mac	2022-12-19	23:29:30	23:34:59	327202	60fdf5e83b1de9a21e8ef4e5	310905652	1	main_z	7	main_z	61	stimuli_distractor_diamondtriangles.svg	stimuli_target_circletriangles.svg	13	yes	44	1	649
6.6.1	mac	2022-12-19	23:29:30	23:34:59	327202	60fdf5e83b1de9a21e8ef4e5	310905652	1	main_z	7	advance_on_keypress_ZEE	62	stimuli_distractor_diamondtriangles.svg	stimuli_target_circletriangles.svg	13	yes	57	0	469
6.6.1	mac	2022-12-19	23:29:30	23:35:01	329186	60fdf5e83b1de9a21e8ef4e5	310905652	1	main_z	7	main_z	63	stimuli_distractor_trianglediamonds.svg	stimuli_distractor_diamondtriangles.svg	35	no	44	0	880
6.6.1	mac	2022-12-19	23:29:30	23:35:01	329186	60fdf5e83b1de9a21e8ef4e5	310905652	1	main_z	7	advance_on_keypress_ZEE	64	stimuli_distractor_trianglediamonds.svg	stimuli_distractor_diamondtriangles.svg	35	no	57	0	579
6.6.1	mac	2022-12-19	23:29:30	23:35:03	331497	60fdf5e83b1de9a21e8ef4e5	310905652	1	main_z	7	main_z	65	stimuli_distractor_trianglediamonds.svg	stimuli_target_trianglecircles.svg	25	yes	44	1	1104
6.6.1	mac	2022-12-19	23:29:30	23:35:03	331497	60fdf5e83b1de9a21e8ef4e5	310905652	1	main_z	7	advance_on_keypress_ZEE	66	stimuli_distractor_trianglediamonds.svg	stimuli_target_trianglecircles.svg	25	yes	57	0	567
6.6.1	mac	2022-12-19	23:29:30	23:35:05	333332	60fdf5e83b1de9a21e8ef4e5	310905652	1	main_z	7	main_z	67	stimuli_target_circletriangles.svg	stimuli_distractor_diamondtriangles.svg	5	yes	44	1	633
6.6.1	mac	2022-12-19	23:29:30	23:35:05	333332	60fdf5e83b1de9a21e8ef4e5	310905652	1	main_z	7	advance_on_keypress_ZEE	68	stimuli_target_circletriangles.svg	stimuli_distractor_diamondtriangles.svg	5	yes	57	0	435
6.6.1	mac	2022-12-19	23:29:30	23:35:07	335077	60fdf5e83b1de9a21e8ef4e5	310905652	1	main_z	7	main_z	69	stimuli_target_trianglecircles.svg	stimuli_distractor_diamondtriangles.svg	21	yes	44	1	670
6.6.1	mac	2022-12-19	23:29:30	23:35:07	335077	60fdf5e83b1de9a21e8ef4e5	310905652	1	main_z	7	advance_on_keypress_ZEE	70	stimuli_target_trianglecircles.svg	stimuli_distractor_diamondtriangles.svg	21	yes	57	0	463
6.6.1	mac	2022-12-19	23:29:30	23:35:10	338163	60fdf5e83b1de9a21e8ef4e5	310905652	1	main_z	7	main_z	71	stimuli_distractor_trianglediamonds.svg	stimuli_distractor_diamondtriangles.svg	36	no	0	1	2000
6.6.1	mac	2022-12-19	23:29:30	23:35:10	338163	60fdf5e83b1de9a21e8ef4e5	310905652	1	main_z	7	advance_on_keypress_ZEE	72	stimuli_distractor_trianglediamonds.svg	stimuli_distractor_diamondtriangles.svg	36	no	57	0	720
6.6.1	mac	2022-12-19	23:29:30	23:35:12	340017	60fdf5e83b1de9a21e8ef4e5	310905652	1	main_z	7	main_z	73	stimuli_distractor_trianglediamonds.svg	stimuli_target_squarediamonds.svg	12	yes	44	1	512
6.6.1	mac	2022-12-19	23:29:30	23:35:12	340017	60fdf5e83b1de9a21e8ef4e5	310905652	1	main_z	7	advance_on_keypress_ZEE	74	stimuli_distractor_trianglediamonds.svg	stimuli_target_squarediamonds.svg	12	yes	57	0	557
6.6.1	mac	2022-12-19	23:29:30	23:35:14	342163	60fdf5e83b1de9a21e8ef4e5	310905652	1	main_z	7	main_z	75	stimuli_distractor_diamondtriangles.svg	stimuli_distractor_trianglediamonds.svg	37	no	44	0	971
6.6.1	mac	2022-12-19	23:29:30	23:35:14	342163	60fdf5e83b1de9a21e8ef4e5	310905652	1	main_z	7	advance_on_keypress_ZEE	76	stimuli_distractor_diamondtriangles.svg	stimuli_distractor_trianglediamonds.svg	37	no	57	0	628
6.6.1	mac	2022-12-19	23:29:30	23:35:16	344035	60fdf5e83b1de9a21e8ef4e5	310905652	1	main_z	7	main_z	77	stimuli_target_circletriangles.svg	stimuli_distractor_trianglediamonds.svg	1	yes	44	1	617
6.6.1	mac	2022-12-19	23:29:30	23:35:16	344035	60fdf5e83b1de9a21e8ef4e5	310905652	1	main_z	7	advance_on_keypress_ZEE	78	stimuli_target_circletriangles.svg	stimuli_distractor_trianglediamonds.svg	1	yes	57	0	432
6.6.1	mac	2022-12-19	23:29:30	23:35:17	345562	60fdf5e83b1de9a21e8ef4e5	310905652	1	main_z	7	main_z	79	stimuli_target_squarediamonds.svg	stimuli_distractor_trianglediamonds.svg	4	yes	44	1	454
6.6.1	mac	2022-12-19	23:29:30	23:35:17	345562	60fdf5e83b1de9a21e8ef4e5	310905652	1	main_z	7	advance_on_keypress_ZEE	80	stimuli_target_squarediamonds.svg	stimuli_distractor_trianglediamonds.svg	4	yes	57	0	423
6.6.1	mac	2022-12-19	23:29:30	23:35:19	347276	60fdf5e83b1de9a21e8ef4e5	310905652	1	main_z	7	main_z	81	stimuli_distractor_trianglediamonds.svg	stimuli_target_trianglecircles.svg	25	yes	44	1	659
6.6.1	mac	2022-12-19	23:29:30	23:35:19	347276	60fdf5e83b1de9a21e8ef4e5	310905652	1	main_z	7	advance_on_keypress_ZEE	82	stimuli_distractor_trianglediamonds.svg	stimuli_target_trianglecircles.svg	25	yes	57	0	376
6.6.1	mac	2022-12-19	23:29:30	23:35:21	349402	60fdf5e83b1de9a21e8ef4e5	310905652	1	main_z	7	main_z	83	stimuli_target_diamondsquares.svg	stimuli_distractor_diamondtriangles.svg	24	yes	44	1	1116
6.6.1	mac	2022-12-19	23:29:30	23:35:21	349402	60fdf5e83b1de9a21e8ef4e5	310905652	1	main_z	7	advance_on_keypress_ZEE	84	stimuli_target_diamondsquares.svg	stimuli_distractor_diamondtriangles.svg	24	yes	57	0	440
6.6.1	mac	2022-12-19	23:29:30	23:35:23	351033	60fdf5e83b1de9a21e8ef4e5	310905652	1	main_z	7	main_z	85	stimuli_distractor_trianglediamonds.svg	stimuli_target_circletriangles.svg	9	yes	44	1	560
6.6.1	mac	2022-12-19	23:29:30	23:35:23	351033	60fdf5e83b1de9a21e8ef4e5	310905652	1	main_z	7	advance_on_keypress_ZEE	86	stimuli_distractor_trianglediamonds.svg	stimuli_target_circletriangles.svg	9	yes	57	0	396
6.6.1	mac	2022-12-19	23:29:30	23:35:24	352516	60fdf5e83b1de9a21e8ef4e5	310905652	1	main_z	7	main_z	87	stimuli_target_trianglecircles.svg	stimuli_distractor_diamondtriangles.svg	21	yes	44	1	458
6.6.1	mac	2022-12-19	23:29:30	23:35:24	352516	60fdf5e83b1de9a21e8ef4e5	310905652	1	main_z	7	advance_on_keypress_ZEE	88	stimuli_target_trianglecircles.svg	stimuli_distractor_diamondtriangles.svg	21	yes	57	0	512
6.6.1	mac	2022-12-19	23:29:30	23:35:27	355659	60fdf5e83b1de9a21e8ef4e5	310905652	1	main_z	7	main_z	89	stimuli_distractor_trianglediamonds.svg	stimuli_distractor_diamondtriangles.svg	35	no	0	1	2000
6.6.1	mac	2022-12-19	23:29:30	23:35:27	355659	60fdf5e83b1de9a21e8ef4e5	310905652	1	main_z	7	advance_on_keypress_ZEE	90	stimuli_distractor_trianglediamonds.svg	stimuli_distractor_diamondtriangles.svg	35	no	57	0	845
6.6.1	mac	2022-12-19	23:29:30	23:35:29	357711	60fdf5e83b1de9a21e8ef4e5	310905652	1	main_z	7	main_z	91	stimuli_target_squarediamonds.svg	stimuli_distractor_diamondtriangles.svg	8	yes	44	1	572
6.6.1	mac	2022-12-19	23:29:30	23:35:29	357711	60fdf5e83b1de9a21e8ef4e5	310905652	1	main_z	7	advance_on_keypress_ZEE	92	stimuli_target_squarediamonds.svg	stimuli_distractor_diamondtriangles.svg	8	yes	57	0	405
6.6.1	mac	2022-12-19	23:29:30	23:35:31	359312	60fdf5e83b1de9a21e8ef4e5	310905652	1	main_z	7	main_z	93	stimuli_distractor_diamondtriangles.svg	stimuli_target_circletriangles.svg	13	yes	44	1	563
6.6.1	mac	2022-12-19	23:29:30	23:35:31	359312	60fdf5e83b1de9a21e8ef4e5	310905652	1	main_z	7	advance_on_keypress_ZEE	94	stimuli_distractor_diamondtriangles.svg	stimuli_target_circletriangles.svg	13	yes	57	0	411
6.6.1	mac	2022-12-19	23:29:30	23:35:33	361056	60fdf5e83b1de9a21e8ef4e5	310905652	1	main_z	7	main_z	95	stimuli_target_diamondcircles.svg	stimuli_distractor_diamondtriangles.svg	23	yes	44	1	700
6.6.1	mac	2022-12-19	23:29:30	23:35:33	361056	60fdf5e83b1de9a21e8ef4e5	310905652	1	main_z	7	advance_on_keypress_ZEE	96	stimuli_target_diamondcircles.svg	stimuli_distractor_diamondtriangles.svg	23	yes	57	0	393
6.6.1	mac	2022-12-19	23:29:30	23:35:36	364064	60fdf5e83b1de9a21e8ef4e5	310905652	1	main_z	7	main_z	97	stimuli_distractor_diamondtriangles.svg	stimuli_distractor_diamondtriangles.svg	39	no	0	1	2000
6.6.1	mac	2022-12-19	23:29:30	23:35:36	364064	60fdf5e83b1de9a21e8ef4e5	310905652	1	main_z	7	advance_on_keypress_ZEE	98	stimuli_distractor_diamondtriangles.svg	stimuli_distractor_diamondtriangles.svg	39	no	57	0	950
6.6.1	mac	2022-12-19	23:29:30	23:35:38	366474	60fdf5e83b1de9a21e8ef4e5	310905652	1	main_z	7	main_z	99	stimuli_distractor_trianglediamonds.svg	stimuli_distractor_diamondtriangles.svg	36	no	44	0	825
6.6.1	mac	2022-12-19	23:29:30	23:35:38	366474	60fdf5e83b1de9a21e8ef4e5	310905652	1	main_z	7	advance_on_keypress_ZEE	100	stimuli_distractor_trianglediamonds.svg	stimuli_distractor_diamondtriangles.svg	36	no	57	0	565
6.6.1	mac	2022-12-19	23:29:30	23:35:40	368183	60fdf5e83b1de9a21e8ef4e5	310905652	1	main_z	7	main_z	101	stimuli_distractor_trianglediamonds.svg	stimuli_target_diamondcircles.svg	27	yes	44	1	510
6.6.1	mac	2022-12-19	23:29:30	23:35:40	368183	60fdf5e83b1de9a21e8ef4e5	310905652	1	main_z	7	advance_on_keypress_ZEE	102	stimuli_distractor_trianglediamonds.svg	stimuli_target_diamondcircles.svg	27	yes	57	0	435
6.6.1	mac	2022-12-19	23:29:30	23:35:42	370554	60fdf5e83b1de9a21e8ef4e5	310905652	1	main_z	7	main_z	103	stimuli_distractor_trianglediamonds.svg	stimuli_target_trianglesquares.svg	26	yes	44	1	1315
6.6.1	mac	2022-12-19	23:29:30	23:35:42	370554	60fdf5e83b1de9a21e8ef4e5	310905652	1	main_z	7	advance_on_keypress_ZEE	104	stimuli_distractor_trianglediamonds.svg	stimuli_target_trianglesquares.svg	26	yes	57	0	387
6.6.1	mac	2022-12-19	23:29:30	23:35:44	372162	60fdf5e83b1de9a21e8ef4e5	310905652	1	main_z	7	main_z	105	stimuli_target_diamondcircles.svg	stimuli_distractor_trianglediamonds.svg	19	yes	44	1	598
6.6.1	mac	2022-12-19	23:29:30	23:35:44	372162	60fdf5e83b1de9a21e8ef4e5	310905652	1	main_z	7	advance_on_keypress_ZEE	106	stimuli_target_diamondcircles.svg	stimuli_distractor_trianglediamonds.svg	19	yes	57	0	373
6.6.1	mac	2022-12-19	23:29:30	23:35:45	373785	60fdf5e83b1de9a21e8ef4e5	310905652	1	main_z	7	main_z	107	stimuli_target_squarediamonds.svg	stimuli_distractor_trianglediamonds.svg	4	yes	44	1	617
6.6.1	mac	2022-12-19	23:29:30	23:35:45	373785	60fdf5e83b1de9a21e8ef4e5	310905652	1	main_z	7	advance_on_keypress_ZEE	108	stimuli_target_squarediamonds.svg	stimuli_distractor_trianglediamonds.svg	4	yes	57	0	314
6.6.1	mac	2022-12-19	23:29:30	23:35:48	376231	60fdf5e83b1de9a21e8ef4e5	310905652	1	main_z	7	main_z	109	stimuli_distractor_diamondtriangles.svg	stimuli_target_trianglesquares.svg	30	yes	44	1	1504
6.6.1	mac	2022-12-19	23:29:30	23:35:48	376231	60fdf5e83b1de9a21e8ef4e5	310905652	1	main_z	7	advance_on_keypress_ZEE	110	stimuli_distractor_diamondtriangles.svg	stimuli_target_trianglesquares.svg	30	yes	57	0	385
6.6.1	mac	2022-12-19	23:29:30	23:35:51	378888	60fdf5e83b1de9a21e8ef4e5	310905652	1	main_z	7	main_z	111	stimuli_target_diamondsquares.svg	stimuli_distractor_trianglediamonds.svg	20	yes	44	1	1648
6.6.1	mac	2022-12-19	23:29:30	23:35:51	378888	60fdf5e83b1de9a21e8ef4e5	310905652	1	main_z	7	advance_on_keypress_ZEE	112	stimuli_target_diamondsquares.svg	stimuli_distractor_trianglediamonds.svg	20	yes	57	0	273
6.6.1	mac	2022-12-19	23:29:30	23:35:53	381245	60fdf5e83b1de9a21e8ef4e5	310905652	1	main_z	7	main_z	113	stimuli_distractor_trianglediamonds.svg	stimuli_target_diamondsquares.svg	28	yes	44	1	1444
6.6.1	mac	2022-12-19	23:29:30	23:35:53	381245	60fdf5e83b1de9a21e8ef4e5	310905652	1	main_z	7	advance_on_keypress_ZEE	114	stimuli_distractor_trianglediamonds.svg	stimuli_target_diamondsquares.svg	28	yes	57	0	254
6.6.1	mac	2022-12-19	23:29:30	23:35:55	382849	60fdf5e83b1de9a21e8ef4e5	310905652	1	main_z	7	main_z	115	stimuli_target_trianglecircles.svg	stimuli_distractor_trianglediamonds.svg	17	yes	44	1	724
6.6.1	mac	2022-12-19	23:29:30	23:35:55	382849	60fdf5e83b1de9a21e8ef4e5	310905652	1	main_z	7	advance_on_keypress_ZEE	116	stimuli_target_trianglecircles.svg	stimuli_distractor_trianglediamonds.svg	17	yes	57	0	278
6.6.1	mac	2022-12-19	23:29:30	23:35:56	384491	60fdf5e83b1de9a21e8ef4e5	310905652	1	main_z	7	main_z	117	stimuli_target_squaretriangles.svg	stimuli_distractor_diamondtriangles.svg	7	yes	44	1	728
6.6.1	mac	2022-12-19	23:29:30	23:35:56	384491	60fdf5e83b1de9a21e8ef4e5	310905652	1	main_z	7	advance_on_keypress_ZEE	118	stimuli_target_squaretriangles.svg	stimuli_distractor_diamondtriangles.svg	7	yes	57	0	259
6.6.1	mac	2022-12-19	23:29:30	23:35:59	387367	60fdf5e83b1de9a21e8ef4e5	310905652	1	main_z	7	main_z	119	stimuli_target_trianglesquares.svg	stimuli_distractor_trianglediamonds.svg	18	yes	0	0	2000
6.6.1	mac	2022-12-19	23:29:30	23:35:59	387367	60fdf5e83b1de9a21e8ef4e5	310905652	1	main_z	7	advance_on_keypress_ZEE	120	stimuli_target_trianglesquares.svg	stimuli_distractor_trianglediamonds.svg	18	yes	57	0	1349
6.6.1	mac	2022-12-19	23:29:30	23:36:02	389907	60fdf5e83b1de9a21e8ef4e5	310905652	1	main_z	7	main_z	121	stimuli_distractor_diamondtriangles.svg	stimuli_target_circlediamonds.svg	14	yes	44	1	552
6.6.1	mac	2022-12-19	23:29:30	23:36:02	389907	60fdf5e83b1de9a21e8ef4e5	310905652	1	main_z	7	advance_on_keypress_ZEE	122	stimuli_distractor_diamondtriangles.svg	stimuli_target_circlediamonds.svg	14	yes	57	0	356
6.6.1	mac	2022-12-19	23:29:30	23:36:03	391290	60fdf5e83b1de9a21e8ef4e5	310905652	1	main_z	7	main_z	123	stimuli_distractor_diamondtriangles.svg	stimuli_target_squaretriangles.svg	15	yes	44	1	410
6.6.1	mac	2022-12-19	23:29:30	23:36:03	391290	60fdf5e83b1de9a21e8ef4e5	310905652	1	main_z	7	advance_on_keypress_ZEE	124	stimuli_distractor_diamondtriangles.svg	stimuli_target_squaretriangles.svg	15	yes	57	0	340
6.6.1	mac	2022-12-19	23:29:30	23:36:05	392864	60fdf5e83b1de9a21e8ef4e5	310905652	1	main_z	7	main_z	125	stimuli_distractor_diamondtriangles.svg	stimuli_distractor_trianglediamonds.svg	38	no	44	0	613
6.6.1	mac	2022-12-19	23:29:30	23:36:05	392864	60fdf5e83b1de9a21e8ef4e5	310905652	1	main_z	7	advance_on_keypress_ZEE	126	stimuli_distractor_diamondtriangles.svg	stimuli_distractor_trianglediamonds.svg	38	no	57	0	566
6.6.1	mac	2022-12-19	23:29:30	23:36:06	394555	60fdf5e83b1de9a21e8ef4e5	310905652	1	main_z	7	main_z	127	stimuli_target_circletriangles.svg	stimuli_distractor_diamondtriangles.svg	5	yes	44	1	485
6.6.1	mac	2022-12-19	23:29:30	23:36:06	394555	60fdf5e83b1de9a21e8ef4e5	310905652	1	main_z	7	advance_on_keypress_ZEE	128	stimuli_target_circletriangles.svg	stimuli_distractor_diamondtriangles.svg	5	yes	57	0	358
6.6.1	mac	2022-12-19	23:29:30	23:36:09	397528	60fdf5e83b1de9a21e8ef4e5	310905652	1	main_z	7	main_z	129	stimuli_distractor_diamondtriangles.svg	stimuli_distractor_trianglediamonds.svg	37	no	0	1	2000
6.6.1	mac	2022-12-19	23:29:30	23:36:09	397528	60fdf5e83b1de9a21e8ef4e5	310905652	1	main_z	7	advance_on_keypress_ZEE	130	stimuli_distractor_diamondtriangles.svg	stimuli_distractor_trianglediamonds.svg	37	no	57	0	915
6.6.1	mac	2022-12-19	23:29:30	23:36:11	399490	60fdf5e83b1de9a21e8ef4e5	310905652	1	main_z	7	main_z	131	stimuli_distractor_diamondtriangles.svg	stimuli_target_trianglecircles.svg	29	yes	44	1	411
6.6.1	mac	2022-12-19	23:29:30	23:36:11	399490	60fdf5e83b1de9a21e8ef4e5	310905652	1	main_z	7	advance_on_keypress_ZEE	132	stimuli_distractor_diamondtriangles.svg	stimuli_target_trianglecircles.svg	29	yes	57	0	462
6.6.1	mac	2022-12-19	23:29:30	23:36:13	401108	60fdf5e83b1de9a21e8ef4e5	310905652	1	main_z	7	main_z	133	stimuli_distractor_diamondtriangles.svg	stimuli_target_diamondcircles.svg	31	yes	44	1	522
6.6.1	mac	2022-12-19	23:29:30	23:36:13	401108	60fdf5e83b1de9a21e8ef4e5	310905652	1	main_z	7	advance_on_keypress_ZEE	134	stimuli_distractor_diamondtriangles.svg	stimuli_target_diamondcircles.svg	31	yes	57	0	378
6.6.1	mac	2022-12-19	23:29:30	23:36:14	402583	60fdf5e83b1de9a21e8ef4e5	310905652	1	main_z	7	main_z	135	stimuli_distractor_diamondtriangles.svg	stimuli_target_squarediamonds.svg	16	yes	44	1	456
6.6.1	mac	2022-12-19	23:29:30	23:36:14	402583	60fdf5e83b1de9a21e8ef4e5	310905652	1	main_z	7	advance_on_keypress_ZEE	136	stimuli_distractor_diamondtriangles.svg	stimuli_target_squarediamonds.svg	16	yes	57	0	325
6.6.1	mac	2022-12-19	23:29:30	23:36:16	403927	60fdf5e83b1de9a21e8ef4e5	310905652	1	main_z	7	main_z	137	stimuli_distractor_trianglediamonds.svg	stimuli_target_squaretriangles.svg	11	yes	44	1	389
6.6.1	mac	2022-12-19	23:29:30	23:36:16	403927	60fdf5e83b1de9a21e8ef4e5	310905652	1	main_z	7	advance_on_keypress_ZEE	138	stimuli_distractor_trianglediamonds.svg	stimuli_target_squaretriangles.svg	11	yes	57	0	344
6.6.1	mac	2022-12-19	23:29:30	23:36:19	406891	60fdf5e83b1de9a21e8ef4e5	310905652	1	main_z	7	main_z	139	stimuli_distractor_trianglediamonds.svg	stimuli_distractor_trianglediamonds.svg	33	no	0	1	2000
6.6.1	mac	2022-12-19	23:29:30	23:36:19	406891	60fdf5e83b1de9a21e8ef4e5	310905652	1	main_z	7	advance_on_keypress_ZEE	140	stimuli_distractor_trianglediamonds.svg	stimuli_distractor_trianglediamonds.svg	33	no	57	0	1135
6.6.1	mac	2022-12-19	23:29:30	23:36:21	409103	60fdf5e83b1de9a21e8ef4e5	310905652	1	main_z	7	main_z	141	stimuli_distractor_trianglediamonds.svg	stimuli_target_circlediamonds.svg	10	yes	44	1	447
6.6.1	mac	2022-12-19	23:29:30	23:36:21	409103	60fdf5e83b1de9a21e8ef4e5	310905652	1	main_z	7	advance_on_keypress_ZEE	142	stimuli_distractor_trianglediamonds.svg	stimuli_target_circlediamonds.svg	10	yes	57	0	470
6.6.1	mac	2022-12-19	23:29:30	23:36:24	412192	60fdf5e83b1de9a21e8ef4e5	310905652	1	main_z	7	main_z	143	stimuli_distractor_diamondtriangles.svg	stimuli_target_diamondsquares.svg	32	yes	0	0	2000
6.6.1	mac	2022-12-19	23:29:30	23:36:24	412192	60fdf5e83b1de9a21e8ef4e5	310905652	1	main_z	7	advance_on_keypress_ZEE	144	stimuli_distractor_diamondtriangles.svg	stimuli_target_diamondsquares.svg	32	yes	57	0	505
6.6.1	mac	2022-12-19	23:29:30	23:36:25	413744	60fdf5e83b1de9a21e8ef4e5	310905652	1	main_z	7	main_z	145	stimuli_distractor_trianglediamonds.svg	stimuli_target_squarediamonds.svg	12	yes	44	1	411
6.6.1	mac	2022-12-19	23:29:30	23:36:25	413744	60fdf5e83b1de9a21e8ef4e5	310905652	1	main_z	7	advance_on_keypress_ZEE	146	stimuli_distractor_trianglediamonds.svg	stimuli_target_squarediamonds.svg	12	yes	57	0	444
6.6.1	mac	2022-12-19	23:29:30	23:36:27	415204	60fdf5e83b1de9a21e8ef4e5	310905652	1	main_z	7	main_z	147	stimuli_target_circlediamonds.svg	stimuli_distractor_diamondtriangles.svg	6	yes	44	1	388
6.6.1	mac	2022-12-19	23:29:30	23:36:27	415204	60fdf5e83b1de9a21e8ef4e5	310905652	1	main_z	7	advance_on_keypress_ZEE	148	stimuli_target_circlediamonds.svg	stimuli_distractor_diamondtriangles.svg	6	yes	57	0	373
6.6.1	mac	2022-12-19	23:29:30	23:36:29	417446	60fdf5e83b1de9a21e8ef4e5	310905652	1	main_z	7	main_z	149	stimuli_target_trianglesquares.svg	stimuli_distractor_diamondtriangles.svg	22	yes	44	1	1241
6.6.1	mac	2022-12-19	23:29:30	23:36:29	417446	60fdf5e83b1de9a21e8ef4e5	310905652	1	main_z	7	advance_on_keypress_ZEE	150	stimuli_target_trianglesquares.svg	stimuli_distractor_diamondtriangles.svg	22	yes	57	0	282
6.6.1	mac	2022-12-19	23:29:30	23:36:31	419024	60fdf5e83b1de9a21e8ef4e5	310905652	1	main_z	7	main_z	151	stimuli_target_circletriangles.svg	stimuli_distractor_trianglediamonds.svg	1	yes	44	1	668
6.6.1	mac	2022-12-19	23:29:30	23:36:31	419024	60fdf5e83b1de9a21e8ef4e5	310905652	1	main_z	7	advance_on_keypress_ZEE	152	stimuli_target_circletriangles.svg	stimuli_distractor_trianglediamonds.svg	1	yes	57	0	307
6.6.1	mac	2022-12-19	23:29:30	23:36:33	420968	60fdf5e83b1de9a21e8ef4e5	310905652	1	main_z	7	main_z	153	stimuli_target_squaretriangles.svg	stimuli_distractor_trianglediamonds.svg	3	yes	44	1	998
6.6.1	mac	2022-12-19	23:29:30	23:36:33	420968	60fdf5e83b1de9a21e8ef4e5	310905652	1	main_z	7	advance_on_keypress_ZEE	154	stimuli_target_squaretriangles.svg	stimuli_distractor_trianglediamonds.svg	3	yes	57	0	720
6.6.1	mac	2022-12-19	23:29:30	23:36:34	422792	60fdf5e83b1de9a21e8ef4e5	310905652	1	main_z	7	main_z	155	stimuli_target_circlediamonds.svg	stimuli_distractor_trianglediamonds.svg	2	yes	44	1	475
6.6.1	mac	2022-12-19	23:29:30	23:36:34	422792	60fdf5e83b1de9a21e8ef4e5	310905652	1	main_z	7	advance_on_keypress_ZEE	156	stimuli_target_circlediamonds.svg	stimuli_distractor_trianglediamonds.svg	2	yes	57	0	363
6.6.1	mac	2022-12-19	23:29:30	23:36:37	425773	60fdf5e83b1de9a21e8ef4e5	310905652	1	main_z	7	main_z	157	stimuli_distractor_trianglediamonds.svg	stimuli_distractor_trianglediamonds.svg	34	no	0	1	2000
6.6.1	mac	2022-12-19	23:29:30	23:36:37	425773	60fdf5e83b1de9a21e8ef4e5	310905652	1	main_z	7	advance_on_keypress_ZEE	158	stimuli_distractor_trianglediamonds.svg	stimuli_distractor_trianglediamonds.svg	34	no	57	0	1066
6.6.1	mac	2022-12-19	23:29:30	23:36:41	429463	60fdf5e83b1de9a21e8ef4e5	310905652	1	main_z	7	main_z	159	stimuli_distractor_diamondtriangles.svg	stimuli_distractor_diamondtriangles.svg	40	no	0	1	2000
6.6.1	mac	2022-12-19	23:29:30	23:36:41	429463	60fdf5e83b1de9a21e8ef4e5	310905652	1	main_z	7	advance_on_keypress_ZEE	160	stimuli_distractor_diamondtriangles.svg	stimuli_distractor_diamondtriangles.svg	40	no	57	0	473
6.6.1	mac	2022-12-19	23:29:30	23:36:55	443081	60fdf5e83b1de9a21e8ef4e5	310905652	1	practice_slash	9	practice_slash	1	stimuli_distractor_trianglediamonds.svg	stimuli_distractor_trianglediamonds.svg	15	no	53	0	469
6.6.1	mac	2022-12-19	23:29:30	23:36:55	443081	60fdf5e83b1de9a21e8ef4e5	310905652	1	practice_slash	9	advance_on_keypress_SLASH	2	stimuli_distractor_trianglediamonds.svg	stimuli_distractor_trianglediamonds.svg	15	no	57	0	740
6.6.1	mac	2022-12-19	23:29:30	23:36:58	445838	60fdf5e83b1de9a21e8ef4e5	310905652	1	practice_slash	9	practice_slash	3	stimuli_distractor_trianglediamonds.svg	stimuli_target_squarediamonds.svg	11	yes	53	1	389
6.6.1	mac	2022-12-19	23:29:30	23:36:58	445838	60fdf5e83b1de9a21e8ef4e5	310905652	1	practice_slash	9	advance_on_keypress_SLASH	4	stimuli_distractor_trianglediamonds.svg	stimuli_target_squarediamonds.svg	11	yes	57	0	394
6.6.1	mac	2022-12-19	23:29:30	23:37:00	448299	60fdf5e83b1de9a21e8ef4e5	310905652	1	practice_slash	9	practice_slash	5	stimuli_distractor_diamondtriangles.svg	stimuli_target_diamondcircles.svg	8	yes	53	1	435
6.6.1	mac	2022-12-19	23:29:30	23:37:00	448299	60fdf5e83b1de9a21e8ef4e5	310905652	1	practice_slash	9	advance_on_keypress_SLASH	6	stimuli_distractor_diamondtriangles.svg	stimuli_target_diamondcircles.svg	8	yes	57	0	529
6.6.1	mac	2022-12-19	23:29:30	23:37:03	450937	60fdf5e83b1de9a21e8ef4e5	310905652	1	practice_slash	9	practice_slash	7	stimuli_target_diamondsquares.svg	stimuli_distractor_trianglediamonds.svg	6	yes	53	1	481
6.6.1	mac	2022-12-19	23:29:30	23:37:03	450937	60fdf5e83b1de9a21e8ef4e5	310905652	1	practice_slash	9	advance_on_keypress_SLASH	8	stimuli_target_diamondsquares.svg	stimuli_distractor_trianglediamonds.svg	6	yes	57	0	272
6.6.1	mac	2022-12-19	23:29:30	23:37:05	453327	60fdf5e83b1de9a21e8ef4e5	310905652	1	practice_slash	9	practice_slash	9	stimuli_target_circlediamonds.svg	stimuli_distractor_diamondtriangles.svg	1	yes	53	1	483
6.6.1	mac	2022-12-19	23:29:30	23:37:05	453327	60fdf5e83b1de9a21e8ef4e5	310905652	1	practice_slash	9	advance_on_keypress_SLASH	10	stimuli_target_circlediamonds.svg	stimuli_distractor_diamondtriangles.svg	1	yes	57	0	93
6.6.1	mac	2022-12-19	23:29:30	23:37:07	455705	60fdf5e83b1de9a21e8ef4e5	310905652	1	practice_slash	9	practice_slash	11	stimuli_distractor_trianglediamonds.svg	stimuli_distractor_diamondtriangles.svg	16	no	53	0	655
6.6.1	mac	2022-12-19	23:29:30	23:37:07	455705	60fdf5e83b1de9a21e8ef4e5	310905652	1	practice_slash	9	advance_on_keypress_SLASH	12	stimuli_distractor_trianglediamonds.svg	stimuli_distractor_diamondtriangles.svg	16	no	57	0	371
6.6.1	mac	2022-12-19	23:29:30	23:37:10	457981	60fdf5e83b1de9a21e8ef4e5	310905652	1	practice_slash	9	practice_slash	13	stimuli_distractor_trianglediamonds.svg	stimuli_target_diamondcircles.svg	12	yes	53	1	268
6.6.1	mac	2022-12-19	23:29:30	23:37:10	457981	60fdf5e83b1de9a21e8ef4e5	310905652	1	practice_slash	9	advance_on_keypress_SLASH	14	stimuli_distractor_trianglediamonds.svg	stimuli_target_diamondcircles.svg	12	yes	57	0	484
6.6.1	mac	2022-12-19	23:29:30	23:37:12	460572	60fdf5e83b1de9a21e8ef4e5	310905652	1	practice_slash	9	practice_slash	15	stimuli_distractor_diamondtriangles.svg	stimuli_target_trianglecircles.svg	9	yes	53	1	466
6.6.1	mac	2022-12-19	23:29:30	23:37:12	460572	60fdf5e83b1de9a21e8ef4e5	310905652	1	practice_slash	9	advance_on_keypress_SLASH	16	stimuli_distractor_diamondtriangles.svg	stimuli_target_trianglecircles.svg	9	yes	57	0	355
6.6.1	mac	2022-12-19	23:29:30	23:37:15	462854	60fdf5e83b1de9a21e8ef4e5	310905652	1	practice_slash	9	practice_slash	17	stimuli_target_squarediamonds.svg	stimuli_distractor_trianglediamonds.svg	5	yes	53	1	305
6.6.1	mac	2022-12-19	23:29:30	23:37:15	462854	60fdf5e83b1de9a21e8ef4e5	310905652	1	practice_slash	9	advance_on_keypress_SLASH	18	stimuli_target_squarediamonds.svg	stimuli_distractor_trianglediamonds.svg	5	yes	57	0	401
6.6.1	mac	2022-12-19	23:29:30	23:37:17	465260	60fdf5e83b1de9a21e8ef4e5	310905652	1	practice_slash	9	practice_slash	19	stimuli_distractor_diamondtriangles.svg	stimuli_target_circletriangles.svg	7	yes	53	1	361
6.6.1	mac	2022-12-19	23:29:30	23:37:17	465260	60fdf5e83b1de9a21e8ef4e5	310905652	1	practice_slash	9	advance_on_keypress_SLASH	20	stimuli_distractor_diamondtriangles.svg	stimuli_target_circletriangles.svg	7	yes	57	0	388
6.6.1	mac	2022-12-19	23:29:30	23:37:19	467636	60fdf5e83b1de9a21e8ef4e5	310905652	1	practice_slash	9	practice_slash	21	stimuli_distractor_diamondtriangles.svg	stimuli_distractor_diamondtriangles.svg	13	no	53	0	352
6.6.1	mac	2022-12-19	23:29:30	23:37:19	467636	60fdf5e83b1de9a21e8ef4e5	310905652	1	practice_slash	9	advance_on_keypress_SLASH	22	stimuli_distractor_diamondtriangles.svg	stimuli_distractor_diamondtriangles.svg	13	no	57	0	1069
6.6.1	mac	2022-12-19	23:29:30	23:37:22	470794	60fdf5e83b1de9a21e8ef4e5	310905652	1	practice_slash	9	practice_slash	23	stimuli_distractor_trianglediamonds.svg	stimuli_target_circlediamonds.svg	10	yes	53	1	468
6.6.1	mac	2022-12-19	23:29:30	23:37:22	470794	60fdf5e83b1de9a21e8ef4e5	310905652	1	practice_slash	9	advance_on_keypress_SLASH	24	stimuli_distractor_trianglediamonds.svg	stimuli_target_circlediamonds.svg	10	yes	57	0	327
6.6.1	mac	2022-12-19	23:29:30	23:37:25	473147	60fdf5e83b1de9a21e8ef4e5	310905652	1	practice_slash	9	practice_slash	25	stimuli_target_diamondsquares.svg	stimuli_distractor_diamondtriangles.svg	3	yes	53	1	391
6.6.1	mac	2022-12-19	23:29:30	23:37:25	473147	60fdf5e83b1de9a21e8ef4e5	310905652	1	practice_slash	9	advance_on_keypress_SLASH	26	stimuli_target_diamondsquares.svg	stimuli_distractor_diamondtriangles.svg	3	yes	57	0	356
6.6.1	mac	2022-12-19	23:29:30	23:37:27	475553	60fdf5e83b1de9a21e8ef4e5	310905652	1	practice_slash	9	practice_slash	27	stimuli_target_squarediamonds.svg	stimuli_distractor_diamondtriangles.svg	2	yes	53	1	414
6.6.1	mac	2022-12-19	23:29:30	23:37:27	475553	60fdf5e83b1de9a21e8ef4e5	310905652	1	practice_slash	9	advance_on_keypress_SLASH	28	stimuli_target_squarediamonds.svg	stimuli_distractor_diamondtriangles.svg	2	yes	57	0	300
6.6.1	mac	2022-12-19	23:29:30	23:37:30	477876	60fdf5e83b1de9a21e8ef4e5	310905652	1	practice_slash	9	practice_slash	29	stimuli_target_circlediamonds.svg	stimuli_distractor_trianglediamonds.svg	4	yes	53	1	392
6.6.1	mac	2022-12-19	23:29:30	23:37:30	477876	60fdf5e83b1de9a21e8ef4e5	310905652	1	practice_slash	9	advance_on_keypress_SLASH	30	stimuli_target_circlediamonds.svg	stimuli_distractor_trianglediamonds.svg	4	yes	57	0	315
6.6.1	mac	2022-12-19	23:29:30	23:37:32	480224	60fdf5e83b1de9a21e8ef4e5	310905652	1	practice_slash	9	practice_slash	31	stimuli_distractor_diamondtriangles.svg	stimuli_distractor_trianglediamonds.svg	14	no	53	0	407
6.6.1	mac	2022-12-19	23:29:30	23:37:32	480224	60fdf5e83b1de9a21e8ef4e5	310905652	1	practice_slash	9	advance_on_keypress_SLASH	32	stimuli_distractor_diamondtriangles.svg	stimuli_distractor_trianglediamonds.svg	14	no	57	0	360
6.6.1	mac	2022-12-19	23:29:30	23:37:36	484087	60fdf5e83b1de9a21e8ef4e5	310905652	1	main_slash	11	main_slash	1	stimuli_target_trianglecircles.svg	stimuli_distractor_diamondtriangles.svg	21	yes	53	1	599
6.6.1	mac	2022-12-19	23:29:30	23:37:36	484087	60fdf5e83b1de9a21e8ef4e5	310905652	1	main_slash	11	advance_on_keypress_SLASH	2	stimuli_target_trianglecircles.svg	stimuli_distractor_diamondtriangles.svg	21	yes	57	0	915
6.6.1	mac	2022-12-19	23:29:30	23:37:38	486015	60fdf5e83b1de9a21e8ef4e5	310905652	1	main_slash	11	main_slash	3	stimuli_target_circlediamonds.svg	stimuli_distractor_trianglediamonds.svg	2	yes	53	1	394
6.6.1	mac	2022-12-19	23:29:30	23:37:38	486015	60fdf5e83b1de9a21e8ef4e5	310905652	1	main_slash	11	advance_on_keypress_SLASH	4	stimuli_target_circlediamonds.svg	stimuli_distractor_trianglediamonds.svg	2	yes	57	0	559
6.6.1	mac	2022-12-19	23:29:30	23:37:39	487487	60fdf5e83b1de9a21e8ef4e5	310905652	1	main_slash	11	main_slash	5	stimuli_target_squarediamonds.svg	stimuli_distractor_trianglediamonds.svg	4	yes	53	1	279
6.6.1	mac	2022-12-19	23:29:30	23:37:39	487487	60fdf5e83b1de9a21e8ef4e5	310905652	1	main_slash	11	advance_on_keypress_SLASH	6	stimuli_target_squarediamonds.svg	stimuli_distractor_trianglediamonds.svg	4	yes	57	0	455
6.6.1	mac	2022-12-19	23:29:30	23:37:41	488973	60fdf5e83b1de9a21e8ef4e5	310905652	1	main_slash	11	main_slash	7	stimuli_distractor_trianglediamonds.svg	stimuli_target_circletriangles.svg	9	yes	53	1	413
6.6.1	mac	2022-12-19	23:29:30	23:37:41	488973	60fdf5e83b1de9a21e8ef4e5	310905652	1	main_slash	11	advance_on_keypress_SLASH	8	stimuli_distractor_trianglediamonds.svg	stimuli_target_circletriangles.svg	9	yes	57	0	352
6.6.1	mac	2022-12-19	23:29:30	23:37:44	491944	60fdf5e83b1de9a21e8ef4e5	310905652	1	main_slash	11	main_slash	9	stimuli_distractor_diamondtriangles.svg	stimuli_distractor_diamondtriangles.svg	39	no	0	1	2000
6.6.1	mac	2022-12-19	23:29:30	23:37:44	491944	60fdf5e83b1de9a21e8ef4e5	310905652	1	main_slash	11	advance_on_keypress_SLASH	10	stimuli_distractor_diamondtriangles.svg	stimuli_distractor_diamondtriangles.svg	39	no	57	0	886
6.6.1	mac	2022-12-19	23:29:30	23:37:46	493949	60fdf5e83b1de9a21e8ef4e5	310905652	1	main_slash	11	main_slash	11	stimuli_distractor_trianglediamonds.svg	stimuli_target_trianglecircles.svg	25	yes	53	1	480
6.6.1	mac	2022-12-19	23:29:30	23:37:46	493949	60fdf5e83b1de9a21e8ef4e5	310905652	1	main_slash	11	advance_on_keypress_SLASH	12	stimuli_distractor_trianglediamonds.svg	stimuli_target_trianglecircles.svg	25	yes	57	0	754
6.6.1	mac	2022-12-19	23:29:30	23:37:47	495576	60fdf5e83b1de9a21e8ef4e5	310905652	1	main_slash	11	main_slash	13	stimuli_distractor_trianglediamonds.svg	stimuli_target_diamondsquares.svg	28	yes	53	1	243
6.6.1	mac	2022-12-19	23:29:30	23:37:47	495576	60fdf5e83b1de9a21e8ef4e5	310905652	1	main_slash	11	advance_on_keypress_SLASH	14	stimuli_distractor_trianglediamonds.svg	stimuli_target_diamondsquares.svg	28	yes	57	0	783
6.6.1	mac	2022-12-19	23:29:30	23:37:49	497432	60fdf5e83b1de9a21e8ef4e5	310905652	1	main_slash	11	main_slash	15	stimuli_target_squarediamonds.svg	stimuli_distractor_diamondtriangles.svg	8	yes	53	1	449
6.6.1	mac	2022-12-19	23:29:30	23:37:49	497432	60fdf5e83b1de9a21e8ef4e5	310905652	1	main_slash	11	advance_on_keypress_SLASH	16	stimuli_target_squarediamonds.svg	stimuli_distractor_diamondtriangles.svg	8	yes	57	0	444
6.6.1	mac	2022-12-19	23:29:30	23:37:51	498862	60fdf5e83b1de9a21e8ef4e5	310905652	1	main_slash	11	main_slash	17	stimuli_distractor_diamondtriangles.svg	stimuli_target_diamondsquares.svg	32	yes	53	1	370
6.6.1	mac	2022-12-19	23:29:30	23:37:51	498862	60fdf5e83b1de9a21e8ef4e5	310905652	1	main_slash	11	advance_on_keypress_SLASH	18	stimuli_distractor_diamondtriangles.svg	stimuli_target_diamondsquares.svg	32	yes	57	0	729
6.6.1	mac	2022-12-19	23:29:30	23:37:54	502221	60fdf5e83b1de9a21e8ef4e5	310905652	1	main_slash	11	main_slash	19	stimuli_distractor_trianglediamonds.svg	stimuli_distractor_trianglediamonds.svg	34	no	0	1	2000
6.6.1	mac	2022-12-19	23:29:30	23:37:54	502221	60fdf5e83b1de9a21e8ef4e5	310905652	1	main_slash	11	advance_on_keypress_SLASH	20	stimuli_distractor_trianglediamonds.svg	stimuli_distractor_trianglediamonds.svg	34	no	57	0	437
6.6.1	mac	2022-12-19	23:29:30	23:37:55	503560	60fdf5e83b1de9a21e8ef4e5	310905652	1	main_slash	11	main_slash	21	stimuli_distractor_trianglediamonds.svg	stimuli_target_trianglesquares.svg	26	yes	53	1	272
6.6.1	mac	2022-12-19	23:29:30	23:37:55	503560	60fdf5e83b1de9a21e8ef4e5	310905652	1	main_slash	11	advance_on_keypress_SLASH	22	stimuli_distractor_trianglediamonds.svg	stimuli_target_trianglesquares.svg	26	yes	57	0	896
6.6.1	mac	2022-12-19	23:29:30	23:37:57	505488	60fdf5e83b1de9a21e8ef4e5	310905652	1	main_slash	11	main_slash	23	stimuli_target_circlediamonds.svg	stimuli_distractor_diamondtriangles.svg	6	yes	53	1	411
6.6.1	mac	2022-12-19	23:29:30	23:37:57	505488	60fdf5e83b1de9a21e8ef4e5	310905652	1	main_slash	11	advance_on_keypress_SLASH	24	stimuli_target_circlediamonds.svg	stimuli_distractor_diamondtriangles.svg	6	yes	57	0	534
6.6.1	mac	2022-12-19	23:29:30	23:37:59	506904	60fdf5e83b1de9a21e8ef4e5	310905652	1	main_slash	11	main_slash	25	stimuli_distractor_trianglediamonds.svg	stimuli_target_circlediamonds.svg	10	yes	53	1	255
6.6.1	mac	2022-12-19	23:29:30	23:37:59	506904	60fdf5e83b1de9a21e8ef4e5	310905652	1	main_slash	11	advance_on_keypress_SLASH	26	stimuli_distractor_trianglediamonds.svg	stimuli_target_circlediamonds.svg	10	yes	57	0	1088
6.6.1	mac	2022-12-19	23:29:30	23:38:02	510619	60fdf5e83b1de9a21e8ef4e5	310905652	1	main_slash	11	main_slash	27	stimuli_distractor_trianglediamonds.svg	stimuli_distractor_diamondtriangles.svg	36	no	0	1	2000
6.6.1	mac	2022-12-19	23:29:30	23:38:02	510619	60fdf5e83b1de9a21e8ef4e5	310905652	1	main_slash	11	advance_on_keypress_SLASH	28	stimuli_distractor_trianglediamonds.svg	stimuli_distractor_diamondtriangles.svg	36	no	57	0	321
6.6.1	mac	2022-12-19	23:29:30	23:38:04	511951	60fdf5e83b1de9a21e8ef4e5	310905652	1	main_slash	11	main_slash	29	stimuli_distractor_diamondtriangles.svg	stimuli_target_squarediamonds.svg	16	yes	53	1	377
6.6.1	mac	2022-12-19	23:29:30	23:38:04	511951	60fdf5e83b1de9a21e8ef4e5	310905652	1	main_slash	11	advance_on_keypress_SLASH	30	stimuli_distractor_diamondtriangles.svg	stimuli_target_squarediamonds.svg	16	yes	57	0	713
6.6.1	mac	2022-12-19	23:29:30	23:38:05	513630	60fdf5e83b1de9a21e8ef4e5	310905652	1	main_slash	11	main_slash	31	stimuli_target_diamondsquares.svg	stimuli_distractor_diamondtriangles.svg	24	yes	53	1	339
6.6.1	mac	2022-12-19	23:29:30	23:38:05	513630	60fdf5e83b1de9a21e8ef4e5	310905652	1	main_slash	11	advance_on_keypress_SLASH	32	stimuli_target_diamondsquares.svg	stimuli_distractor_diamondtriangles.svg	24	yes	57	0	529
6.6.1	mac	2022-12-19	23:29:30	23:38:07	515369	60fdf5e83b1de9a21e8ef4e5	310905652	1	main_slash	11	main_slash	33	stimuli_target_diamondcircles.svg	stimuli_distractor_trianglediamonds.svg	19	yes	53	1	585
6.6.1	mac	2022-12-19	23:29:30	23:38:07	515369	60fdf5e83b1de9a21e8ef4e5	310905652	1	main_slash	11	advance_on_keypress_SLASH	34	stimuli_target_diamondcircles.svg	stimuli_distractor_trianglediamonds.svg	19	yes	57	0	851
6.6.1	mac	2022-12-19	23:29:30	23:38:09	517093	60fdf5e83b1de9a21e8ef4e5	310905652	1	main_slash	11	main_slash	35	stimuli_distractor_diamondtriangles.svg	stimuli_target_circlediamonds.svg	14	yes	53	1	234
6.6.1	mac	2022-12-19	23:29:30	23:38:09	517093	60fdf5e83b1de9a21e8ef4e5	310905652	1	main_slash	11	advance_on_keypress_SLASH	36	stimuli_distractor_diamondtriangles.svg	stimuli_target_circlediamonds.svg	14	yes	57	0	60
6.6.1	mac	2022-12-19	23:29:30	23:38:10	518493	60fdf5e83b1de9a21e8ef4e5	310905652	1	main_slash	11	main_slash	37	stimuli_target_trianglesquares.svg	stimuli_distractor_trianglediamonds.svg	18	yes	53	1	711
6.6.1	mac	2022-12-19	23:29:30	23:38:10	518493	60fdf5e83b1de9a21e8ef4e5	310905652	1	main_slash	11	advance_on_keypress_SLASH	38	stimuli_target_trianglesquares.svg	stimuli_distractor_trianglediamonds.svg	18	yes	57	0	821
6.6.1	mac	2022-12-19	23:29:30	23:38:14	521936	60fdf5e83b1de9a21e8ef4e5	310905652	1	main_slash	11	main_slash	39	stimuli_target_diamondcircles.svg	stimuli_distractor_diamondtriangles.svg	23	yes	0	0	2000
6.6.1	mac	2022-12-19	23:29:30	23:38:14	521936	60fdf5e83b1de9a21e8ef4e5	310905652	1	main_slash	11	advance_on_keypress_SLASH	40	stimuli_target_diamondcircles.svg	stimuli_distractor_diamondtriangles.svg	23	yes	57	0	641
6.6.1	mac	2022-12-19	23:29:30	23:38:15	523522	60fdf5e83b1de9a21e8ef4e5	310905652	1	main_slash	11	main_slash	41	stimuli_distractor_trianglediamonds.svg	stimuli_distractor_diamondtriangles.svg	35	no	53	0	326
6.6.1	mac	2022-12-19	23:29:30	23:38:15	523522	60fdf5e83b1de9a21e8ef4e5	310905652	1	main_slash	11	advance_on_keypress_SLASH	42	stimuli_distractor_trianglediamonds.svg	stimuli_distractor_diamondtriangles.svg	35	no	57	0	684
6.6.1	mac	2022-12-19	23:29:30	23:38:19	526843	60fdf5e83b1de9a21e8ef4e5	310905652	1	main_slash	11	main_slash	43	stimuli_distractor_diamondtriangles.svg	stimuli_distractor_trianglediamonds.svg	37	no	0	1	2000
6.6.1	mac	2022-12-19	23:29:30	23:38:19	526843	60fdf5e83b1de9a21e8ef4e5	310905652	1	main_slash	11	advance_on_keypress_SLASH	44	stimuli_distractor_diamondtriangles.svg	stimuli_distractor_trianglediamonds.svg	37	no	57	0	330
6.6.1	mac	2022-12-19	23:29:30	23:38:20	528024	60fdf5e83b1de9a21e8ef4e5	310905652	1	main_slash	11	main_slash	45	stimuli_target_squaretriangles.svg	stimuli_distractor_diamondtriangles.svg	7	yes	53	1	221
6.6.1	mac	2022-12-19	23:29:30	23:38:20	528024	60fdf5e83b1de9a21e8ef4e5	310905652	1	main_slash	11	advance_on_keypress_SLASH	46	stimuli_target_squaretriangles.svg	stimuli_distractor_diamondtriangles.svg	7	yes	57	0	679
6.6.1	mac	2022-12-19	23:29:30	23:38:21	529622	60fdf5e83b1de9a21e8ef4e5	310905652	1	main_slash	11	main_slash	47	stimuli_target_circletriangles.svg	stimuli_distractor_diamondtriangles.svg	5	yes	53	1	286
6.6.1	mac	2022-12-19	23:29:30	23:38:21	529622	60fdf5e83b1de9a21e8ef4e5	310905652	1	main_slash	11	advance_on_keypress_SLASH	48	stimuli_target_circletriangles.svg	stimuli_distractor_diamondtriangles.svg	5	yes	57	0	526
6.6.1	mac	2022-12-19	23:29:30	23:38:23	531063	60fdf5e83b1de9a21e8ef4e5	310905652	1	main_slash	11	main_slash	49	stimuli_target_circletriangles.svg	stimuli_distractor_trianglediamonds.svg	1	yes	53	1	276
6.6.1	mac	2022-12-19	23:29:30	23:38:23	531063	60fdf5e83b1de9a21e8ef4e5	310905652	1	main_slash	11	advance_on_keypress_SLASH	50	stimuli_target_circletriangles.svg	stimuli_distractor_trianglediamonds.svg	1	yes	57	0	670
6.6.1	mac	2022-12-19	23:29:30	23:38:24	532641	60fdf5e83b1de9a21e8ef4e5	310905652	1	main_slash	11	main_slash	51	stimuli_distractor_diamondtriangles.svg	stimuli_target_squaretriangles.svg	15	yes	53	1	270
6.6.1	mac	2022-12-19	23:29:30	23:38:24	532641	60fdf5e83b1de9a21e8ef4e5	310905652	1	main_slash	11	advance_on_keypress_SLASH	52	stimuli_distractor_diamondtriangles.svg	stimuli_target_squaretriangles.svg	15	yes	57	0	577
6.6.1	mac	2022-12-19	23:29:30	23:38:26	534085	60fdf5e83b1de9a21e8ef4e5	310905652	1	main_slash	11	main_slash	53	stimuli_distractor_diamondtriangles.svg	stimuli_target_circletriangles.svg	13	yes	53	1	224
6.6.1	mac	2022-12-19	23:29:30	23:38:26	534085	60fdf5e83b1de9a21e8ef4e5	310905652	1	main_slash	11	advance_on_keypress_SLASH	54	stimuli_distractor_diamondtriangles.svg	stimuli_target_circletriangles.svg	13	yes	57	0	447
6.6.1	mac	2022-12-19	23:29:30	23:38:27	535531	60fdf5e83b1de9a21e8ef4e5	310905652	1	main_slash	11	main_slash	55	stimuli_distractor_diamondtriangles.svg	stimuli_target_trianglecircles.svg	29	yes	53	1	360
6.6.1	mac	2022-12-19	23:29:30	23:38:27	535531	60fdf5e83b1de9a21e8ef4e5	310905652	1	main_slash	11	advance_on_keypress_SLASH	56	stimuli_distractor_diamondtriangles.svg	stimuli_target_trianglecircles.svg	29	yes	57	0	706
6.6.1	mac	2022-12-19	23:29:30	23:38:29	537118	60fdf5e83b1de9a21e8ef4e5	310905652	1	main_slash	11	main_slash	57	stimuli_distractor_trianglediamonds.svg	stimuli_target_squarediamonds.svg	12	yes	53	1	245
6.6.1	mac	2022-12-19	23:29:30	23:38:29	537118	60fdf5e83b1de9a21e8ef4e5	310905652	1	main_slash	11	advance_on_keypress_SLASH	58	stimuli_distractor_trianglediamonds.svg	stimuli_target_squarediamonds.svg	12	yes	57	0	600
6.6.1	mac	2022-12-19	23:29:30	23:38:30	538607	60fdf5e83b1de9a21e8ef4e5	310905652	1	main_slash	11	main_slash	59	stimuli_target_trianglecircles.svg	stimuli_distractor_trianglediamonds.svg	17	yes	53	1	251
6.6.1	mac	2022-12-19	23:29:30	23:38:30	538607	60fdf5e83b1de9a21e8ef4e5	310905652	1	main_slash	11	advance_on_keypress_SLASH	60	stimuli_target_trianglecircles.svg	stimuli_distractor_trianglediamonds.svg	17	yes	57	0	971
6.6.1	mac	2022-12-19	23:29:30	23:38:32	540687	60fdf5e83b1de9a21e8ef4e5	310905652	1	main_slash	11	main_slash	61	stimuli_distractor_trianglediamonds.svg	stimuli_target_squaretriangles.svg	11	yes	53	1	481
6.6.1	mac	2022-12-19	23:29:30	23:38:32	540687	60fdf5e83b1de9a21e8ef4e5	310905652	1	main_slash	11	advance_on_keypress_SLASH	62	stimuli_distractor_trianglediamonds.svg	stimuli_target_squaretriangles.svg	11	yes	57	0	645
6.6.1	mac	2022-12-19	23:29:30	23:38:34	542046	60fdf5e83b1de9a21e8ef4e5	310905652	1	main_slash	11	main_slash	63	stimuli_target_squaretriangles.svg	stimuli_distractor_trianglediamonds.svg	3	yes	53	1	97
6.6.1	mac	2022-12-19	23:29:30	23:38:34	542046	60fdf5e83b1de9a21e8ef4e5	310905652	1	main_slash	11	advance_on_keypress_SLASH	64	stimuli_target_squaretriangles.svg	stimuli_distractor_trianglediamonds.svg	3	yes	57	0	1991
6.6.1	mac	2022-12-19	23:29:30	23:38:36	544670	60fdf5e83b1de9a21e8ef4e5	310905652	1	main_slash	11	main_slash	65	stimuli_distractor_diamondtriangles.svg	stimuli_target_trianglesquares.svg	30	yes	53	1	17
6.6.1	mac	2022-12-19	23:29:30	23:38:36	544670	60fdf5e83b1de9a21e8ef4e5	310905652	1	main_slash	11	advance_on_keypress_SLASH	66	stimuli_distractor_diamondtriangles.svg	stimuli_target_trianglesquares.svg	30	yes	57	0	883
6.6.1	mac	2022-12-19	23:29:30	23:38:38	546578	60fdf5e83b1de9a21e8ef4e5	310905652	1	main_slash	11	main_slash	67	stimuli_distractor_diamondtriangles.svg	stimuli_distractor_trianglediamonds.svg	38	no	53	0	406
6.6.1	mac	2022-12-19	23:29:30	23:38:38	546578	60fdf5e83b1de9a21e8ef4e5	310905652	1	main_slash	11	advance_on_keypress_SLASH	68	stimuli_distractor_diamondtriangles.svg	stimuli_distractor_trianglediamonds.svg	38	no	57	0	694
6.6.1	mac	2022-12-19	23:29:30	23:38:40	548268	60fdf5e83b1de9a21e8ef4e5	310905652	1	main_slash	11	main_slash	69	stimuli_target_trianglesquares.svg	stimuli_distractor_diamondtriangles.svg	22	yes	53	1	381
6.6.1	mac	2022-12-19	23:29:30	23:38:40	548268	60fdf5e83b1de9a21e8ef4e5	310905652	1	main_slash	11	advance_on_keypress_SLASH	70	stimuli_target_trianglesquares.svg	stimuli_distractor_diamondtriangles.svg	22	yes	57	0	894
6.6.1	mac	2022-12-19	23:29:30	23:38:42	550228	60fdf5e83b1de9a21e8ef4e5	310905652	1	main_slash	11	main_slash	71	stimuli_distractor_trianglediamonds.svg	stimuli_target_diamondcircles.svg	27	yes	53	1	437
6.6.1	mac	2022-12-19	23:29:30	23:38:42	550228	60fdf5e83b1de9a21e8ef4e5	310905652	1	main_slash	11	advance_on_keypress_SLASH	72	stimuli_distractor_trianglediamonds.svg	stimuli_target_diamondcircles.svg	27	yes	57	0	566
6.6.1	mac	2022-12-19	23:29:30	23:38:43	551825	60fdf5e83b1de9a21e8ef4e5	310905652	1	main_slash	11	main_slash	73	stimuli_distractor_diamondtriangles.svg	stimuli_target_diamondcircles.svg	31	yes	53	1	410
6.6.1	mac	2022-12-19	23:29:30	23:38:43	551825	60fdf5e83b1de9a21e8ef4e5	310905652	1	main_slash	11	advance_on_keypress_SLASH	74	stimuli_distractor_diamondtriangles.svg	stimuli_target_diamondcircles.svg	31	yes	57	0	485
6.6.1	mac	2022-12-19	23:29:30	23:38:47	554931	60fdf5e83b1de9a21e8ef4e5	310905652	1	main_slash	11	main_slash	75	stimuli_distractor_trianglediamonds.svg	stimuli_distractor_trianglediamonds.svg	33	no	0	1	2000
6.6.1	mac	2022-12-19	23:29:30	23:38:47	554931	60fdf5e83b1de9a21e8ef4e5	310905652	1	main_slash	11	advance_on_keypress_SLASH	76	stimuli_distractor_trianglediamonds.svg	stimuli_distractor_trianglediamonds.svg	33	no	57	0	798
6.6.1	mac	2022-12-19	23:29:30	23:38:48	556664	60fdf5e83b1de9a21e8ef4e5	310905652	1	main_slash	11	main_slash	77	stimuli_distractor_diamondtriangles.svg	stimuli_distractor_diamondtriangles.svg	40	no	53	0	292
6.6.1	mac	2022-12-19	23:29:30	23:38:48	556664	60fdf5e83b1de9a21e8ef4e5	310905652	1	main_slash	11	advance_on_keypress_SLASH	78	stimuli_distractor_diamondtriangles.svg	stimuli_distractor_diamondtriangles.svg	40	no	57	0	934
6.6.1	mac	2022-12-19	23:29:30	23:38:51	559165	60fdf5e83b1de9a21e8ef4e5	310905652	1	main_slash	11	main_slash	79	stimuli_target_diamondsquares.svg	stimuli_distractor_trianglediamonds.svg	20	yes	53	1	939
6.6.1	mac	2022-12-19	23:29:30	23:38:51	559165	60fdf5e83b1de9a21e8ef4e5	310905652	1	main_slash	11	advance_on_keypress_SLASH	80	stimuli_target_diamondsquares.svg	stimuli_distractor_trianglediamonds.svg	20	yes	57	0	521
6.6.1	mac	2022-12-19	23:29:30	23:38:54	562307	60fdf5e83b1de9a21e8ef4e5	310905652	1	main_slash	11	main_slash	81	stimuli_target_diamondsquares.svg	stimuli_distractor_diamondtriangles.svg	24	yes	0	0	2000
6.6.1	mac	2022-12-19	23:29:30	23:38:54	562307	60fdf5e83b1de9a21e8ef4e5	310905652	1	main_slash	11	advance_on_keypress_SLASH	82	stimuli_target_diamondsquares.svg	stimuli_distractor_diamondtriangles.svg	24	yes	57	0	493
6.6.1	mac	2022-12-19	23:29:30	23:38:55	563508	60fdf5e83b1de9a21e8ef4e5	310905652	1	main_slash	11	main_slash	83	stimuli_distractor_diamondtriangles.svg	stimuli_distractor_trianglediamonds.svg	38	no	53	0	89
6.6.1	mac	2022-12-19	23:29:30	23:38:55	563508	60fdf5e83b1de9a21e8ef4e5	310905652	1	main_slash	11	advance_on_keypress_SLASH	84	stimuli_distractor_diamondtriangles.svg	stimuli_distractor_trianglediamonds.svg	38	no	57	0	1881
6.6.1	mac	2022-12-19	23:29:30	23:38:58	566176	60fdf5e83b1de9a21e8ef4e5	310905652	1	main_slash	11	main_slash	85	stimuli_distractor_diamondtriangles.svg	stimuli_target_circlediamonds.svg	14	yes	53	1	154
6.6.1	mac	2022-12-19	23:29:30	23:38:58	566176	60fdf5e83b1de9a21e8ef4e5	310905652	1	main_slash	11	advance_on_keypress_SLASH	86	stimuli_distractor_diamondtriangles.svg	stimuli_target_circlediamonds.svg	14	yes	57	0	774
6.6.1	mac	2022-12-19	23:29:30	23:38:59	567694	60fdf5e83b1de9a21e8ef4e5	310905652	1	main_slash	11	main_slash	87	stimuli_target_trianglecircles.svg	stimuli_distractor_diamondtriangles.svg	21	yes	53	1	111
6.6.1	mac	2022-12-19	23:29:30	23:38:59	567694	60fdf5e83b1de9a21e8ef4e5	310905652	1	main_slash	11	advance_on_keypress_SLASH	88	stimuli_target_trianglecircles.svg	stimuli_distractor_diamondtriangles.svg	21	yes	57	0	982
6.6.1	mac	2022-12-19	23:29:30	23:39:01	569552	60fdf5e83b1de9a21e8ef4e5	310905652	1	main_slash	11	main_slash	89	stimuli_target_diamondcircles.svg	stimuli_distractor_trianglediamonds.svg	19	yes	53	1	249
6.6.1	mac	2022-12-19	23:29:30	23:39:01	569552	60fdf5e83b1de9a21e8ef4e5	310905652	1	main_slash	11	advance_on_keypress_SLASH	90	stimuli_target_diamondcircles.svg	stimuli_distractor_trianglediamonds.svg	19	yes	57	0	842
6.6.1	mac	2022-12-19	23:29:30	23:39:03	571346	60fdf5e83b1de9a21e8ef4e5	310905652	1	main_slash	11	main_slash	91	stimuli_target_circlediamonds.svg	stimuli_distractor_trianglediamonds.svg	2	yes	53	1	334
6.6.1	mac	2022-12-19	23:29:30	23:39:03	571346	60fdf5e83b1de9a21e8ef4e5	310905652	1	main_slash	11	advance_on_keypress_SLASH	92	stimuli_target_circlediamonds.svg	stimuli_distractor_trianglediamonds.svg	2	yes	57	0	560
6.6.1	mac	2022-12-19	23:29:30	23:39:05	572893	60fdf5e83b1de9a21e8ef4e5	310905652	1	main_slash	11	main_slash	93	stimuli_target_squaretriangles.svg	stimuli_distractor_diamondtriangles.svg	7	yes	53	1	361
6.6.1	mac	2022-12-19	23:29:30	23:39:05	572893	60fdf5e83b1de9a21e8ef4e5	310905652	1	main_slash	11	advance_on_keypress_SLASH	94	stimuli_target_squaretriangles.svg	stimuli_distractor_diamondtriangles.svg	7	yes	57	0	422
6.6.1	mac	2022-12-19	23:29:30	23:39:06	574226	60fdf5e83b1de9a21e8ef4e5	310905652	1	main_slash	11	main_slash	95	stimuli_distractor_trianglediamonds.svg	stimuli_target_circlediamonds.svg	10	yes	53	1	292
6.6.1	mac	2022-12-19	23:29:30	23:39:06	574226	60fdf5e83b1de9a21e8ef4e5	310905652	1	main_slash	11	advance_on_keypress_SLASH	96	stimuli_distractor_trianglediamonds.svg	stimuli_target_circlediamonds.svg	10	yes	57	0	392
6.6.1	mac	2022-12-19	23:29:30	23:39:07	575613	60fdf5e83b1de9a21e8ef4e5	310905652	1	main_slash	11	main_slash	97	stimuli_distractor_trianglediamonds.svg	stimuli_distractor_trianglediamonds.svg	34	no	53	0	360
6.6.1	mac	2022-12-19	23:29:30	23:39:07	575613	60fdf5e83b1de9a21e8ef4e5	310905652	1	main_slash	11	advance_on_keypress_SLASH	98	stimuli_distractor_trianglediamonds.svg	stimuli_distractor_trianglediamonds.svg	34	no	57	0	600
6.6.1	mac	2022-12-19	23:29:30	23:39:11	578853	60fdf5e83b1de9a21e8ef4e5	310905652	1	main_slash	11	main_slash	99	stimuli_target_diamondsquares.svg	stimuli_distractor_trianglediamonds.svg	20	yes	0	0	2000
6.6.1	mac	2022-12-19	23:29:30	23:39:11	578853	60fdf5e83b1de9a21e8ef4e5	310905652	1	main_slash	11	advance_on_keypress_SLASH	100	stimuli_target_diamondsquares.svg	stimuli_distractor_trianglediamonds.svg	20	yes	57	0	522
6.6.1	mac	2022-12-19	23:29:30	23:39:12	580374	60fdf5e83b1de9a21e8ef4e5	310905652	1	main_slash	11	main_slash	101	stimuli_distractor_trianglediamonds.svg	stimuli_target_diamondcircles.svg	27	yes	53	1	370
6.6.1	mac	2022-12-19	23:29:30	23:39:12	580374	60fdf5e83b1de9a21e8ef4e5	310905652	1	main_slash	11	advance_on_keypress_SLASH	102	stimuli_distractor_trianglediamonds.svg	stimuli_target_diamondcircles.svg	27	yes	57	0	587
6.6.1	mac	2022-12-19	23:29:30	23:39:15	583596	60fdf5e83b1de9a21e8ef4e5	310905652	1	main_slash	11	main_slash	103	stimuli_distractor_diamondtriangles.svg	stimuli_distractor_trianglediamonds.svg	37	no	0	1	2000
6.6.1	mac	2022-12-19	23:29:30	23:39:15	583596	60fdf5e83b1de9a21e8ef4e5	310905652	1	main_slash	11	advance_on_keypress_SLASH	104	stimuli_distractor_diamondtriangles.svg	stimuli_distractor_trianglediamonds.svg	37	no	57	0	594
6.6.1	mac	2022-12-19	23:29:30	23:39:17	585097	60fdf5e83b1de9a21e8ef4e5	310905652	1	main_slash	11	main_slash	105	stimuli_distractor_trianglediamonds.svg	stimuli_target_trianglecircles.svg	25	yes	53	1	271
6.6.1	mac	2022-12-19	23:29:30	23:39:17	585097	60fdf5e83b1de9a21e8ef4e5	310905652	1	main_slash	11	advance_on_keypress_SLASH	106	stimuli_distractor_trianglediamonds.svg	stimuli_target_trianglecircles.svg	25	yes	57	0	813
6.6.1	mac	2022-12-19	23:29:30	23:39:19	586862	60fdf5e83b1de9a21e8ef4e5	310905652	1	main_slash	11	main_slash	107	stimuli_distractor_diamondtriangles.svg	stimuli_target_squarediamonds.svg	16	yes	53	1	325
6.6.1	mac	2022-12-19	23:29:30	23:39:19	586862	60fdf5e83b1de9a21e8ef4e5	310905652	1	main_slash	11	advance_on_keypress_SLASH	108	stimuli_distractor_diamondtriangles.svg	stimuli_target_squarediamonds.svg	16	yes	57	0	544
6.6.1	mac	2022-12-19	23:29:30	23:39:20	588328	60fdf5e83b1de9a21e8ef4e5	310905652	1	main_slash	11	main_slash	109	stimuli_distractor_trianglediamonds.svg	stimuli_target_circletriangles.svg	9	yes	53	1	294
6.6.1	mac	2022-12-19	23:29:30	23:39:20	588328	60fdf5e83b1de9a21e8ef4e5	310905652	1	main_slash	11	advance_on_keypress_SLASH	110	stimuli_distractor_trianglediamonds.svg	stimuli_target_circletriangles.svg	9	yes	57	0	519
6.6.1	mac	2022-12-19	23:29:30	23:39:21	589779	60fdf5e83b1de9a21e8ef4e5	310905652	1	main_slash	11	main_slash	111	stimuli_distractor_trianglediamonds.svg	stimuli_target_diamondsquares.svg	28	yes	53	1	302
6.6.1	mac	2022-12-19	23:29:30	23:39:21	589779	60fdf5e83b1de9a21e8ef4e5	310905652	1	main_slash	11	advance_on_keypress_SLASH	112	stimuli_distractor_trianglediamonds.svg	stimuli_target_diamondsquares.svg	28	yes	57	0	712
6.6.1	mac	2022-12-19	23:29:30	23:39:25	593123	60fdf5e83b1de9a21e8ef4e5	310905652	1	main_slash	11	main_slash	113	stimuli_distractor_diamondtriangles.svg	stimuli_distractor_diamondtriangles.svg	39	no	0	1	2000
6.6.1	mac	2022-12-19	23:29:30	23:39:25	593123	60fdf5e83b1de9a21e8ef4e5	310905652	1	main_slash	11	advance_on_keypress_SLASH	114	stimuli_distractor_diamondtriangles.svg	stimuli_distractor_diamondtriangles.svg	39	no	57	0	309
6.6.1	mac	2022-12-19	23:29:30	23:39:26	594452	60fdf5e83b1de9a21e8ef4e5	310905652	1	main_slash	11	main_slash	115	stimuli_distractor_trianglediamonds.svg	stimuli_target_squarediamonds.svg	12	yes	53	1	379
6.6.1	mac	2022-12-19	23:29:30	23:39:26	594452	60fdf5e83b1de9a21e8ef4e5	310905652	1	main_slash	11	advance_on_keypress_SLASH	116	stimuli_distractor_trianglediamonds.svg	stimuli_target_squarediamonds.svg	12	yes	57	0	527
6.6.1	mac	2022-12-19	23:29:30	23:39:28	595905	60fdf5e83b1de9a21e8ef4e5	310905652	1	main_slash	11	main_slash	117	stimuli_target_circlediamonds.svg	stimuli_distractor_diamondtriangles.svg	6	yes	53	1	280
6.6.1	mac	2022-12-19	23:29:30	23:39:28	595905	60fdf5e83b1de9a21e8ef4e5	310905652	1	main_slash	11	advance_on_keypress_SLASH	118	stimuli_target_circlediamonds.svg	stimuli_distractor_diamondtriangles.svg	6	yes	57	0	563
6.6.1	mac	2022-12-19	23:29:30	23:39:29	597259	60fdf5e83b1de9a21e8ef4e5	310905652	1	main_slash	11	main_slash	119	stimuli_target_squaretriangles.svg	stimuli_distractor_trianglediamonds.svg	3	yes	53	1	165
6.6.1	mac	2022-12-19	23:29:30	23:39:29	597259	60fdf5e83b1de9a21e8ef4e5	310905652	1	main_slash	11	advance_on_keypress_SLASH	120	stimuli_target_squaretriangles.svg	stimuli_distractor_trianglediamonds.svg	3	yes	57	0	1473
6.6.1	mac	2022-12-19	23:29:30	23:39:31	599458	60fdf5e83b1de9a21e8ef4e5	310905652	1	main_slash	11	main_slash	121	stimuli_distractor_diamondtriangles.svg	stimuli_distractor_diamondtriangles.svg	40	no	53	0	99
6.6.1	mac	2022-12-19	23:29:30	23:39:31	599458	60fdf5e83b1de9a21e8ef4e5	310905652	1	main_slash	11	advance_on_keypress_SLASH	122	stimuli_distractor_diamondtriangles.svg	stimuli_distractor_diamondtriangles.svg	40	no	57	0	1294
6.6.1	mac	2022-12-19	23:29:30	23:39:35	603395	60fdf5e83b1de9a21e8ef4e5	310905652	1	main_slash	11	main_slash	123	stimuli_distractor_trianglediamonds.svg	stimuli_distractor_diamondtriangles.svg	36	no	0	1	2000
6.6.1	mac	2022-12-19	23:29:30	23:39:35	603395	60fdf5e83b1de9a21e8ef4e5	310905652	1	main_slash	11	advance_on_keypress_SLASH	124	stimuli_distractor_trianglediamonds.svg	stimuli_distractor_diamondtriangles.svg	36	no	57	0	617
6.6.1	mac	2022-12-19	23:29:30	23:39:37	604918	60fdf5e83b1de9a21e8ef4e5	310905652	1	main_slash	11	main_slash	125	stimuli_distractor_diamondtriangles.svg	stimuli_target_squaretriangles.svg	15	yes	53	1	275
6.6.1	mac	2022-12-19	23:29:30	23:39:37	604918	60fdf5e83b1de9a21e8ef4e5	310905652	1	main_slash	11	advance_on_keypress_SLASH	126	stimuli_distractor_diamondtriangles.svg	stimuli_target_squaretriangles.svg	15	yes	57	0	710
6.6.1	mac	2022-12-19	23:29:30	23:39:38	606358	60fdf5e83b1de9a21e8ef4e5	310905652	1	main_slash	11	main_slash	127	stimuli_distractor_trianglediamonds.svg	stimuli_distractor_diamondtriangles.svg	35	no	53	0	91
6.6.1	mac	2022-12-19	23:29:30	23:39:38	606358	60fdf5e83b1de9a21e8ef4e5	310905652	1	main_slash	11	advance_on_keypress_SLASH	128	stimuli_distractor_trianglediamonds.svg	stimuli_distractor_diamondtriangles.svg	35	no	57	0	1164
6.6.1	mac	2022-12-19	23:29:30	23:39:42	610147	60fdf5e83b1de9a21e8ef4e5	310905652	1	main_slash	11	main_slash	129	stimuli_distractor_trianglediamonds.svg	stimuli_distractor_trianglediamonds.svg	33	no	0	1	2000
6.6.1	mac	2022-12-19	23:29:30	23:39:42	610147	60fdf5e83b1de9a21e8ef4e5	310905652	1	main_slash	11	advance_on_keypress_SLASH	130	stimuli_distractor_trianglediamonds.svg	stimuli_distractor_trianglediamonds.svg	33	no	57	0	673
6.6.1	mac	2022-12-19	23:29:30	23:39:44	611921	60fdf5e83b1de9a21e8ef4e5	310905652	1	main_slash	11	main_slash	131	stimuli_target_squarediamonds.svg	stimuli_distractor_diamondtriangles.svg	8	yes	53	1	470
6.6.1	mac	2022-12-19	23:29:30	23:39:44	611921	60fdf5e83b1de9a21e8ef4e5	310905652	1	main_slash	11	advance_on_keypress_SLASH	132	stimuli_target_squarediamonds.svg	stimuli_distractor_diamondtriangles.svg	8	yes	57	0	467
6.6.1	mac	2022-12-19	23:29:30	23:39:45	613264	60fdf5e83b1de9a21e8ef4e5	310905652	1	main_slash	11	main_slash	133	stimuli_distractor_diamondtriangles.svg	stimuli_target_circletriangles.svg	13	yes	53	1	259
6.6.1	mac	2022-12-19	23:29:30	23:39:45	613264	60fdf5e83b1de9a21e8ef4e5	310905652	1	main_slash	11	advance_on_keypress_SLASH	134	stimuli_distractor_diamondtriangles.svg	stimuli_target_circletriangles.svg	13	yes	57	0	453
6.6.1	mac	2022-12-19	23:29:30	23:39:46	614787	60fdf5e83b1de9a21e8ef4e5	310905652	1	main_slash	11	main_slash	135	stimuli_distractor_diamondtriangles.svg	stimuli_target_trianglesquares.svg	30	yes	53	1	432
6.6.1	mac	2022-12-19	23:29:30	23:39:46	614787	60fdf5e83b1de9a21e8ef4e5	310905652	1	main_slash	11	advance_on_keypress_SLASH	136	stimuli_distractor_diamondtriangles.svg	stimuli_target_trianglesquares.svg	30	yes	57	0	1031
6.6.1	mac	2022-12-19	23:29:30	23:39:50	618439	60fdf5e83b1de9a21e8ef4e5	310905652	1	main_slash	11	main_slash	137	stimuli_target_trianglesquares.svg	stimuli_distractor_trianglediamonds.svg	18	yes	0	0	2000
6.6.1	mac	2022-12-19	23:29:30	23:39:50	618439	60fdf5e83b1de9a21e8ef4e5	310905652	1	main_slash	11	advance_on_keypress_SLASH	138	stimuli_target_trianglesquares.svg	stimuli_distractor_trianglediamonds.svg	18	yes	57	0	781
6.6.1	mac	2022-12-19	23:29:30	23:39:52	620381	60fdf5e83b1de9a21e8ef4e5	310905652	1	main_slash	11	main_slash	139	stimuli_distractor_diamondtriangles.svg	stimuli_target_trianglecircles.svg	29	yes	53	1	537
6.6.1	mac	2022-12-19	23:29:30	23:39:52	620381	60fdf5e83b1de9a21e8ef4e5	310905652	1	main_slash	11	advance_on_keypress_SLASH	140	stimuli_distractor_diamondtriangles.svg	stimuli_target_trianglecircles.svg	29	yes	57	0	663
6.6.1	mac	2022-12-19	23:29:30	23:39:54	622046	60fdf5e83b1de9a21e8ef4e5	310905652	1	main_slash	11	main_slash	141	stimuli_distractor_diamondtriangles.svg	stimuli_target_diamondcircles.svg	31	yes	53	1	367
6.6.1	mac	2022-12-19	23:29:30	23:39:54	622046	60fdf5e83b1de9a21e8ef4e5	310905652	1	main_slash	11	advance_on_keypress_SLASH	142	stimuli_distractor_diamondtriangles.svg	stimuli_target_diamondcircles.svg	31	yes	57	0	685
6.6.1	mac	2022-12-19	23:29:30	23:39:55	623719	60fdf5e83b1de9a21e8ef4e5	310905652	1	main_slash	11	main_slash	143	stimuli_target_diamondcircles.svg	stimuli_distractor_diamondtriangles.svg	23	yes	53	1	363
6.6.1	mac	2022-12-19	23:29:30	23:39:55	623719	60fdf5e83b1de9a21e8ef4e5	310905652	1	main_slash	11	advance_on_keypress_SLASH	144	stimuli_target_diamondcircles.svg	stimuli_distractor_diamondtriangles.svg	23	yes	57	0	531
6.6.1	mac	2022-12-19	23:29:30	23:39:57	625300	60fdf5e83b1de9a21e8ef4e5	310905652	1	main_slash	11	main_slash	145	stimuli_distractor_trianglediamonds.svg	stimuli_target_squaretriangles.svg	11	yes	53	1	422
6.6.1	mac	2022-12-19	23:29:30	23:39:57	625300	60fdf5e83b1de9a21e8ef4e5	310905652	1	main_slash	11	advance_on_keypress_SLASH	146	stimuli_distractor_trianglediamonds.svg	stimuli_target_squaretriangles.svg	11	yes	57	0	471
6.6.1	mac	2022-12-19	23:29:30	23:39:58	626700	60fdf5e83b1de9a21e8ef4e5	310905652	1	main_slash	11	main_slash	147	stimuli_distractor_trianglediamonds.svg	stimuli_target_trianglesquares.svg	26	yes	53	1	305
6.6.1	mac	2022-12-19	23:29:30	23:39:58	626700	60fdf5e83b1de9a21e8ef4e5	310905652	1	main_slash	11	advance_on_keypress_SLASH	148	stimuli_distractor_trianglediamonds.svg	stimuli_target_trianglesquares.svg	26	yes	57	0	509
6.6.1	mac	2022-12-19	23:29:30	23:40:00	628402	60fdf5e83b1de9a21e8ef4e5	310905652	1	main_slash	11	main_slash	149	stimuli_target_circletriangles.svg	stimuli_distractor_diamondtriangles.svg	5	yes	53	1	575
6.6.1	mac	2022-12-19	23:29:30	23:40:00	628402	60fdf5e83b1de9a21e8ef4e5	310905652	1	main_slash	11	advance_on_keypress_SLASH	150	stimuli_target_circletriangles.svg	stimuli_distractor_diamondtriangles.svg	5	yes	57	0	857
6.6.1	mac	2022-12-19	23:29:30	23:40:02	630111	60fdf5e83b1de9a21e8ef4e5	310905652	1	main_slash	11	main_slash	151	stimuli_target_squarediamonds.svg	stimuli_distractor_trianglediamonds.svg	4	yes	53	1	228
6.6.1	mac	2022-12-19	23:29:30	23:40:02	630111	60fdf5e83b1de9a21e8ef4e5	310905652	1	main_slash	11	advance_on_keypress_SLASH	152	stimuli_target_squarediamonds.svg	stimuli_distractor_trianglediamonds.svg	4	yes	57	0	465
6.6.1	mac	2022-12-19	23:29:30	23:40:03	631550	60fdf5e83b1de9a21e8ef4e5	310905652	1	main_slash	11	main_slash	153	stimuli_target_trianglesquares.svg	stimuli_distractor_diamondtriangles.svg	22	yes	53	1	346
6.6.1	mac	2022-12-19	23:29:30	23:40:03	631550	60fdf5e83b1de9a21e8ef4e5	310905652	1	main_slash	11	advance_on_keypress_SLASH	154	stimuli_target_trianglesquares.svg	stimuli_distractor_diamondtriangles.svg	22	yes	57	0	825
6.6.1	mac	2022-12-19	23:29:30	23:40:05	633441	60fdf5e83b1de9a21e8ef4e5	310905652	1	main_slash	11	main_slash	155	stimuli_distractor_diamondtriangles.svg	stimuli_target_diamondsquares.svg	32	yes	53	1	438
6.6.1	mac	2022-12-19	23:29:30	23:40:05	633441	60fdf5e83b1de9a21e8ef4e5	310905652	1	main_slash	11	advance_on_keypress_SLASH	156	stimuli_distractor_diamondtriangles.svg	stimuli_target_diamondsquares.svg	32	yes	57	0	532
6.6.1	mac	2022-12-19	23:29:30	23:40:07	635144	60fdf5e83b1de9a21e8ef4e5	310905652	1	main_slash	11	main_slash	157	stimuli_target_trianglecircles.svg	stimuli_distractor_trianglediamonds.svg	17	yes	53	1	533
6.6.1	mac	2022-12-19	23:29:30	23:40:07	635144	60fdf5e83b1de9a21e8ef4e5	310905652	1	main_slash	11	advance_on_keypress_SLASH	158	stimuli_target_trianglecircles.svg	stimuli_distractor_trianglediamonds.svg	17	yes	57	0	374
6.6.1	mac	2022-12-19	23:29:30	23:40:08	636445	60fdf5e83b1de9a21e8ef4e5	310905652	1	main_slash	11	main_slash	159	stimuli_target_circletriangles.svg	stimuli_distractor_trianglediamonds.svg	1	yes	53	1	289
6.6.1	mac	2022-12-19	23:29:30	23:40:08	636445	60fdf5e83b1de9a21e8ef4e5	310905652	1	main_slash	11	advance_on_keypress_SLASH	160	stimuli_target_circletriangles.svg	stimuli_distractor_trianglediamonds.svg	1	yes	57	0	446